{"condition": 0, "counterbalance": 338, "assignmentId": "37U1UTWH9WTAYNAEYFVY96RAR7A8R9", "workerId": "MTK0326", "hitId": "3TZDZ3Y0JSDKW3WDFBHVER8OUVX192", "currenttrial": 626, "bonus": 0, "data": [{"uniqueid": "MTK0326:37U1UTWH9WTAYNAEYFVY96RAR7A8R9", "current_trial": 0, "dateTime": 1510706966136, "trialdata": {"rt": 2485, "key_press": 13, "type": "INSTRUCTIONS", "trial_type": "text", "trial_index": 0, "time_elapsed": 2491, "internal_node_id": "0.0-0.0"}}, {"uniqueid": "MTK0326:37U1UTWH9WTAYNAEYFVY96RAR7A8R9", "current_trial": 1, "dateTime": 1510706993819, "trialdata": {"rt": 27679, "key_press": 13, "type": "INSTRUCTIONS", "trial_type": "text", "trial_index": 1, "time_elapsed": 30176, "internal_node_id": "0.0-1.0"}}, {"uniqueid": "MTK0326:37U1UTWH9WTAYNAEYFVY96RAR7A8R9", "current_trial": 2, "dateTime": 1510707002813, "trialdata": {"rt": [8930], "responses": ["ocean"], "type": "AUDIO_TEST", "trial_type": "audio-test", "trial_index": 2, "time_elapsed": 39169, "internal_node_id": "0.0-2.0"}}, {"uniqueid": "MTK0326:37U1UTWH9WTAYNAEYFVY96RAR7A8R9", "current_trial": 3, "dateTime": 1510707009432, "trialdata": {"rt": [6610], "responses": ["crystal"], "type": "AUDIO_TEST", "trial_type": "audio-test", "trial_index": 3, "time_elapsed": 45789, "internal_node_id": "0.0-3.0"}}, {"uniqueid": "MTK0326:37U1UTWH9WTAYNAEYFVY96RAR7A8R9", "current_trial": 4, "dateTime": 1510707015618, "trialdata": {"rt": [6180], "responses": ["spice"], "type": "AUDIO_TEST", "trial_type": "audio-test", "trial_index": 4, "time_elapsed": 51975, "internal_node_id": "0.0-4.0"}}, {"uniqueid": "MTK0326:37U1UTWH9WTAYNAEYFVY96RAR7A8R9", "current_trial": 5, "dateTime": 1510707049955, "trialdata": {"rt": 33580, "responses": "{\"Q0\":\"12:30am\",\"Q1\":\"6:15am\",\"Q2\":\"5\"}", "type": "SLEEP_SURVEY", "trial_type": "survey-text", "trial_index": 5, "time_elapsed": 86312, "internal_node_id": "0.0-5.0"}}, {"uniqueid": "MTK0326:37U1UTWH9WTAYNAEYFVY96RAR7A8R9", "current_trial": 6, "dateTime": 1510707121650, "trialdata": {"rt": 70692, "key_press": 13, "type": "INSTRUCTIONS", "trial_type": "text", "trial_index": 6, "time_elapsed": 158006, "internal_node_id": "0.0-6.0"}}, {"uniqueid": "MTK0326:37U1UTWH9WTAYNAEYFVY96RAR7A8R9", "current_trial": 7, "dateTime": 1510707144778, "trialdata": {"rt": 22626, "key_press": 13, "type": "INSTRUCTIONS", "trial_type": "text", "trial_index": 7, "time_elapsed": 181135, "internal_node_id": "0.0-7.0"}}, {"uniqueid": "MTK0326:37U1UTWH9WTAYNAEYFVY96RAR7A8R9", "current_trial": 8, "dateTime": 1510707162043, "trialdata": {"rt": 16762, "key_press": 13, "type": "INSTRUCTIONS", "trial_type": "text", "trial_index": 8, "time_elapsed": 198399, "internal_node_id": "0.0-8.0"}}, {"uniqueid": "MTK0326:37U1UTWH9WTAYNAEYFVY96RAR7A8R9", "current_trial": 9, "dateTime": 1510707181057, "trialdata": {"rt": [6586, 9300, 12154, 15042, 16901], "responses": ["16", "19", "15", "12", "19."], "num1": [9, 6, 9, 9, 7, 2], "num2": [6, 9, 1, 1, 3, 3], "num3": [1, 4, 5, 2, 9, 1], "type": "DISTRACTOR", "conditions": [18, 1200, "v", 18000], "trial": 0, "trial_type": "math-distractor", "trial_index": 9, "time_elapsed": 217414, "internal_node_id": "0.0-9.0"}}, {"uniqueid": "MTK0326:37U1UTWH9WTAYNAEYFVY96RAR7A8R9", "current_trial": 10, "dateTime": 1510707184063, "trialdata": {"rt": -1, "stimulus": "<p id=\"stim\">10</p>", "key_press": -1, "trial_type": "single-stim", "trial_index": 10, "time_elapsed": 220420, "internal_node_id": "0.0-10.0-0.0"}}, {"uniqueid": "MTK0326:37U1UTWH9WTAYNAEYFVY96RAR7A8R9", "current_trial": 11, "dateTime": 1510707185065, "trialdata": {"rt": -1, "stimulus": "<p id=\"stim\">9</p>", "key_press": -1, "trial_type": "single-stim", "trial_index": 11, "time_elapsed": 221422, "internal_node_id": "0.0-10.0-1.0"}}, {"uniqueid": "MTK0326:37U1UTWH9WTAYNAEYFVY96RAR7A8R9", "current_trial": 12, "dateTime": 1510707186067, "trialdata": {"rt": -1, "stimulus": "<p id=\"stim\">8</p>", "key_press": -1, "trial_type": "single-stim", "trial_index": 12, "time_elapsed": 222424, "internal_node_id": "0.0-10.0-2.0"}}, {"uniqueid": "MTK0326:37U1UTWH9WTAYNAEYFVY96RAR7A8R9", "current_trial": 13, "dateTime": 1510707187074, "trialdata": {"rt": -1, "stimulus": "<p id=\"stim\">7</p>", "key_press": -1, "trial_type": "single-stim", "trial_index": 13, "time_elapsed": 223431, "internal_node_id": "0.0-10.0-3.0"}}, {"uniqueid": "MTK0326:37U1UTWH9WTAYNAEYFVY96RAR7A8R9", "current_trial": 14, "dateTime": 1510707188076, "trialdata": {"rt": -1, "stimulus": "<p id=\"stim\">6</p>", "key_press": -1, "trial_type": "single-stim", "trial_index": 14, "time_elapsed": 224433, "internal_node_id": "0.0-10.0-4.0"}}, {"uniqueid": "MTK0326:37U1UTWH9WTAYNAEYFVY96RAR7A8R9", "current_trial": 15, "dateTime": 1510707189079, "trialdata": {"rt": -1, "stimulus": "<p id=\"stim\">5</p>", "key_press": -1, "trial_type": "single-stim", "trial_index": 15, "time_elapsed": 225436, "internal_node_id": "0.0-10.0-5.0"}}, {"uniqueid": "MTK0326:37U1UTWH9WTAYNAEYFVY96RAR7A8R9", "current_trial": 16, "dateTime": 1510707190081, "trialdata": {"rt": -1, "stimulus": "<p id=\"stim\">4</p>", "key_press": -1, "trial_type": "single-stim", "trial_index": 16, "time_elapsed": 226438, "internal_node_id": "0.0-10.0-6.0"}}, {"uniqueid": "MTK0326:37U1UTWH9WTAYNAEYFVY96RAR7A8R9", "current_trial": 17, "dateTime": 1510707191083, "trialdata": {"rt": -1, "stimulus": "<p id=\"stim\">3</p>", "key_press": -1, "trial_type": "single-stim", "trial_index": 17, "time_elapsed": 227440, "internal_node_id": "0.0-10.0-7.0"}}, {"uniqueid": "MTK0326:37U1UTWH9WTAYNAEYFVY96RAR7A8R9", "current_trial": 18, "dateTime": 1510707192085, "trialdata": {"rt": -1, "stimulus": "<p id=\"stim\">2</p>", "key_press": -1, "trial_type": "single-stim", "trial_index": 18, "time_elapsed": 228442, "internal_node_id": "0.0-10.0-8.0"}}, {"uniqueid": "MTK0326:37U1UTWH9WTAYNAEYFVY96RAR7A8R9", "current_trial": 19, "dateTime": 1510707193087, "trialdata": {"rt": -1, "stimulus": "<p id=\"stim\">1</p>", "key_press": -1, "trial_type": "single-stim", "trial_index": 19, "time_elapsed": 229444, "internal_node_id": "0.0-10.0-9.0"}}, {"uniqueid": "MTK0326:37U1UTWH9WTAYNAEYFVY96RAR7A8R9", "current_trial": 20, "dateTime": 1510707194590, "trialdata": {"rt": -1, "stimulus": "<p id=\"stim\">+</p>", "key_press": -1, "type": "FIXATION", "trial_type": "single-stim", "trial_index": 20, "time_elapsed": 230947, "internal_node_id": "0.0-11.0-0.0"}}, {"uniqueid": "MTK0326:37U1UTWH9WTAYNAEYFVY96RAR7A8R9", "current_trial": 21, "dateTime": 1510707195793, "trialdata": {"rt": -1, "stimulus": "<p id=\"stim\">KEEPER</p>", "key_press": -1, "type": "PRES_VIS", "word": "keeper", "wordID": 768, "conditions": [18, 1200, "v", 18000], "trial": 0, "serialpos": 0, "trial_type": "single-stim", "trial_index": 21, "time_elapsed": 232150, "internal_node_id": "0.0-12.0"}}, {"uniqueid": "MTK0326:37U1UTWH9WTAYNAEYFVY96RAR7A8R9", "current_trial": 22, "dateTime": 1510707198047, "trialdata": {"rt": -1, "stimulus": "<p id=\"stim\">VAGRANT</p>", "key_press": -1, "type": "PRES_VIS", "word": "vagrant", "wordID": 1543, "conditions": [18, 1200, "v", 18000], "trial": 0, "serialpos": 1, "trial_type": "single-stim", "trial_index": 22, "time_elapsed": 234404, "internal_node_id": "0.0-13.0"}}, {"uniqueid": "MTK0326:37U1UTWH9WTAYNAEYFVY96RAR7A8R9", "current_trial": 23, "dateTime": 1510707200386, "trialdata": {"rt": -1, "stimulus": "<p id=\"stim\">SHOVEL</p>", "key_press": -1, "type": "PRES_VIS", "word": "shovel", "wordID": 1294, "conditions": [18, 1200, "v", 18000], "trial": 0, "serialpos": 2, "trial_type": "single-stim", "trial_index": 23, "time_elapsed": 236743, "internal_node_id": "0.0-14.0"}}, {"uniqueid": "MTK0326:37U1UTWH9WTAYNAEYFVY96RAR7A8R9", "current_trial": 24, "dateTime": 1510707202405, "trialdata": {"rt": -1, "stimulus": "<p id=\"stim\">PECAN</p>", "key_press": -1, "type": "PRES_VIS", "word": "pecan", "wordID": 1035, "conditions": [18, 1200, "v", 18000], "trial": 0, "serialpos": 3, "trial_type": "single-stim", "trial_index": 24, "time_elapsed": 238762, "internal_node_id": "0.0-15.0"}}, {"uniqueid": "MTK0326:37U1UTWH9WTAYNAEYFVY96RAR7A8R9", "current_trial": 25, "dateTime": 1510707204797, "trialdata": {"rt": -1, "stimulus": "<p id=\"stim\">BELLY</p>", "key_press": -1, "type": "PRES_VIS", "word": "belly", "wordID": 118, "conditions": [18, 1200, "v", 18000], "trial": 0, "serialpos": 4, "trial_type": "single-stim", "trial_index": 25, "time_elapsed": 241154, "internal_node_id": "0.0-16.0"}}, {"uniqueid": "MTK0326:37U1UTWH9WTAYNAEYFVY96RAR7A8R9", "current_trial": 26, "dateTime": 1510707206882, "trialdata": {"rt": -1, "stimulus": "<p id=\"stim\">FLOWER</p>", "key_press": -1, "type": "PRES_VIS", "word": "flower", "wordID": 583, "conditions": [18, 1200, "v", 18000], "trial": 0, "serialpos": 5, "trial_type": "single-stim", "trial_index": 26, "time_elapsed": 243239, "internal_node_id": "0.0-17.0"}}, {"uniqueid": "MTK0326:37U1UTWH9WTAYNAEYFVY96RAR7A8R9", "current_trial": 27, "dateTime": 1510707209132, "trialdata": {"rt": -1, "stimulus": "<p id=\"stim\">WINDOW</p>", "key_press": -1, "type": "PRES_VIS", "word": "window", "wordID": 1610, "conditions": [18, 1200, "v", 18000], "trial": 0, "serialpos": 6, "trial_type": "single-stim", "trial_index": 27, "time_elapsed": 245489, "internal_node_id": "0.0-18.0"}}, {"uniqueid": "MTK0326:37U1UTWH9WTAYNAEYFVY96RAR7A8R9", "current_trial": 28, "dateTime": 1510707211368, "trialdata": {"rt": -1, "stimulus": "<p id=\"stim\">FLESH</p>", "key_press": -1, "type": "PRES_VIS", "word": "flesh", "wordID": 578, "conditions": [18, 1200, "v", 18000], "trial": 0, "serialpos": 7, "trial_type": "single-stim", "trial_index": 28, "time_elapsed": 247725, "internal_node_id": "0.0-19.0"}}, {"uniqueid": "MTK0326:37U1UTWH9WTAYNAEYFVY96RAR7A8R9", "current_trial": 29, "dateTime": 1510707213420, "trialdata": {"rt": -1, "stimulus": "<p id=\"stim\">JOURNAL</p>", "key_press": -1, "type": "PRES_VIS", "word": "journal", "wordID": 759, "conditions": [18, 1200, "v", 18000], "trial": 0, "serialpos": 8, "trial_type": "single-stim", "trial_index": 29, "time_elapsed": 249777, "internal_node_id": "0.0-20.0"}}, {"uniqueid": "MTK0326:37U1UTWH9WTAYNAEYFVY96RAR7A8R9", "current_trial": 30, "dateTime": 1510707215425, "trialdata": {"rt": -1, "stimulus": "<p id=\"stim\">PIZZA</p>", "key_press": -1, "type": "PRES_VIS", "word": "pizza", "wordID": 1078, "conditions": [18, 1200, "v", 18000], "trial": 0, "serialpos": 9, "trial_type": "single-stim", "trial_index": 30, "time_elapsed": 251782, "internal_node_id": "0.0-21.0"}}, {"uniqueid": "MTK0326:37U1UTWH9WTAYNAEYFVY96RAR7A8R9", "current_trial": 31, "dateTime": 1510707217739, "trialdata": {"rt": -1, "stimulus": "<p id=\"stim\">CYCLONE</p>", "key_press": -1, "type": "PRES_VIS", "word": "cyclone", "wordID": 430, "conditions": [18, 1200, "v", 18000], "trial": 0, "serialpos": 10, "trial_type": "single-stim", "trial_index": 31, "time_elapsed": 254096, "internal_node_id": "0.0-22.0"}}, {"uniqueid": "MTK0326:37U1UTWH9WTAYNAEYFVY96RAR7A8R9", "current_trial": 32, "dateTime": 1510707219938, "trialdata": {"rt": -1, "stimulus": "<p id=\"stim\">PLUTO</p>", "key_press": -1, "type": "PRES_VIS", "word": "pluto", "wordID": 1091, "conditions": [18, 1200, "v", 18000], "trial": 0, "serialpos": 11, "trial_type": "single-stim", "trial_index": 32, "time_elapsed": 256295, "internal_node_id": "0.0-23.0"}}, {"uniqueid": "MTK0326:37U1UTWH9WTAYNAEYFVY96RAR7A8R9", "current_trial": 33, "dateTime": 1510707221994, "trialdata": {"rt": -1, "stimulus": "<p id=\"stim\">BACKBONE</p>", "key_press": -1, "type": "PRES_VIS", "word": "backbone", "wordID": 65, "conditions": [18, 1200, "v", 18000], "trial": 0, "serialpos": 12, "trial_type": "single-stim", "trial_index": 33, "time_elapsed": 258351, "internal_node_id": "0.0-24.0"}}, {"uniqueid": "MTK0326:37U1UTWH9WTAYNAEYFVY96RAR7A8R9", "current_trial": 34, "dateTime": 1510707224379, "trialdata": {"rt": -1, "stimulus": "<p id=\"stim\">OINTMENT</p>", "key_press": -1, "type": "PRES_VIS", "word": "ointment", "wordID": 973, "conditions": [18, 1200, "v", 18000], "trial": 0, "serialpos": 13, "trial_type": "single-stim", "trial_index": 34, "time_elapsed": 260736, "internal_node_id": "0.0-25.0"}}, {"uniqueid": "MTK0326:37U1UTWH9WTAYNAEYFVY96RAR7A8R9", "current_trial": 35, "dateTime": 1510707226528, "trialdata": {"rt": -1, "stimulus": "<p id=\"stim\">WAITER</p>", "key_press": -1, "type": "PRES_VIS", "word": "waiter", "wordID": 1579, "conditions": [18, 1200, "v", 18000], "trial": 0, "serialpos": 14, "trial_type": "single-stim", "trial_index": 35, "time_elapsed": 262884, "internal_node_id": "0.0-26.0"}}, {"uniqueid": "MTK0326:37U1UTWH9WTAYNAEYFVY96RAR7A8R9", "current_trial": 36, "dateTime": 1510707228695, "trialdata": {"rt": -1, "stimulus": "<p id=\"stim\">WHISTLE</p>", "key_press": -1, "type": "PRES_VIS", "word": "whistle", "wordID": 1605, "conditions": [18, 1200, "v", 18000], "trial": 0, "serialpos": 15, "trial_type": "single-stim", "trial_index": 36, "time_elapsed": 265052, "internal_node_id": "0.0-27.0"}}, {"uniqueid": "MTK0326:37U1UTWH9WTAYNAEYFVY96RAR7A8R9", "current_trial": 37, "dateTime": 1510707230713, "trialdata": {"rt": -1, "stimulus": "<p id=\"stim\">FREEZER</p>", "key_press": -1, "type": "PRES_VIS", "word": "freezer", "wordID": 603, "conditions": [18, 1200, "v", 18000], "trial": 0, "serialpos": 16, "trial_type": "single-stim", "trial_index": 37, "time_elapsed": 267070, "internal_node_id": "0.0-28.0"}}, {"uniqueid": "MTK0326:37U1UTWH9WTAYNAEYFVY96RAR7A8R9", "current_trial": 38, "dateTime": 1510707233089, "trialdata": {"rt": -1, "stimulus": "<p id=\"stim\">SPHINX</p>", "key_press": -1, "type": "PRES_VIS", "word": "sphinx", "wordID": 1348, "conditions": [18, 1200, "v", 18000], "trial": 0, "serialpos": 17, "trial_type": "single-stim", "trial_index": 38, "time_elapsed": 269445, "internal_node_id": "0.0-29.0"}}, {"uniqueid": "MTK0326:37U1UTWH9WTAYNAEYFVY96RAR7A8R9", "current_trial": 39, "dateTime": 1510707235279, "trialdata": {"rt": -1, "stimulus": "", "key_press": -1, "type": "PRE_RECALL_DELAY", "trial_type": "single-stim", "trial_index": 39, "time_elapsed": 271635, "internal_node_id": "0.0-30.0-0.0"}}, {"uniqueid": "MTK0326:37U1UTWH9WTAYNAEYFVY96RAR7A8R9", "current_trial": 40, "dateTime": 1510707235782, "trialdata": {"rt": -1000, "stimulus": "/static/audio/400Hz.wav", "key_press": -1, "type": "PRE_RECALL_ALERT", "trial_type": "single-audio", "trial_index": 40, "time_elapsed": 272139, "internal_node_id": "0.0-31.0"}}, {"uniqueid": "MTK0326:37U1UTWH9WTAYNAEYFVY96RAR7A8R9", "current_trial": 41, "dateTime": 1510707295798, "trialdata": {"rt": [2663, 4272, 5662, 6181, 9550, 43813], "recwords": ["keeper", "vagrant", "flower", "f", "flesh", "shovel"], "type": "FREE_RECALL", "conditions": [18, 1200, "v", 18000], "trial": 0, "trial_type": "free-recall", "trial_index": 41, "time_elapsed": 332147, "internal_node_id": "0.0-32.0-0.0"}}, {"uniqueid": "MTK0326:37U1UTWH9WTAYNAEYFVY96RAR7A8R9", "current_trial": 42, "dateTime": 1510707331466, "trialdata": {"rt": 33666, "key_press": 32, "type": "INSTRUCTIONS", "trial_type": "text", "trial_index": 42, "time_elapsed": 367823, "internal_node_id": "0.0-33.0"}}, {"uniqueid": "MTK0326:37U1UTWH9WTAYNAEYFVY96RAR7A8R9", "current_trial": 43, "dateTime": 1510707351480, "trialdata": {"rt": [3594, 6499, 10923, 15346, 17330], "responses": ["19", "16", "23", "16", "16"], "num1": [5, 9, 6, 4, 5, 5], "num2": [5, 3, 9, 7, 4, 1], "num3": [9, 4, 8, 5, 7, 8], "type": "DISTRACTOR", "conditions": [18, 1200, "a", 18000], "trial": 1, "trial_type": "math-distractor", "trial_index": 43, "time_elapsed": 387829, "internal_node_id": "0.0-34.0"}}, {"uniqueid": "MTK0326:37U1UTWH9WTAYNAEYFVY96RAR7A8R9", "current_trial": 44, "dateTime": 1510707354483, "trialdata": {"rt": -1, "stimulus": "<p id=\"stim\">10</p>", "key_press": -1, "trial_type": "single-stim", "trial_index": 44, "time_elapsed": 390840, "internal_node_id": "0.0-35.0-0.0"}}, {"uniqueid": "MTK0326:37U1UTWH9WTAYNAEYFVY96RAR7A8R9", "current_trial": 45, "dateTime": 1510707355485, "trialdata": {"rt": -1, "stimulus": "<p id=\"stim\">9</p>", "key_press": -1, "trial_type": "single-stim", "trial_index": 45, "time_elapsed": 391842, "internal_node_id": "0.0-35.0-1.0"}}, {"uniqueid": "MTK0326:37U1UTWH9WTAYNAEYFVY96RAR7A8R9", "current_trial": 46, "dateTime": 1510707356487, "trialdata": {"rt": -1, "stimulus": "<p id=\"stim\">8</p>", "key_press": -1, "trial_type": "single-stim", "trial_index": 46, "time_elapsed": 392844, "internal_node_id": "0.0-35.0-2.0"}}, {"uniqueid": "MTK0326:37U1UTWH9WTAYNAEYFVY96RAR7A8R9", "current_trial": 47, "dateTime": 1510707357490, "trialdata": {"rt": -1, "stimulus": "<p id=\"stim\">7</p>", "key_press": -1, "trial_type": "single-stim", "trial_index": 47, "time_elapsed": 393847, "internal_node_id": "0.0-35.0-3.0"}}, {"uniqueid": "MTK0326:37U1UTWH9WTAYNAEYFVY96RAR7A8R9", "current_trial": 48, "dateTime": 1510707358492, "trialdata": {"rt": -1, "stimulus": "<p id=\"stim\">6</p>", "key_press": -1, "trial_type": "single-stim", "trial_index": 48, "time_elapsed": 394849, "internal_node_id": "0.0-35.0-4.0"}}, {"uniqueid": "MTK0326:37U1UTWH9WTAYNAEYFVY96RAR7A8R9", "current_trial": 49, "dateTime": 1510707359494, "trialdata": {"rt": -1, "stimulus": "<p id=\"stim\">5</p>", "key_press": -1, "trial_type": "single-stim", "trial_index": 49, "time_elapsed": 395851, "internal_node_id": "0.0-35.0-5.0"}}, {"uniqueid": "MTK0326:37U1UTWH9WTAYNAEYFVY96RAR7A8R9", "current_trial": 50, "dateTime": 1510707360496, "trialdata": {"rt": -1, "stimulus": "<p id=\"stim\">4</p>", "key_press": -1, "trial_type": "single-stim", "trial_index": 50, "time_elapsed": 396853, "internal_node_id": "0.0-35.0-6.0"}}, {"uniqueid": "MTK0326:37U1UTWH9WTAYNAEYFVY96RAR7A8R9", "current_trial": 51, "dateTime": 1510707361498, "trialdata": {"rt": -1, "stimulus": "<p id=\"stim\">3</p>", "key_press": -1, "trial_type": "single-stim", "trial_index": 51, "time_elapsed": 397855, "internal_node_id": "0.0-35.0-7.0"}}, {"uniqueid": "MTK0326:37U1UTWH9WTAYNAEYFVY96RAR7A8R9", "current_trial": 52, "dateTime": 1510707362500, "trialdata": {"rt": -1, "stimulus": "<p id=\"stim\">2</p>", "key_press": -1, "trial_type": "single-stim", "trial_index": 52, "time_elapsed": 398857, "internal_node_id": "0.0-35.0-8.0"}}, {"uniqueid": "MTK0326:37U1UTWH9WTAYNAEYFVY96RAR7A8R9", "current_trial": 53, "dateTime": 1510707363502, "trialdata": {"rt": -1, "stimulus": "<p id=\"stim\">1</p>", "key_press": -1, "trial_type": "single-stim", "trial_index": 53, "time_elapsed": 399859, "internal_node_id": "0.0-35.0-9.0"}}, {"uniqueid": "MTK0326:37U1UTWH9WTAYNAEYFVY96RAR7A8R9", "current_trial": 54, "dateTime": 1510707365004, "trialdata": {"rt": -1, "stimulus": "<p id=\"stim\">+</p>", "key_press": -1, "type": "FIXATION", "trial_type": "single-stim", "trial_index": 54, "time_elapsed": 401361, "internal_node_id": "0.0-36.0-0.0"}}, {"uniqueid": "MTK0326:37U1UTWH9WTAYNAEYFVY96RAR7A8R9", "current_trial": 55, "dateTime": 1510707367378, "trialdata": {"rt": -1000, "stimulus": "/static/audio/wordpool/KIDNEY.wav", "key_press": -1, "type": "PRES_AUD", "word": "kidney", "wordID": 775, "conditions": [18, 1200, "a", 18000], "trial": 1, "serialpos": 0, "trial_type": "single-audio", "trial_index": 55, "time_elapsed": 403734, "internal_node_id": "0.0-37.0"}}, {"uniqueid": "MTK0326:37U1UTWH9WTAYNAEYFVY96RAR7A8R9", "current_trial": 56, "dateTime": 1510707369478, "trialdata": {"rt": -1000, "stimulus": "/static/audio/wordpool/SPIDER.wav", "key_press": -1, "type": "PRES_AUD", "word": "spider", "wordID": 1350, "conditions": [18, 1200, "a", 18000], "trial": 1, "serialpos": 1, "trial_type": "single-audio", "trial_index": 56, "time_elapsed": 405835, "internal_node_id": "0.0-38.0"}}, {"uniqueid": "MTK0326:37U1UTWH9WTAYNAEYFVY96RAR7A8R9", "current_trial": 57, "dateTime": 1510707371689, "trialdata": {"rt": -1000, "stimulus": "/static/audio/wordpool/BEEF.wav", "key_press": -1, "type": "PRES_AUD", "word": "beef", "wordID": 112, "conditions": [18, 1200, "a", 18000], "trial": 1, "serialpos": 2, "trial_type": "single-audio", "trial_index": 57, "time_elapsed": 408045, "internal_node_id": "0.0-39.0"}}, {"uniqueid": "MTK0326:37U1UTWH9WTAYNAEYFVY96RAR7A8R9", "current_trial": 58, "dateTime": 1510707374089, "trialdata": {"rt": -1000, "stimulus": "/static/audio/wordpool/FRECKLE.wav", "key_press": -1, "type": "PRES_AUD", "word": "freckle", "wordID": 601, "conditions": [18, 1200, "a", 18000], "trial": 1, "serialpos": 3, "trial_type": "single-audio", "trial_index": 58, "time_elapsed": 410445, "internal_node_id": "0.0-40.0"}}, {"uniqueid": "MTK0326:37U1UTWH9WTAYNAEYFVY96RAR7A8R9", "current_trial": 59, "dateTime": 1510707376234, "trialdata": {"rt": -1000, "stimulus": "/static/audio/wordpool/BUCKET.wav", "key_press": -1, "type": "PRES_AUD", "word": "bucket", "wordID": 183, "conditions": [18, 1200, "a", 18000], "trial": 1, "serialpos": 4, "trial_type": "single-audio", "trial_index": 59, "time_elapsed": 412590, "internal_node_id": "0.0-41.0"}}, {"uniqueid": "MTK0326:37U1UTWH9WTAYNAEYFVY96RAR7A8R9", "current_trial": 60, "dateTime": 1510707378453, "trialdata": {"rt": -1000, "stimulus": "/static/audio/wordpool/SHIRT.wav", "key_press": -1, "type": "PRES_AUD", "word": "shirt", "wordID": 1286, "conditions": [18, 1200, "a", 18000], "trial": 1, "serialpos": 5, "trial_type": "single-audio", "trial_index": 60, "time_elapsed": 414809, "internal_node_id": "0.0-42.0"}}, {"uniqueid": "MTK0326:37U1UTWH9WTAYNAEYFVY96RAR7A8R9", "current_trial": 61, "dateTime": 1510707380722, "trialdata": {"rt": -1000, "stimulus": "/static/audio/wordpool/BUBBLE.wav", "key_press": -1, "type": "PRES_AUD", "word": "bubble", "wordID": 182, "conditions": [18, 1200, "a", 18000], "trial": 1, "serialpos": 6, "trial_type": "single-audio", "trial_index": 61, "time_elapsed": 417079, "internal_node_id": "0.0-43.0"}}, {"uniqueid": "MTK0326:37U1UTWH9WTAYNAEYFVY96RAR7A8R9", "current_trial": 62, "dateTime": 1510707382945, "trialdata": {"rt": -1000, "stimulus": "/static/audio/wordpool/XEROX.wav", "key_press": -1, "type": "PRES_AUD", "word": "xerox", "wordID": 1627, "conditions": [18, 1200, "a", 18000], "trial": 1, "serialpos": 7, "trial_type": "single-audio", "trial_index": 62, "time_elapsed": 419302, "internal_node_id": "0.0-44.0"}}, {"uniqueid": "MTK0326:37U1UTWH9WTAYNAEYFVY96RAR7A8R9", "current_trial": 63, "dateTime": 1510707385196, "trialdata": {"rt": -1000, "stimulus": "/static/audio/wordpool/FOREHEAD.wav", "key_press": -1, "type": "PRES_AUD", "word": "forehead", "wordID": 591, "conditions": [18, 1200, "a", 18000], "trial": 1, "serialpos": 8, "trial_type": "single-audio", "trial_index": 63, "time_elapsed": 421553, "internal_node_id": "0.0-45.0"}}, {"uniqueid": "MTK0326:37U1UTWH9WTAYNAEYFVY96RAR7A8R9", "current_trial": 64, "dateTime": 1510707387231, "trialdata": {"rt": -1000, "stimulus": "/static/audio/wordpool/FIREMAN.wav", "key_press": -1, "type": "PRES_AUD", "word": "fireman", "wordID": 568, "conditions": [18, 1200, "a", 18000], "trial": 1, "serialpos": 9, "trial_type": "single-audio", "trial_index": 64, "time_elapsed": 423588, "internal_node_id": "0.0-46.0"}}, {"uniqueid": "MTK0326:37U1UTWH9WTAYNAEYFVY96RAR7A8R9", "current_trial": 65, "dateTime": 1510707389539, "trialdata": {"rt": -1000, "stimulus": "/static/audio/wordpool/FEMALE.wav", "key_press": -1, "type": "PRES_AUD", "word": "female", "wordID": 558, "conditions": [18, 1200, "a", 18000], "trial": 1, "serialpos": 10, "trial_type": "single-audio", "trial_index": 65, "time_elapsed": 425895, "internal_node_id": "0.0-47.0"}}, {"uniqueid": "MTK0326:37U1UTWH9WTAYNAEYFVY96RAR7A8R9", "current_trial": 66, "dateTime": 1510707391930, "trialdata": {"rt": -1000, "stimulus": "/static/audio/wordpool/TROMBONE.wav", "key_press": -1, "type": "PRES_AUD", "word": "trombone", "wordID": 1507, "conditions": [18, 1200, "a", 18000], "trial": 1, "serialpos": 11, "trial_type": "single-audio", "trial_index": 66, "time_elapsed": 428286, "internal_node_id": "0.0-48.0"}}, {"uniqueid": "MTK0326:37U1UTWH9WTAYNAEYFVY96RAR7A8R9", "current_trial": 67, "dateTime": 1510707394206, "trialdata": {"rt": -1000, "stimulus": "/static/audio/wordpool/PIMPLE.wav", "key_press": -1, "type": "PRES_AUD", "word": "pimple", "wordID": 1070, "conditions": [18, 1200, "a", 18000], "trial": 1, "serialpos": 12, "trial_type": "single-audio", "trial_index": 67, "time_elapsed": 430562, "internal_node_id": "0.0-49.0"}}, {"uniqueid": "MTK0326:37U1UTWH9WTAYNAEYFVY96RAR7A8R9", "current_trial": 68, "dateTime": 1510707396405, "trialdata": {"rt": -1000, "stimulus": "/static/audio/wordpool/SERVER.wav", "key_press": -1, "type": "PRES_AUD", "word": "server", "wordID": 1271, "conditions": [18, 1200, "a", 18000], "trial": 1, "serialpos": 13, "trial_type": "single-audio", "trial_index": 68, "time_elapsed": 432760, "internal_node_id": "0.0-50.0"}}, {"uniqueid": "MTK0326:37U1UTWH9WTAYNAEYFVY96RAR7A8R9", "current_trial": 69, "dateTime": 1510707398525, "trialdata": {"rt": -1000, "stimulus": "/static/audio/wordpool/SLOPE.wav", "key_press": -1, "type": "PRES_AUD", "word": "slope", "wordID": 1327, "conditions": [18, 1200, "a", 18000], "trial": 1, "serialpos": 14, "trial_type": "single-audio", "trial_index": 69, "time_elapsed": 434881, "internal_node_id": "0.0-51.0"}}, {"uniqueid": "MTK0326:37U1UTWH9WTAYNAEYFVY96RAR7A8R9", "current_trial": 70, "dateTime": 1510707400600, "trialdata": {"rt": -1000, "stimulus": "/static/audio/wordpool/AIRPORT.wav", "key_press": -1, "type": "PRES_AUD", "word": "airport", "wordID": 12, "conditions": [18, 1200, "a", 18000], "trial": 1, "serialpos": 15, "trial_type": "single-audio", "trial_index": 70, "time_elapsed": 436957, "internal_node_id": "0.0-52.0"}}, {"uniqueid": "MTK0326:37U1UTWH9WTAYNAEYFVY96RAR7A8R9", "current_trial": 71, "dateTime": 1510707402766, "trialdata": {"rt": -1000, "stimulus": "/static/audio/wordpool/COUNTY.wav", "key_press": -1, "type": "PRES_AUD", "word": "county", "wordID": 388, "conditions": [18, 1200, "a", 18000], "trial": 1, "serialpos": 16, "trial_type": "single-audio", "trial_index": 71, "time_elapsed": 439123, "internal_node_id": "0.0-53.0"}}, {"uniqueid": "MTK0326:37U1UTWH9WTAYNAEYFVY96RAR7A8R9", "current_trial": 72, "dateTime": 1510707405111, "trialdata": {"rt": -1000, "stimulus": "/static/audio/wordpool/BOUQUET.wav", "key_press": -1, "type": "PRES_AUD", "word": "bouquet", "wordID": 156, "conditions": [18, 1200, "a", 18000], "trial": 1, "serialpos": 17, "trial_type": "single-audio", "trial_index": 72, "time_elapsed": 441468, "internal_node_id": "0.0-54.0"}}, {"uniqueid": "MTK0326:37U1UTWH9WTAYNAEYFVY96RAR7A8R9", "current_trial": 73, "dateTime": 1510707406484, "trialdata": {"rt": -1, "stimulus": "", "key_press": -1, "type": "PRE_RECALL_DELAY", "trial_type": "single-stim", "trial_index": 73, "time_elapsed": 442841, "internal_node_id": "0.0-55.0-0.0"}}, {"uniqueid": "MTK0326:37U1UTWH9WTAYNAEYFVY96RAR7A8R9", "current_trial": 74, "dateTime": 1510707406986, "trialdata": {"rt": -1000, "stimulus": "/static/audio/400Hz.wav", "key_press": -1, "type": "PRE_RECALL_ALERT", "trial_type": "single-audio", "trial_index": 74, "time_elapsed": 443343, "internal_node_id": "0.0-56.0"}}, {"uniqueid": "MTK0326:37U1UTWH9WTAYNAEYFVY96RAR7A8R9", "current_trial": 75, "dateTime": 1510707466998, "trialdata": {"rt": [7036, 9684, 12620, 16763, 19532, 22460, 25140, 29404, 32460, 35707, 40020, 49821], "recwords": ["bouquet", "county", "trombone", "spider", "freckle", "airport", "county", "fireman", "female", "bubble", "xerox", "bubble"], "type": "FREE_RECALL", "conditions": [18, 1200, "a", 18000], "trial": 1, "trial_type": "free-recall", "trial_index": 75, "time_elapsed": 503350, "internal_node_id": "0.0-57.0-0.0"}}, {"uniqueid": "MTK0326:37U1UTWH9WTAYNAEYFVY96RAR7A8R9", "current_trial": 76, "dateTime": 1510707472423, "trialdata": {"rt": 3410, "key_press": 32, "type": "INSTRUCTIONS", "trial_type": "text", "trial_index": 76, "time_elapsed": 508767, "internal_node_id": "0.0-58.0"}}, {"uniqueid": "MTK0326:37U1UTWH9WTAYNAEYFVY96RAR7A8R9", "current_trial": 77, "dateTime": 1510707485431, "trialdata": {"rt": [2813, 6004, 8094, 9989], "responses": ["12", "20", "10", "13"], "num1": [4, 9, 1, 7, 2], "num2": [7, 5, 7, 3, 6], "num3": [1, 6, 2, 3, 6], "type": "DISTRACTOR", "conditions": [24, 1600, "a", 12000], "trial": 2, "trial_type": "math-distractor", "trial_index": 77, "time_elapsed": 521787, "internal_node_id": "0.0-59.0"}}, {"uniqueid": "MTK0326:37U1UTWH9WTAYNAEYFVY96RAR7A8R9", "current_trial": 78, "dateTime": 1510707488434, "trialdata": {"rt": -1, "stimulus": "<p id=\"stim\">10</p>", "key_press": -1, "trial_type": "single-stim", "trial_index": 78, "time_elapsed": 524791, "internal_node_id": "0.0-60.0-0.0"}}, {"uniqueid": "MTK0326:37U1UTWH9WTAYNAEYFVY96RAR7A8R9", "current_trial": 79, "dateTime": 1510707489436, "trialdata": {"rt": -1, "stimulus": "<p id=\"stim\">9</p>", "key_press": -1, "trial_type": "single-stim", "trial_index": 79, "time_elapsed": 525792, "internal_node_id": "0.0-60.0-1.0"}}, {"uniqueid": "MTK0326:37U1UTWH9WTAYNAEYFVY96RAR7A8R9", "current_trial": 80, "dateTime": 1510707490438, "trialdata": {"rt": -1, "stimulus": "<p id=\"stim\">8</p>", "key_press": -1, "trial_type": "single-stim", "trial_index": 80, "time_elapsed": 526795, "internal_node_id": "0.0-60.0-2.0"}}, {"uniqueid": "MTK0326:37U1UTWH9WTAYNAEYFVY96RAR7A8R9", "current_trial": 81, "dateTime": 1510707491440, "trialdata": {"rt": -1, "stimulus": "<p id=\"stim\">7</p>", "key_press": -1, "trial_type": "single-stim", "trial_index": 81, "time_elapsed": 527797, "internal_node_id": "0.0-60.0-3.0"}}, {"uniqueid": "MTK0326:37U1UTWH9WTAYNAEYFVY96RAR7A8R9", "current_trial": 82, "dateTime": 1510707492442, "trialdata": {"rt": -1, "stimulus": "<p id=\"stim\">6</p>", "key_press": -1, "trial_type": "single-stim", "trial_index": 82, "time_elapsed": 528799, "internal_node_id": "0.0-60.0-4.0"}}, {"uniqueid": "MTK0326:37U1UTWH9WTAYNAEYFVY96RAR7A8R9", "current_trial": 83, "dateTime": 1510707493444, "trialdata": {"rt": -1, "stimulus": "<p id=\"stim\">5</p>", "key_press": -1, "trial_type": "single-stim", "trial_index": 83, "time_elapsed": 529801, "internal_node_id": "0.0-60.0-5.0"}}, {"uniqueid": "MTK0326:37U1UTWH9WTAYNAEYFVY96RAR7A8R9", "current_trial": 84, "dateTime": 1510707494446, "trialdata": {"rt": -1, "stimulus": "<p id=\"stim\">4</p>", "key_press": -1, "trial_type": "single-stim", "trial_index": 84, "time_elapsed": 530803, "internal_node_id": "0.0-60.0-6.0"}}, {"uniqueid": "MTK0326:37U1UTWH9WTAYNAEYFVY96RAR7A8R9", "current_trial": 85, "dateTime": 1510707495448, "trialdata": {"rt": -1, "stimulus": "<p id=\"stim\">3</p>", "key_press": -1, "trial_type": "single-stim", "trial_index": 85, "time_elapsed": 531805, "internal_node_id": "0.0-60.0-7.0"}}, {"uniqueid": "MTK0326:37U1UTWH9WTAYNAEYFVY96RAR7A8R9", "current_trial": 86, "dateTime": 1510707496450, "trialdata": {"rt": -1, "stimulus": "<p id=\"stim\">2</p>", "key_press": -1, "trial_type": "single-stim", "trial_index": 86, "time_elapsed": 532807, "internal_node_id": "0.0-60.0-8.0"}}, {"uniqueid": "MTK0326:37U1UTWH9WTAYNAEYFVY96RAR7A8R9", "current_trial": 87, "dateTime": 1510707497453, "trialdata": {"rt": -1, "stimulus": "<p id=\"stim\">1</p>", "key_press": -1, "trial_type": "single-stim", "trial_index": 87, "time_elapsed": 533810, "internal_node_id": "0.0-60.0-9.0"}}, {"uniqueid": "MTK0326:37U1UTWH9WTAYNAEYFVY96RAR7A8R9", "current_trial": 88, "dateTime": 1510707498955, "trialdata": {"rt": -1, "stimulus": "<p id=\"stim\">+</p>", "key_press": -1, "type": "FIXATION", "trial_type": "single-stim", "trial_index": 88, "time_elapsed": 535312, "internal_node_id": "0.0-61.0-0.0"}}, {"uniqueid": "MTK0326:37U1UTWH9WTAYNAEYFVY96RAR7A8R9", "current_trial": 89, "dateTime": 1510707501643, "trialdata": {"rt": -1000, "stimulus": "/static/audio/wordpool/TROUT.wav", "key_press": -1, "type": "PRES_AUD", "word": "trout", "wordID": 1510, "conditions": [24, 1600, "a", 12000], "trial": 2, "serialpos": 0, "trial_type": "single-audio", "trial_index": 89, "time_elapsed": 538000, "internal_node_id": "0.0-62.0"}}, {"uniqueid": "MTK0326:37U1UTWH9WTAYNAEYFVY96RAR7A8R9", "current_trial": 90, "dateTime": 1510707504197, "trialdata": {"rt": -1000, "stimulus": "/static/audio/wordpool/WORKER.wav", "key_press": -1, "type": "PRES_AUD", "word": "worker", "wordID": 1620, "conditions": [24, 1600, "a", 12000], "trial": 2, "serialpos": 1, "trial_type": "single-audio", "trial_index": 90, "time_elapsed": 540554, "internal_node_id": "0.0-63.0"}}, {"uniqueid": "MTK0326:37U1UTWH9WTAYNAEYFVY96RAR7A8R9", "current_trial": 91, "dateTime": 1510707506714, "trialdata": {"rt": -1000, "stimulus": "/static/audio/wordpool/SNAIL.wav", "key_press": -1, "type": "PRES_AUD", "word": "snail", "wordID": 1331, "conditions": [24, 1600, "a", 12000], "trial": 2, "serialpos": 2, "trial_type": "single-audio", "trial_index": 91, "time_elapsed": 543071, "internal_node_id": "0.0-64.0"}}, {"uniqueid": "MTK0326:37U1UTWH9WTAYNAEYFVY96RAR7A8R9", "current_trial": 92, "dateTime": 1510707509129, "trialdata": {"rt": -1000, "stimulus": "/static/audio/wordpool/LIZARD.wav", "key_press": -1, "type": "PRES_AUD", "word": "lizard", "wordID": 833, "conditions": [24, 1600, "a", 12000], "trial": 2, "serialpos": 3, "trial_type": "single-audio", "trial_index": 92, "time_elapsed": 545486, "internal_node_id": "0.0-65.0"}}, {"uniqueid": "MTK0326:37U1UTWH9WTAYNAEYFVY96RAR7A8R9", "current_trial": 93, "dateTime": 1510707511577, "trialdata": {"rt": -1000, "stimulus": "/static/audio/wordpool/SNACK.wav", "key_press": -1, "type": "PRES_AUD", "word": "snack", "wordID": 1330, "conditions": [24, 1600, "a", 12000], "trial": 2, "serialpos": 4, "trial_type": "single-audio", "trial_index": 93, "time_elapsed": 547934, "internal_node_id": "0.0-66.0"}}, {"uniqueid": "MTK0326:37U1UTWH9WTAYNAEYFVY96RAR7A8R9", "current_trial": 94, "dateTime": 1510707514076, "trialdata": {"rt": -1000, "stimulus": "/static/audio/wordpool/PARROT.wav", "key_press": -1, "type": "PRES_AUD", "word": "parrot", "wordID": 1014, "conditions": [24, 1600, "a", 12000], "trial": 2, "serialpos": 5, "trial_type": "single-audio", "trial_index": 94, "time_elapsed": 550432, "internal_node_id": "0.0-67.0"}}, {"uniqueid": "MTK0326:37U1UTWH9WTAYNAEYFVY96RAR7A8R9", "current_trial": 95, "dateTime": 1510707516631, "trialdata": {"rt": -1000, "stimulus": "/static/audio/wordpool/PLIERS.wav", "key_press": -1, "type": "PRES_AUD", "word": "pliers", "wordID": 1088, "conditions": [24, 1600, "a", 12000], "trial": 2, "serialpos": 6, "trial_type": "single-audio", "trial_index": 95, "time_elapsed": 552988, "internal_node_id": "0.0-68.0"}}, {"uniqueid": "MTK0326:37U1UTWH9WTAYNAEYFVY96RAR7A8R9", "current_trial": 96, "dateTime": 1510707519205, "trialdata": {"rt": -1000, "stimulus": "/static/audio/wordpool/LUMBER.wav", "key_press": -1, "type": "PRES_AUD", "word": "lumber", "wordID": 847, "conditions": [24, 1600, "a", 12000], "trial": 2, "serialpos": 7, "trial_type": "single-audio", "trial_index": 96, "time_elapsed": 555562, "internal_node_id": "0.0-69.0"}}, {"uniqueid": "MTK0326:37U1UTWH9WTAYNAEYFVY96RAR7A8R9", "current_trial": 97, "dateTime": 1510707521826, "trialdata": {"rt": -1000, "stimulus": "/static/audio/wordpool/LUNCH.wav", "key_press": -1, "type": "PRES_AUD", "word": "lunch", "wordID": 848, "conditions": [24, 1600, "a", 12000], "trial": 2, "serialpos": 8, "trial_type": "single-audio", "trial_index": 97, "time_elapsed": 558183, "internal_node_id": "0.0-70.0"}}, {"uniqueid": "MTK0326:37U1UTWH9WTAYNAEYFVY96RAR7A8R9", "current_trial": 98, "dateTime": 1510707524529, "trialdata": {"rt": -1000, "stimulus": "/static/audio/wordpool/STATUE.wav", "key_press": -1, "type": "PRES_AUD", "word": "statue", "wordID": 1373, "conditions": [24, 1600, "a", 12000], "trial": 2, "serialpos": 9, "trial_type": "single-audio", "trial_index": 98, "time_elapsed": 560886, "internal_node_id": "0.0-71.0"}}, {"uniqueid": "MTK0326:37U1UTWH9WTAYNAEYFVY96RAR7A8R9", "current_trial": 99, "dateTime": 1510707526981, "trialdata": {"rt": -1000, "stimulus": "/static/audio/wordpool/OUTDOORS.wav", "key_press": -1, "type": "PRES_AUD", "word": "outdoors", "wordID": 986, "conditions": [24, 1600, "a", 12000], "trial": 2, "serialpos": 10, "trial_type": "single-audio", "trial_index": 99, "time_elapsed": 563338, "internal_node_id": "0.0-72.0"}}, {"uniqueid": "MTK0326:37U1UTWH9WTAYNAEYFVY96RAR7A8R9", "current_trial": 100, "dateTime": 1510707529752, "trialdata": {"rt": -1000, "stimulus": "/static/audio/wordpool/ROOSTER.wav", "key_press": -1, "type": "PRES_AUD", "word": "rooster", "wordID": 1208, "conditions": [24, 1600, "a", 12000], "trial": 2, "serialpos": 11, "trial_type": "single-audio", "trial_index": 100, "time_elapsed": 566109, "internal_node_id": "0.0-73.0"}}, {"uniqueid": "MTK0326:37U1UTWH9WTAYNAEYFVY96RAR7A8R9", "current_trial": 101, "dateTime": 1510707532275, "trialdata": {"rt": -1000, "stimulus": "/static/audio/wordpool/FOOT.wav", "key_press": -1, "type": "PRES_AUD", "word": "foot", "wordID": 589, "conditions": [24, 1600, "a", 12000], "trial": 2, "serialpos": 12, "trial_type": "single-audio", "trial_index": 101, "time_elapsed": 568631, "internal_node_id": "0.0-74.0"}}, {"uniqueid": "MTK0326:37U1UTWH9WTAYNAEYFVY96RAR7A8R9", "current_trial": 102, "dateTime": 1510707534892, "trialdata": {"rt": -1000, "stimulus": "/static/audio/wordpool/HANDBAG.wav", "key_press": -1, "type": "PRES_AUD", "word": "handbag", "wordID": 683, "conditions": [24, 1600, "a", 12000], "trial": 2, "serialpos": 13, "trial_type": "single-audio", "trial_index": 102, "time_elapsed": 571249, "internal_node_id": "0.0-75.0"}}, {"uniqueid": "MTK0326:37U1UTWH9WTAYNAEYFVY96RAR7A8R9", "current_trial": 103, "dateTime": 1510707537591, "trialdata": {"rt": -1000, "stimulus": "/static/audio/wordpool/SNAKE.wav", "key_press": -1, "type": "PRES_AUD", "word": "snake", "wordID": 1332, "conditions": [24, 1600, "a", 12000], "trial": 2, "serialpos": 14, "trial_type": "single-audio", "trial_index": 103, "time_elapsed": 573948, "internal_node_id": "0.0-76.0"}}, {"uniqueid": "MTK0326:37U1UTWH9WTAYNAEYFVY96RAR7A8R9", "current_trial": 104, "dateTime": 1510707540205, "trialdata": {"rt": -1000, "stimulus": "/static/audio/wordpool/COBRA.wav", "key_press": -1, "type": "PRES_AUD", "word": "cobra", "wordID": 335, "conditions": [24, 1600, "a", 12000], "trial": 2, "serialpos": 15, "trial_type": "single-audio", "trial_index": 104, "time_elapsed": 576561, "internal_node_id": "0.0-77.0"}}, {"uniqueid": "MTK0326:37U1UTWH9WTAYNAEYFVY96RAR7A8R9", "current_trial": 105, "dateTime": 1510707542783, "trialdata": {"rt": -1000, "stimulus": "/static/audio/wordpool/COCOON.wav", "key_press": -1, "type": "PRES_AUD", "word": "cocoon", "wordID": 338, "conditions": [24, 1600, "a", 12000], "trial": 2, "serialpos": 16, "trial_type": "single-audio", "trial_index": 105, "time_elapsed": 579139, "internal_node_id": "0.0-78.0"}}, {"uniqueid": "MTK0326:37U1UTWH9WTAYNAEYFVY96RAR7A8R9", "current_trial": 106, "dateTime": 1510707545280, "trialdata": {"rt": -1000, "stimulus": "/static/audio/wordpool/BUREAU.wav", "key_press": -1, "type": "PRES_AUD", "word": "bureau", "wordID": 198, "conditions": [24, 1600, "a", 12000], "trial": 2, "serialpos": 17, "trial_type": "single-audio", "trial_index": 106, "time_elapsed": 581636, "internal_node_id": "0.0-79.0"}}, {"uniqueid": "MTK0326:37U1UTWH9WTAYNAEYFVY96RAR7A8R9", "current_trial": 107, "dateTime": 1510707548034, "trialdata": {"rt": -1000, "stimulus": "/static/audio/wordpool/RIFLE.wav", "key_press": -1, "type": "PRES_AUD", "word": "rifle", "wordID": 1191, "conditions": [24, 1600, "a", 12000], "trial": 2, "serialpos": 18, "trial_type": "single-audio", "trial_index": 107, "time_elapsed": 584391, "internal_node_id": "0.0-80.0"}}, {"uniqueid": "MTK0326:37U1UTWH9WTAYNAEYFVY96RAR7A8R9", "current_trial": 108, "dateTime": 1510707550703, "trialdata": {"rt": -1000, "stimulus": "/static/audio/wordpool/GUARD.wav", "key_press": -1, "type": "PRES_AUD", "word": "guard", "wordID": 666, "conditions": [24, 1600, "a", 12000], "trial": 2, "serialpos": 19, "trial_type": "single-audio", "trial_index": 108, "time_elapsed": 587059, "internal_node_id": "0.0-81.0"}}, {"uniqueid": "MTK0326:37U1UTWH9WTAYNAEYFVY96RAR7A8R9", "current_trial": 109, "dateTime": 1510707553335, "trialdata": {"rt": -1000, "stimulus": "/static/audio/wordpool/ORCHID.wav", "key_press": -1, "type": "PRES_AUD", "word": "orchid", "wordID": 981, "conditions": [24, 1600, "a", 12000], "trial": 2, "serialpos": 20, "trial_type": "single-audio", "trial_index": 109, "time_elapsed": 589692, "internal_node_id": "0.0-82.0"}}, {"uniqueid": "MTK0326:37U1UTWH9WTAYNAEYFVY96RAR7A8R9", "current_trial": 110, "dateTime": 1510707556074, "trialdata": {"rt": -1000, "stimulus": "/static/audio/wordpool/SPARROW.wav", "key_press": -1, "type": "PRES_AUD", "word": "sparrow", "wordID": 1346, "conditions": [24, 1600, "a", 12000], "trial": 2, "serialpos": 21, "trial_type": "single-audio", "trial_index": 110, "time_elapsed": 592430, "internal_node_id": "0.0-83.0"}}, {"uniqueid": "MTK0326:37U1UTWH9WTAYNAEYFVY96RAR7A8R9", "current_trial": 111, "dateTime": 1510707558640, "trialdata": {"rt": -1000, "stimulus": "/static/audio/wordpool/RAFT.wav", "key_press": -1, "type": "PRES_AUD", "word": "raft", "wordID": 1158, "conditions": [24, 1600, "a", 12000], "trial": 2, "serialpos": 22, "trial_type": "single-audio", "trial_index": 111, "time_elapsed": 594997, "internal_node_id": "0.0-84.0"}}, {"uniqueid": "MTK0326:37U1UTWH9WTAYNAEYFVY96RAR7A8R9", "current_trial": 112, "dateTime": 1510707561424, "trialdata": {"rt": -1000, "stimulus": "/static/audio/wordpool/NECKLACE.wav", "key_press": -1, "type": "PRES_AUD", "word": "necklace", "wordID": 939, "conditions": [24, 1600, "a", 12000], "trial": 2, "serialpos": 23, "trial_type": "single-audio", "trial_index": 112, "time_elapsed": 597781, "internal_node_id": "0.0-85.0"}}, {"uniqueid": "MTK0326:37U1UTWH9WTAYNAEYFVY96RAR7A8R9", "current_trial": 113, "dateTime": 1510707562703, "trialdata": {"rt": -1, "stimulus": "", "key_press": -1, "type": "PRE_RECALL_DELAY", "trial_type": "single-stim", "trial_index": 113, "time_elapsed": 599059, "internal_node_id": "0.0-86.0-0.0"}}, {"uniqueid": "MTK0326:37U1UTWH9WTAYNAEYFVY96RAR7A8R9", "current_trial": 114, "dateTime": 1510707563204, "trialdata": {"rt": -1000, "stimulus": "/static/audio/400Hz.wav", "key_press": -1, "type": "PRE_RECALL_ALERT", "trial_type": "single-audio", "trial_index": 114, "time_elapsed": 599561, "internal_node_id": "0.0-87.0"}}, {"uniqueid": "MTK0326:37U1UTWH9WTAYNAEYFVY96RAR7A8R9", "current_trial": 115, "dateTime": 1510707623223, "trialdata": {"rt": [6752, 9296, 14360, 18879, 22512, 26904, 32992, 37623, 42296, 47368, 52799], "recwords": ["snake", "cobra", "lizard", "snail", "coccoon", "outdoors", "orchid", "rifle", "sparrow", "lunch", "trout"], "type": "FREE_RECALL", "conditions": [24, 1600, "a", 12000], "trial": 2, "trial_type": "free-recall", "trial_index": 115, "time_elapsed": 659570, "internal_node_id": "0.0-88.0-0.0"}}, {"uniqueid": "MTK0326:37U1UTWH9WTAYNAEYFVY96RAR7A8R9", "current_trial": 116, "dateTime": 1510707626641, "trialdata": {"rt": 1417, "key_press": 13, "type": "INSTRUCTIONS", "trial_type": "text", "trial_index": 116, "time_elapsed": 662998, "internal_node_id": "0.0-89.0"}}, {"uniqueid": "MTK0326:37U1UTWH9WTAYNAEYFVY96RAR7A8R9", "current_trial": 117, "dateTime": 1510707652648, "trialdata": {"rt": [2371, 4267, 7683, 9626, 11844, 13811, 17692, 19444, 21667], "responses": ["9", "12", "22", "7", "12", "17", "15", "20", "16"], "num1": [1, 7, 9, 1, 8, 4, 5, 9, 7, 6], "num2": [6, 3, 8, 2, 3, 4, 3, 9, 4, 4], "num3": [2, 2, 5, 4, 1, 9, 7, 2, 5, 9], "type": "DISTRACTOR", "conditions": [24, 800, "v", 24000], "trial": 3, "trial_type": "math-distractor", "trial_index": 117, "time_elapsed": 689004, "internal_node_id": "0.0-90.0"}}, {"uniqueid": "MTK0326:37U1UTWH9WTAYNAEYFVY96RAR7A8R9", "current_trial": 118, "dateTime": 1510707655652, "trialdata": {"rt": -1, "stimulus": "<p id=\"stim\">10</p>", "key_press": -1, "trial_type": "single-stim", "trial_index": 118, "time_elapsed": 692009, "internal_node_id": "0.0-91.0-0.0"}}, {"uniqueid": "MTK0326:37U1UTWH9WTAYNAEYFVY96RAR7A8R9", "current_trial": 119, "dateTime": 1510707656654, "trialdata": {"rt": -1, "stimulus": "<p id=\"stim\">9</p>", "key_press": -1, "trial_type": "single-stim", "trial_index": 119, "time_elapsed": 693011, "internal_node_id": "0.0-91.0-1.0"}}, {"uniqueid": "MTK0326:37U1UTWH9WTAYNAEYFVY96RAR7A8R9", "current_trial": 120, "dateTime": 1510707657656, "trialdata": {"rt": -1, "stimulus": "<p id=\"stim\">8</p>", "key_press": -1, "trial_type": "single-stim", "trial_index": 120, "time_elapsed": 694013, "internal_node_id": "0.0-91.0-2.0"}}, {"uniqueid": "MTK0326:37U1UTWH9WTAYNAEYFVY96RAR7A8R9", "current_trial": 121, "dateTime": 1510707658658, "trialdata": {"rt": -1, "stimulus": "<p id=\"stim\">7</p>", "key_press": -1, "trial_type": "single-stim", "trial_index": 121, "time_elapsed": 695015, "internal_node_id": "0.0-91.0-3.0"}}, {"uniqueid": "MTK0326:37U1UTWH9WTAYNAEYFVY96RAR7A8R9", "current_trial": 122, "dateTime": 1510707659660, "trialdata": {"rt": -1, "stimulus": "<p id=\"stim\">6</p>", "key_press": -1, "trial_type": "single-stim", "trial_index": 122, "time_elapsed": 696016, "internal_node_id": "0.0-91.0-4.0"}}, {"uniqueid": "MTK0326:37U1UTWH9WTAYNAEYFVY96RAR7A8R9", "current_trial": 123, "dateTime": 1510707660662, "trialdata": {"rt": -1, "stimulus": "<p id=\"stim\">5</p>", "key_press": -1, "trial_type": "single-stim", "trial_index": 123, "time_elapsed": 697019, "internal_node_id": "0.0-91.0-5.0"}}, {"uniqueid": "MTK0326:37U1UTWH9WTAYNAEYFVY96RAR7A8R9", "current_trial": 124, "dateTime": 1510707661664, "trialdata": {"rt": -1, "stimulus": "<p id=\"stim\">4</p>", "key_press": -1, "trial_type": "single-stim", "trial_index": 124, "time_elapsed": 698020, "internal_node_id": "0.0-91.0-6.0"}}, {"uniqueid": "MTK0326:37U1UTWH9WTAYNAEYFVY96RAR7A8R9", "current_trial": 125, "dateTime": 1510707662667, "trialdata": {"rt": -1, "stimulus": "<p id=\"stim\">3</p>", "key_press": -1, "trial_type": "single-stim", "trial_index": 125, "time_elapsed": 699024, "internal_node_id": "0.0-91.0-7.0"}}, {"uniqueid": "MTK0326:37U1UTWH9WTAYNAEYFVY96RAR7A8R9", "current_trial": 126, "dateTime": 1510707663669, "trialdata": {"rt": -1, "stimulus": "<p id=\"stim\">2</p>", "key_press": -1, "trial_type": "single-stim", "trial_index": 126, "time_elapsed": 700026, "internal_node_id": "0.0-91.0-8.0"}}, {"uniqueid": "MTK0326:37U1UTWH9WTAYNAEYFVY96RAR7A8R9", "current_trial": 127, "dateTime": 1510707664671, "trialdata": {"rt": -1, "stimulus": "<p id=\"stim\">1</p>", "key_press": -1, "trial_type": "single-stim", "trial_index": 127, "time_elapsed": 701028, "internal_node_id": "0.0-91.0-9.0"}}, {"uniqueid": "MTK0326:37U1UTWH9WTAYNAEYFVY96RAR7A8R9", "current_trial": 128, "dateTime": 1510707666173, "trialdata": {"rt": -1, "stimulus": "<p id=\"stim\">+</p>", "key_press": -1, "type": "FIXATION", "trial_type": "single-stim", "trial_index": 128, "time_elapsed": 702530, "internal_node_id": "0.0-92.0-0.0"}}, {"uniqueid": "MTK0326:37U1UTWH9WTAYNAEYFVY96RAR7A8R9", "current_trial": 129, "dateTime": 1510707666975, "trialdata": {"rt": -1, "stimulus": "<p id=\"stim\">SURVEY</p>", "key_press": -1, "type": "PRES_VIS", "word": "survey", "wordID": 1413, "conditions": [24, 800, "v", 24000], "trial": 3, "serialpos": 0, "trial_type": "single-stim", "trial_index": 129, "time_elapsed": 703332, "internal_node_id": "0.0-93.0"}}, {"uniqueid": "MTK0326:37U1UTWH9WTAYNAEYFVY96RAR7A8R9", "current_trial": 130, "dateTime": 1510707668819, "trialdata": {"rt": -1, "stimulus": "<p id=\"stim\">VIRUS</p>", "key_press": -1, "type": "PRES_VIS", "word": "virus", "wordID": 1571, "conditions": [24, 800, "v", 24000], "trial": 3, "serialpos": 1, "trial_type": "single-stim", "trial_index": 130, "time_elapsed": 705176, "internal_node_id": "0.0-94.0"}}, {"uniqueid": "MTK0326:37U1UTWH9WTAYNAEYFVY96RAR7A8R9", "current_trial": 131, "dateTime": 1510707670679, "trialdata": {"rt": -1, "stimulus": "<p id=\"stim\">SKETCH</p>", "key_press": -1, "type": "PRES_VIS", "word": "sketch", "wordID": 1314, "conditions": [24, 800, "v", 24000], "trial": 3, "serialpos": 2, "trial_type": "single-stim", "trial_index": 131, "time_elapsed": 707036, "internal_node_id": "0.0-95.0"}}, {"uniqueid": "MTK0326:37U1UTWH9WTAYNAEYFVY96RAR7A8R9", "current_trial": 132, "dateTime": 1510707672424, "trialdata": {"rt": -1, "stimulus": "<p id=\"stim\">SWORD</p>", "key_press": -1, "type": "PRES_VIS", "word": "sword", "wordID": 1422, "conditions": [24, 800, "v", 24000], "trial": 3, "serialpos": 3, "trial_type": "single-stim", "trial_index": 132, "time_elapsed": 708781, "internal_node_id": "0.0-96.0"}}, {"uniqueid": "MTK0326:37U1UTWH9WTAYNAEYFVY96RAR7A8R9", "current_trial": 133, "dateTime": 1510707674241, "trialdata": {"rt": -1, "stimulus": "<p id=\"stim\">CHEST</p>", "key_press": -1, "type": "PRES_VIS", "word": "chest", "wordID": 294, "conditions": [24, 800, "v", 24000], "trial": 3, "serialpos": 4, "trial_type": "single-stim", "trial_index": 133, "time_elapsed": 710598, "internal_node_id": "0.0-97.0"}}, {"uniqueid": "MTK0326:37U1UTWH9WTAYNAEYFVY96RAR7A8R9", "current_trial": 134, "dateTime": 1510707676112, "trialdata": {"rt": -1, "stimulus": "<p id=\"stim\">WASHER</p>", "key_press": -1, "type": "PRES_VIS", "word": "washer", "wordID": 1591, "conditions": [24, 800, "v", 24000], "trial": 3, "serialpos": 5, "trial_type": "single-stim", "trial_index": 134, "time_elapsed": 712469, "internal_node_id": "0.0-98.0"}}, {"uniqueid": "MTK0326:37U1UTWH9WTAYNAEYFVY96RAR7A8R9", "current_trial": 135, "dateTime": 1510707678052, "trialdata": {"rt": -1, "stimulus": "<p id=\"stim\">WASP</p>", "key_press": -1, "type": "PRES_VIS", "word": "wasp", "wordID": 1592, "conditions": [24, 800, "v", 24000], "trial": 3, "serialpos": 6, "trial_type": "single-stim", "trial_index": 135, "time_elapsed": 714408, "internal_node_id": "0.0-99.0"}}, {"uniqueid": "MTK0326:37U1UTWH9WTAYNAEYFVY96RAR7A8R9", "current_trial": 136, "dateTime": 1510707679874, "trialdata": {"rt": -1, "stimulus": "<p id=\"stim\">MAMMAL</p>", "key_press": -1, "type": "PRES_VIS", "word": "mammal", "wordID": 860, "conditions": [24, 800, "v", 24000], "trial": 3, "serialpos": 7, "trial_type": "single-stim", "trial_index": 136, "time_elapsed": 716231, "internal_node_id": "0.0-100.0"}}, {"uniqueid": "MTK0326:37U1UTWH9WTAYNAEYFVY96RAR7A8R9", "current_trial": 137, "dateTime": 1510707681575, "trialdata": {"rt": -1, "stimulus": "<p id=\"stim\">PRIMATE</p>", "key_press": -1, "type": "PRES_VIS", "word": "primate", "wordID": 1122, "conditions": [24, 800, "v", 24000], "trial": 3, "serialpos": 8, "trial_type": "single-stim", "trial_index": 137, "time_elapsed": 717932, "internal_node_id": "0.0-101.0"}}, {"uniqueid": "MTK0326:37U1UTWH9WTAYNAEYFVY96RAR7A8R9", "current_trial": 138, "dateTime": 1510707683396, "trialdata": {"rt": -1, "stimulus": "<p id=\"stim\">REPORT</p>", "key_press": -1, "type": "PRES_VIS", "word": "report", "wordID": 1183, "conditions": [24, 800, "v", 24000], "trial": 3, "serialpos": 9, "trial_type": "single-stim", "trial_index": 138, "time_elapsed": 719753, "internal_node_id": "0.0-102.0"}}, {"uniqueid": "MTK0326:37U1UTWH9WTAYNAEYFVY96RAR7A8R9", "current_trial": 139, "dateTime": 1510707685032, "trialdata": {"rt": -1, "stimulus": "<p id=\"stim\">SHELF</p>", "key_press": -1, "type": "PRES_VIS", "word": "shelf", "wordID": 1279, "conditions": [24, 800, "v", 24000], "trial": 3, "serialpos": 10, "trial_type": "single-stim", "trial_index": 139, "time_elapsed": 721389, "internal_node_id": "0.0-103.0"}}, {"uniqueid": "MTK0326:37U1UTWH9WTAYNAEYFVY96RAR7A8R9", "current_trial": 140, "dateTime": 1510707686985, "trialdata": {"rt": -1, "stimulus": "<p id=\"stim\">DENIM</p>", "key_press": -1, "type": "PRES_VIS", "word": "denim", "wordID": 445, "conditions": [24, 800, "v", 24000], "trial": 3, "serialpos": 11, "trial_type": "single-stim", "trial_index": 140, "time_elapsed": 723342, "internal_node_id": "0.0-104.0"}}, {"uniqueid": "MTK0326:37U1UTWH9WTAYNAEYFVY96RAR7A8R9", "current_trial": 141, "dateTime": 1510707688906, "trialdata": {"rt": -1, "stimulus": "<p id=\"stim\">DUST</p>", "key_press": -1, "type": "PRES_VIS", "word": "dust", "wordID": 507, "conditions": [24, 800, "v", 24000], "trial": 3, "serialpos": 12, "trial_type": "single-stim", "trial_index": 141, "time_elapsed": 725263, "internal_node_id": "0.0-105.0"}}, {"uniqueid": "MTK0326:37U1UTWH9WTAYNAEYFVY96RAR7A8R9", "current_trial": 142, "dateTime": 1510707690551, "trialdata": {"rt": -1, "stimulus": "<p id=\"stim\">CRATER</p>", "key_press": -1, "type": "PRES_VIS", "word": "crater", "wordID": 399, "conditions": [24, 800, "v", 24000], "trial": 3, "serialpos": 13, "trial_type": "single-stim", "trial_index": 142, "time_elapsed": 726908, "internal_node_id": "0.0-106.0"}}, {"uniqueid": "MTK0326:37U1UTWH9WTAYNAEYFVY96RAR7A8R9", "current_trial": 143, "dateTime": 1510707692403, "trialdata": {"rt": -1, "stimulus": "<p id=\"stim\">LACE</p>", "key_press": -1, "type": "PRES_VIS", "word": "lace", "wordID": 791, "conditions": [24, 800, "v", 24000], "trial": 3, "serialpos": 14, "trial_type": "single-stim", "trial_index": 143, "time_elapsed": 728760, "internal_node_id": "0.0-107.0"}}, {"uniqueid": "MTK0326:37U1UTWH9WTAYNAEYFVY96RAR7A8R9", "current_trial": 144, "dateTime": 1510707694037, "trialdata": {"rt": -1, "stimulus": "<p id=\"stim\">DIME</p>", "key_press": -1, "type": "PRES_VIS", "word": "dime", "wordID": 465, "conditions": [24, 800, "v", 24000], "trial": 3, "serialpos": 15, "trial_type": "single-stim", "trial_index": 144, "time_elapsed": 730394, "internal_node_id": "0.0-108.0"}}, {"uniqueid": "MTK0326:37U1UTWH9WTAYNAEYFVY96RAR7A8R9", "current_trial": 145, "dateTime": 1510707695854, "trialdata": {"rt": -1, "stimulus": "<p id=\"stim\">BINDER</p>", "key_press": -1, "type": "PRES_VIS", "word": "binder", "wordID": 126, "conditions": [24, 800, "v", 24000], "trial": 3, "serialpos": 16, "trial_type": "single-stim", "trial_index": 145, "time_elapsed": 732211, "internal_node_id": "0.0-109.0"}}, {"uniqueid": "MTK0326:37U1UTWH9WTAYNAEYFVY96RAR7A8R9", "current_trial": 146, "dateTime": 1510707697747, "trialdata": {"rt": -1, "stimulus": "<p id=\"stim\">SILK</p>", "key_press": -1, "type": "PRES_VIS", "word": "silk", "wordID": 1306, "conditions": [24, 800, "v", 24000], "trial": 3, "serialpos": 17, "trial_type": "single-stim", "trial_index": 146, "time_elapsed": 734103, "internal_node_id": "0.0-110.0"}}, {"uniqueid": "MTK0326:37U1UTWH9WTAYNAEYFVY96RAR7A8R9", "current_trial": 147, "dateTime": 1510707699626, "trialdata": {"rt": -1, "stimulus": "<p id=\"stim\">POLICE</p>", "key_press": -1, "type": "PRES_VIS", "word": "police", "wordID": 1097, "conditions": [24, 800, "v", 24000], "trial": 3, "serialpos": 18, "trial_type": "single-stim", "trial_index": 147, "time_elapsed": 735983, "internal_node_id": "0.0-111.0"}}, {"uniqueid": "MTK0326:37U1UTWH9WTAYNAEYFVY96RAR7A8R9", "current_trial": 148, "dateTime": 1510707701427, "trialdata": {"rt": -1, "stimulus": "<p id=\"stim\">PATROL</p>", "key_press": -1, "type": "PRES_VIS", "word": "patrol", "wordID": 1026, "conditions": [24, 800, "v", 24000], "trial": 3, "serialpos": 19, "trial_type": "single-stim", "trial_index": 148, "time_elapsed": 737784, "internal_node_id": "0.0-112.0"}}, {"uniqueid": "MTK0326:37U1UTWH9WTAYNAEYFVY96RAR7A8R9", "current_trial": 149, "dateTime": 1510707703242, "trialdata": {"rt": -1, "stimulus": "<p id=\"stim\">SODA</p>", "key_press": -1, "type": "PRES_VIS", "word": "soda", "wordID": 1340, "conditions": [24, 800, "v", 24000], "trial": 3, "serialpos": 20, "trial_type": "single-stim", "trial_index": 149, "time_elapsed": 739599, "internal_node_id": "0.0-113.0"}}, {"uniqueid": "MTK0326:37U1UTWH9WTAYNAEYFVY96RAR7A8R9", "current_trial": 150, "dateTime": 1510707705207, "trialdata": {"rt": -1, "stimulus": "<p id=\"stim\">POWDER</p>", "key_press": -1, "type": "PRES_VIS", "word": "powder", "wordID": 1116, "conditions": [24, 800, "v", 24000], "trial": 3, "serialpos": 21, "trial_type": "single-stim", "trial_index": 150, "time_elapsed": 741564, "internal_node_id": "0.0-114.0"}}, {"uniqueid": "MTK0326:37U1UTWH9WTAYNAEYFVY96RAR7A8R9", "current_trial": 151, "dateTime": 1510707707016, "trialdata": {"rt": -1, "stimulus": "<p id=\"stim\">DRESSER</p>", "key_press": -1, "type": "PRES_VIS", "word": "dresser", "wordID": 495, "conditions": [24, 800, "v", 24000], "trial": 3, "serialpos": 22, "trial_type": "single-stim", "trial_index": 151, "time_elapsed": 743373, "internal_node_id": "0.0-115.0"}}, {"uniqueid": "MTK0326:37U1UTWH9WTAYNAEYFVY96RAR7A8R9", "current_trial": 152, "dateTime": 1510707708935, "trialdata": {"rt": -1, "stimulus": "<p id=\"stim\">BREAST</p>", "key_press": -1, "type": "PRES_VIS", "word": "breast", "wordID": 170, "conditions": [24, 800, "v", 24000], "trial": 3, "serialpos": 23, "trial_type": "single-stim", "trial_index": 152, "time_elapsed": 745292, "internal_node_id": "0.0-116.0"}}, {"uniqueid": "MTK0326:37U1UTWH9WTAYNAEYFVY96RAR7A8R9", "current_trial": 153, "dateTime": 1510707711239, "trialdata": {"rt": -1, "stimulus": "", "key_press": -1, "type": "PRE_RECALL_DELAY", "trial_type": "single-stim", "trial_index": 153, "time_elapsed": 747596, "internal_node_id": "0.0-117.0-0.0"}}, {"uniqueid": "MTK0326:37U1UTWH9WTAYNAEYFVY96RAR7A8R9", "current_trial": 154, "dateTime": 1510707711741, "trialdata": {"rt": -1000, "stimulus": "/static/audio/400Hz.wav", "key_press": -1, "type": "PRE_RECALL_ALERT", "trial_type": "single-audio", "trial_index": 154, "time_elapsed": 748098, "internal_node_id": "0.0-118.0"}}, {"uniqueid": "MTK0326:37U1UTWH9WTAYNAEYFVY96RAR7A8R9", "current_trial": 155, "dateTime": 1510707771752, "trialdata": {"rt": [4953, 7946, 10913, 17618, 20113, 22906, 26458, 30762, 37002, 39778, 42617, 51818], "recwords": ["police", "patrol", "denim", "survey", "wasp", "mammal", "primate", "virus", "lace", "si", "silk", "soda"], "type": "FREE_RECALL", "conditions": [24, 800, "v", 24000], "trial": 3, "trial_type": "free-recall", "trial_index": 155, "time_elapsed": 808102, "internal_node_id": "0.0-119.0-0.0"}}, {"uniqueid": "MTK0326:37U1UTWH9WTAYNAEYFVY96RAR7A8R9", "current_trial": 156, "dateTime": 1510707776559, "trialdata": {"rt": 2806, "key_press": 13, "type": "INSTRUCTIONS", "trial_type": "text", "trial_index": 156, "time_elapsed": 812916, "internal_node_id": "0.0-120.0"}}, {"uniqueid": "MTK0326:37U1UTWH9WTAYNAEYFVY96RAR7A8R9", "current_trial": 157, "dateTime": 1510707802566, "trialdata": {"rt": [2493, 4173, 8260, 10421, 12420, 15356, 21748], "responses": ["13", "9", "11", "21", "14", "14", "20"], "num1": [4, 1, 2, 8, 8, 9, 9, 8], "num2": [1, 2, 1, 5, 5, 3, 4, 6], "num3": [8, 6, 8, 8, 1, 2, 7, 8], "type": "DISTRACTOR", "conditions": [12, 1600, "v", 24000], "trial": 4, "trial_type": "math-distractor", "trial_index": 157, "time_elapsed": 838923, "internal_node_id": "0.0-121.0"}}, {"uniqueid": "MTK0326:37U1UTWH9WTAYNAEYFVY96RAR7A8R9", "current_trial": 158, "dateTime": 1510707805569, "trialdata": {"rt": -1, "stimulus": "<p id=\"stim\">10</p>", "key_press": -1, "trial_type": "single-stim", "trial_index": 158, "time_elapsed": 841926, "internal_node_id": "0.0-122.0-0.0"}}, {"uniqueid": "MTK0326:37U1UTWH9WTAYNAEYFVY96RAR7A8R9", "current_trial": 159, "dateTime": 1510707806574, "trialdata": {"rt": -1, "stimulus": "<p id=\"stim\">9</p>", "key_press": -1, "trial_type": "single-stim", "trial_index": 159, "time_elapsed": 842931, "internal_node_id": "0.0-122.0-1.0"}}, {"uniqueid": "MTK0326:37U1UTWH9WTAYNAEYFVY96RAR7A8R9", "current_trial": 160, "dateTime": 1510707807576, "trialdata": {"rt": -1, "stimulus": "<p id=\"stim\">8</p>", "key_press": -1, "trial_type": "single-stim", "trial_index": 160, "time_elapsed": 843933, "internal_node_id": "0.0-122.0-2.0"}}, {"uniqueid": "MTK0326:37U1UTWH9WTAYNAEYFVY96RAR7A8R9", "current_trial": 161, "dateTime": 1510707808579, "trialdata": {"rt": -1, "stimulus": "<p id=\"stim\">7</p>", "key_press": -1, "trial_type": "single-stim", "trial_index": 161, "time_elapsed": 844936, "internal_node_id": "0.0-122.0-3.0"}}, {"uniqueid": "MTK0326:37U1UTWH9WTAYNAEYFVY96RAR7A8R9", "current_trial": 162, "dateTime": 1510707809581, "trialdata": {"rt": -1, "stimulus": "<p id=\"stim\">6</p>", "key_press": -1, "trial_type": "single-stim", "trial_index": 162, "time_elapsed": 845938, "internal_node_id": "0.0-122.0-4.0"}}, {"uniqueid": "MTK0326:37U1UTWH9WTAYNAEYFVY96RAR7A8R9", "current_trial": 163, "dateTime": 1510707810583, "trialdata": {"rt": -1, "stimulus": "<p id=\"stim\">5</p>", "key_press": -1, "trial_type": "single-stim", "trial_index": 163, "time_elapsed": 846939, "internal_node_id": "0.0-122.0-5.0"}}, {"uniqueid": "MTK0326:37U1UTWH9WTAYNAEYFVY96RAR7A8R9", "current_trial": 164, "dateTime": 1510707811584, "trialdata": {"rt": -1, "stimulus": "<p id=\"stim\">4</p>", "key_press": -1, "trial_type": "single-stim", "trial_index": 164, "time_elapsed": 847941, "internal_node_id": "0.0-122.0-6.0"}}, {"uniqueid": "MTK0326:37U1UTWH9WTAYNAEYFVY96RAR7A8R9", "current_trial": 165, "dateTime": 1510707812587, "trialdata": {"rt": -1, "stimulus": "<p id=\"stim\">3</p>", "key_press": -1, "trial_type": "single-stim", "trial_index": 165, "time_elapsed": 848944, "internal_node_id": "0.0-122.0-7.0"}}, {"uniqueid": "MTK0326:37U1UTWH9WTAYNAEYFVY96RAR7A8R9", "current_trial": 166, "dateTime": 1510707813589, "trialdata": {"rt": -1, "stimulus": "<p id=\"stim\">2</p>", "key_press": -1, "trial_type": "single-stim", "trial_index": 166, "time_elapsed": 849946, "internal_node_id": "0.0-122.0-8.0"}}, {"uniqueid": "MTK0326:37U1UTWH9WTAYNAEYFVY96RAR7A8R9", "current_trial": 167, "dateTime": 1510707814591, "trialdata": {"rt": -1, "stimulus": "<p id=\"stim\">1</p>", "key_press": -1, "trial_type": "single-stim", "trial_index": 167, "time_elapsed": 850948, "internal_node_id": "0.0-122.0-9.0"}}, {"uniqueid": "MTK0326:37U1UTWH9WTAYNAEYFVY96RAR7A8R9", "current_trial": 168, "dateTime": 1510707816093, "trialdata": {"rt": -1, "stimulus": "<p id=\"stim\">+</p>", "key_press": -1, "type": "FIXATION", "trial_type": "single-stim", "trial_index": 168, "time_elapsed": 852450, "internal_node_id": "0.0-123.0-0.0"}}, {"uniqueid": "MTK0326:37U1UTWH9WTAYNAEYFVY96RAR7A8R9", "current_trial": 169, "dateTime": 1510707817695, "trialdata": {"rt": -1, "stimulus": "<p id=\"stim\">HIKER</p>", "key_press": -1, "type": "PRES_VIS", "word": "hiker", "wordID": 707, "conditions": [12, 1600, "v", 24000], "trial": 4, "serialpos": 0, "trial_type": "single-stim", "trial_index": 169, "time_elapsed": 854052, "internal_node_id": "0.0-124.0"}}, {"uniqueid": "MTK0326:37U1UTWH9WTAYNAEYFVY96RAR7A8R9", "current_trial": 170, "dateTime": 1510707820390, "trialdata": {"rt": -1, "stimulus": "<p id=\"stim\">LIPSTICK</p>", "key_press": -1, "type": "PRES_VIS", "word": "lipstick", "wordID": 828, "conditions": [12, 1600, "v", 24000], "trial": 4, "serialpos": 1, "trial_type": "single-stim", "trial_index": 170, "time_elapsed": 856746, "internal_node_id": "0.0-125.0"}}, {"uniqueid": "MTK0326:37U1UTWH9WTAYNAEYFVY96RAR7A8R9", "current_trial": 171, "dateTime": 1510707823165, "trialdata": {"rt": -1, "stimulus": "<p id=\"stim\">BRANDY</p>", "key_press": -1, "type": "PRES_VIS", "word": "brandy", "wordID": 168, "conditions": [12, 1600, "v", 24000], "trial": 4, "serialpos": 2, "trial_type": "single-stim", "trial_index": 171, "time_elapsed": 859522, "internal_node_id": "0.0-126.0"}}, {"uniqueid": "MTK0326:37U1UTWH9WTAYNAEYFVY96RAR7A8R9", "current_trial": 172, "dateTime": 1510707825851, "trialdata": {"rt": -1, "stimulus": "<p id=\"stim\">SAUSAGE</p>", "key_press": -1, "type": "PRES_VIS", "word": "sausage", "wordID": 1237, "conditions": [12, 1600, "v", 24000], "trial": 4, "serialpos": 3, "trial_type": "single-stim", "trial_index": 172, "time_elapsed": 862208, "internal_node_id": "0.0-127.0"}}, {"uniqueid": "MTK0326:37U1UTWH9WTAYNAEYFVY96RAR7A8R9", "current_trial": 173, "dateTime": 1510707828348, "trialdata": {"rt": -1, "stimulus": "<p id=\"stim\">CUSTARD</p>", "key_press": -1, "type": "PRES_VIS", "word": "custard", "wordID": 428, "conditions": [12, 1600, "v", 24000], "trial": 4, "serialpos": 4, "trial_type": "single-stim", "trial_index": 173, "time_elapsed": 864705, "internal_node_id": "0.0-128.0"}}, {"uniqueid": "MTK0326:37U1UTWH9WTAYNAEYFVY96RAR7A8R9", "current_trial": 174, "dateTime": 1510707830926, "trialdata": {"rt": -1, "stimulus": "<p id=\"stim\">TRIBE</p>", "key_press": -1, "type": "PRES_VIS", "word": "tribe", "wordID": 1504, "conditions": [12, 1600, "v", 24000], "trial": 4, "serialpos": 5, "trial_type": "single-stim", "trial_index": 174, "time_elapsed": 867283, "internal_node_id": "0.0-129.0"}}, {"uniqueid": "MTK0326:37U1UTWH9WTAYNAEYFVY96RAR7A8R9", "current_trial": 175, "dateTime": 1510707833493, "trialdata": {"rt": -1, "stimulus": "<p id=\"stim\">ROBBER</p>", "key_press": -1, "type": "PRES_VIS", "word": "robber", "wordID": 1196, "conditions": [12, 1600, "v", 24000], "trial": 4, "serialpos": 6, "trial_type": "single-stim", "trial_index": 175, "time_elapsed": 869850, "internal_node_id": "0.0-130.0"}}, {"uniqueid": "MTK0326:37U1UTWH9WTAYNAEYFVY96RAR7A8R9", "current_trial": 176, "dateTime": 1510707836222, "trialdata": {"rt": -1, "stimulus": "<p id=\"stim\">TREAT</p>", "key_press": -1, "type": "PRES_VIS", "word": "treat", "wordID": 1500, "conditions": [12, 1600, "v", 24000], "trial": 4, "serialpos": 7, "trial_type": "single-stim", "trial_index": 176, "time_elapsed": 872579, "internal_node_id": "0.0-131.0"}}, {"uniqueid": "MTK0326:37U1UTWH9WTAYNAEYFVY96RAR7A8R9", "current_trial": 177, "dateTime": 1510707838753, "trialdata": {"rt": -1, "stimulus": "<p id=\"stim\">SCOTCH</p>", "key_press": -1, "type": "PRES_VIS", "word": "scotch", "wordID": 1250, "conditions": [12, 1600, "v", 24000], "trial": 4, "serialpos": 8, "trial_type": "single-stim", "trial_index": 177, "time_elapsed": 875109, "internal_node_id": "0.0-132.0"}}, {"uniqueid": "MTK0326:37U1UTWH9WTAYNAEYFVY96RAR7A8R9", "current_trial": 178, "dateTime": 1510707841501, "trialdata": {"rt": -1, "stimulus": "<p id=\"stim\">SPOON</p>", "key_press": -1, "type": "PRES_VIS", "word": "spoon", "wordID": 1356, "conditions": [12, 1600, "v", 24000], "trial": 4, "serialpos": 9, "trial_type": "single-stim", "trial_index": 178, "time_elapsed": 877858, "internal_node_id": "0.0-133.0"}}, {"uniqueid": "MTK0326:37U1UTWH9WTAYNAEYFVY96RAR7A8R9", "current_trial": 179, "dateTime": 1510707844110, "trialdata": {"rt": -1, "stimulus": "<p id=\"stim\">NOTEBOOK</p>", "key_press": -1, "type": "PRES_VIS", "word": "notebook", "wordID": 958, "conditions": [12, 1600, "v", 24000], "trial": 4, "serialpos": 10, "trial_type": "single-stim", "trial_index": 179, "time_elapsed": 880467, "internal_node_id": "0.0-134.0"}}, {"uniqueid": "MTK0326:37U1UTWH9WTAYNAEYFVY96RAR7A8R9", "current_trial": 180, "dateTime": 1510707846824, "trialdata": {"rt": -1, "stimulus": "<p id=\"stim\">AIRPLANE</p>", "key_press": -1, "type": "PRES_VIS", "word": "airplane", "wordID": 11, "conditions": [12, 1600, "v", 24000], "trial": 4, "serialpos": 11, "trial_type": "single-stim", "trial_index": 180, "time_elapsed": 883181, "internal_node_id": "0.0-135.0"}}, {"uniqueid": "MTK0326:37U1UTWH9WTAYNAEYFVY96RAR7A8R9", "current_trial": 181, "dateTime": 1510707849063, "trialdata": {"rt": -1, "stimulus": "", "key_press": -1, "type": "PRE_RECALL_DELAY", "trial_type": "single-stim", "trial_index": 181, "time_elapsed": 885420, "internal_node_id": "0.0-136.0-0.0"}}, {"uniqueid": "MTK0326:37U1UTWH9WTAYNAEYFVY96RAR7A8R9", "current_trial": 182, "dateTime": 1510707849565, "trialdata": {"rt": -1000, "stimulus": "/static/audio/400Hz.wav", "key_press": -1, "type": "PRE_RECALL_ALERT", "trial_type": "single-audio", "trial_index": 182, "time_elapsed": 885921, "internal_node_id": "0.0-137.0"}}, {"uniqueid": "MTK0326:37U1UTWH9WTAYNAEYFVY96RAR7A8R9", "current_trial": 183, "dateTime": 1510707909577, "trialdata": {"rt": [5576, 8887, 13343, 20319, 22855, 24488, 29503], "recwords": ["scotch", "brandy", "lipstic", "tribe", "custard", "treat", "hiker"], "type": "FREE_RECALL", "conditions": [12, 1600, "v", 24000], "trial": 4, "trial_type": "free-recall", "trial_index": 183, "time_elapsed": 945928, "internal_node_id": "0.0-138.0-0.0"}}, {"uniqueid": "MTK0326:37U1UTWH9WTAYNAEYFVY96RAR7A8R9", "current_trial": 184, "dateTime": 1510707930049, "trialdata": {"rt": 18470, "key_press": 13, "type": "INSTRUCTIONS", "trial_type": "text", "trial_index": 184, "time_elapsed": 966406, "internal_node_id": "0.0-139.0"}}, {"uniqueid": "MTK0326:37U1UTWH9WTAYNAEYFVY96RAR7A8R9", "current_trial": 185, "dateTime": 1510707956056, "trialdata": {"rt": [2059, 6147, 7963, 10259, 12434, 14362, 16338, 17827, 19908, 21939, 23851], "responses": ["19", "19", "6", "12", "16", "21", "19", "8", "14", "9", "15"], "num1": [4, 4, 1, 2, 8, 7, 4, 2, 9, 1, 5, 4], "num2": [7, 7, 2, 9, 7, 7, 6, 5, 3, 5, 1, 5], "num3": [8, 8, 3, 1, 1, 7, 9, 1, 2, 3, 9, 8], "type": "DISTRACTOR", "conditions": [12, 1600, "a", 24000], "trial": 5, "trial_type": "math-distractor", "trial_index": 185, "time_elapsed": 992412, "internal_node_id": "0.0-140.0"}}, {"uniqueid": "MTK0326:37U1UTWH9WTAYNAEYFVY96RAR7A8R9", "current_trial": 186, "dateTime": 1510707959059, "trialdata": {"rt": -1, "stimulus": "<p id=\"stim\">10</p>", "key_press": -1, "trial_type": "single-stim", "trial_index": 186, "time_elapsed": 995416, "internal_node_id": "0.0-141.0-0.0"}}, {"uniqueid": "MTK0326:37U1UTWH9WTAYNAEYFVY96RAR7A8R9", "current_trial": 187, "dateTime": 1510707960061, "trialdata": {"rt": -1, "stimulus": "<p id=\"stim\">9</p>", "key_press": -1, "trial_type": "single-stim", "trial_index": 187, "time_elapsed": 996418, "internal_node_id": "0.0-141.0-1.0"}}, {"uniqueid": "MTK0326:37U1UTWH9WTAYNAEYFVY96RAR7A8R9", "current_trial": 188, "dateTime": 1510707961063, "trialdata": {"rt": -1, "stimulus": "<p id=\"stim\">8</p>", "key_press": -1, "trial_type": "single-stim", "trial_index": 188, "time_elapsed": 997420, "internal_node_id": "0.0-141.0-2.0"}}, {"uniqueid": "MTK0326:37U1UTWH9WTAYNAEYFVY96RAR7A8R9", "current_trial": 189, "dateTime": 1510707962066, "trialdata": {"rt": -1, "stimulus": "<p id=\"stim\">7</p>", "key_press": -1, "trial_type": "single-stim", "trial_index": 189, "time_elapsed": 998423, "internal_node_id": "0.0-141.0-3.0"}}, {"uniqueid": "MTK0326:37U1UTWH9WTAYNAEYFVY96RAR7A8R9", "current_trial": 190, "dateTime": 1510707963068, "trialdata": {"rt": -1, "stimulus": "<p id=\"stim\">6</p>", "key_press": -1, "trial_type": "single-stim", "trial_index": 190, "time_elapsed": 999425, "internal_node_id": "0.0-141.0-4.0"}}, {"uniqueid": "MTK0326:37U1UTWH9WTAYNAEYFVY96RAR7A8R9", "current_trial": 191, "dateTime": 1510707964069, "trialdata": {"rt": -1, "stimulus": "<p id=\"stim\">5</p>", "key_press": -1, "trial_type": "single-stim", "trial_index": 191, "time_elapsed": 1000426, "internal_node_id": "0.0-141.0-5.0"}}, {"uniqueid": "MTK0326:37U1UTWH9WTAYNAEYFVY96RAR7A8R9", "current_trial": 192, "dateTime": 1510707965072, "trialdata": {"rt": -1, "stimulus": "<p id=\"stim\">4</p>", "key_press": -1, "trial_type": "single-stim", "trial_index": 192, "time_elapsed": 1001429, "internal_node_id": "0.0-141.0-6.0"}}, {"uniqueid": "MTK0326:37U1UTWH9WTAYNAEYFVY96RAR7A8R9", "current_trial": 193, "dateTime": 1510707966074, "trialdata": {"rt": -1, "stimulus": "<p id=\"stim\">3</p>", "key_press": -1, "trial_type": "single-stim", "trial_index": 193, "time_elapsed": 1002431, "internal_node_id": "0.0-141.0-7.0"}}, {"uniqueid": "MTK0326:37U1UTWH9WTAYNAEYFVY96RAR7A8R9", "current_trial": 194, "dateTime": 1510707967076, "trialdata": {"rt": -1, "stimulus": "<p id=\"stim\">2</p>", "key_press": -1, "trial_type": "single-stim", "trial_index": 194, "time_elapsed": 1003433, "internal_node_id": "0.0-141.0-8.0"}}, {"uniqueid": "MTK0326:37U1UTWH9WTAYNAEYFVY96RAR7A8R9", "current_trial": 195, "dateTime": 1510707968078, "trialdata": {"rt": -1, "stimulus": "<p id=\"stim\">1</p>", "key_press": -1, "trial_type": "single-stim", "trial_index": 195, "time_elapsed": 1004435, "internal_node_id": "0.0-141.0-9.0"}}, {"uniqueid": "MTK0326:37U1UTWH9WTAYNAEYFVY96RAR7A8R9", "current_trial": 196, "dateTime": 1510707969581, "trialdata": {"rt": -1, "stimulus": "<p id=\"stim\">+</p>", "key_press": -1, "type": "FIXATION", "trial_type": "single-stim", "trial_index": 196, "time_elapsed": 1005937, "internal_node_id": "0.0-142.0-0.0"}}, {"uniqueid": "MTK0326:37U1UTWH9WTAYNAEYFVY96RAR7A8R9", "current_trial": 197, "dateTime": 1510707972172, "trialdata": {"rt": -1000, "stimulus": "/static/audio/wordpool/ZEBRA.wav", "key_press": -1, "type": "PRES_AUD", "word": "zebra", "wordID": 1634, "conditions": [12, 1600, "a", 24000], "trial": 5, "serialpos": 0, "trial_type": "single-audio", "trial_index": 197, "time_elapsed": 1008529, "internal_node_id": "0.0-143.0"}}, {"uniqueid": "MTK0326:37U1UTWH9WTAYNAEYFVY96RAR7A8R9", "current_trial": 198, "dateTime": 1510707974759, "trialdata": {"rt": -1000, "stimulus": "/static/audio/wordpool/SLIDE.wav", "key_press": -1, "type": "PRES_AUD", "word": "slide", "wordID": 1325, "conditions": [12, 1600, "a", 24000], "trial": 5, "serialpos": 1, "trial_type": "single-audio", "trial_index": 198, "time_elapsed": 1011115, "internal_node_id": "0.0-144.0"}}, {"uniqueid": "MTK0326:37U1UTWH9WTAYNAEYFVY96RAR7A8R9", "current_trial": 199, "dateTime": 1510707977291, "trialdata": {"rt": -1000, "stimulus": "/static/audio/wordpool/BUG.wav", "key_press": -1, "type": "PRES_AUD", "word": "bug", "wordID": 186, "conditions": [12, 1600, "a", 24000], "trial": 5, "serialpos": 2, "trial_type": "single-audio", "trial_index": 199, "time_elapsed": 1013647, "internal_node_id": "0.0-145.0"}}, {"uniqueid": "MTK0326:37U1UTWH9WTAYNAEYFVY96RAR7A8R9", "current_trial": 200, "dateTime": 1510707979743, "trialdata": {"rt": -1000, "stimulus": "/static/audio/wordpool/TURNIP.wav", "key_press": -1, "type": "PRES_AUD", "word": "turnip", "wordID": 1520, "conditions": [12, 1600, "a", 24000], "trial": 5, "serialpos": 3, "trial_type": "single-audio", "trial_index": 200, "time_elapsed": 1016099, "internal_node_id": "0.0-146.0"}}, {"uniqueid": "MTK0326:37U1UTWH9WTAYNAEYFVY96RAR7A8R9", "current_trial": 201, "dateTime": 1510707982520, "trialdata": {"rt": -1000, "stimulus": "/static/audio/wordpool/DAUGHTER.wav", "key_press": -1, "type": "PRES_AUD", "word": "daughter", "wordID": 441, "conditions": [12, 1600, "a", 24000], "trial": 5, "serialpos": 4, "trial_type": "single-audio", "trial_index": 201, "time_elapsed": 1018877, "internal_node_id": "0.0-147.0"}}, {"uniqueid": "MTK0326:37U1UTWH9WTAYNAEYFVY96RAR7A8R9", "current_trial": 202, "dateTime": 1510707984973, "trialdata": {"rt": -1000, "stimulus": "/static/audio/wordpool/PANTHER.wav", "key_press": -1, "type": "PRES_AUD", "word": "panther", "wordID": 1008, "conditions": [12, 1600, "a", 24000], "trial": 5, "serialpos": 5, "trial_type": "single-audio", "trial_index": 202, "time_elapsed": 1021329, "internal_node_id": "0.0-148.0"}}, {"uniqueid": "MTK0326:37U1UTWH9WTAYNAEYFVY96RAR7A8R9", "current_trial": 203, "dateTime": 1510707987541, "trialdata": {"rt": -1000, "stimulus": "/static/audio/wordpool/WIFE.wav", "key_press": -1, "type": "PRES_AUD", "word": "wife", "wordID": 1608, "conditions": [12, 1600, "a", 24000], "trial": 5, "serialpos": 6, "trial_type": "single-audio", "trial_index": 203, "time_elapsed": 1023898, "internal_node_id": "0.0-149.0"}}, {"uniqueid": "MTK0326:37U1UTWH9WTAYNAEYFVY96RAR7A8R9", "current_trial": 204, "dateTime": 1510707990277, "trialdata": {"rt": -1000, "stimulus": "/static/audio/wordpool/SISTER.wav", "key_press": -1, "type": "PRES_AUD", "word": "sister", "wordID": 1311, "conditions": [12, 1600, "a", 24000], "trial": 5, "serialpos": 7, "trial_type": "single-audio", "trial_index": 204, "time_elapsed": 1026633, "internal_node_id": "0.0-150.0"}}, {"uniqueid": "MTK0326:37U1UTWH9WTAYNAEYFVY96RAR7A8R9", "current_trial": 205, "dateTime": 1510707992804, "trialdata": {"rt": -1000, "stimulus": "/static/audio/wordpool/CROWN.wav", "key_press": -1, "type": "PRES_AUD", "word": "crown", "wordID": 414, "conditions": [12, 1600, "a", 24000], "trial": 5, "serialpos": 8, "trial_type": "single-audio", "trial_index": 205, "time_elapsed": 1029160, "internal_node_id": "0.0-151.0"}}, {"uniqueid": "MTK0326:37U1UTWH9WTAYNAEYFVY96RAR7A8R9", "current_trial": 206, "dateTime": 1510707995590, "trialdata": {"rt": -1000, "stimulus": "/static/audio/wordpool/HELMET.wav", "key_press": -1, "type": "PRES_AUD", "word": "helmet", "wordID": 701, "conditions": [12, 1600, "a", 24000], "trial": 5, "serialpos": 9, "trial_type": "single-audio", "trial_index": 206, "time_elapsed": 1031946, "internal_node_id": "0.0-152.0"}}, {"uniqueid": "MTK0326:37U1UTWH9WTAYNAEYFVY96RAR7A8R9", "current_trial": 207, "dateTime": 1510707998315, "trialdata": {"rt": -1000, "stimulus": "/static/audio/wordpool/MILDEW.wav", "key_press": -1, "type": "PRES_AUD", "word": "mildew", "wordID": 892, "conditions": [12, 1600, "a", 24000], "trial": 5, "serialpos": 10, "trial_type": "single-audio", "trial_index": 207, "time_elapsed": 1034671, "internal_node_id": "0.0-153.0"}}, {"uniqueid": "MTK0326:37U1UTWH9WTAYNAEYFVY96RAR7A8R9", "current_trial": 208, "dateTime": 1510708001019, "trialdata": {"rt": -1000, "stimulus": "/static/audio/wordpool/GYMNAST.wav", "key_press": -1, "type": "PRES_AUD", "word": "gymnast", "wordID": 674, "conditions": [12, 1600, "a", 24000], "trial": 5, "serialpos": 11, "trial_type": "single-audio", "trial_index": 208, "time_elapsed": 1037375, "internal_node_id": "0.0-154.0"}}, {"uniqueid": "MTK0326:37U1UTWH9WTAYNAEYFVY96RAR7A8R9", "current_trial": 209, "dateTime": 1510708002367, "trialdata": {"rt": -1, "stimulus": "", "key_press": -1, "type": "PRE_RECALL_DELAY", "trial_type": "single-stim", "trial_index": 209, "time_elapsed": 1038724, "internal_node_id": "0.0-155.0-0.0"}}, {"uniqueid": "MTK0326:37U1UTWH9WTAYNAEYFVY96RAR7A8R9", "current_trial": 210, "dateTime": 1510708002869, "trialdata": {"rt": -1000, "stimulus": "/static/audio/400Hz.wav", "key_press": -1, "type": "PRE_RECALL_ALERT", "trial_type": "single-audio", "trial_index": 210, "time_elapsed": 1039226, "internal_node_id": "0.0-156.0"}}, {"uniqueid": "MTK0326:37U1UTWH9WTAYNAEYFVY96RAR7A8R9", "current_trial": 211, "dateTime": 1510708062884, "trialdata": {"rt": [6192, 9215, 12191, 13991, 16455, 19512, 24096, 28000, 34703], "recwords": ["gymnist", "mildew", "daughter", "sister", "wife", "bug", "zebra", "panther", "crown"], "type": "FREE_RECALL", "conditions": [12, 1600, "a", 24000], "trial": 5, "trial_type": "free-recall", "trial_index": 211, "time_elapsed": 1099234, "internal_node_id": "0.0-157.0-0.0"}}, {"uniqueid": "MTK0326:37U1UTWH9WTAYNAEYFVY96RAR7A8R9", "current_trial": 212, "dateTime": 1510708066169, "trialdata": {"rt": 1283, "key_press": 13, "type": "INSTRUCTIONS", "trial_type": "text", "trial_index": 212, "time_elapsed": 1102526, "internal_node_id": "0.0-158.0"}}, {"uniqueid": "MTK0326:37U1UTWH9WTAYNAEYFVY96RAR7A8R9", "current_trial": 213, "dateTime": 1510708092177, "trialdata": {"rt": [2363, 4907, 7140, 9860, 12108, 13986, 16235, 17827, 19827, 21955], "responses": ["11", "15", "15", "18", "20", "9", "17", "14", "16", "9"], "num1": [6, 5, 5, 8, 6, 3, 2, 3, 4, 4, 1], "num2": [1, 2, 6, 9, 9, 2, 9, 7, 8, 2, 5], "num3": [4, 8, 4, 1, 5, 4, 6, 4, 6, 3, 9], "type": "DISTRACTOR", "conditions": [12, 800, "a", 24000], "trial": 6, "trial_type": "math-distractor", "trial_index": 213, "time_elapsed": 1128534, "internal_node_id": "0.0-159.0"}}, {"uniqueid": "MTK0326:37U1UTWH9WTAYNAEYFVY96RAR7A8R9", "current_trial": 214, "dateTime": 1510708095180, "trialdata": {"rt": -1, "stimulus": "<p id=\"stim\">10</p>", "key_press": -1, "trial_type": "single-stim", "trial_index": 214, "time_elapsed": 1131537, "internal_node_id": "0.0-160.0-0.0"}}, {"uniqueid": "MTK0326:37U1UTWH9WTAYNAEYFVY96RAR7A8R9", "current_trial": 215, "dateTime": 1510708096182, "trialdata": {"rt": -1, "stimulus": "<p id=\"stim\">9</p>", "key_press": -1, "trial_type": "single-stim", "trial_index": 215, "time_elapsed": 1132539, "internal_node_id": "0.0-160.0-1.0"}}, {"uniqueid": "MTK0326:37U1UTWH9WTAYNAEYFVY96RAR7A8R9", "current_trial": 216, "dateTime": 1510708097184, "trialdata": {"rt": -1, "stimulus": "<p id=\"stim\">8</p>", "key_press": -1, "trial_type": "single-stim", "trial_index": 216, "time_elapsed": 1133541, "internal_node_id": "0.0-160.0-2.0"}}, {"uniqueid": "MTK0326:37U1UTWH9WTAYNAEYFVY96RAR7A8R9", "current_trial": 217, "dateTime": 1510708098186, "trialdata": {"rt": -1, "stimulus": "<p id=\"stim\">7</p>", "key_press": -1, "trial_type": "single-stim", "trial_index": 217, "time_elapsed": 1134543, "internal_node_id": "0.0-160.0-3.0"}}, {"uniqueid": "MTK0326:37U1UTWH9WTAYNAEYFVY96RAR7A8R9", "current_trial": 218, "dateTime": 1510708099188, "trialdata": {"rt": -1, "stimulus": "<p id=\"stim\">6</p>", "key_press": -1, "trial_type": "single-stim", "trial_index": 218, "time_elapsed": 1135545, "internal_node_id": "0.0-160.0-4.0"}}, {"uniqueid": "MTK0326:37U1UTWH9WTAYNAEYFVY96RAR7A8R9", "current_trial": 219, "dateTime": 1510708100190, "trialdata": {"rt": -1, "stimulus": "<p id=\"stim\">5</p>", "key_press": -1, "trial_type": "single-stim", "trial_index": 219, "time_elapsed": 1136547, "internal_node_id": "0.0-160.0-5.0"}}, {"uniqueid": "MTK0326:37U1UTWH9WTAYNAEYFVY96RAR7A8R9", "current_trial": 220, "dateTime": 1510708101192, "trialdata": {"rt": -1, "stimulus": "<p id=\"stim\">4</p>", "key_press": -1, "trial_type": "single-stim", "trial_index": 220, "time_elapsed": 1137548, "internal_node_id": "0.0-160.0-6.0"}}, {"uniqueid": "MTK0326:37U1UTWH9WTAYNAEYFVY96RAR7A8R9", "current_trial": 221, "dateTime": 1510708102196, "trialdata": {"rt": -1, "stimulus": "<p id=\"stim\">3</p>", "key_press": -1, "trial_type": "single-stim", "trial_index": 221, "time_elapsed": 1138553, "internal_node_id": "0.0-160.0-7.0"}}, {"uniqueid": "MTK0326:37U1UTWH9WTAYNAEYFVY96RAR7A8R9", "current_trial": 222, "dateTime": 1510708103198, "trialdata": {"rt": -1, "stimulus": "<p id=\"stim\">2</p>", "key_press": -1, "trial_type": "single-stim", "trial_index": 222, "time_elapsed": 1139555, "internal_node_id": "0.0-160.0-8.0"}}, {"uniqueid": "MTK0326:37U1UTWH9WTAYNAEYFVY96RAR7A8R9", "current_trial": 223, "dateTime": 1510708104199, "trialdata": {"rt": -1, "stimulus": "<p id=\"stim\">1</p>", "key_press": -1, "trial_type": "single-stim", "trial_index": 223, "time_elapsed": 1140556, "internal_node_id": "0.0-160.0-9.0"}}, {"uniqueid": "MTK0326:37U1UTWH9WTAYNAEYFVY96RAR7A8R9", "current_trial": 224, "dateTime": 1510708105701, "trialdata": {"rt": -1, "stimulus": "<p id=\"stim\">+</p>", "key_press": -1, "type": "FIXATION", "trial_type": "single-stim", "trial_index": 224, "time_elapsed": 1142058, "internal_node_id": "0.0-161.0-0.0"}}, {"uniqueid": "MTK0326:37U1UTWH9WTAYNAEYFVY96RAR7A8R9", "current_trial": 225, "dateTime": 1510708107379, "trialdata": {"rt": -1000, "stimulus": "/static/audio/wordpool/ACTOR.wav", "key_press": -1, "type": "PRES_AUD", "word": "actor", "wordID": 4, "conditions": [12, 800, "a", 24000], "trial": 6, "serialpos": 0, "trial_type": "single-audio", "trial_index": 225, "time_elapsed": 1143735, "internal_node_id": "0.0-162.0"}}, {"uniqueid": "MTK0326:37U1UTWH9WTAYNAEYFVY96RAR7A8R9", "current_trial": 226, "dateTime": 1510708109239, "trialdata": {"rt": -1000, "stimulus": "/static/audio/wordpool/VICTIM.wav", "key_press": -1, "type": "PRES_AUD", "word": "victim", "wordID": 1561, "conditions": [12, 800, "a", 24000], "trial": 6, "serialpos": 1, "trial_type": "single-audio", "trial_index": 226, "time_elapsed": 1145595, "internal_node_id": "0.0-163.0"}}, {"uniqueid": "MTK0326:37U1UTWH9WTAYNAEYFVY96RAR7A8R9", "current_trial": 227, "dateTime": 1510708110982, "trialdata": {"rt": -1000, "stimulus": "/static/audio/wordpool/PERFUME.wav", "key_press": -1, "type": "PRES_AUD", "word": "perfume", "wordID": 1048, "conditions": [12, 800, "a", 24000], "trial": 6, "serialpos": 2, "trial_type": "single-audio", "trial_index": 227, "time_elapsed": 1147338, "internal_node_id": "0.0-164.0"}}, {"uniqueid": "MTK0326:37U1UTWH9WTAYNAEYFVY96RAR7A8R9", "current_trial": 228, "dateTime": 1510708112727, "trialdata": {"rt": -1000, "stimulus": "/static/audio/wordpool/CRITIC.wav", "key_press": -1, "type": "PRES_AUD", "word": "critic", "wordID": 409, "conditions": [12, 800, "a", 24000], "trial": 6, "serialpos": 3, "trial_type": "single-audio", "trial_index": 228, "time_elapsed": 1149083, "internal_node_id": "0.0-165.0"}}, {"uniqueid": "MTK0326:37U1UTWH9WTAYNAEYFVY96RAR7A8R9", "current_trial": 229, "dateTime": 1510708114522, "trialdata": {"rt": -1000, "stimulus": "/static/audio/wordpool/MUSTARD.wav", "key_press": -1, "type": "PRES_AUD", "word": "mustard", "wordID": 934, "conditions": [12, 800, "a", 24000], "trial": 6, "serialpos": 4, "trial_type": "single-audio", "trial_index": 229, "time_elapsed": 1150879, "internal_node_id": "0.0-166.0"}}, {"uniqueid": "MTK0326:37U1UTWH9WTAYNAEYFVY96RAR7A8R9", "current_trial": 230, "dateTime": 1510708116297, "trialdata": {"rt": -1000, "stimulus": "/static/audio/wordpool/GAZELLE.wav", "key_press": -1, "type": "PRES_AUD", "word": "gazelle", "wordID": 627, "conditions": [12, 800, "a", 24000], "trial": 6, "serialpos": 5, "trial_type": "single-audio", "trial_index": 230, "time_elapsed": 1152653, "internal_node_id": "0.0-167.0"}}, {"uniqueid": "MTK0326:37U1UTWH9WTAYNAEYFVY96RAR7A8R9", "current_trial": 231, "dateTime": 1510708118083, "trialdata": {"rt": -1000, "stimulus": "/static/audio/wordpool/TRUCK.wav", "key_press": -1, "type": "PRES_AUD", "word": "truck", "wordID": 1511, "conditions": [12, 800, "a", 24000], "trial": 6, "serialpos": 6, "trial_type": "single-audio", "trial_index": 231, "time_elapsed": 1154439, "internal_node_id": "0.0-168.0"}}, {"uniqueid": "MTK0326:37U1UTWH9WTAYNAEYFVY96RAR7A8R9", "current_trial": 232, "dateTime": 1510708119834, "trialdata": {"rt": -1000, "stimulus": "/static/audio/wordpool/DRIVER.wav", "key_press": -1, "type": "PRES_AUD", "word": "driver", "wordID": 498, "conditions": [12, 800, "a", 24000], "trial": 6, "serialpos": 7, "trial_type": "single-audio", "trial_index": 232, "time_elapsed": 1156190, "internal_node_id": "0.0-169.0"}}, {"uniqueid": "MTK0326:37U1UTWH9WTAYNAEYFVY96RAR7A8R9", "current_trial": 233, "dateTime": 1510708121751, "trialdata": {"rt": -1000, "stimulus": "/static/audio/wordpool/HEADBAND.wav", "key_press": -1, "type": "PRES_AUD", "word": "headband", "wordID": 695, "conditions": [12, 800, "a", 24000], "trial": 6, "serialpos": 8, "trial_type": "single-audio", "trial_index": 233, "time_elapsed": 1158107, "internal_node_id": "0.0-170.0"}}, {"uniqueid": "MTK0326:37U1UTWH9WTAYNAEYFVY96RAR7A8R9", "current_trial": 234, "dateTime": 1510708123567, "trialdata": {"rt": -1000, "stimulus": "/static/audio/wordpool/FILM.wav", "key_press": -1, "type": "PRES_AUD", "word": "film", "wordID": 564, "conditions": [12, 800, "a", 24000], "trial": 6, "serialpos": 9, "trial_type": "single-audio", "trial_index": 234, "time_elapsed": 1159924, "internal_node_id": "0.0-171.0"}}, {"uniqueid": "MTK0326:37U1UTWH9WTAYNAEYFVY96RAR7A8R9", "current_trial": 235, "dateTime": 1510708125312, "trialdata": {"rt": -1000, "stimulus": "/static/audio/wordpool/FRAGRANCE.wav", "key_press": -1, "type": "PRES_AUD", "word": "fragrance", "wordID": 598, "conditions": [12, 800, "a", 24000], "trial": 6, "serialpos": 10, "trial_type": "single-audio", "trial_index": 235, "time_elapsed": 1161669, "internal_node_id": "0.0-172.0"}}, {"uniqueid": "MTK0326:37U1UTWH9WTAYNAEYFVY96RAR7A8R9", "current_trial": 236, "dateTime": 1510708126995, "trialdata": {"rt": -1000, "stimulus": "/static/audio/wordpool/OFFICE.wav", "key_press": -1, "type": "PRES_AUD", "word": "office", "wordID": 971, "conditions": [12, 800, "a", 24000], "trial": 6, "serialpos": 11, "trial_type": "single-audio", "trial_index": 236, "time_elapsed": 1163351, "internal_node_id": "0.0-173.0"}}, {"uniqueid": "MTK0326:37U1UTWH9WTAYNAEYFVY96RAR7A8R9", "current_trial": 237, "dateTime": 1510708128320, "trialdata": {"rt": -1, "stimulus": "", "key_press": -1, "type": "PRE_RECALL_DELAY", "trial_type": "single-stim", "trial_index": 237, "time_elapsed": 1164676, "internal_node_id": "0.0-174.0-0.0"}}, {"uniqueid": "MTK0326:37U1UTWH9WTAYNAEYFVY96RAR7A8R9", "current_trial": 238, "dateTime": 1510708128821, "trialdata": {"rt": -1000, "stimulus": "/static/audio/400Hz.wav", "key_press": -1, "type": "PRE_RECALL_ALERT", "trial_type": "single-audio", "trial_index": 238, "time_elapsed": 1165178, "internal_node_id": "0.0-175.0"}}, {"uniqueid": "MTK0326:37U1UTWH9WTAYNAEYFVY96RAR7A8R9", "current_trial": 239, "dateTime": 1510708188837, "trialdata": {"rt": [4688, 7024, 8247, 11088, 12104, 14088, 21920, 27248], "recwords": ["fragrance", "perfume", "office", "truck", "driver", "gazelle", "perfume", "actor"], "type": "FREE_RECALL", "conditions": [12, 800, "a", 24000], "trial": 6, "trial_type": "free-recall", "trial_index": 239, "time_elapsed": 1225183, "internal_node_id": "0.0-176.0-0.0"}}, {"uniqueid": "MTK0326:37U1UTWH9WTAYNAEYFVY96RAR7A8R9", "current_trial": 240, "dateTime": 1510708195985, "trialdata": {"rt": 5146, "key_press": 13, "type": "INSTRUCTIONS", "trial_type": "text", "trial_index": 240, "time_elapsed": 1232342, "internal_node_id": "0.0-177.0"}}, {"uniqueid": "MTK0326:37U1UTWH9WTAYNAEYFVY96RAR7A8R9", "current_trial": 241, "dateTime": 1510708210000, "trialdata": {"rt": [2346, 4096, 5737, 7593, 11321], "responses": ["14", "13", "11", "10", "16"], "num1": [8, 2, 3, 1, 8, 7], "num2": [4, 7, 6, 2, 3, 2], "num3": [2, 4, 2, 7, 5, 3], "type": "DISTRACTOR", "conditions": [24, 800, "v", 12000], "trial": 7, "trial_type": "math-distractor", "trial_index": 241, "time_elapsed": 1246349, "internal_node_id": "0.0-178.0"}}, {"uniqueid": "MTK0326:37U1UTWH9WTAYNAEYFVY96RAR7A8R9", "current_trial": 242, "dateTime": 1510708213003, "trialdata": {"rt": -1, "stimulus": "<p id=\"stim\">10</p>", "key_press": -1, "trial_type": "single-stim", "trial_index": 242, "time_elapsed": 1249360, "internal_node_id": "0.0-179.0-0.0"}}, {"uniqueid": "MTK0326:37U1UTWH9WTAYNAEYFVY96RAR7A8R9", "current_trial": 243, "dateTime": 1510708214006, "trialdata": {"rt": -1, "stimulus": "<p id=\"stim\">9</p>", "key_press": -1, "trial_type": "single-stim", "trial_index": 243, "time_elapsed": 1250363, "internal_node_id": "0.0-179.0-1.0"}}, {"uniqueid": "MTK0326:37U1UTWH9WTAYNAEYFVY96RAR7A8R9", "current_trial": 244, "dateTime": 1510708215008, "trialdata": {"rt": -1, "stimulus": "<p id=\"stim\">8</p>", "key_press": -1, "trial_type": "single-stim", "trial_index": 244, "time_elapsed": 1251365, "internal_node_id": "0.0-179.0-2.0"}}, {"uniqueid": "MTK0326:37U1UTWH9WTAYNAEYFVY96RAR7A8R9", "current_trial": 245, "dateTime": 1510708216010, "trialdata": {"rt": -1, "stimulus": "<p id=\"stim\">7</p>", "key_press": -1, "trial_type": "single-stim", "trial_index": 245, "time_elapsed": 1252367, "internal_node_id": "0.0-179.0-3.0"}}, {"uniqueid": "MTK0326:37U1UTWH9WTAYNAEYFVY96RAR7A8R9", "current_trial": 246, "dateTime": 1510708217012, "trialdata": {"rt": -1, "stimulus": "<p id=\"stim\">6</p>", "key_press": -1, "trial_type": "single-stim", "trial_index": 246, "time_elapsed": 1253369, "internal_node_id": "0.0-179.0-4.0"}}, {"uniqueid": "MTK0326:37U1UTWH9WTAYNAEYFVY96RAR7A8R9", "current_trial": 247, "dateTime": 1510708218015, "trialdata": {"rt": -1, "stimulus": "<p id=\"stim\">5</p>", "key_press": -1, "trial_type": "single-stim", "trial_index": 247, "time_elapsed": 1254372, "internal_node_id": "0.0-179.0-5.0"}}, {"uniqueid": "MTK0326:37U1UTWH9WTAYNAEYFVY96RAR7A8R9", "current_trial": 248, "dateTime": 1510708219018, "trialdata": {"rt": -1, "stimulus": "<p id=\"stim\">4</p>", "key_press": -1, "trial_type": "single-stim", "trial_index": 248, "time_elapsed": 1255375, "internal_node_id": "0.0-179.0-6.0"}}, {"uniqueid": "MTK0326:37U1UTWH9WTAYNAEYFVY96RAR7A8R9", "current_trial": 249, "dateTime": 1510708220021, "trialdata": {"rt": -1, "stimulus": "<p id=\"stim\">3</p>", "key_press": -1, "trial_type": "single-stim", "trial_index": 249, "time_elapsed": 1256378, "internal_node_id": "0.0-179.0-7.0"}}, {"uniqueid": "MTK0326:37U1UTWH9WTAYNAEYFVY96RAR7A8R9", "current_trial": 250, "dateTime": 1510708221024, "trialdata": {"rt": -1, "stimulus": "<p id=\"stim\">2</p>", "key_press": -1, "trial_type": "single-stim", "trial_index": 250, "time_elapsed": 1257381, "internal_node_id": "0.0-179.0-8.0"}}, {"uniqueid": "MTK0326:37U1UTWH9WTAYNAEYFVY96RAR7A8R9", "current_trial": 251, "dateTime": 1510708222027, "trialdata": {"rt": -1, "stimulus": "<p id=\"stim\">1</p>", "key_press": -1, "trial_type": "single-stim", "trial_index": 251, "time_elapsed": 1258384, "internal_node_id": "0.0-179.0-9.0"}}, {"uniqueid": "MTK0326:37U1UTWH9WTAYNAEYFVY96RAR7A8R9", "current_trial": 252, "dateTime": 1510708223529, "trialdata": {"rt": -1, "stimulus": "<p id=\"stim\">+</p>", "key_press": -1, "type": "FIXATION", "trial_type": "single-stim", "trial_index": 252, "time_elapsed": 1259886, "internal_node_id": "0.0-180.0-0.0"}}, {"uniqueid": "MTK0326:37U1UTWH9WTAYNAEYFVY96RAR7A8R9", "current_trial": 253, "dateTime": 1510708224331, "trialdata": {"rt": -1, "stimulus": "<p id=\"stim\">SKILLET</p>", "key_press": -1, "type": "PRES_VIS", "word": "skillet", "wordID": 1316, "conditions": [24, 800, "v", 12000], "trial": 7, "serialpos": 0, "trial_type": "single-stim", "trial_index": 253, "time_elapsed": 1260688, "internal_node_id": "0.0-181.0"}}, {"uniqueid": "MTK0326:37U1UTWH9WTAYNAEYFVY96RAR7A8R9", "current_trial": 254, "dateTime": 1510708226166, "trialdata": {"rt": -1, "stimulus": "<p id=\"stim\">BLENDER</p>", "key_press": -1, "type": "PRES_VIS", "word": "blender", "wordID": 135, "conditions": [24, 800, "v", 12000], "trial": 7, "serialpos": 1, "trial_type": "single-stim", "trial_index": 254, "time_elapsed": 1262523, "internal_node_id": "0.0-182.0"}}, {"uniqueid": "MTK0326:37U1UTWH9WTAYNAEYFVY96RAR7A8R9", "current_trial": 255, "dateTime": 1510708228088, "trialdata": {"rt": -1, "stimulus": "<p id=\"stim\">BURGLAR</p>", "key_press": -1, "type": "PRES_VIS", "word": "burglar", "wordID": 199, "conditions": [24, 800, "v", 12000], "trial": 7, "serialpos": 2, "trial_type": "single-stim", "trial_index": 255, "time_elapsed": 1264445, "internal_node_id": "0.0-183.0"}}, {"uniqueid": "MTK0326:37U1UTWH9WTAYNAEYFVY96RAR7A8R9", "current_trial": 256, "dateTime": 1510708229960, "trialdata": {"rt": -1, "stimulus": "<p id=\"stim\">ATOM</p>", "key_press": -1, "type": "PRES_VIS", "word": "atom", "wordID": 54, "conditions": [24, 800, "v", 12000], "trial": 7, "serialpos": 3, "trial_type": "single-stim", "trial_index": 256, "time_elapsed": 1266317, "internal_node_id": "0.0-184.0"}}, {"uniqueid": "MTK0326:37U1UTWH9WTAYNAEYFVY96RAR7A8R9", "current_trial": 257, "dateTime": 1510708231667, "trialdata": {"rt": -1, "stimulus": "<p id=\"stim\">MAILBOX</p>", "key_press": -1, "type": "PRES_VIS", "word": "mailbox", "wordID": 856, "conditions": [24, 800, "v", 12000], "trial": 7, "serialpos": 4, "trial_type": "single-stim", "trial_index": 257, "time_elapsed": 1268023, "internal_node_id": "0.0-185.0"}}, {"uniqueid": "MTK0326:37U1UTWH9WTAYNAEYFVY96RAR7A8R9", "current_trial": 258, "dateTime": 1510708233486, "trialdata": {"rt": -1, "stimulus": "<p id=\"stim\">BEAST</p>", "key_press": -1, "type": "PRES_VIS", "word": "beast", "wordID": 107, "conditions": [24, 800, "v", 12000], "trial": 7, "serialpos": 5, "trial_type": "single-stim", "trial_index": 258, "time_elapsed": 1269843, "internal_node_id": "0.0-186.0"}}, {"uniqueid": "MTK0326:37U1UTWH9WTAYNAEYFVY96RAR7A8R9", "current_trial": 259, "dateTime": 1510708235419, "trialdata": {"rt": -1, "stimulus": "<p id=\"stim\">SIBLING</p>", "key_press": -1, "type": "PRES_VIS", "word": "sibling", "wordID": 1300, "conditions": [24, 800, "v", 12000], "trial": 7, "serialpos": 6, "trial_type": "single-stim", "trial_index": 259, "time_elapsed": 1271776, "internal_node_id": "0.0-187.0"}}, {"uniqueid": "MTK0326:37U1UTWH9WTAYNAEYFVY96RAR7A8R9", "current_trial": 260, "dateTime": 1510708237248, "trialdata": {"rt": -1, "stimulus": "<p id=\"stim\">MUFFIN</p>", "key_press": -1, "type": "PRES_VIS", "word": "muffin", "wordID": 928, "conditions": [24, 800, "v", 12000], "trial": 7, "serialpos": 7, "trial_type": "single-stim", "trial_index": 260, "time_elapsed": 1273605, "internal_node_id": "0.0-188.0"}}, {"uniqueid": "MTK0326:37U1UTWH9WTAYNAEYFVY96RAR7A8R9", "current_trial": 261, "dateTime": 1510708238881, "trialdata": {"rt": -1, "stimulus": "<p id=\"stim\">MAILMAN</p>", "key_press": -1, "type": "PRES_VIS", "word": "mailman", "wordID": 857, "conditions": [24, 800, "v", 12000], "trial": 7, "serialpos": 8, "trial_type": "single-stim", "trial_index": 261, "time_elapsed": 1275238, "internal_node_id": "0.0-189.0"}}, {"uniqueid": "MTK0326:37U1UTWH9WTAYNAEYFVY96RAR7A8R9", "current_trial": 262, "dateTime": 1510708240568, "trialdata": {"rt": -1, "stimulus": "<p id=\"stim\">BABY</p>", "key_press": -1, "type": "PRES_VIS", "word": "baby", "wordID": 63, "conditions": [24, 800, "v", 12000], "trial": 7, "serialpos": 9, "trial_type": "single-stim", "trial_index": 262, "time_elapsed": 1276925, "internal_node_id": "0.0-190.0"}}, {"uniqueid": "MTK0326:37U1UTWH9WTAYNAEYFVY96RAR7A8R9", "current_trial": 263, "dateTime": 1510708242478, "trialdata": {"rt": -1, "stimulus": "<p id=\"stim\">CASHEW</p>", "key_press": -1, "type": "PRES_VIS", "word": "cashew", "wordID": 252, "conditions": [24, 800, "v", 12000], "trial": 7, "serialpos": 10, "trial_type": "single-stim", "trial_index": 263, "time_elapsed": 1278835, "internal_node_id": "0.0-191.0"}}, {"uniqueid": "MTK0326:37U1UTWH9WTAYNAEYFVY96RAR7A8R9", "current_trial": 264, "dateTime": 1510708244236, "trialdata": {"rt": -1, "stimulus": "<p id=\"stim\">PROTON</p>", "key_press": -1, "type": "PRES_VIS", "word": "proton", "wordID": 1131, "conditions": [24, 800, "v", 12000], "trial": 7, "serialpos": 11, "trial_type": "single-stim", "trial_index": 264, "time_elapsed": 1280593, "internal_node_id": "0.0-192.0"}}, {"uniqueid": "MTK0326:37U1UTWH9WTAYNAEYFVY96RAR7A8R9", "current_trial": 265, "dateTime": 1510708245981, "trialdata": {"rt": -1, "stimulus": "<p id=\"stim\">SCARF</p>", "key_press": -1, "type": "PRES_VIS", "word": "scarf", "wordID": 1245, "conditions": [24, 800, "v", 12000], "trial": 7, "serialpos": 12, "trial_type": "single-stim", "trial_index": 265, "time_elapsed": 1282338, "internal_node_id": "0.0-193.0"}}, {"uniqueid": "MTK0326:37U1UTWH9WTAYNAEYFVY96RAR7A8R9", "current_trial": 266, "dateTime": 1510708247813, "trialdata": {"rt": -1, "stimulus": "<p id=\"stim\">SPACE</p>", "key_press": -1, "type": "PRES_VIS", "word": "space", "wordID": 1344, "conditions": [24, 800, "v", 12000], "trial": 7, "serialpos": 13, "trial_type": "single-stim", "trial_index": 266, "time_elapsed": 1284170, "internal_node_id": "0.0-194.0"}}, {"uniqueid": "MTK0326:37U1UTWH9WTAYNAEYFVY96RAR7A8R9", "current_trial": 267, "dateTime": 1510708249541, "trialdata": {"rt": -1, "stimulus": "<p id=\"stim\">DOLPHIN</p>", "key_press": -1, "type": "PRES_VIS", "word": "dolphin", "wordID": 482, "conditions": [24, 800, "v", 12000], "trial": 7, "serialpos": 14, "trial_type": "single-stim", "trial_index": 267, "time_elapsed": 1285898, "internal_node_id": "0.0-195.0"}}, {"uniqueid": "MTK0326:37U1UTWH9WTAYNAEYFVY96RAR7A8R9", "current_trial": 268, "dateTime": 1510708251362, "trialdata": {"rt": -1, "stimulus": "<p id=\"stim\">HUMAN</p>", "key_press": -1, "type": "PRES_VIS", "word": "human", "wordID": 725, "conditions": [24, 800, "v", 12000], "trial": 7, "serialpos": 15, "trial_type": "single-stim", "trial_index": 268, "time_elapsed": 1287719, "internal_node_id": "0.0-196.0"}}, {"uniqueid": "MTK0326:37U1UTWH9WTAYNAEYFVY96RAR7A8R9", "current_trial": 269, "dateTime": 1510708252976, "trialdata": {"rt": -1, "stimulus": "<p id=\"stim\">WOMAN</p>", "key_press": -1, "type": "PRES_VIS", "word": "woman", "wordID": 1619, "conditions": [24, 800, "v", 12000], "trial": 7, "serialpos": 16, "trial_type": "single-stim", "trial_index": 269, "time_elapsed": 1289333, "internal_node_id": "0.0-197.0"}}, {"uniqueid": "MTK0326:37U1UTWH9WTAYNAEYFVY96RAR7A8R9", "current_trial": 270, "dateTime": 1510708254597, "trialdata": {"rt": -1, "stimulus": "<p id=\"stim\">QUEEN</p>", "key_press": -1, "type": "PRES_VIS", "word": "queen", "wordID": 1148, "conditions": [24, 800, "v", 12000], "trial": 7, "serialpos": 17, "trial_type": "single-stim", "trial_index": 270, "time_elapsed": 1290954, "internal_node_id": "0.0-198.0"}}, {"uniqueid": "MTK0326:37U1UTWH9WTA