{"condition": 0, "counterbalance": 2073, "assignmentId": "3LWJHTCVCDTJ1151TEC4E8YRKQDQF3", "workerId": "MTK0699", "hitId": "3TC2K6WK9G9R7JVZTNBVJENI2DY826", "currenttrial": 626, "bonus": 0, "data": [{"uniqueid": "MTK0699:3LWJHTCVCDTJ1151TEC4E8YRKQDQF3", "current_trial": 0, "dateTime": 1512607599734, "trialdata": {"rt": 4870, "key_press": 65, "type": "INSTRUCTIONS", "trial_type": "text", "trial_index": 0, "time_elapsed": 4872, "internal_node_id": "0.0-0.0"}}, {"uniqueid": "MTK0699:3LWJHTCVCDTJ1151TEC4E8YRKQDQF3", "current_trial": 1, "dateTime": 1512607603965, "trialdata": {"rt": 4230, "key_press": 90, "type": "INSTRUCTIONS", "trial_type": "text", "trial_index": 1, "time_elapsed": 9104, "internal_node_id": "0.0-1.0"}}, {"uniqueid": "MTK0699:3LWJHTCVCDTJ1151TEC4E8YRKQDQF3", "current_trial": 2, "dateTime": 1512607613975, "trialdata": {"rt": [10005], "responses": ["ocean"], "type": "AUDIO_TEST", "trial_type": "audio-test", "trial_index": 2, "time_elapsed": 19114, "internal_node_id": "0.0-2.0"}}, {"uniqueid": "MTK0699:3LWJHTCVCDTJ1151TEC4E8YRKQDQF3", "current_trial": 3, "dateTime": 1512607621067, "trialdata": {"rt": [7089], "responses": ["crystal"], "type": "AUDIO_TEST", "trial_type": "audio-test", "trial_index": 3, "time_elapsed": 26206, "internal_node_id": "0.0-3.0"}}, {"uniqueid": "MTK0699:3LWJHTCVCDTJ1151TEC4E8YRKQDQF3", "current_trial": 4, "dateTime": 1512607625996, "trialdata": {"rt": [4927], "responses": ["spice"], "type": "AUDIO_TEST", "trial_type": "audio-test", "trial_index": 4, "time_elapsed": 31135, "internal_node_id": "0.0-4.0"}}, {"uniqueid": "MTK0699:3LWJHTCVCDTJ1151TEC4E8YRKQDQF3", "current_trial": 5, "dateTime": 1512607641046, "trialdata": {"rt": 14298, "responses": "{\"Q0\":\"9 pm\",\"Q1\":\"5 am\",\"Q2\":\"4\"}", "type": "SLEEP_SURVEY", "trial_type": "survey-text", "trial_index": 5, "time_elapsed": 46185, "internal_node_id": "0.0-5.0"}}, {"uniqueid": "MTK0699:3LWJHTCVCDTJ1151TEC4E8YRKQDQF3", "current_trial": 6, "dateTime": 1512607651331, "trialdata": {"rt": 9284, "key_press": 52, "type": "INSTRUCTIONS", "trial_type": "text", "trial_index": 6, "time_elapsed": 56470, "internal_node_id": "0.0-6.0"}}, {"uniqueid": "MTK0699:3LWJHTCVCDTJ1151TEC4E8YRKQDQF3", "current_trial": 7, "dateTime": 1512608793771, "trialdata": {"rt": 1141939, "key_press": 68, "type": "INSTRUCTIONS", "trial_type": "text", "trial_index": 7, "time_elapsed": 1198910, "internal_node_id": "0.0-7.0"}}, {"uniqueid": "MTK0699:3LWJHTCVCDTJ1151TEC4E8YRKQDQF3", "current_trial": 8, "dateTime": 1512608797291, "trialdata": {"rt": 3019, "key_press": 68, "type": "INSTRUCTIONS", "trial_type": "text", "trial_index": 8, "time_elapsed": 1202430, "internal_node_id": "0.0-8.0"}}, {"uniqueid": "MTK0699:3LWJHTCVCDTJ1151TEC4E8YRKQDQF3", "current_trial": 9, "dateTime": 1512608816297, "trialdata": {"rt": [2856, 5008, 7268, 10373, 13117, 16097], "responses": ["17", "12", "14", "8", "20", "12"], "num1": [7, 3, 1, 1, 5, 3, 1], "num2": [4, 5, 6, 4, 7, 6, 2], "num3": [6, 4, 7, 3, 8, 3, 6], "type": "DISTRACTOR", "conditions": [18, 1200, "v", 18000], "trial": 0, "trial_type": "math-distractor", "trial_index": 9, "time_elapsed": 1221435, "internal_node_id": "0.0-9.0"}}, {"uniqueid": "MTK0699:3LWJHTCVCDTJ1151TEC4E8YRKQDQF3", "current_trial": 10, "dateTime": 1512608819298, "trialdata": {"rt": -1, "stimulus": "<p id=\"stim\">10</p>", "key_press": -1, "trial_type": "single-stim", "trial_index": 10, "time_elapsed": 1224437, "internal_node_id": "0.0-10.0-0.0"}}, {"uniqueid": "MTK0699:3LWJHTCVCDTJ1151TEC4E8YRKQDQF3", "current_trial": 11, "dateTime": 1512608820299, "trialdata": {"rt": -1, "stimulus": "<p id=\"stim\">9</p>", "key_press": -1, "trial_type": "single-stim", "trial_index": 11, "time_elapsed": 1225438, "internal_node_id": "0.0-10.0-1.0"}}, {"uniqueid": "MTK0699:3LWJHTCVCDTJ1151TEC4E8YRKQDQF3", "current_trial": 12, "dateTime": 1512608821300, "trialdata": {"rt": -1, "stimulus": "<p id=\"stim\">8</p>", "key_press": -1, "trial_type": "single-stim", "trial_index": 12, "time_elapsed": 1226439, "internal_node_id": "0.0-10.0-2.0"}}, {"uniqueid": "MTK0699:3LWJHTCVCDTJ1151TEC4E8YRKQDQF3", "current_trial": 13, "dateTime": 1512608822301, "trialdata": {"rt": -1, "stimulus": "<p id=\"stim\">7</p>", "key_press": -1, "trial_type": "single-stim", "trial_index": 13, "time_elapsed": 1227440, "internal_node_id": "0.0-10.0-3.0"}}, {"uniqueid": "MTK0699:3LWJHTCVCDTJ1151TEC4E8YRKQDQF3", "current_trial": 14, "dateTime": 1512608823302, "trialdata": {"rt": -1, "stimulus": "<p id=\"stim\">6</p>", "key_press": -1, "trial_type": "single-stim", "trial_index": 14, "time_elapsed": 1228441, "internal_node_id": "0.0-10.0-4.0"}}, {"uniqueid": "MTK0699:3LWJHTCVCDTJ1151TEC4E8YRKQDQF3", "current_trial": 15, "dateTime": 1512608824303, "trialdata": {"rt": -1, "stimulus": "<p id=\"stim\">5</p>", "key_press": -1, "trial_type": "single-stim", "trial_index": 15, "time_elapsed": 1229442, "internal_node_id": "0.0-10.0-5.0"}}, {"uniqueid": "MTK0699:3LWJHTCVCDTJ1151TEC4E8YRKQDQF3", "current_trial": 16, "dateTime": 1512608825305, "trialdata": {"rt": -1, "stimulus": "<p id=\"stim\">4</p>", "key_press": -1, "trial_type": "single-stim", "trial_index": 16, "time_elapsed": 1230444, "internal_node_id": "0.0-10.0-6.0"}}, {"uniqueid": "MTK0699:3LWJHTCVCDTJ1151TEC4E8YRKQDQF3", "current_trial": 17, "dateTime": 1512608826306, "trialdata": {"rt": -1, "stimulus": "<p id=\"stim\">3</p>", "key_press": -1, "trial_type": "single-stim", "trial_index": 17, "time_elapsed": 1231445, "internal_node_id": "0.0-10.0-7.0"}}, {"uniqueid": "MTK0699:3LWJHTCVCDTJ1151TEC4E8YRKQDQF3", "current_trial": 18, "dateTime": 1512608827307, "trialdata": {"rt": -1, "stimulus": "<p id=\"stim\">2</p>", "key_press": -1, "trial_type": "single-stim", "trial_index": 18, "time_elapsed": 1232446, "internal_node_id": "0.0-10.0-8.0"}}, {"uniqueid": "MTK0699:3LWJHTCVCDTJ1151TEC4E8YRKQDQF3", "current_trial": 19, "dateTime": 1512608828308, "trialdata": {"rt": -1, "stimulus": "<p id=\"stim\">1</p>", "key_press": -1, "trial_type": "single-stim", "trial_index": 19, "time_elapsed": 1233447, "internal_node_id": "0.0-10.0-9.0"}}, {"uniqueid": "MTK0699:3LWJHTCVCDTJ1151TEC4E8YRKQDQF3", "current_trial": 20, "dateTime": 1512608829809, "trialdata": {"rt": -1, "stimulus": "<p id=\"stim\">+</p>", "key_press": -1, "type": "FIXATION", "trial_type": "single-stim", "trial_index": 20, "time_elapsed": 1234948, "internal_node_id": "0.0-11.0-0.0"}}, {"uniqueid": "MTK0699:3LWJHTCVCDTJ1151TEC4E8YRKQDQF3", "current_trial": 21, "dateTime": 1512608831010, "trialdata": {"rt": -1, "stimulus": "<p id=\"stim\">CABBAGE</p>", "key_press": -1, "type": "PRES_VIS", "word": "cabbage", "wordID": 209, "conditions": [18, 1200, "v", 18000], "trial": 0, "serialpos": 0, "trial_type": "single-stim", "trial_index": 21, "time_elapsed": 1236149, "internal_node_id": "0.0-12.0"}}, {"uniqueid": "MTK0699:3LWJHTCVCDTJ1151TEC4E8YRKQDQF3", "current_trial": 22, "dateTime": 1512608833362, "trialdata": {"rt": 1044, "stimulus": "<p id=\"stim\">WINDOW</p>", "key_press": 80, "type": "PRES_VIS", "word": "window", "wordID": 1610, "conditions": [18, 1200, "v", 18000], "trial": 0, "serialpos": 1, "trial_type": "single-stim", "trial_index": 22, "time_elapsed": 1238501, "internal_node_id": "0.0-13.0"}}, {"uniqueid": "MTK0699:3LWJHTCVCDTJ1151TEC4E8YRKQDQF3", "current_trial": 23, "dateTime": 1512608835612, "trialdata": {"rt": -1, "stimulus": "<p id=\"stim\">SUNRISE</p>", "key_press": -1, "type": "PRES_VIS", "word": "sunrise", "wordID": 1406, "conditions": [18, 1200, "v", 18000], "trial": 0, "serialpos": 2, "trial_type": "single-stim", "trial_index": 23, "time_elapsed": 1240751, "internal_node_id": "0.0-14.0"}}, {"uniqueid": "MTK0699:3LWJHTCVCDTJ1151TEC4E8YRKQDQF3", "current_trial": 24, "dateTime": 1512608837767, "trialdata": {"rt": -1, "stimulus": "<p id=\"stim\">VENUS</p>", "key_press": -1, "type": "PRES_VIS", "word": "venus", "wordID": 1556, "conditions": [18, 1200, "v", 18000], "trial": 0, "serialpos": 3, "trial_type": "single-stim", "trial_index": 24, "time_elapsed": 1242906, "internal_node_id": "0.0-15.0"}}, {"uniqueid": "MTK0699:3LWJHTCVCDTJ1151TEC4E8YRKQDQF3", "current_trial": 25, "dateTime": 1512608839909, "trialdata": {"rt": -1, "stimulus": "<p id=\"stim\">DONOR</p>", "key_press": -1, "type": "PRES_VIS", "word": "donor", "wordID": 484, "conditions": [18, 1200, "v", 18000], "trial": 0, "serialpos": 4, "trial_type": "single-stim", "trial_index": 25, "time_elapsed": 1245048, "internal_node_id": "0.0-16.0"}}, {"uniqueid": "MTK0699:3LWJHTCVCDTJ1151TEC4E8YRKQDQF3", "current_trial": 26, "dateTime": 1512608842135, "trialdata": {"rt": -1, "stimulus": "<p id=\"stim\">LIGHTNING</p>", "key_press": -1, "type": "PRES_VIS", "word": "lightning", "wordID": 819, "conditions": [18, 1200, "v", 18000], "trial": 0, "serialpos": 5, "trial_type": "single-stim", "trial_index": 26, "time_elapsed": 1247274, "internal_node_id": "0.0-17.0"}}, {"uniqueid": "MTK0699:3LWJHTCVCDTJ1151TEC4E8YRKQDQF3", "current_trial": 27, "dateTime": 1512608844438, "trialdata": {"rt": -1, "stimulus": "<p id=\"stim\">MUSTARD</p>", "key_press": -1, "type": "PRES_VIS", "word": "mustard", "wordID": 934, "conditions": [18, 1200, "v", 18000], "trial": 0, "serialpos": 6, "trial_type": "single-stim", "trial_index": 27, "time_elapsed": 1249577, "internal_node_id": "0.0-18.0"}}, {"uniqueid": "MTK0699:3LWJHTCVCDTJ1151TEC4E8YRKQDQF3", "current_trial": 28, "dateTime": 1512608846542, "trialdata": {"rt": -1, "stimulus": "<p id=\"stim\">QUARTER</p>", "key_press": -1, "type": "PRES_VIS", "word": "quarter", "wordID": 1147, "conditions": [18, 1200, "v", 18000], "trial": 0, "serialpos": 7, "trial_type": "single-stim", "trial_index": 28, "time_elapsed": 1251681, "internal_node_id": "0.0-19.0"}}, {"uniqueid": "MTK0699:3LWJHTCVCDTJ1151TEC4E8YRKQDQF3", "current_trial": 29, "dateTime": 1512608848629, "trialdata": {"rt": -1, "stimulus": "<p id=\"stim\">FRAGRANCE</p>", "key_press": -1, "type": "PRES_VIS", "word": "fragrance", "wordID": 598, "conditions": [18, 1200, "v", 18000], "trial": 0, "serialpos": 8, "trial_type": "single-stim", "trial_index": 29, "time_elapsed": 1253768, "internal_node_id": "0.0-20.0"}}, {"uniqueid": "MTK0699:3LWJHTCVCDTJ1151TEC4E8YRKQDQF3", "current_trial": 30, "dateTime": 1512608850916, "trialdata": {"rt": -1, "stimulus": "<p id=\"stim\">OINTMENT</p>", "key_press": -1, "type": "PRES_VIS", "word": "ointment", "wordID": 973, "conditions": [18, 1200, "v", 18000], "trial": 0, "serialpos": 9, "trial_type": "single-stim", "trial_index": 30, "time_elapsed": 1256055, "internal_node_id": "0.0-21.0"}}, {"uniqueid": "MTK0699:3LWJHTCVCDTJ1151TEC4E8YRKQDQF3", "current_trial": 31, "dateTime": 1512608853146, "trialdata": {"rt": -1, "stimulus": "<p id=\"stim\">INFANT</p>", "key_press": -1, "type": "PRES_VIS", "word": "infant", "wordID": 736, "conditions": [18, 1200, "v", 18000], "trial": 0, "serialpos": 10, "trial_type": "single-stim", "trial_index": 31, "time_elapsed": 1258285, "internal_node_id": "0.0-22.0"}}, {"uniqueid": "MTK0699:3LWJHTCVCDTJ1151TEC4E8YRKQDQF3", "current_trial": 32, "dateTime": 1512608855462, "trialdata": {"rt": -1, "stimulus": "<p id=\"stim\">VALLEY</p>", "key_press": -1, "type": "PRES_VIS", "word": "valley", "wordID": 1544, "conditions": [18, 1200, "v", 18000], "trial": 0, "serialpos": 11, "trial_type": "single-stim", "trial_index": 32, "time_elapsed": 1260601, "internal_node_id": "0.0-23.0"}}, {"uniqueid": "MTK0699:3LWJHTCVCDTJ1151TEC4E8YRKQDQF3", "current_trial": 33, "dateTime": 1512608857669, "trialdata": {"rt": -1, "stimulus": "<p id=\"stim\">VAGRANT</p>", "key_press": -1, "type": "PRES_VIS", "word": "vagrant", "wordID": 1543, "conditions": [18, 1200, "v", 18000], "trial": 0, "serialpos": 12, "trial_type": "single-stim", "trial_index": 33, "time_elapsed": 1262808, "internal_node_id": "0.0-24.0"}}, {"uniqueid": "MTK0699:3LWJHTCVCDTJ1151TEC4E8YRKQDQF3", "current_trial": 34, "dateTime": 1512608859979, "trialdata": {"rt": -1, "stimulus": "<p id=\"stim\">DENTIST</p>", "key_press": -1, "type": "PRES_VIS", "word": "dentist", "wordID": 446, "conditions": [18, 1200, "v", 18000], "trial": 0, "serialpos": 13, "trial_type": "single-stim", "trial_index": 34, "time_elapsed": 1265118, "internal_node_id": "0.0-25.0"}}, {"uniqueid": "MTK0699:3LWJHTCVCDTJ1151TEC4E8YRKQDQF3", "current_trial": 35, "dateTime": 1512608862300, "trialdata": {"rt": -1, "stimulus": "<p id=\"stim\">GLOBE</p>", "key_press": -1, "type": "PRES_VIS", "word": "globe", "wordID": 640, "conditions": [18, 1200, "v", 18000], "trial": 0, "serialpos": 14, "trial_type": "single-stim", "trial_index": 35, "time_elapsed": 1267439, "internal_node_id": "0.0-26.0"}}, {"uniqueid": "MTK0699:3LWJHTCVCDTJ1151TEC4E8YRKQDQF3", "current_trial": 36, "dateTime": 1512608864593, "trialdata": {"rt": -1, "stimulus": "<p id=\"stim\">CHURCH</p>", "key_press": -1, "type": "PRES_VIS", "word": "church", "wordID": 306, "conditions": [18, 1200, "v", 18000], "trial": 0, "serialpos": 15, "trial_type": "single-stim", "trial_index": 36, "time_elapsed": 1269732, "internal_node_id": "0.0-27.0"}}, {"uniqueid": "MTK0699:3LWJHTCVCDTJ1151TEC4E8YRKQDQF3", "current_trial": 37, "dateTime": 1512608866979, "trialdata": {"rt": -1, "stimulus": "<p id=\"stim\">YACHT</p>", "key_press": -1, "type": "PRES_VIS", "word": "yacht", "wordID": 1628, "conditions": [18, 1200, "v", 18000], "trial": 0, "serialpos": 16, "trial_type": "single-stim", "trial_index": 37, "time_elapsed": 1272117, "internal_node_id": "0.0-28.0"}}, {"uniqueid": "MTK0699:3LWJHTCVCDTJ1151TEC4E8YRKQDQF3", "current_trial": 38, "dateTime": 1512608869329, "trialdata": {"rt": -1, "stimulus": "<p id=\"stim\">TEMPLE</p>", "key_press": -1, "type": "PRES_VIS", "word": "temple", "wordID": 1447, "conditions": [18, 1200, "v", 18000], "trial": 0, "serialpos": 17, "trial_type": "single-stim", "trial_index": 38, "time_elapsed": 1274468, "internal_node_id": "0.0-29.0"}}, {"uniqueid": "MTK0699:3LWJHTCVCDTJ1151TEC4E8YRKQDQF3", "current_trial": 39, "dateTime": 1512608871729, "trialdata": {"rt": -1, "stimulus": "", "key_press": -1, "type": "PRE_RECALL_DELAY", "trial_type": "single-stim", "trial_index": 39, "time_elapsed": 1276868, "internal_node_id": "0.0-30.0-0.0"}}, {"uniqueid": "MTK0699:3LWJHTCVCDTJ1151TEC4E8YRKQDQF3", "current_trial": 40, "dateTime": 1512608872230, "trialdata": {"rt": -1000, "stimulus": "/static/audio/400Hz.wav", "key_press": -1, "type": "PRE_RECALL_ALERT", "trial_type": "single-audio", "trial_index": 40, "time_elapsed": 1277369, "internal_node_id": "0.0-31.0"}}, {"uniqueid": "MTK0699:3LWJHTCVCDTJ1151TEC4E8YRKQDQF3", "current_trial": 41, "dateTime": 1512608932236, "trialdata": {"rt": [4377, 6260, 9972, 12885, 21038], "recwords": ["cabbage", "church", "hoist", "globe", "globe"], "type": "FREE_RECALL", "conditions": [18, 1200, "v", 18000], "trial": 0, "trial_type": "free-recall", "trial_index": 41, "time_elapsed": 1337373, "internal_node_id": "0.0-32.0-0.0"}}, {"uniqueid": "MTK0699:3LWJHTCVCDTJ1151TEC4E8YRKQDQF3", "current_trial": 42, "dateTime": 1512608936081, "trialdata": {"rt": 1844, "key_press": 70, "type": "INSTRUCTIONS", "trial_type": "text", "trial_index": 42, "time_elapsed": 1341220, "internal_node_id": "0.0-33.0"}}, {"uniqueid": "MTK0699:3LWJHTCVCDTJ1151TEC4E8YRKQDQF3", "current_trial": 43, "dateTime": 1512608956084, "trialdata": {"rt": [2886, 4636, 7073, 9791, 11697, 15183, 17417], "responses": ["11", "19", "10", "20", "17", "17", "14"], "num1": [3, 8, 5, 9, 6, 7, 7, 4], "num2": [4, 8, 3, 7, 6, 6, 2, 7], "num3": [4, 3, 2, 4, 5, 4, 5, 7], "type": "DISTRACTOR", "conditions": [18, 1200, "a", 18000], "trial": 1, "trial_type": "math-distractor", "trial_index": 43, "time_elapsed": 1361222, "internal_node_id": "0.0-34.0"}}, {"uniqueid": "MTK0699:3LWJHTCVCDTJ1151TEC4E8YRKQDQF3", "current_trial": 44, "dateTime": 1512608959085, "trialdata": {"rt": -1, "stimulus": "<p id=\"stim\">10</p>", "key_press": -1, "trial_type": "single-stim", "trial_index": 44, "time_elapsed": 1364224, "internal_node_id": "0.0-35.0-0.0"}}, {"uniqueid": "MTK0699:3LWJHTCVCDTJ1151TEC4E8YRKQDQF3", "current_trial": 45, "dateTime": 1512608960086, "trialdata": {"rt": -1, "stimulus": "<p id=\"stim\">9</p>", "key_press": -1, "trial_type": "single-stim", "trial_index": 45, "time_elapsed": 1365225, "internal_node_id": "0.0-35.0-1.0"}}, {"uniqueid": "MTK0699:3LWJHTCVCDTJ1151TEC4E8YRKQDQF3", "current_trial": 46, "dateTime": 1512608961087, "trialdata": {"rt": -1, "stimulus": "<p id=\"stim\">8</p>", "key_press": -1, "trial_type": "single-stim", "trial_index": 46, "time_elapsed": 1366226, "internal_node_id": "0.0-35.0-2.0"}}, {"uniqueid": "MTK0699:3LWJHTCVCDTJ1151TEC4E8YRKQDQF3", "current_trial": 47, "dateTime": 1512608962088, "trialdata": {"rt": -1, "stimulus": "<p id=\"stim\">7</p>", "key_press": -1, "trial_type": "single-stim", "trial_index": 47, "time_elapsed": 1367227, "internal_node_id": "0.0-35.0-3.0"}}, {"uniqueid": "MTK0699:3LWJHTCVCDTJ1151TEC4E8YRKQDQF3", "current_trial": 48, "dateTime": 1512608963089, "trialdata": {"rt": -1, "stimulus": "<p id=\"stim\">6</p>", "key_press": -1, "trial_type": "single-stim", "trial_index": 48, "time_elapsed": 1368228, "internal_node_id": "0.0-35.0-4.0"}}, {"uniqueid": "MTK0699:3LWJHTCVCDTJ1151TEC4E8YRKQDQF3", "current_trial": 49, "dateTime": 1512608964090, "trialdata": {"rt": -1, "stimulus": "<p id=\"stim\">5</p>", "key_press": -1, "trial_type": "single-stim", "trial_index": 49, "time_elapsed": 1369229, "internal_node_id": "0.0-35.0-5.0"}}, {"uniqueid": "MTK0699:3LWJHTCVCDTJ1151TEC4E8YRKQDQF3", "current_trial": 50, "dateTime": 1512608965092, "trialdata": {"rt": -1, "stimulus": "<p id=\"stim\">4</p>", "key_press": -1, "trial_type": "single-stim", "trial_index": 50, "time_elapsed": 1370231, "internal_node_id": "0.0-35.0-6.0"}}, {"uniqueid": "MTK0699:3LWJHTCVCDTJ1151TEC4E8YRKQDQF3", "current_trial": 51, "dateTime": 1512608966093, "trialdata": {"rt": -1, "stimulus": "<p id=\"stim\">3</p>", "key_press": -1, "trial_type": "single-stim", "trial_index": 51, "time_elapsed": 1371232, "internal_node_id": "0.0-35.0-7.0"}}, {"uniqueid": "MTK0699:3LWJHTCVCDTJ1151TEC4E8YRKQDQF3", "current_trial": 52, "dateTime": 1512608967094, "trialdata": {"rt": -1, "stimulus": "<p id=\"stim\">2</p>", "key_press": -1, "trial_type": "single-stim", "trial_index": 52, "time_elapsed": 1372233, "internal_node_id": "0.0-35.0-8.0"}}, {"uniqueid": "MTK0699:3LWJHTCVCDTJ1151TEC4E8YRKQDQF3", "current_trial": 53, "dateTime": 1512608968096, "trialdata": {"rt": -1, "stimulus": "<p id=\"stim\">1</p>", "key_press": -1, "trial_type": "single-stim", "trial_index": 53, "time_elapsed": 1373235, "internal_node_id": "0.0-35.0-9.0"}}, {"uniqueid": "MTK0699:3LWJHTCVCDTJ1151TEC4E8YRKQDQF3", "current_trial": 54, "dateTime": 1512608969597, "trialdata": {"rt": -1, "stimulus": "<p id=\"stim\">+</p>", "key_press": -1, "type": "FIXATION", "trial_type": "single-stim", "trial_index": 54, "time_elapsed": 1374736, "internal_node_id": "0.0-36.0-0.0"}}, {"uniqueid": "MTK0699:3LWJHTCVCDTJ1151TEC4E8YRKQDQF3", "current_trial": 55, "dateTime": 1512608971967, "trialdata": {"rt": -1000, "stimulus": "/static/audio/wordpool/BROTHER.wav", "key_press": -1, "type": "PRES_AUD", "word": "brother", "wordID": 178, "conditions": [18, 1200, "a", 18000], "trial": 1, "serialpos": 0, "trial_type": "single-audio", "trial_index": 55, "time_elapsed": 1377106, "internal_node_id": "0.0-37.0"}}, {"uniqueid": "MTK0699:3LWJHTCVCDTJ1151TEC4E8YRKQDQF3", "current_trial": 56, "dateTime": 1512608974321, "trialdata": {"rt": -1000, "stimulus": "/static/audio/wordpool/TORTOISE.wav", "key_press": -1, "type": "PRES_AUD", "word": "tortoise", "wordID": 1485, "conditions": [18, 1200, "a", 18000], "trial": 1, "serialpos": 1, "trial_type": "single-audio", "trial_index": 56, "time_elapsed": 1379460, "internal_node_id": "0.0-38.0"}}, {"uniqueid": "MTK0699:3LWJHTCVCDTJ1151TEC4E8YRKQDQF3", "current_trial": 57, "dateTime": 1512608976350, "trialdata": {"rt": -1000, "stimulus": "/static/audio/wordpool/RECEIPT.wav", "key_press": -1, "type": "PRES_AUD", "word": "receipt", "wordID": 1172, "conditions": [18, 1200, "a", 18000], "trial": 1, "serialpos": 2, "trial_type": "single-audio", "trial_index": 57, "time_elapsed": 1381489, "internal_node_id": "0.0-39.0"}}, {"uniqueid": "MTK0699:3LWJHTCVCDTJ1151TEC4E8YRKQDQF3", "current_trial": 58, "dateTime": 1512608978695, "trialdata": {"rt": -1000, "stimulus": "/static/audio/wordpool/CONVICT.wav", "key_press": -1, "type": "PRES_AUD", "word": "convict", "wordID": 370, "conditions": [18, 1200, "a", 18000], "trial": 1, "serialpos": 3, "trial_type": "single-audio", "trial_index": 58, "time_elapsed": 1383834, "internal_node_id": "0.0-40.0"}}, {"uniqueid": "MTK0699:3LWJHTCVCDTJ1151TEC4E8YRKQDQF3", "current_trial": 59, "dateTime": 1512608980865, "trialdata": {"rt": -1000, "stimulus": "/static/audio/wordpool/OMELET.wav", "key_press": -1, "type": "PRES_AUD", "word": "omelet", "wordID": 975, "conditions": [18, 1200, "a", 18000], "trial": 1, "serialpos": 4, "trial_type": "single-audio", "trial_index": 59, "time_elapsed": 1386004, "internal_node_id": "0.0-41.0"}}, {"uniqueid": "MTK0699:3LWJHTCVCDTJ1151TEC4E8YRKQDQF3", "current_trial": 60, "dateTime": 1512608983251, "trialdata": {"rt": -1000, "stimulus": "/static/audio/wordpool/WIFE.wav", "key_press": -1, "type": "PRES_AUD", "word": "wife", "wordID": 1608, "conditions": [18, 1200, "a", 18000], "trial": 1, "serialpos": 5, "trial_type": "single-audio", "trial_index": 60, "time_elapsed": 1388390, "internal_node_id": "0.0-42.0"}}, {"uniqueid": "MTK0699:3LWJHTCVCDTJ1151TEC4E8YRKQDQF3", "current_trial": 61, "dateTime": 1512608985597, "trialdata": {"rt": -1000, "stimulus": "/static/audio/wordpool/KLEENEX.wav", "key_press": -1, "type": "PRES_AUD", "word": "kleenex", "wordID": 781, "conditions": [18, 1200, "a", 18000], "trial": 1, "serialpos": 6, "trial_type": "single-audio", "trial_index": 61, "time_elapsed": 1390736, "internal_node_id": "0.0-43.0"}}, {"uniqueid": "MTK0699:3LWJHTCVCDTJ1151TEC4E8YRKQDQF3", "current_trial": 62, "dateTime": 1512608987830, "trialdata": {"rt": -1000, "stimulus": "/static/audio/wordpool/SWORD.wav", "key_press": -1, "type": "PRES_AUD", "word": "sword", "wordID": 1422, "conditions": [18, 1200, "a", 18000], "trial": 1, "serialpos": 7, "trial_type": "single-audio", "trial_index": 62, "time_elapsed": 1392969, "internal_node_id": "0.0-44.0"}}, {"uniqueid": "MTK0699:3LWJHTCVCDTJ1151TEC4E8YRKQDQF3", "current_trial": 63, "dateTime": 1512608990086, "trialdata": {"rt": -1000, "stimulus": "/static/audio/wordpool/FLEET.wav", "key_press": -1, "type": "PRES_AUD", "word": "fleet", "wordID": 577, "conditions": [18, 1200, "a", 18000], "trial": 1, "serialpos": 8, "trial_type": "single-audio", "trial_index": 63, "time_elapsed": 1395225, "internal_node_id": "0.0-45.0"}}, {"uniqueid": "MTK0699:3LWJHTCVCDTJ1151TEC4E8YRKQDQF3", "current_trial": 64, "dateTime": 1512608992388, "trialdata": {"rt": 321.3333333335413, "stimulus": "/static/audio/wordpool/FLOWER.wav", "key_press": 179, "type": "PRES_AUD", "word": "flower", "wordID": 583, "conditions": [18, 1200, "a", 18000], "trial": 1, "serialpos": 9, "trial_type": "single-audio", "trial_index": 64, "time_elapsed": 1397527, "internal_node_id": "0.0-46.0"}}, {"uniqueid": "MTK0699:3LWJHTCVCDTJ1151TEC4E8YRKQDQF3", "current_trial": 65, "dateTime": 1512608994748, "trialdata": {"rt": -1000, "stimulus": "/static/audio/wordpool/DRUG.wav", "key_press": -1, "type": "PRES_AUD", "word": "drug", "wordID": 500, "conditions": [18, 1200, "a", 18000], "trial": 1, "serialpos": 10, "trial_type": "single-audio", "trial_index": 65, "time_elapsed": 1399887, "internal_node_id": "0.0-47.0"}}, {"uniqueid": "MTK0699:3LWJHTCVCDTJ1151TEC4E8YRKQDQF3", "current_trial": 66, "dateTime": 1512608997120, "trialdata": {"rt": -1000, "stimulus": "/static/audio/wordpool/REBEL.wav", "key_press": -1, "type": "PRES_AUD", "word": "rebel", "wordID": 1171, "conditions": [18, 1200, "a", 18000], "trial": 1, "serialpos": 11, "trial_type": "single-audio", "trial_index": 66, "time_elapsed": 1402259, "internal_node_id": "0.0-48.0"}}, {"uniqueid": "MTK0699:3LWJHTCVCDTJ1151TEC4E8YRKQDQF3", "current_trial": 67, "dateTime": 1512608999273, "trialdata": {"rt": -1000, "stimulus": "/static/audio/wordpool/HORNET.wav", "key_press": -1, "type": "PRES_AUD", "word": "hornet", "wordID": 717, "conditions": [18, 1200, "a", 18000], "trial": 1, "serialpos": 12, "trial_type": "single-audio", "trial_index": 67, "time_elapsed": 1404412, "internal_node_id": "0.0-49.0"}}, {"uniqueid": "MTK0699:3LWJHTCVCDTJ1151TEC4E8YRKQDQF3", "current_trial": 68, "dateTime": 1512609001603, "trialdata": {"rt": -1000, "stimulus": "/static/audio/wordpool/WORKER.wav", "key_press": -1, "type": "PRES_AUD", "word": "worker", "wordID": 1620, "conditions": [18, 1200, "a", 18000], "trial": 1, "serialpos": 13, "trial_type": "single-audio", "trial_index": 68, "time_elapsed": 1406741, "internal_node_id": "0.0-50.0"}}, {"uniqueid": "MTK0699:3LWJHTCVCDTJ1151TEC4E8YRKQDQF3", "current_trial": 69, "dateTime": 1512609003996, "trialdata": {"rt": -1000, "stimulus": "/static/audio/wordpool/LAVA.wav", "key_press": -1, "type": "PRES_AUD", "word": "lava", "wordID": 803, "conditions": [18, 1200, "a", 18000], "trial": 1, "serialpos": 14, "trial_type": "single-audio", "trial_index": 69, "time_elapsed": 1409135, "internal_node_id": "0.0-51.0"}}, {"uniqueid": "MTK0699:3LWJHTCVCDTJ1151TEC4E8YRKQDQF3", "current_trial": 70, "dateTime": 1512609006010, "trialdata": {"rt": -1000, "stimulus": "/static/audio/wordpool/BABY.wav", "key_press": -1, "type": "PRES_AUD", "word": "baby", "wordID": 63, "conditions": [18, 1200, "a", 18000], "trial": 1, "serialpos": 15, "trial_type": "single-audio", "trial_index": 70, "time_elapsed": 1411149, "internal_node_id": "0.0-52.0"}}, {"uniqueid": "MTK0699:3LWJHTCVCDTJ1151TEC4E8YRKQDQF3", "current_trial": 71, "dateTime": 1512609008238, "trialdata": {"rt": -1000, "stimulus": "/static/audio/wordpool/LUNCH.wav", "key_press": -1, "type": "PRES_AUD", "word": "lunch", "wordID": 848, "conditions": [18, 1200, "a", 18000], "trial": 1, "serialpos": 16, "trial_type": "single-audio", "trial_index": 71, "time_elapsed": 1413377, "internal_node_id": "0.0-53.0"}}, {"uniqueid": "MTK0699:3LWJHTCVCDTJ1151TEC4E8YRKQDQF3", "current_trial": 72, "dateTime": 1512609010352, "trialdata": {"rt": -1000, "stimulus": "/static/audio/wordpool/EXPERT.wav", "key_press": -1, "type": "PRES_AUD", "word": "expert", "wordID": 542, "conditions": [18, 1200, "a", 18000], "trial": 1, "serialpos": 17, "trial_type": "single-audio", "trial_index": 72, "time_elapsed": 1415491, "internal_node_id": "0.0-54.0"}}, {"uniqueid": "MTK0699:3LWJHTCVCDTJ1151TEC4E8YRKQDQF3", "current_trial": 73, "dateTime": 1512609011633, "trialdata": {"rt": -1, "stimulus": "", "key_press": -1, "type": "PRE_RECALL_DELAY", "trial_type": "single-stim", "trial_index": 73, "time_elapsed": 1416772, "internal_node_id": "0.0-55.0-0.0"}}, {"uniqueid": "MTK0699:3LWJHTCVCDTJ1151TEC4E8YRKQDQF3", "current_trial": 74, "dateTime": 1512609012134, "trialdata": {"rt": -1000, "stimulus": "/static/audio/400Hz.wav", "key_press": -1, "type": "PRE_RECALL_ALERT", "trial_type": "single-audio", "trial_index": 74, "time_elapsed": 1417273, "internal_node_id": "0.0-56.0"}}, {"uniqueid": "MTK0699:3LWJHTCVCDTJ1151TEC4E8YRKQDQF3", "current_trial": 75, "dateTime": 1512609072138, "trialdata": {"rt": [2987, 4087, 4857, 6846, 8630, 14363, 23082, 24980, 27852, 32477, 53363], "recwords": ["expert", "baby", "wife", "child", "sweet", "brother", "orange", "earth", "science", "cheeese", "thanksgiving"], "type": "FREE_RECALL", "conditions": [18, 1200, "a", 18000], "trial": 1, "trial_type": "free-recall", "trial_index": 75, "time_elapsed": 1477275, "internal_node_id": "0.0-57.0-0.0"}}, {"uniqueid": "MTK0699:3LWJHTCVCDTJ1151TEC4E8YRKQDQF3", "current_trial": 76, "dateTime": 1512609075824, "trialdata": {"rt": 1683, "key_press": 83, "type": "INSTRUCTIONS", "trial_type": "text", "trial_index": 76, "time_elapsed": 1480961, "internal_node_id": "0.0-58.0"}}, {"uniqueid": "MTK0699:3LWJHTCVCDTJ1151TEC4E8YRKQDQF3", "current_trial": 77, "dateTime": 1512609100827, "trialdata": {"rt": [2453, 3977, 6200, 8336, 9893, 11697, 13283, 15313, 16951, 20080, 21697], "responses": ["20", "11", "14", "18", "9", "20", "16", "13", "19", "18", "17"], "num1": [8, 3, 2, 8, 3, 9, 6, 3, 3, 7, 7, 9], "num2": [7, 4, 5, 8, 5, 2, 4, 3, 8, 6, 7, 3], "num3": [5, 4, 7, 2, 1, 9, 6, 7, 8, 5, 3, 3], "type": "DISTRACTOR", "conditions": [12, 800, "a", 24000], "trial": 2, "trial_type": "math-distractor", "trial_index": 77, "time_elapsed": 1505966, "internal_node_id": "0.0-59.0"}}, {"uniqueid": "MTK0699:3LWJHTCVCDTJ1151TEC4E8YRKQDQF3", "current_trial": 78, "dateTime": 1512609103829, "trialdata": {"rt": -1, "stimulus": "<p id=\"stim\">10</p>", "key_press": -1, "trial_type": "single-stim", "trial_index": 78, "time_elapsed": 1508968, "internal_node_id": "0.0-60.0-0.0"}}, {"uniqueid": "MTK0699:3LWJHTCVCDTJ1151TEC4E8YRKQDQF3", "current_trial": 79, "dateTime": 1512609104830, "trialdata": {"rt": -1, "stimulus": "<p id=\"stim\">9</p>", "key_press": -1, "trial_type": "single-stim", "trial_index": 79, "time_elapsed": 1509969, "internal_node_id": "0.0-60.0-1.0"}}, {"uniqueid": "MTK0699:3LWJHTCVCDTJ1151TEC4E8YRKQDQF3", "current_trial": 80, "dateTime": 1512609105832, "trialdata": {"rt": -1, "stimulus": "<p id=\"stim\">8</p>", "key_press": -1, "trial_type": "single-stim", "trial_index": 80, "time_elapsed": 1510971, "internal_node_id": "0.0-60.0-2.0"}}, {"uniqueid": "MTK0699:3LWJHTCVCDTJ1151TEC4E8YRKQDQF3", "current_trial": 81, "dateTime": 1512609106833, "trialdata": {"rt": -1, "stimulus": "<p id=\"stim\">7</p>", "key_press": -1, "trial_type": "single-stim", "trial_index": 81, "time_elapsed": 1511972, "internal_node_id": "0.0-60.0-3.0"}}, {"uniqueid": "MTK0699:3LWJHTCVCDTJ1151TEC4E8YRKQDQF3", "current_trial": 82, "dateTime": 1512609107834, "trialdata": {"rt": -1, "stimulus": "<p id=\"stim\">6</p>", "key_press": -1, "trial_type": "single-stim", "trial_index": 82, "time_elapsed": 1512973, "internal_node_id": "0.0-60.0-4.0"}}, {"uniqueid": "MTK0699:3LWJHTCVCDTJ1151TEC4E8YRKQDQF3", "current_trial": 83, "dateTime": 1512609108835, "trialdata": {"rt": -1, "stimulus": "<p id=\"stim\">5</p>", "key_press": -1, "trial_type": "single-stim", "trial_index": 83, "time_elapsed": 1513974, "internal_node_id": "0.0-60.0-5.0"}}, {"uniqueid": "MTK0699:3LWJHTCVCDTJ1151TEC4E8YRKQDQF3", "current_trial": 84, "dateTime": 1512609109836, "trialdata": {"rt": -1, "stimulus": "<p id=\"stim\">4</p>", "key_press": -1, "trial_type": "single-stim", "trial_index": 84, "time_elapsed": 1514975, "internal_node_id": "0.0-60.0-6.0"}}, {"uniqueid": "MTK0699:3LWJHTCVCDTJ1151TEC4E8YRKQDQF3", "current_trial": 85, "dateTime": 1512609110837, "trialdata": {"rt": -1, "stimulus": "<p id=\"stim\">3</p>", "key_press": -1, "trial_type": "single-stim", "trial_index": 85, "time_elapsed": 1515976, "internal_node_id": "0.0-60.0-7.0"}}, {"uniqueid": "MTK0699:3LWJHTCVCDTJ1151TEC4E8YRKQDQF3", "current_trial": 86, "dateTime": 1512609111838, "trialdata": {"rt": -1, "stimulus": "<p id=\"stim\">2</p>", "key_press": -1, "trial_type": "single-stim", "trial_index": 86, "time_elapsed": 1516977, "internal_node_id": "0.0-60.0-8.0"}}, {"uniqueid": "MTK0699:3LWJHTCVCDTJ1151TEC4E8YRKQDQF3", "current_trial": 87, "dateTime": 1512609112839, "trialdata": {"rt": -1, "stimulus": "<p id=\"stim\">1</p>", "key_press": -1, "trial_type": "single-stim", "trial_index": 87, "time_elapsed": 1517978, "internal_node_id": "0.0-60.0-9.0"}}, {"uniqueid": "MTK0699:3LWJHTCVCDTJ1151TEC4E8YRKQDQF3", "current_trial": 88, "dateTime": 1512609114340, "trialdata": {"rt": -1, "stimulus": "<p id=\"stim\">+</p>", "key_press": -1, "type": "FIXATION", "trial_type": "single-stim", "trial_index": 88, "time_elapsed": 1519479, "internal_node_id": "0.0-61.0-0.0"}}, {"uniqueid": "MTK0699:3LWJHTCVCDTJ1151TEC4E8YRKQDQF3", "current_trial": 89, "dateTime": 1512609116264, "trialdata": {"rt": -1000, "stimulus": "/static/audio/wordpool/DRAWING.wav", "key_press": -1, "type": "PRES_AUD", "word": "drawing", "wordID": 493, "conditions": [12, 800, "a", 24000], "trial": 2, "serialpos": 0, "trial_type": "single-audio", "trial_index": 89, "time_elapsed": 1521403, "internal_node_id": "0.0-62.0"}}, {"uniqueid": "MTK0699:3LWJHTCVCDTJ1151TEC4E8YRKQDQF3", "current_trial": 90, "dateTime": 1512609118118, "trialdata": {"rt": -1000, "stimulus": "/static/audio/wordpool/TUNNEL.wav", "key_press": -1, "type": "PRES_AUD", "word": "tunnel", "wordID": 1518, "conditions": [12, 800, "a", 24000], "trial": 2, "serialpos": 1, "trial_type": "single-audio", "trial_index": 90, "time_elapsed": 1523257, "internal_node_id": "0.0-63.0"}}, {"uniqueid": "MTK0699:3LWJHTCVCDTJ1151TEC4E8YRKQDQF3", "current_trial": 91, "dateTime": 1512609119834, "trialdata": {"rt": -1000, "stimulus": "/static/audio/wordpool/BRANCH.wav", "key_press": -1, "type": "PRES_AUD", "word": "branch", "wordID": 167, "conditions": [12, 800, "a", 24000], "trial": 2, "serialpos": 2, "trial_type": "single-audio", "trial_index": 91, "time_elapsed": 1524973, "internal_node_id": "0.0-64.0"}}, {"uniqueid": "MTK0699:3LWJHTCVCDTJ1151TEC4E8YRKQDQF3", "current_trial": 92, "dateTime": 1512609121541, "trialdata": {"rt": -1000, "stimulus": "/static/audio/wordpool/SPOOL.wav", "key_press": -1, "type": "PRES_AUD", "word": "spool", "wordID": 1355, "conditions": [12, 800, "a", 24000], "trial": 2, "serialpos": 3, "trial_type": "single-audio", "trial_index": 92, "time_elapsed": 1526680, "internal_node_id": "0.0-65.0"}}, {"uniqueid": "MTK0699:3LWJHTCVCDTJ1151TEC4E8YRKQDQF3", "current_trial": 93, "dateTime": 1512609123249, "trialdata": {"rt": -1000, "stimulus": "/static/audio/wordpool/IGLOO.wav", "key_press": -1, "type": "PRES_AUD", "word": "igloo", "wordID": 733, "conditions": [12, 800, "a", 24000], "trial": 2, "serialpos": 4, "trial_type": "single-audio", "trial_index": 93, "time_elapsed": 1528388, "internal_node_id": "0.0-66.0"}}, {"uniqueid": "MTK0699:3LWJHTCVCDTJ1151TEC4E8YRKQDQF3", "current_trial": 94, "dateTime": 1512609125086, "trialdata": {"rt": -1000, "stimulus": "/static/audio/wordpool/PADDLE.wav", "key_press": -1, "type": "PRES_AUD", "word": "paddle", "wordID": 999, "conditions": [12, 800, "a", 24000], "trial": 2, "serialpos": 5, "trial_type": "single-audio", "trial_index": 94, "time_elapsed": 1530225, "internal_node_id": "0.0-67.0"}}, {"uniqueid": "MTK0699:3LWJHTCVCDTJ1151TEC4E8YRKQDQF3", "current_trial": 95, "dateTime": 1512609126817, "trialdata": {"rt": -1000, "stimulus": "/static/audio/wordpool/HAMPER.wav", "key_press": -1, "type": "PRES_AUD", "word": "hamper", "wordID": 681, "conditions": [12, 800, "a", 24000], "trial": 2, "serialpos": 6, "trial_type": "single-audio", "trial_index": 95, "time_elapsed": 1531956, "internal_node_id": "0.0-68.0"}}, {"uniqueid": "MTK0699:3LWJHTCVCDTJ1151TEC4E8YRKQDQF3", "current_trial": 96, "dateTime": 1512609128551, "trialdata": {"rt": -1000, "stimulus": "/static/audio/wordpool/BANK.wav", "key_press": -1, "type": "PRES_AUD", "word": "bank", "wordID": 82, "conditions": [12, 800, "a", 24000], "trial": 2, "serialpos": 7, "trial_type": "single-audio", "trial_index": 96, "time_elapsed": 1533690, "internal_node_id": "0.0-69.0"}}, {"uniqueid": "MTK0699:3LWJHTCVCDTJ1151TEC4E8YRKQDQF3", "current_trial": 97, "dateTime": 1512609130210, "trialdata": {"rt": -1000, "stimulus": "/static/audio/wordpool/KETCHUP.wav", "key_press": -1, "type": "PRES_AUD", "word": "ketchup", "wordID": 770, "conditions": [12, 800, "a", 24000], "trial": 2, "serialpos": 8, "trial_type": "single-audio", "trial_index": 97, "time_elapsed": 1535349, "internal_node_id": "0.0-70.0"}}, {"uniqueid": "MTK0699:3LWJHTCVCDTJ1151TEC4E8YRKQDQF3", "current_trial": 98, "dateTime": 1512609132211, "trialdata": {"rt": -1000, "stimulus": "/static/audio/wordpool/QUAIL.wav", "key_press": -1, "type": "PRES_AUD", "word": "quail", "wordID": 1146, "conditions": [12, 800, "a", 24000], "trial": 2, "serialpos": 9, "trial_type": "single-audio", "trial_index": 98, "time_elapsed": 1537350, "internal_node_id": "0.0-71.0"}}, {"uniqueid": "MTK0699:3LWJHTCVCDTJ1151TEC4E8YRKQDQF3", "current_trial": 99, "dateTime": 1512609133930, "trialdata": {"rt": -1000, "stimulus": "/static/audio/wordpool/GARLIC.wav", "key_press": -1, "type": "PRES_AUD", "word": "garlic", "wordID": 623, "conditions": [12, 800, "a", 24000], "trial": 2, "serialpos": 10, "trial_type": "single-audio", "trial_index": 99, "time_elapsed": 1539069, "internal_node_id": "0.0-72.0"}}, {"uniqueid": "MTK0699:3LWJHTCVCDTJ1151TEC4E8YRKQDQF3", "current_trial": 100, "dateTime": 1512609135926, "trialdata": {"rt": -1000, "stimulus": "/static/audio/wordpool/PARSLEY.wav", "key_press": -1, "type": "PRES_AUD", "word": "parsley", "wordID": 1015, "conditions": [12, 800, "a", 24000], "trial": 2, "serialpos": 11, "trial_type": "single-audio", "trial_index": 100, "time_elapsed": 1541065, "internal_node_id": "0.0-73.0"}}, {"uniqueid": "MTK0699:3LWJHTCVCDTJ1151TEC4E8YRKQDQF3", "current_trial": 101, "dateTime": 1512609137271, "trialdata": {"rt": -1, "stimulus": "", "key_press": -1, "type": "PRE_RECALL_DELAY", "trial_type": "single-stim", "trial_index": 101, "time_elapsed": 1542410, "internal_node_id": "0.0-74.0-0.0"}}, {"uniqueid": "MTK0699:3LWJHTCVCDTJ1151TEC4E8YRKQDQF3", "current_trial": 102, "dateTime": 1512609137772, "trialdata": {"rt": -1000, "stimulus": "/static/audio/400Hz.wav", "key_press": -1, "type": "PRE_RECALL_ALERT", "trial_type": "single-audio", "trial_index": 102, "time_elapsed": 1542911, "internal_node_id": "0.0-75.0"}}, {"uniqueid": "MTK0699:3LWJHTCVCDTJ1151TEC4E8YRKQDQF3", "current_trial": 103, "dateTime": 1512609197775, "trialdata": {"rt": [2697, 3732, 11206], "recwords": ["parsley", "spool", "spice"], "type": "FREE_RECALL", "conditions": [12, 800, "a", 24000], "trial": 2, "trial_type": "free-recall", "trial_index": 103, "time_elapsed": 1602913, "internal_node_id": "0.0-76.0-0.0"}}, {"uniqueid": "MTK0699:3LWJHTCVCDTJ1151TEC4E8YRKQDQF3", "current_trial": 104, "dateTime": 1512609204789, "trialdata": {"rt": 5012, "key_press": 69, "type": "INSTRUCTIONS", "trial_type": "text", "trial_index": 104, "time_elapsed": 1609927, "internal_node_id": "0.0-77.0"}}, {"uniqueid": "MTK0699:3LWJHTCVCDTJ1151TEC4E8YRKQDQF3", "current_trial": 105, "dateTime": 1512609218792, "trialdata": {"rt": [3468, 5776, 8904, 10498], "responses": ["6", "12", "11", "12"], "num1": [2, 4, 1, 6, 7], "num2": [2, 4, 4, 1, 7], "num3": [2, 4, 6, 5, 9], "type": "DISTRACTOR", "conditions": [12, 800, "v", 12000], "trial": 3, "trial_type": "math-distractor", "trial_index": 105, "time_elapsed": 1623931, "internal_node_id": "0.0-78.0"}}, {"uniqueid": "MTK0699:3LWJHTCVCDTJ1151TEC4E8YRKQDQF3", "current_trial": 106, "dateTime": 1512609221794, "trialdata": {"rt": -1, "stimulus": "<p id=\"stim\">10</p>", "key_press": -1, "trial_type": "single-stim", "trial_index": 106, "time_elapsed": 1626933, "internal_node_id": "0.0-79.0-0.0"}}, {"uniqueid": "MTK0699:3LWJHTCVCDTJ1151TEC4E8YRKQDQF3", "current_trial": 107, "dateTime": 1512609222795, "trialdata": {"rt": -1, "stimulus": "<p id=\"stim\">9</p>", "key_press": -1, "trial_type": "single-stim", "trial_index": 107, "time_elapsed": 1627934, "internal_node_id": "0.0-79.0-1.0"}}, {"uniqueid": "MTK0699:3LWJHTCVCDTJ1151TEC4E8YRKQDQF3", "current_trial": 108, "dateTime": 1512609223796, "trialdata": {"rt": -1, "stimulus": "<p id=\"stim\">8</p>", "key_press": -1, "trial_type": "single-stim", "trial_index": 108, "time_elapsed": 1628935, "internal_node_id": "0.0-79.0-2.0"}}, {"uniqueid": "MTK0699:3LWJHTCVCDTJ1151TEC4E8YRKQDQF3", "current_trial": 109, "dateTime": 1512609224797, "trialdata": {"rt": -1, "stimulus": "<p id=\"stim\">7</p>", "key_press": -1, "trial_type": "single-stim", "trial_index": 109, "time_elapsed": 1629936, "internal_node_id": "0.0-79.0-3.0"}}, {"uniqueid": "MTK0699:3LWJHTCVCDTJ1151TEC4E8YRKQDQF3", "current_trial": 110, "dateTime": 1512609225798, "trialdata": {"rt": -1, "stimulus": "<p id=\"stim\">6</p>", "key_press": -1, "trial_type": "single-stim", "trial_index": 110, "time_elapsed": 1630937, "internal_node_id": "0.0-79.0-4.0"}}, {"uniqueid": "MTK0699:3LWJHTCVCDTJ1151TEC4E8YRKQDQF3", "current_trial": 111, "dateTime": 1512609226799, "trialdata": {"rt": -1, "stimulus": "<p id=\"stim\">5</p>", "key_press": -1, "trial_type": "single-stim", "trial_index": 111, "time_elapsed": 1631938, "internal_node_id": "0.0-79.0-5.0"}}, {"uniqueid": "MTK0699:3LWJHTCVCDTJ1151TEC4E8YRKQDQF3", "current_trial": 112, "dateTime": 1512609227801, "trialdata": {"rt": -1, "stimulus": "<p id=\"stim\">4</p>", "key_press": -1, "trial_type": "single-stim", "trial_index": 112, "time_elapsed": 1632940, "internal_node_id": "0.0-79.0-6.0"}}, {"uniqueid": "MTK0699:3LWJHTCVCDTJ1151TEC4E8YRKQDQF3", "current_trial": 113, "dateTime": 1512609228802, "trialdata": {"rt": -1, "stimulus": "<p id=\"stim\">3</p>", "key_press": -1, "trial_type": "single-stim", "trial_index": 113, "time_elapsed": 1633941, "internal_node_id": "0.0-79.0-7.0"}}, {"uniqueid": "MTK0699:3LWJHTCVCDTJ1151TEC4E8YRKQDQF3", "current_trial": 114, "dateTime": 1512609229803, "trialdata": {"rt": -1, "stimulus": "<p id=\"stim\">2</p>", "key_press": -1, "trial_type": "single-stim", "trial_index": 114, "time_elapsed": 1634942, "internal_node_id": "0.0-79.0-8.0"}}, {"uniqueid": "MTK0699:3LWJHTCVCDTJ1151TEC4E8YRKQDQF3", "current_trial": 115, "dateTime": 1512609230805, "trialdata": {"rt": -1, "stimulus": "<p id=\"stim\">1</p>", "key_press": -1, "trial_type": "single-stim", "trial_index": 115, "time_elapsed": 1635943, "internal_node_id": "0.0-79.0-9.0"}}, {"uniqueid": "MTK0699:3LWJHTCVCDTJ1151TEC4E8YRKQDQF3", "current_trial": 116, "dateTime": 1512609232306, "trialdata": {"rt": -1, "stimulus": "<p id=\"stim\">+</p>", "key_press": -1, "type": "FIXATION", "trial_type": "single-stim", "trial_index": 116, "time_elapsed": 1637445, "internal_node_id": "0.0-80.0-0.0"}}, {"uniqueid": "MTK0699:3LWJHTCVCDTJ1151TEC4E8YRKQDQF3", "current_trial": 117, "dateTime": 1512609233107, "trialdata": {"rt": -1, "stimulus": "<p id=\"stim\">SHRUB</p>", "key_press": -1, "type": "PRES_VIS", "word": "shrub", "wordID": 1298, "conditions": [12, 800, "v", 12000], "trial": 3, "serialpos": 0, "trial_type": "single-stim", "trial_index": 117, "time_elapsed": 1638246, "internal_node_id": "0.0-81.0"}}, {"uniqueid": "MTK0699:3LWJHTCVCDTJ1151TEC4E8YRKQDQF3", "current_trial": 118, "dateTime": 1512609234776, "trialdata": {"rt": -1, "stimulus": "<p id=\"stim\">JURY</p>", "key_press": -1, "type": "PRES_VIS", "word": "jury", "wordID": 765, "conditions": [12, 800, "v", 12000], "trial": 3, "serialpos": 1, "trial_type": "single-stim", "trial_index": 118, "time_elapsed": 1639915, "internal_node_id": "0.0-82.0"}}, {"uniqueid": "MTK0699:3LWJHTCVCDTJ1151TEC4E8YRKQDQF3", "current_trial": 119, "dateTime": 1512609236732, "trialdata": {"rt": -1, "stimulus": "<p id=\"stim\">JUDGE</p>", "key_press": -1, "type": "PRES_VIS", "word": "judge", "wordID": 760, "conditions": [12, 800, "v", 12000], "trial": 3, "serialpos": 2, "trial_type": "single-stim", "trial_index": 119, "time_elapsed": 1641871, "internal_node_id": "0.0-83.0"}}, {"uniqueid": "MTK0699:3LWJHTCVCDTJ1151TEC4E8YRKQDQF3", "current_trial": 120, "dateTime": 1512609238473, "trialdata": {"rt": -1, "stimulus": "<p id=\"stim\">COOK</p>", "key_press": -1, "type": "PRES_VIS", "word": "cook", "wordID": 371, "conditions": [12, 800, "v", 12000], "trial": 3, "serialpos": 3, "trial_type": "single-stim", "trial_index": 120, "time_elapsed": 1643612, "internal_node_id": "0.0-84.0"}}, {"uniqueid": "MTK0699:3LWJHTCVCDTJ1151TEC4E8YRKQDQF3", "current_trial": 121, "dateTime": 1512609240405, "trialdata": {"rt": -1, "stimulus": "<p id=\"stim\">POLICE</p>", "key_press": -1, "type": "PRES_VIS", "word": "police", "wordID": 1097, "conditions": [12, 800, "v", 12000], "trial": 3, "serialpos": 4, "trial_type": "single-stim", "trial_index": 121, "time_elapsed": 1645544, "internal_node_id": "0.0-85.0"}}, {"uniqueid": "MTK0699:3LWJHTCVCDTJ1151TEC4E8YRKQDQF3", "current_trial": 122, "dateTime": 1512609242208, "trialdata": {"rt": -1, "stimulus": "<p id=\"stim\">YARN</p>", "key_press": -1, "type": "PRES_VIS", "word": "yarn", "wordID": 1630, "conditions": [12, 800, "v", 12000], "trial": 3, "serialpos": 5, "trial_type": "single-stim", "trial_index": 122, "time_elapsed": 1647347, "internal_node_id": "0.0-86.0"}}, {"uniqueid": "MTK0699:3LWJHTCVCDTJ1151TEC4E8YRKQDQF3", "current_trial": 123, "dateTime": 1512609243841, "trialdata": {"rt": -1, "stimulus": "<p id=\"stim\">HAND</p>", "key_press": -1, "type": "PRES_VIS", "word": "hand", "wordID": 682, "conditions": [12, 800, "v", 12000], "trial": 3, "serialpos": 6, "trial_type": "single-stim", "trial_index": 123, "time_elapsed": 1648980, "internal_node_id": "0.0-87.0"}}, {"uniqueid": "MTK0699:3LWJHTCVCDTJ1151TEC4E8YRKQDQF3", "current_trial": 124, "dateTime": 1512609245490, "trialdata": {"rt": -1, "stimulus": "<p id=\"stim\">POCKET</p>", "key_press": -1, "type": "PRES_VIS", "word": "pocket", "wordID": 1092, "conditions": [12, 800, "v", 12000], "trial": 3, "serialpos": 7, "trial_type": "single-stim", "trial_index": 124, "time_elapsed": 1650629, "internal_node_id": "0.0-88.0"}}, {"uniqueid": "MTK0699:3LWJHTCVCDTJ1151TEC4E8YRKQDQF3", "current_trial": 125, "dateTime": 1512609247238, "trialdata": {"rt": -1, "stimulus": "<p id=\"stim\">VICTIM</p>", "key_press": -1, "type": "PRES_VIS", "word": "victim", "wordID": 1561, "conditions": [12, 800, "v", 12000], "trial": 3, "serialpos": 8, "trial_type": "single-stim", "trial_index": 125, "time_elapsed": 1652377, "internal_node_id": "0.0-89.0"}}, {"uniqueid": "MTK0699:3LWJHTCVCDTJ1151TEC4E8YRKQDQF3", "current_trial": 126, "dateTime": 1512609248857, "trialdata": {"rt": -1, "stimulus": "<p id=\"stim\">ORCHID</p>", "key_press": -1, "type": "PRES_VIS", "word": "orchid", "wordID": 981, "conditions": [12, 800, "v", 12000], "trial": 3, "serialpos": 9, "trial_type": "single-stim", "trial_index": 126, "time_elapsed": 1653996, "internal_node_id": "0.0-90.0"}}, {"uniqueid": "MTK0699:3LWJHTCVCDTJ1151TEC4E8YRKQDQF3", "current_trial": 127, "dateTime": 1512609250755, "trialdata": {"rt": -1, "stimulus": "<p id=\"stim\">PADDING</p>", "key_press": -1, "type": "PRES_VIS", "word": "padding", "wordID": 998, "conditions": [12, 800, "v", 12000], "trial": 3, "serialpos": 10, "trial_type": "single-stim", "trial_index": 127, "time_elapsed": 1655894, "internal_node_id": "0.0-91.0"}}, {"uniqueid": "MTK0699:3LWJHTCVCDTJ1151TEC4E8YRKQDQF3", "current_trial": 128, "dateTime": 1512609252588, "trialdata": {"rt": -1, "stimulus": "<p id=\"stim\">DIME</p>", "key_press": -1, "type": "PRES_VIS", "word": "dime", "wordID": 465, "conditions": [12, 800, "v", 12000], "trial": 3, "serialpos": 11, "trial_type": "single-stim", "trial_index": 128, "time_elapsed": 1657727, "internal_node_id": "0.0-92.0"}}, {"uniqueid": "MTK0699:3LWJHTCVCDTJ1151TEC4E8YRKQDQF3", "current_trial": 129, "dateTime": 1512609254806, "trialdata": {"rt": -1, "stimulus": "", "key_press": -1, "type": "PRE_RECALL_DELAY", "trial_type": "single-stim", "trial_index": 129, "time_elapsed": 1659945, "internal_node_id": "0.0-93.0-0.0"}}, {"uniqueid": "MTK0699:3LWJHTCVCDTJ1151TEC4E8YRKQDQF3", "current_trial": 130, "dateTime": 1512609255307, "trialdata": {"rt": -1000, "stimulus": "/static/audio/400Hz.wav", "key_press": -1, "type": "PRE_RECALL_ALERT", "trial_type": "single-audio", "trial_index": 130, "time_elapsed": 1660446, "internal_node_id": "0.0-94.0"}}, {"uniqueid": "MTK0699:3LWJHTCVCDTJ1151TEC4E8YRKQDQF3", "current_trial": 131, "dateTime": 1512609315312, "trialdata": {"rt": [5955, 6646, 9662, 14234, 18058, 18662, 25128, 25790], "recwords": ["judge", "yarn", "jury", "police", "orchid", "", "hand", "cook"], "type": "FREE_RECALL", "conditions": [12, 800, "v", 12000], "trial": 3, "trial_type": "free-recall", "trial_index": 131, "time_elapsed": 1720450, "internal_node_id": "0.0-95.0-0.0"}}, {"uniqueid": "MTK0699:3LWJHTCVCDTJ1151TEC4E8YRKQDQF3", "current_trial": 132, "dateTime": 1512609327577, "trialdata": {"rt": 10264, "key_press": 69, "type": "INSTRUCTIONS", "trial_type": "text", "trial_index": 132, "time_elapsed": 1732716, "internal_node_id": "0.0-96.0"}}, {"uniqueid": "MTK0699:3LWJHTCVCDTJ1151TEC4E8YRKQDQF3", "current_trial": 133, "dateTime": 1512609341581, "trialdata": {"rt": [3989, 6895, 8659, 10449], "responses": ["20", "13", "14", "16"], "num1": [2, 3, 6, 4, 5], "num2": [9, 4, 5, 7, 7], "num3": [9, 6, 3, 5, 1], "type": "DISTRACTOR", "conditions": [12, 1600, "a", 12000], "trial": 4, "trial_type": "math-distractor", "trial_index": 133, "time_elapsed": 1746720, "internal_node_id": "0.0-97.0"}}, {"uniqueid": "MTK0699:3LWJHTCVCDTJ1151TEC4E8YRKQDQF3", "current_trial": 134, "dateTime": 1512609344583, "trialdata": {"rt": -1, "stimulus": "<p id=\"stim\">10</p>", "key_press": -1, "trial_type": "single-stim", "trial_index": 134, "time_elapsed": 1749722, "internal_node_id": "0.0-98.0-0.0"}}, {"uniqueid": "MTK0699:3LWJHTCVCDTJ1151TEC4E8YRKQDQF3", "current_trial": 135, "dateTime": 1512609345584, "trialdata": {"rt": -1, "stimulus": "<p id=\"stim\">9</p>", "key_press": -1, "trial_type": "single-stim", "trial_index": 135, "time_elapsed": 1750723, "internal_node_id": "0.0-98.0-1.0"}}, {"uniqueid": "MTK0699:3LWJHTCVCDTJ1151TEC4E8YRKQDQF3", "current_trial": 136, "dateTime": 1512609346585, "trialdata": {"rt": -1, "stimulus": "<p id=\"stim\">8</p>", "key_press": -1, "trial_type": "single-stim", "trial_index": 136, "time_elapsed": 1751724, "internal_node_id": "0.0-98.0-2.0"}}, {"uniqueid": "MTK0699:3LWJHTCVCDTJ1151TEC4E8YRKQDQF3", "current_trial": 137, "dateTime": 1512609347587, "trialdata": {"rt": -1, "stimulus": "<p id=\"stim\">7</p>", "key_press": -1, "trial_type": "single-stim", "trial_index": 137, "time_elapsed": 1752726, "internal_node_id": "0.0-98.0-3.0"}}, {"uniqueid": "MTK0699:3LWJHTCVCDTJ1151TEC4E8YRKQDQF3", "current_trial": 138, "dateTime": 1512609348589, "trialdata": {"rt": -1, "stimulus": "<p id=\"stim\">6</p>", "key_press": -1, "trial_type": "single-stim", "trial_index": 138, "time_elapsed": 1753728, "internal_node_id": "0.0-98.0-4.0"}}, {"uniqueid": "MTK0699:3LWJHTCVCDTJ1151TEC4E8YRKQDQF3", "current_trial": 139, "dateTime": 1512609349590, "trialdata": {"rt": -1, "stimulus": "<p id=\"stim\">5</p>", "key_press": -1, "trial_type": "single-stim", "trial_index": 139, "time_elapsed": 1754729, "internal_node_id": "0.0-98.0-5.0"}}, {"uniqueid": "MTK0699:3LWJHTCVCDTJ1151TEC4E8YRKQDQF3", "current_trial": 140, "dateTime": 1512609350592, "trialdata": {"rt": -1, "stimulus": "<p id=\"stim\">4</p>", "key_press": -1, "trial_type": "single-stim", "trial_index": 140, "time_elapsed": 1755731, "internal_node_id": "0.0-98.0-6.0"}}, {"uniqueid": "MTK0699:3LWJHTCVCDTJ1151TEC4E8YRKQDQF3", "current_trial": 141, "dateTime": 1512609351593, "trialdata": {"rt": -1, "stimulus": "<p id=\"stim\">3</p>", "key_press": -1, "trial_type": "single-stim", "trial_index": 141, "time_elapsed": 1756732, "internal_node_id": "0.0-98.0-7.0"}}, {"uniqueid": "MTK0699:3LWJHTCVCDTJ1151TEC4E8YRKQDQF3", "current_trial": 142, "dateTime": 1512609352594, "trialdata": {"rt": -1, "stimulus": "<p id=\"stim\">2</p>", "key_press": -1, "trial_type": "single-stim", "trial_index": 142, "time_elapsed": 1757733, "internal_node_id": "0.0-98.0-8.0"}}, {"uniqueid": "MTK0699:3LWJHTCVCDTJ1151TEC4E8YRKQDQF3", "current_trial": 143, "dateTime": 1512609353595, "trialdata": {"rt": -1, "stimulus": "<p id=\"stim\">1</p>", "key_press": -1, "trial_type": "single-stim", "trial_index": 143, "time_elapsed": 1758734, "internal_node_id": "0.0-98.0-9.0"}}, {"uniqueid": "MTK0699:3LWJHTCVCDTJ1151TEC4E8YRKQDQF3", "current_trial": 144, "dateTime": 1512609355096, "trialdata": {"rt": -1, "stimulus": "<p id=\"stim\">+</p>", "key_press": -1, "type": "FIXATION", "trial_type": "single-stim", "trial_index": 144, "time_elapsed": 1760235, "internal_node_id": "0.0-99.0-0.0"}}, {"uniqueid": "MTK0699:3LWJHTCVCDTJ1151TEC4E8YRKQDQF3", "current_trial": 145, "dateTime": 1512609357719, "trialdata": {"rt": -1000, "stimulus": "/static/audio/wordpool/CHIPMUNK.wav", "key_press": -1, "type": "PRES_AUD", "word": "chipmunk", "wordID": 303, "conditions": [12, 1600, "a", 12000], "trial": 4, "serialpos": 0, "trial_type": "single-audio", "trial_index": 145, "time_elapsed": 1762858, "internal_node_id": "0.0-100.0"}}, {"uniqueid": "MTK0699:3LWJHTCVCDTJ1151TEC4E8YRKQDQF3", "current_trial": 146, "dateTime": 1512609360242, "trialdata": {"rt": -1000, "stimulus": "/static/audio/wordpool/PARROT.wav", "key_press": -1, "type": "PRES_AUD", "word": "parrot", "wordID": 1014, "conditions": [12, 1600, "a", 12000], "trial": 4, "serialpos": 1, "trial_type": "single-audio", "trial_index": 146, "time_elapsed": 1765381, "internal_node_id": "0.0-101.0"}}, {"uniqueid": "MTK0699:3LWJHTCVCDTJ1151TEC4E8YRKQDQF3", "current_trial": 147, "dateTime": 1512609362954, "trialdata": {"rt": -1000, "stimulus": "/static/audio/wordpool/FOX.wav", "key_press": -1, "type": "PRES_AUD", "word": "fox", "wordID": 597, "conditions": [12, 1600, "a", 12000], "trial": 4, "serialpos": 2, "trial_type": "single-audio", "trial_index": 147, "time_elapsed": 1768093, "internal_node_id": "0.0-102.0"}}, {"uniqueid": "MTK0699:3LWJHTCVCDTJ1151TEC4E8YRKQDQF3", "current_trial": 148, "dateTime": 1512609365578, "trialdata": {"rt": -1000, "stimulus": "/static/audio/wordpool/RACKET.wav", "key_press": -1, "type": "PRES_AUD", "word": "racket", "wordID": 1154, "conditions": [12, 1600, "a", 12000], "trial": 4, "serialpos": 3, "trial_type": "single-audio", "trial_index": 148, "time_elapsed": 1770717, "internal_node_id": "0.0-103.0"}}, {"uniqueid": "MTK0699:3LWJHTCVCDTJ1151TEC4E8YRKQDQF3", "current_trial": 149, "dateTime": 1512609368170, "trialdata": {"rt": -1000, "stimulus": "/static/audio/wordpool/SMOG.wav", "key_press": -1, "type": "PRES_AUD", "word": "smog", "wordID": 1329, "conditions": [12, 1600, "a", 12000], "trial": 4, "serialpos": 4, "trial_type": "single-audio", "trial_index": 149, "time_elapsed": 1773309, "internal_node_id": "0.0-104.0"}}, {"uniqueid": "MTK0699:3LWJHTCVCDTJ1151TEC4E8YRKQDQF3", "current_trial": 150, "dateTime": 1512609370950, "trialdata": {"rt": -1000, "stimulus": "/static/audio/wordpool/SIDEWALK.wav", "key_press": -1, "type": "PRES_AUD", "word": "sidewalk", "wordID": 1302, "conditions": [12, 1600, "a", 12000], "trial": 4, "serialpos": 5, "trial_type": "single-audio", "trial_index": 150, "time_elapsed": 1776089, "internal_node_id": "0.0-105.0"}}, {"uniqueid": "MTK0699:3LWJHTCVCDTJ1151TEC4E8YRKQDQF3", "current_trial": 151, "dateTime": 1512609373666, "trialdata": {"rt": -1000, "stimulus": "/static/audio/wordpool/GARBAGE.wav", "key_press": -1, "type": "PRES_AUD", "word": "garbage", "wordID": 621, "conditions": [12, 1600, "a", 12000], "trial": 4, "serialpos": 6, "trial_type": "single-audio", "trial_index": 151, "time_elapsed": 1778805, "internal_node_id": "0.0-106.0"}}, {"uniqueid": "MTK0699:3LWJHTCVCDTJ1151TEC4E8YRKQDQF3", "current_trial": 152, "dateTime": 1512609376086, "trialdata": {"rt": -1000, "stimulus": "/static/audio/wordpool/PASSAGE.wav", "key_press": -1, "type": "PRES_AUD", "word": "passage", "wordID": 1018, "conditions": [12, 1600, "a", 12000], "trial": 4, "serialpos": 7, "trial_type": "single-audio", "trial_index": 152, "time_elapsed": 1781225, "internal_node_id": "0.0-107.0"}}, {"uniqueid": "MTK0699:3LWJHTCVCDTJ1151TEC4E8YRKQDQF3", "current_trial": 153, "dateTime": 1512609378857, "trialdata": {"rt": -1000, "stimulus": "/static/audio/wordpool/PLUTO.wav", "key_press": -1, "type": "PRES_AUD", "word": "pluto", "wordID": 1091, "conditions": [12, 1600, "a", 12000], "trial": 4, "serialpos": 8, "trial_type": "single-audio", "trial_index": 153, "time_elapsed": 1783996, "internal_node_id": "0.0-108.0"}}, {"uniqueid": "MTK0699:3LWJHTCVCDTJ1151TEC4E8YRKQDQF3", "current_trial": 154, "dateTime": 1512609381331, "trialdata": {"rt": -1000, "stimulus": "/static/audio/wordpool/BLOUSE.wav", "key_press": -1, "type": "PRES_AUD", "word": "blouse", "wordID": 138, "conditions": [12, 1600, "a", 12000], "trial": 4, "serialpos": 9, "trial_type": "single-audio", "trial_index": 154, "time_elapsed": 1786470, "internal_node_id": "0.0-109.0"}}, {"uniqueid": "MTK0699:3LWJHTCVCDTJ1151TEC4E8YRKQDQF3", "current_trial": 155, "dateTime": 1512609383888, "trialdata": {"rt": -1000, "stimulus": "/static/audio/wordpool/ROOSTER.wav", "key_press": -1, "type": "PRES_AUD", "word": "rooster", "wordID": 1208, "conditions": [12, 1600, "a", 12000], "trial": 4, "serialpos": 10, "trial_type": "single-audio", "trial_index": 155, "time_elapsed": 1789027, "internal_node_id": "0.0-110.0"}}, {"uniqueid": "MTK0699:3LWJHTCVCDTJ1151TEC4E8YRKQDQF3", "current_trial": 156, "dateTime": 1512609386386, "trialdata": {"rt": -1000, "stimulus": "/static/audio/wordpool/OZONE.wav", "key_press": -1, "type": "PRES_AUD", "word": "ozone", "wordID": 995, "conditions": [12, 1600, "a", 12000], "trial": 4, "serialpos": 11, "trial_type": "single-audio", "trial_index": 156, "time_elapsed": 1791525, "internal_node_id": "0.0-111.0"}}, {"uniqueid": "MTK0699:3LWJHTCVCDTJ1151TEC4E8YRKQDQF3", "current_trial": 157, "dateTime": 1512609387607, "trialdata": {"rt": -1, "stimulus": "", "key_press": -1, "type": "PRE_RECALL_DELAY", "trial_type": "single-stim", "trial_index": 157, "time_elapsed": 1792746, "internal_node_id": "0.0-112.0-0.0"}}, {"uniqueid": "MTK0699:3LWJHTCVCDTJ1151TEC4E8YRKQDQF3", "current_trial": 158, "dateTime": 1512609388108, "trialdata": {"rt": -1000, "stimulus": "/static/audio/400Hz.wav", "key_press": -1, "type": "PRE_RECALL_ALERT", "trial_type": "single-audio", "trial_index": 158, "time_elapsed": 1793247, "internal_node_id": "0.0-113.0"}}, {"uniqueid": "MTK0699:3LWJHTCVCDTJ1151TEC4E8YRKQDQF3", "current_trial": 159, "dateTime": 1512609448112, "trialdata": {"rt": [2042, 3623, 4438, 7114, 17502], "recwords": ["ozone", "chipmunk", "parrot", "geezer", "fox"], "type": "FREE_RECALL", "conditions": [12, 1600, "a", 12000], "trial": 4, "trial_type": "free-recall", "trial_index": 159, "time_elapsed": 1853249, "internal_node_id": "0.0-114.0-0.0"}}, {"uniqueid": "MTK0699:3LWJHTCVCDTJ1151TEC4E8YRKQDQF3", "current_trial": 160, "dateTime": 1512609462035, "trialdata": {"rt": 11923, "key_press": 70, "type": "INSTRUCTIONS", "trial_type": "text", "trial_index": 160, "time_elapsed": 1867174, "internal_node_id": "0.0-115.0"}}, {"uniqueid": "MTK0699:3LWJHTCVCDTJ1151TEC4E8YRKQDQF3", "current_trial": 161, "dateTime": 1512609488039, "trialdata": {"rt": [3362, 7747, 14600, 17069, 18656, 20659, 23663], "responses": ["16", "19", "15", "17", "12", "4", "14"], "num1": [3, 5, 4, 1, 2, 1, 6, 8], "num2": [9, 8, 2, 8, 8, 1, 5, 4], "num3": [4, 6, 9, 8, 2, 2, 3, 7], "type": "DISTRACTOR", "conditions": [24, 800, "v", 24000], "trial": 5, "trial_type": "math-distractor", "trial_index": 161, "time_elapsed": 1893178, "internal_node_id": "0.0-116.0"}}, {"uniqueid": "MTK0699:3LWJHTCVCDTJ1151TEC4E8YRKQDQF3", "current_trial": 162, "dateTime": 1512609491042, "trialdata": {"rt": -1, "stimulus": "<p id=\"stim\">10</p>", "key_press": -1, "trial_type": "single-stim", "trial_index": 162, "time_elapsed": 1896181, "internal_node_id": "0.0-117.0-0.0"}}, {"uniqueid": "MTK0699:3LWJHTCVCDTJ1151TEC4E8YRKQDQF3", "current_trial": 163, "dateTime": 1512609492043, "trialdata": {"rt": -1, "stimulus": "<p id=\"stim\">9</p>", "key_press": -1, "trial_type": "single-stim", "trial_index": 163, "time_elapsed": 1897182, "internal_node_id": "0.0-117.0-1.0"}}, {"uniqueid": "MTK0699:3LWJHTCVCDTJ1151TEC4E8YRKQDQF3", "current_trial": 164, "dateTime": 1512609493044, "trialdata": {"rt": -1, "stimulus": "<p id=\"stim\">8</p>", "key_press": -1, "trial_type": "single-stim", "trial_index": 164, "time_elapsed": 1898183, "internal_node_id": "0.0-117.0-2.0"}}, {"uniqueid": "MTK0699:3LWJHTCVCDTJ1151TEC4E8YRKQDQF3", "current_trial": 165, "dateTime": 1512609494045, "trialdata": {"rt": -1, "stimulus": "<p id=\"stim\">7</p>", "key_press": -1, "trial_type": "single-stim", "trial_index": 165, "time_elapsed": 1899184, "internal_node_id": "0.0-117.0-3.0"}}, {"uniqueid": "MTK0699:3LWJHTCVCDTJ1151TEC4E8YRKQDQF3", "current_trial": 166, "dateTime": 1512609495047, "trialdata": {"rt": -1, "stimulus": "<p id=\"stim\">6</p>", "key_press": -1, "trial_type": "single-stim", "trial_index": 166, "time_elapsed": 1900186, "internal_node_id": "0.0-117.0-4.0"}}, {"uniqueid": "MTK0699:3LWJHTCVCDTJ1151TEC4E8YRKQDQF3", "current_trial": 167, "dateTime": 1512609496049, "trialdata": {"rt": -1, "stimulus": "<p id=\"stim\">5</p>", "key_press": -1, "trial_type": "single-stim", "trial_index": 167, "time_elapsed": 1901188, "internal_node_id": "0.0-117.0-5.0"}}, {"uniqueid": "MTK0699:3LWJHTCVCDTJ1151TEC4E8YRKQDQF3", "current_trial": 168, "dateTime": 1512609497051, "trialdata": {"rt": -1, "stimulus": "<p id=\"stim\">4</p>", "key_press": -1, "trial_type": "single-stim", "trial_index": 168, "time_elapsed": 1902190, "internal_node_id": "0.0-117.0-6.0"}}, {"uniqueid": "MTK0699:3LWJHTCVCDTJ1151TEC4E8YRKQDQF3", "current_trial": 169, "dateTime": 1512609498053, "trialdata": {"rt": -1, "stimulus": "<p id=\"stim\">3</p>", "key_press": -1, "trial_type": "single-stim", "trial_index": 169, "time_elapsed": 1903192, "internal_node_id": "0.0-117.0-7.0"}}, {"uniqueid": "MTK0699:3LWJHTCVCDTJ1151TEC4E8YRKQDQF3", "current_trial": 170, "dateTime": 1512609499055, "trialdata": {"rt": -1, "stimulus": "<p id=\"stim\">2</p>", "key_press": -1, "trial_type": "single-stim", "trial_index": 170, "time_elapsed": 1904193, "internal_node_id": "0.0-117.0-8.0"}}, {"uniqueid": "MTK0699:3LWJHTCVCDTJ1151TEC4E8YRKQDQF3", "current_trial": 171, "dateTime": 1512609500056, "trialdata": {"rt": -1, "stimulus": "<p id=\"stim\">1</p>", "key_press": -1, "trial_type": "single-stim", "trial_index": 171, "time_elapsed": 1905195, "internal_node_id": "0.0-117.0-9.0"}}, {"uniqueid": "MTK0699:3LWJHTCVCDTJ1151TEC4E8YRKQDQF3", "current_trial": 172, "dateTime": 1512609501557, "trialdata": {"rt": -1, "stimulus": "<p id=\"stim\">+</p>", "key_press": -1, "type": "FIXATION", "trial_type": "single-stim", "trial_index": 172, "time_elapsed": 1906696, "internal_node_id": "0.0-118.0-0.0"}}, {"uniqueid": "MTK0699:3LWJHTCVCDTJ1151TEC4E8YRKQDQF3", "current_trial": 173, "dateTime": 1512609502359, "trialdata": {"rt": -1, "stimulus": "<p id=\"stim\">LAGOON</p>", "key_press": -1, "type": "PRES_VIS", "word": "lagoon", "wordID": 794, "conditions": [24, 800, "v", 24000], "trial": 5, "serialpos": 0, "trial_type": "single-stim", "trial_index": 173, "time_elapsed": 1907497, "internal_node_id": "0.0-119.0"}}, {"uniqueid": "MTK0699:3LWJHTCVCDTJ1151TEC4E8YRKQDQF3", "current_trial": 174, "dateTime": 1512609503988, "trialdata": {"rt": -1, "stimulus": "<p id=\"stim\">SCARECROW</p>", "key_press": -1, "type": "PRES_VIS", "word": "scarecrow", "wordID": 1244, "conditions": [24, 800, "v", 24000], "trial": 5, "serialpos": 1, "trial_type": "single-stim", "trial_index": 174, "time_elapsed": 1909127, "internal_node_id": "0.0-120.0"}}, {"uniqueid": "MTK0699:3LWJHTCVCDTJ1151TEC4E8YRKQDQF3", "current_trial": 175, "dateTime": 1512609505974, "trialdata": {"rt": -1, "stimulus": "<p id=\"stim\">CREATURE</p>", "key_press": -1, "type": "PRES_VIS", "word": "creature", "wordID": 402, "conditions": [24, 800, "v", 24000], "trial": 5, "serialpos": 2, "trial_type": "single-stim", "trial_index": 175, "time_elapsed": 1911113, "internal_node_id": "0.0-121.0"}}, {"uniqueid": "MTK0699:3LWJHTCVCDTJ1151TEC4E8YRKQDQF3", "current_trial": 176, "dateTime": 1512609507770, "trialdata": {"rt": -1, "stimulus": "<p id=\"stim\">GOBLIN</p>", "key_press": -1, "type": "PRES_VIS", "word": "goblin", "wordID": 644, "conditions": [24, 800, "v", 24000], "trial": 5, "serialpos": 3, "trial_type": "single-stim", "trial_index": 176, "time_elapsed": 1912909, "internal_node_id": "0.0-122.0"}}, {"uniqueid": "MTK0699:3LWJHTCVCDTJ1151TEC4E8YRKQDQF3", "current_trial": 177, "dateTime": 1512609509489, "trialdata": {"rt": -1, "stimulus": "<p id=\"stim\">CURTAIN</p>", "key_press": -1, "type": "PRES_VIS", "word": "curtain", "wordID": 426, "conditions": [24, 800, "v", 24000], "trial": 5, "serialpos": 4, "trial_type": "single-stim", "trial_index": 177, "time_elapsed": 1914628, "internal_node_id": "0.0-123.0"}}, {"uniqueid": "MTK0699:3LWJHTCVCDTJ1151TEC4E8YRKQDQF3", "current_trial": 178, "dateTime": 1512609511123, "trialdata": {"rt": -1, "stimulus": "<p id=\"stim\">PORTRAIT</p>", "key_press": -1, "type": "PRES_VIS", "word": "portrait", "wordID": 1110, "conditions": [24, 800, "v", 24000], "trial": 5, "serialpos": 5, "trial_type": "single-stim", "trial_index": 178, "time_elapsed": 1916262, "internal_node_id": "0.0-124.0"}}, {"uniqueid": "MTK0699:3LWJHTCVCDTJ1151TEC4E8YRKQDQF3", "current_trial": 179, "dateTime": 1512609513085, "trialdata": {"rt": -1, "stimulus": "<p id=\"stim\">CATTLE</p>", "key_press": -1, "type": "PRES_VIS", "word": "cattle", "wordID": 260, "conditions": [24, 800, "v", 24000], "trial": 5, "serialpos": 6, "trial_type": "single-stim", "trial_index": 179, "time_elapsed": 1918223, "internal_node_id": "0.0-125.0"}}, {"uniqueid": "MTK0699:3LWJHTCVCDTJ1151TEC4E8YRKQDQF3", "current_trial": 180, "dateTime": 1512609514881, "trialdata": {"rt": -1, "stimulus": "<p id=\"stim\">DOLPHIN</p>", "key_press": -1, "type": "PRES_VIS", "word": "dolphin", "wordID": 482, "conditions": [24, 800, "v", 24000], "trial": 5, "serialpos": 7, "trial_type": "single-stim", "trial_index": 180, "time_elapsed": 1920020, "internal_node_id": "0.0-126.0"}}, {"uniqueid": "MTK0699:3LWJHTCVCDTJ1151TEC4E8YRKQDQF3", "current_trial": 181, "dateTime": 1512609516590, "trialdata": {"rt": -1, "stimulus": "<p id=\"stim\">SEAFOOD</p>", "key_press": -1, "type": "PRES_VIS", "word": "seafood", "wordID": 1259, "conditions": [24, 800, "v", 24000], "trial": 5, "serialpos": 8, "trial_type": "single-stim", "trial_index": 181, "time_elapsed": 1921729, "internal_node_id": "0.0-127.0"}}, {"uniqueid": "MTK0699:3LWJHTCVCDTJ1151TEC4E8YRKQDQF3", "current_trial": 182, "dateTime": 1512609518552, "trialdata": {"rt": -1, "stimulus": "<p id=\"stim\">MARSH</p>", "key_press": -1, "type": "PRES_VIS", "word": "marsh", "wordID": 873, "conditions": [24, 800, "v", 24000], "trial": 5, "serialpos": 9, "trial_type": "single-stim", "trial_index": 182, "time_elapsed": 1923691, "internal_node_id": "0.0-128.0"}}, {"uniqueid": "MTK0699:3LWJHTCVCDTJ1151TEC4E8YRKQDQF3", "current_trial": 183, "dateTime": 1512609520276, "trialdata": {"rt": -1, "stimulus": "<p id=\"stim\">CLAM</p>", "key_press": -1, "type": "PRES_VIS", "word": "clam", "wordID": 314, "conditions": [24, 800, "v", 24000], "trial": 5, "serialpos": 10, "trial_type": "single-stim", "trial_index": 183, "time_elapsed": 1925415, "internal_node_id": "0.0-129.0"}}, {"uniqueid": "MTK0699:3LWJHTCVCDTJ1151TEC4E8YRKQDQF3", "current_trial": 184, "dateTime": 1512609522198, "trialdata": {"rt": -1, "stimulus": "<p id=\"stim\">OYSTER</p>", "key_press": -1, "type": "PRES_VIS", "word": "oyster", "wordID": 994, "conditions": [24, 800, "v", 24000], "trial": 5, "serialpos": 11, "trial_type": "single-stim", "trial_index": 184, "time_elapsed": 1927337, "internal_node_id": "0.0-130.0"}}, {"uniqueid": "MTK0699:3LWJHTCVCDTJ1151TEC4E8YRKQDQF3", "current_trial": 185, "dateTime": 1512609523814, "trialdata": {"rt": -1, "stimulus": "<p id=\"stim\">COD</p>", "key_press": -1, "type": "PRES_VIS", "word": "cod", "wordID": 339, "conditions": [24, 800, "v", 24000], "trial": 5, "serialpos": 12, "trial_type": "single-stim", "trial_index": 185, "time_elapsed": 1928952, "internal_node_id": "0.0-131.0"}}, {"uniqueid": "MTK0699:3LWJHTCVCDTJ1151TEC4E8YRKQDQF3", "current_trial": 186, "dateTime": 1512609525785, "trialdata": {"rt": -1, "stimulus": "<p id=\"stim\">LONDON</p>", "key_press": -1, "type": "PRES_VIS", "word": "london", "wordID": 842, "conditions": [24, 800, "v", 24000], "trial": 5, "serialpos": 13, "trial_type": "single-stim", "trial_index": 186, "time_elapsed": 1930924, "internal_node_id": "0.0-132.0"}}, {"uniqueid": "MTK0699:3LWJHTCVCDTJ1151TEC4E8YRKQDQF3", "current_trial": 187, "dateTime": 1512609527448, "trialdata": {"rt": -1, "stimulus": "<p id=\"stim\">PICNIC</p>", "key_press": -1, "type": "PRES_VIS", "word": "picnic", "wordID": 1059, "conditions": [24, 800, "v", 24000], "trial": 5, "serialpos": 14, "trial_type": "single-stim", "trial_index": 187, "time_elapsed": 1932587, "internal_node_id": "0.0-133.0"}}, {"uniqueid": "MTK0699:3LWJHTCVCDTJ1151TEC4E8YRKQDQF3", "current_trial": 188, "dateTime": 1512609529223, "trialdata": {"rt": -1, "stimulus": "<p id=\"stim\">SUPPER</p>", "key_press": -1, "type": "PRES_VIS", "word": "supper", "wordID": 1410, "conditions": [24, 800, "v", 24000], "trial": 5, "serialpos": 15, "trial_type": "single-stim", "trial_index": 188, "time_elapsed": 1934362, "internal_node_id": "0.0-134.0"}}, {"uniqueid": "MTK0699:3LWJHTCVCDTJ1151TEC4E8YRKQDQF3", "current_trial": 189, "dateTime": 1512609531082, "trialdata": {"rt": -1, "stimulus": "<p id=\"stim\">CRAB</p>", "key_press": -1, "type": "PRES_VIS", "word": "crab", "wordID": 396, "conditions": [24, 800, "v", 24000], "trial": 5, "serialpos": 16, "trial_type": "single-stim", "trial_index": 189, "time_elapsed": 1936221, "internal_node_id": "0.0-135.0"}}, {"uniqueid": "MTK0699:3LWJHTCVCDTJ1151TEC4E8YRKQDQF3", "current_trial": 190, "dateTime": 1512609532988, "trialdata": {"rt": -1, "stimulus": "<p id=\"stim\">GRAPE</p>", "key_press": -1, "type": "PRES_VIS", "word": "grape", "wordID": 653, "conditions": [24, 800, "v", 24000], "trial": 5, "serialpos": 17, "trial_type": "single-stim", "trial_index": 190, "time_elapsed": 1938127, "internal_node_id": "0.0-136.0"}}, {"uniqueid": "MTK0699:3LWJHTCVCDTJ1151TEC4E8YRKQDQF3", "current_trial": 191, "dateTime": 1512609534792, "trialdata": {"rt": -1, "stimulus": "<p id=\"stim\">PISTON</p>", "key_press": -1, "type": "PRES_VIS", "word": "piston", "wordID": 1075, "conditions": [24, 800, "v", 24000], "trial": 5, "serialpos": 18, "trial_type": "single-stim", "trial_index": 191, "time_elapsed": 1939931, "internal_node_id": "0.0-137.0"}}, {"uniqueid": "MTK0699:3LWJHTCVCDTJ1151TEC4E8YRKQDQF3", "current_trial": 192, "dateTime": 1512609536525, "trialdata": {"rt": -1, "stimulus": "<p id=\"stim\">SUBWAY</p>", "key_press": -1, "type": "PRES_VIS", "word": "subway", "wordID": 1399, "conditions": [24, 800, "v", 24000], "trial": 5, "serialpos": 19, "trial_type": "single-stim", "trial_index": 192, "time_elapsed": 1941664, "internal_node_id": "0.0-138.0"}}, {"uniqueid": "MTK0699:3LWJHTCVCDTJ1151TEC4E8YRKQDQF3", "current_trial": 193, "dateTime": 1512609538355, "trialdata": {"rt": -1, "stimulus": "<p id=\"stim\">BALLOON</p>", "key_press": -1, "type": "PRES_VIS", "word": "balloon", "wordID": 74, "conditions": [24, 800, "v", 24000], "trial": 5, "serialpos": 20, "trial_type": "single-stim", "trial_index": 193, "time_elapsed": 1943494, "internal_node_id": "0.0-139.0"}}, {"uniqueid": "MTK0699:3LWJHTCVCDTJ1151TEC4E8YRKQDQF3", "current_trial": 194, "dateTime": 1512609539959, "trialdata": {"rt": -1, "stimulus": "<p id=\"stim\">LILY</p>", "key_press": -1, "type": "PRES_VIS", "word": "lily", "wordID": 820, "conditions": [24, 800, "v", 24000], "trial": 5, "serialpos": 21, "trial_type": "single-stim", "trial_index": 194, "time_elapsed": 1945098, "internal_node_id": "0.0-140.0"}}, {"uniqueid": "MTK0699:3LWJHTCVCDTJ1151TEC4E8YRKQDQF3", "current_trial": 195, "dateTime": 1512609541641, "trialdata": {"rt": -1, "stimulus": "<p id=\"stim\">SALT</p>", "key_press": -1, "type": "PRES_VIS", "word": "salt", "wordID": 1228, "conditions": [24, 800, "v", 24000], "trial": 5, "serialpos": 22, "trial_type": "single-stim", "trial_index": 195, "time_elapsed": 1946780, "internal_node_id": "0.0-141.0"}}, {"uniqueid": "MTK0699:3LWJHTCVCDTJ1151TEC4E8YRKQDQF3", "current_trial": 196, "dateTime": 1512609543412, "trialdata": {"rt": -1, "stimulus": "<p id=\"stim\">CONCERT</p>", "key_press": -1, "type": "PRES_VIS", "word": "concert", "wordID": 359, "conditions": [24, 800, "v", 24000], "trial": 5, "serialpos": 23, "trial_type": "single-stim", "trial_index": 196, "time_elapsed": 1948551, "internal_node_id": "0.0-142.0"}}, {"uniqueid": "MTK0699:3LWJHTCVCDTJ1151TEC4E8YRKQDQF3", "current_trial": 197, "dateTime": 1512609545560, "trialdata": {"rt": -1, "stimulus": "", "key_press": -1, "type": "PRE_RECALL_DELAY", "trial_type": "single-stim", "trial_index": 197, "time_elapsed": 1950699, "internal_node_id": "0.0-143.0-0.0"}}, {"uniqueid": "MTK0699:3LWJHTCVCDTJ1151TEC4E8YRKQDQF3", "current_trial": 198, "dateTime": 1512609546061, "trialdata": {"rt": -1000, "stimulus": "/static/audio/400Hz.wav", "key_press": -1, "type": "PRE_RECALL_ALERT", "trial_type": "single-audio", "trial_index": 198, "time_elapsed": 1951200, "internal_node_id": "0.0-144.0"}}, {"uniqueid": "MTK0699:3LWJHTCVCDTJ1151TEC4E8YRKQDQF3", "current_trial": 199, "dateTime": 1512609606646, "trialdata": {"rt": [2744, 3447, 4595, 5637, 7633, 8495], "recwords": ["concert", "lily", "cod", "oyster", "lagoon", "marsh"], "type": "FREE_RECALL", "conditions": [24, 800, "v", 24000], "trial": 5, "trial_type": "free-recall", "trial_index": 199, "time_elapsed": 2011773, "internal_node_id": "0.0-145.0-0.0"}}, {"uniqueid": "MTK0699:3LWJHTCVCDTJ1151TEC4E8YRKQDQF3", "current_trial": 200, "dateTime": 1512609658325, "trialdata": {"rt": 48692, "key_press": 87, "type": "INSTRUCTIONS", "trial_type": "text", "trial_index": 200, "time_elapsed": 2063464, "internal_node_id": "0.0-146.0"}}, {"uniqueid": "MTK0699:3LWJHTCVCDTJ1151TEC4E8YRKQDQF3", "current_trial": 201, "dateTime": 1512609672328, "trialdata": {"rt": [1794, 3668, 5631, 7011, 8557, 10796], "responses": ["10", "17", "16", "13", "16", "16"], "num1": [2, 7, 7, 6, 5, 5, 9], "num2": [7, 9, 5, 4, 6, 6, 9], "num3": [1, 1, 4, 3, 5, 5, 9], "type": "DISTRACTOR", "conditions": [24, 800, "v", 12000], "trial": 6, "trial_type": "math-distractor", "trial_index": 201, "time_elapsed": 2077467, "internal_node_id": "0.0-147.0"}}, {"uniqueid": "MTK0699:3LWJHTCVCDTJ1151TEC4E8YRKQDQF3", "current_trial": 202, "dateTime": 1512609675330, "trialdata": {"rt": -1, "stimulus": "<p id=\"stim\">10</p>", "key_press": -1, "trial_type": "single-stim", "trial_index": 202, "time_elapsed": 2080469, "internal_node_id": "0.0-148.0-0.0"}}, {"uniqueid": "MTK0699:3LWJHTCVCDTJ1151TEC4E8YRKQDQF3", "current_trial": 203, "dateTime": 1512609676331, "trialdata": {"rt": -1, "stimulus": "<p id=\"stim\">9</p>", "key_press": -1, "trial_type": "single-stim", "trial_index": 203, "time_elapsed": 2081470, "internal_node_id": "0.0-148.0-1.0"}}, {"uniqueid": "MTK0699:3LWJHTCVCDTJ1151TEC4E8YRKQDQF3", "current_trial": 204, "dateTime": 1512609677332, "trialdata": {"rt": -1, "stimulus": "<p id=\"stim\">8</p>", "key_press": -1, "trial_type": "single-stim", "trial_index": 204, "time_elapsed": 2082471, "internal_node_id": "0.0-148.0-2.0"}}, {"uniqueid": "MTK0699:3LWJHTCVCDTJ1151TEC4E8YRKQDQF3", "current_trial": 205, "dateTime": 1512609678333, "trialdata": {"rt": -1, "stimulus": "<p id=\"stim\">7</p>", "key_press": -1, "trial_type": "single-stim", "trial_index": 205, "time_elapsed": 2083472, "internal_node_id": "0.0-148.0-3.0"}}, {"uniqueid": "MTK0699:3LWJHTCVCDTJ1151TEC4E8YRKQDQF3", "current_trial": 206, "dateTime": 1512609679335, "trialdata": {"rt": -1, "stimulus": "<p id=\"stim\">6</p>", "key_press": -1, "trial_type": "single-stim", "trial_index": 206, "time_elapsed": 2084473, "internal_node_id": "0.0-148.0-4.0"}}, {"uniqueid": "MTK0699:3LWJHTCVCDTJ1151TEC4E8YRKQDQF3", "current_trial": 207, "dateTime": 1512609680336, "trialdata": {"rt": -1, "stimulus": "<p id=\"stim\">5</p>", "key_press": -1, "trial_type": "single-stim", "trial_index": 207, "time_elapsed": 2085475, "internal_node_id": "0.0-148.0-5.0"}}, {"uniqueid": "MTK0699:3LWJHTCVCDTJ1151TEC4E8YRKQDQF3", "current_trial": 208, "dateTime": 1512609681337, "trialdata": {"rt": -1, "stimulus": "<p id=\"stim\">4</p>", "key_press": -1, "trial_type": "single-stim", "trial_index": 208, "time_elapsed": 2086476, "internal_node_id": "0.0-148.0-6.0"}}, {"uniqueid": "MTK0699:3LWJHTCVCDTJ1151TEC4E8YRKQDQF3", "current_trial": 209, "dateTime": 1512609682339, "trialdata": {"rt": -1, "stimulus": "<p id=\"stim\">3</p>", "key_press": -1, "trial_type": "single-stim", "trial_index": 209, "time_elapsed": 2087478, "internal_node_id": "0.0-148.0-7.0"}}, {"uniqueid": "MTK0699:3LWJHTCVCDTJ1151TEC4E8YRKQDQF3", "current_trial": 210, "dateTime": 1512609683340, "trialdata": {"rt": -1, "stimulus": "<p id=\"stim\">2</p>", "key_press": -1, "trial_type": "single-stim", "trial_index": 210, "time_elapsed": 2088479, "internal_node_id": "0.0-148.0-8.0"}}, {"uniqueid": "MTK0699:3LWJHTCVCDTJ1151TEC4E8YRKQDQF3", "current_trial": 211, "dateTime": 1512609684341, "trialdata": {"rt": -1, "stimulus": "<p id=\"stim\">1</p>", "key_press": -1, "trial_type": "single-stim", "trial_index": 211, "time_elapsed": 2089480, "internal_node_id": "0.0-148.0-9.0"}}, {"uniqueid": "MTK0699:3LWJHTCVCDTJ1151TEC4E8YRKQDQF3", "current_trial": 212, "dateTime": 1512609685842, "trialdata": {"rt": -1, "stimulus": "<p id=\"stim\">+</p>", "key_press": -1, "type": "FIXATION", "trial_type": "single-stim", "trial_index": 212, "time_elapsed": 2090981, "internal_node_id": "0.0-149.0-0.0"}}, {"uniqueid": "MTK0699:3LWJHTCVCDTJ1151TEC4E8YRKQDQF3", "current_trial": 213, "dateTime": 1512609686644, "trialdata": {"rt": -1, "stimulus": "<p id=\"stim\">SCARF</p>", "key_press": -1, "type": "PRES_VIS", "word": "scarf", "wordID": 1245, "conditions": [24, 800, "v", 12000], "trial": 6, "serialpos": 0, "trial_type": "single-stim", "trial_index": 213, "time_elapsed": 2091783, "internal_node_id": "0.0-150.0"}}, {"uniqueid": "MTK0699:3LWJHTCVCDTJ1151TEC4E8YRKQDQF3", "current_trial": 214, "dateTime": 1512609688337, "trialdata": {"rt": -1, "stimulus": "<p id=\"stim\">POET</p>", "key_press": -1, "type": "PRES_VIS", "word": "poet", "wordID": 1094, "conditions": [24, 800, "v", 12000], "trial": 6, "serialpos": 1, "trial_type": "single-stim", "trial_index": 214, "time_elapsed": 2093476, "internal_node_id": "0.0-151.0"}}, {"uniqueid": "MTK0699:3LWJHTCVCDTJ1151TEC4E8YRKQDQF3", "current_trial": 215, "dateTime": 1512609690258, "trialdata": {"rt": -1, "stimulus": "<p id=\"stim\">ACTOR</p>", "key_press": -1, "type": "PRES_VIS", "word": "actor", "wordID": 4, "conditions": [24, 800, "v", 12000], "trial": 6, "serialpos": 2, "trial_type": "single-stim", "trial_index": 215, "time_elapsed": 2095397, "internal_node_id": "0.0-152.0"}}, {"uniqueid": "MTK0699:3LWJHTCVCDTJ1151TEC4E8YRKQDQF3", "current_trial": 216, "dateTime": 1512609691888, "trialdata": {"rt": -1, "stimulus": "<p id=\"stim\">HEART</p>", "key_press": -1, "type": "PRES_VIS", "word": "heart", "wordID": 696, "conditions": [24, 800, "v", 12000], "trial": 6, "serialpos": 3, "trial_type": "single-stim", "trial_index": 216, "time_elapsed": 2097027, "internal_node_id": "0.0-153.0"}}, {"uniqueid": "MTK0699:3LWJHTCVCDTJ1151TEC4E8YRKQDQF3", "current_trial": 217, "dateTime": 1512609693564, "trialdata": {"rt": -1, "stimulus": "<p id=\"stim\">HANDBAG</p>", "key_press": -1, "type": "PRES_VIS", "word": "handbag", "wordID": 683, "conditions": [24, 800, "v", 12000], "trial": 6, "serialpos": 4, "trial_type": "single-stim", "trial_index": 217, "time_elapsed": 2098703, "internal_node_id": "0.0-154.0"}}, {"uniqueid": "MTK0699:3LWJHTCVCDTJ1151TEC4E8YRKQDQF3", "current_trial": 218, "dateTime": 1512609695290, "trialdata": {"rt": -1, "stimulus": "<p id=\"stim\">NECKLACE</p>", "key_press": -1, "type": "PRES_VIS", "word": "necklace", "wordID": 939, "conditions": [24, 800, "v", 12000], "trial": 6, "serialpos": 5, "trial_type": "single-stim", "trial_index": 218, "time_elapsed": 2100429, "internal_node_id": "0.0-155.0"}}, {"uniqueid": "MTK0699:3LWJHTCVCDTJ1151TEC4E8YRKQDQF3", "current_trial": 219, "dateTime": 1512609697153, "trialdata": {"rt": -1, "stimulus": "<p id=\"stim\">BUCKET</p>", "key_press": -1, "type": "PRES_VIS", "word": "bucket", "wordID": 183, "conditions": [24, 800, "v", 12000], "trial": 6, "serialpos": 6, "trial_type": "single-stim", "trial_index": 219, "time_elapsed": 2102292, "internal_node_id": "0.0-156.0"}}, {"uniqueid": "MTK0699:3LWJHTCVCDTJ1151TEC4E8YRKQDQF3", "current_trial": 220, "dateTime": 1512609698813, "trialdata": {"rt": -1, "stimulus": "<p id=\"stim\">SERVER</p>", "key_press": -1, "type": "PRES_VIS", "word": "server", "wordID": 1271, "conditions": [24, 800, "v", 12000], "trial": 6, "serialpos": 7, "trial_type": "single-stim", "trial_index": 220, "time_elapsed": 2103952, "internal_node_id": "0.0-157.0"}}, {"uniqueid": "MTK0699:3LWJHTCVCDTJ1151TEC4E8YRKQDQF3", "current_trial": 221, "dateTime": 1512609700775, "trialdata": {"rt": -1, "stimulus": "<p id=\"stim\">MAILMAN</p>", "key_press": -1, "type": "PRES_VIS", "word": "mailman", "wordID": 857, "conditions": [24, 800, "v", 12000], "trial": 6, "serialpos": 8, "trial_type": "single-stim", "trial_index": 221, "time_elapsed": 2105914, "internal_node_id": "0.0-158.0"}}, {"uniqueid": "MTK0699:3LWJHTCVCDTJ1151TEC4E8YRKQDQF3", "current_trial": 222, "dateTime": 1512609702546, "trialdata": {"rt": -1, "stimulus": "<p id=\"stim\">BASEMENT</p>", "key_press": -1, "type": "PRES_VIS", "word": "basement", "wordID": 93, "conditions": [24, 800, "v", 12000], "trial": 6, "serialpos": 9, "trial_type": "single-stim", "trial_index": 222, "time_elapsed": 2107685, "internal_node_id": "0.0-159.0"}}, {"uniqueid": "MTK0699:3LWJHTCVCDTJ1151TEC4E8YRKQDQF3", "current_trial": 223, "dateTime": 1512609704417, "trialdata": {"rt": -1, "stimulus": "<p id=\"stim\">PUPPY</p>", "key_press": -1, "type": "PRES_VIS", "word": "puppy", "wordID": 1143, "conditions": [24, 800, "v", 12000], "trial": 6, "serialpos": 10, "trial_type": "single-stim", "trial_index": 223, "time_elapsed": 2109556, "internal_node_id": "0.0-160.0"}}, {"uniqueid": "MTK0699:3LWJHTCVCDTJ1151TEC4E8YRKQDQF3", "current_trial": 224, "dateTime": 1512609706376, "trialdata": {"rt": -1, "stimulus": "<p id=\"stim\">SHIRT</p>", "key_press": -1, "type": "PRES_VIS", "word": "shirt", "wordID": 1286, "conditions": [24, 800, "v", 12000], "trial": 6, "serialpos": 11, "trial_type": "single-stim", "trial_index": 224, "time_elapsed": 2111514, "internal_node_id": "0.0-161.0"}}, {"uniqueid": "MTK0699:3LWJHTCVCDTJ1151TEC4E8YRKQDQF3", "current_trial": 225, "dateTime": 1512609708368, "trialdata": {"rt": -1, "stimulus": "<p id=\"stim\">NIGHTGOWN</p>", "key_press": -1, "type": "PRES_VIS", "word": "nightgown", "wordID": 952, "conditions": [24, 800, "v", 12000], "trial": 6, "serialpos": 12, "trial_type": "single-stim", "trial_index": 225, "time_elapsed": 2113507, "internal_node_id": "0.0-162.0"}}, {"uniqueid": "MTK0699:3LWJHTCVCDTJ1151TEC4E8YRKQDQF3", "current_trial": 226, "dateTime": 1512609710000, "trialdata": {"rt": -1, "stimulus": "<p id=\"stim\">SCOTCH</p>", "key_press": -1, "type": "PRES_VIS", "word": "scotch", "wordID": 1250, "conditions": [24, 800, "v", 12000], "trial": 6, "serialpos": 13, "trial_type": "single-stim", "trial_index": 226, "time_elapsed": 2115139, "internal_node_id": "0.0-163.0"}}, {"uniqueid": "MTK0699:3LWJHTCVCDTJ1151TEC4E8YRKQDQF3", "current_trial": 227, "dateTime": 1512609711698, "trialdata": {"rt": -1, "stimulus": "<p id=\"stim\">HOOK</p>", "key_press": -1, "type": "PRES_VIS", "word": "hook", "wordID": 714, "conditions": [24, 800, "v", 12000], "trial": 6, "serialpos": 14, "trial_type": "single-stim", "trial_index": 227, "time_elapsed": 2116837, "internal_node_id": "0.0-164.0"}}, {"uniqueid": "MTK0699:3LWJHTCVCDTJ1151TEC4E8YRKQDQF3", "current_trial": 228, "dateTime": 1512609713474, "trialdata": {"rt": -1, "stimulus": "<p id=\"stim\">MOP</p>", "key_press": -1, "type": "PRES_VIS", "word": "mop", "wordID": 915, "conditions": [24, 800, "v", 12000], "trial": 6, "serialpos": 15, "trial_type": "single-stim", "trial_index": 228, "time_elapsed": 2118613, "internal_node_id": "0.0-165.0"}}, {"uniqueid": "MTK0699:3LWJHTCVCDTJ1151TEC4E8YRKQDQF3", "current_trial": 229, "dateTime": 1512609715461, "trialdata": {"rt": -1, "stimulus": "<p id=\"stim\">BACON</p>", "key_press": -1, "type": "PRES_VIS", "word": "bacon", "wordID": 66, "conditions": [24, 800, "v", 12000], "trial": 6, "serialpos": 16, "trial_type": "single-stim", "trial_index": 229, "time_elapsed": 2120600, "internal_node_id": "0.0-166.0"}}, {"uniqueid": "MTK0699:3LWJHTCVCDTJ1151TEC4E8YRKQDQF3", "current_trial": 230, "dateTime": 1512609717329, "trialdata": {"rt": -1, "stimulus": "<p id=\"stim\">BINDER</p>", "key_press": -1, "type": "PRES_VIS", "word": "binder", "wordID": 126, "conditions": [24, 800, "v", 12000], "trial": 6, "serialpos": 17, "trial_type": "single-stim", "trial_index": 230, "time_elapsed": 2122468, "internal_node_id": "0.0-167.0"}}, {"uniqueid": "MTK0699:3LWJHTCVCDTJ1151TEC4E8YRKQDQF3", "current_trial": 231, "dateTime": 1512609719314, "trialdata": {"rt": -1, "stimulus": "<p id=\"stim\">CLOTHES</p>", "key_press": -1, "type": "PRES_VIS", "word": "clothes", "wordID": 326, "conditions": [24, 800, "v", 12000], "trial": 6, "serialpos": 18, "trial_type": "single-stim", "trial_index": 231, "time_elapsed": 2124453, "internal_node_id": "0.0-168.0"}}, {"uniqueid": "MTK0699:3LWJHTCVCDTJ1151TEC4E8YRKQDQF3", "current_trial": 232, "dateTime": 1512609721060, "trialdata": {"rt": -1, "stimulus": "<p id=\"stim\">CYCLONE</p>", "key_press": -1, "type": "PRES_VIS", "word": "cyclone", "wordID": 430, "conditions": [24, 800, "v", 12000], "trial": 6, "serialpos": 19, "trial_type": "single-stim", "trial_index": 232, "time_elapsed": 2126199, "internal_node_id": "0.0-169.0"}}, {"uniqueid": "MTK0699:3LWJHTCVCDTJ1151TEC4E8YRKQDQF3", "current_trial": 233, "dateTime": 1512609723057, "trialdata": {"rt": -1, "stimulus": "<p id=\"stim\">COCOON</p>", "key_press": -1, "type": "PRES_VIS", "word": "cocoon", "wordID": 338, "conditions": [24, 800, "v", 12000], "trial": 6, "serialpos": 20, "trial_type": "single-stim", "trial_index": 233, "time_elapsed": 2128196, "internal_node_id": "0.0-170.0"}}, {"uniqueid": "MTK0699:3LWJHTCVCDTJ1151TEC4E8YRKQDQF3", "current_trial": 234, "dateTime": 1512609724726, "trialdata": {"rt": -1, "stimulus": "<p id=\"stim\">SWIMMER</p>", "key_press": -1, "type": "PRES_VIS", "word": "swimmer", "wordID": 1419, "conditions": [24, 800, "v", 12000], "trial": 6, "serialpos": 21, "trial_type": "single-stim", "trial_index": 234, "time_elapsed": 2129865, "internal_node_id": "0.0-171.0"}}, {"uniqueid": "MTK0699:3LWJHTCVCDTJ1151TEC4E8YRKQDQF3", "current_trial": 235, "dateTime": 1512609726612, "trialdata": {"rt": -1, "stimulus": "<p id=\"stim\">SCALPEL</p>", "key_press": -1, "type": "PRES_VIS", "word": "scalpel", "wordID": 1242, "conditions": [24, 800, "v", 12000], "trial": 6, "serialpos": 22, "trial_type": "single-stim", "trial_index": 235, "time_elapsed": 2131751, "internal_node_id": "0.0-172.0"}}, {"uniqueid": "MTK0699:3LWJHTCVCDTJ1151TEC4E8YRKQDQF3", "current_trial": 236, "dateTime": 1512609728368, "trialdata": {"rt": -1, "stimulus": "<p id=\"stim\">RAZOR</p>", "key_press": -1, "type": "PRES_VIS", "word": "razor", "wordID": 1170, "conditions": [24, 800, "v", 12000], "trial": 6, "serialpos": 23, "trial_type": "single-stim", "trial_index": 236, "time_elapsed": 2133507, "internal_node_id": "0.0-173.0"}}, {"uniqueid": "MTK0699:3LWJHTCVCDTJ1151TEC4E8YRKQDQF3", "current_trial": 237, "dateTime": 1512609730871, "trialdata": {"rt": -1, "stimulus": "", "key_press": -1, "type": "PRE_RECALL_DELAY", "trial_type": "single-stim", "trial_index": 237, "time_elapsed": 2136010, "internal_node_id": "0.0-174.0-0.0"}}, {"uniqueid": "MTK0699:3LWJHTCVCDTJ1151TEC4E8YRKQDQF3", "current_trial": 238, "dateTime": 1512609731373, "trialdata": {"rt": -1000, "stimulus": "/static/audio/400Hz.wav", "key_press": -1, "type": "PRE_RECALL_ALERT", "trial_type": "single-audio", "trial_index": 238, "time_elapsed": 2136512, "internal_node_id": "0.0-175.0"}}, {"uniqueid": "MTK0699:3LWJHTCVCDTJ1151TEC4E8YRKQDQF3", "current_trial": 239, "dateTime": 1512609791379, "trialdata": {"rt": [2638, 5719, 6679, 7974, 9545, 12532, 19828, 30650, 41456, 45020], "recwords": ["raazor", "scalpel", "actor", "scarf", "necklace", "jewelry", "handbag", "binder", "shirt", "clothes"], "type": "FREE_RECALL", "conditions": [24, 800, "v", 12000], "trial": 6, "trial_type": "free-recall", "trial_index": 239, "time_elapsed": 2196516, "internal_node_id": "0.0-176.0-0.0"}}, {"uniqueid": "MTK0699:3LWJHTCVCDTJ1151TEC4E8YRKQDQF3", "current_trial": 240, "dateTime": 1512609794156, "trialdata": {"rt": 776, "key_press": 13, "type": "INSTRUCTIONS", "trial_type": "text", "trial_index": 240, "time_elapsed": 2199295, "internal_node_id": "0.0-177.0"}}, {"uniqueid": "MTK0699:3LWJHTCVCDTJ1151TEC4E8YRKQDQF3", "current_trial": 241, "dateTime": 1512609808159, "trialdata": {"rt": [2398, 4096, 5630, 7976, 9826], "responses": ["19", "16", "12", "15", "8"], "num1": [8, 7, 7, 3, 6, 5], "num2": [8, 1, 4, 6, 1, 4], "num3": [3, 8, 1, 6, 1, 2], "type": "DISTRACTOR", "conditions": [24, 1600, "a", 12000], "trial": 7, "trial_type": "math-distractor", "trial_index": 241, "time_elapsed": 2213298, "internal_node_id": "0.0-178.0"}}, {"uniqueid": "MTK0699:3LWJHTCVCDTJ1151TEC4E8YRKQDQF3", "current_trial": 242, "dateTime": 1512609811161, "trialdata": {"rt": -1, "stimulus": "<p id=\"stim\">10</p>", "key_press": -1, "trial_type": "single-stim", "trial_index": 242, "time_elapsed": 2216300, "internal_node_id": "0.0-179.0-0.0"}}, {"uniqueid": "MTK0699:3LWJHTCVCDTJ1151TEC4E8YRKQDQF3", "current_trial": 243, "dateTime": 1512609812162, "trialdata": {"rt": -1, "stimulus": "<p id=\"stim\">9</p>", "key_press": -1, "trial_type": "single-stim", "trial_index": 243, "time_elapsed": 2217301, "internal_node_id": "0.0-179.0-1.0"}}, {"uniqueid": "MTK0699:3LWJHTCVCDTJ1151TEC4E8YRKQDQF3", "current_trial": 244, "dateTime": 1512609813163, "trialdata": {"rt": -1, "stimulus": "<p id=\"stim\">8</p>", "key_press": -1, "trial_type": "single-stim", "trial_index": 244, "time_elapsed": 2218302, "internal_node_id": "0.0-179.0-2.0"}}, {"uniqueid": "MTK0699:3LWJHTCVCDTJ1151TEC4E8YRKQDQF3", "current_trial": 245, "dateTime": 1512609814164, "trialdata": {"rt": -1, "stimulus": "<p id=\"stim\">7</p>", "key_press": -1, "trial_type": "single-stim", "trial_index": 245, "time_elapsed": 2219303, "internal_node_id": "0.0-179.0-3.0"}}, {"uniqueid": "MTK0699:3LWJHTCVCDTJ1151TEC4E8YRKQDQF3", "current_trial": 246, "dateTime": 1512609815165, "trialdata": {"rt": -1, "stimulus": "<p id=\"stim\">6</p>", "key_press": -1, "trial_type": "single-stim", "trial_index": 246, "time_elapsed": 2220304, "internal_node_id": "0.0-179.0-4.0"}}, {"uniqueid": "MTK0699:3LWJHTCVCDTJ1151TEC4E8YRKQDQF3", "current_trial": 247, "dateTime": 1512609816166, "trialdata": {"rt": -1, "stimulus": "<p id=\"stim\">5</p>", "key_press": -1, "trial_type": "single-stim", "trial_index": 247, "time_elapsed": 2221305, "internal_node_id": "0.0-179.0-5.0"}}, {"uniqueid": "MTK0699:3LWJHTCVCDTJ1151TEC4E8YRKQDQF3", "current_trial": 248, "dateTime": 1512609817167, "trialdata": {"rt": -1, "stimulus": "<p id=\"stim\">4</p>", "key_press": -1, "trial_type": "single-stim", "trial_index": 248, "time_elapsed": 2222306, "internal_node_id": "0.0-179.0-6.0"}}, {"uniqueid": "MTK0699:3LWJHTCVCDTJ1151TEC4E8YRKQDQF3", "current_trial": 249, "dateTime": 1512609818168, "trialdata": {"rt": -1, "stimulus": "<p id=\"stim\">3</p>", "key_press": -1, "trial_type": "single-stim", "trial_index": 249, "time_elapsed": 2223307, "internal_node_id": "0.0-179.0-7.0"}}, {"uniqueid": "MTK0699:3LWJHTCVCDTJ1151TEC4E8YRKQDQF3", "current_trial": 250, "dateTime": 1512609819170, "trialdata": {"rt": -1, "stimulus": "<p id=\"stim\">2</p>", "key_press": -1, "trial_type": "single-stim", "trial_index": 250, "time_elapsed": 2224309, "internal_node_id": "0.0-179.0-8.0"}}, {"uniqueid": "MTK0699:3LWJHTCVCDTJ1151TEC4E8YRKQDQF3", "current_trial": 251, "dateTime": 1512609820171, "trialdata": {"rt": -1, "stimulus": "<p id=\"stim\">1</p>", "key_press": -1, "trial_type": "single-stim", "trial_index": 251, "time_elapsed": 2225310, "internal_node_id": "0.0-179.0-9.0"}}, {"uniqueid": "MTK0699:3LWJHTCVCDTJ1151TEC4E8YRKQDQF3", "current_trial": 252, "dateTime": 1512609821673, "trialdata": {"rt": -1, "stimulus": "<p id=\"stim\">+</p>", "key_press": -1, "type": "FIXATION", "trial_type": "single-stim", "trial_index": 252, "time_elapsed": 2226811, "internal_node_id": "0.0-180.0-0.0"}}, {"uniqueid": "MTK0699:3LWJHTCVCDTJ1151TEC4E8YRKQDQF3", "current_trial": 253, "dateTime": 1512609824122, "trialdata": {"rt": -1000, "stimulus": "/static/audio/wordpool/DORM.wav", "key_press": -1, "type": "PRES_AUD", "word": "dorm", "wordID": 487, "conditions": [24, 1600, "a", 12000], "trial": 7, "serialpos": 0, "trial_type": "single-audio", "trial_index": 253, "time_elapsed": 2229261, "internal_node_id": "0.0-181.0"}}, {"uniqueid": "MTK0699:3LWJHTCVCDTJ1151TEC4E8YRKQDQF3", "current_trial": 254, "dateTime": 1512609826847, "trialdata": {"rt": -1000, "stimulus": "/static/audio/wordpool/CANYON.wav", "key_press": -1, "type": "PRES_AUD", "word": "canyon", "wordID": 234, "conditions": [24, 1600, "a", 12000], "trial": 7, "serialpos": 1, "trial_type": "single-audio", "trial_index": 254, "time_elapsed": 2231986, "internal_node_id": "0.0-182.0"}}, {"uniqueid": "MTK0699:3LWJHTCVCDTJ1151TEC4E8YRKQDQF3", "current_trial": 255, "dateTime": 1512609829314, "trialdata": {"rt": -1000, "stimulus": "/static/audio/wordpool/PEACH.wav", "key_press": -1, "type": "PRES_AUD", "word": "peach", "wordID": 1030, "conditions": [24, 1600, "a", 12000], "trial": 7, "serialpos": 2, "trial_type": "single-audio", "trial_index": 255, "time_elapsed": 2234453, "internal_node_id": "0.0-183.0"}}, {"uniqueid": "MTK0699:3LWJHTCVCDTJ1151TEC4E8YRKQDQF3", "current_trial": 256, "dateTime": 1512609832014, "trialdata": {"rt": -1000, "stimulus": "/static/audio/wordpool/DINER.wav", "key_press": -1, "type": "PRES_AUD", "word": "diner", "wordID": 466, "conditions": [24, 1600, "a", 12000], "trial": 7, "serialpos": 3, "trial_type": "single-audio", "trial_index": 256, "time_elapsed": 2237153, "internal_node_id": "0.0-184.0"}}, {"uniqueid": "MTK0699:3LWJHTCVCDTJ1151TEC4E8YRKQDQF3", "current_trial": 257, "dateTime": 1512609834686, "trialdata": {"rt": -1000, "stimulus": "/static/audio/wordpool/SEAGULL.wav", "key_press": -1, "type": "PRES_AUD", "word": "seagull", "wordID": 1260, "conditions": [24, 1600, "a", 12000], "trial": 7, "serialpos": 4, "trial_type": "single-audio", "trial_index": 257, "time_elapsed": 2239825, "internal_node_id": "0.0-185.0"}}, {"uniqueid": "MTK0699:3LWJHTCVCDTJ1151TEC4E8YRKQDQF3", "current_trial": 258, "dateTime": 1512609837311, "trialdata": {"rt": -1000, "stimulus": "/static/audio/wordpool/LAKE.wav", "key_press": -1, "type": "PRES_AUD", "word": "lake", "wordID": 795, "conditions": [24, 1600, "a", 12000], "trial": 7, "serialpos": 5, "trial_type": "single-audio", "trial_index": 258, "time_elapsed": 2242450, "internal_node_id": "0.0-186.0"}}, {"uniqueid": "MTK0699:3LWJHTCVCDTJ1151TEC4E8YRKQDQF3", "current_trial": 259, "dateTime": 1512609839758, "trialdata": {"rt": -1000, "stimulus": "/static/audio/wordpool/POPCORN.wav", "key_press": -1, "type": "PRES_AUD", "word": "popcorn", "wordID": 1103, "conditions": [24, 1600, "a", 12000], "trial": 7, "serialpos": 6, "trial_type": "single-audio", "trial_index": 259, "time_elapsed": 2244897, "internal_node_id": "0.0-187.0"}}, {"uniqueid": "MTK0699:3LWJHTCVCDTJ1151TEC4E8YRKQDQF3", "current_trial": 260, "dateTime": 1512609842544, "trialdata": {"rt": -1000, "stimulus": "/static/audio/wordpool/CAMEL.wav", "key_press": -1, "type": "PRES_AUD", "word": "camel", "wordID": 222, "conditions": [24, 1600, "a", 12000], "trial": 7, "serialpos": 7, "trial_type": "single-audio", "trial_index": 260, "time_elapsed": 2247683, "internal_node_id": "0.0-188.0"}}, {"uniqueid": "MTK0699:3LWJHTCVCDTJ1151TEC4E8YRKQDQF3", "current_trial": 261, "dateTime": 1512609844995, "trialdata": {"rt": -1000, "stimulus": "/static/audio/wordpool/DONKEY.wav", "key_press": -1, "type": "PRES_AUD", "word": "donkey", "wordID": 483, "conditions": [24, 1600, "a", 12000], "trial": 7, "serialpos": 8, "trial_type": "single-audio", "trial_index": 261, "time_elapsed": 2250134, "internal_node_id": "0.0-189.0"}}, {"uniqueid": "MTK0699:3LWJHTCVCDTJ1151TEC4E8YRKQDQF3", "current_trial": 262, "dateTime": 1512609847564, "trialdata": {"rt": -1000, "stimulus": "/static/audio/wordpool/APPLE.wav", "key_press": -1, "type": "PRES_AUD", "word": "apple", "wordID": 32, "conditions": [24, 1600, "a", 12000], "trial": 7, "serialpos": 9, "trial_type": "single-audio", "trial_index": 262, "time_elapsed": 2252703, "internal_node_id": "0.0-190.0"}}, {"uniqueid": "MTK0699:3LWJHTCVCDTJ1151TEC4E8YRKQDQF3", "current_trial": 263, "dateTime": 1512609850208, "trialdata": {"rt": -1000, "stimulus": "/static/audio/wordpool/SADDLE.wav", "key_press": -1, "type": "PRES_AUD", "word": "saddle", "wordID": 1220, "conditions": [24, 1600, "a", 12000], "trial": 7, "serialpos": 10, "trial_type": "single-audio", "trial_index": 263, "time_elapsed": 2255347, "internal_node_id": "0.0-191.0"}}, {"uniqueid": "MTK0699:3LWJHTCVCDTJ1151TEC4E8YRKQDQF3", "current_trial": 264, "dateTime": 1512609852967, "trialdata": {"rt": -1000, "stimulus": "/static/audio/wordpool/STICKER.wav", "key_press": -1, "type": "PRES_AUD", "word": "sticker", "wordID": 1381, "conditions": [24, 1600, "a", 12000], "trial": 7, "serialpos": 11, "trial_type": "single-audio", "trial_index": 264, "time_elapsed": 2258106, "internal_node_id": "0.0-192.0"}}, {"uniqueid": "MTK0699:3LWJHTCVCDTJ1151TEC4E8YRKQDQF3", "current_trial": 265, "dateTime": 1512609855410, "trialdata": {"rt": -1000, "stimulus": "/static/audio/wordpool/WASP.wav", "key_press": -1, "type": "PRES_AUD", "word": "wasp", "wordID": 1592, "conditions": [24, 1600, "a", 12000], "trial": 7, "serialpos": 12, "trial_type": "single-audio", "trial_index": 265, "time_elapsed": 2260549, "internal_node_id": "0.0-193.0"}}, {"uniqueid": "MTK0699:3LWJHTCVCDTJ1151TEC4E8YRKQDQF3", "current_trial": 266, "dateTime": 1512609858148, "trialdata": {"rt": -1000, "stimulus": "/static/audio/wordpool/FLASK.wav", "key_press": -1, "type": "PRES_AUD", "word": "flask", "wordID": 575, "conditions": [24, 1600, "a", 12000], "trial": 7, "serialpos": 13, "trial_type": "single-audio", "trial_index": 266, "time_elapsed": 2263286, "internal_node_id": "0.0-194.0"}}, {"uniqueid": "MTK0699:3LWJHTCVCDTJ1151TEC4E8YRKQDQF3", "current_trial": 267, "dateTime": 1512609860722, "trialdata": {"rt": -1000, "stimulus": "/static/audio/wordpool/AIRPLANE.wav", "key_press": -1, "type": "PRES_AUD", "word": "airplane", "wordID": 11, "conditions": [24, 1600, "a", 12000], "trial": 7, "serialpos": 14, "trial_type": "single-audio", "trial_index": 267, "time_elapsed": 2265861, "internal_node_id": "0.0-195.0"}}, {"uniqueid": "MTK0699:3LWJHTCVCDTJ1151TEC4E8YRKQDQF3", "current_trial": 268, "dateTime": 1512609863365, "trialdata": {"rt": -1000, "stimulus": "/static/audio/wordpool/COUNTRY.wav", "key_press": -1, "type": "PRES_AUD", "word": "country", "wordID": 387, "conditions": [24, 1600, "a", 12000], "trial": 7, "serialpos": 15, "trial_type": "single-audio", "trial_index": 268, "time_elapsed": 2268504, "internal_node_id": "0.0-196.0"}}, {"uniqueid": "MTK0699:3LWJHTCVCDTJ1151TEC4E8YRKQDQF3", "current_trial": 269, "dateTime": 1512609865955, "trialdata": {"rt": -1000, "stimulus": "/static/audio/wordpool/WORLD.wav", "key_press": -1, "type": "PRES_AUD", "word": "world", "wordID": 1621, "conditions": [24, 1600, "a", 12000], "trial": 7, "serialpos": 16, "trial_type": "single-audio", "trial_index": 269, "time_elapsed": 2271094, "internal_node_id": "0.0-197.0"}}, {"uniqueid": "MTK0699:3LWJHTCVCDTJ1151TEC4E8YRKQDQF3", "current_trial": 270, "dateTime": 1512609868661, "trialdata": {"rt": -1000, "stimulus": "/static/audio/wordpool/GARDEN.wav", "key_press": -1, "type": "PRES_AUD", "word": "garden", "wordID": 622, "conditions": [24, 1600, "a", 12000], "trial": 7, "serialpos": 17, "trial_type": "single-audio", "trial_index": 270, "time_elapsed": 2273800, "internal_node_id": "0.0-198.0"}}, {"uniqueid": "MTK0699:3LWJHTCVCDTJ1151TEC4E8YRKQDQF3", "current_trial": 271, "dateTime": 1512609871272, "trialdata": {"rt": -1000, "stimulus": "/static/audio/wordpool/ROBIN.wav", "key_press": -1, "type": "PRES_AUD", "word": "robin", "wordID": 1198, "conditions": [24, 1600, "a", 12000], "trial": 7, "serialpos": 18, "trial_type": "single-audio", "trial_index": 271, "time_elapsed": 2276411, "internal_no