{"condition": 0, "counterbalance": 394, "assignmentId": "3E7TUJ2EGDTGBIAJL66S4D5HXF89D7", "workerId": "MTK0374", "hitId": "31J7RYECZLXFX5XM48KLJ0ZJUQB1LY", "currenttrial": 626, "bonus": 0, "data": [{"uniqueid": "MTK0374:3E7TUJ2EGDTGBIAJL66S4D5HXF89D7", "current_trial": 0, "dateTime": 1510777063739, "trialdata": {"rt": 2339, "key_press": 40, "type": "INSTRUCTIONS", "trial_type": "text", "trial_index": 0, "time_elapsed": 2340, "internal_node_id": "0.0-0.0"}}, {"uniqueid": "MTK0374:3E7TUJ2EGDTGBIAJL66S4D5HXF89D7", "current_trial": 1, "dateTime": 1510777082939, "trialdata": {"rt": 19197, "key_press": 40, "type": "INSTRUCTIONS", "trial_type": "text", "trial_index": 1, "time_elapsed": 21540, "internal_node_id": "0.0-1.0"}}, {"uniqueid": "MTK0374:3E7TUJ2EGDTGBIAJL66S4D5HXF89D7", "current_trial": 2, "dateTime": 1510777092844, "trialdata": {"rt": [8821], "responses": ["ocean"], "type": "AUDIO_TEST", "trial_type": "audio-test", "trial_index": 2, "time_elapsed": 31445, "internal_node_id": "0.0-2.0"}}, {"uniqueid": "MTK0374:3E7TUJ2EGDTGBIAJL66S4D5HXF89D7", "current_trial": 3, "dateTime": 1510777100079, "trialdata": {"rt": [7199], "responses": ["crystal"], "type": "AUDIO_TEST", "trial_type": "audio-test", "trial_index": 3, "time_elapsed": 38681, "internal_node_id": "0.0-3.0"}}, {"uniqueid": "MTK0374:3E7TUJ2EGDTGBIAJL66S4D5HXF89D7", "current_trial": 4, "dateTime": 1510777103778, "trialdata": {"rt": [3685], "responses": ["spice"], "type": "AUDIO_TEST", "trial_type": "audio-test", "trial_index": 4, "time_elapsed": 42380, "internal_node_id": "0.0-4.0"}}, {"uniqueid": "MTK0374:3E7TUJ2EGDTGBIAJL66S4D5HXF89D7", "current_trial": 5, "dateTime": 1510777129559, "trialdata": {"rt": 25028, "responses": "{\"Q0\":\"2am\",\"Q1\":\"11am\",\"Q2\":\"5\"}", "type": "SLEEP_SURVEY", "trial_type": "survey-text", "trial_index": 5, "time_elapsed": 68161, "internal_node_id": "0.0-5.0"}}, {"uniqueid": "MTK0374:3E7TUJ2EGDTGBIAJL66S4D5HXF89D7", "current_trial": 6, "dateTime": 1510777160365, "trialdata": {"rt": 29804, "key_press": 74, "type": "INSTRUCTIONS", "trial_type": "text", "trial_index": 6, "time_elapsed": 98967, "internal_node_id": "0.0-6.0"}}, {"uniqueid": "MTK0374:3E7TUJ2EGDTGBIAJL66S4D5HXF89D7", "current_trial": 7, "dateTime": 1510777174468, "trialdata": {"rt": 13602, "key_press": 68, "type": "INSTRUCTIONS", "trial_type": "text", "trial_index": 7, "time_elapsed": 113070, "internal_node_id": "0.0-7.0"}}, {"uniqueid": "MTK0374:3E7TUJ2EGDTGBIAJL66S4D5HXF89D7", "current_trial": 8, "dateTime": 1510777181388, "trialdata": {"rt": 6418, "key_press": 68, "type": "INSTRUCTIONS", "trial_type": "text", "trial_index": 8, "time_elapsed": 119989, "internal_node_id": "0.0-8.0"}}, {"uniqueid": "MTK0374:3E7TUJ2EGDTGBIAJL66S4D5HXF89D7", "current_trial": 9, "dateTime": 1510777200394, "trialdata": {"rt": [8127, 10924, 13281, 16661], "responses": ["10", "13", "14", "16"], "num1": [1, 8, 4, 6, 7], "num2": [5, 1, 6, 5, 3], "num3": [4, 4, 4, 5, 5], "type": "DISTRACTOR", "conditions": [18, 1200, "a", 18000], "trial": 0, "trial_type": "math-distractor", "trial_index": 9, "time_elapsed": 138996, "internal_node_id": "0.0-9.0"}}, {"uniqueid": "MTK0374:3E7TUJ2EGDTGBIAJL66S4D5HXF89D7", "current_trial": 10, "dateTime": 1510777203395, "trialdata": {"rt": -1, "stimulus": "<p id=\"stim\">10</p>", "key_press": -1, "trial_type": "single-stim", "trial_index": 10, "time_elapsed": 141997, "internal_node_id": "0.0-10.0-0.0"}}, {"uniqueid": "MTK0374:3E7TUJ2EGDTGBIAJL66S4D5HXF89D7", "current_trial": 11, "dateTime": 1510777204397, "trialdata": {"rt": -1, "stimulus": "<p id=\"stim\">9</p>", "key_press": -1, "trial_type": "single-stim", "trial_index": 11, "time_elapsed": 142999, "internal_node_id": "0.0-10.0-1.0"}}, {"uniqueid": "MTK0374:3E7TUJ2EGDTGBIAJL66S4D5HXF89D7", "current_trial": 12, "dateTime": 1510777205399, "trialdata": {"rt": -1, "stimulus": "<p id=\"stim\">8</p>", "key_press": -1, "trial_type": "single-stim", "trial_index": 12, "time_elapsed": 144000, "internal_node_id": "0.0-10.0-2.0"}}, {"uniqueid": "MTK0374:3E7TUJ2EGDTGBIAJL66S4D5HXF89D7", "current_trial": 13, "dateTime": 1510777206400, "trialdata": {"rt": -1, "stimulus": "<p id=\"stim\">7</p>", "key_press": -1, "trial_type": "single-stim", "trial_index": 13, "time_elapsed": 145001, "internal_node_id": "0.0-10.0-3.0"}}, {"uniqueid": "MTK0374:3E7TUJ2EGDTGBIAJL66S4D5HXF89D7", "current_trial": 14, "dateTime": 1510777207401, "trialdata": {"rt": -1, "stimulus": "<p id=\"stim\">6</p>", "key_press": -1, "trial_type": "single-stim", "trial_index": 14, "time_elapsed": 146002, "internal_node_id": "0.0-10.0-4.0"}}, {"uniqueid": "MTK0374:3E7TUJ2EGDTGBIAJL66S4D5HXF89D7", "current_trial": 15, "dateTime": 1510777208402, "trialdata": {"rt": -1, "stimulus": "<p id=\"stim\">5</p>", "key_press": -1, "trial_type": "single-stim", "trial_index": 15, "time_elapsed": 147003, "internal_node_id": "0.0-10.0-5.0"}}, {"uniqueid": "MTK0374:3E7TUJ2EGDTGBIAJL66S4D5HXF89D7", "current_trial": 16, "dateTime": 1510777209403, "trialdata": {"rt": -1, "stimulus": "<p id=\"stim\">4</p>", "key_press": -1, "trial_type": "single-stim", "trial_index": 16, "time_elapsed": 148005, "internal_node_id": "0.0-10.0-6.0"}}, {"uniqueid": "MTK0374:3E7TUJ2EGDTGBIAJL66S4D5HXF89D7", "current_trial": 17, "dateTime": 1510777210404, "trialdata": {"rt": -1, "stimulus": "<p id=\"stim\">3</p>", "key_press": -1, "trial_type": "single-stim", "trial_index": 17, "time_elapsed": 149005, "internal_node_id": "0.0-10.0-7.0"}}, {"uniqueid": "MTK0374:3E7TUJ2EGDTGBIAJL66S4D5HXF89D7", "current_trial": 18, "dateTime": 1510777211405, "trialdata": {"rt": -1, "stimulus": "<p id=\"stim\">2</p>", "key_press": -1, "trial_type": "single-stim", "trial_index": 18, "time_elapsed": 150007, "internal_node_id": "0.0-10.0-8.0"}}, {"uniqueid": "MTK0374:3E7TUJ2EGDTGBIAJL66S4D5HXF89D7", "current_trial": 19, "dateTime": 1510777212407, "trialdata": {"rt": -1, "stimulus": "<p id=\"stim\">1</p>", "key_press": -1, "trial_type": "single-stim", "trial_index": 19, "time_elapsed": 151009, "internal_node_id": "0.0-10.0-9.0"}}, {"uniqueid": "MTK0374:3E7TUJ2EGDTGBIAJL66S4D5HXF89D7", "current_trial": 20, "dateTime": 1510777213909, "trialdata": {"rt": -1, "stimulus": "<p id=\"stim\">+</p>", "key_press": -1, "type": "FIXATION", "trial_type": "single-stim", "trial_index": 20, "time_elapsed": 152510, "internal_node_id": "0.0-11.0-0.0"}}, {"uniqueid": "MTK0374:3E7TUJ2EGDTGBIAJL66S4D5HXF89D7", "current_trial": 21, "dateTime": 1510777216012, "trialdata": {"rt": -1000, "stimulus": "/static/audio/wordpool/ROCKET.wav", "key_press": -1, "type": "PRES_AUD", "word": "rocket", "wordID": 1201, "conditions": [18, 1200, "a", 18000], "trial": 0, "serialpos": 0, "trial_type": "single-audio", "trial_index": 21, "time_elapsed": 154614, "internal_node_id": "0.0-12.0"}}, {"uniqueid": "MTK0374:3E7TUJ2EGDTGBIAJL66S4D5HXF89D7", "current_trial": 22, "dateTime": 1510777218181, "trialdata": {"rt": -1000, "stimulus": "/static/audio/wordpool/MARINE.wav", "key_press": -1, "type": "PRES_AUD", "word": "marine", "wordID": 868, "conditions": [18, 1200, "a", 18000], "trial": 0, "serialpos": 1, "trial_type": "single-audio", "trial_index": 22, "time_elapsed": 156783, "internal_node_id": "0.0-13.0"}}, {"uniqueid": "MTK0374:3E7TUJ2EGDTGBIAJL66S4D5HXF89D7", "current_trial": 23, "dateTime": 1510777220334, "trialdata": {"rt": -1000, "stimulus": "/static/audio/wordpool/LODGE.wav", "key_press": -1, "type": "PRES_AUD", "word": "lodge", "wordID": 838, "conditions": [18, 1200, "a", 18000], "trial": 0, "serialpos": 2, "trial_type": "single-audio", "trial_index": 23, "time_elapsed": 158936, "internal_node_id": "0.0-14.0"}}, {"uniqueid": "MTK0374:3E7TUJ2EGDTGBIAJL66S4D5HXF89D7", "current_trial": 24, "dateTime": 1510777222338, "trialdata": {"rt": -1000, "stimulus": "/static/audio/wordpool/BUNNY.wav", "key_press": -1, "type": "PRES_AUD", "word": "bunny", "wordID": 197, "conditions": [18, 1200, "a", 18000], "trial": 0, "serialpos": 3, "trial_type": "single-audio", "trial_index": 24, "time_elapsed": 160940, "internal_node_id": "0.0-15.0"}}, {"uniqueid": "MTK0374:3E7TUJ2EGDTGBIAJL66S4D5HXF89D7", "current_trial": 25, "dateTime": 1510777224551, "trialdata": {"rt": -1000, "stimulus": "/static/audio/wordpool/BEAVER.wav", "key_press": -1, "type": "PRES_AUD", "word": "beaver", "wordID": 108, "conditions": [18, 1200, "a", 18000], "trial": 0, "serialpos": 4, "trial_type": "single-audio", "trial_index": 25, "time_elapsed": 163153, "internal_node_id": "0.0-16.0"}}, {"uniqueid": "MTK0374:3E7TUJ2EGDTGBIAJL66S4D5HXF89D7", "current_trial": 26, "dateTime": 1510777226805, "trialdata": {"rt": -1000, "stimulus": "/static/audio/wordpool/STATUE.wav", "key_press": -1, "type": "PRES_AUD", "word": "statue", "wordID": 1373, "conditions": [18, 1200, "a", 18000], "trial": 0, "serialpos": 5, "trial_type": "single-audio", "trial_index": 26, "time_elapsed": 165407, "internal_node_id": "0.0-17.0"}}, {"uniqueid": "MTK0374:3E7TUJ2EGDTGBIAJL66S4D5HXF89D7", "current_trial": 27, "dateTime": 1510777229079, "trialdata": {"rt": -1000, "stimulus": "/static/audio/wordpool/COMET.wav", "key_press": -1, "type": "PRES_AUD", "word": "comet", "wordID": 352, "conditions": [18, 1200, "a", 18000], "trial": 0, "serialpos": 6, "trial_type": "single-audio", "trial_index": 27, "time_elapsed": 167681, "internal_node_id": "0.0-18.0"}}, {"uniqueid": "MTK0374:3E7TUJ2EGDTGBIAJL66S4D5HXF89D7", "current_trial": 28, "dateTime": 1510777231312, "trialdata": {"rt": -1000, "stimulus": "/static/audio/wordpool/WAGON.wav", "key_press": -1, "type": "PRES_AUD", "word": "wagon", "wordID": 1577, "conditions": [18, 1200, "a", 18000], "trial": 0, "serialpos": 7, "trial_type": "single-audio", "trial_index": 28, "time_elapsed": 169913, "internal_node_id": "0.0-19.0"}}, {"uniqueid": "MTK0374:3E7TUJ2EGDTGBIAJL66S4D5HXF89D7", "current_trial": 29, "dateTime": 1510777233712, "trialdata": {"rt": -1000, "stimulus": "/static/audio/wordpool/FRIEND.wav", "key_press": -1, "type": "PRES_AUD", "word": "friend", "wordID": 605, "conditions": [18, 1200, "a", 18000], "trial": 0, "serialpos": 8, "trial_type": "single-audio", "trial_index": 29, "time_elapsed": 172313, "internal_node_id": "0.0-20.0"}}, {"uniqueid": "MTK0374:3E7TUJ2EGDTGBIAJL66S4D5HXF89D7", "current_trial": 30, "dateTime": 1510777236092, "trialdata": {"rt": -1000, "stimulus": "/static/audio/wordpool/VALLEY.wav", "key_press": -1, "type": "PRES_AUD", "word": "valley", "wordID": 1544, "conditions": [18, 1200, "a", 18000], "trial": 0, "serialpos": 9, "trial_type": "single-audio", "trial_index": 30, "time_elapsed": 174694, "internal_node_id": "0.0-21.0"}}, {"uniqueid": "MTK0374:3E7TUJ2EGDTGBIAJL66S4D5HXF89D7", "current_trial": 31, "dateTime": 1510777238147, "trialdata": {"rt": -1000, "stimulus": "/static/audio/wordpool/EAGLE.wav", "key_press": -1, "type": "PRES_AUD", "word": "eagle", "wordID": 511, "conditions": [18, 1200, "a", 18000], "trial": 0, "serialpos": 10, "trial_type": "single-audio", "trial_index": 31, "time_elapsed": 176749, "internal_node_id": "0.0-22.0"}}, {"uniqueid": "MTK0374:3E7TUJ2EGDTGBIAJL66S4D5HXF89D7", "current_trial": 32, "dateTime": 1510777240285, "trialdata": {"rt": -1000, "stimulus": "/static/audio/wordpool/CRITIC.wav", "key_press": -1, "type": "PRES_AUD", "word": "critic", "wordID": 409, "conditions": [18, 1200, "a", 18000], "trial": 0, "serialpos": 11, "trial_type": "single-audio", "trial_index": 32, "time_elapsed": 178887, "internal_node_id": "0.0-23.0"}}, {"uniqueid": "MTK0374:3E7TUJ2EGDTGBIAJL66S4D5HXF89D7", "current_trial": 33, "dateTime": 1510777242583, "trialdata": {"rt": -1000, "stimulus": "/static/audio/wordpool/TYPIST.wav", "key_press": -1, "type": "PRES_AUD", "word": "typist", "wordID": 1531, "conditions": [18, 1200, "a", 18000], "trial": 0, "serialpos": 12, "trial_type": "single-audio", "trial_index": 33, "time_elapsed": 181185, "internal_node_id": "0.0-24.0"}}, {"uniqueid": "MTK0374:3E7TUJ2EGDTGBIAJL66S4D5HXF89D7", "current_trial": 34, "dateTime": 1510777244798, "trialdata": {"rt": -1000, "stimulus": "/static/audio/wordpool/RATTLE.wav", "key_press": -1, "type": "PRES_AUD", "word": "rattle", "wordID": 1169, "conditions": [18, 1200, "a", 18000], "trial": 0, "serialpos": 13, "trial_type": "single-audio", "trial_index": 34, "time_elapsed": 183399, "internal_node_id": "0.0-25.0"}}, {"uniqueid": "MTK0374:3E7TUJ2EGDTGBIAJL66S4D5HXF89D7", "current_trial": 35, "dateTime": 1510777247161, "trialdata": {"rt": -1000, "stimulus": "/static/audio/wordpool/SKIRT.wav", "key_press": -1, "type": "PRES_AUD", "word": "skirt", "wordID": 1318, "conditions": [18, 1200, "a", 18000], "trial": 0, "serialpos": 14, "trial_type": "single-audio", "trial_index": 35, "time_elapsed": 185763, "internal_node_id": "0.0-26.0"}}, {"uniqueid": "MTK0374:3E7TUJ2EGDTGBIAJL66S4D5HXF89D7", "current_trial": 36, "dateTime": 1510777249274, "trialdata": {"rt": -1000, "stimulus": "/static/audio/wordpool/GUARD.wav", "key_press": -1, "type": "PRES_AUD", "word": "guard", "wordID": 666, "conditions": [18, 1200, "a", 18000], "trial": 0, "serialpos": 15, "trial_type": "single-audio", "trial_index": 36, "time_elapsed": 187876, "internal_node_id": "0.0-27.0"}}, {"uniqueid": "MTK0374:3E7TUJ2EGDTGBIAJL66S4D5HXF89D7", "current_trial": 37, "dateTime": 1510777251599, "trialdata": {"rt": -1000, "stimulus": "/static/audio/wordpool/PLAYGROUND.wav", "key_press": -1, "type": "PRES_AUD", "word": "playground", "wordID": 1086, "conditions": [18, 1200, "a", 18000], "trial": 0, "serialpos": 16, "trial_type": "single-audio", "trial_index": 37, "time_elapsed": 190201, "internal_node_id": "0.0-28.0"}}, {"uniqueid": "MTK0374:3E7TUJ2EGDTGBIAJL66S4D5HXF89D7", "current_trial": 38, "dateTime": 1510777253766, "trialdata": {"rt": -1000, "stimulus": "/static/audio/wordpool/FLAG.wav", "key_press": -1, "type": "PRES_AUD", "word": "flag", "wordID": 572, "conditions": [18, 1200, "a", 18000], "trial": 0, "serialpos": 17, "trial_type": "single-audio", "trial_index": 38, "time_elapsed": 192368, "internal_node_id": "0.0-29.0"}}, {"uniqueid": "MTK0374:3E7TUJ2EGDTGBIAJL66S4D5HXF89D7", "current_trial": 39, "dateTime": 1510777255001, "trialdata": {"rt": -1, "stimulus": "", "key_press": -1, "type": "PRE_RECALL_DELAY", "trial_type": "single-stim", "trial_index": 39, "time_elapsed": 193603, "internal_node_id": "0.0-30.0-0.0"}}, {"uniqueid": "MTK0374:3E7TUJ2EGDTGBIAJL66S4D5HXF89D7", "current_trial": 40, "dateTime": 1510777255503, "trialdata": {"rt": -1000, "stimulus": "/static/audio/400Hz.wav", "key_press": -1, "type": "PRE_RECALL_ALERT", "trial_type": "single-audio", "trial_index": 40, "time_elapsed": 194104, "internal_node_id": "0.0-31.0"}}, {"uniqueid": "MTK0374:3E7TUJ2EGDTGBIAJL66S4D5HXF89D7", "current_trial": 41, "dateTime": 1510777315510, "trialdata": {"rt": [3150, 5043, 6386, 10181, 12283, 16605, 20856, 26202, 26946, 27273], "recwords": ["typist", "rattle", "skirt", "playground", "basket", "toss", "wheel", "", "", ""], "type": "FREE_RECALL", "conditions": [18, 1200, "a", 18000], "trial": 0, "trial_type": "free-recall", "trial_index": 41, "time_elapsed": 254108, "internal_node_id": "0.0-32.0-0.0"}}, {"uniqueid": "MTK0374:3E7TUJ2EGDTGBIAJL66S4D5HXF89D7", "current_trial": 42, "dateTime": 1510777319422, "trialdata": {"rt": 1912, "key_press": 72, "type": "INSTRUCTIONS", "trial_type": "text", "trial_index": 42, "time_elapsed": 258024, "internal_node_id": "0.0-33.0"}}, {"uniqueid": "MTK0374:3E7TUJ2EGDTGBIAJL66S4D5HXF89D7", "current_trial": 43, "dateTime": 1510777339427, "trialdata": {"rt": [2790, 4308, 6530, 9614, 12506, 14585, 17636], "responses": ["10", "11", "19", "15", "13", "12", "9"], "num1": [1, 9, 5, 7, 3, 2, 1, 3], "num2": [5, 1, 5, 8, 3, 4, 6, 3], "num3": [4, 1, 9, 1, 7, 6, 2, 3], "type": "DISTRACTOR", "conditions": [18, 1200, "v", 18000], "trial": 1, "trial_type": "math-distractor", "trial_index": 43, "time_elapsed": 278029, "internal_node_id": "0.0-34.0"}}, {"uniqueid": "MTK0374:3E7TUJ2EGDTGBIAJL66S4D5HXF89D7", "current_trial": 44, "dateTime": 1510777342431, "trialdata": {"rt": -1, "stimulus": "<p id=\"stim\">10</p>", "key_press": -1, "trial_type": "single-stim", "trial_index": 44, "time_elapsed": 281031, "internal_node_id": "0.0-35.0-0.0"}}, {"uniqueid": "MTK0374:3E7TUJ2EGDTGBIAJL66S4D5HXF89D7", "current_trial": 45, "dateTime": 1510777343432, "trialdata": {"rt": -1, "stimulus": "<p id=\"stim\">9</p>", "key_press": -1, "trial_type": "single-stim", "trial_index": 45, "time_elapsed": 282034, "internal_node_id": "0.0-35.0-1.0"}}, {"uniqueid": "MTK0374:3E7TUJ2EGDTGBIAJL66S4D5HXF89D7", "current_trial": 46, "dateTime": 1510777344433, "trialdata": {"rt": -1, "stimulus": "<p id=\"stim\">8</p>", "key_press": -1, "trial_type": "single-stim", "trial_index": 46, "time_elapsed": 283035, "internal_node_id": "0.0-35.0-2.0"}}, {"uniqueid": "MTK0374:3E7TUJ2EGDTGBIAJL66S4D5HXF89D7", "current_trial": 47, "dateTime": 1510777345434, "trialdata": {"rt": -1, "stimulus": "<p id=\"stim\">7</p>", "key_press": -1, "trial_type": "single-stim", "trial_index": 47, "time_elapsed": 284036, "internal_node_id": "0.0-35.0-3.0"}}, {"uniqueid": "MTK0374:3E7TUJ2EGDTGBIAJL66S4D5HXF89D7", "current_trial": 48, "dateTime": 1510777346435, "trialdata": {"rt": -1, "stimulus": "<p id=\"stim\">6</p>", "key_press": -1, "trial_type": "single-stim", "trial_index": 48, "time_elapsed": 285037, "internal_node_id": "0.0-35.0-4.0"}}, {"uniqueid": "MTK0374:3E7TUJ2EGDTGBIAJL66S4D5HXF89D7", "current_trial": 49, "dateTime": 1510777347436, "trialdata": {"rt": -1, "stimulus": "<p id=\"stim\">5</p>", "key_press": -1, "trial_type": "single-stim", "trial_index": 49, "time_elapsed": 286038, "internal_node_id": "0.0-35.0-5.0"}}, {"uniqueid": "MTK0374:3E7TUJ2EGDTGBIAJL66S4D5HXF89D7", "current_trial": 50, "dateTime": 1510777348437, "trialdata": {"rt": -1, "stimulus": "<p id=\"stim\">4</p>", "key_press": -1, "trial_type": "single-stim", "trial_index": 50, "time_elapsed": 287039, "internal_node_id": "0.0-35.0-6.0"}}, {"uniqueid": "MTK0374:3E7TUJ2EGDTGBIAJL66S4D5HXF89D7", "current_trial": 51, "dateTime": 1510777349438, "trialdata": {"rt": -1, "stimulus": "<p id=\"stim\">3</p>", "key_press": -1, "trial_type": "single-stim", "trial_index": 51, "time_elapsed": 288040, "internal_node_id": "0.0-35.0-7.0"}}, {"uniqueid": "MTK0374:3E7TUJ2EGDTGBIAJL66S4D5HXF89D7", "current_trial": 52, "dateTime": 1510777350440, "trialdata": {"rt": -1, "stimulus": "<p id=\"stim\">2</p>", "key_press": -1, "trial_type": "single-stim", "trial_index": 52, "time_elapsed": 289041, "internal_node_id": "0.0-35.0-8.0"}}, {"uniqueid": "MTK0374:3E7TUJ2EGDTGBIAJL66S4D5HXF89D7", "current_trial": 53, "dateTime": 1510777351441, "trialdata": {"rt": -1, "stimulus": "<p id=\"stim\">1</p>", "key_press": -1, "trial_type": "single-stim", "trial_index": 53, "time_elapsed": 290042, "internal_node_id": "0.0-35.0-9.0"}}, {"uniqueid": "MTK0374:3E7TUJ2EGDTGBIAJL66S4D5HXF89D7", "current_trial": 54, "dateTime": 1510777352942, "trialdata": {"rt": -1, "stimulus": "<p id=\"stim\">+</p>", "key_press": -1, "type": "FIXATION", "trial_type": "single-stim", "trial_index": 54, "time_elapsed": 291544, "internal_node_id": "0.0-36.0-0.0"}}, {"uniqueid": "MTK0374:3E7TUJ2EGDTGBIAJL66S4D5HXF89D7", "current_trial": 55, "dateTime": 1510777354143, "trialdata": {"rt": -1, "stimulus": "<p id=\"stim\">MOP</p>", "key_press": -1, "type": "PRES_VIS", "word": "mop", "wordID": 915, "conditions": [18, 1200, "v", 18000], "trial": 1, "serialpos": 0, "trial_type": "single-stim", "trial_index": 55, "time_elapsed": 292745, "internal_node_id": "0.0-37.0"}}, {"uniqueid": "MTK0374:3E7TUJ2EGDTGBIAJL66S4D5HXF89D7", "current_trial": 56, "dateTime": 1510777356239, "trialdata": {"rt": -1, "stimulus": "<p id=\"stim\">CURTAIN</p>", "key_press": -1, "type": "PRES_VIS", "word": "curtain", "wordID": 426, "conditions": [18, 1200, "v", 18000], "trial": 1, "serialpos": 1, "trial_type": "single-stim", "trial_index": 56, "time_elapsed": 294841, "internal_node_id": "0.0-38.0"}}, {"uniqueid": "MTK0374:3E7TUJ2EGDTGBIAJL66S4D5HXF89D7", "current_trial": 57, "dateTime": 1510777358571, "trialdata": {"rt": -1, "stimulus": "<p id=\"stim\">COSTUME</p>", "key_press": -1, "type": "PRES_VIS", "word": "costume", "wordID": 382, "conditions": [18, 1200, "v", 18000], "trial": 1, "serialpos": 2, "trial_type": "single-stim", "trial_index": 57, "time_elapsed": 297173, "internal_node_id": "0.0-39.0"}}, {"uniqueid": "MTK0374:3E7TUJ2EGDTGBIAJL66S4D5HXF89D7", "current_trial": 58, "dateTime": 1510777360809, "trialdata": {"rt": -1, "stimulus": "<p id=\"stim\">VIRUS</p>", "key_press": -1, "type": "PRES_VIS", "word": "virus", "wordID": 1571, "conditions": [18, 1200, "v", 18000], "trial": 1, "serialpos": 3, "trial_type": "single-stim", "trial_index": 58, "time_elapsed": 299411, "internal_node_id": "0.0-40.0"}}, {"uniqueid": "MTK0374:3E7TUJ2EGDTGBIAJL66S4D5HXF89D7", "current_trial": 59, "dateTime": 1510777363054, "trialdata": {"rt": -1, "stimulus": "<p id=\"stim\">FIDDLE</p>", "key_press": -1, "type": "PRES_VIS", "word": "fiddle", "wordID": 560, "conditions": [18, 1200, "v", 18000], "trial": 1, "serialpos": 4, "trial_type": "single-stim", "trial_index": 59, "time_elapsed": 301656, "internal_node_id": "0.0-41.0"}}, {"uniqueid": "MTK0374:3E7TUJ2EGDTGBIAJL66S4D5HXF89D7", "current_trial": 60, "dateTime": 1510777365179, "trialdata": {"rt": -1, "stimulus": "<p id=\"stim\">PIGMENT</p>", "key_press": -1, "type": "PRES_VIS", "word": "pigment", "wordID": 1065, "conditions": [18, 1200, "v", 18000], "trial": 1, "serialpos": 5, "trial_type": "single-stim", "trial_index": 60, "time_elapsed": 303781, "internal_node_id": "0.0-42.0"}}, {"uniqueid": "MTK0374:3E7TUJ2EGDTGBIAJL66S4D5HXF89D7", "current_trial": 61, "dateTime": 1510777367348, "trialdata": {"rt": -1, "stimulus": "<p id=\"stim\">MILDEW</p>", "key_press": -1, "type": "PRES_VIS", "word": "mildew", "wordID": 892, "conditions": [18, 1200, "v", 18000], "trial": 1, "serialpos": 6, "trial_type": "single-stim", "trial_index": 61, "time_elapsed": 305950, "internal_node_id": "0.0-43.0"}}, {"uniqueid": "MTK0374:3E7TUJ2EGDTGBIAJL66S4D5HXF89D7", "current_trial": 62, "dateTime": 1510777369609, "trialdata": {"rt": -1, "stimulus": "<p id=\"stim\">BEAST</p>", "key_press": -1, "type": "PRES_VIS", "word": "beast", "wordID": 107, "conditions": [18, 1200, "v", 18000], "trial": 1, "serialpos": 7, "trial_type": "single-stim", "trial_index": 62, "time_elapsed": 308211, "internal_node_id": "0.0-44.0"}}, {"uniqueid": "MTK0374:3E7TUJ2EGDTGBIAJL66S4D5HXF89D7", "current_trial": 63, "dateTime": 1510777371807, "trialdata": {"rt": -1, "stimulus": "<p id=\"stim\">TABLE</p>", "key_press": -1, "type": "PRES_VIS", "word": "table", "wordID": 1425, "conditions": [18, 1200, "v", 18000], "trial": 1, "serialpos": 8, "trial_type": "single-stim", "trial_index": 63, "time_elapsed": 310409, "internal_node_id": "0.0-45.0"}}, {"uniqueid": "MTK0374:3E7TUJ2EGDTGBIAJL66S4D5HXF89D7", "current_trial": 64, "dateTime": 1510777374046, "trialdata": {"rt": -1, "stimulus": "<p id=\"stim\">STAMP</p>", "key_press": -1, "type": "PRES_VIS", "word": "stamp", "wordID": 1369, "conditions": [18, 1200, "v", 18000], "trial": 1, "serialpos": 9, "trial_type": "single-stim", "trial_index": 64, "time_elapsed": 312647, "internal_node_id": "0.0-46.0"}}, {"uniqueid": "MTK0374:3E7TUJ2EGDTGBIAJL66S4D5HXF89D7", "current_trial": 65, "dateTime": 1510777376400, "trialdata": {"rt": -1, "stimulus": "<p id=\"stim\">CABIN</p>", "key_press": -1, "type": "PRES_VIS", "word": "cabin", "wordID": 210, "conditions": [18, 1200, "v", 18000], "trial": 1, "serialpos": 10, "trial_type": "single-stim", "trial_index": 65, "time_elapsed": 315002, "internal_node_id": "0.0-47.0"}}, {"uniqueid": "MTK0374:3E7TUJ2EGDTGBIAJL66S4D5HXF89D7", "current_trial": 66, "dateTime": 1510777378655, "trialdata": {"rt": -1, "stimulus": "<p id=\"stim\">CONCERT</p>", "key_press": -1, "type": "PRES_VIS", "word": "concert", "wordID": 359, "conditions": [18, 1200, "v", 18000], "trial": 1, "serialpos": 11, "trial_type": "single-stim", "trial_index": 66, "time_elapsed": 317257, "internal_node_id": "0.0-48.0"}}, {"uniqueid": "MTK0374:3E7TUJ2EGDTGBIAJL66S4D5HXF89D7", "current_trial": 67, "dateTime": 1510777380812, "trialdata": {"rt": -1, "stimulus": "<p id=\"stim\">EYELASH</p>", "key_press": -1, "type": "PRES_VIS", "word": "eyelash", "wordID": 545, "conditions": [18, 1200, "v", 18000], "trial": 1, "serialpos": 12, "trial_type": "single-stim", "trial_index": 67, "time_elapsed": 319414, "internal_node_id": "0.0-49.0"}}, {"uniqueid": "MTK0374:3E7TUJ2EGDTGBIAJL66S4D5HXF89D7", "current_trial": 68, "dateTime": 1510777382925, "trialdata": {"rt": -1, "stimulus": "<p id=\"stim\">BLACKBOARD</p>", "key_press": -1, "type": "PRES_VIS", "word": "blackboard", "wordID": 132, "conditions": [18, 1200, "v", 18000], "trial": 1, "serialpos": 13, "trial_type": "single-stim", "trial_index": 68, "time_elapsed": 321527, "internal_node_id": "0.0-50.0"}}, {"uniqueid": "MTK0374:3E7TUJ2EGDTGBIAJL66S4D5HXF89D7", "current_trial": 69, "dateTime": 1510777385324, "trialdata": {"rt": -1, "stimulus": "<p id=\"stim\">MUSTARD</p>", "key_press": -1, "type": "PRES_VIS", "word": "mustard", "wordID": 934, "conditions": [18, 1200, "v", 18000], "trial": 1, "serialpos": 14, "trial_type": "single-stim", "trial_index": 69, "time_elapsed": 323926, "internal_node_id": "0.0-51.0"}}, {"uniqueid": "MTK0374:3E7TUJ2EGDTGBIAJL66S4D5HXF89D7", "current_trial": 70, "dateTime": 1510777387588, "trialdata": {"rt": -1, "stimulus": "<p id=\"stim\">EGYPT</p>", "key_press": -1, "type": "PRES_VIS", "word": "egypt", "wordID": 518, "conditions": [18, 1200, "v", 18000], "trial": 1, "serialpos": 15, "trial_type": "single-stim", "trial_index": 70, "time_elapsed": 326190, "internal_node_id": "0.0-52.0"}}, {"uniqueid": "MTK0374:3E7TUJ2EGDTGBIAJL66S4D5HXF89D7", "current_trial": 71, "dateTime": 1510777389867, "trialdata": {"rt": -1, "stimulus": "<p id=\"stim\">PUDDING</p>", "key_press": -1, "type": "PRES_VIS", "word": "pudding", "wordID": 1138, "conditions": [18, 1200, "v", 18000], "trial": 1, "serialpos": 16, "trial_type": "single-stim", "trial_index": 71, "time_elapsed": 328469, "internal_node_id": "0.0-53.0"}}, {"uniqueid": "MTK0374:3E7TUJ2EGDTGBIAJL66S4D5HXF89D7", "current_trial": 72, "dateTime": 1510777392247, "trialdata": {"rt": -1, "stimulus": "<p id=\"stim\">ICING</p>", "key_press": -1, "type": "PRES_VIS", "word": "icing", "wordID": 731, "conditions": [18, 1200, "v", 18000], "trial": 1, "serialpos": 17, "trial_type": "single-stim", "trial_index": 72, "time_elapsed": 330849, "internal_node_id": "0.0-54.0"}}, {"uniqueid": "MTK0374:3E7TUJ2EGDTGBIAJL66S4D5HXF89D7", "current_trial": 73, "dateTime": 1510777394623, "trialdata": {"rt": -1, "stimulus": "", "key_press": -1, "type": "PRE_RECALL_DELAY", "trial_type": "single-stim", "trial_index": 73, "time_elapsed": 333225, "internal_node_id": "0.0-55.0-0.0"}}, {"uniqueid": "MTK0374:3E7TUJ2EGDTGBIAJL66S4D5HXF89D7", "current_trial": 74, "dateTime": 1510777395124, "trialdata": {"rt": -1000, "stimulus": "/static/audio/400Hz.wav", "key_press": -1, "type": "PRE_RECALL_ALERT", "trial_type": "single-audio", "trial_index": 74, "time_elapsed": 333726, "internal_node_id": "0.0-56.0"}}, {"uniqueid": "MTK0374:3E7TUJ2EGDTGBIAJL66S4D5HXF89D7", "current_trial": 75, "dateTime": 1510777455130, "trialdata": {"rt": [3664, 6069, 8258, 9313, 31542], "recwords": ["blackboard", "icing", "mildew", "dust", "mop"], "type": "FREE_RECALL", "conditions": [18, 1200, "v", 18000], "trial": 1, "trial_type": "free-recall", "trial_index": 75, "time_elapsed": 393729, "internal_node_id": "0.0-57.0-0.0"}}, {"uniqueid": "MTK0374:3E7TUJ2EGDTGBIAJL66S4D5HXF89D7", "current_trial": 76, "dateTime": 1510777459971, "trialdata": {"rt": 2835, "key_press": 71, "type": "INSTRUCTIONS", "trial_type": "text", "trial_index": 76, "time_elapsed": 398568, "internal_node_id": "0.0-58.0"}}, {"uniqueid": "MTK0374:3E7TUJ2EGDTGBIAJL66S4D5HXF89D7", "current_trial": 77, "dateTime": 1510777484976, "trialdata": {"rt": [2994, 4352, 9602, 12087, 14308, 16002, 18319, 20446], "responses": ["15", "5", "21", "16", "15", "12", "13", "10"], "num1": [8, 2, 4, 4, 5, 9, 7, 3, 6], "num2": [1, 1, 9, 5, 7, 1, 5, 1, 8], "num3": [6, 2, 8, 7, 3, 2, 1, 6, 3], "type": "DISTRACTOR", "conditions": [24, 1600, "a", 24000], "trial": 2, "trial_type": "math-distractor", "trial_index": 77, "time_elapsed": 423577, "internal_node_id": "0.0-59.0"}}, {"uniqueid": "MTK0374:3E7TUJ2EGDTGBIAJL66S4D5HXF89D7", "current_trial": 78, "dateTime": 1510777487976, "trialdata": {"rt": -1, "stimulus": "<p id=\"stim\">10</p>", "key_press": -1, "trial_type": "single-stim", "trial_index": 78, "time_elapsed": 426578, "internal_node_id": "0.0-60.0-0.0"}}, {"uniqueid": "MTK0374:3E7TUJ2EGDTGBIAJL66S4D5HXF89D7", "current_trial": 79, "dateTime": 1510777488980, "trialdata": {"rt": -1, "stimulus": "<p id=\"stim\">9</p>", "key_press": -1, "trial_type": "single-stim", "trial_index": 79, "time_elapsed": 427581, "internal_node_id": "0.0-60.0-1.0"}}, {"uniqueid": "MTK0374:3E7TUJ2EGDTGBIAJL66S4D5HXF89D7", "current_trial": 80, "dateTime": 1510777489982, "trialdata": {"rt": -1, "stimulus": "<p id=\"stim\">8</p>", "key_press": -1, "trial_type": "single-stim", "trial_index": 80, "time_elapsed": 428584, "internal_node_id": "0.0-60.0-2.0"}}, {"uniqueid": "MTK0374:3E7TUJ2EGDTGBIAJL66S4D5HXF89D7", "current_trial": 81, "dateTime": 1510777490984, "trialdata": {"rt": -1, "stimulus": "<p id=\"stim\">7</p>", "key_press": -1, "trial_type": "single-stim", "trial_index": 81, "time_elapsed": 429586, "internal_node_id": "0.0-60.0-3.0"}}, {"uniqueid": "MTK0374:3E7TUJ2EGDTGBIAJL66S4D5HXF89D7", "current_trial": 82, "dateTime": 1510777491986, "trialdata": {"rt": -1, "stimulus": "<p id=\"stim\">6</p>", "key_press": -1, "trial_type": "single-stim", "trial_index": 82, "time_elapsed": 430587, "internal_node_id": "0.0-60.0-4.0"}}, {"uniqueid": "MTK0374:3E7TUJ2EGDTGBIAJL66S4D5HXF89D7", "current_trial": 83, "dateTime": 1510777492987, "trialdata": {"rt": -1, "stimulus": "<p id=\"stim\">5</p>", "key_press": -1, "trial_type": "single-stim", "trial_index": 83, "time_elapsed": 431588, "internal_node_id": "0.0-60.0-5.0"}}, {"uniqueid": "MTK0374:3E7TUJ2EGDTGBIAJL66S4D5HXF89D7", "current_trial": 84, "dateTime": 1510777493988, "trialdata": {"rt": -1, "stimulus": "<p id=\"stim\">4</p>", "key_press": -1, "trial_type": "single-stim", "trial_index": 84, "time_elapsed": 432589, "internal_node_id": "0.0-60.0-6.0"}}, {"uniqueid": "MTK0374:3E7TUJ2EGDTGBIAJL66S4D5HXF89D7", "current_trial": 85, "dateTime": 1510777494989, "trialdata": {"rt": -1, "stimulus": "<p id=\"stim\">3</p>", "key_press": -1, "trial_type": "single-stim", "trial_index": 85, "time_elapsed": 433590, "internal_node_id": "0.0-60.0-7.0"}}, {"uniqueid": "MTK0374:3E7TUJ2EGDTGBIAJL66S4D5HXF89D7", "current_trial": 86, "dateTime": 1510777495990, "trialdata": {"rt": -1, "stimulus": "<p id=\"stim\">2</p>", "key_press": -1, "trial_type": "single-stim", "trial_index": 86, "time_elapsed": 434592, "internal_node_id": "0.0-60.0-8.0"}}, {"uniqueid": "MTK0374:3E7TUJ2EGDTGBIAJL66S4D5HXF89D7", "current_trial": 87, "dateTime": 1510777496991, "trialdata": {"rt": -1, "stimulus": "<p id=\"stim\">1</p>", "key_press": -1, "trial_type": "single-stim", "trial_index": 87, "time_elapsed": 435593, "internal_node_id": "0.0-60.0-9.0"}}, {"uniqueid": "MTK0374:3E7TUJ2EGDTGBIAJL66S4D5HXF89D7", "current_trial": 88, "dateTime": 1510777498492, "trialdata": {"rt": -1, "stimulus": "<p id=\"stim\">+</p>", "key_press": -1, "type": "FIXATION", "trial_type": "single-stim", "trial_index": 88, "time_elapsed": 437094, "internal_node_id": "0.0-61.0-0.0"}}, {"uniqueid": "MTK0374:3E7TUJ2EGDTGBIAJL66S4D5HXF89D7", "current_trial": 89, "dateTime": 1510777501049, "trialdata": {"rt": -1000, "stimulus": "/static/audio/wordpool/COUNTRY.wav", "key_press": -1, "type": "PRES_AUD", "word": "country", "wordID": 387, "conditions": [24, 1600, "a", 24000], "trial": 2, "serialpos": 0, "trial_type": "single-audio", "trial_index": 89, "time_elapsed": 439651, "internal_node_id": "0.0-62.0"}}, {"uniqueid": "MTK0374:3E7TUJ2EGDTGBIAJL66S4D5HXF89D7", "current_trial": 90, "dateTime": 1510777503585, "trialdata": {"rt": -1000, "stimulus": "/static/audio/wordpool/COUNTY.wav", "key_press": -1, "type": "PRES_AUD", "word": "county", "wordID": 388, "conditions": [24, 1600, "a", 24000], "trial": 2, "serialpos": 1, "trial_type": "single-audio", "trial_index": 90, "time_elapsed": 442187, "internal_node_id": "0.0-63.0"}}, {"uniqueid": "MTK0374:3E7TUJ2EGDTGBIAJL66S4D5HXF89D7", "current_trial": 91, "dateTime": 1510777506376, "trialdata": {"rt": -1000, "stimulus": "/static/audio/wordpool/BUCKET.wav", "key_press": -1, "type": "PRES_AUD", "word": "bucket", "wordID": 183, "conditions": [24, 1600, "a", 24000], "trial": 2, "serialpos": 2, "trial_type": "single-audio", "trial_index": 91, "time_elapsed": 444978, "internal_node_id": "0.0-64.0"}}, {"uniqueid": "MTK0374:3E7TUJ2EGDTGBIAJL66S4D5HXF89D7", "current_trial": 92, "dateTime": 1510777509172, "trialdata": {"rt": -1000, "stimulus": "/static/audio/wordpool/EUROPE.wav", "key_press": -1, "type": "PRES_AUD", "word": "europe", "wordID": 540, "conditions": [24, 1600, "a", 24000], "trial": 2, "serialpos": 3, "trial_type": "single-audio", "trial_index": 92, "time_elapsed": 447774, "internal_node_id": "0.0-65.0"}}, {"uniqueid": "MTK0374:3E7TUJ2EGDTGBIAJL66S4D5HXF89D7", "current_trial": 93, "dateTime": 1510777511807, "trialdata": {"rt": -1000, "stimulus": "/static/audio/wordpool/FLEET.wav", "key_press": -1, "type": "PRES_AUD", "word": "fleet", "wordID": 577, "conditions": [24, 1600, "a", 24000], "trial": 2, "serialpos": 4, "trial_type": "single-audio", "trial_index": 93, "time_elapsed": 450409, "internal_node_id": "0.0-66.0"}}, {"uniqueid": "MTK0374:3E7TUJ2EGDTGBIAJL66S4D5HXF89D7", "current_trial": 94, "dateTime": 1510777514419, "trialdata": {"rt": -1000, "stimulus": "/static/audio/wordpool/SWIMMER.wav", "key_press": -1, "type": "PRES_AUD", "word": "swimmer", "wordID": 1419, "conditions": [24, 1600, "a", 24000], "trial": 2, "serialpos": 5, "trial_type": "single-audio", "trial_index": 94, "time_elapsed": 453021, "internal_node_id": "0.0-67.0"}}, {"uniqueid": "MTK0374:3E7TUJ2EGDTGBIAJL66S4D5HXF89D7", "current_trial": 95, "dateTime": 1510777516946, "trialdata": {"rt": -1000, "stimulus": "/static/audio/wordpool/DIVER.wav", "key_press": -1, "type": "PRES_AUD", "word": "diver", "wordID": 475, "conditions": [24, 1600, "a", 24000], "trial": 2, "serialpos": 6, "trial_type": "single-audio", "trial_index": 95, "time_elapsed": 455547, "internal_node_id": "0.0-68.0"}}, {"uniqueid": "MTK0374:3E7TUJ2EGDTGBIAJL66S4D5HXF89D7", "current_trial": 96, "dateTime": 1510777519486, "trialdata": {"rt": -1000, "stimulus": "/static/audio/wordpool/LIZARD.wav", "key_press": -1, "type": "PRES_AUD", "word": "lizard", "wordID": 833, "conditions": [24, 1600, "a", 24000], "trial": 2, "serialpos": 7, "trial_type": "single-audio", "trial_index": 96, "time_elapsed": 458087, "internal_node_id": "0.0-69.0"}}, {"uniqueid": "MTK0374:3E7TUJ2EGDTGBIAJL66S4D5HXF89D7", "current_trial": 97, "dateTime": 1510777521912, "trialdata": {"rt": -1000, "stimulus": "/static/audio/wordpool/WARDROBE.wav", "key_press": -1, "type": "PRES_AUD", "word": "wardrobe", "wordID": 1586, "conditions": [24, 1600, "a", 24000], "trial": 2, "serialpos": 8, "trial_type": "single-audio", "trial_index": 97, "time_elapsed": 460514, "internal_node_id": "0.0-70.0"}}, {"uniqueid": "MTK0374:3E7TUJ2EGDTGBIAJL66S4D5HXF89D7", "current_trial": 98, "dateTime": 1510777524362, "trialdata": {"rt": -1000, "stimulus": "/static/audio/wordpool/ASIA.wav", "key_press": -1, "type": "PRES_AUD", "word": "asia", "wordID": 45, "conditions": [24, 1600, "a", 24000], "trial": 2, "serialpos": 9, "trial_type": "single-audio", "trial_index": 98, "time_elapsed": 462964, "internal_node_id": "0.0-71.0"}}, {"uniqueid": "MTK0374:3E7TUJ2EGDTGBIAJL66S4D5HXF89D7", "current_trial": 99, "dateTime": 1510777526976, "trialdata": {"rt": -1000, "stimulus": "/static/audio/wordpool/STOMACH.wav", "key_press": -1, "type": "PRES_AUD", "word": "stomach", "wordID": 1383, "conditions": [24, 1600, "a", 24000], "trial": 2, "serialpos": 10, "trial_type": "single-audio", "trial_index": 99, "time_elapsed": 465578, "internal_node_id": "0.0-72.0"}}, {"uniqueid": "MTK0374:3E7TUJ2EGDTGBIAJL66S4D5HXF89D7", "current_trial": 100, "dateTime": 1510777529763, "trialdata": {"rt": -1000, "stimulus": "/static/audio/wordpool/DINER.wav", "key_press": -1, "type": "PRES_AUD", "word": "diner", "wordID": 466, "conditions": [24, 1600, "a", 24000], "trial": 2, "serialpos": 11, "trial_type": "single-audio", "trial_index": 100, "time_elapsed": 468365, "internal_node_id": "0.0-73.0"}}, {"uniqueid": "MTK0374:3E7TUJ2EGDTGBIAJL66S4D5HXF89D7", "current_trial": 101, "dateTime": 1510777532436, "trialdata": {"rt": -1000, "stimulus": "/static/audio/wordpool/FOX.wav", "key_press": -1, "type": "PRES_AUD", "word": "fox", "wordID": 597, "conditions": [24, 1600, "a", 24000], "trial": 2, "serialpos": 12, "trial_type": "single-audio", "trial_index": 101, "time_elapsed": 471038, "internal_node_id": "0.0-74.0"}}, {"uniqueid": "MTK0374:3E7TUJ2EGDTGBIAJL66S4D5HXF89D7", "current_trial": 102, "dateTime": 1510777535099, "trialdata": {"rt": -1000, "stimulus": "/static/audio/wordpool/BRACES.wav", "key_press": -1, "type": "PRES_AUD", "word": "braces", "wordID": 163, "conditions": [24, 1600, "a", 24000], "trial": 2, "serialpos": 13, "trial_type": "single-audio", "trial_index": 102, "time_elapsed": 473701, "internal_node_id": "0.0-75.0"}}, {"uniqueid": "MTK0374:3E7TUJ2EGDTGBIAJL66S4D5HXF89D7", "current_trial": 103, "dateTime": 1510777537509, "trialdata": {"rt": -1000, "stimulus": "/static/audio/wordpool/COFFEE.wav", "key_press": -1, "type": "PRES_AUD", "word": "coffee", "wordID": 340, "conditions": [24, 1600, "a", 24000], "trial": 2, "serialpos": 14, "trial_type": "single-audio", "trial_index": 103, "time_elapsed": 476111, "internal_node_id": "0.0-76.0"}}, {"uniqueid": "MTK0374:3E7TUJ2EGDTGBIAJL66S4D5HXF89D7", "current_trial": 104, "dateTime": 1510777540255, "trialdata": {"rt": -1000, "stimulus": "/static/audio/wordpool/PADDING.wav", "key_press": -1, "type": "PRES_AUD", "word": "padding", "wordID": 998, "conditions": [24, 1600, "a", 24000], "trial": 2, "serialpos": 15, "trial_type": "single-audio", "trial_index": 104, "time_elapsed": 478857, "internal_node_id": "0.0-77.0"}}, {"uniqueid": "MTK0374:3E7TUJ2EGDTGBIAJL66S4D5HXF89D7", "current_trial": 105, "dateTime": 1510777542678, "trialdata": {"rt": -1000, "stimulus": "/static/audio/wordpool/POSTAGE.wav", "key_press": -1, "type": "PRES_AUD", "word": "postage", "wordID": 1112, "conditions": [24, 1600, "a", 24000], "trial": 2, "serialpos": 16, "trial_type": "single-audio", "trial_index": 105, "time_elapsed": 481279, "internal_node_id": "0.0-78.0"}}, {"uniqueid": "MTK0374:3E7TUJ2EGDTGBIAJL66S4D5HXF89D7", "current_trial": 106, "dateTime": 1510777545322, "trialdata": {"rt": -1000, "stimulus": "/static/audio/wordpool/STOVE.wav", "key_press": -1, "type": "PRES_AUD", "word": "stove", "wordID": 1387, "conditions": [24, 1600, "a", 24000], "trial": 2, "serialpos": 17, "trial_type": "single-audio", "trial_index": 106, "time_elapsed": 483924, "internal_node_id": "0.0-79.0"}}, {"uniqueid": "MTK0374:3E7TUJ2EGDTGBIAJL66S4D5HXF89D7", "current_trial": 107, "dateTime": 1510777547725, "trialdata": {"rt": -1000, "stimulus": "/static/audio/wordpool/COOK.wav", "key_press": -1, "type": "PRES_AUD", "word": "cook", "wordID": 371, "conditions": [24, 1600, "a", 24000], "trial": 2, "serialpos": 18, "trial_type": "single-audio", "trial_index": 107, "time_elapsed": 486327, "internal_node_id": "0.0-80.0"}}, {"uniqueid": "MTK0374:3E7TUJ2EGDTGBIAJL66S4D5HXF89D7", "current_trial": 108, "dateTime": 1510777550249, "trialdata": {"rt": -1000, "stimulus": "/static/audio/wordpool/WORKER.wav", "key_press": -1, "type": "PRES_AUD", "word": "worker", "wordID": 1620, "conditions": [24, 1600, "a", 24000], "trial": 2, "serialpos": 19, "trial_type": "single-audio", "trial_index": 108, "time_elapsed": 488851, "internal_node_id": "0.0-81.0"}}, {"uniqueid": "MTK0374:3E7TUJ2EGDTGBIAJL66S4D5HXF89D7", "current_trial": 109, "dateTime": 1510777552856, "trialdata": {"rt": -1000, "stimulus": "/static/audio/wordpool/HUMAN.wav", "key_press": -1, "type": "PRES_AUD", "word": "human", "wordID": 725, "conditions": [24, 1600, "a", 24000], "trial": 2, "serialpos": 20, "trial_type": "single-audio", "trial_index": 109, "time_elapsed": 491458, "internal_node_id": "0.0-82.0"}}, {"uniqueid": "MTK0374:3E7TUJ2EGDTGBIAJL66S4D5HXF89D7", "current_trial": 110, "dateTime": 1510777555312, "trialdata": {"rt": -1000, "stimulus": "/static/audio/wordpool/HAMPER.wav", "key_press": -1, "type": "PRES_AUD", "word": "hamper", "wordID": 681, "conditions": [24, 1600, "a", 24000], "trial": 2, "serialpos": 21, "trial_type": "single-audio", "trial_index": 110, "time_elapsed": 493914, "internal_node_id": "0.0-83.0"}}, {"uniqueid": "MTK0374:3E7TUJ2EGDTGBIAJL66S4D5HXF89D7", "current_trial": 111, "dateTime": 1510777558073, "trialdata": {"rt": -1000, "stimulus": "/static/audio/wordpool/KLEENEX.wav", "key_press": -1, "type": "PRES_AUD", "word": "kleenex", "wordID": 781, "conditions": [24, 1600, "a", 24000], "trial": 2, "serialpos": 22, "trial_type": "single-audio", "trial_index": 111, "time_elapsed": 496675, "internal_node_id": "0.0-84.0"}}, {"uniqueid": "MTK0374:3E7TUJ2EGDTGBIAJL66S4D5HXF89D7", "current_trial": 112, "dateTime": 1510777560531, "trialdata": {"rt": -1000, "stimulus": "/static/audio/wordpool/SODA.wav", "key_press": -1, "type": "PRES_AUD", "word": "soda", "wordID": 1340, "conditions": [24, 1600, "a", 24000], "trial": 2, "serialpos": 23, "trial_type": "single-audio", "trial_index": 112, "time_elapsed": 499133, "internal_node_id": "0.0-85.0"}}, {"uniqueid": "MTK0374:3E7TUJ2EGDTGBIAJL66S4D5HXF89D7", "current_trial": 113, "dateTime": 1510777561782, "trialdata": {"rt": -1, "stimulus": "", "key_press": -1, "type": "PRE_RECALL_DELAY", "trial_type": "single-stim", "trial_index": 113, "time_elapsed": 500384, "internal_node_id": "0.0-86.0-0.0"}}, {"uniqueid": "MTK0374:3E7TUJ2EGDTGBIAJL66S4D5HXF89D7", "current_trial": 114, "dateTime": 1510777562283, "trialdata": {"rt": -1000, "stimulus": "/static/audio/400Hz.wav", "key_press": -1, "type": "PRE_RECALL_ALERT", "trial_type": "single-audio", "trial_index": 114, "time_elapsed": 500885, "internal_node_id": "0.0-87.0"}}, {"uniqueid": "MTK0374:3E7TUJ2EGDTGBIAJL66S4D5HXF89D7", "current_trial": 115, "dateTime": 1510777622289, "trialdata": {"rt": [3217, 5119, 6941, 7875, 13295, 16689], "recwords": ["cleanex", "soda", "hamper", "asia", "badge", "blanket"], "type": "FREE_RECALL", "conditions": [24, 1600, "a", 24000], "trial": 2, "trial_type": "free-recall", "trial_index": 115, "time_elapsed": 560888, "internal_node_id": "0.0-88.0-0.0"}}, {"uniqueid": "MTK0374:3E7TUJ2EGDTGBIAJL66S4D5HXF89D7", "current_trial": 116, "dateTime": 1510777626023, "trialdata": {"rt": 1733, "key_press": 72, "type": "INSTRUCTIONS", "trial_type": "text", "trial_index": 116, "time_elapsed": 564625, "internal_node_id": "0.0-89.0"}}, {"uniqueid": "MTK0374:3E7TUJ2EGDTGBIAJL66S4D5HXF89D7", "current_trial": 117, "dateTime": 1510777640028, "trialdata": {"rt": [4036, 8295, 10629], "responses": ["14", "22", "15"], "num1": [7, 9, 3, 4], "num2": [1, 5, 9, 1], "num3": [6, 8, 3, 9], "type": "DISTRACTOR", "conditions": [12, 800, "a", 12000], "trial": 3, "trial_type": "math-distractor", "trial_index": 117, "time_elapsed": 578630, "internal_node_id": "0.0-90.0"}}, {"uniqueid": "MTK0374:3E7TUJ2EGDTGBIAJL66S4D5HXF89D7", "current_trial": 118, "dateTime": 1510777643029, "trialdata": {"rt": -1, "stimulus": "<p id=\"stim\">10</p>", "key_press": -1, "trial_type": "single-stim", "trial_index": 118, "time_elapsed": 581631, "internal_node_id": "0.0-91.0-0.0"}}, {"uniqueid": "MTK0374:3E7TUJ2EGDTGBIAJL66S4D5HXF89D7", "current_trial": 119, "dateTime": 1510777644030, "trialdata": {"rt": -1, "stimulus": "<p id=\"stim\">9</p>", "key_press": -1, "trial_type": "single-stim", "trial_index": 119, "time_elapsed": 582632, "internal_node_id": "0.0-91.0-1.0"}}, {"uniqueid": "MTK0374:3E7TUJ2EGDTGBIAJL66S4D5HXF89D7", "current_trial": 120, "dateTime": 1510777645031, "trialdata": {"rt": -1, "stimulus": "<p id=\"stim\">8</p>", "key_press": -1, "trial_type": "single-stim", "trial_index": 120, "time_elapsed": 583633, "internal_node_id": "0.0-91.0-2.0"}}, {"uniqueid": "MTK0374:3E7TUJ2EGDTGBIAJL66S4D5HXF89D7", "current_trial": 121, "dateTime": 1510777646032, "trialdata": {"rt": -1, "stimulus": "<p id=\"stim\">7</p>", "key_press": -1, "trial_type": "single-stim", "trial_index": 121, "time_elapsed": 584634, "internal_node_id": "0.0-91.0-3.0"}}, {"uniqueid": "MTK0374:3E7TUJ2EGDTGBIAJL66S4D5HXF89D7", "current_trial": 122, "dateTime": 1510777647047, "trialdata": {"rt": -1, "stimulus": "<p id=\"stim\">6</p>", "key_press": -1, "trial_type": "single-stim", "trial_index": 122, "time_elapsed": 585649, "internal_node_id": "0.0-91.0-4.0"}}, {"uniqueid": "MTK0374:3E7TUJ2EGDTGBIAJL66S4D5HXF89D7", "current_trial": 123, "dateTime": 1510777648048, "trialdata": {"rt": -1, "stimulus": "<p id=\"stim\">5</p>", "key_press": -1, "trial_type": "single-stim", "trial_index": 123, "time_elapsed": 586650, "internal_node_id": "0.0-91.0-5.0"}}, {"uniqueid": "MTK0374:3E7TUJ2EGDTGBIAJL66S4D5HXF89D7", "current_trial": 124, "dateTime": 1510777649049, "trialdata": {"rt": -1, "stimulus": "<p id=\"stim\">4</p>", "key_press": -1, "trial_type": "single-stim", "trial_index": 124, "time_elapsed": 587651, "internal_node_id": "0.0-91.0-6.0"}}, {"uniqueid": "MTK0374:3E7TUJ2EGDTGBIAJL66S4D5HXF89D7", "current_trial": 125, "dateTime": 1510777650050, "trialdata": {"rt": -1, "stimulus": "<p id=\"stim\">3</p>", "key_press": -1, "trial_type": "single-stim", "trial_index": 125, "time_elapsed": 588652, "internal_node_id": "0.0-91.0-7.0"}}, {"uniqueid": "MTK0374:3E7TUJ2EGDTGBIAJL66S4D5HXF89D7", "current_trial": 126, "dateTime": 1510777651051, "trialdata": {"rt": -1, "stimulus": "<p id=\"stim\">2</p>", "key_press": -1, "trial_type": "single-stim", "trial_index": 126, "time_elapsed": 589653, "internal_node_id": "0.0-91.0-8.0"}}, {"uniqueid": "MTK0374:3E7TUJ2EGDTGBIAJL66S4D5HXF89D7", "current_trial": 127, "dateTime": 1510777652052, "trialdata": {"rt": -1, "stimulus": "<p id=\"stim\">1</p>", "key_press": -1, "trial_type": "single-stim", "trial_index": 127, "time_elapsed": 590654, "internal_node_id": "0.0-91.0-9.0"}}, {"uniqueid": "MTK0374:3E7TUJ2EGDTGBIAJL66S4D5HXF89D7", "current_trial": 128, "dateTime": 1510777653553, "trialdata": {"rt": -1, "stimulus": "<p id=\"stim\">+</p>", "key_press": -1, "type": "FIXATION", "trial_type": "single-stim", "trial_index": 128, "time_elapsed": 592155, "internal_node_id": "0.0-92.0-0.0"}}, {"uniqueid": "MTK0374:3E7TUJ2EGDTGBIAJL66S4D5HXF89D7", "current_trial": 129, "dateTime": 1510777655378, "trialdata": {"rt": -1000, "stimulus": "/static/audio/wordpool/MAMMAL.wav", "key_press": -1, "type": "PRES_AUD", "word": "mammal", "wordID": 860, "conditions": [12, 800, "a", 12000], "trial": 3, "serialpos": 0, "trial_type": "single-audio", "trial_index": 129, "time_elapsed": 593980, "internal_node_id": "0.0-93.0"}}, {"uniqueid": "MTK0374:3E7TUJ2EGDTGBIAJL66S4D5HXF89D7", "current_trial": 130, "dateTime": 1510777657345, "trialdata": {"rt": -1000, "stimulus": "/static/audio/wordpool/ATLAS.wav", "key_press": -1, "type": "PRES_AUD", "word": "atlas", "wordID": 52, "conditions": [12, 800, "a", 12000], "trial": 3, "serialpos": 1, "trial_type": "single-audio", "trial_index": 130, "time_elapsed": 595947, "internal_node_id": "0.0-94.0"}}, {"uniqueid": "MTK0374:3E7TUJ2EGDTGBIAJL66S4D5HXF89D7", "current_trial": 131, "dateTime": 1510777659195, "trialdata": {"rt": -1000, "stimulus": "/static/audio/wordpool/HELMET.wav", "key_press": -1, "type": "PRES_AUD", "word": "helmet", "wordID": 701, "conditions": [12, 800, "a", 12000], "trial": 3, "serialpos": 2, "trial_type": "single-audio", "trial_index": 131, "time_elapsed": 597797, "internal_node_id": "0.0-95.0"}}, {"uniqueid": "MTK0374:3E7TUJ2EGDTGBIAJL66S4D5HXF89D7", "current_trial": 132, "dateTime": 1510777661057, "trialdata": {"rt": -1000, "stimulus": "/static/audio/wordpool/COLLEGE.wav", "key_press": -1, "type": "PRES_AUD", "word": "college", "wordID": 345, "conditions": [12, 800, "a", 12000], "trial": 3, "serialpos": 3, "trial_type": "single-audio", "trial_index": 132, "time_elapsed": 599658, "internal_node_id": "0.0-96.0"}}, {"uniqueid": "MTK0374:3E7TUJ2EGDTGBIAJL66S4D5HXF89D7", "current_trial": 133, "dateTime": 1510777662666, "trialdata": {"rt": -1000, "stimulus": "/static/audio/wordpool/STUDENT.wav", "key_press": -1, "type": "PRES_AUD", "word": "student", "wordID": 1394, "conditions": [12, 800, "a", 12000], "trial": 3, "serialpos": 4, "trial_type": "single-audio", "trial_index": 133, "time_elapsed": 601267, "internal_node_id": "0.0-97.0"}}, {"uniqueid": "MTK0374:3E7TUJ2EGDTGBIAJL66S4D5HXF89D7", "current_trial": 134, "dateTime": 1510777664523, "trialdata": {"rt": -1000, "stimulus": "/static/audio/wordpool/LETTUCE.wav", "key_press": -1, "type": "PRES_AUD", "word": "lettuce", "wordID": 813, "conditions": [12, 800, "a", 12000], "trial": 3, "serialpos": 5, "trial_type": "single-audio", "trial_index": 134, "time_elapsed": 603125, "internal_node_id": "0.0-98.0"}}, {"uniqueid": "MTK0374:3E7TUJ2EGDTGBIAJL66S4D5HXF89D7", "current_trial": 135, "dateTime": 1510777666214, "trialdata": {"rt": -1000, "stimulus": "/static/audio/wordpool/SCISSORS.wav", "key_press": -1, "type": "PRES_AUD", "word": "scissors", "wordID": 1249, "conditions": [12, 800, "a", 12000], "trial": 3, "serialpos": 6, "trial_type": "single-audio", "trial_index": 135, "time_elapsed": 604816, "internal_node_id": "0.0-99.0"}}, {"uniqueid": "MTK0374:3E7TUJ2EGDTGBIAJL66S4D5HXF89D7", "current_trial": 136, "dateTime": 1510777668152, "trialdata": {"rt": -1000, "stimulus": "/static/audio/wordpool/ATOM.wav", "key_press": -1, "type": "PRES_AUD", "word": "atom", "wordID": 54, "conditions": [12, 800, "a", 12000], "trial": 3, "serialpos": 7, "trial_type": "single-audio", "trial_index": 136, "time_elapsed": 606754, "internal_node_id": "0.0-100.0"}}, {"uniqueid": "MTK0374:3E7TUJ2EGDTGBIAJL66S4D5HXF89D7", "current_trial": 137, "dateTime": 1510777670080, "trialdata": {"rt": -1000, "stimulus": "/static/audio/wordpool/TRIBE.wav", "key_press": -1, "type": "PRES_AUD", "word": "tribe", "wordID": 1504, "conditions": [12, 800, "a", 12000], "trial": 3, "serialpos": 8, "trial_type": "single-audio", "trial_index": 137, "time_elapsed": 608682, "internal_node_id": "0.0-101.0"}}, {"uniqueid": "MTK0374:3E7TUJ2EGDTGBIAJL66S4D5HXF89D7", "current_trial": 138, "dateTime": 1510777672021, "trialdata": {"rt": -1000, "stimulus": "/static/audio/wordpool/ONION.wav", "key_press": -1, "type": "PRES_AUD", "word": "onion", "wordID": 976, "conditions": [12, 800, "a", 12000], "trial": 3, "serialpos": 9, "trial_type": "single-audio", "trial_index": 138, "time_elapsed": 610623, "internal_node_id": "0.0-102.0"}}, {"uniqueid": "MTK0374:3E7TUJ2EGDTGBIAJL66S4D5HXF89D7", "current_trial": 139, "dateTime": 1510777673807, "trialdata": {"rt": -1000, "stimulus": "/static/audio/wordpool/CAMEL.wav", "key_press": -1, "type": "PRES_AUD", "word": "camel", "wordID": 222, "conditions": [12, 800, "a", 12000], "trial": 3, "serialpos": 10, "trial_type": "single-audio", "trial_index": 139, "time_elapsed": 612409, "internal_node_id": "0.0-103.0"}}, {"uniqueid": "MTK0374:3E7TUJ2EGDTGBIAJL66S4D5HXF89D7", "current_trial": 140, "dateTime": 1510777675770, "trialdata": {"rt": -1000, "stimulus": "/static/audio/wordpool/BUREAU.wav", "key_press": -1, "type": "PRES_AUD", "word": "bureau", "wordID": 198, "conditions": [12, 800, "a", 12000], "trial": 3, "serialpos": 11, "trial_type": "single-audio", "trial_index": 140, "time_elapsed": 614372, "internal_node_id": "0.0-104.0"}}, {"uniqueid": "MTK0374:3E7TUJ2EGDTGBIAJL66S4D5HXF89D7", "current_trial": 141, "dateTime": 1510777677110, "trialdata": {"rt": -1, "stimulus": "", "key_press": -1, "type": "PRE_RECALL_DELAY", "trial_type": "single-stim", "trial_index": 141, "time_elapsed": 615712, "internal_node_id": "0.0-105.0-0.0"}}, {"uniqueid": "MTK0374:3E7TUJ2EGDTGBIAJL66S4D5HXF89D7", "current_trial": 142, "dateTime": 1510777677612, "trialdata": {"rt": -1000, "stimulus": "/static/audio/400Hz.wav", "key_press": -1, "type": "PRE_RECALL_ALERT", "trial_type": "single-audio", "trial_index": 142, "time_elapsed": 616214, "internal_node_id": "0.0-106.0"}}, {"uniqueid": "MTK0374:3E7TUJ2EGDTGBIAJL66S4D5HXF89D7", "current_trial": 143, "dateTime": 1510777737618, "trialdata": {"rt": [2272, 4981, 11829, 16040, 22096], "recwords": ["atlus", "mammal", "bereu", "atlus", "county"], "type": "FREE_RECALL", "conditions": [12, 800, "a", 12000], "trial": 3, "trial_type": "free-recall", "trial_index": 143, "time_elapsed": 676217, "internal_node_id": "0.0-107.0-0.0"}}, {"uniqueid": "MTK0374:3E7TUJ2EGDTGBIAJL66S4D5HXF89D7", "current_trial": 144, "dateTime": 1510777740766, "trialdata": {"rt": 1146, "key_press": 13, "type": "INSTRUCTIONS", "trial_type": "text", "trial_index": 144, "time_elapsed": 679367, "internal_node_id": "0.0-108.0"}}, {"uniqueid": "MTK0374:3E7TUJ2EGDTGBIAJL66S4D5HXF89D7", "current_trial": 145, "dateTime": 1510777754770, "trialdata": {"rt": [3118, 5116, 6985, 8959, 11077], "responses": ["14", "15", "9", "8", "17"], "num1": [5, 5, 7, 2, 3, 9], "num2": [2, 2, 1, 3, 8, 3], "num3": [7, 8, 1, 3, 5, 2], "type": "DISTRACTOR", "conditions": [24, 800, "a", 12000], "trial": 4, "trial_type": "math-distractor", "trial_index": 145, "time_elapsed": 693372, "internal_node_id": "0.0-109.0"}}, {"uniqueid": "MTK0374:3E7TUJ2EGDTGBIAJL66S4D5HXF89D7", "current_trial": 146, "dateTime": 1510777757771, "trialdata": {"rt": -1, "stimulus": "<p id=\"stim\">10</p>", "key_press": -1, "trial_type": "single-stim", "trial_index": 146, "time_elapsed": 696373, "internal_node_id": "0.0-110.0-0.0"}}, {"uniqueid": "MTK0374:3E7TUJ2EGDTGBIAJL66S4D5HXF89D7", "current_trial": 147, "dateTime": 1510777758772, "trialdata": {"rt": -1, "stimulus": "<p id=\"stim\">9</p>", "key_press": -1, "trial_type": "single-stim", "trial_index": 147, "time_elapsed": 697374, "internal_node_id": "0.0-110.0-1.0"}}, {"uniqueid": "MTK0374:3E7TUJ2EGDTGBIAJL66S4D5HXF89D7", "current_trial": 148, "dateTime": 1510777759773, "trialdata": {"rt": -1, "stimulus": "<p id=\"stim\">8</p>", "key_press": -1, "trial_type": "single-stim", "trial_index": 148, "time_elapsed": 698375, "internal_node_id": "0.0-110.0-2.0"}}, {"uniqueid": "MTK0374:3E7TUJ2EGDTGBIAJL66S4D5HXF89D7", "current_trial": 149, "dateTime": 1510777760774, "trialdata": {"rt": -1, "stimulus": "<p id=\"stim\">7</p>", "key_press": -1, "trial_type": "single-stim", "trial_index": 149, "time_elapsed": 699376, "internal_node_id": "0.0-110.0-3.0"}}, {"uniqueid": "MTK0374:3E7TUJ2EGDTGBIAJL66S4D5HXF89D7", "current_trial": 150, "dateTime": 1510777761776, "trialdata": {"rt": -1, "stimulus": "<p id=\"stim\">6</p>", "key_press": -1, "trial_type": "single-stim", "trial_index": 150, "time_elapsed": 700377, "internal_node_id": "0.0-110.0-4.0"}}, {"uniqueid": "MTK0374:3E7TUJ2EGDTGBIAJL66S4D5HXF89D7", "current_trial": 151, "dateTime": 1510777762777, "trialdata": {"rt": -1, "stimulus": "<p id=\"stim\">5</p>", "key_press": -1, "trial_type": "single-stim", "trial_index": 151, "time_elapsed": 701379, "internal_node_id": "0.0-110.0-5.0"}}, {"uniqueid": "MTK0374:3E7TUJ2EGDTGBIAJL66S4D5HXF89D7", "current_trial": 152, "dateTime": 1510777763778, "trialdata": {"rt": -1, "stimulus": "<p id=\"stim\">4</p>", "key_press": -1, "trial_type": "single-stim", "trial_index": 152, "time_elapsed": 702380, "internal_node_id": "0.0-110.0-6.0"}}, {"uniqueid": "MTK0374:3E7TUJ2EGDTGBIAJL66S4D5HXF89D7", "current_trial": 153, "dateTime": 1510777764779, "trialdata": {"rt": -1, "stimulus": "<p id=\"stim\">3</p>", "key_press": -1, "trial_type": "single-stim", "trial_index": 153, "time_elapsed": 703381, "internal_node_id": "0.0-110.0-7.0"}}, {"uniqueid": "MTK0374:3E7TUJ2EGDTGBIAJL66S4D5HXF89D7", "current_trial": 154, "dateTime": 1510777765780, "trialdata": {"rt": -1, "stimulus": "<p id=\"stim\">2</p>", "key_press": -1, "trial_type": "single-stim", "trial_index": 154, "time_elapsed": 704382, "internal_node_id": "0.0-110.0-8.0"}}, {"uniqueid": "MTK0374:3E7TUJ2EGDTGBIAJL66S4D5HXF89D7", "current_trial": 155, "dateTime": 1510777766781, "trialdata": {"rt": -1, "stimulus": "<p id=\"stim\">1</p>", "key_press": -1, "trial_type": "single-stim", "trial_index": 155, "time_elapsed": 705383, "internal_node_id": "0.0-110.0-9.0"}}, {"uniqueid": "MTK0374:3E7TUJ2EGDTGBIAJL66S4D5HXF89D7", "current_trial": 156, "dateTime": 1510777768282, "trialdata": {"rt": -1, "stimulus": "<p id=\"stim\">+</p>", "key_press": -1, "type": "FIXATION", "trial_type": "single-stim", "trial_index": 156, "time_elapsed": 706884, "internal_node_id": "0.0-111.0-0.0"}}, {"uniqueid": "MTK0374:3E7TUJ2EGDTGBIAJL66S4D5HXF89D7", "current_trial": 157, "dateTime": 1510777770248, "trialdata": {"rt": -1000, "stimulus": "/static/audio/wordpool/RIVER.wav", "key_press": -1, "type": "PRES_AUD", "word": "river", "wordID": 1193, "conditions": [24, 800, "a", 12000], "trial": 4, "serialpos": 0, "trial_type": "single-audio", "trial_index": 157, "time_elapsed": 708850, "internal_node_id": "0.0-112.0"}}, {"uniqueid": "MTK0374:3E7TUJ2EGDTGBIAJL66S4D5HXF89D7", "current_trial": 158, "dateTime": 1510777771855, "trialdata": {"rt": -1000, "stimulus": "/static/audio/wordpool/OUTFIT.wav", "key_press": -1, "type": "PRES_AUD", "word": "outfit", "wordID": 987, "conditions": [24, 800, "a", 12000], "trial": 4, "serialpos": 1, "trial_type": "single-audio", "trial_index": 158, "time_elapsed": 710457, "internal_node_id": "0.0-113.0"}}, {"uniqueid": "MTK0374:3E7TUJ2EGDTGBIAJL66S4D5HXF89D7", "current_trial": 159, "dateTime": 1510777773592, "trialdata": {"rt": -1000, "stimulus": "/static/audio/wordpool/SUPPER.wav", "key_press": -1, "type": "PRES_AUD", "word": "supper", "wordID": 1410, "conditions": [24, 800, "a", 12000], "trial": 4, "serialpos": 2, "trial_type": "single-audio", "trial_index": 159, "time_elapsed": 712194, "internal_node_id": "0.0-114.0"}}, {"uniqueid": "MTK0374:3E7TUJ2EGDTGBIAJL66S4D5HXF89D7", "current_trial": 160, "dateTime": 1510777775573, "trialdata": {"rt": -1000, "stimulus": "/static/audio/wordpool/BANQUET.wav", "key_press": -1, "type": "PRES_AUD", "word": "banquet", "wordID": 85, "conditions": [24, 800, "a", 12000], "trial": 4, "serialpos": 3, "trial_type": "single-audio", "trial_index": 160, "time_elapsed": 714175, "internal_node_id": "0.0-115.0"}}, {"uniqueid": "MTK0374:3E7TUJ2EGDTGBIAJL66S4D5HXF89D7", "current_trial": 161, "dateTime": 1510777777427, "trialdata": {"rt": -1000, "stimulus": "/static/audio/wordpool/VENUS.wav", "key_press": -1, "type": "PRES_AUD", "word": "venus", "wordID": 1556, "conditions": [24, 800, "a", 12000], "trial": 4, "serialpos": 4, "trial_type": "single-audio", "trial_index": 161, "time_elapsed": 716028, "internal_node_id": "0.0-116.0"}}, {"uniqueid": "MTK0374:3E7TUJ2EGDTGBIAJL66S4D5HXF89D7", "current_trial": 162, "dateTime": 1510777779312, "trialdata": {"rt": -1000, "stimulus": "/static/audio/wordpool/BROOK.wav", "key_press": -1, "type": "PRES_AUD", "word": "brook", "wordID": 176, "conditions": [24, 800, "a", 12000], "trial": 4, "serialpos": 5, "trial_type": "single-audio", "trial_index": 162, "time_elapsed": 717913, "internal_node_id": "0.0-117.0"}}, {"uniqueid": "MTK0374:3E7TUJ2EGDTGBIAJL66S4D5HXF89D7", "current_trial": 163, "dateTime": 1510777781280, "trialdata": {"rt": -1000, "stimulus": "/static/audio/wordpool/NOTEBOOK.wav", "key_press": -1, "type": "PRES_AUD", "word": "notebook", "wordID": 958, "conditions": [24, 800, "a", 12000], "trial": 4, "serialpos": 6, "trial_type": "single-audio", "trial_index": 163, "time_elapsed": 719881, "internal_node_id": "0.0-118.0"}}, {"uniqueid": "MTK0374:3E7TUJ2EGDTGBIAJL66S4D5HXF89D7", "current_trial": 164, "dateTime": 1510777783019, "trialdata": {"rt": -1000, "stimulus": "/static/audio/wordpool/POCKET.wav", "key_press": -1, "type": "PRES_AUD", "word": "pocket", "wordID": 1092, "conditions": [24, 800, "a", 12000], "trial": 4, "serialpos": 7, "trial_type": "single-audio", "trial_index": 164, "time_elapsed": 721620, "internal_node_id": "0.0-119.0"}}, {"uniqueid": "MTK0374:3E7TUJ2EGDTGBIAJL66S4D5HXF89D7", "current_trial": 165, "dateTime": 1510777784906, "trialdata": {"rt": -1000, "stimulus": "/static/audio/wordpool/BEAKER.wav", "key_press": -1, "type": "PRES_AUD", "word": "beaker", "wordID": 103, "conditions": [24, 800, "a", 12000], "trial": 4, "serialpos": 8, "trial_type": "single-audio", "trial_index": 165, "time_elapsed": 723508, "internal_node_id": "0.0-120.0"}}, {"uniqueid": "MTK0374:3E7TUJ2EGDTGBIAJL66S4D5HXF89D7", "current_trial": 166, "dateTime": 1510777786605, "trialdata": {"rt": -1000, "stimulus": "/static/audio/wordpool/BROTHER.wav", "key_press": -1, "type": "PRES_AUD", "word": "brother", "wordID": 178, "conditions": [24, 800, "a", 12000], "trial": 4, "serialpos": 9, "trial_type": "single-audio", "trial_index": 166, "time_elapsed": 725207, "internal_node_id": "0.0-121.0"}}, {"uniqueid": "MTK0374:3E7TUJ2EGDTGBIAJL66S4D5HXF89D7", "current_trial": 167, "dateTime": 1510777788424, "trialdata": {"rt": -1000, "stimulus": "/static/audio/wordpool/BLOUSE.wav", "key_press": -1, "type": "PRES_AUD", "word": "blouse", "wordID": 138, "conditions": [24, 800, "a", 12000], "trial": 4, "serialpos": 10, "trial_type": "single-audio", "trial_index": 167, "time_elapsed": 727026, "internal_node_id": "0.0-122.0"}}, {"uniqueid": "MTK0374:3E7TUJ2EGDTGBIAJL66S4D5HXF89D7", "current_trial": 168, "dateTime": 1510777790339, "trialdata": {"rt": -1000, "stimulus": "/static/audio/wordpool/PERMIT.wav", "key_press": -1, "type": "PRES_AUD", "word": "permit", "wordID": 1050, "conditions": [24, 800, "a", 12000], "trial": 4, "serialpos": 11, "trial_type": "single-audio", "trial_index": 168, "time_elapsed": 728941, "internal_node_id": "0.0-123.0"}}, {"uniqueid": "MTK0374:3E7TUJ2EGDTGBIAJL66S4D5HXF89D7", "current_trial": 169, "dateTime": 1510777792032, "trialdata": {"rt": -1000, "stimulus": "/static/audio/wordpool/JUDGE.wav", "key_press": -1, "type": "PRES_AUD", "word": "judge", "wordID": 760, "conditions": [24, 800, "a", 12000], "trial": 4, "serialpos": 12, "trial_type": "single-audio", "trial_index": 169, "time_elapsed": 730634, "internal_node_id": "0.0-124.0"}}, {"uniqueid": "MTK0374:3E7TUJ2EGDTGBIAJL66S4D5HXF89D7", "current_trial": 170, "dateTime": 1510777793754, "trialdata": {"rt": -1000, "stimulus": "/static/audio/wordpool/STREAM.wav", "key_press": -1, "type": "PRES_AUD", "word": "stream", "wordID": 1391, "conditions": [24, 800, "a", 12000], "trial": 4, "serialpos": 13, "trial_type": "single-audio", "trial_index": 170, "time_elapsed": 732356, "internal_node_id": "0.0-125.0"}}, {"uniqueid": "MTK0374:3E7TUJ2EGDTGBIAJL66S4D5HXF89D7", "current_trial": 171, "dateTime": 1510777795674, "trialdata": {"rt": -1000, "stimulus": "/static/audio/wordpool/SHIRT.wav", "key_press": -1, "type": "PRES_AUD", "word": "shirt", "wordID": 1286, "conditions": [24, 800, "a", 12000], "trial": 4, "serialpos": 14, "trial_type": "single-audio", "trial_index": 171, "time_elapsed": 734276, "internal_node_id": "0.0-126.0"}}, {"uniqueid": "MTK0374:3E7TUJ2EGDTGBIAJL66S4D5HXF89D7", "current_trial": 172, "dateTime": 1510777797611, "trialdata": {"rt": -1000, "stimulus": "/static/audio/wordpool/WIFE.wav", "key_press": -1, "type": "PRES_AUD", "word": "wife", "wordID": 1608, "conditions": [24, 800, "a", 12000], "trial": 4, "serialpos": 15, "trial_type": "single-audio", "trial_index": 172, "time_elapsed": 736213, "internal_node_id": "0.0-127.0"}}, {"uniqueid": "MTK0374:3E7TUJ2EGDTGBIAJL66S4D5HXF89D7", "current_trial": 173, "dateTime": 1510777799564, "trialdata": {"rt": -1000, "stimulus": "/static/audio/wordpool/DAUGHTER.wav", "key_press": -1, "type": "PRES_AUD", "word": "daughter", "wordID": 441, "conditions": [24, 800, "a", 12000], "trial": 4, "serialpos": 16, "trial_type": "single-audio", "trial_index": 173, "time_elapsed": 738166, "internal_node_id": "0.0-128.0"}}, {"uniqueid": "MTK0374:3E7TUJ2EGDTGBIAJL66S4D5HXF89D7", "current_trial": 174, "dateTime": 1510777801527, "trialdata": {"rt": -1000, "stimulus": "/static/audio/wordpool/TILE.wav", "key_press": -1, "type": "PRES_AUD", "word": "tile", "wordID": 1467, "conditions": [24, 800, "a", 12000], "trial": 4, "serialpos": 17, "trial_type": "single-audio", "trial_index": 174, "time_elapsed": 740128, "internal_node_id": "0.0-129.0"}}, {"uniqueid": "MTK0374:3E7TUJ2EGDTGBIAJL66S4D5HXF89D7", "current_trial": 175, "dateTime": 1510777803342, "trialdata": {"rt": -1000, "stimulus": "/static/audio/wordpool/MACHINE.wav", "key_press": -1, "type": "PRES_AUD", "word": "machine", "wordID": 851, "conditions": [24, 800, "a", 12000], "trial": 4, "serialpos": 18, "trial_type": "single-audio", "trial_index": 175, "time_elapsed": 741943, "internal_node_id": "0.0-130.0"}}, {"uniqueid": "MTK0374:3E7TUJ2EGDTGBIAJL66S4D5HXF89D7", "current_trial": 176, "dateTime": 1510777805202, "trialdata": {"rt": -1000, "stimulus": "/static/audio/wordpool/RAFT.wav", "key_press": -1, "type": "PRES_AUD", "word": "raft", "wordID": 1158, "conditions": [24, 800, "a", 12000], "trial": 4, "serialpos": 19, "trial_type": "single-audio", "trial_index": 176, "time_elapsed": 743803, "internal_node_id": "0.0-131.0"}}, {"uniqueid": "MTK0374:3E7TUJ2EGDTGBIAJL66S4D5HXF89D7", "current_trial": 177, "dateTime": 1510777806833, "trialdata": {"rt": -1000, "stimulus": "/static/audio/wordpool/STONE.wav", "key_press": -1, "type": "PRES_AUD", "word": "stone", "wordID": 1384, "conditions": [24, 800, "a", 12000], "trial": 4, "serialpos": 20, "trial_type": "single-audio", "trial_index": 177, "time_elapsed": 745435, "internal_node_id": "0.0-132.0"}}, {"uniqueid": "MTK0374:3E7TUJ2EGDTGBIAJL66S4D5HXF89D7", "current_trial": 178, "dateTime": 1510777808550, "trialdata": {"rt": -1000, "stimulus": "/static/audio/wordpool/JURY.wav", "key_press": -1, "type": "PRES_AUD", "word": "jury", "wordID": 765, "conditions": [24, 800, "a", 12000], "trial": 4, "serialpos": 21, "trial_type": "single-audio", "trial_index": 178, "time_elapsed": 747152, "internal_node_id": "0.0-133.0"}}, {"uniqueid": "MTK0374:3E7TUJ2EGDTGBIAJL66S4D5HXF89D7", "current_trial": 179, "dateTime": 1510777810381, "trialdata": {"rt": -1000, "stimulus": "/static/audio/wordpool/FLASK.wav", "key_press": -1, "type": "PRES_AUD", "word": "flask", "wordID": 575, "conditions": [24, 800, "a", 12000], "trial": 4, "serialpos": 22, "trial_type": "single-audio", "trial_index": 179, "time_elapsed": 748983, "internal_node_id": "0.0-134.0"}}, {"uniqueid": "MTK0374:3E7TUJ2EGDTGBIAJL66S4D5HXF89D7", "current_trial": 180, "dateTime": 1510777812311, "trialdata": {"rt": -1000, "stimulus": "/static/audio/wordpool/LAKE.wav", "key_press": -1, "type": "PRES_AUD", "word": "lake", "wordID": 795, "conditions": [24, 800, "a", 12000], "trial": 4, "serialpos": 23, "trial_type": "single-audio", "trial_index": 180, "time_elapsed": 750913, "internal_node_id": "0.0-135.0"}}, {"uniqueid": "MTK0374:3E7TUJ2EGDTGBIAJL66S4D5HXF89D7", "current_trial": 181, "dateTime": 1510777813551, "trialdata": {"rt": -1, "stimulus": "", "key_press": -1, "type": "PRE_RECALL_DELAY", "trial_type": "single-stim", "trial_index": 181, "time_elapsed": 752153, "internal_node_id": "0.0-136.0-0.0"}}, {"uniqueid": "MTK0374:3E7TUJ2EGDTGBIAJL66S4D5HXF89D7", "current_trial": 182, "dateTime": 1510777814052, "trialdata": {"rt": -1000, "stimulus": "/static/audio/400Hz.wav", "key_press": -1, "type": "PRE_RECALL_ALERT", "trial_type": "single-audio", "trial_index": 182, "time_elapsed": 752654, "internal_node_id": "0.0-137.0"}}, {"uniqueid": "MTK0374:3E7TUJ2EGDTGBIAJL66S4D5HXF89D7", "current_trial": 183, "dateTime": 1510777874059, "trialdata": {"rt": [4274, 14686, 16588, 17267, 18449, 20071, 26496], "recwords": ["river", "flask", "river", "lake", "outfit", "dinner", "banquet"], "type": "FREE_RECALL", "conditions": [24, 800, "a", 12000], "trial": 4, "trial_type": "free-recall", "trial_index": 183, "time_elapsed": 812658, "internal_node_id": "0.0-138.0-0.0"}}, {"uniqueid": "MTK0374:3E7TUJ2EGDTGBIAJL66S4D5HXF89D7", "current_trial": 184, "dateTime": 1510777878401, "trialdata": {"rt": 2342, "key_press": 83, "type": "INSTRUCTIONS", "trial_type": "text", "trial_index": 184, "time_elapsed": 817003, "internal_node_id": "0.0-139.0"}}, {"uniqueid": "MTK0374:3E7TUJ2EGDTGBIAJL66S4D5HXF89D7", "current_trial": 185, "dateTime": 1510777904405, "trialdata": {"rt": [2935, 6907, 9536, 11693, 14146, 16487, 19292, 21098, 22680], "responses": ["14", "16", "13", "11", "8", "15", "11", "9", "11"], "num1": [6, 8, 4, 6, 4, 7, 3, 4, 5, 7], "num2": [4, 7, 4, 3, 1, 5, 5, 1, 1, 9], "num3": [4, 1, 5, 2, 3, 3, 3, 4, 5, 9], "type": "DISTRACTOR", "conditions": [12, 1600, "v", 24000], "trial": 5, "trial_type": "math-distractor", "trial_index": 185, "time_elapsed": 843007, "internal_node_id": "0.0-140.0"}}, {"uniqueid": "MTK0374:3E7TUJ2EGDTGBIAJL66S4D5HXF89D7", "current_trial": 186, "dateTime": 1510777907406, "trialdata": {"rt": -1, "stimulus": "<p id=\"stim\">10</p>", "key_press": -1, "trial_type": "single-stim", "trial_index": 186, "time_elapsed": 846008, "internal_node_id": "0.0-141.0-0.0"}}, {"uniqueid": "MTK0374:3E7TUJ2EGDTGBIAJL66S4D5HXF89D7", "current_trial": 187, "dateTime": 1510777908407, "trialdata": {"rt": -1, "stimulus": "<p id=\"stim\">9</p>", "key_press": -1, "trial_type": "single-stim", "trial_index": 187, "time_elapsed": 847009, "internal_node_id": "0.0-141.0-1.0"}}, {"uniqueid": "MTK0374:3E7TUJ2EGDTGBIAJL66S4D5HXF89D7", "current_trial": 188, "dateTime": 1510777909408, "trialdata": {"rt": -1, "stimulus": "<p id=\"stim\">8</p>", "key_press": -1, "trial_type": "single-stim", "trial_index": 188, "time_elapsed": 848010, "internal_node_id": "0.0-141.0-2.0"}}, {"uniqueid": "MTK0374:3E7TUJ2EGDTGBIAJL66S4D5HXF89D7", "current_trial": 189, "dateTime": 1510777910409, "trialdata": {"rt": -1, "stimulus": "<p id=\"stim\">7</p>", "key_press": -1, "trial_type": "single-stim", "trial_index": 189, "time_elapsed": 849011, "internal_node_id": "0.0-141.0-3.0"}}, {"uniqueid": "MTK0374:3E7TUJ2EGDTGBIAJL66S4D5HXF89D7", "current_trial": 190, "dateTime": 1510777911410, "trialdata": {"rt": -1, "stimulus": "<p id=\"stim\">6</p>", "key_press": -1, "trial_type": "single-stim", "trial_index": 190, "time_elapsed": 850012, "internal_node_id": "0.0-141.0-4.0"}}, {"uniqueid": "MTK0374:3E7TUJ2EGDTGBIAJL66S4D5HXF89D7", "current_trial": 191, "dateTime": 1510777912411, "trialdata": {"rt": -1, "stimulus": "<p id=\"stim\">5</p>", "key_press": -1, "trial_type": "single-stim", "trial_index": 191, "time_elapsed": 851013, "internal_node_id": "0.0-141.0-5.0"}}, {"uniqueid": "MTK0374:3E7TUJ2EGDTGBIAJL66S4D5HXF89D7", "current_trial": 192, "dateTime": 1510777913412, "trialdata": {"rt": -1, "stimulus": "<p id=\"stim\">4</p>", "key_press": -1, "trial_type": "single-stim", "trial_index": 192, "time_elapsed": 852014, "internal_node_id": "0.0-141.0-6.0"}}, {"uniqueid": "MTK0374:3E7TUJ2EGDTGBIAJL66S4D5HXF89D7", "current_trial": 193, "dateTime": 1510777914413, "trialdata": {"rt": -1, "stimulus": "<p id=\"stim\">3</p>", "key_press": -1, "trial_type": "single-stim", "trial_index": 193, "time_elapsed": 853015, "internal_node_id": "0.0-141.0-7.0"}}, {"uniqueid": "MTK0374:3E7TUJ2EGDTGBIAJL66S4D5HXF89D7", "current_trial": 194, "dateTime": 1510777915414, "trialdata": {"rt": -1, "stimulus": "<p id=\"stim\">2</p>", "key_press": -1, "trial_type": "single-stim", "trial_index": 194, "time_elapsed": 854016, "internal_node_id": "0.0-141.0-8.0"}}, {"uniqueid": "MTK0374:3E7TUJ2EGDTGBIAJL66S4D5HXF89D7", "current_trial": 195, "dateTime": 1510777916415, "trialdata": {"rt": -1, "stimulus": "<p id=\"stim\">1</p>", "key_press": -1, "trial_type": "single-stim", "trial_index": 195, "time_elapsed": 855017, "internal_node_id": "0.0-141.0-9.0"}}, {"uniqueid": "MTK0374:3E7TUJ2EGDTGBIAJL66S4D5HXF89D7", "current_trial": 196, "dateTime": 1510777917916, "trialdata": {"rt": -1, "stimulus": "<p id=\"stim\">+</p>", "key_press": -1, "type": "FIXATION", "trial_type": "single-stim", "trial_index": 196, "time_elapsed": 856518, "internal_node_id": "0.0-142.0-0.0"}}, {"uniqueid": "MTK0374:3E7TUJ2EGDTGBIAJL66S4D5HXF89D7", "current_trial": 197, "dateTime": 1510777919517, "trialdata": {"rt": -1, "stimulus": "<p id=\"stim\">SNAKE</p>", "key_press": -1, "type": "PRES_VIS", "word": "snake", "wordID": 1332, "conditions": [12, 1600, "v", 24000], "trial": 5, "serialpos": 0, "trial_type": "single-stim", "trial_index": 197, "time_elapsed": 858119, "internal_node_id": "0.0-143.0"}}, {"uniqueid": "MTK0374:3E7TUJ2EGDTGBIAJL66S4D5HXF89D7", "current_trial": 198, "dateTime": 1510777921966, "trialdata": {"rt": -1, "stimulus": "<p id=\"stim\">TURKEY</p>", "key_press": -1, "type": "PRES_VIS", "word": "turkey", "wordID": 1519, "conditions": [12, 1600, "v", 24000], "trial": 5, "serialpos": 1, "trial_type": "single-stim", "trial_index": 198, "time_elapsed": 860567, "internal_node_id": "0.0-144.0"}}, {"uniqueid": "MTK0374:3E7TUJ2EGDTGBIAJL66S4D5HXF89D7", "current_trial": 199, "dateTime": 1510777924463, "trialdata": {"rt": -1, "stimulus": "<p id=\"stim\">PRINCESS</p>", "key_press": -1, "type": "PRES_VIS", "word": "princess", "wordID": 1124, "conditions": [12, 1600, "v", 24000], "trial": 5, "serialpos": 2, "trial_type": "single-stim", "trial_index": 199, "time_elapsed": 863065, "internal_node_id": "0.0-145.0"}}, {"uniqueid": "MTK0374:3E7TUJ2EGDTGBIAJL66S4D5HXF89D7", "current_trial": 200, "dateTime": 1510777927110, "trialdata": {"rt": -1, "stimulus": "<p id=\"stim\">TUTU</p>", "key_press": -1, "type": "PRES_VIS", "word": "tutu", "wordID": 1523, "conditions": [12, 1600, "v", 24000], "trial": 5, "serialpos": 3, "trial_type": "single-stim", "trial_index": 200, "time_elapsed": 865712, "internal_node_id": "0.0-146.0"}}, {"uniqueid": "MTK0374:3E7TUJ2EGDTGBIAJL66S4D5HXF89D7", "current_trial": 201, "dateTime": 1510777929708, "trialdata": {"rt": -1, "stimulus": "<p id=\"stim\">BUTCHER</p>", "key_press": -1, "type": "PRES_VIS", "word": "butcher", "wordID": 202, "conditions": [12, 1600, "v", 24000], "trial": 5, "serialpos": 4, "trial_type": "single-stim", "trial_index": 201, "time_elapsed": 868309, "internal_node_id": "0.0-147.0"}}, {"uniqueid": "MTK0374:3E7TUJ2EGDTGBIAJL66S4D5HXF89D7", "current_trial": 202, "dateTime": 1510777932465, "trialdata": {"rt": -1, "stimulus": "<p id=\"stim\">MAPLE</p>", "key_press": -1, "type": "PRES_VIS", "word": "maple", "wordID": 865, "conditions": [12, 1600, "v", 24000], "trial": 5, "serialpos": 5, "trial_type": "single-stim", "trial_index": 202, "time_elapsed": 871067, "internal_node_id": "0.0-148.0"}}, {"uniqueid": "MTK0374:3E7TUJ2EGDTGBIAJL66S4D5HXF89D7", "current_trial": 203, "dateTime": 1510777934867, "trialdata": {"rt": -1, "stimulus": "<p id=\"stim\">GARBAGE</p>", "key_press": -1, "type": "PRES_VIS", "word": "garbage", "wordID": 621, "conditions": [12, 1600, "v", 24000], "trial": 5, "serialpos": 6, "trial_type": "single-stim", "trial_index": 203, "time_elapsed": 873469, "internal_node_id": "0.0-149.0"}}, {"uniqueid": "MTK0374:3E7TUJ2EGDTGBIAJL66S4D5HXF89D7", "current_trial": 204, "dateTime": 1510777937411, "trialdata": {"rt": -1, "stimulus": "<p id=\"stim\">KIDNEY</p>", "key_press": -1, "type": "PRES_VIS", "word": "kidney", "wordID": 775, "conditions": [12, 1600, "v", 24000], "trial": 5, "serialpos": 7, "trial_type": "single-stim", "trial_index": 204, "time_elapsed": 876013, "internal_node_id": "0.0-150.0"}}, {"uniqueid": "MTK0374:3E7TUJ2EGDTGBIAJL66S4D5HXF89D7", "current_trial": 205, "dateTime": 1510777940143, "trialdata": {"rt": -1, "stimulus": "<p id=\"stim\">PIANO</p>", "key_press": -1, "type": "PRES_VIS", "word": "piano", "wordID": 1056, "conditions": [12, 1600, "v", 24000], "trial": 5, "serialpos": 8, "trial_type": "single-stim", "trial_index": 205, "time_elapsed": 878745, "internal_node_id": "0.0-151.0"}}, {"uniqueid": "MTK0374:3E7TUJ2EGDTGBIAJL66S4D5HXF89D7", "current_trial": 206, "dateTime": 1510777942620, "trialdata": {"rt": -1, "stimulus": "<p id=\"stim\">FLUTE</p>", "key_press": -1, "type": "PRES_VIS", "word": "flute", "wordID": 584, "conditions": [12, 1600, "v", 24000], "trial": 5, "serialpos": 9, "trial_type": "single-stim", "trial_index": 206, "time_elapsed": 881222, "internal_node_id": "0.0-152.0"}}, {"uniqueid": "MTK0374:3E7TUJ2EGDTGBIAJL66S4D5HXF89D7", "current_trial": 207, "dateTime": 1510777945406, "trialdata": {"rt": -1, "stimulus": "<p id=\"stim\">QUAIL</p>", "key_press": -1, "type": "PRES_VIS", "word": "quail", "wordID": 1146, "conditions": [12, 1600, "v", 24000], "trial": 5, "serialpos": 10, "trial_type": "single-stim", "trial_index": 207, "time_elapsed": 884007, "internal_node_id": "0.0-153.0"}}, {"uniqueid": "MTK0374:3E7TUJ2EGDTGBIAJL66S4D5HXF89D7", "current_trial": 208, "dateTime": 1510777948108, "trialdata": {"rt": -1, "stimulus": "<p id=\"stim\">CRICKET</p>", "key_press": -1, "type": "PRES_VIS", "word": "cricket", "wordID": 407, "conditions": [12, 1600, "v", 24000], "trial": 5, "serialpos": 11, "trial_type": "single-stim", "trial_index": 208, "time_elapsed": 886710, "internal_node_id": "0.0-154.0"}}, {"uniqueid": "MTK0374:3E7TUJ2EGDTGBIAJL66S4D5HXF89D7", "current_trial": 209, "dateTime": 1510777950532, "trialdata": {"rt": -1, "stimulus": "", "key_press": -1, "type": "PRE_RECALL_DELAY", "trial_type": "single-stim", "trial_index": 209, "time_elapsed": 889134, "internal_node_id": "0.0-155.0-0.0"}}, {"uniqueid": "MTK0374:3E7TUJ2EGDTGBIAJL66S4D5HXF89D7", "current_trial": 210, "dateTime": 1510777951033, "trialdata": {"rt": -1000, "stimulus": "/static/audio/400Hz.wav", "key_press": -1, "type": "PRE_RECALL_ALERT", "trial_type": "single-audio", "trial_index": 210, "time_elapsed": 889635, "internal_node_id": "0.0-156.0"}}, {"uniqueid": "MTK0374:3E7TUJ2EGDTGBIAJL66S4D5HXF89D7", "current_trial": 211, "dateTime": 1510778011038, "trialdata": {"rt": [2827, 4809, 8412, 11752, 15995], "recwords": ["cricket", "kidney", "basket", "blouse", "rake"], "type": "FREE_RECALL", "conditions": [12, 1600, "v", 24000], "trial": 5, "trial_type": "free-recall", "trial_index": 211, "time_elapsed": 949637, "internal_node_id": "0.0-157.0-0.0"}}, {"uniqueid": "MTK0374:3E7TUJ2EGDTGBIAJL66S4D5HXF89D7", "current_trial": 212, "dateTime": 1510778014742, "trialdata": {"rt": 1702, "key_press": 70, "type": "INSTRUCTIONS", "trial_type": "text", "trial_index": 212, "time_elapsed": 953344, "internal_node_id": "0.0-158.0"}}, {"uniqueid": "MTK0374:3E7TUJ2EGDTGBIAJL66S4D5HXF89D7", "current_trial": 213, "dateTime": 1510778028748, "trialdata": {"rt": [6610, 9598, 11892], "responses": ["14", "15", "10"], "num1": [3, 9, 5, 2], "num2": [8, 4, 4, 8], "num3": [3, 2, 1, 4], "type": "DISTRACTOR", "conditions": [24, 800, "v", 12000], "trial": 6, "trial_type": "math-distractor", "trial_index": 213, "time_elapsed": 967349, "internal_node_id": "0.0-159.0"}}, {"uniqueid": "MTK0374:3E7TUJ2EGDTGBIAJL66S4D5HXF89D7", "current_trial": 214, "dateTime": 1510778031749, "trialdata": {"rt": -1, "stimulus": "<p id=\"stim\">10</p>", "key_press": -1, "trial_type": "single-stim", "trial_index": 214, "time_elapsed": 970351, "internal_node_id": "0.0-160.0-0.0"}}, {"uniqueid": "MTK0374:3E7TUJ2EGDTGBIAJL66S4D5HXF89D7", "current_trial": 215, "dateTime": 1510778032751, "trialdata": {"rt": -1, "stimulus": "<p id=\"stim\">9</p>", "key_press": -1, "trial_type": "single-stim", "trial_index": 215, "time_elapsed": 971352, "internal_node_id": "0.0-160.0-1.0"}}, {"uniqueid": "MTK0374:3E7TUJ2EGDTGBIAJL66S4D5HXF89D7", "current_trial": 216, "dateTime": 1510778033751, "trialdata": {"rt": -1, "stimulus": "<p id=\"stim\">8</p>", "key_press": -1, "trial_type": "single-stim", "trial_index": 216, "time_elapsed": 972353, "internal_node_id": "0.0-160.0-2.0"}}, {"uniqueid": "MTK0374:3E7TUJ2EGDTGBIAJL66S4D5HXF89D7", "current_trial": 217, "dateTime": 1510778034752, "trialdata": {"rt": -1, "stimulus": "<p id=\"stim\">7</p>", "key_press": -1, "trial_type": "single-stim", "trial_index": 217, "time_elapsed": 973354, "internal_node_id": "0.0-160.0-3.0"}}, {"uniqueid": "MTK0374:3E7TUJ2EGDTGBIAJL66S4D5HXF89D7", "current_trial": 218, "dateTime": 1510778035753, "trialdata": {"rt": -1, "stimulus": "<p id=\"stim\">6</p>", "key_press": -1, "trial_type": "single-stim", "trial_index": 218, "time_elapsed": 974355, "internal_node_id": "0.0-160.0-4.0"}}, {"uniqueid": "MTK0374:3E7TUJ2EGDTGBIAJL66S4D5HXF89D7", "current_trial": 219, "dateTime": 1510778036754, "trialdata": {"rt": -1, "stimulus": "<p id=\"stim\">5</p>", "key_press": -1, "trial_type": "single-stim", "trial_index": 219, "time_elapsed": 975356, "internal_node_id": "0.0-160.0-5.0"}}, {"uniqueid": "MTK0374:3E7TUJ2EGDTGBIAJL66S4D5HXF89D7", "current_trial": 220, "dateTime": 1510778037756, "trialdata": {"rt": -1, "stimulus": "<p id=\"stim\">4</p>", "key_press": -1, "trial_type": "single-stim", "trial_index": 220, "time_elapsed": 976357, "internal_node_id": "0.0-160.0-6.0"}}, {"uniqueid": "MTK0374:3E7TUJ2EGDTGBIAJL66S4D5HXF89D7", "current_trial": 221, "dateTime": 1510778038757, "trialdata": {"rt": -1, "stimulus": "<p id=\"stim\">3</p>", "key_press": -1, "trial_type": "single-stim", "trial_index": 221, "time_elapsed": 977359, "internal_node_id": "0.0-160.0-7.0"}}, {"uniqueid": "MTK0374:3E7TUJ2EGDTGBIAJL66S4D5HXF89D7", "current_trial": 222, "dateTime": 1510778039758, "trialdata": {"rt": -1, "stimulus": "<p id=\"stim\">2</p>", "key_press": -1, "trial_type": "single-stim", "trial_index": 222, "time_elapsed": 978359, "internal_node_id": "0.0-160.0-8.0"}}, {"uniqueid": "MTK0374:3E7TUJ2EGDTGBIAJL66S4D5HXF89D7", "current_trial": 223, "dateTime": 1510778040759, "trialdata": {"rt": -1, "stimulus": "<p id=\"stim\">1</p>", "key_press": -1, "trial_type": "single-stim", "trial_index": 223, "time_elapsed": 979360, "internal_node_id": "0.0-160.0-9.0"}}, {"uniqueid": "MTK0374:3E7TUJ2EGDTGBIAJL66S4D5HXF89D7", "current_trial": 224, "dateTime": 1510778042260, "trialdata": {"rt": -1, "stimulus": "<p id=\"stim\">+</p>", "key_press": -1, "type": "FIXATION", "trial_type": "single-stim", "trial_index": 224, "time_elapsed": 980861, "internal_node_id": "0.0-161.0-0.0"}}, {"uniqueid": "MTK0374:3E7TUJ2EGDTGBIAJL66S4D5HXF89D7", "current_trial": 225, "dateTime": 1510778043061, "trialdata": {"rt": -1, "stimulus": "<p id=\"stim\">SUNRISE</p>", "key_press": -1, "type": "PRES_VIS", "word": "sunrise", "wordID": 1406, "conditions": [24, 800, "v", 12000], "trial": 6, "serialpos": 0, "trial_type": "single-stim", "trial_index": 225, "time_elapsed": 981663, "internal_node_id": "0.0-162.0"}}, {"uniqueid": "MTK0374:3E7TUJ2EGDTGBIAJL66S4D5HXF89D7", "current_trial": 226, "dateTime": 1510778045030, "trialdata": {"rt": -1, "stimulus": "<p id=\"stim\">SUNSET</p>", "key_press": -1, "type": "PRES_VIS", "word": "sunset", "wordID": 1407, "conditions": [24, 800, "v", 12000], "trial": 6, "serialpos": 1, "trial_type": "single-stim", "trial_index": 226, "time_elapsed": 983632, "internal_node_id": "0.0-163.0"}}, {"uniqueid": "MTK0374:3E7TUJ2EGDTGBIAJL66S4D5HXF89D7", "current_trial": 227, "dateTime": 1510778046940, "trialdata": {"rt": -1, "stimulus": "<p id=\"stim\">CHEMIST</p>", "key_press": -1, "type": "PRES_VIS", "word": "chemist", "wordID": 291, "conditions": [24, 800, "v", 12000], "trial": 6, "serialpos": 2, "trial_type": "single-stim", "trial_index": 227, "time_elapsed": 985542, "internal_node_id": "0.0-164.0"}}, {"uniqueid": "MTK0374:3E7TUJ2EGDTGBIAJL66S4D5HXF89D7", "current_trial": 228, "dateTime": 1510778048717, "trialdata": {"rt": -1, "stimulus": "<p id=\"stim\">RECORD</p>", "key_press": -1, "type": "PRES_VIS", "word": "record", "wordID": 1175, "conditions": [24, 800, "v", 12000], "trial": 6, "serialpos": 3, "trial_type": "single-stim", "trial_index": 228, "time_elapsed": 987319, "internal_node_id": "0.0-165.0"}}, {"uniqueid": "MTK0374:3E7TUJ2EGDTGBIAJL66S4D5HXF89D7", "current_trial": 229, "dateTime": 1510778050495, "trialdata": {"rt": -1, "stimulus": "<p id=\"stim\">BANJO</p>", "key_press": -1, "type": "PRES_VIS", "word": "banjo", "wordID": 81, "conditions": [24, 800, "v", 12000], "trial": 6, "serialpos": 4, "trial_type": "single-stim", "trial_index": 229, "time_elapsed": 989097, "internal_node_id": "0.0-166.0"}}, {"uniqueid": "MTK0374:3E7TUJ2EGDTGBIAJL66S4D5HXF89D7", "current_trial": 230, "dateTime": 1510778052395, "trialdata": {"rt": -1, "stimulus": "<p id=\"stim\">WAITRESS</p>", "key_press": -1, "type": "PRES_VIS", "word": "waitress", "wordID": 1580, "conditions": [24, 800, "v", 12000], "trial": 6, "serialpos": 5, "trial_type": "single-stim", "trial_index": 230, "time_elapsed": 990997, "internal_node_id": "0.0-167.0"}}, {"uniqueid": "MTK0374:3E7TUJ2EGDTGBIAJL66S4D5HXF89D7", "current_trial": 231, "dateTime": 1510778054021, "trialdata": {"rt": -1, "stimulus": "<p id=\"stim\">LEG</p>", "key_press": -1, "type": "PRES_VIS", "word": "leg", "wordID": 808, "conditions": [24, 800, "v", 12000], "trial": 6, "serialpos": 6, "trial_type": "single-stim", "trial_index": 231, "time_elapsed": 992623, "internal_node_id": "0.0-168.0"}}, {"uniqueid": "MTK0374:3E7TUJ2EGDTGBIAJL66S4D5HXF89D7", "current_trial": 232, "dateTime": 1510778055700, "trialdata": {"rt": -1, "stimulus": "<p id=\"stim\">SILK</p>", "key_press": -1, "type": "PRES_VIS", "word": "silk", "wordID": 1306, "conditions": [24, 800, "v", 12000], "trial": 6, "serialpos": 7, "trial_type": "single-stim", "trial_index": 232, "time_elapsed": 994302, "internal_node_id": "0.0-169.0"}}, {"uniqueid": "MTK0374:3E7TUJ2EGDTGBIAJL66S4D5HXF89D7", "current_trial": 233, "dateTime": 1510778057356, "trialdata": {"rt": -1, "stimulus": "<p id=\"stim\">SUSPECT</p>", "key_press": -1, "type": "PRES_VIS", "word": "suspect", "wordID": 1414, "conditions": [24, 800, "v", 12000], "trial": 6, "serialpos": 8, "trial_type": "single-stim", "trial_index": 233, "time_elapsed": 995958, "internal_node_id": "0.0-170.0"}}, {"uniqueid": "MTK0374:3E7TUJ2EGDTGBIAJL66S4D5HXF89D7", "current_trial": 234, "dateTime": 1510778059197, "trialdata": {"rt": -1, "stimulus": "<p id=\"stim\">PISTOL</p>", "key_press": -1, "type": "PRES_VIS", "word": "pistol", "wordID": 1074, "conditions": [24, 800, "v", 12000], "trial": 6, "serialpos": 9, "trial_type": "single-stim", "trial_index": 234, "time_elapsed": 997799, "internal_node_id": "0.0-171.0"}}, {"uniqueid": "MTK0374:3E7TUJ2EGDTGBIAJL66S4D5HXF89D7", "current_trial": 235, "dateTime": 1510778061105, "trialdata": {"rt": -1, "stimulus": "<p id=\"stim\">SHOULDER</p>", "key_press": -1, "type": "PRES_VIS", "word": "shoulder", "wordID": 1293, "conditions": [24, 800, "v", 12000], "trial": 6, "serialpos": 10, "trial_type": "single-stim", "trial_index": 235, "time_elapsed": 999707, "internal_node_id": "0.0-172.0"}}, {"uniqueid": "MTK0374:3E7TUJ2EGDTGBIAJL66S4D5HXF89D7", "current_trial": 236, "dateTime": 1510778062711, "trialdata": {"rt": -1, "stimulus": "<p id=\"stim\">TOMBSTONE</p>", "key_press": -1, "type": "PRES_VIS", "word": "tombstone", "wordID": 1477, "conditions": [24, 800, "v", 12000], "trial": 6, "serialpos": 11, "trial_type": "single-stim", "trial_index": 236, "time_elapsed": 1001312, "internal_node_id": "0.0-173.0"}}, {"uniqueid": "MTK0374:3E7TUJ2EGDTGBIAJL66S4D5HXF89D7", "current_trial": 237, "dateTime": 1510778064609, "trialdata": {"rt": -1, "stimulus": "<p id=\"stim\">CARRIAGE</p>", "key_press": -1, "type": "PRES_VIS", "word": "carriage", "wordID": 247, "conditions": [24, 800, "v", 12000], "trial": 6, "serialpos": 12, "trial_type": "single-stim", "trial_index": 237, "time_elapsed": 1003210, "internal_node_id": "0.0-174.0"}}, {"uniqueid": "MTK0374:3E7TUJ2EGDTGBIAJL66S4D5HXF89D7", "current_trial": 238, "dateTime": 1510778066535, "trialdata": {"rt": -1, "stimulus": "<p id=\"stim\">RELISH</p>", "key_press": -1, "type": "PRES_VIS", "word": "relish", "wordID": 1182, "conditions": [24, 800, "v", 12000], "trial": 6, "serialpos": 13, "trial_type": "single-stim", "trial_index": 238, "time_elapsed": 1005136, "internal_node_id": "0.0-175.0"}}, {"uniqueid": "MTK0374:3E7TUJ2EGDTGBIAJL66S4D5HXF89D7", "current_trial": 239, "dateTime": 1510778068348, "trialdata": {"rt": -1, "stimulus": "<p id=\"stim\">MESSAGE</p>", "key_press": -1, "type": "PRES_VIS", "word": "message", "wordID": 887, "conditions": [24, 800, "v", 12000], "trial": 6, "serialpos": 14, "trial_type": "single-stim", "trial_index": 239, "time_elapsed": 1006950, "internal_node_id": "0.0-176.0"}}, {"uniqueid": "MTK0374:3E7TUJ2EGDTGBIAJL66S4D5HXF89D7", "current_trial": 240, "dateTime": 1510778070090, "trialdata": {"rt": -1, "stimulus": "<p id=\"stim\">TROUT</p>", "key_press": -1, "type": "PRES_VIS", "word": "trout", "wordID": 1510, "conditions": [24, 800, "v", 12000], "trial": 6, "serialpos": 15, "trial_type": "single-stim", "trial_index": 240, "time_elapsed": 1008692, "internal_node_id": "0.0-177.0"}}, {"uniqueid": "MTK0374:3E7TUJ2EGDTGBIAJL66S4D5HXF89D7", "current_trial": 241, "dateTime": 1510778071912, "trialdata": {"rt": -1, "stimulus": "<p id=\"stim\">LAVA</p>", "key_press": -1, "type": "PRES_VIS", "word": "lava", "wordID": 803, "conditions": [24, 800, "v", 12000], "trial": 6, "serialpos": 16, "trial_type": "single-stim", "trial_index": 241, "time_elapsed": 1010514, "internal_node_id": "0.0-178.0"}}, {"uniqueid": "MTK0374:3E7TUJ2EGDTGBIAJL66S4D5HXF89D7", "current_trial": 242, "dateTime": 1510778073640, "trialdata": {"rt": -1, "stimulus": "<p id=\"stim\">SPOUSE</p>", "key_press": -1, "type": "PRES_VIS", "word": "spouse", "wordID": 1357, "conditions": [24, 800, "v", 12000], "trial": 6, "serialpos": 17, "trial_type": "single-stim", "trial_index": 242, "time_elapsed": 1012242, "internal_node_id": "0.0-179.0"}}, {"uniqueid": "MTK0374:3E7TUJ2EGDTGBIAJL66S4D5HXF89D7", "current_trial": 243, "dateTime": 1510778075290, "trialdata": {"rt": -1, "stimulus": "<p id=\"stim\">HUSBAND</p>", "key_press": -1, "type": "PRES_VIS", "word": "husband", "wordID": 727, "conditions": [24, 800, "v", 12000], "trial": 6, "serialpos": 18, "trial_type": "single-stim", "trial_index": 243, "time_elapsed": 1013892, "internal_node_id": "0.0-180.0"}}, {"uniqueid": "MTK0374:3E7TUJ2EGDTGBIAJL66S4D5HXF89D7", "current_trial": 244, "dateTime": 1510778077155, "trialdata": {"rt": -1, "stimulus": "<p id=\"stim\">LAMP</p>", "key_press": -1, "type": "PRES_VIS", "word": "lamp", "wordID": 797, "conditions": [24, 800, "v", 12000], "trial": 6, "serialpos": 19, "trial_type": "single-stim", "trial_index": 244, "time_elapsed": 1015757, "internal_node_id": "0.0-181.0"}}, {"uniqueid": "MTK0374:3E7TUJ2EGDTGBIAJL66S4D5HXF89D7", "current_trial": 245, "dateTime": 1510778078762, "trialdata": {"rt": -1, "stimulus": "<p id=\"stim\">RAZOR</p>", "key_press": -1, "type": "PRES_VIS", "word": "razor", "wordID": 1170, "conditions": [24, 800, "v", 12000], "trial": 6, "serialpos": 20, "trial_type": "single-stim", "trial_index": 245, "time_elapsed": 1017364, "internal_node_id": "0.0-182.0"}}, {"uniqueid": "MTK0374:3E7TUJ2EGDTGBIAJL66S4D5HXF89D7", "current_trial": 246, "dateTime": 1510778080632, "trialdata": {"rt": -1, "stimulus": "<p id=\"stim\">HARP</p>", "key_press": -1, "type": "PRES_VIS", "word": "harp", "wordID": 688, "conditions": [24, 800, "v", 12000], "trial": 6, "serialpos": 21, "trial_type": "single-stim", "trial_index": 246, "time_elapsed": 1019234, "internal_node_id": "0.0-183.0"}}, {"uniqueid": "MTK0374:3E7TUJ2EGDTGBIAJL66S4D5HXF89D7", "current_trial": 247, "dateTime": 1510778082380, "trialdata": {"rt": -1, "stimulus": "<p id=\"stim\">VIKING</p>", "key_press": -1, "type": "PRES_VIS", "word": "viking", "wordID": 1564, "conditions": [24, 800, "v", 12000], "trial": 6, "serialpos": 22, "trial_type": "single-stim", "trial_index": 247, "time_elapsed": 1020982, "internal_node_id": "0.0-184.0"}}, {"uniqueid": "MTK0374:3E7TUJ2EGDTGBIAJL66S4D5HXF89D7", "current_trial": 248, "dateTime": 1510778084246, "trialdata": {"rt": -1, "stimulus": "<p id=\"stim\">SALMON</p>", "key_press": -1, "type": "PRES_VIS", "word": "salmon", "wordID": 1226, "conditions": [24, 800, "v", 12000], "trial": 6, "serialpos": 23, "trial_type": "single-stim", "trial_index": 248, "time_elapsed": 1022848, "internal_node_id": "0.0-185.0"}}, {"uniqueid": "MTK0374:3E7TUJ2EGDTGBIAJL66S4D5HXF89D7", "current_trial": 249, "dateTime": 1510778086509, "trialdata": {"rt": -1, "stimulus": "", "key_press": -1, "type": "PRE_RECALL_DELAY", "trial_type": "single-stim", "trial_index": 249, "time_elapsed": 1025110, "internal_node_id": "0.0-186.0-0.0"}}, {"uniqueid": "MTK0374:3E7TUJ2EGDTGBIAJL66S4D5HXF89D7", "current_trial": 250, "dateTime": 1510778087010, "trialdata": {"rt": -1000, "stimulus": "/static/audio/400Hz.wav", "key_press": -1, "type": "PRE_RECALL_ALERT", "trial_type": "single-audio", "trial_index": 250, "time_elapsed": 1025611, "internal_node_id": "0.0-187.0"}}, {"uniqueid": "MTK0374:3E7TUJ2EGDTGBIAJL66S4D5HXF89D7", "current_trial": 251, "dateTime": 1510778147017, "trialdata": {"rt": [2376, 3854, 5796, 7753, 27090], "recwords": ["suspect", "shoulder", "salmon", "lake", "trussel"], "type": "FREE_RECALL", "conditions": [24, 800, "v", 12000], "trial": 6, "trial_type": "free-recall", "trial_index": 251, "time_elapsed": 1085615, "internal_node_id": "0.0-188.0-0.0"}}, {"uniqueid": "MTK0374:3E7TUJ2EGDTGBIAJL66S4D5HXF89D7", "current_trial": 252, "dateTime": 1510778152305, "trialdata": {"rt": 3287, "key_press": 71, "type": "INSTRUCTIONS", "trial_type": "text", "trial_index": 252, "time_elapsed": 1090907, "internal_node_id": "0.0-189.0"}}, {"uniqueid": "MTK0374:3E7TUJ2EGDTGBIAJL66S4D5HXF89D7", "current_trial": 253, "dateTime": 1510778178311, "trialdata": {"rt": [4299, 6560, 9341, 12513, 15621, 17627, 20647, 23540], "responses": ["13", "12", "17", "22", "20", "15", "8", "16"], "num1": [7, 8, 7, 4, 7, 2, 5, 8, 6], "num2": [4, 1, 3, 9, 5, 8, 2, 1, 8], "num3": [2, 3, 7, 9, 8, 5, 1, 7, 7], "type": "DISTRACTOR", "conditions": [24, 800, "v", 24000], "trial": 7, "trial_type": "math-distractor", "trial_index": 253, "time_elapsed": 1116913, "internal_node_id": "0.0-190.0"}}, {"uniqueid": "MTK0374:3E7TUJ2EGDTGBIAJL66S4D5HXF89D7", "current_trial": 254, "dateTime": 1510778181312, "trialdata": {"rt": -1, "stimulus": "<p id=\"stim\">10</p>", "key_press": -1, "trial_type": "single-stim", "trial_index": 254, "time_elapsed": 1119913, "internal_node_id": "0.0-191.0-0.0"}}, {"uniqueid": "MTK0374:3E7TUJ2EGDTGBIAJL66S4D5HXF89D7", "current_trial": 255, "dateTime": 1510778182313, "trialdata": {"rt": -1, "stimulus": "<p id=\"stim\">9</p>", "key_press": -1, "trial_type": "single-stim", "trial_index": 255, "time_elapsed": 1120914, "internal_node_id": "0.0-191.0-1.0"}}, {"uniqueid": "MTK0374:3E7TUJ2EGDTGBIAJL66S4D5HXF89D7", "current_trial": 256, "dateTime": 1510778183314, "trialdata": {"rt": -1, "stimulus": "<p id=\"stim\">8</p>", "key_press": -1, "trial_type": "single-stim", "trial_index": 256, "time_elapsed": 1121915, "internal_node_id": "0.0-191.0-2.0"}}, {"uniqueid": "MTK0374:3E7TUJ2EGDTGBIAJL66S4D5HXF89D7", "current_trial": 257, "dateTime": 1510778184315, "trialdata": {"rt": -1, "stimulus": "<p id=\"stim\">7</p>", "key_press": -1, "trial_type": "single-stim", "trial_index": 257, "time_elapsed": 1122916, "internal_node_id": "0.0-191.0-3.0"}}, {"uniqueid": "MTK0374:3E7TUJ2EGDTGBIAJL66S4D5HXF89D7", "current_trial": 258, "dateTime": 1510778185316, "trialdata": {"rt": -1, "stimulus": "<p id=\"stim\">6</p>", "key_press": -1, "trial_type": "single-stim", "trial_index": 258, "time_elapsed": 1123918, "internal_node_id": "0.0-191.0-4.0"}}, {"uniqueid": "MTK0374:3E7TUJ2EGDTGBIAJL66S4D5HXF89D7", "current_trial": 259, "dateTime": 1510778186317, "trialdata": {"rt": -1, "stimulus": "<p id=\"stim\">5</p>", "key_press": -1, "trial_type": "single-stim", "trial_index": 259, "time_elapsed": 1124919, "internal_node_id": "0.0-191.0-5.0"}}, {"uniqueid": "MTK0374:3E7TUJ2EGDTGBIAJL66S4D5HXF89D7", "current_trial": 260, "dateTime": 1510778187318, "trialdata": {"rt": -1, "stimulus": "<p id=\"stim\">4</p>", "key_press": -1, "trial_type": "single-stim", "trial_index": 260, "time_elapsed": 1125920, "internal_node_id": "0.0-191.0-6.0"}}, {"uniqueid": "MTK0374:3E7TUJ2EGDTGBIAJL66S4D5HXF89D7", "current_trial": 261, "dateTime": 1510778188319, "trialdata": {"rt": -1, "stimulus": "<p id=\"stim\">3</p>", "key_press": -1, "trial_type": "single-stim", "trial_index": 261, "time_elapsed": 1126921, "internal_node_id": "0.0-191.0-7.0"}}, {"uniqueid": "MTK0374:3E7TUJ2EGDTGBIAJL66S4D5HXF89D7", "current_trial": 262, "dateTime": 1510778189320, "trialdata": {"rt": -1, "stimulus": "<p id=\"stim\">2</p>", "key_press": -1, "trial_type": "single-stim", "trial_index": 262, "time_elapsed": 1127922, "internal_node_id": "0.0-191.0-8.0"}}, {"uniqueid": "MTK0374:3E7TUJ2EGDTGBIAJL66S4D5HXF89D7", "current_trial": 263, "dateTime": 1510778190321, "trialdata": {"rt": -1, "stimulus": "<p id=\"stim\">1</p>", "key_press": -1, "trial_type": "single-stim", "trial_index": 263, "time_elapsed": 1128923, "internal_node_id": "0.0-191.0-9.0"}}, {"uniqueid": "MTK0374:3E7TUJ2EGDTGBIAJL66S4D5HXF89D7", "current_trial": 264, "dateTime": 1510778191822, "trialdata": {"rt": -1, "stimulus": "<p id=\"stim\">+</p>", "key_press": -1, "type": "FIXATION", "trial_type": "single-stim", "trial_index": 264, "time_elapsed": 1130424, "internal_node_id": "0.0-192.0-0.0"}}, {"uniqueid": "MTK0374:3E7TUJ2EGDTGBIAJL66S4D5HXF89D7", "current_trial": 265, "dateTime": 1510778192623, "trialdata": {"rt": -1, "stimulus": "<p id=\"stim\">WORLD</p>", "key_press": -1, "type": "PRES_VIS", "word": "world", "wordID": 1621, "conditions": [24, 800, "v", 24000], "trial": 7, "serialpos": 0, "trial_type": "single-stim", "trial_index": 265, "time_elapsed": 1131225, "internal_node_id": "0.0-193.0"}}, {"uniqueid": "MTK0374:3E7TUJ2EGDTGBIAJL66S4D5HXF89D7", "current_trial": 266, "dateTime": 1510778194464, "trialdata": {"rt": -1, "stimulus": "<p id=\"stim\">CHAMPAGNE</p>", "key_press": -1, "type": "PRES_VIS", "word": "champagne", "wordID": 277, "conditions": [24, 800, "v", 24000], "trial": 7, "serialpos": 1, "trial_type": "single-stim", "trial_index": 266, "time_elapsed": 1133066, "internal_node_id": "0.0-194.0"}}, {"uniqueid": "MTK0374:3E7TUJ2EGDTGBIAJL66S4D5HXF89D7", "current_trial": 267, "dateTime": 1510778196375, "trialdata": {"rt": -1, "stimulus": "<p id=\"stim\">DOUGHNUT</p>", "key_press": -1, "type": "PRES_VIS", "word": "doughnut", "wordID": 489, "conditions": [24, 800, "v", 24000], "trial": 7, "serialpos": 2, "trial_type": "single-stim", "trial_index": 267, "time_elapsed": 1134977, "internal_node_id": "0.0-195.0"}}, {"uniqueid": "MTK0374:3E7TUJ2EGDTGBIAJL66S4D5HXF89D7", "current_trial": 268, "dateTime": 1510778198066, "trialdata": {"rt": -1, "stimulus": "<p id=\"stim\">SALT</p>", "key_press": -1, "type": "PRES_VIS", "word": "salt", "wordID": 1228, "conditions": [24, 800, "v", 24000], "trial": 7, "serialpos": 3, "trial_type": "single-stim", "trial_index": 268, "time_elapsed": 1136668, "internal_node_id": "0.0-196.0"}}, {"uniqueid": "MTK0374:3E7TUJ2EGDTGBIAJL66S4D5HXF89D7", "current_trial": 269, "dateTime": 1510778199972, "trialdata": {"rt": -1, "stimulus": "<p id=\"stim\">CANDY</p>", "key_press": -1, "type": "PRES_VIS", "word": "candy", "wordID": 229, "conditions": [24, 800, "v", 24000], "trial": 7, "serialpos": 4, "trial_type": "single-stim", "trial_index": 269, "time_elapsed": 1138574, "internal_node_id": "0.0-197.0"}}, {"uniqueid": "MTK0374:3E7TUJ2EGDTGBIAJL66S4D5HXF89D7", "current_trial": 270, "dateTime": 1510778201581, "trialdata": {"rt": -1, "stimulus": "<p id=\"stim\">DRUG</p>", "key_press": -1, "type": "PRES_VIS", "word": "drug", "wordID": 500, "conditions": [24, 800, "v", 24000], "trial": 7, "serialpos": 5, "trial_type": "single-stim", "trial_index": 270, "time_elapsed": 1140183, "internal_node_id": "0.0-198.0"}}, {"uniqueid": "MTK0374:3E7TUJ2EGDTGBIAJL66S4D5HXF89D7", "current_trial": 271, "dateTime": 1510778203355, "trialdata": {"rt": -1, "stimulus": "<p id=\"stim\">SISTER</p>", "key_press": -1, "type": "PRES_VIS", "word": "sister", "wordID": 1311, "conditions": [24, 800, "v", 24000], "trial": 7, "serialpos": 6, "trial_type": "single-stim", "trial_index": 271, "time_elapsed": 1141956, "internal_node_id": "0.0-199.0"}}, {"uniqueid": "MTK0374:3E7TUJ2EGDTGBIAJL66S4D5HXF89D7", "current_trial": 272, "dateTime": 1510778205177, "trialdata": {"rt": -1, "stimulus": "<p id=\"stim\"