{"condition": 0, "counterbalance": 1776, "assignmentId": "323Q6SJS8JN6O86YAOPA5U6QU5QHFC", "workerId": "MTK0738", "hitId": "3HXK2V1N4KM60Y1HCLNJBR4GQX02G7", "currenttrial": 626, "bonus": 0, "data": [{"uniqueid": "MTK0738:323Q6SJS8JN6O86YAOPA5U6QU5QHFC", "current_trial": 0, "dateTime": 1512677363983, "trialdata": {"rt": 4154, "key_press": 74, "type": "INSTRUCTIONS", "trial_type": "text", "trial_index": 0, "time_elapsed": 4159, "internal_node_id": "0.0-0.0"}}, {"uniqueid": "MTK0738:323Q6SJS8JN6O86YAOPA5U6QU5QHFC", "current_trial": 1, "dateTime": 1512677375505, "trialdata": {"rt": 11520, "key_press": 233, "type": "INSTRUCTIONS", "trial_type": "text", "trial_index": 1, "time_elapsed": 15682, "internal_node_id": "0.0-1.0"}}, {"uniqueid": "MTK0738:323Q6SJS8JN6O86YAOPA5U6QU5QHFC", "current_trial": 2, "dateTime": 1512677393972, "trialdata": {"rt": [18453], "responses": ["ocean"], "type": "AUDIO_TEST", "trial_type": "audio-test", "trial_index": 2, "time_elapsed": 34150, "internal_node_id": "0.0-2.0"}}, {"uniqueid": "MTK0738:323Q6SJS8JN6O86YAOPA5U6QU5QHFC", "current_trial": 3, "dateTime": 1512677493974, "trialdata": {"rt": [38583, 99993], "responses": ["chrystal", "crystal"], "type": "AUDIO_TEST", "trial_type": "audio-test", "trial_index": 3, "time_elapsed": 134151, "internal_node_id": "0.0-3.0"}}, {"uniqueid": "MTK0738:323Q6SJS8JN6O86YAOPA5U6QU5QHFC", "current_trial": 4, "dateTime": 1512677503083, "trialdata": {"rt": [9101], "responses": ["spice"], "type": "AUDIO_TEST", "trial_type": "audio-test", "trial_index": 4, "time_elapsed": 143261, "internal_node_id": "0.0-4.0"}}, {"uniqueid": "MTK0738:323Q6SJS8JN6O86YAOPA5U6QU5QHFC", "current_trial": 5, "dateTime": 1512677534958, "trialdata": {"rt": 31121, "responses": "{\"Q0\":\"11pm\",\"Q1\":\"10am\",\"Q2\":\"4\"}", "type": "SLEEP_SURVEY", "trial_type": "survey-text", "trial_index": 5, "time_elapsed": 175135, "internal_node_id": "0.0-5.0"}}, {"uniqueid": "MTK0738:323Q6SJS8JN6O86YAOPA5U6QU5QHFC", "current_trial": 6, "dateTime": 1512677697865, "trialdata": {"rt": 161906, "key_press": 74, "type": "INSTRUCTIONS", "trial_type": "text", "trial_index": 6, "time_elapsed": 338043, "internal_node_id": "0.0-6.0"}}, {"uniqueid": "MTK0738:323Q6SJS8JN6O86YAOPA5U6QU5QHFC", "current_trial": 7, "dateTime": 1512677928678, "trialdata": {"rt": 230310, "key_press": 75, "type": "INSTRUCTIONS", "trial_type": "text", "trial_index": 7, "time_elapsed": 568855, "internal_node_id": "0.0-7.0"}}, {"uniqueid": "MTK0738:323Q6SJS8JN6O86YAOPA5U6QU5QHFC", "current_trial": 8, "dateTime": 1512677964960, "trialdata": {"rt": 35781, "key_press": 76, "type": "INSTRUCTIONS", "trial_type": "text", "trial_index": 8, "time_elapsed": 605137, "internal_node_id": "0.0-8.0"}}, {"uniqueid": "MTK0738:323Q6SJS8JN6O86YAOPA5U6QU5QHFC", "current_trial": 9, "dateTime": 1512677983967, "trialdata": {"rt": [7930, 14455], "responses": ["13", "13"], "num1": [8, 5, 5], "num2": [1, 1, 1], "num3": [4, 7, 1], "type": "DISTRACTOR", "conditions": [18, 1200, "a", 18000], "trial": 0, "trial_type": "math-distractor", "trial_index": 9, "time_elapsed": 624145, "internal_node_id": "0.0-9.0"}}, {"uniqueid": "MTK0738:323Q6SJS8JN6O86YAOPA5U6QU5QHFC", "current_trial": 10, "dateTime": 1512677986969, "trialdata": {"rt": -1, "stimulus": "<p id=\"stim\">10</p>", "key_press": -1, "trial_type": "single-stim", "trial_index": 10, "time_elapsed": 627147, "internal_node_id": "0.0-10.0-0.0"}}, {"uniqueid": "MTK0738:323Q6SJS8JN6O86YAOPA5U6QU5QHFC", "current_trial": 11, "dateTime": 1512677987969, "trialdata": {"rt": -1, "stimulus": "<p id=\"stim\">9</p>", "key_press": -1, "trial_type": "single-stim", "trial_index": 11, "time_elapsed": 628147, "internal_node_id": "0.0-10.0-1.0"}}, {"uniqueid": "MTK0738:323Q6SJS8JN6O86YAOPA5U6QU5QHFC", "current_trial": 12, "dateTime": 1512677988970, "trialdata": {"rt": -1, "stimulus": "<p id=\"stim\">8</p>", "key_press": -1, "trial_type": "single-stim", "trial_index": 12, "time_elapsed": 629148, "internal_node_id": "0.0-10.0-2.0"}}, {"uniqueid": "MTK0738:323Q6SJS8JN6O86YAOPA5U6QU5QHFC", "current_trial": 13, "dateTime": 1512677989972, "trialdata": {"rt": -1, "stimulus": "<p id=\"stim\">7</p>", "key_press": -1, "trial_type": "single-stim", "trial_index": 13, "time_elapsed": 630149, "internal_node_id": "0.0-10.0-3.0"}}, {"uniqueid": "MTK0738:323Q6SJS8JN6O86YAOPA5U6QU5QHFC", "current_trial": 14, "dateTime": 1512677990972, "trialdata": {"rt": -1, "stimulus": "<p id=\"stim\">6</p>", "key_press": -1, "trial_type": "single-stim", "trial_index": 14, "time_elapsed": 631150, "internal_node_id": "0.0-10.0-4.0"}}, {"uniqueid": "MTK0738:323Q6SJS8JN6O86YAOPA5U6QU5QHFC", "current_trial": 15, "dateTime": 1512677991973, "trialdata": {"rt": -1, "stimulus": "<p id=\"stim\">5</p>", "key_press": -1, "trial_type": "single-stim", "trial_index": 15, "time_elapsed": 632151, "internal_node_id": "0.0-10.0-5.0"}}, {"uniqueid": "MTK0738:323Q6SJS8JN6O86YAOPA5U6QU5QHFC", "current_trial": 16, "dateTime": 1512677992973, "trialdata": {"rt": -1, "stimulus": "<p id=\"stim\">4</p>", "key_press": -1, "trial_type": "single-stim", "trial_index": 16, "time_elapsed": 633151, "internal_node_id": "0.0-10.0-6.0"}}, {"uniqueid": "MTK0738:323Q6SJS8JN6O86YAOPA5U6QU5QHFC", "current_trial": 17, "dateTime": 1512677993974, "trialdata": {"rt": -1, "stimulus": "<p id=\"stim\">3</p>", "key_press": -1, "trial_type": "single-stim", "trial_index": 17, "time_elapsed": 634152, "internal_node_id": "0.0-10.0-7.0"}}, {"uniqueid": "MTK0738:323Q6SJS8JN6O86YAOPA5U6QU5QHFC", "current_trial": 18, "dateTime": 1512677994974, "trialdata": {"rt": -1, "stimulus": "<p id=\"stim\">2</p>", "key_press": -1, "trial_type": "single-stim", "trial_index": 18, "time_elapsed": 635152, "internal_node_id": "0.0-10.0-8.0"}}, {"uniqueid": "MTK0738:323Q6SJS8JN6O86YAOPA5U6QU5QHFC", "current_trial": 19, "dateTime": 1512677995976, "trialdata": {"rt": -1, "stimulus": "<p id=\"stim\">1</p>", "key_press": -1, "trial_type": "single-stim", "trial_index": 19, "time_elapsed": 636153, "internal_node_id": "0.0-10.0-9.0"}}, {"uniqueid": "MTK0738:323Q6SJS8JN6O86YAOPA5U6QU5QHFC", "current_trial": 20, "dateTime": 1512677997476, "trialdata": {"rt": -1, "stimulus": "<p id=\"stim\">+</p>", "key_press": -1, "type": "FIXATION", "trial_type": "single-stim", "trial_index": 20, "time_elapsed": 637654, "internal_node_id": "0.0-11.0-0.0"}}, {"uniqueid": "MTK0738:323Q6SJS8JN6O86YAOPA5U6QU5QHFC", "current_trial": 21, "dateTime": 1512677999523, "trialdata": {"rt": -1000, "stimulus": "/static/audio/wordpool/BODY.wav", "key_press": -1, "type": "PRES_AUD", "word": "body", "wordID": 144, "conditions": [18, 1200, "a", 18000], "trial": 0, "serialpos": 0, "trial_type": "single-audio", "trial_index": 21, "time_elapsed": 639701, "internal_node_id": "0.0-12.0"}}, {"uniqueid": "MTK0738:323Q6SJS8JN6O86YAOPA5U6QU5QHFC", "current_trial": 22, "dateTime": 1512678001630, "trialdata": {"rt": -1000, "stimulus": "/static/audio/wordpool/FLUTE.wav", "key_press": -1, "type": "PRES_AUD", "word": "flute", "wordID": 584, "conditions": [18, 1200, "a", 18000], "trial": 0, "serialpos": 1, "trial_type": "single-audio", "trial_index": 22, "time_elapsed": 641808, "internal_node_id": "0.0-13.0"}}, {"uniqueid": "MTK0738:323Q6SJS8JN6O86YAOPA5U6QU5QHFC", "current_trial": 23, "dateTime": 1512678003757, "trialdata": {"rt": -1000, "stimulus": "/static/audio/wordpool/VELVET.wav", "key_press": -1, "type": "PRES_AUD", "word": "velvet", "wordID": 1554, "conditions": [18, 1200, "a", 18000], "trial": 0, "serialpos": 2, "trial_type": "single-audio", "trial_index": 23, "time_elapsed": 643935, "internal_node_id": "0.0-14.0"}}, {"uniqueid": "MTK0738:323Q6SJS8JN6O86YAOPA5U6QU5QHFC", "current_trial": 24, "dateTime": 1512678005838, "trialdata": {"rt": -1000, "stimulus": "/static/audio/wordpool/STAMP.wav", "key_press": -1, "type": "PRES_AUD", "word": "stamp", "wordID": 1369, "conditions": [18, 1200, "a", 18000], "trial": 0, "serialpos": 3, "trial_type": "single-audio", "trial_index": 24, "time_elapsed": 646016, "internal_node_id": "0.0-15.0"}}, {"uniqueid": "MTK0738:323Q6SJS8JN6O86YAOPA5U6QU5QHFC", "current_trial": 25, "dateTime": 1512678007968, "trialdata": {"rt": -1000, "stimulus": "/static/audio/wordpool/LOVER.wav", "key_press": -1, "type": "PRES_AUD", "word": "lover", "wordID": 845, "conditions": [18, 1200, "a", 18000], "trial": 0, "serialpos": 4, "trial_type": "single-audio", "trial_index": 25, "time_elapsed": 648146, "internal_node_id": "0.0-16.0"}}, {"uniqueid": "MTK0738:323Q6SJS8JN6O86YAOPA5U6QU5QHFC", "current_trial": 26, "dateTime": 1512678010035, "trialdata": {"rt": -1000, "stimulus": "/static/audio/wordpool/THIEF.wav", "key_press": -1, "type": "PRES_AUD", "word": "thief", "wordID": 1455, "conditions": [18, 1200, "a", 18000], "trial": 0, "serialpos": 5, "trial_type": "single-audio", "trial_index": 26, "time_elapsed": 650213, "internal_node_id": "0.0-17.0"}}, {"uniqueid": "MTK0738:323Q6SJS8JN6O86YAOPA5U6QU5QHFC", "current_trial": 27, "dateTime": 1512678012134, "trialdata": {"rt": -1000, "stimulus": "/static/audio/wordpool/WRIST.wav", "key_press": -1, "type": "PRES_AUD", "word": "wrist", "wordID": 1625, "conditions": [18, 1200, "a", 18000], "trial": 0, "serialpos": 6, "trial_type": "single-audio", "trial_index": 27, "time_elapsed": 652312, "internal_node_id": "0.0-18.0"}}, {"uniqueid": "MTK0738:323Q6SJS8JN6O86YAOPA5U6QU5QHFC", "current_trial": 28, "dateTime": 1512678014144, "trialdata": {"rt": -1000, "stimulus": "/static/audio/wordpool/PISTOL.wav", "key_press": -1, "type": "PRES_AUD", "word": "pistol", "wordID": 1074, "conditions": [18, 1200, "a", 18000], "trial": 0, "serialpos": 7, "trial_type": "single-audio", "trial_index": 28, "time_elapsed": 654322, "internal_node_id": "0.0-19.0"}}, {"uniqueid": "MTK0738:323Q6SJS8JN6O86YAOPA5U6QU5QHFC", "current_trial": 29, "dateTime": 1512678016353, "trialdata": {"rt": -1000, "stimulus": "/static/audio/wordpool/STATUE.wav", "key_press": -1, "type": "PRES_AUD", "word": "statue", "wordID": 1373, "conditions": [18, 1200, "a", 18000], "trial": 0, "serialpos": 8, "trial_type": "single-audio", "trial_index": 29, "time_elapsed": 656531, "internal_node_id": "0.0-20.0"}}, {"uniqueid": "MTK0738:323Q6SJS8JN6O86YAOPA5U6QU5QHFC", "current_trial": 30, "dateTime": 1512678018701, "trialdata": {"rt": -1000, "stimulus": "/static/audio/wordpool/CANAL.wav", "key_press": -1, "type": "PRES_AUD", "word": "canal", "wordID": 225, "conditions": [18, 1200, "a", 18000], "trial": 0, "serialpos": 9, "trial_type": "single-audio", "trial_index": 30, "time_elapsed": 658879, "internal_node_id": "0.0-21.0"}}, {"uniqueid": "MTK0738:323Q6SJS8JN6O86YAOPA5U6QU5QHFC", "current_trial": 31, "dateTime": 1512678020897, "trialdata": {"rt": -1000, "stimulus": "/static/audio/wordpool/STOVE.wav", "key_press": -1, "type": "PRES_AUD", "word": "stove", "wordID": 1387, "conditions": [18, 1200, "a", 18000], "trial": 0, "serialpos": 10, "trial_type": "single-audio", "trial_index": 31, "time_elapsed": 661075, "internal_node_id": "0.0-22.0"}}, {"uniqueid": "MTK0738:323Q6SJS8JN6O86YAOPA5U6QU5QHFC", "current_trial": 32, "dateTime": 1512678023289, "trialdata": {"rt": -1000, "stimulus": "/static/audio/wordpool/BACON.wav", "key_press": -1, "type": "PRES_AUD", "word": "bacon", "wordID": 66, "conditions": [18, 1200, "a", 18000], "trial": 0, "serialpos": 11, "trial_type": "single-audio", "trial_index": 32, "time_elapsed": 663467, "internal_node_id": "0.0-23.0"}}, {"uniqueid": "MTK0738:323Q6SJS8JN6O86YAOPA5U6QU5QHFC", "current_trial": 33, "dateTime": 1512678025418, "trialdata": {"rt": -1000, "stimulus": "/static/audio/wordpool/WORLD.wav", "key_press": -1, "type": "PRES_AUD", "word": "world", "wordID": 1621, "conditions": [18, 1200, "a", 18000], "trial": 0, "serialpos": 12, "trial_type": "single-audio", "trial_index": 33, "time_elapsed": 665596, "internal_node_id": "0.0-24.0"}}, {"uniqueid": "MTK0738:323Q6SJS8JN6O86YAOPA5U6QU5QHFC", "current_trial": 34, "dateTime": 1512678027711, "trialdata": {"rt": -1000, "stimulus": "/static/audio/wordpool/ATLAS.wav", "key_press": -1, "type": "PRES_AUD", "word": "atlas", "wordID": 52, "conditions": [18, 1200, "a", 18000], "trial": 0, "serialpos": 13, "trial_type": "single-audio", "trial_index": 34, "time_elapsed": 667889, "internal_node_id": "0.0-25.0"}}, {"uniqueid": "MTK0738:323Q6SJS8JN6O86YAOPA5U6QU5QHFC", "current_trial": 35, "dateTime": 1512678029940, "trialdata": {"rt": -1000, "stimulus": "/static/audio/wordpool/POSTAGE.wav", "key_press": -1, "type": "PRES_AUD", "word": "postage", "wordID": 1112, "conditions": [18, 1200, "a", 18000], "trial": 0, "serialpos": 14, "trial_type": "single-audio", "trial_index": 35, "time_elapsed": 670118, "internal_node_id": "0.0-26.0"}}, {"uniqueid": "MTK0738:323Q6SJS8JN6O86YAOPA5U6QU5QHFC", "current_trial": 36, "dateTime": 1512678032278, "trialdata": {"rt": -1000, "stimulus": "/static/audio/wordpool/SPOOL.wav", "key_press": -1, "type": "PRES_AUD", "word": "spool", "wordID": 1355, "conditions": [18, 1200, "a", 18000], "trial": 0, "serialpos": 15, "trial_type": "single-audio", "trial_index": 36, "time_elapsed": 672456, "internal_node_id": "0.0-27.0"}}, {"uniqueid": "MTK0738:323Q6SJS8JN6O86YAOPA5U6QU5QHFC", "current_trial": 37, "dateTime": 1512678034281, "trialdata": {"rt": -1000, "stimulus": "/static/audio/wordpool/GRAPE.wav", "key_press": -1, "type": "PRES_AUD", "word": "grape", "wordID": 653, "conditions": [18, 1200, "a", 18000], "trial": 0, "serialpos": 16, "trial_type": "single-audio", "trial_index": 37, "time_elapsed": 674459, "internal_node_id": "0.0-28.0"}}, {"uniqueid": "MTK0738:323Q6SJS8JN6O86YAOPA5U6QU5QHFC", "current_trial": 38, "dateTime": 1512678036281, "trialdata": {"rt": -1000, "stimulus": "/static/audio/wordpool/DIVER.wav", "key_press": -1, "type": "PRES_AUD", "word": "diver", "wordID": 475, "conditions": [18, 1200, "a", 18000], "trial": 0, "serialpos": 17, "trial_type": "single-audio", "trial_index": 38, "time_elapsed": 676459, "internal_node_id": "0.0-29.0"}}, {"uniqueid": "MTK0738:323Q6SJS8JN6O86YAOPA5U6QU5QHFC", "current_trial": 39, "dateTime": 1512678037648, "trialdata": {"rt": -1, "stimulus": "", "key_press": -1, "type": "PRE_RECALL_DELAY", "trial_type": "single-stim", "trial_index": 39, "time_elapsed": 677826, "internal_node_id": "0.0-30.0-0.0"}}, {"uniqueid": "MTK0738:323Q6SJS8JN6O86YAOPA5U6QU5QHFC", "current_trial": 40, "dateTime": 1512678038149, "trialdata": {"rt": -1000, "stimulus": "/static/audio/400Hz.wav", "key_press": -1, "type": "PRE_RECALL_ALERT", "trial_type": "single-audio", "trial_index": 40, "time_elapsed": 678327, "internal_node_id": "0.0-31.0"}}, {"uniqueid": "MTK0738:323Q6SJS8JN6O86YAOPA5U6QU5QHFC", "current_trial": 41, "dateTime": 1512678098160, "trialdata": {"rt": [5969, 10116, 14000, 18846, 22647, 29139, 45466], "recwords": ["diver", "flute", "stamp", "postage", "statue", "cook", "spole"], "type": "FREE_RECALL", "conditions": [18, 1200, "a", 18000], "trial": 0, "trial_type": "free-recall", "trial_index": 41, "time_elapsed": 738331, "internal_node_id": "0.0-32.0-0.0"}}, {"uniqueid": "MTK0738:323Q6SJS8JN6O86YAOPA5U6QU5QHFC", "current_trial": 42, "dateTime": 1512678103047, "trialdata": {"rt": 2886, "key_press": 75, "type": "INSTRUCTIONS", "trial_type": "text", "trial_index": 42, "time_elapsed": 743225, "internal_node_id": "0.0-33.0"}}, {"uniqueid": "MTK0738:323Q6SJS8JN6O86YAOPA5U6QU5QHFC", "current_trial": 43, "dateTime": 1512678123050, "trialdata": {"rt": [7183, 12402], "responses": ["18 ", "25"], "num1": [8, 7, 9], "num2": [6, 9, 4], "num3": [4, 9, 6], "type": "DISTRACTOR", "conditions": [18, 1200, "v", 18000], "trial": 1, "trial_type": "math-distractor", "trial_index": 43, "time_elapsed": 763228, "internal_node_id": "0.0-34.0"}}, {"uniqueid": "MTK0738:323Q6SJS8JN6O86YAOPA5U6QU5QHFC", "current_trial": 44, "dateTime": 1512678126050, "trialdata": {"rt": -1, "stimulus": "<p id=\"stim\">10</p>", "key_press": -1, "trial_type": "single-stim", "trial_index": 44, "time_elapsed": 766228, "internal_node_id": "0.0-35.0-0.0"}}, {"uniqueid": "MTK0738:323Q6SJS8JN6O86YAOPA5U6QU5QHFC", "current_trial": 45, "dateTime": 1512678127051, "trialdata": {"rt": -1, "stimulus": "<p id=\"stim\">9</p>", "key_press": -1, "trial_type": "single-stim", "trial_index": 45, "time_elapsed": 767229, "internal_node_id": "0.0-35.0-1.0"}}, {"uniqueid": "MTK0738:323Q6SJS8JN6O86YAOPA5U6QU5QHFC", "current_trial": 46, "dateTime": 1512678128052, "trialdata": {"rt": -1, "stimulus": "<p id=\"stim\">8</p>", "key_press": -1, "trial_type": "single-stim", "trial_index": 46, "time_elapsed": 768230, "internal_node_id": "0.0-35.0-2.0"}}, {"uniqueid": "MTK0738:323Q6SJS8JN6O86YAOPA5U6QU5QHFC", "current_trial": 47, "dateTime": 1512678129053, "trialdata": {"rt": -1, "stimulus": "<p id=\"stim\">7</p>", "key_press": -1, "trial_type": "single-stim", "trial_index": 47, "time_elapsed": 769231, "internal_node_id": "0.0-35.0-3.0"}}, {"uniqueid": "MTK0738:323Q6SJS8JN6O86YAOPA5U6QU5QHFC", "current_trial": 48, "dateTime": 1512678130055, "trialdata": {"rt": -1, "stimulus": "<p id=\"stim\">6</p>", "key_press": -1, "trial_type": "single-stim", "trial_index": 48, "time_elapsed": 770232, "internal_node_id": "0.0-35.0-4.0"}}, {"uniqueid": "MTK0738:323Q6SJS8JN6O86YAOPA5U6QU5QHFC", "current_trial": 49, "dateTime": 1512678131055, "trialdata": {"rt": -1, "stimulus": "<p id=\"stim\">5</p>", "key_press": -1, "trial_type": "single-stim", "trial_index": 49, "time_elapsed": 771233, "internal_node_id": "0.0-35.0-5.0"}}, {"uniqueid": "MTK0738:323Q6SJS8JN6O86YAOPA5U6QU5QHFC", "current_trial": 50, "dateTime": 1512678132057, "trialdata": {"rt": -1, "stimulus": "<p id=\"stim\">4</p>", "key_press": -1, "trial_type": "single-stim", "trial_index": 50, "time_elapsed": 772234, "internal_node_id": "0.0-35.0-6.0"}}, {"uniqueid": "MTK0738:323Q6SJS8JN6O86YAOPA5U6QU5QHFC", "current_trial": 51, "dateTime": 1512678133057, "trialdata": {"rt": -1, "stimulus": "<p id=\"stim\">3</p>", "key_press": -1, "trial_type": "single-stim", "trial_index": 51, "time_elapsed": 773235, "internal_node_id": "0.0-35.0-7.0"}}, {"uniqueid": "MTK0738:323Q6SJS8JN6O86YAOPA5U6QU5QHFC", "current_trial": 52, "dateTime": 1512678134058, "trialdata": {"rt": -1, "stimulus": "<p id=\"stim\">2</p>", "key_press": -1, "trial_type": "single-stim", "trial_index": 52, "time_elapsed": 774236, "internal_node_id": "0.0-35.0-8.0"}}, {"uniqueid": "MTK0738:323Q6SJS8JN6O86YAOPA5U6QU5QHFC", "current_trial": 53, "dateTime": 1512678135059, "trialdata": {"rt": -1, "stimulus": "<p id=\"stim\">1</p>", "key_press": -1, "trial_type": "single-stim", "trial_index": 53, "time_elapsed": 775237, "internal_node_id": "0.0-35.0-9.0"}}, {"uniqueid": "MTK0738:323Q6SJS8JN6O86YAOPA5U6QU5QHFC", "current_trial": 54, "dateTime": 1512678136560, "trialdata": {"rt": -1, "stimulus": "<p id=\"stim\">+</p>", "key_press": -1, "type": "FIXATION", "trial_type": "single-stim", "trial_index": 54, "time_elapsed": 776738, "internal_node_id": "0.0-36.0-0.0"}}, {"uniqueid": "MTK0738:323Q6SJS8JN6O86YAOPA5U6QU5QHFC", "current_trial": 55, "dateTime": 1512678137762, "trialdata": {"rt": -1, "stimulus": "<p id=\"stim\">PUDDLE</p>", "key_press": -1, "type": "PRES_VIS", "word": "puddle", "wordID": 1139, "conditions": [18, 1200, "v", 18000], "trial": 1, "serialpos": 0, "trial_type": "single-stim", "trial_index": 55, "time_elapsed": 777940, "internal_node_id": "0.0-37.0"}}, {"uniqueid": "MTK0738:323Q6SJS8JN6O86YAOPA5U6QU5QHFC", "current_trial": 56, "dateTime": 1512678139803, "trialdata": {"rt": -1, "stimulus": "<p id=\"stim\">PLUTO</p>", "key_press": -1, "type": "PRES_VIS", "word": "pluto", "wordID": 1091, "conditions": [18, 1200, "v", 18000], "trial": 1, "serialpos": 1, "trial_type": "single-stim", "trial_index": 56, "time_elapsed": 779980, "internal_node_id": "0.0-38.0"}}, {"uniqueid": "MTK0738:323Q6SJS8JN6O86YAOPA5U6QU5QHFC", "current_trial": 57, "dateTime": 1512678141905, "trialdata": {"rt": -1, "stimulus": "<p id=\"stim\">FRAGRANCE</p>", "key_press": -1, "type": "PRES_VIS", "word": "fragrance", "wordID": 598, "conditions": [18, 1200, "v", 18000], "trial": 1, "serialpos": 2, "trial_type": "single-stim", "trial_index": 57, "time_elapsed": 782083, "internal_node_id": "0.0-39.0"}}, {"uniqueid": "MTK0738:323Q6SJS8JN6O86YAOPA5U6QU5QHFC", "current_trial": 58, "dateTime": 1512678144059, "trialdata": {"rt": -1, "stimulus": "<p id=\"stim\">STAPLE</p>", "key_press": -1, "type": "PRES_VIS", "word": "staple", "wordID": 1370, "conditions": [18, 1200, "v", 18000], "trial": 1, "serialpos": 3, "trial_type": "single-stim", "trial_index": 58, "time_elapsed": 784237, "internal_node_id": "0.0-40.0"}}, {"uniqueid": "MTK0738:323Q6SJS8JN6O86YAOPA5U6QU5QHFC", "current_trial": 59, "dateTime": 1512678146143, "trialdata": {"rt": -1, "stimulus": "<p id=\"stim\">BATHTUB</p>", "key_press": -1, "type": "PRES_VIS", "word": "bathtub", "wordID": 99, "conditions": [18, 1200, "v", 18000], "trial": 1, "serialpos": 4, "trial_type": "single-stim", "trial_index": 59, "time_elapsed": 786321, "internal_node_id": "0.0-41.0"}}, {"uniqueid": "MTK0738:323Q6SJS8JN6O86YAOPA5U6QU5QHFC", "current_trial": 60, "dateTime": 1512678148187, "trialdata": {"rt": -1, "stimulus": "<p id=\"stim\">TERMITE</p>", "key_press": -1, "type": "PRES_VIS", "word": "termite", "wordID": 1450, "conditions": [18, 1200, "v", 18000], "trial": 1, "serialpos": 5, "trial_type": "single-stim", "trial_index": 60, "time_elapsed": 788365, "internal_node_id": "0.0-42.0"}}, {"uniqueid": "MTK0738:323Q6SJS8JN6O86YAOPA5U6QU5QHFC", "current_trial": 61, "dateTime": 1512678150364, "trialdata": {"rt": -1, "stimulus": "<p id=\"stim\">SUMMIT</p>", "key_press": -1, "type": "PRES_VIS", "word": "summit", "wordID": 1404, "conditions": [18, 1200, "v", 18000], "trial": 1, "serialpos": 6, "trial_type": "single-stim", "trial_index": 61, "time_elapsed": 790542, "internal_node_id": "0.0-43.0"}}, {"uniqueid": "MTK0738:323Q6SJS8JN6O86YAOPA5U6QU5QHFC", "current_trial": 62, "dateTime": 1512678152466, "trialdata": {"rt": -1, "stimulus": "<p id=\"stim\">BISON</p>", "key_press": -1, "type": "PRES_VIS", "word": "bison", "wordID": 130, "conditions": [18, 1200, "v", 18000], "trial": 1, "serialpos": 7, "trial_type": "single-stim", "trial_index": 62, "time_elapsed": 792644, "internal_node_id": "0.0-44.0"}}, {"uniqueid": "MTK0738:323Q6SJS8JN6O86YAOPA5U6QU5QHFC", "current_trial": 63, "dateTime": 1512678154546, "trialdata": {"rt": -1, "stimulus": "<p id=\"stim\">BRICK</p>", "key_press": -1, "type": "PRES_VIS", "word": "brick", "wordID": 171, "conditions": [18, 1200, "v", 18000], "trial": 1, "serialpos": 8, "trial_type": "single-stim", "trial_index": 63, "time_elapsed": 794724, "internal_node_id": "0.0-45.0"}}, {"uniqueid": "MTK0738:323Q6SJS8JN6O86YAOPA5U6QU5QHFC", "current_trial": 64, "dateTime": 1512678156561, "trialdata": {"rt": -1, "stimulus": "<p id=\"stim\">SANDWICH</p>", "key_press": -1, "type": "PRES_VIS", "word": "sandwich", "wordID": 1231, "conditions": [18, 1200, "v", 18000], "trial": 1, "serialpos": 9, "trial_type": "single-stim", "trial_index": 64, "time_elapsed": 796739, "internal_node_id": "0.0-46.0"}}, {"uniqueid": "MTK0738:323Q6SJS8JN6O86YAOPA5U6QU5QHFC", "current_trial": 65, "dateTime": 1512678158805, "trialdata": {"rt": -1, "stimulus": "<p id=\"stim\">CASKET</p>", "key_press": -1, "type": "PRES_VIS", "word": "casket", "wordID": 254, "conditions": [18, 1200, "v", 18000], "trial": 1, "serialpos": 10, "trial_type": "single-stim", "trial_index": 65, "time_elapsed": 798983, "internal_node_id": "0.0-47.0"}}, {"uniqueid": "MTK0738:323Q6SJS8JN6O86YAOPA5U6QU5QHFC", "current_trial": 66, "dateTime": 1512678161022, "trialdata": {"rt": -1, "stimulus": "<p id=\"stim\">SPOON</p>", "key_press": -1, "type": "PRES_VIS", "word": "spoon", "wordID": 1356, "conditions": [18, 1200, "v", 18000], "trial": 1, "serialpos": 11, "trial_type": "single-stim", "trial_index": 66, "time_elapsed": 801200, "internal_node_id": "0.0-48.0"}}, {"uniqueid": "MTK0738:323Q6SJS8JN6O86YAOPA5U6QU5QHFC", "current_trial": 67, "dateTime": 1512678163359, "trialdata": {"rt": -1, "stimulus": "<p id=\"stim\">BULLET</p>", "key_press": -1, "type": "PRES_VIS", "word": "bullet", "wordID": 193, "conditions": [18, 1200, "v", 18000], "trial": 1, "serialpos": 12, "trial_type": "single-stim", "trial_index": 67, "time_elapsed": 803537, "internal_node_id": "0.0-49.0"}}, {"uniqueid": "MTK0738:323Q6SJS8JN6O86YAOPA5U6QU5QHFC", "current_trial": 68, "dateTime": 1512678165516, "trialdata": {"rt": -1, "stimulus": "<p id=\"stim\">CASHIER</p>", "key_press": -1, "type": "PRES_VIS", "word": "cashier", "wordID": 253, "conditions": [18, 1200, "v", 18000], "trial": 1, "serialpos": 13, "trial_type": "single-stim", "trial_index": 68, "time_elapsed": 805691, "internal_node_id": "0.0-50.0"}}, {"uniqueid": "MTK0738:323Q6SJS8JN6O86YAOPA5U6QU5QHFC", "current_trial": 69, "dateTime": 1512678167720, "trialdata": {"rt": -1, "stimulus": "<p id=\"stim\">FLESH</p>", "key_press": -1, "type": "PRES_VIS", "word": "flesh", "wordID": 578, "conditions": [18, 1200, "v", 18000], "trial": 1, "serialpos": 14, "trial_type": "single-stim", "trial_index": 69, "time_elapsed": 807898, "internal_node_id": "0.0-51.0"}}, {"uniqueid": "MTK0738:323Q6SJS8JN6O86YAOPA5U6QU5QHFC", "current_trial": 70, "dateTime": 1512678169958, "trialdata": {"rt": -1, "stimulus": "<p id=\"stim\">BALLOON</p>", "key_press": -1, "type": "PRES_VIS", "word": "balloon", "wordID": 74, "conditions": [18, 1200, "v", 18000], "trial": 1, "serialpos": 15, "trial_type": "single-stim", "trial_index": 70, "time_elapsed": 810136, "internal_node_id": "0.0-52.0"}}, {"uniqueid": "MTK0738:323Q6SJS8JN6O86YAOPA5U6QU5QHFC", "current_trial": 71, "dateTime": 1512678172224, "trialdata": {"rt": -1, "stimulus": "<p id=\"stim\">TURNIP</p>", "key_press": -1, "type": "PRES_VIS", "word": "turnip", "wordID": 1520, "conditions": [18, 1200, "v", 18000], "trial": 1, "serialpos": 16, "trial_type": "single-stim", "trial_index": 71, "time_elapsed": 812402, "internal_node_id": "0.0-53.0"}}, {"uniqueid": "MTK0738:323Q6SJS8JN6O86YAOPA5U6QU5QHFC", "current_trial": 72, "dateTime": 1512678174246, "trialdata": {"rt": -1, "stimulus": "<p id=\"stim\">NOTEBOOK</p>", "key_press": -1, "type": "PRES_VIS", "word": "notebook", "wordID": 958, "conditions": [18, 1200, "v", 18000], "trial": 1, "serialpos": 17, "trial_type": "single-stim", "trial_index": 72, "time_elapsed": 814424, "internal_node_id": "0.0-54.0"}}, {"uniqueid": "MTK0738:323Q6SJS8JN6O86YAOPA5U6QU5QHFC", "current_trial": 73, "dateTime": 1512678176603, "trialdata": {"rt": -1, "stimulus": "", "key_press": -1, "type": "PRE_RECALL_DELAY", "trial_type": "single-stim", "trial_index": 73, "time_elapsed": 816781, "internal_node_id": "0.0-55.0-0.0"}}, {"uniqueid": "MTK0738:323Q6SJS8JN6O86YAOPA5U6QU5QHFC", "current_trial": 74, "dateTime": 1512678177104, "trialdata": {"rt": -1000, "stimulus": "/static/audio/400Hz.wav", "key_press": -1, "type": "PRE_RECALL_ALERT", "trial_type": "single-audio", "trial_index": 74, "time_elapsed": 817282, "internal_node_id": "0.0-56.0"}}, {"uniqueid": "MTK0738:323Q6SJS8JN6O86YAOPA5U6QU5QHFC", "current_trial": 75, "dateTime": 1512678237112, "trialdata": {"rt": [5076, 9709, 15189, 26178, 33665, 47872], "recwords": ["turnup", "notebook", "sandwitch", "casket", "bison", "summit"], "type": "FREE_RECALL", "conditions": [18, 1200, "v", 18000], "trial": 1, "trial_type": "free-recall", "trial_index": 75, "time_elapsed": 877285, "internal_node_id": "0.0-57.0-0.0"}}, {"uniqueid": "MTK0738:323Q6SJS8JN6O86YAOPA5U6QU5QHFC", "current_trial": 76, "dateTime": 1512678244050, "trialdata": {"rt": 4930, "key_press": 74, "type": "INSTRUCTIONS", "trial_type": "text", "trial_index": 76, "time_elapsed": 884221, "internal_node_id": "0.0-58.0"}}, {"uniqueid": "MTK0738:323Q6SJS8JN6O86YAOPA5U6QU5QHFC", "current_trial": 77, "dateTime": 1512678269053, "trialdata": {"rt": [7187, 14115, 18372, 23728], "responses": ["10", "20", "18", "14"], "num1": [4, 9, 5, 7, 1], "num2": [2, 7, 5, 6, 1], "num3": [4, 4, 8, 1, 2], "type": "DISTRACTOR", "conditions": [24, 800, "v", 24000], "trial": 2, "trial_type": "math-distractor", "trial_index": 77, "time_elapsed": 909231, "internal_node_id": "0.0-59.0"}}, {"uniqueid": "MTK0738:323Q6SJS8JN6O86YAOPA5U6QU5QHFC", "current_trial": 78, "dateTime": 1512678272053, "trialdata": {"rt": -1, "stimulus": "<p id=\"stim\">10</p>", "key_press": -1, "trial_type": "single-stim", "trial_index": 78, "time_elapsed": 912231, "internal_node_id": "0.0-60.0-0.0"}}, {"uniqueid": "MTK0738:323Q6SJS8JN6O86YAOPA5U6QU5QHFC", "current_trial": 79, "dateTime": 1512678273054, "trialdata": {"rt": -1, "stimulus": "<p id=\"stim\">9</p>", "key_press": -1, "trial_type": "single-stim", "trial_index": 79, "time_elapsed": 913232, "internal_node_id": "0.0-60.0-1.0"}}, {"uniqueid": "MTK0738:323Q6SJS8JN6O86YAOPA5U6QU5QHFC", "current_trial": 80, "dateTime": 1512678274055, "trialdata": {"rt": -1, "stimulus": "<p id=\"stim\">8</p>", "key_press": -1, "trial_type": "single-stim", "trial_index": 80, "time_elapsed": 914233, "internal_node_id": "0.0-60.0-2.0"}}, {"uniqueid": "MTK0738:323Q6SJS8JN6O86YAOPA5U6QU5QHFC", "current_trial": 81, "dateTime": 1512678275056, "trialdata": {"rt": -1, "stimulus": "<p id=\"stim\">7</p>", "key_press": -1, "trial_type": "single-stim", "trial_index": 81, "time_elapsed": 915234, "internal_node_id": "0.0-60.0-3.0"}}, {"uniqueid": "MTK0738:323Q6SJS8JN6O86YAOPA5U6QU5QHFC", "current_trial": 82, "dateTime": 1512678276057, "trialdata": {"rt": -1, "stimulus": "<p id=\"stim\">6</p>", "key_press": -1, "trial_type": "single-stim", "trial_index": 82, "time_elapsed": 916235, "internal_node_id": "0.0-60.0-4.0"}}, {"uniqueid": "MTK0738:323Q6SJS8JN6O86YAOPA5U6QU5QHFC", "current_trial": 83, "dateTime": 1512678277059, "trialdata": {"rt": -1, "stimulus": "<p id=\"stim\">5</p>", "key_press": -1, "trial_type": "single-stim", "trial_index": 83, "time_elapsed": 917236, "internal_node_id": "0.0-60.0-5.0"}}, {"uniqueid": "MTK0738:323Q6SJS8JN6O86YAOPA5U6QU5QHFC", "current_trial": 84, "dateTime": 1512678278059, "trialdata": {"rt": -1, "stimulus": "<p id=\"stim\">4</p>", "key_press": -1, "trial_type": "single-stim", "trial_index": 84, "time_elapsed": 918237, "internal_node_id": "0.0-60.0-6.0"}}, {"uniqueid": "MTK0738:323Q6SJS8JN6O86YAOPA5U6QU5QHFC", "current_trial": 85, "dateTime": 1512678279060, "trialdata": {"rt": -1, "stimulus": "<p id=\"stim\">3</p>", "key_press": -1, "trial_type": "single-stim", "trial_index": 85, "time_elapsed": 919238, "internal_node_id": "0.0-60.0-7.0"}}, {"uniqueid": "MTK0738:323Q6SJS8JN6O86YAOPA5U6QU5QHFC", "current_trial": 86, "dateTime": 1512678280061, "trialdata": {"rt": -1, "stimulus": "<p id=\"stim\">2</p>", "key_press": -1, "trial_type": "single-stim", "trial_index": 86, "time_elapsed": 920239, "internal_node_id": "0.0-60.0-8.0"}}, {"uniqueid": "MTK0738:323Q6SJS8JN6O86YAOPA5U6QU5QHFC", "current_trial": 87, "dateTime": 1512678281062, "trialdata": {"rt": -1, "stimulus": "<p id=\"stim\">1</p>", "key_press": -1, "trial_type": "single-stim", "trial_index": 87, "time_elapsed": 921240, "internal_node_id": "0.0-60.0-9.0"}}, {"uniqueid": "MTK0738:323Q6SJS8JN6O86YAOPA5U6QU5QHFC", "current_trial": 88, "dateTime": 1512678282563, "trialdata": {"rt": -1, "stimulus": "<p id=\"stim\">+</p>", "key_press": -1, "type": "FIXATION", "trial_type": "single-stim", "trial_index": 88, "time_elapsed": 922741, "internal_node_id": "0.0-61.0-0.0"}}, {"uniqueid": "MTK0738:323Q6SJS8JN6O86YAOPA5U6QU5QHFC", "current_trial": 89, "dateTime": 1512678283364, "trialdata": {"rt": -1, "stimulus": "<p id=\"stim\">HAND</p>", "key_press": -1, "type": "PRES_VIS", "word": "hand", "wordID": 682, "conditions": [24, 800, "v", 24000], "trial": 2, "serialpos": 0, "trial_type": "single-stim", "trial_index": 89, "time_elapsed": 923542, "internal_node_id": "0.0-62.0"}}, {"uniqueid": "MTK0738:323Q6SJS8JN6O86YAOPA5U6QU5QHFC", "current_trial": 90, "dateTime": 1512678285336, "trialdata": {"rt": -1, "stimulus": "<p id=\"stim\">SHELF</p>", "key_press": -1, "type": "PRES_VIS", "word": "shelf", "wordID": 1279, "conditions": [24, 800, "v", 24000], "trial": 2, "serialpos": 1, "trial_type": "single-stim", "trial_index": 90, "time_elapsed": 925514, "internal_node_id": "0.0-63.0"}}, {"uniqueid": "MTK0738:323Q6SJS8JN6O86YAOPA5U6QU5QHFC", "current_trial": 91, "dateTime": 1512678287069, "trialdata": {"rt": -1, "stimulus": "<p id=\"stim\">WRENCH</p>", "key_press": -1, "type": "PRES_VIS", "word": "wrench", "wordID": 1624, "conditions": [24, 800, "v", 24000], "trial": 2, "serialpos": 2, "trial_type": "single-stim", "trial_index": 91, "time_elapsed": 927246, "internal_node_id": "0.0-64.0"}}, {"uniqueid": "MTK0738:323Q6SJS8JN6O86YAOPA5U6QU5QHFC", "current_trial": 92, "dateTime": 1512678288736, "trialdata": {"rt": -1, "stimulus": "<p id=\"stim\">WIDOW</p>", "key_press": -1, "type": "PRES_VIS", "word": "widow", "wordID": 1607, "conditions": [24, 800, "v", 24000], "trial": 2, "serialpos": 3, "trial_type": "single-stim", "trial_index": 92, "time_elapsed": 928914, "internal_node_id": "0.0-65.0"}}, {"uniqueid": "MTK0738:323Q6SJS8JN6O86YAOPA5U6QU5QHFC", "current_trial": 93, "dateTime": 1512678290560, "trialdata": {"rt": -1, "stimulus": "<p id=\"stim\">MAILMAN</p>", "key_press": -1, "type": "PRES_VIS", "word": "mailman", "wordID": 857, "conditions": [24, 800, "v", 24000], "trial": 2, "serialpos": 4, "trial_type": "single-stim", "trial_index": 93, "time_elapsed": 930738, "internal_node_id": "0.0-66.0"}}, {"uniqueid": "MTK0738:323Q6SJS8JN6O86YAOPA5U6QU5QHFC", "current_trial": 94, "dateTime": 1512678292362, "trialdata": {"rt": -1, "stimulus": "<p id=\"stim\">EAGLE</p>", "key_press": -1, "type": "PRES_VIS", "word": "eagle", "wordID": 511, "conditions": [24, 800, "v", 24000], "trial": 2, "serialpos": 5, "trial_type": "single-stim", "trial_index": 94, "time_elapsed": 932540, "internal_node_id": "0.0-67.0"}}, {"uniqueid": "MTK0738:323Q6SJS8JN6O86YAOPA5U6QU5QHFC", "current_trial": 95, "dateTime": 1512678294050, "trialdata": {"rt": -1, "stimulus": "<p id=\"stim\">CHAMPAGNE</p>", "key_press": -1, "type": "PRES_VIS", "word": "champagne", "wordID": 277, "conditions": [24, 800, "v", 24000], "trial": 2, "serialpos": 6, "trial_type": "single-stim", "trial_index": 95, "time_elapsed": 934228, "internal_node_id": "0.0-68.0"}}, {"uniqueid": "MTK0738:323Q6SJS8JN6O86YAOPA5U6QU5QHFC", "current_trial": 96, "dateTime": 1512678295953, "trialdata": {"rt": -1, "stimulus": "<p id=\"stim\">GIRL</p>", "key_press": -1, "type": "PRES_VIS", "word": "girl", "wordID": 636, "conditions": [24, 800, "v", 24000], "trial": 2, "serialpos": 7, "trial_type": "single-stim", "trial_index": 96, "time_elapsed": 936131, "internal_node_id": "0.0-69.0"}}, {"uniqueid": "MTK0738:323Q6SJS8JN6O86YAOPA5U6QU5QHFC", "current_trial": 97, "dateTime": 1512678297594, "trialdata": {"rt": -1, "stimulus": "<p id=\"stim\">WOMAN</p>", "key_press": -1, "type": "PRES_VIS", "word": "woman", "wordID": 1619, "conditions": [24, 800, "v", 24000], "trial": 2, "serialpos": 8, "trial_type": "single-stim", "trial_index": 97, "time_elapsed": 937772, "internal_node_id": "0.0-70.0"}}, {"uniqueid": "MTK0738:323Q6SJS8JN6O86YAOPA5U6QU5QHFC", "current_trial": 98, "dateTime": 1512678299485, "trialdata": {"rt": -1, "stimulus": "<p id=\"stim\">MAILBOX</p>", "key_press": -1, "type": "PRES_VIS", "word": "mailbox", "wordID": 856, "conditions": [24, 800, "v", 24000], "trial": 2, "serialpos": 9, "trial_type": "single-stim", "trial_index": 98, "time_elapsed": 939663, "internal_node_id": "0.0-71.0"}}, {"uniqueid": "MTK0738:323Q6SJS8JN6O86YAOPA5U6QU5QHFC", "current_trial": 99, "dateTime": 1512678301333, "trialdata": {"rt": -1, "stimulus": "<p id=\"stim\">ACTRESS</p>", "key_press": -1, "type": "PRES_VIS", "word": "actress", "wordID": 5, "conditions": [24, 800, "v", 24000], "trial": 2, "serialpos": 10, "trial_type": "single-stim", "trial_index": 99, "time_elapsed": 941511, "internal_node_id": "0.0-72.0"}}, {"uniqueid": "MTK0738:323Q6SJS8JN6O86YAOPA5U6QU5QHFC", "current_trial": 100, "dateTime": 1512678303115, "trialdata": {"rt": -1, "stimulus": "<p id=\"stim\">SNAIL</p>", "key_press": -1, "type": "PRES_VIS", "word": "snail", "wordID": 1331, "conditions": [24, 800, "v", 24000], "trial": 2, "serialpos": 11, "trial_type": "single-stim", "trial_index": 100, "time_elapsed": 943293, "internal_node_id": "0.0-73.0"}}, {"uniqueid": "MTK0738:323Q6SJS8JN6O86YAOPA5U6QU5QHFC", "current_trial": 101, "dateTime": 1512678304829, "trialdata": {"rt": -1, "stimulus": "<p id=\"stim\">SCALPEL</p>", "key_press": -1, "type": "PRES_VIS", "word": "scalpel", "wordID": 1242, "conditions": [24, 800, "v", 24000], "trial": 2, "serialpos": 12, "trial_type": "single-stim", "trial_index": 101, "time_elapsed": 945007, "internal_node_id": "0.0-74.0"}}, {"uniqueid": "MTK0738:323Q6SJS8JN6O86YAOPA5U6QU5QHFC", "current_trial": 102, "dateTime": 1512678306738, "trialdata": {"rt": -1, "stimulus": "<p id=\"stim\">RAZOR</p>", "key_press": -1, "type": "PRES_VIS", "word": "razor", "wordID": 1170, "conditions": [24, 800, "v", 24000], "trial": 2, "serialpos": 13, "trial_type": "single-stim", "trial_index": 102, "time_elapsed": 946916, "internal_node_id": "0.0-75.0"}}, {"uniqueid": "MTK0738:323Q6SJS8JN6O86YAOPA5U6QU5QHFC", "current_trial": 103, "dateTime": 1512678308602, "trialdata": {"rt": -1, "stimulus": "<p id=\"stim\">ZIPPER</p>", "key_press": -1, "type": "PRES_VIS", "word": "zipper", "wordID": 1635, "conditions": [24, 800, "v", 24000], "trial": 2, "serialpos": 14, "trial_type": "single-stim", "trial_index": 103, "time_elapsed": 948780, "internal_node_id": "0.0-76.0"}}, {"uniqueid": "MTK0738:323Q6SJS8JN6O86YAOPA5U6QU5QHFC", "current_trial": 104, "dateTime": 1512678310442, "trialdata": {"rt": -1, "stimulus": "<p id=\"stim\">SUPPER</p>", "key_press": -1, "type": "PRES_VIS", "word": "supper", "wordID": 1410, "conditions": [24, 800, "v", 24000], "trial": 2, "serialpos": 15, "trial_type": "single-stim", "trial_index": 104, "time_elapsed": 950620, "internal_node_id": "0.0-77.0"}}, {"uniqueid": "MTK0738:323Q6SJS8JN6O86YAOPA5U6QU5QHFC", "current_trial": 105, "dateTime": 1512678312236, "trialdata": {"rt": -1, "stimulus": "<p id=\"stim\">FOREHEAD</p>", "key_press": -1, "type": "PRES_VIS", "word": "forehead", "wordID": 591, "conditions": [24, 800, "v", 24000], "trial": 2, "serialpos": 16, "trial_type": "single-stim", "trial_index": 105, "time_elapsed": 952414, "internal_node_id": "0.0-78.0"}}, {"uniqueid": "MTK0738:323Q6SJS8JN6O86YAOPA5U6QU5QHFC", "current_trial": 106, "dateTime": 1512678314138, "trialdata": {"rt": -1, "stimulus": "<p id=\"stim\">UMPIRE</p>", "key_press": -1, "type": "PRES_VIS", "word": "umpire", "wordID": 1534, "conditions": [24, 800, "v", 24000], "trial": 2, "serialpos": 17, "trial_type": "single-stim", "trial_index": 106, "time_elapsed": 954316, "internal_node_id": "0.0-79.0"}}, {"uniqueid": "MTK0738:323Q6SJS8JN6O86YAOPA5U6QU5QHFC", "current_trial": 107, "dateTime": 1512678316066, "trialdata": {"rt": -1, "stimulus": "<p id=\"stim\">BANQUET</p>", "key_press": -1, "type": "PRES_VIS", "word": "banquet", "wordID": 85, "conditions": [24, 800, "v", 24000], "trial": 2, "serialpos": 18, "trial_type": "single-stim", "trial_index": 107, "time_elapsed": 956243, "internal_node_id": "0.0-80.0"}}, {"uniqueid": "MTK0738:323Q6SJS8JN6O86YAOPA5U6QU5QHFC", "current_trial": 108, "dateTime": 1512678318041, "trialdata": {"rt": -1, "stimulus": "<p id=\"stim\">TROMBONE</p>", "key_press": -1, "type": "PRES_VIS", "word": "trombone", "wordID": 1507, "conditions": [24, 800, "v", 24000], "trial": 2, "serialpos": 19, "trial_type": "single-stim", "trial_index": 108, "time_elapsed": 958219, "internal_node_id": "0.0-81.0"}}, {"uniqueid": "MTK0738:323Q6SJS8JN6O86YAOPA5U6QU5QHFC", "current_trial": 109, "dateTime": 1512678319742, "trialdata": {"rt": -1, "stimulus": "<p id=\"stim\">GUITAR</p>", "key_press": -1, "type": "PRES_VIS", "word": "guitar", "wordID": 669, "conditions": [24, 800, "v", 24000], "trial": 2, "serialpos": 20, "trial_type": "single-stim", "trial_index": 109, "time_elapsed": 959920, "internal_node_id": "0.0-82.0"}}, {"uniqueid": "MTK0738:323Q6SJS8JN6O86YAOPA5U6QU5QHFC", "current_trial": 110, "dateTime": 1512678321626, "trialdata": {"rt": -1, "stimulus": "<p id=\"stim\">RAFT</p>", "key_press": -1, "type": "PRES_VIS", "word": "raft", "wordID": 1158, "conditions": [24, 800, "v", 24000], "trial": 2, "serialpos": 21, "trial_type": "single-stim", "trial_index": 110, "time_elapsed": 961804, "internal_node_id": "0.0-83.0"}}, {"uniqueid": "MTK0738:323Q6SJS8JN6O86YAOPA5U6QU5QHFC", "current_trial": 111, "dateTime": 1512678323518, "trialdata": {"rt": -1, "stimulus": "<p id=\"stim\">NIGHTGOWN</p>", "key_press": -1, "type": "PRES_VIS", "word": "nightgown", "wordID": 952, "conditions": [24, 800, "v", 24000], "trial": 2, "serialpos": 22, "trial_type": "single-stim", "trial_index": 111, "time_elapsed": 963696, "internal_node_id": "0.0-84.0"}}, {"uniqueid": "MTK0738:323Q6SJS8JN6O86YAOPA5U6QU5QHFC", "current_trial": 112, "dateTime": 1512678325216, "trialdata": {"rt": -1, "stimulus": "<p id=\"stim\">PARROT</p>", "key_press": -1, "type": "PRES_VIS", "word": "parrot", "wordID": 1014, "conditions": [24, 800, "v", 24000], "trial": 2, "serialpos": 23, "trial_type": "single-stim", "trial_index": 112, "time_elapsed": 965393, "internal_node_id": "0.0-85.0"}}, {"uniqueid": "MTK0738:323Q6SJS8JN6O86YAOPA5U6QU5QHFC", "current_trial": 113, "dateTime": 1512678327493, "trialdata": {"rt": -1, "stimulus": "", "key_press": -1, "type": "PRE_RECALL_DELAY", "trial_type": "single-stim", "trial_index": 113, "time_elapsed": 967671, "internal_node_id": "0.0-86.0-0.0"}}, {"uniqueid": "MTK0738:323Q6SJS8JN6O86YAOPA5U6QU5QHFC", "current_trial": 114, "dateTime": 1512678327994, "trialdata": {"rt": -1000, "stimulus": "/static/audio/400Hz.wav", "key_press": -1, "type": "PRE_RECALL_ALERT", "trial_type": "single-audio", "trial_index": 114, "time_elapsed": 968172, "internal_node_id": "0.0-87.0"}}, {"uniqueid": "MTK0738:323Q6SJS8JN6O86YAOPA5U6QU5QHFC", "current_trial": 115, "dateTime": 1512678388003, "trialdata": {"rt": [5672, 11077, 15395, 18351, 22985, 28779, 45383, 57819], "recwords": ["parot", "champain", "mail", "girl", "woman", "banquet", "mailman", "egeal"], "type": "FREE_RECALL", "conditions": [24, 800, "v", 24000], "trial": 2, "trial_type": "free-recall", "trial_index": 115, "time_elapsed": 1028176, "internal_node_id": "0.0-88.0-0.0"}}, {"uniqueid": "MTK0738:323Q6SJS8JN6O86YAOPA5U6QU5QHFC", "current_trial": 116, "dateTime": 1512678393210, "trialdata": {"rt": 3206, "key_press": 74, "type": "INSTRUCTIONS", "trial_type": "text", "trial_index": 116, "time_elapsed": 1033388, "internal_node_id": "0.0-89.0"}}, {"uniqueid": "MTK0738:323Q6SJS8JN6O86YAOPA5U6QU5QHFC", "current_trial": 117, "dateTime": 1512678407212, "trialdata": {"rt": [4192, 11394], "responses": ["11", "13"], "num1": [2, 6, 3], "num2": [5, 7, 8], "num3": [4, 1, 1], "type": "DISTRACTOR", "conditions": [12, 1600, "v", 12000], "trial": 3, "trial_type": "math-distractor", "trial_index": 117, "time_elapsed": 1047389, "internal_node_id": "0.0-90.0"}}, {"uniqueid": "MTK0738:323Q6SJS8JN6O86YAOPA5U6QU5QHFC", "current_trial": 118, "dateTime": 1512678410212, "trialdata": {"rt": -1, "stimulus": "<p id=\"stim\">10</p>", "key_press": -1, "trial_type": "single-stim", "trial_index": 118, "time_elapsed": 1050390, "internal_node_id": "0.0-91.0-0.0"}}, {"uniqueid": "MTK0738:323Q6SJS8JN6O86YAOPA5U6QU5QHFC", "current_trial": 119, "dateTime": 1512678411213, "trialdata": {"rt": -1, "stimulus": "<p id=\"stim\">9</p>", "key_press": -1, "trial_type": "single-stim", "trial_index": 119, "time_elapsed": 1051391, "internal_node_id": "0.0-91.0-1.0"}}, {"uniqueid": "MTK0738:323Q6SJS8JN6O86YAOPA5U6QU5QHFC", "current_trial": 120, "dateTime": 1512678412214, "trialdata": {"rt": -1, "stimulus": "<p id=\"stim\">8</p>", "key_press": -1, "trial_type": "single-stim", "trial_index": 120, "time_elapsed": 1052392, "internal_node_id": "0.0-91.0-2.0"}}, {"uniqueid": "MTK0738:323Q6SJS8JN6O86YAOPA5U6QU5QHFC", "current_trial": 121, "dateTime": 1512678413214, "trialdata": {"rt": -1, "stimulus": "<p id=\"stim\">7</p>", "key_press": -1, "trial_type": "single-stim", "trial_index": 121, "time_elapsed": 1053392, "internal_node_id": "0.0-91.0-3.0"}}, {"uniqueid": "MTK0738:323Q6SJS8JN6O86YAOPA5U6QU5QHFC", "current_trial": 122, "dateTime": 1512678414215, "trialdata": {"rt": -1, "stimulus": "<p id=\"stim\">6</p>", "key_press": -1, "trial_type": "single-stim", "trial_index": 122, "time_elapsed": 1054393, "internal_node_id": "0.0-91.0-4.0"}}, {"uniqueid": "MTK0738:323Q6SJS8JN6O86YAOPA5U6QU5QHFC", "current_trial": 123, "dateTime": 1512678415216, "trialdata": {"rt": -1, "stimulus": "<p id=\"stim\">5</p>", "key_press": -1, "trial_type": "single-stim", "trial_index": 123, "time_elapsed": 1055394, "internal_node_id": "0.0-91.0-5.0"}}, {"uniqueid": "MTK0738:323Q6SJS8JN6O86YAOPA5U6QU5QHFC", "current_trial": 124, "dateTime": 1512678416216, "trialdata": {"rt": -1, "stimulus": "<p id=\"stim\">4</p>", "key_press": -1, "trial_type": "single-stim", "trial_index": 124, "time_elapsed": 1056394, "internal_node_id": "0.0-91.0-6.0"}}, {"uniqueid": "MTK0738:323Q6SJS8JN6O86YAOPA5U6QU5QHFC", "current_trial": 125, "dateTime": 1512678417217, "trialdata": {"rt": -1, "stimulus": "<p id=\"stim\">3</p>", "key_press": -1, "trial_type": "single-stim", "trial_index": 125, "time_elapsed": 1057395, "internal_node_id": "0.0-91.0-7.0"}}, {"uniqueid": "MTK0738:323Q6SJS8JN6O86YAOPA5U6QU5QHFC", "current_trial": 126, "dateTime": 1512678418217, "trialdata": {"rt": -1, "stimulus": "<p id=\"stim\">2</p>", "key_press": -1, "trial_type": "single-stim", "trial_index": 126, "time_elapsed": 1058395, "internal_node_id": "0.0-91.0-8.0"}}, {"uniqueid": "MTK0738:323Q6SJS8JN6O86YAOPA5U6QU5QHFC", "current_trial": 127, "dateTime": 1512678419217, "trialdata": {"rt": -1, "stimulus": "<p id=\"stim\">1</p>", "key_press": -1, "trial_type": "single-stim", "trial_index": 127, "time_elapsed": 1059395, "internal_node_id": "0.0-91.0-9.0"}}, {"uniqueid": "MTK0738:323Q6SJS8JN6O86YAOPA5U6QU5QHFC", "current_trial": 128, "dateTime": 1512678420718, "trialdata": {"rt": -1, "stimulus": "<p id=\"stim\">+</p>", "key_press": -1, "type": "FIXATION", "trial_type": "single-stim", "trial_index": 128, "time_elapsed": 1060896, "internal_node_id": "0.0-92.0-0.0"}}, {"uniqueid": "MTK0738:323Q6SJS8JN6O86YAOPA5U6QU5QHFC", "current_trial": 129, "dateTime": 1512678422319, "trialdata": {"rt": -1, "stimulus": "<p id=\"stim\">SKILLET</p>", "key_press": -1, "type": "PRES_VIS", "word": "skillet", "wordID": 1316, "conditions": [12, 1600, "v", 12000], "trial": 3, "serialpos": 0, "trial_type": "single-stim", "trial_index": 129, "time_elapsed": 1062497, "internal_node_id": "0.0-93.0"}}, {"uniqueid": "MTK0738:323Q6SJS8JN6O86YAOPA5U6QU5QHFC", "current_trial": 130, "dateTime": 1512678424815, "trialdata": {"rt": -1, "stimulus": "<p id=\"stim\">WAITRESS</p>", "key_press": -1, "type": "PRES_VIS", "word": "waitress", "wordID": 1580, "conditions": [12, 1600, "v", 12000], "trial": 3, "serialpos": 1, "trial_type": "single-stim", "trial_index": 130, "time_elapsed": 1064993, "internal_node_id": "0.0-94.0"}}, {"uniqueid": "MTK0738:323Q6SJS8JN6O86YAOPA5U6QU5QHFC", "current_trial": 131, "dateTime": 1512678427269, "trialdata": {"rt": -1, "stimulus": "<p id=\"stim\">SPIDER</p>", "key_press": -1, "type": "PRES_VIS", "word": "spider", "wordID": 1350, "conditions": [12, 1600, "v", 12000], "trial": 3, "serialpos": 2, "trial_type": "single-stim", "trial_index": 131, "time_elapsed": 1067447, "internal_node_id": "0.0-95.0"}}, {"uniqueid": "MTK0738:323Q6SJS8JN6O86YAOPA5U6QU5QHFC", "current_trial": 132, "dateTime": 1512678430051, "trialdata": {"rt": -1, "stimulus": "<p id=\"stim\">ARMY</p>", "key_press": -1, "type": "PRES_VIS", "word": "army", "wordID": 38, "conditions": [12, 1600, "v", 12000], "trial": 3, "serialpos": 3, "trial_type": "single-stim", "trial_index": 132, "time_elapsed": 1070229, "internal_node_id": "0.0-96.0"}}, {"uniqueid": "MTK0738:323Q6SJS8JN6O86YAOPA5U6QU5QHFC", "current_trial": 133, "dateTime": 1512678432770, "trialdata": {"rt": -1, "stimulus": "<p id=\"stim\">DONKEY</p>", "key_press": -1, "type": "PRES_VIS", "word": "donkey", "wordID": 483, "conditions": [12, 1600, "v", 12000], "trial": 3, "serialpos": 4, "trial_type": "single-stim", "trial_index": 133, "time_elapsed": 1072948, "internal_node_id": "0.0-97.0"}}, {"uniqueid": "MTK0738:323Q6SJS8JN6O86YAOPA5U6QU5QHFC", "current_trial": 134, "dateTime": 1512678435199, "trialdata": {"rt": -1, "stimulus": "<p id=\"stim\">NURSE</p>", "key_press": -1, "type": "PRES_VIS", "word": "nurse", "wordID": 962, "conditions": [12, 1600, "v", 12000], "trial": 3, "serialpos": 5, "trial_type": "single-stim", "trial_index": 134, "time_elapsed": 1075377, "internal_node_id": "0.0-98.0"}}, {"uniqueid": "MTK0738:323Q6SJS8JN6O86YAOPA5U6QU5QHFC", "current_trial": 135, "dateTime": 1512678437665, "trialdata": {"rt": -1, "stimulus": "<p id=\"stim\">PATIENT</p>", "key_press": -1, "type": "PRES_VIS", "word": "patient", "wordID": 1023, "conditions": [12, 1600, "v", 12000], "trial": 3, "serialpos": 6, "trial_type": "single-stim", "trial_index": 135, "time_elapsed": 1077843, "internal_node_id": "0.0-99.0"}}, {"uniqueid": "MTK0738:323Q6SJS8JN6O86YAOPA5U6QU5QHFC", "current_trial": 136, "dateTime": 1512678440206, "trialdata": {"rt": -1, "stimulus": "<p id=\"stim\">HOSTESS</p>", "key_press": -1, "type": "PRES_VIS", "word": "hostess", "wordID": 722, "conditions": [12, 1600, "v", 12000], "trial": 3, "serialpos": 7, "trial_type": "single-stim", "trial_index": 136, "time_elapsed": 1080384, "internal_node_id": "0.0-100.0"}}, {"uniqueid": "MTK0738:323Q6SJS8JN6O86YAOPA5U6QU5QHFC", "current_trial": 137, "dateTime": 1512678442996, "trialdata": {"rt": -1, "stimulus": "<p id=\"stim\">MILDEW</p>", "key_press": -1, "type": "PRES_VIS", "word": "mildew", "wordID": 892, "conditions": [12, 1600, "v", 12000], "trial": 3, "serialpos": 8, "trial_type": "single-stim", "trial_index": 137, "time_elapsed": 1083174, "internal_node_id": "0.0-101.0"}}, {"uniqueid": "MTK0738:323Q6SJS8JN6O86YAOPA5U6QU5QHFC", "current_trial": 138, "dateTime": 1512678445639, "trialdata": {"rt": -1, "stimulus": "<p id=\"stim\">HOOK</p>", "key_press": -1, "type": "PRES_VIS", "word": "hook", "wordID": 714, "conditions": [12, 1600, "v", 12000], "trial": 3, "serialpos": 9, "trial_type": "single-stim", "trial_index": 138, "time_elapsed": 1085817, "internal_node_id": "0.0-102.0"}}, {"uniqueid": "MTK0738:323Q6SJS8JN6O86YAOPA5U6QU5QHFC", "current_trial": 139, "dateTime": 1512678448050, "trialdata": {"rt": -1, "stimulus": "<p id=\"stim\">WINDOW</p>", "key_press": -1, "type": "PRES_VIS", "word": "window", "wordID": 1610, "conditions": [12, 1600, "v", 12000], "trial": 3, "serialpos": 10, "trial_type": "single-stim", "trial_index": 139, "time_elapsed": 1088228, "internal_node_id": "0.0-103.0"}}, {"uniqueid": "MTK0738:323Q6SJS8JN6O86YAOPA5U6QU5QHFC", "current_trial": 140, "dateTime": 1512678450646, "trialdata": {"rt": -1, "stimulus": "<p id=\"stim\">MACHINE</p>", "key_press": -1, "type": "PRES_VIS", "word": "machine", "wordID": 851, "conditions": [12, 1600, "v", 12000], "trial": 3, "serialpos": 11, "trial_type": "single-stim", "trial_index": 140, "time_elapsed": 1090824, "internal_node_id": "0.0-104.0"}}, {"uniqueid": "MTK0738:323Q6SJS8JN6O86YAOPA5U6QU5QHFC", "current_trial": 141, "dateTime": 1512678452762, "trialdata": {"rt": -1, "stimulus": "", "key_press": -1, "type": "PRE_RECALL_DELAY", "trial_type": "single-stim", "trial_index": 141, "time_elapsed": 1092940, "internal_node_id": "0.0-105.0-0.0"}}, {"uniqueid": "MTK0738:323Q6SJS8JN6O86YAOPA5U6QU5QHFC", "current_trial": 142, "dateTime": 1512678453263, "trialdata": {"rt": -1000, "stimulus": "/static/audio/400Hz.wav", "key_press": -1, "type": "PRE_RECALL_ALERT", "trial_type": "single-audio", "trial_index": 142, "time_elapsed": 1093441, "internal_node_id": "0.0-106.0"}}, {"uniqueid": "MTK0738:323Q6SJS8JN6O86YAOPA5U6QU5QHFC", "current_trial": 143, "dateTime": 1512678513272, "trialdata": {"rt": [6342, 16423, 22427, 31117, 55075], "recwords": ["skillet", "hostess", "donkey", "waitress", "nurse"], "type": "FREE_RECALL", "conditions": [12, 1600, "v", 12000], "trial": 3, "trial_type": "free-recall", "trial_index": 143, "time_elapsed": 1153445, "internal_node_id": "0.0-107.0-0.0"}}, {"uniqueid": "MTK0738:323Q6SJS8JN6O86YAOPA5U6QU5QHFC", "current_trial": 144, "dateTime": 1512678547587, "trialdata": {"rt": 32314, "key_press": 75, "type": "INSTRUCTIONS", "trial_type": "text", "trial_index": 144, "time_elapsed": 1187764, "internal_node_id": "0.0-108.0"}}, {"uniqueid": "MTK0738:323Q6SJS8JN6O86YAOPA5U6QU5QHFC", "current_trial": 145, "dateTime": 1512678561590, "trialdata": {"rt": [6104], "responses": ["12 "], "num1": [9, 1], "num2": [1, 9], "num3": [2, 8], "type": "DISTRACTOR", "conditions": [12, 1600, "a", 12000], "trial": 4, "trial_type": "math-distractor", "trial_index": 145, "time_elapsed": 1201768, "internal_node_id": "0.0-109.0"}}, {"uniqueid": "MTK0738:323Q6SJS8JN6O86YAOPA5U6QU5QHFC", "current_trial": 146, "dateTime": 1512678564590, "trialdata": {"rt": -1, "stimulus": "<p id=\"stim\">10</p>", "key_press": -1, "trial_type": "single-stim", "trial_index": 146, "time_elapsed": 1204768, "internal_node_id": "0.0-110.0-0.0"}}, {"uniqueid": "MTK0738:323Q6SJS8JN6O86YAOPA5U6QU5QHFC", "current_trial": 147, "dateTime": 1512678565591, "trialdata": {"rt": -1, "stimulus": "<p id=\"stim\">9</p>", "key_press": -1, "trial_type": "single-stim", "trial_index": 147, "time_elapsed": 1205769, "internal_node_id": "0.0-110.0-1.0"}}, {"uniqueid": "MTK0738:323Q6SJS8JN6O86YAOPA5U6QU5QHFC", "current_trial": 148, "dateTime": 1512678566591, "trialdata": {"rt": -1, "stimulus": "<p id=\"stim\">8</p>", "key_press": -1, "trial_type": "single-stim", "trial_index": 148, "time_elapsed": 1206769, "internal_node_id": "0.0-110.0-2.0"}}, {"uniqueid": "MTK0738:323Q6SJS8JN6O86YAOPA5U6QU5QHFC", "current_trial": 149, "dateTime": 1512678567592, "trialdata": {"rt": -1, "stimulus": "<p id=\"stim\">7</p>", "key_press": -1, "trial_type": "single-stim", "trial_index": 149, "time_elapsed": 1207770, "internal_node_id": "0.0-110.0-3.0"}}, {"uniqueid": "MTK0738:323Q6SJS8JN6O86YAOPA5U6QU5QHFC", "current_trial": 150, "dateTime": 1512678568593, "trialdata": {"rt": -1, "stimulus": "<p id=\"stim\">6</p>", "key_press": -1, "trial_type": "single-stim", "trial_index": 150, "time_elapsed": 1208771, "internal_node_id": "0.0-110.0-4.0"}}, {"uniqueid": "MTK0738:323Q6SJS8JN6O86YAOPA5U6QU5QHFC", "current_trial": 151, "dateTime": 1512678569594, "trialdata": {"rt": -1, "stimulus": "<p id=\"stim\">5</p>", "key_press": -1, "trial_type": "single-stim", "trial_index": 151, "time_elapsed": 1209772, "internal_node_id": "0.0-110.0-5.0"}}, {"uniqueid": "MTK0738:323Q6SJS8JN6O86YAOPA5U6QU5QHFC", "current_trial": 152, "dateTime": 1512678570595, "trialdata": {"rt": -1, "stimulus": "<p id=\"stim\">4</p>", "key_press": -1, "trial_type": "single-stim", "trial_index": 152, "time_elapsed": 1210773, "internal_node_id": "0.0-110.0-6.0"}}, {"uniqueid": "MTK0738:323Q6SJS8JN6O86YAOPA5U6QU5QHFC", "current_trial": 153, "dateTime": 1512678571595, "trialdata": {"rt": -1, "stimulus": "<p id=\"stim\">3</p>", "key_press": -1, "trial_type": "single-stim", "trial_index": 153, "time_elapsed": 1211773, "internal_node_id": "0.0-110.0-7.0"}}, {"uniqueid": "MTK0738:323Q6SJS8JN6O86YAOPA5U6QU5QHFC", "current_trial": 154, "dateTime": 1512678572596, "trialdata": {"rt": -1, "stimulus": "<p id=\"stim\">2</p>", "key_press": -1, "trial_type": "single-stim", "trial_index": 154, "time_elapsed": 1212774, "internal_node_id": "0.0-110.0-8.0"}}, {"uniqueid": "MTK0738:323Q6SJS8JN6O86YAOPA5U6QU5QHFC", "current_trial": 155, "dateTime": 1512678573597, "trialdata": {"rt": -1, "stimulus": "<p id=\"stim\">1</p>", "key_press": -1, "trial_type": "single-stim", "trial_index": 155, "time_elapsed": 1213775, "internal_node_id": "0.0-110.0-9.0"}}, {"uniqueid": "MTK0738:323Q6SJS8JN6O86YAOPA5U6QU5QHFC", "current_trial": 156, "dateTime": 1512678575098, "trialdata": {"rt": -1, "stimulus": "<p id=\"stim\">+</p>", "key_press": -1, "type": "FIXATION", "trial_type": "single-stim", "trial_index": 156, "time_elapsed": 1215276, "internal_node_id": "0.0-111.0-0.0"}}, {"uniqueid": "MTK0738:323Q6SJS8JN6O86YAOPA5U6QU5QHFC", "current_trial": 157, "dateTime": 1512678577660, "trialdata": {"rt": -1000, "stimulus": "/static/audio/wordpool/LUGGAGE.wav", "key_press": -1, "type": "PRES_AUD", "word": "luggage", "wordID": 846, "conditions": [12, 1600, "a", 12000], "trial": 4, "serialpos": 0, "trial_type": "single-audio", "trial_index": 157, "time_elapsed": 1217838, "internal_node_id": "0.0-112.0"}}, {"uniqueid": "MTK0738:323Q6SJS8JN6O86YAOPA5U6QU5QHFC", "current_trial": 158, "dateTime": 1512678580346, "trialdata": {"rt": -1000, "stimulus": "/static/audio/wordpool/SUITCASE.wav", "key_press": -1, "type": "PRES_AUD", "word": "suitcase", "wordID": 1402, "conditions": [12, 1600, "a", 12000], "trial": 4, "serialpos": 1, "trial_type": "single-audio", "trial_index": 158, "time_elapsed": 1220524, "internal_node_id": "0.0-113.0"}}, {"uniqueid": "MTK0738:323Q6SJS8JN6O86YAOPA5U6QU5QHFC", "current_trial": 159, "dateTime": 1512678583037, "trialdata": {"rt": -1000, "stimulus": "/static/audio/wordpool/PARSLEY.wav", "key_press": -1, "type": "PRES_AUD", "word": "parsley", "wordID": 1015, "conditions": [12, 1600, "a", 12000], "trial": 4, "serialpos": 2, "trial_type": "single-audio", "trial_index": 159, "time_elapsed": 1223215, "internal_node_id": "0.0-114.0"}}, {"uniqueid": "MTK0738:323Q6SJS8JN6O86YAOPA5U6QU5QHFC", "current_trial": 160, "dateTime": 1512678585781, "trialdata": {"rt": -1000, "stimulus": "/static/audio/wordpool/TURTLE.wav", "key_press": -1, "type": "PRES_AUD", "word": "turtle", "wordID": 1521, "conditions": [12, 1600, "a", 12000], "trial": 4, "serialpos": 3, "trial_type": "single-audio", "trial_index": 160, "time_elapsed": 1225959, "internal_node_id": "0.0-115.0"}}, {"uniqueid": "MTK0738:323Q6SJS8JN6O86YAOPA5U6QU5QHFC", "current_trial": 161, "dateTime": 1512678588353, "trialdata": {"rt": -1000, "stimulus": "/static/audio/wordpool/HAWK.wav", "key_press": -1, "type": "PRES_AUD", "word": "hawk", "wordID": 691, "conditions": [12, 1600, "a", 12000], "trial": 4, "serialpos": 4, "trial_type": "single-audio", "trial_index": 161, "time_elapsed": 1228531, "internal_node_id": "0.0-116.0"}}, {"uniqueid": "MTK0738:323Q6SJS8JN6O86YAOPA5U6QU5QHFC", "current_trial": 162, "dateTime": 1512678591022, "trialdata": {"rt": -1000, "stimulus": "/static/audio/wordpool/COSTUME.wav", "key_press": -1, "type": "PRES_AUD", "word": "costume", "wordID": 382, "conditions": [12, 1600, "a", 12000], "trial": 4, "serialpos": 5, "trial_type": "single-audio", "trial_index": 162, "time_elapsed": 1231200, "internal_node_id": "0.0-117.0"}}, {"uniqueid": "MTK0738:323Q6SJS8JN6O86YAOPA5U6QU5QHFC", "current_trial": 163, "dateTime": 1512678593447, "trialdata": {"rt": -1000, "stimulus": "/static/audio/wordpool/PIZZA.wav", "key_press": -1, "type": "PRES_AUD", "word": "pizza", "wordID": 1078, "conditions": [12, 1600, "a", 12000], "trial": 4, "serialpos": 6, "trial_type": "single-audio", "trial_index": 163, "time_elapsed": 1233625, "internal_node_id": "0.0-118.0"}}, {"uniqueid": "MTK0738:323Q6SJS8JN6O86YAOPA5U6QU5QHFC", "current_trial": 164, "dateTime": 1512678596012, "trialdata": {"rt": -1000, "stimulus": "/static/audio/wordpool/PIGMENT.wav", "key_press": -1, "type": "PRES_AUD", "word": "pigment", "wordID": 1065, "conditions": [12, 1600, "a", 12000], "trial": 4, "serialpos": 7, "trial_type": "single-audio", "trial_index": 164, "time_elapsed": 1236190, "internal_node_id": "0.0-119.0"}}, {"uniqueid": "MTK0738:323Q6SJS8JN6O86YAOPA5U6QU5QHFC", "current_trial": 165, "dateTime": 1512678598417, "trialdata": {"rt": -1000, "stimulus": "/static/audio/wordpool/CREATURE.wav", "key_press": -1, "type": "PRES_AUD", "word": "creature", "wordID": 402, "conditions": [12, 1600, "a", 12000], "trial": 4, "serialpos": 8, "trial_type": "single-audio", "trial_index": 165, "time_elapsed": 1238595, "internal_node_id": "0.0-120.0"}}, {"uniqueid": "MTK0738:323Q6SJS8JN6O86YAOPA5U6QU5QHFC", "current_trial": 166, "dateTime": 1512678600832, "trialdata": {"rt": -1000, "stimulus": "/static/audio/wordpool/GARLIC.wav", "key_press": -1, "type": "PRES_AUD", "word": "garlic", "wordID": 623, "conditions": [12, 1600, "a", 12000], "trial": 4, "serialpos": 9, "trial_type": "single-audio", "trial_index": 166, "time_elapsed": 1241010, "internal_node_id": "0.0-121.0"}}, {"uniqueid": "MTK0738:323Q6SJS8JN6O86YAOPA5U6QU5QHFC", "current_trial": 167, "dateTime": 1512678603482, "trialdata": {"rt": -1000, "stimulus": "/static/audio/wordpool/GARDEN.wav", "key_press": -1, "type": "PRES_AUD", "word": "garden", "wordID": 622, "conditions": [12, 1600, "a", 12000], "trial": 4, "serialpos": 10, "trial_type": "single-audio", "trial_index": 167, "time_elapsed": 1243660, "internal_node_id": "0.0-122.0"}}, {"uniqueid": "MTK0738:323Q6SJS8JN6O86YAOPA5U6QU5QHFC", "current_trial": 168, "dateTime": 1512678606013, "trialdata": {"rt": -1000, "stimulus": "/static/audio/wordpool/DRAGON.wav", "key_press": -1, "type": "PRES_AUD", "word": "dragon", "wordID": 491, "conditions": [12, 1600, "a", 12000], "trial": 4, "serialpos": 11, "trial_type": "single-audio", "trial_index": 168, "time_elapsed": 1246191, "internal_node_id": "0.0-123.0"}}, {"uniqueid": "MTK0738:323Q6SJS8JN6O86YAOPA5U6QU5QHFC", "current_trial": 169, "dateTime": 1512678607293, "trialdata": {"rt": -1, "stimulus": "", "key_press": -1, "type": "PRE_RECALL_DELAY", "trial_type": "single-stim", "trial_index": 169, "time_elapsed": 1247471, "internal_node_id": "0.0-124.0-0.0"}}, {"uniqueid": "MTK0738:323Q6SJS8JN6O86YAOPA5U6QU5QHFC", "current_trial": 170, "dateTime": 1512678607794, "trialdata": {"rt": -1000, "stimulus": "/static/audio/400Hz.wav", "key_press": -1, "type": "PRE_RECALL_ALERT", "trial_type": "single-audio", "trial_index": 170, "time_elapsed": 1247972, "internal_node_id": "0.0-125.0"}}, {"uniqueid": "MTK0738:323Q6SJS8JN6O86YAOPA5U6QU5QHFC", "current_trial": 171, "dateTime": 1512678667802, "trialdata": {"rt": [5846, 19722, 25063, 28882, 36725, 45122, 51535], "recwords": ["suitcase", "luggage", "garden", "hawk", "dragon", "pizza", "garlic"], "type": "FREE_RECALL", "conditions": [12, 1600, "a", 12000], "trial": 4, "trial_type": "free-recall", "trial_index": 171, "time_elapsed": 1307975, "internal_node_id": "0.0-126.0-0.0"}}, {"uniqueid": "MTK0738:323Q6SJS8JN6O86YAOPA5U6QU5QHFC", "current_trial": 172, "dateTime": 1512678671376, "trialdata": {"rt": 1573, "key_press": 76, "type": "INSTRUCTIONS", "trial_type": "text", "trial_index": 172, "time_elapsed": 1311553, "internal_node_id": "0.0-127.0"}}, {"uniqueid": "MTK0738:323Q6SJS8JN6O86YAOPA5U6QU5QHFC", "current_trial": 173, "dateTime": 1512678685378, "trialdata": {"rt": [5213, 8835], "responses": ["18", "11"], "num1": [2, 3, 4], "num2": [6, 6, 4], "num3": [9, 2, 6], "type": "DISTRACTOR", "conditions": [12, 800, "a", 12000], "trial": 5, "trial_type": "math-distractor", "trial_index": 173, "time_elapsed": 1325556, "internal_node_id": "0.0-128.0"}}, {"uniqueid": "MTK0738:323Q6SJS8JN6O86YAOPA5U6QU5QHFC", "current_trial": 174, "dateTime": 1512678688378, "trialdata": {"rt": -1, "stimulus": "<p id=\"stim\">10</p>", "key_press": -1, "trial_type": "single-stim", "trial_index": 174, "time_elapsed": 1328556, "internal_node_id": "0.0-129.0-0.0"}}, {"uniqueid": "MTK0738:323Q6SJS8JN6O86YAOPA5U6QU5QHFC", "current_trial": 175, "dateTime": 1512678689379, "trialdata": {"rt": -1, "stimulus": "<p id=\"stim\">9</p>", "key_press": -1, "trial_type": "single-stim", "trial_index": 175, "time_elapsed": 1329557, "internal_node_id": "0.0-129.0-1.0"}}, {"uniqueid": "MTK0738:323Q6SJS8JN6O86YAOPA5U6QU5QHFC", "current_trial": 176, "dateTime": 1512678690379, "trialdata": {"rt": -1, "stimulus": "<p id=\"stim\">8</p>", "key_press": -1, "trial_type": "single-stim", "trial_index": 176, "time_elapsed": 1330557, "internal_node_id": "0.0-129.0-2.0"}}, {"uniqueid": "MTK0738:323Q6SJS8JN6O86YAOPA5U6QU5QHFC", "current_trial": 177, "dateTime": 1512678691379, "trialdata": {"rt": -1, "stimulus": "<p id=\"stim\">7</p>", "key_press": -1, "trial_type": "single-stim", "trial_index": 177, "time_elapsed": 1331557, "internal_node_id": "0.0-129.0-3.0"}}, {"uniqueid": "MTK0738:323Q6SJS8JN6O86YAOPA5U6QU5QHFC", "current_trial": 178, "dateTime": 1512678692379, "trialdata": {"rt": -1, "stimulus": "<p id=\"stim\">6</p>", "key_press": -1, "trial_type": "single-stim", "trial_index": 178, "time_elapsed": 1332557, "internal_node_id": "0.0-129.0-4.0"}}, {"uniqueid": "MTK0738:323Q6SJS8JN6O86YAOPA5U6QU5QHFC", "current_trial": 179, "dateTime": 1512678693380, "trialdata": {"rt": -1, "stimulus": "<p id=\"stim\">5</p>", "key_press": -1, "trial_type": "single-stim", "trial_index": 179, "time_elapsed": 1333558, "internal_node_id": "0.0-129.0-5.0"}}, {"uniqueid": "MTK0738:323Q6SJS8JN6O86YAOPA5U6QU5QHFC", "current_trial": 180, "dateTime": 1512678694381, "trialdata": {"rt": -1, "stimulus": "<p id=\"stim\">4</p>", "key_press": -1, "trial_type": "single-stim", "trial_index": 180, "time_elapsed": 1334559, "internal_node_id": "0.0-129.0-6.0"}}, {"uniqueid": "MTK0738:323Q6SJS8JN6O86YAOPA5U6QU5QHFC", "current_trial": 181, "dateTime": 1512678695382, "trialdata": {"rt": -1, "stimulus": "<p id=\"stim\">3</p>", "key_press": -1, "trial_type": "single-stim", "trial_index": 181, "time_elapsed": 1335560, "internal_node_id": "0.0-129.0-7.0"}}, {"uniqueid": "MTK0738:323Q6SJS8JN6O86YAOPA5U6QU5QHFC", "current_trial": 182, "dateTime": 1512678696383, "trialdata": {"rt": -1, "stimulus": "<p id=\"stim\">2</p>", "key_press": -1, "trial_type": "single-stim", "trial_index": 182, "time_elapsed": 1336561, "internal_node_id": "0.0-129.0-8.0"}}, {"uniqueid": "MTK0738:323Q6SJS8JN6O86YAOPA5U6QU5QHFC", "current_trial": 183, "dateTime": 1512678697384, "trialdata": {"rt": -1, "stimulus": "<p id=\"stim\">1</p>", "key_press": -1, "trial_type": "single-stim", "trial_index": 183, "time_elapsed": 1337562, "internal_node_id": "0.0-129.0-9.0"}}, {"uniqueid": "MTK0738:323Q6SJS8JN6O86YAOPA5U6QU5QHFC", "current_trial": 184, "dateTime": 1512678698885, "trialdata": {"rt": -1, "stimulus": "<p id=\"stim\">+</p>", "key_press": -1, "type": "FIXATION", "trial_type": "single-stim", "trial_index": 184, "time_elapsed": 1339063, "internal_node_id": "0.0-130.0-0.0"}}, {"uniqueid": "MTK0738:323Q6SJS8JN6O86YAOPA5U6QU5QHFC", "current_trial": 185, "dateTime": 1512678700544, "trialdata": {"rt": -1000, "stimulus": "/static/audio/wordpool/LAVA.wav", "key_press": -1, "type": "PRES_AUD", "word": "lava", "wordID": 803, "conditions": [12, 800, "a", 12000], "trial": 5, "serialpos": 0, "trial_type": "single-audio", "trial_index": 185, "time_elapsed": 1340722, "internal_node_id": "0.0-131.0"}}, {"uniqueid": "MTK0738:323Q6SJS8JN6O86YAOPA5U6QU5QHFC", "current_trial": 186, "dateTime": 1512678702514, "trialdata": {"rt": -1000, "stimulus": "/static/audio/wordpool/FEMALE.wav", "key_press": -1, "type": "PRES_AUD", "word": "female", "wordID": 558, "conditions": [12, 800, "a", 12000], "trial": 5, "serialpos": 1, "trial_type": "single-audio", "trial_index": 186, "time_elapsed": 1342692, "internal_node_id": "0.0-132.0"}}, {"uniqueid": "MTK0738:323Q6SJS8JN6O86YAOPA5U6QU5QHFC", "current_trial": 187, "dateTime": 1512678704393, "trialdata": {"rt": -1000, "stimulus": "/static/audio/wordpool/BLOCKADE.wav", "key_press": -1, "type": "PRES_AUD", "word": "blockade", "wordID": 136, "conditions": [12, 800, "a", 12000], "trial": 5, "serialpos": 2, "trial_type": "single-audio", "trial_index": 187, "time_elapsed": 1344571, "internal_node_id": "0.0-133.0"}}, {"uniqueid": "MTK0738:323Q6SJS8JN6O86YAOPA5U6QU5QHFC", "current_trial": 188, "dateTime": 1512678706050, "trialdata": {"rt": -1000, "stimulus": "/static/audio/wordpool/BUG.wav", "key_press": -1, "type": "PRES_AUD", "word": "bug", "wordID": 186, "conditions": [12, 800, "a", 12000], "trial": 5, "serialpos": 3, "trial_type": "single-audio", "trial_index": 188, "time_elapsed": 1346228, "internal_node_id": "0.0-134.0"}}, {"uniqueid": "MTK0738:323Q6SJS8JN6O86YAOPA5U6QU5QHFC", "current_trial": 189, "dateTime": 1512678707788, "trialdata": {"rt": -1000, "stimulus": "/static/audio/wordpool/STOMACH.wav", "key_press": -1, "type": "PRES_AUD", "word": "stomach", "wordID": 1383, "conditions": [12, 800, "a", 12000], "trial": 5, "serialpos": 4, "trial_type": "single-audio", "trial_index": 189, "time_elapsed": 1347966, "internal_node_id": "0.0-135.0"}}, {"uniqueid": "MTK0738:323Q6SJS8JN6O86YAOPA5U6QU5QHFC", "current_trial": 190, "dateTime": 1512678709452, "trialdata": {"rt": -1000, "stimulus": "/static/audio/wordpool/MARKET.wav", "key_press": -1, "type": "PRES_AUD", "word": "market", "wordID": 870, "conditions": [12, 800, "a", 12000], "trial": 5, "serialpos": 5, "trial_type": "single-audio", "trial_index": 190, "time_elapsed": 1349630, "internal_node_id": "0.0-136.0"}}, {"uniqueid": "MTK0738:323Q6SJS8JN6O86YAOPA5U6QU5QHFC", "current_trial": 191, "dateTime": 1512678711113, "trialdata": {"rt": -1000, "stimulus": "/static/audio/wordpool/SURVEY.wav", "key_press": -1, "type": "PRES_AUD", "word": "survey", "wordID": 1413, "conditions": [12, 800, "a", 12000], "trial": 5, "serialpos": 6, "trial_type": "single-audio", "trial_index": 191, "time_elapsed": 1351291, "internal_node_id": "0.0-137.0"}}, {"uniqueid": "MTK0738:323Q6SJS8JN6O86YAOPA5U6QU5QHFC", "current_trial": 192, "dateTime": 1512678712983, "trialdata": {"rt": -1000, "stimulus": "/static/audio/wordpool/REPORT.wav", "key_press": -1, "type": "PRES_AUD", "word": "report", "wordID": 1183, "conditions": [12, 800, "a", 12000], "trial": 5, "serialpos": 7, "trial_type": "single-audio", "trial_index": 192, "time_elapsed": 1353161, "internal_node_id": "0.0-138.0"}}, {"uniqueid": "MTK0738:323Q6SJS8JN6O86YAOPA5U6QU5QHFC", "current_trial": 193, "dateTime": 1512678714694, "trialdata": {"rt": -1000, "stimulus": "/static/audio/wordpool/CHEST.wav", "key_press": -1, "type": "PRES_AUD", "word": "chest", "wordID": 294, "conditions": [12, 800, "a", 12000], "trial": 5, "serialpos": 8, "trial_type": "single-audio", "trial_index": 193, "time_elapsed": 1354872, "internal_node_id": "0.0-139.0"}}, {"uniqueid": "MTK0738:323Q6SJS8JN6O86YAOPA5U6QU5QHFC", "current_trial": 194, "dateTime": 1512678716300, "trialdata": {"rt": -1000, "stimulus": "/static/audio/wordpool/CLOUD.wav", "key_press": -1, "type": "PRES_AUD", "word": "cloud", "wordID": 327, "conditions": [12, 800, "a", 12000], "trial": 5, "serialpos": 9, "trial_type": "single-audio", "trial_index": 194, "time_elapsed": 1356478, "internal_node_id": "0.0-140.0"}}, {"uniqueid": "MTK0738:323Q6SJS8JN6O86YAOPA5U6QU5QHFC", "current_trial": 195, "dateTime": 1512678718261, "trialdata": {"rt": -1000, "stimulus": "/static/audio/wordpool/HIKER.wav", "key_press": -1, "type": "PRES_AUD", "word": "hiker", "wordID": 707, "conditions": [12, 800, "a", 12000], "trial": 5, "serialpos": 10, "trial_type": "single-audio", "trial_index": 195, "time_elapsed": 1358439, "internal_node_id": "0.0-141.0"}}, {"uniqueid": "MTK0738:323Q6SJS8JN6O86YAOPA5U6QU5QHFC", "current_trial": 196, "dateTime": 1512678720044, "trialdata": {"rt": -1000, "stimulus": "/static/audio/wordpool/COBRA.wav", "key_press": -1, "type": "PRES_AUD", "word": "cobra", "wordID": 335, "conditions": [12, 800, "a", 12000], "trial": 5, "serialpos": 11, "trial_type": "single-audio", "trial_index": 196, "time_elapsed": 1360222, "internal_node_id": "0.0-142.0"}}, {"uniqueid": "MTK0738:323Q6SJS8JN6O86YAOPA5U6QU5QHFC", "current_trial": 197, "dateTime": 1512678721388, "trialdata": {"rt": -1, "stimulus": "", "key_press": -1, "type": "PRE_RECALL_DELAY", "trial_type": "single-stim", "trial_index": 197, "time_elapsed": 1361566, "internal_node_id": "0.0-143.0-0.0"}}, {"uniqueid": "MTK0738:323Q6SJS8JN6O86YAOPA5U6QU5QHFC", "current_trial": 198, "dateTime": 1512678721888, "trialdata": {"rt": -1000, "stimulus": "/static/audio/400Hz.wav", "key_press": -1, "type": "PRE_RECALL_ALERT", "trial_type": "single-audio", "trial_index": 198, "time_elapsed": 1362066, "internal_node_id": "0.0-144.0"}}, {"uniqueid": "MTK0738:323Q6SJS8JN6O86YAOPA5U6QU5QHFC", "current_trial": 199, "dateTime": 1512678781896, "trialdata": {"rt": [7340, 13441, 17901, 46604, 56976], "recwords": ["cobra", "stomach", "market", "female", "bug"], "type": "FREE_RECALL", "conditions": [12, 800, "a", 12000], "trial": 5, "trial_type": "free-recall", "trial_index": 199, "time_elapsed": 1422069, "internal_node_id": "0.0-145.0-0.0"}}, {"uniqueid": "MTK0738:323Q6SJS8JN6O86YAOPA5U6QU5QHFC", "current_trial": 200, "dateTime": 1512678787919, "trialdata": {"rt": 4023, "key_press": 32, "type": "INSTRUCTIONS", "trial_type": "text", "trial_index": 200, "time_elapsed": 1428097, "internal_node_id": "0.0-146.0"}}, {"uniqueid": "MTK0738:323Q6SJS8JN6O86YAOPA5U6QU5QHFC", "current_trial": 201, "dateTime": 1512678813922, "trialdata": {"rt": [6108, 11957, 16702, 20393], "responses": ["23 ", "16", "14", "7"], "num1": [6, 4, 2, 4, 5], "num2": [8, 9, 5, 2, 9], "num3": [9, 3, 7, 1, 6], "type": "DISTRACTOR", "conditions": [12, 1600, "v", 24000], "trial": 6, "trial_type": "math-distractor", "trial_index": 201, "time_elapsed": 1454100, "internal_node_id": "0.0-147.0"}}, {"uniqueid": "MTK0738:323Q6SJS8JN6O86YAOPA5U6QU5QHFC", "current_trial": 202, "dateTime": 1512678816922, "trialdata": {"rt": -1, "stimulus": "<p id=\"stim\">10</p>", "key_press": -1, "trial_type": "single-stim", "trial_index": 202, "time_elapsed": 1457100, "internal_node_id": "0.0-148.0-0.0"}}, {"uniqueid": "MTK0738:323Q6SJS8JN6O86YAOPA5U6QU5QHFC", "current_trial": 203, "dateTime": 1512678817923, "trialdata": {"rt": -1, "stimulus": "<p id=\"stim\">9</p>", "key_press": -1, "trial_type": "single-stim", "trial_index": 203, "time_elapsed": 1458101, "internal_node_id": "0.0-148.0-1.0"}}, {"uniqueid": "MTK0738:323Q6SJS8JN6O86YAOPA5U6QU5QHFC", "current_trial": 204, "dateTime": 1512678818924, "trialdata": {"rt": -1, "stimulus": "<p id=\"stim\">8</p>", "key_press": -1, "trial_type": "single-stim", "trial_index": 204, "time_elapsed": 1459102, "internal_node_id": "0.0-148.0-2.0"}}, {"uniqueid": "MTK0738:323Q6SJS8JN6O86YAOPA5U6QU5QHFC", "current_trial": 205, "dateTime": 1512678819925, "trialdata": {"rt": -1, "stimulus": "<p id=\"stim\">7</p>", "key_press": -1, "trial_type": "single-stim", "trial_index": 205, "time_elapsed": 1460103, "internal_node_id": "0.0-148.0-3.0"}}, {"uniqueid": "MTK0738:323Q6SJS8JN6O86YAOPA5U6QU5QHFC", "current_trial": 206, "dateTime": 1512678820926, "trialdata": {"rt": -1, "stimulus": "<p id=\"stim\">6</p>", "key_press": -1, "trial_type": "single-stim", "trial_index": 206, "time_elapsed": 1461104, "internal_node_id": "0.0-148.0-4.0"}}, {"uniqueid": "MTK0738:323Q6SJS8JN6O86YAOPA5U6QU5QHFC", "current_trial": 207, "dateTime": 1512678821927, "trialdata": {"rt": -1, "stimulus": "<p id=\"stim\">5</p>", "key_press": -1, "trial_type": "single-stim", "trial_index": 207, "time_elapsed": 1462105, "internal_node_id": "0.0-148.0-5.0"}}, {"uniqueid": "MTK0738:323Q6SJS8JN6O86YAOPA5U6QU5QHFC", "current_trial": 208, "dateTime": 1512678822928, "trialdata": {"rt": -1, "stimulus": "<p id=\"stim\">4</p>", "key_press": -1, "trial_type": "single-stim", "trial_index": 208, "time_elapsed": 1463106, "internal_node_id": "0.0-148.0-6.0"}}, {"uniqueid": "MTK0738:323Q6SJS8JN6O86YAOPA5U6QU5QHFC", "current_trial": 209, "dateTime": 1512678823928, "trialdata": {"rt": -1, "stimulus": "<p id=\"stim\">3</p>", "key_press": -1, "trial_type": "single-stim", "trial_index": 209, "time_elapsed": 1464106, "internal_node_id": "0.0-148.0-7.0"}}, {"uniqueid": "MTK0738:323Q6SJS8JN6O86YAOPA5U6QU5QHFC", "current_trial": 210, "dateTime": 1512678824929, "trialdata": {"rt": -1, "stimulus": "<p id=\"stim\">2</p>", "key_press": -1, "trial_type": "single-stim", "trial_index": 210, "time_elapsed": 1465107, "internal_node_id": "0.0-148.0-8.0"}}, {"uniqueid": "MTK0738:323Q6SJS8JN6O86YAOPA5U6QU5QHFC", "current_trial": 211, "dateTime": 1512678825930, "trialdata": {"rt": -1, "stimulus": "<p id=\"stim\">1</p>", "key_press": -1, "trial_type": "single-stim", "trial_index": 211, "time_elapsed": 1466108, "internal_node_id": "0.0-148.0-9.0"}}, {"uniqueid": "MTK0738:323Q6SJS8JN6O86YAOPA5U6QU5QHFC", "current_trial": 212, "dateTime": 1512678827431, "trialdata": {"rt": -1, "stimulus": "<p id=\"stim\">+</p>", "key_press": -1, "type": "FIXATION", "trial_type": "single-stim", "trial_index": 212, "time_elapsed": 1467609, "internal_node_id": "0.0-149.0-0.0"}}, {"uniqueid": "MTK0738:323Q6SJS8JN6O86YAOPA5U6QU5QHFC", "current_trial": 213, "dateTime": 1512678829032, "trialdata": {"rt": -1, "stimulus": "<p id=\"stim\">MISTER</p>", "key_press": -1, "type": "PRES_VIS", "word": "mister", "wordID": 900, "conditions": [12, 1600, "v", 24000], "trial": 6, "serialpos": 0, "trial_type": "single-stim", "trial_index": 213, "time_elapsed": 1469210, "internal_node_id": "0.0-150.0"}}, {"uniqueid": "MTK0738:323Q6SJS8JN6O86YAOPA5U6QU5QHFC", "current_trial": 214, "dateTime": 1512678831736, "trialdata": {"rt": -1, "stimulus": "<p id=\"stim\">PIMPLE</p>", "key_press": -1, "type": "PRES_VIS", "word": "pimple", "wordID": 1070, "conditions": [12, 1600, "v", 24000], "trial": 6, "serialpos": 1, "trial_type": "single-stim", "trial_index": 214, "time_elapsed": 1471914, "internal_node_id": "0.0-151.0"}}, {"uniqueid": "MTK0738:323Q6SJS8JN6O86YAOPA5U6QU5QHFC", "current_trial": 215, "dateTime": 1512678834375, "trialdata": {"rt": -1, "stimulus": "<p id=\"stim\">SNAKE</p>", "key_press": -1, "type": "PRES_VIS", "word": "snake", "wordID": 1332, "conditions": [12, 1600, "v", 24000], "trial": 6, "serialpos": 2, "trial_type": "single-stim", "trial_index": 215, "time_elapsed": 1474553, "internal_node_id": "0.0-152.0"}}, {"uniqueid": "MTK0738:323Q6SJS8JN6O86YAOPA5U6QU5QHFC", "current_trial": 216, "dateTime": 1512678836881, "trialdata": {"rt": -1, "stimulus": "<p id=\"stim\">DOLPHIN</p>", "key_press": -1, "type": "PRES_VIS", "word": "dolphin", "wordID": 482, "conditions": [12, 1600, "v", 24000], "trial": 6, "serialpos": 3, "trial_type": "single-stim", "trial_index": 216, "time_elapsed": 1477059, "internal_node_id": "0.0-153.0"}}, {"uniqueid": "MTK0738:323Q6SJS8JN6O86YAOPA5U6QU5QHFC", "current_trial": 217, "dateTime": 1512678839386, "trialdata": {"rt": -1, "stimulus": "<p id=\"stim\">FOREST</p>", "key_press": -1, "type": "PRES_VIS", "word": "forest", "wordID": 592, "conditions": [12, 1600, "v", 24000], "trial": 6, "serialpos": 4, "trial_type": "single-stim", "trial_index": 217, "time_elapsed": 1479564, "internal_node_id": "0.0-154.0"}}, {"uniqueid": "MTK0738:323Q6SJS8JN6O86YAOPA5U6QU5QHFC", "current_trial": 218, "dateTime": 1512678841847, "trialdata": {"rt": -1, "stimulus": "<p id=\"stim\">ROOSTER</p>", "key_press": -1, "type": "PRES_VIS", "word": "rooster", "wordID": 1208, "conditions": [12, 1600, "v", 24000], "trial": 6, "serialpos": 5, "trial_type": "single-stim", "trial_index": 218, "time_elapsed": 1482025, "internal_node_id": "0.0-155.0"}}, {"uniqueid": "MTK0738:323Q6SJS8JN6O86YAOPA5U6QU5QHFC", "current_trial": 219, "dateTime": 1512678844333, "trialdata": {"rt": -1, "stimulus": "<p id=\"stim\">VIKING</p>", "key_press": -1, "type": "PRES_VIS", "word": "viking", "wordID": 1564, "conditions": [12, 1600, "v", 24000], "trial": 6, "serialpos": 6, "trial_type": "single-stim", "trial_index": 219, "time_elapsed": 1484511, "internal_node_id": "0.0-156.0"}}, {"uniqueid": "MTK0738:323Q6SJS8JN6O86YAOPA5U6QU5QHFC", "current_trial": 220, "dateTime": 1512678847035, "trialdata": {"rt": -1, "stimulus": "<p id=\"stim\">MAMMAL</p>", "key_press": -1, "type": "PRES_VIS", "word": "mammal", "wordID": 860, "conditions": [12, 1600, "v", 24000], "trial": 6, "serialpos": 7, "trial_type": "single-stim", "trial_index": 220, "time_elapsed": 1487213, "internal_node_id": "0.0-157.0"}}, {"uniqueid": "MTK0738:323Q6SJS8JN6O86YAOPA5U6QU5QHFC", "current_trial": 221, "dateTime": 1512678849726, "trialdata": {"rt": -1, "stimulus": "<p id=\"stim\">HORNET</p>", "key_press": -1, "type": "PRES_VIS", "word": "hornet", "wordID": 717, "conditions": [12, 1600, "v", 24000], "trial": 6, "serialpos": 8, "trial_type": "single-stim", "trial_index": 221, "time_elapsed": 1489904, "internal_node_id": "0.0-158.0"}}, {"uniqueid": "MTK0738:323Q6SJS8JN6O86YAOPA5U6QU5QHFC", "current_trial": 222, "dateTime": 1512678852132, "trialdata": {"rt": -1, "stimulus": "<p id=\"stim\">HUSBAND</p>", "key_press": -1, "type": "PRES_VIS", "word": "husband", "wordID": 727, "conditions": [12, 1600, "v", 24000], "trial": 6, "serialpos": 9, "trial_type": "single-stim", "trial_index": 222, "time_elapsed": 1492310, "internal_node_id": "0.0-159.0"}}, {"uniqueid": "MTK0738:323Q6SJS8JN6O86YAOPA5U6QU5QHFC", "current_trial": 223, "dateTime": 1512678854597, "trialdata": {"rt": -1, "stimulus": "<p id=\"stim\">SPOUSE</p>", "key_press": -1, "type": "PRES_VIS", "word": "spouse", "wordID": 1357, "conditions": [12, 1600, "v", 24000], "trial": 6, "serialpos": 10, "trial_type": "single-stim", "trial_index": 223, "time_elapsed": 1494775, "internal_node_id": "0.0-160.0"}}, {"uniqueid": "MTK0738:323Q6SJS8JN6O86YAOPA5U6QU5QHFC", "current_trial": 224, "dateTime": 1512678857012, "trialdata": {"rt": -1, "stimulus": "<p id=\"stim\">MUMMY</p>", "key_press": -1, "type": "PRES_VIS", "word": "mummy", "wordID": 931, "conditions": [12, 1600, "v", 24000], "trial": 6, "serialpos": 11, "trial_type": "single-stim", "trial_index": 224, "time_elapsed": 1497190, "internal_node_id": "0.0-161.0"}}, {"uniqueid": "MTK0738:323Q6SJS8JN6O86YAOPA5U6QU5QHFC", "current_trial": 225, "dateTime": 1512678859433, "trialdata": {"rt": -1, "stimulus": "", "key_press": -1, "type": "PRE_RECALL_DELAY", "trial_type": "single-stim", "trial_index": 225, "time_elapsed": 1499611, "internal_node_id": "0.0-162.0-0.0"}}, {"uniqueid": "MTK0738:323Q6SJS8JN6O86YAOPA5U6QU5QHFC", "current_trial": 226, "dateTime": 1512678859933, "trialdata": {"rt": -1000, "stimulus": "/static/audio/400Hz.wav", "key_press": -1, "type": "PRE_RECALL_ALERT", "trial_type": "single-audio", "trial_index": 226, "time_elapsed": 1500111, "internal_node_id": "0.0-163.0"}}, {"uniqueid": "MTK0738:323Q6SJS8JN6O86YAOPA5U6QU5QHFC", "current_trial": 227, "dateTime": 1512678919943, "trialdata": {"rt": [6527, 16721], "recwords": ["husband", "spose"], "type": "FREE_RECALL", "conditions": [12, 1600, "v", 24000], "trial": 6, "trial_type": "free-recall", "trial_index": 227, "time_elapsed": 1560115, "internal_node_id": "0.0-164.0-0.0"}}, {"uniqueid": "MTK0738:323Q6SJS8JN6O86YAOPA5U6QU5QHFC", "current_trial": 228, "dateTime": 1512678948714, "trialdata": {"rt": 26770, "key_press": 32, "type": "INSTRUCTIONS", "trial_type": "text", "trial_index": 228, "time_elapsed": 1588892, "internal_node_id": "0.0-165.0"}}, {"uniqueid": "MTK0738:323Q6SJS8JN6O86YAOPA5U6QU5QHFC", "current_trial": 229, "dateTime": 1512678974716, "trialdata": {"rt": [5563, 8519, 13495, 19689], "responses": ["17", "13", "20", "19"], "num1": [4, 6, 3, 5, 5], "num2": [5, 1, 8, 5, 4], "num3": [8, 6, 9, 9, 7], "type": "DISTRACTOR", "conditions": [24, 1600, "v", 24000], "trial": 7, "trial_type": "math-distractor", "trial_index": 229, "time_elapsed": 1614894, "internal_node_id": "0.0-166.0"}}, {"uniqueid": "MTK0738:323Q6SJS8JN6O86YAOPA5U6QU5QHFC", "current_trial": 230, "dateTime": 1512678977716, "trialdata": {"rt": -1, "stimulus": "<p id=\"stim\">10</p>", "key_press": -1, "trial_type": "single-stim", "trial_index": 230, "time_elapsed": 1617894, "internal_node_id": "0.0-167.0-0.0"}}, {"uniqueid": "MTK0738:323Q6SJS8JN6O86YAOPA5U6QU5QHFC", "current_trial": 231, "dateTime": 1512678978717, "trialdata": {"rt": -1, "stimulus": "<p id=\"stim\">9</p>", "key_press": -1, "trial_type": "single-stim", "trial_index": 231, "time_elapsed": 1618895, "internal_node_id": "0.0-167.0-1.0"}}, {"uniqueid": "MTK0738:323Q6SJS8JN6O86YAOPA5U6QU5QHFC", "current_trial": 232, "dateTime": 1512678979718, "trialdata": {"rt": -1, "stimulus": "<p id=\"stim\">8</p>", "key_press": -1, "trial_type": "single-stim", "trial_index": 232, "time_elapsed": 1619896, "internal_node_id": "0.0-167.0-2.0"}}, {"uniqueid": "MTK0738:323Q6SJS8JN6O86YAOPA5U6QU5QHFC", "current_trial": 233, "dateTime": 1512678980719, "trialdata": {"rt": -1, "stimulus": "<p id=\"stim\">7</p>", "key_press": -1, "trial_type": "single-stim", "trial_index": 233, "time_elapsed": 1620897, "internal_node_id": "0.0-167.0-3.0"}}, {"uniqueid": "MTK0738:323Q6SJS8JN6O86YAOPA5U6QU5QHFC", "current_trial": 234, "dateTime": 1512678981719, "trialdata": {"rt": -1, "stimulus": "<p id=\"stim\">6</p>", "key_press": -1, "trial_type": "single-stim", "trial_index": 234, "time_elapsed": 1621897, "internal_node_id": "0.0-167.0-4.0"}}, {"uniqueid": "MTK0738:323Q6SJS8JN6O86YAOPA5U6QU5QHFC", "current_trial": 235, "dateTime": 1512678982720, "trialdata": {"rt": -1, "stimulus": "<p id=\"stim\">5</p>", "key_press": -1, "trial_type": "single-stim", "trial_index": 235, "time_elapsed": 1622898, "internal_node_id": "0.0-167.0-5.0"}}, {"uniqueid": "MTK0738:323Q6SJS8JN6O86YAOPA5U6QU5QHFC", "current_trial": 236, "dateTime": 1512678983720, "trialdata": {"rt": -1, "stimulus": "<p id=\"stim\">4</p>", "key_press": -1, "trial_type": "single-stim", "trial_index": 236, "time_elapsed": 1623898, "internal_node_id": "0.0-167.0-6.0"}}, {"uniqueid": "MTK0738:323Q6SJS8JN6O86YAOPA5U6QU5QHFC", "current_trial": 237, "dateTime": 1512678984721, "trialdata": {"rt": -1, "stimulus": "<p id=\"stim\">3</p>", "key_press": -1, "trial_type": "single-stim", "trial_index": 237, "time_elapsed": 1624899, "internal_node_id": "0.0-167.0-7.0"}}, {"uniqueid": "MTK0738:323Q6SJS8JN6O86YAOPA5U6QU5QHFC", "current_trial": 238, "dateTime": 1512678985722, "trialdata": {"rt": -1, "stimulus": "<p id=\"stim\">2</p>", "key_press": -1, "trial_type": "single-stim", "trial_index": 238, "time_elapsed": 1625900, "internal_node_id": "0.0-167.0-8.0"}}, {"uniqueid": "MTK0738:323Q6SJS8JN6O86YAOPA5U6QU5QHFC", "current_trial": 239, "dateTime": 1512678986722, "trialdata": {"rt": -1, "stimulus": "<p id=\"stim\">1</p>", "key_press": -1, "trial_type": "single-stim", "trial_index": 239, "time_elapsed": 1626900, "internal_node_id": "0.0-167.0-9.0"}}, {"uniqueid": "MTK0738:323Q6SJS8JN6O86YAOPA5U6QU5QHFC", "current_trial": 240, "dateTime": 1512678988223, "trialdata": {"rt": -1, "stimulus": "<p id=\"stim\">+</p>", "key_press": -1, "type": "FIXATION", "trial_type": "single-stim", "trial_index": 240, "time_elapsed": 1628401, "internal_node_id": "0.0-168.0-0.0"}}, {"uniqueid": "MTK0738:323Q6SJS8JN6O86YAOPA5U6QU5QHFC", "current_trial": 241, "dateTime": 1512678989823, "trialdata": {"rt": -1, "stimulus": "<p id=\"stim\">POET</p>", "key_press": -1, "type": "PRES_VIS", "word": "poet", "wordID": 1094, "conditions": [24, 1600, "v", 24000], "trial": 7, "serialpos": 0, "trial_type": "single-stim", "trial_index": 241, "time_elapsed": 1630001, "internal_node_id": "0.0-169.0"}}, {"uniqueid": "MTK0738:323Q6SJS8JN6O86YAOPA5U6QU5QHFC", "current_trial": 242, "dateTime": 1512678992426, "trialdata": {"rt": -1, "stimulus": "<p id=\"stim\">NECKLACE</p>", "key_press": -1, "type": "PRES_VIS", "word": "necklace", "wordID": 939, "conditions": [24, 1600, "v", 24000], "trial": 7, "serialpos": 1, "trial_type": "single-stim", "trial_index": 242, "time_elapsed": 1632604, "internal_node_id": "0.0-170.0"}}, {"uniqueid": "MTK0738:323Q6SJS8JN6O86YAOPA5U6QU5QHFC", "current_trial": 243, "dateTime": 1512678995188, "trialdata": {"rt": -1, "stimulus": "<p id=\"stim\">SNACK</p>", "key_press": -1, "type": "PRES_VIS", "word": "snack", "wordID": 1330, "conditions": [24, 1600, "v", 24000], "trial": 7, "serialpos": 2, "trial_type": "single-stim", "trial_index": 243, "time_elapsed": 1635366, "internal_node_id": "0.0-171.0"}}, {"uniqueid": "MTK0738:323Q6SJS8JN6O86YAOPA5U6QU5QHFC", "current_trial": 244, "dateTime": 1512678997983, "trialdata": {"rt": -1, "stimulus": "<p id=\"stim\">AUTHOR</p>", "key_press": -1, "type": "PRES_VIS", "word": "author", "wordID": 60, "conditions": [24, 1600, "v", 24000], "trial": 7, "serialpos": 3, "trial_type": "single-stim", "trial_index": 244, "time_elapsed": 1638161, "internal_node_id": "0.0-172.0"}}, {"uniqueid": "MTK0738:323Q6SJS8JN6O86YAOPA5U6QU5QHFC", "current_trial": 245, "dateTime": 1512679000673, "trialdata": {"rt": -1, "stimulus": "<p id=\"stim\">SODA</p>", "key_press": -1, "type": "PRES_VIS", "word": "soda", "wordID": 1340, "conditions": [24, 1600, "v", 24000], "trial": 7, "serialpos": 4, "trial_type": "single-stim", "trial_index": 245, "time_elapsed": 1640851, "internal_node_id": "0.0-173.0"}}, {"uniqueid": "MTK0738:323Q6SJS8JN6O86YAOPA5U6QU5QHFC", "current_trial": 246, "dateTime": 1512679003277, "trialdata": {"rt": -1, "stimulus": "<p id=\"stim\">LADY</p>", "key_press": -1, "type": "PRES_VIS", "word": "lady", "wordID": 793, "conditions": [24, 1600, "v", 24000], "trial": 7, "serialpos": 5, "trial_type": "single-stim", "trial_index": 246, "time_elapsed": 1643455, "internal_node_id": "0.0-174.0"}}, {"uniqueid": "MTK0738:323Q6SJS8JN6O86YAOPA5U6QU5QHFC", "current_trial": 247, "dateTime": 1512679005699, "trialdata": {"rt": -1, "stimulus": "<p id=\"stim\">BLOUSE</p>", "key_press": -1, "type": "PRES_VIS", "word": "blouse", "wordID": 138, "conditions": [24, 1600, "v", 24000], "trial": 7, "serialpos": 6, "trial_type": "single-stim", "trial_index": 247, "time_elapsed": 1645877, "internal_node_id": "0.0-175.0"}}, {"uniqueid": "MTK0738:323Q6SJS8JN6O86YAOPA5U6QU5QHFC", "current_trial": 248, "dateTime": 1512679008117, "trialdata": {"rt": -1, "stimulus": "<p id=\"stim\">DRESS</p>", "key_press": -1, "type": "PRES_VIS", "word": "dress", "wordID": 494, "conditions": [24, 1600, "v", 24000], "trial": 7, "serialpos": 7, "trial_type": "single-stim", "trial_index": 248, "time_elapsed": 1648295, "internal_node_id": "0.0-176.0"}}, {"uniqueid": "MTK0738:323Q6SJS8JN6O86YAOPA5U6QU5QHFC", "current_trial": 249, "dateTime": 1512679010875, "trialdata": {"rt": -1, "stimulus": "<p id=\"stim\">STICKER</p>", "key_press": -1, "type": "PRES_VIS", "word": "sticker", "wordID": 1381, "conditions": [24, 1600, "v", 24000], "trial": 7, "serialpos": 8, "trial_type": "single-stim", "trial_index": 249, "time_elapsed": 1651053, "internal_node_id": "0.0-177.0"}}, {"uniqueid": "MTK0738:323Q6SJS8JN6O86YAOPA5U6QU5QHFC", "current_trial": 250, "dateTime": 1512679013374, "trialdata": {"rt": -1, "stimulus": "<p id=\"stim\">CRUTCH</p>", "key_press": -1, "type": "PRES_VIS", "word": "crutch", "wordID": 416, "conditions": [24, 1600, "v", 24000], "trial": 7, "serialpos": 9, "trial_type": "single-stim", "trial_index": 250, "time_elapsed": 1653552, "internal_node_id": "0.0-178.0"}}, {"uniqueid": "MTK0738:323Q6SJS8JN6O86YAOPA5U6QU5QHFC", "current_trial": 251, "dateTime": 1512679015979, "trialdata": {"rt": -1, "stimulus": "<p id=\"stim\">ANKLE</p>", "key_press": -1, "type": "PRES_VIS", "word": "ankle", "wordID": 23, "conditions": [24, 1600, "v", 24000], "trial": 7, "serialpos": 10, "trial_type": "single-stim", "trial_index": 251, "time_elapsed": 1656157, "internal_node_id": "0.0-179.0"}}, {"uniqueid": "MTK0738:323Q6SJS8JN6O86YAOPA5U6QU5QHFC", "current_trial": 252, "dateTime": 1512679018614, "trialdata": {"rt": -1, "stimulus": "<p id=\"stim\">DRINK</p>", "key_press": -1, "type": "PRES_VIS", "word": "drink", "wordID": 497, "conditions": [24, 1600, "v", 24000], "trial": 7, "serialpos": 11, "trial_type": "single-stim", "trial_index": 252, "time_elapsed": 1658792, "internal_node_id": "0.0-180.0"}}, {"uniqueid": "MTK0738:323Q6SJS8JN6O86YAOPA5U6QU5QHFC", "current_trial": 253, "dateTime": 1512679021102, "trialdata": {"rt": -1, "stimulus": "<p id=\"stim\">FOX</p>", "key_press": -1, "type": "PRES_VIS", "word": "fox", "wordID": 597, "conditions": [24, 1600, "v", 24000], "trial": 7, "serialpos": 12, "trial_type": "single-stim", "trial_index": 253, "time_elapsed": 1661280, "internal_node_id": "0.0-181.0"}}, {"uniqueid": "MTK0738:323Q6SJS8JN6O86YAOPA5U6QU5QHFC", "current_trial": 254, "dateTime": 1512679023609, "trialdata": {"rt": -1, "stimulus": "<p id=\"stim\">SUNRISE</p>", "key_press": -1, "type": "PRES_VIS", "word": "sunrise", "wordID": 1406, "conditions": [24, 1600, "v", 24000], "trial": 7, "serialpos": 13, "trial_type": "single-stim", "trial_index": 254, "time_elapsed": 1663787, "internal_node_id": "0.0-182.0"}}, {"uniqueid": "MTK0738:323Q6SJS8JN6O86YAOPA5U6QU5QHFC", "current_trial": 255, "dateTime": 1512679026190, "trialdata": {"rt": -1, "stimulus": "<p id=\"stim\">CREVICE</p>", "key_press": -1, "type": "PRES_VIS", "word": "crevice", "wordID": 404, "conditions": [24, 1600, "v", 24000], "trial": 7, "serialpos": 14, "trial_type": "single-stim", "trial_index": 255, "time_elapsed": 1666368, "internal_node_id": "0.0-183.0"}}, {"uniqueid": "MTK0738:323Q6SJS8JN6O86YAOPA5U6QU5QHFC", "current_trial": 256, "dateTime": 1512679028722, "trialdata": {"rt": -1, "stimulus": "<p id=\"stim\">ONION</p>", "key_press": -1, "type": "PRES_VIS", "word": "onion", "wordID": 976, "conditions": [24, 1600, "v", 24000], "trial": 7, "serialpos": 15, "trial_type": "single-stim", "trial_index": 256, "time_elapsed": 1668900, "internal_node_id": "0.0-184.0"}}, {"uniqueid": "MTK0738:323Q6SJS8JN6O86YAOPA5U6QU5QHFC", "current_trial": 257, "dateTime": 1512679031429, "trialdata": {"rt": -1, "stimulus": "<p id=\"stim\">PUPPY</p>", "key_press": -1, "type": "PRES_VIS", "word": "puppy", "wordID": 1143, "conditions": [24, 1600, "v", 24000], "trial": 7, "serialpos": 16, "trial_type": "single-stim", "trial_index": 257, "time_elapsed": 1671607, "internal_node_id": "0.0-185.0"}}, {"uniqueid": "MTK0738:323Q6SJS8JN6O86YAOPA5U6QU5QHFC", "current_trial": 258, "dateTime": 1512679034187, "trialdata": {"rt": -1, "stimulus": "<p id=\"stim\">FRAME</p>", "key_press": -1, "type": "PRES_VIS", "word": "frame", "wordID": 599, "conditions": [24, 1600, "v", 24000], "trial": 7, "serialpos": 17, "trial_type": "single-stim", "trial_index": 258, "time_elapsed": 1674365, "internal_node_id": "0.0-186.0"}}, {"uniqueid": "MTK0738:323Q6SJS8JN6O86YAOPA5U6QU5QHFC", "current_trial": 259, "dateTime": 1512679036952, "trialdata": {"rt": -1, "stimulus": "<p id=\"stim\">ORCHID</p>", "key_press": -1, "type": "PRES_VIS", "word": "orchid", "wordID": 981, "conditions": [24, 1600, "v", 24000], "trial": 7, "serialpos": 18, "trial_type": "single-stim", "trial_index": 259, "time_elapsed": 1677130, "internal_node_id": "0.0-187.0"}}, {"uniqueid": "MTK0738:323Q6SJS8JN6O86YAOPA5U6QU5QHFC", "current_trial": 260, "dateTime": 1512679039560, "trialdata": {"rt": -1, "stimulus": "<p id=\"stim\">DRESSER</p>", "key_press": -1, "type": "PRES_VIS", "word": "dresser", "wordID": 495, "conditions": [24, 1600, "v", 24000], "trial": 7, "serialpos": 19, "trial_type": "single-stim", "trial_index": 260, "time_elapsed": 1679738, "internal_node_id": "0.0-188.0"}}, {"uniqueid": "MTK0738:323Q6SJS8JN6O86YAOPA5U6QU5QHFC", "current_trial": 261, "dateTime": 1512679042278, "trialdata": {"rt": -1, "stimulus": "<p id=\"stim\">SCULPTURE</p>", "key_press": -1, "type": "PRES_VIS", "word": "sculpture", "wordID": 1257, "conditions": [24, 1600, "v", 24000], "trial": 7, "serialpos": 20, "trial_type": "single-stim", "trial_index": 261, "time_elapsed": 1682456, "internal_node_id": "0.0-189.0"}}, {"uniqueid": "MTK0738:323Q6SJS8JN6O86YAOPA5U6QU5QHFC", "current_trial": 262, "dateTime": 1512679044908, "trialdata": {"rt": -1, "stimulus": "<p id=\"stim\">BANK</p>", "key_press": -1, "type": "PRES_VIS", "word": "bank", "wordID": 82, "conditions": [24, 1600, "v", 24000], "trial": 7, "serialpos": 21, "trial_type": "single-stim", "trial_index": 262, "time_elapsed": 1685086, "internal_node_id": "0.0-190.0"}}, {"uniqueid": "MTK0738:323Q6SJS8JN6O86YAOPA5U6QU5QHFC", "current_trial": 263, "dateTime": 1512679047520, "trialdata": {"rt": -1, "stimulus": "<p id=\"stim\">BANKER</p>", "key_press": -1, "type": "PRES_VIS", "word": "banker", "wordID": 83, "conditions": [24, 1600, "v", 24000], "trial": 7, "serialpos": 22, "trial_type": "single-stim", "trial_index": 263, "time_elapsed": 1687698, "internal_node_id": "0.0-191.0"}}, {"uniqueid": "MTK0738:323Q6SJS8JN6O86YAOPA5U6QU5QHFC", "current_trial": 264, "dateTime": 1512679050066, "trialdata": {"rt": -1, "stimulus": "<p id=\"stim\">PEPPER</p>", "key_press": -1, "type": "PRES_VIS", "word": "pepper", "wordID": 1046, "conditions": [24, 1600, "v", 24000], "trial": 7, "serialpos": 23, "trial_type": "single-stim", "trial_index": 264, "time_elapsed": 1690244, "internal_node_id": "0.0-192.0"}}, {"uniqueid": "MTK0738:323Q6SJS8JN6O86YAOPA5U6QU5QHFC", "current_trial": 265, "dateTime": 1512679052371, "trialdata": {"rt": -1, "stimulus": "", "key_press": -1, "type": "PRE_RECALL_DELAY", "trial_type": "single-stim", "trial_index": 265, "time_elapsed": 1692549, "internal_node_id": "0.0-193.0-0.0"}}, {"uniqueid": "MTK0738:323Q6SJS8JN6O86YAOPA5U6QU5QHFC", "current_trial": 266, "dateTime": 1512679052872, "trialdata": {"rt": -1000, "stimulus": "/static/audio/400Hz.wav", "key_press": -1, "type": "PRE_RECALL_ALERT", "trial_type": "single-audio", "trial_index": 266, "time_elapsed": 1693050, "internal_node_id": "0.0-194.0"}}, {"uniqueid": "MTK0738:323Q6SJS8JN6O86YAOPA5U6QU5QHFC", "current_trial": 267, "dateTime": 1512679112882, "trialdata": {"rt": [4462, 7845, 11991, 15204, 24667, 29414, 54842], "recwords": ["banker", "pepper", "banker", "onion", "dresser", "dress", "fox"], "type": "FREE_RECALL", "conditions": [24, 1600, "v", 24000], "trial": 7, "trial_type": "free-recall", "trial_index": 267, "time_elapsed": 1753054, "internal_node_id": "0.0-195.0-0.0"}}, {"uniqueid": "MTK0738:323Q6SJS8JN6O86YAOPA5U6QU5QHFC", "current_trial": 268, "dateTime": 1512679158145, "trialdata": {"rt": 43262, "key_press": 74, "type": "INSTRUCTIONS", "trial_type": "text", "trial_index": 268, "time_elapsed": 1798323, "internal_node_id": "0.0-196.0"}}, {"uniqueid": "MTK0738:323Q6SJS8JN6O86YAOPA5U6QU5QHFC", "current_trial": 269, "dateTime": 1512679184147, "trialdata": {"rt": [3664, 8172, 11196, 16376, 21346], "responses": ["13", "17", "11", "14", "18"], "num1": [3, 5, 6, 6, 8, 2], "num2": [9, 5, 1, 4, 3, 6], "num3": [1, 7, 4, 4, 7, 2], "type": "DISTRACTOR", "conditions": [24, 800, "a", 24000], "trial": 8, "trial_type": "math-distractor", "trial_index": 269, "time_elapsed": 1824325, "internal_node_id": "0.0-197.0"}}, {"uniqueid": "MTK0738:323Q6SJS8JN6O86YAOPA5U6QU5QHFC", "current_trial": 270, "dateTime": 1512679187148, "trialdata": {"rt": -1, "stimulus": "<p id=\"stim\">10</p>", "key_press": -1, "trial_type": "single-stim", "trial_index": 270, "time_elapsed": 1827326, "internal_node_id": "0.0-198.0-0.0"}}, {"uniqueid": "MTK0738:323Q6SJS8JN6O86YAOPA5U6QU5QHFC", "current_trial": 271, "dateTime": 1512679188154, "trialdata": {"rt": -1, "stimulus": "<p id=\"stim\">9</p>", "key_press": -1, "trial_type": "single-stim", "trial_index": 271, "time_elapsed": 1828331, "internal_node_id": "0.0-198.0-1.0"}}, {"uniqueid": "MTK0738:323Q6SJS8JN6O86YAOPA5U6QU5QHFC", "current_trial": 272, "dateTime": 1512679189154, "trialdata": {"rt": -1, "stimulus": "<p id=\"stim\">8</p>", "key_press": -1, "trial_type": "single-stim", "trial_index": 272, "time_elapsed": 1829332, "internal_node_id": "0.0-198.0-2.0"}}, {"uniqueid": "MTK0738:323Q6SJS8JN6O86YAOPA5U6QU5QHFC", "current_trial": 273, "dateTime": 1512679190155, "trialdata": {"rt": -1, "stimulus": "<p id=\"stim\">7</p>", "key_press": -1, "trial_type": "single-stim", "trial_index": 273, "time_elapsed": 1830333, "internal_node_id": "0.0-198.0-3.0"}}, {"uniqueid": "MTK0738:323Q6SJS8JN6O86YAOPA5U6QU5QHFC", "current_trial": 274, "dateTime": 1512679191156, "trialdata": {"rt": -1, "stimulus": "<p id=\"stim\">6</p>", "key_press": -1, "trial_type": "single-stim", "trial_index": 274, "time_elapsed": 1831334, "internal_node_id": "0.0-198.0-4.0"}}, {"uniqueid": "MTK0738:323Q6SJS8JN6O86YAOPA5U6QU5QHFC", "current_trial": 275, "dateTime": 1512679192157, "trialdata": {"rt": -1, "stimulus": "<p id=\"stim\">5</p>", "key_press": -1, "trial_type": "single-stim", "trial_index": 275, "time_elapsed": 1832335, "internal_node_id": "0.0-198.0-5.0"}}, {"uniqueid": "MTK0738:323Q6SJS8JN6O86YAOPA5U6QU5QHFC", "current_trial": 276, "dateTime": 1512679193159, "trialdata": {"rt": -1, "stimulus": "<p id=\"stim\">4</p>", "key_press": -1, "trial_type": "single-stim", "trial_index": 276, "time_elapsed": 1833336, "internal_node_id": "0.0-