{"condition": 0, "counterbalance": 1213, "assignmentId": "3FK0YFF9P0N026N8FSBI2H0LQJMVVB", "workerId": "MTK0900", "hitId": "360ZO6N6J1QHSSI28X0TYJWRSQV9MP", "currenttrial": 626, "bonus": 0, "data": [{"uniqueid": "MTK0900:3FK0YFF9P0N026N8FSBI2H0LQJMVVB", "current_trial": 0, "dateTime": 1512868798331, "trialdata": {"rt": 17051, "key_press": 32, "type": "INSTRUCTIONS", "trial_type": "text", "trial_index": 0, "time_elapsed": 17053, "internal_node_id": "0.0-0.0"}}, {"uniqueid": "MTK0900:3FK0YFF9P0N026N8FSBI2H0LQJMVVB", "current_trial": 1, "dateTime": 1512869065463, "trialdata": {"rt": 267131, "key_press": 32, "type": "INSTRUCTIONS", "trial_type": "text", "trial_index": 1, "time_elapsed": 284185, "internal_node_id": "0.0-1.0"}}, {"uniqueid": "MTK0900:3FK0YFF9P0N026N8FSBI2H0LQJMVVB", "current_trial": 2, "dateTime": 1512869110654, "trialdata": {"rt": [45180], "responses": ["ocean"], "type": "AUDIO_TEST", "trial_type": "audio-test", "trial_index": 2, "time_elapsed": 329376, "internal_node_id": "0.0-2.0"}}, {"uniqueid": "MTK0900:3FK0YFF9P0N026N8FSBI2H0LQJMVVB", "current_trial": 3, "dateTime": 1512869122430, "trialdata": {"rt": [11772], "responses": ["crystal"], "type": "AUDIO_TEST", "trial_type": "audio-test", "trial_index": 3, "time_elapsed": 341152, "internal_node_id": "0.0-3.0"}}, {"uniqueid": "MTK0900:3FK0YFF9P0N026N8FSBI2H0LQJMVVB", "current_trial": 4, "dateTime": 1512869136926, "trialdata": {"rt": [14493], "responses": ["spice"], "type": "AUDIO_TEST", "trial_type": "audio-test", "trial_index": 4, "time_elapsed": 355647, "internal_node_id": "0.0-4.0"}}, {"uniqueid": "MTK0900:3FK0YFF9P0N026N8FSBI2H0LQJMVVB", "current_trial": 5, "dateTime": 1512869178672, "trialdata": {"rt": 40995, "responses": "{\"Q0\":\"12am\",\"Q1\":\"9am\",\"Q2\":\"4\"}", "type": "SLEEP_SURVEY", "trial_type": "survey-text", "trial_index": 5, "time_elapsed": 397394, "internal_node_id": "0.0-5.0"}}, {"uniqueid": "MTK0900:3FK0YFF9P0N026N8FSBI2H0LQJMVVB", "current_trial": 6, "dateTime": 1512869232572, "trialdata": {"rt": 52897, "key_press": 32, "type": "INSTRUCTIONS", "trial_type": "text", "trial_index": 6, "time_elapsed": 451294, "internal_node_id": "0.0-6.0"}}, {"uniqueid": "MTK0900:3FK0YFF9P0N026N8FSBI2H0LQJMVVB", "current_trial": 7, "dateTime": 1512869258932, "trialdata": {"rt": 25856, "key_press": 32, "type": "INSTRUCTIONS", "trial_type": "text", "trial_index": 7, "time_elapsed": 477654, "internal_node_id": "0.0-7.0"}}, {"uniqueid": "MTK0900:3FK0YFF9P0N026N8FSBI2H0LQJMVVB", "current_trial": 8, "dateTime": 1512869273324, "trialdata": {"rt": 13890, "key_press": 32, "type": "INSTRUCTIONS", "trial_type": "text", "trial_index": 8, "time_elapsed": 492046, "internal_node_id": "0.0-8.0"}}, {"uniqueid": "MTK0900:3FK0YFF9P0N026N8FSBI2H0LQJMVVB", "current_trial": 9, "dateTime": 1512869292329, "trialdata": {"rt": [3932, 5524, 8580, 10484, 12628, 14628, 17667], "responses": ["13", "5", "11", "13", "13", "10", "18"], "num1": [5, 3, 7, 2, 5, 1, 3, 6], "num2": [7, 1, 1, 6, 4, 6, 9, 7], "num3": [1, 1, 3, 5, 4, 3, 6, 8], "type": "DISTRACTOR", "conditions": [18, 1200, "v", 18000], "trial": 0, "trial_type": "math-distractor", "trial_index": 9, "time_elapsed": 511051, "internal_node_id": "0.0-9.0"}}, {"uniqueid": "MTK0900:3FK0YFF9P0N026N8FSBI2H0LQJMVVB", "current_trial": 10, "dateTime": 1512869295333, "trialdata": {"rt": -1, "stimulus": "<p id=\"stim\">10</p>", "key_press": -1, "trial_type": "single-stim", "trial_index": 10, "time_elapsed": 514055, "internal_node_id": "0.0-10.0-0.0"}}, {"uniqueid": "MTK0900:3FK0YFF9P0N026N8FSBI2H0LQJMVVB", "current_trial": 11, "dateTime": 1512869296334, "trialdata": {"rt": -1, "stimulus": "<p id=\"stim\">9</p>", "key_press": -1, "trial_type": "single-stim", "trial_index": 11, "time_elapsed": 515056, "internal_node_id": "0.0-10.0-1.0"}}, {"uniqueid": "MTK0900:3FK0YFF9P0N026N8FSBI2H0LQJMVVB", "current_trial": 12, "dateTime": 1512869297335, "trialdata": {"rt": -1, "stimulus": "<p id=\"stim\">8</p>", "key_press": -1, "trial_type": "single-stim", "trial_index": 12, "time_elapsed": 516057, "internal_node_id": "0.0-10.0-2.0"}}, {"uniqueid": "MTK0900:3FK0YFF9P0N026N8FSBI2H0LQJMVVB", "current_trial": 13, "dateTime": 1512869298339, "trialdata": {"rt": -1, "stimulus": "<p id=\"stim\">7</p>", "key_press": -1, "trial_type": "single-stim", "trial_index": 13, "time_elapsed": 517061, "internal_node_id": "0.0-10.0-3.0"}}, {"uniqueid": "MTK0900:3FK0YFF9P0N026N8FSBI2H0LQJMVVB", "current_trial": 14, "dateTime": 1512869299340, "trialdata": {"rt": -1, "stimulus": "<p id=\"stim\">6</p>", "key_press": -1, "trial_type": "single-stim", "trial_index": 14, "time_elapsed": 518062, "internal_node_id": "0.0-10.0-4.0"}}, {"uniqueid": "MTK0900:3FK0YFF9P0N026N8FSBI2H0LQJMVVB", "current_trial": 15, "dateTime": 1512869300341, "trialdata": {"rt": -1, "stimulus": "<p id=\"stim\">5</p>", "key_press": -1, "trial_type": "single-stim", "trial_index": 15, "time_elapsed": 519063, "internal_node_id": "0.0-10.0-5.0"}}, {"uniqueid": "MTK0900:3FK0YFF9P0N026N8FSBI2H0LQJMVVB", "current_trial": 16, "dateTime": 1512869301342, "trialdata": {"rt": -1, "stimulus": "<p id=\"stim\">4</p>", "key_press": -1, "trial_type": "single-stim", "trial_index": 16, "time_elapsed": 520064, "internal_node_id": "0.0-10.0-6.0"}}, {"uniqueid": "MTK0900:3FK0YFF9P0N026N8FSBI2H0LQJMVVB", "current_trial": 17, "dateTime": 1512869302344, "trialdata": {"rt": -1, "stimulus": "<p id=\"stim\">3</p>", "key_press": -1, "trial_type": "single-stim", "trial_index": 17, "time_elapsed": 521066, "internal_node_id": "0.0-10.0-7.0"}}, {"uniqueid": "MTK0900:3FK0YFF9P0N026N8FSBI2H0LQJMVVB", "current_trial": 18, "dateTime": 1512869303345, "trialdata": {"rt": -1, "stimulus": "<p id=\"stim\">2</p>", "key_press": -1, "trial_type": "single-stim", "trial_index": 18, "time_elapsed": 522067, "internal_node_id": "0.0-10.0-8.0"}}, {"uniqueid": "MTK0900:3FK0YFF9P0N026N8FSBI2H0LQJMVVB", "current_trial": 19, "dateTime": 1512869304346, "trialdata": {"rt": -1, "stimulus": "<p id=\"stim\">1</p>", "key_press": -1, "trial_type": "single-stim", "trial_index": 19, "time_elapsed": 523068, "internal_node_id": "0.0-10.0-9.0"}}, {"uniqueid": "MTK0900:3FK0YFF9P0N026N8FSBI2H0LQJMVVB", "current_trial": 20, "dateTime": 1512869305848, "trialdata": {"rt": -1, "stimulus": "<p id=\"stim\">+</p>", "key_press": -1, "type": "FIXATION", "trial_type": "single-stim", "trial_index": 20, "time_elapsed": 524570, "internal_node_id": "0.0-11.0-0.0"}}, {"uniqueid": "MTK0900:3FK0YFF9P0N026N8FSBI2H0LQJMVVB", "current_trial": 21, "dateTime": 1512869307049, "trialdata": {"rt": -1, "stimulus": "<p id=\"stim\">LETTUCE</p>", "key_press": -1, "type": "PRES_VIS", "word": "lettuce", "wordID": 813, "conditions": [18, 1200, "v", 18000], "trial": 0, "serialpos": 0, "trial_type": "single-stim", "trial_index": 21, "time_elapsed": 525771, "internal_node_id": "0.0-12.0"}}, {"uniqueid": "MTK0900:3FK0YFF9P0N026N8FSBI2H0LQJMVVB", "current_trial": 22, "dateTime": 1512869309209, "trialdata": {"rt": -1, "stimulus": "<p id=\"stim\">BRICK</p>", "key_press": -1, "type": "PRES_VIS", "word": "brick", "wordID": 171, "conditions": [18, 1200, "v", 18000], "trial": 0, "serialpos": 1, "trial_type": "single-stim", "trial_index": 22, "time_elapsed": 527931, "internal_node_id": "0.0-13.0"}}, {"uniqueid": "MTK0900:3FK0YFF9P0N026N8FSBI2H0LQJMVVB", "current_trial": 23, "dateTime": 1512869311358, "trialdata": {"rt": -1, "stimulus": "<p id=\"stim\">PADDING</p>", "key_press": -1, "type": "PRES_VIS", "word": "padding", "wordID": 998, "conditions": [18, 1200, "v", 18000], "trial": 0, "serialpos": 2, "trial_type": "single-stim", "trial_index": 23, "time_elapsed": 530080, "internal_node_id": "0.0-14.0"}}, {"uniqueid": "MTK0900:3FK0YFF9P0N026N8FSBI2H0LQJMVVB", "current_trial": 24, "dateTime": 1512869313682, "trialdata": {"rt": -1, "stimulus": "<p id=\"stim\">OX</p>", "key_press": -1, "type": "PRES_VIS", "word": "ox", "wordID": 993, "conditions": [18, 1200, "v", 18000], "trial": 0, "serialpos": 3, "trial_type": "single-stim", "trial_index": 24, "time_elapsed": 532404, "internal_node_id": "0.0-15.0"}}, {"uniqueid": "MTK0900:3FK0YFF9P0N026N8FSBI2H0LQJMVVB", "current_trial": 25, "dateTime": 1512869316038, "trialdata": {"rt": -1, "stimulus": "<p id=\"stim\">BUGGY</p>", "key_press": -1, "type": "PRES_VIS", "word": "buggy", "wordID": 187, "conditions": [18, 1200, "v", 18000], "trial": 0, "serialpos": 4, "trial_type": "single-stim", "trial_index": 25, "time_elapsed": 534760, "internal_node_id": "0.0-16.0"}}, {"uniqueid": "MTK0900:3FK0YFF9P0N026N8FSBI2H0LQJMVVB", "current_trial": 26, "dateTime": 1512869318136, "trialdata": {"rt": -1, "stimulus": "<p id=\"stim\">LEG</p>", "key_press": -1, "type": "PRES_VIS", "word": "leg", "wordID": 808, "conditions": [18, 1200, "v", 18000], "trial": 0, "serialpos": 5, "trial_type": "single-stim", "trial_index": 26, "time_elapsed": 536858, "internal_node_id": "0.0-17.0"}}, {"uniqueid": "MTK0900:3FK0YFF9P0N026N8FSBI2H0LQJMVVB", "current_trial": 27, "dateTime": 1512869320345, "trialdata": {"rt": -1, "stimulus": "<p id=\"stim\">BUG</p>", "key_press": -1, "type": "PRES_VIS", "word": "bug", "wordID": 186, "conditions": [18, 1200, "v", 18000], "trial": 0, "serialpos": 6, "trial_type": "single-stim", "trial_index": 27, "time_elapsed": 539067, "internal_node_id": "0.0-18.0"}}, {"uniqueid": "MTK0900:3FK0YFF9P0N026N8FSBI2H0LQJMVVB", "current_trial": 28, "dateTime": 1512869322382, "trialdata": {"rt": -1, "stimulus": "<p id=\"stim\">CHIPMUNK</p>", "key_press": -1, "type": "PRES_VIS", "word": "chipmunk", "wordID": 303, "conditions": [18, 1200, "v", 18000], "trial": 0, "serialpos": 7, "trial_type": "single-stim", "trial_index": 28, "time_elapsed": 541104, "internal_node_id": "0.0-19.0"}}, {"uniqueid": "MTK0900:3FK0YFF9P0N026N8FSBI2H0LQJMVVB", "current_trial": 29, "dateTime": 1512869324564, "trialdata": {"rt": -1, "stimulus": "<p id=\"stim\">WORLD</p>", "key_press": -1, "type": "PRES_VIS", "word": "world", "wordID": 1621, "conditions": [18, 1200, "v", 18000], "trial": 0, "serialpos": 8, "trial_type": "single-stim", "trial_index": 29, "time_elapsed": 543286, "internal_node_id": "0.0-20.0"}}, {"uniqueid": "MTK0900:3FK0YFF9P0N026N8FSBI2H0LQJMVVB", "current_trial": 30, "dateTime": 1512869326906, "trialdata": {"rt": -1, "stimulus": "<p id=\"stim\">SOFTBALL</p>", "key_press": -1, "type": "PRES_VIS", "word": "softball", "wordID": 1342, "conditions": [18, 1200, "v", 18000], "trial": 0, "serialpos": 9, "trial_type": "single-stim", "trial_index": 30, "time_elapsed": 545628, "internal_node_id": "0.0-21.0"}}, {"uniqueid": "MTK0900:3FK0YFF9P0N026N8FSBI2H0LQJMVVB", "current_trial": 31, "dateTime": 1512869329115, "trialdata": {"rt": -1, "stimulus": "<p id=\"stim\">LILY</p>", "key_press": -1, "type": "PRES_VIS", "word": "lily", "wordID": 820, "conditions": [18, 1200, "v", 18000], "trial": 0, "serialpos": 10, "trial_type": "single-stim", "trial_index": 31, "time_elapsed": 547837, "internal_node_id": "0.0-22.0"}}, {"uniqueid": "MTK0900:3FK0YFF9P0N026N8FSBI2H0LQJMVVB", "current_trial": 32, "dateTime": 1512869331409, "trialdata": {"rt": -1, "stimulus": "<p id=\"stim\">GLOBE</p>", "key_press": -1, "type": "PRES_VIS", "word": "globe", "wordID": 640, "conditions": [18, 1200, "v", 18000], "trial": 0, "serialpos": 11, "trial_type": "single-stim", "trial_index": 32, "time_elapsed": 550131, "internal_node_id": "0.0-23.0"}}, {"uniqueid": "MTK0900:3FK0YFF9P0N026N8FSBI2H0LQJMVVB", "current_trial": 33, "dateTime": 1512869333594, "trialdata": {"rt": -1, "stimulus": "<p id=\"stim\">CRICKET</p>", "key_press": -1, "type": "PRES_VIS", "word": "cricket", "wordID": 407, "conditions": [18, 1200, "v", 18000], "trial": 0, "serialpos": 12, "trial_type": "single-stim", "trial_index": 33, "time_elapsed": 552316, "internal_node_id": "0.0-24.0"}}, {"uniqueid": "MTK0900:3FK0YFF9P0N026N8FSBI2H0LQJMVVB", "current_trial": 34, "dateTime": 1512869335946, "trialdata": {"rt": -1, "stimulus": "<p id=\"stim\">AIRPLANE</p>", "key_press": -1, "type": "PRES_VIS", "word": "airplane", "wordID": 11, "conditions": [18, 1200, "v", 18000], "trial": 0, "serialpos": 13, "trial_type": "single-stim", "trial_index": 34, "time_elapsed": 554668, "internal_node_id": "0.0-25.0"}}, {"uniqueid": "MTK0900:3FK0YFF9P0N026N8FSBI2H0LQJMVVB", "current_trial": 35, "dateTime": 1512869338146, "trialdata": {"rt": -1, "stimulus": "<p id=\"stim\">KNAPSACK</p>", "key_press": -1, "type": "PRES_VIS", "word": "knapsack", "wordID": 782, "conditions": [18, 1200, "v", 18000], "trial": 0, "serialpos": 14, "trial_type": "single-stim", "trial_index": 35, "time_elapsed": 556868, "internal_node_id": "0.0-26.0"}}, {"uniqueid": "MTK0900:3FK0YFF9P0N026N8FSBI2H0LQJMVVB", "current_trial": 36, "dateTime": 1512869340273, "trialdata": {"rt": -1, "stimulus": "<p id=\"stim\">DRESSER</p>", "key_press": -1, "type": "PRES_VIS", "word": "dresser", "wordID": 495, "conditions": [18, 1200, "v", 18000], "trial": 0, "serialpos": 15, "trial_type": "single-stim", "trial_index": 36, "time_elapsed": 558995, "internal_node_id": "0.0-27.0"}}, {"uniqueid": "MTK0900:3FK0YFF9P0N026N8FSBI2H0LQJMVVB", "current_trial": 37, "dateTime": 1512869342624, "trialdata": {"rt": -1, "stimulus": "<p id=\"stim\">UNCLE</p>", "key_press": -1, "type": "PRES_VIS", "word": "uncle", "wordID": 1535, "conditions": [18, 1200, "v", 18000], "trial": 0, "serialpos": 16, "trial_type": "single-stim", "trial_index": 37, "time_elapsed": 561346, "internal_node_id": "0.0-28.0"}}, {"uniqueid": "MTK0900:3FK0YFF9P0N026N8FSBI2H0LQJMVVB", "current_trial": 38, "dateTime": 1512869344870, "trialdata": {"rt": -1, "stimulus": "<p id=\"stim\">SCULPTURE</p>", "key_press": -1, "type": "PRES_VIS", "word": "sculpture", "wordID": 1257, "conditions": [18, 1200, "v", 18000], "trial": 0, "serialpos": 17, "trial_type": "single-stim", "trial_index": 38, "time_elapsed": 563592, "internal_node_id": "0.0-29.0"}}, {"uniqueid": "MTK0900:3FK0YFF9P0N026N8FSBI2H0LQJMVVB", "current_trial": 39, "dateTime": 1512869347320, "trialdata": {"rt": -1, "stimulus": "", "key_press": -1, "type": "PRE_RECALL_DELAY", "trial_type": "single-stim", "trial_index": 39, "time_elapsed": 566042, "internal_node_id": "0.0-30.0-0.0"}}, {"uniqueid": "MTK0900:3FK0YFF9P0N026N8FSBI2H0LQJMVVB", "current_trial": 40, "dateTime": 1512869347823, "trialdata": {"rt": -1000, "stimulus": "/static/audio/400Hz.wav", "key_press": -1, "type": "PRE_RECALL_ALERT", "trial_type": "single-audio", "trial_index": 40, "time_elapsed": 566545, "internal_node_id": "0.0-31.0"}}, {"uniqueid": "MTK0900:3FK0YFF9P0N026N8FSBI2H0LQJMVVB", "current_trial": 41, "dateTime": 1512869407829, "trialdata": {"rt": [2354, 4002, 6618, 8626, 12010, 14066, 25842, 37738, 52282], "recwords": ["bug", "buggy", "lettuce", "ox", "softball", "globe", "paddle", "leg", "paperback"], "type": "FREE_RECALL", "conditions": [18, 1200, "v", 18000], "trial": 0, "trial_type": "free-recall", "trial_index": 41, "time_elapsed": 626546, "internal_node_id": "0.0-32.0-0.0"}}, {"uniqueid": "MTK0900:3FK0YFF9P0N026N8FSBI2H0LQJMVVB", "current_trial": 42, "dateTime": 1512869411778, "trialdata": {"rt": 1947, "key_press": 32, "type": "INSTRUCTIONS", "trial_type": "text", "trial_index": 42, "time_elapsed": 630499, "internal_node_id": "0.0-33.0"}}, {"uniqueid": "MTK0900:3FK0YFF9P0N026N8FSBI2H0LQJMVVB", "current_trial": 43, "dateTime": 1512869431781, "trialdata": {"rt": [5334, 7030, 8278, 10070, 12918, 14894, 17230], "responses": ["21", "15", "4", "9", "23", "16", "23"], "num1": [9, 5, 1, 5, 9, 4, 6, 7], "num2": [8, 2, 2, 2, 8, 3, 9, 1], "num3": [4, 8, 1, 2, 5, 9, 7, 9], "type": "DISTRACTOR", "conditions": [18, 1200, "a", 18000], "trial": 1, "trial_type": "math-distractor", "trial_index": 43, "time_elapsed": 650503, "internal_node_id": "0.0-34.0"}}, {"uniqueid": "MTK0900:3FK0YFF9P0N026N8FSBI2H0LQJMVVB", "current_trial": 44, "dateTime": 1512869434784, "trialdata": {"rt": -1, "stimulus": "<p id=\"stim\">10</p>", "key_press": -1, "trial_type": "single-stim", "trial_index": 44, "time_elapsed": 653506, "internal_node_id": "0.0-35.0-0.0"}}, {"uniqueid": "MTK0900:3FK0YFF9P0N026N8FSBI2H0LQJMVVB", "current_trial": 45, "dateTime": 1512869435787, "trialdata": {"rt": -1, "stimulus": "<p id=\"stim\">9</p>", "key_press": -1, "trial_type": "single-stim", "trial_index": 45, "time_elapsed": 654508, "internal_node_id": "0.0-35.0-1.0"}}, {"uniqueid": "MTK0900:3FK0YFF9P0N026N8FSBI2H0LQJMVVB", "current_trial": 46, "dateTime": 1512869436789, "trialdata": {"rt": -1, "stimulus": "<p id=\"stim\">8</p>", "key_press": -1, "trial_type": "single-stim", "trial_index": 46, "time_elapsed": 655511, "internal_node_id": "0.0-35.0-2.0"}}, {"uniqueid": "MTK0900:3FK0YFF9P0N026N8FSBI2H0LQJMVVB", "current_trial": 47, "dateTime": 1512869437790, "trialdata": {"rt": -1, "stimulus": "<p id=\"stim\">7</p>", "key_press": -1, "trial_type": "single-stim", "trial_index": 47, "time_elapsed": 656512, "internal_node_id": "0.0-35.0-3.0"}}, {"uniqueid": "MTK0900:3FK0YFF9P0N026N8FSBI2H0LQJMVVB", "current_trial": 48, "dateTime": 1512869438790, "trialdata": {"rt": -1, "stimulus": "<p id=\"stim\">6</p>", "key_press": -1, "trial_type": "single-stim", "trial_index": 48, "time_elapsed": 657512, "internal_node_id": "0.0-35.0-4.0"}}, {"uniqueid": "MTK0900:3FK0YFF9P0N026N8FSBI2H0LQJMVVB", "current_trial": 49, "dateTime": 1512869439792, "trialdata": {"rt": -1, "stimulus": "<p id=\"stim\">5</p>", "key_press": -1, "trial_type": "single-stim", "trial_index": 49, "time_elapsed": 658514, "internal_node_id": "0.0-35.0-5.0"}}, {"uniqueid": "MTK0900:3FK0YFF9P0N026N8FSBI2H0LQJMVVB", "current_trial": 50, "dateTime": 1512869440793, "trialdata": {"rt": -1, "stimulus": "<p id=\"stim\">4</p>", "key_press": -1, "trial_type": "single-stim", "trial_index": 50, "time_elapsed": 659515, "internal_node_id": "0.0-35.0-6.0"}}, {"uniqueid": "MTK0900:3FK0YFF9P0N026N8FSBI2H0LQJMVVB", "current_trial": 51, "dateTime": 1512869441795, "trialdata": {"rt": -1, "stimulus": "<p id=\"stim\">3</p>", "key_press": -1, "trial_type": "single-stim", "trial_index": 51, "time_elapsed": 660517, "internal_node_id": "0.0-35.0-7.0"}}, {"uniqueid": "MTK0900:3FK0YFF9P0N026N8FSBI2H0LQJMVVB", "current_trial": 52, "dateTime": 1512869442797, "trialdata": {"rt": -1, "stimulus": "<p id=\"stim\">2</p>", "key_press": -1, "trial_type": "single-stim", "trial_index": 52, "time_elapsed": 661519, "internal_node_id": "0.0-35.0-8.0"}}, {"uniqueid": "MTK0900:3FK0YFF9P0N026N8FSBI2H0LQJMVVB", "current_trial": 53, "dateTime": 1512869443798, "trialdata": {"rt": -1, "stimulus": "<p id=\"stim\">1</p>", "key_press": -1, "trial_type": "single-stim", "trial_index": 53, "time_elapsed": 662520, "internal_node_id": "0.0-35.0-9.0"}}, {"uniqueid": "MTK0900:3FK0YFF9P0N026N8FSBI2H0LQJMVVB", "current_trial": 54, "dateTime": 1512869445299, "trialdata": {"rt": -1, "stimulus": "<p id=\"stim\">+</p>", "key_press": -1, "type": "FIXATION", "trial_type": "single-stim", "trial_index": 54, "time_elapsed": 664021, "internal_node_id": "0.0-36.0-0.0"}}, {"uniqueid": "MTK0900:3FK0YFF9P0N026N8FSBI2H0LQJMVVB", "current_trial": 55, "dateTime": 1512869447514, "trialdata": {"rt": -1000, "stimulus": "/static/audio/wordpool/DRAGON.wav", "key_press": -1, "type": "PRES_AUD", "word": "dragon", "wordID": 491, "conditions": [18, 1200, "a", 18000], "trial": 1, "serialpos": 0, "trial_type": "single-audio", "trial_index": 55, "time_elapsed": 666236, "internal_node_id": "0.0-37.0"}}, {"uniqueid": "MTK0900:3FK0YFF9P0N026N8FSBI2H0LQJMVVB", "current_trial": 56, "dateTime": 1512869449538, "trialdata": {"rt": -1000, "stimulus": "/static/audio/wordpool/WIDOW.wav", "key_press": -1, "type": "PRES_AUD", "word": "widow", "wordID": 1607, "conditions": [18, 1200, "a", 18000], "trial": 1, "serialpos": 1, "trial_type": "single-audio", "trial_index": 56, "time_elapsed": 668259, "internal_node_id": "0.0-38.0"}}, {"uniqueid": "MTK0900:3FK0YFF9P0N026N8FSBI2H0LQJMVVB", "current_trial": 57, "dateTime": 1512869451838, "trialdata": {"rt": -1000, "stimulus": "/static/audio/wordpool/BANJO.wav", "key_press": -1, "type": "PRES_AUD", "word": "banjo", "wordID": 81, "conditions": [18, 1200, "a", 18000], "trial": 1, "serialpos": 2, "trial_type": "single-audio", "trial_index": 57, "time_elapsed": 670560, "internal_node_id": "0.0-39.0"}}, {"uniqueid": "MTK0900:3FK0YFF9P0N026N8FSBI2H0LQJMVVB", "current_trial": 58, "dateTime": 1512869454169, "trialdata": {"rt": -1000, "stimulus": "/static/audio/wordpool/OMELET.wav", "key_press": -1, "type": "PRES_AUD", "word": "omelet", "wordID": 975, "conditions": [18, 1200, "a", 18000], "trial": 1, "serialpos": 3, "trial_type": "single-audio", "trial_index": 58, "time_elapsed": 672891, "internal_node_id": "0.0-40.0"}}, {"uniqueid": "MTK0900:3FK0YFF9P0N026N8FSBI2H0LQJMVVB", "current_trial": 59, "dateTime": 1512869456453, "trialdata": {"rt": -1000, "stimulus": "/static/audio/wordpool/PEANUT.wav", "key_press": -1, "type": "PRES_AUD", "word": "peanut", "wordID": 1031, "conditions": [18, 1200, "a", 18000], "trial": 1, "serialpos": 4, "trial_type": "single-audio", "trial_index": 59, "time_elapsed": 675175, "internal_node_id": "0.0-41.0"}}, {"uniqueid": "MTK0900:3FK0YFF9P0N026N8FSBI2H0LQJMVVB", "current_trial": 60, "dateTime": 1512869458852, "trialdata": {"rt": -1000, "stimulus": "/static/audio/wordpool/CELLAR.wav", "key_press": -1, "type": "PRES_AUD", "word": "cellar", "wordID": 266, "conditions": [18, 1200, "a", 18000], "trial": 1, "serialpos": 5, "trial_type": "single-audio", "trial_index": 60, "time_elapsed": 677574, "internal_node_id": "0.0-42.0"}}, {"uniqueid": "MTK0900:3FK0YFF9P0N026N8FSBI2H0LQJMVVB", "current_trial": 61, "dateTime": 1512869461166, "trialdata": {"rt": -1000, "stimulus": "/static/audio/wordpool/BELLY.wav", "key_press": -1, "type": "PRES_AUD", "word": "belly", "wordID": 118, "conditions": [18, 1200, "a", 18000], "trial": 1, "serialpos": 6, "trial_type": "single-audio", "trial_index": 61, "time_elapsed": 679887, "internal_node_id": "0.0-43.0"}}, {"uniqueid": "MTK0900:3FK0YFF9P0N026N8FSBI2H0LQJMVVB", "current_trial": 62, "dateTime": 1512869463444, "trialdata": {"rt": -1000, "stimulus": "/static/audio/wordpool/BREAST.wav", "key_press": -1, "type": "PRES_AUD", "word": "breast", "wordID": 170, "conditions": [18, 1200, "a", 18000], "trial": 1, "serialpos": 7, "trial_type": "single-audio", "trial_index": 62, "time_elapsed": 682165, "internal_node_id": "0.0-44.0"}}, {"uniqueid": "MTK0900:3FK0YFF9P0N026N8FSBI2H0LQJMVVB", "current_trial": 63, "dateTime": 1512869465668, "trialdata": {"rt": -1000, "stimulus": "/static/audio/wordpool/HOSTESS.wav", "key_press": -1, "type": "PRES_AUD", "word": "hostess", "wordID": 722, "conditions": [18, 1200, "a", 18000], "trial": 1, "serialpos": 8, "trial_type": "single-audio", "trial_index": 63, "time_elapsed": 684389, "internal_node_id": "0.0-45.0"}}, {"uniqueid": "MTK0900:3FK0YFF9P0N026N8FSBI2H0LQJMVVB", "current_trial": 64, "dateTime": 1512869467736, "trialdata": {"rt": -1000, "stimulus": "/static/audio/wordpool/MOP.wav", "key_press": -1, "type": "PRES_AUD", "word": "mop", "wordID": 915, "conditions": [18, 1200, "a", 18000], "trial": 1, "serialpos": 9, "trial_type": "single-audio", "trial_index": 64, "time_elapsed": 686458, "internal_node_id": "0.0-46.0"}}, {"uniqueid": "MTK0900:3FK0YFF9P0N026N8FSBI2H0LQJMVVB", "current_trial": 65, "dateTime": 1512869469790, "trialdata": {"rt": -1000, "stimulus": "/static/audio/wordpool/RELISH.wav", "key_press": -1, "type": "PRES_AUD", "word": "relish", "wordID": 1182, "conditions": [18, 1200, "a", 18000], "trial": 1, "serialpos": 10, "trial_type": "single-audio", "trial_index": 65, "time_elapsed": 688512, "internal_node_id": "0.0-47.0"}}, {"uniqueid": "MTK0900:3FK0YFF9P0N026N8FSBI2H0LQJMVVB", "current_trial": 66, "dateTime": 1512869472138, "trialdata": {"rt": -1000, "stimulus": "/static/audio/wordpool/MONSTER.wav", "key_press": -1, "type": "PRES_AUD", "word": "monster", "wordID": 911, "conditions": [18, 1200, "a", 18000], "trial": 1, "serialpos": 11, "trial_type": "single-audio", "trial_index": 66, "time_elapsed": 690860, "internal_node_id": "0.0-48.0"}}, {"uniqueid": "MTK0900:3FK0YFF9P0N026N8FSBI2H0LQJMVVB", "current_trial": 67, "dateTime": 1512869474401, "trialdata": {"rt": -1000, "stimulus": "/static/audio/wordpool/PARTNER.wav", "key_press": -1, "type": "PRES_AUD", "word": "partner", "wordID": 1016, "conditions": [18, 1200, "a", 18000], "trial": 1, "serialpos": 12, "trial_type": "single-audio", "trial_index": 67, "time_elapsed": 693122, "internal_node_id": "0.0-49.0"}}, {"uniqueid": "MTK0900:3FK0YFF9P0N026N8FSBI2H0LQJMVVB", "current_trial": 68, "dateTime": 1512869476500, "trialdata": {"rt": -1000, "stimulus": "/static/audio/wordpool/COD.wav", "key_press": -1, "type": "PRES_AUD", "word": "cod", "wordID": 339, "conditions": [18, 1200, "a", 18000], "trial": 1, "serialpos": 13, "trial_type": "single-audio", "trial_index": 68, "time_elapsed": 695220, "internal_node_id": "0.0-50.0"}}, {"uniqueid": "MTK0900:3FK0YFF9P0N026N8FSBI2H0LQJMVVB", "current_trial": 69, "dateTime": 1512869478518, "trialdata": {"rt": -1000, "stimulus": "/static/audio/wordpool/ROBIN.wav", "key_press": -1, "type": "PRES_AUD", "word": "robin", "wordID": 1198, "conditions": [18, 1200, "a", 18000], "trial": 1, "serialpos": 14, "trial_type": "single-audio", "trial_index": 69, "time_elapsed": 697240, "internal_node_id": "0.0-51.0"}}, {"uniqueid": "MTK0900:3FK0YFF9P0N026N8FSBI2H0LQJMVVB", "current_trial": 70, "dateTime": 1512869480748, "trialdata": {"rt": -1000, "stimulus": "/static/audio/wordpool/CAFE.wav", "key_press": -1, "type": "PRES_AUD", "word": "cafe", "wordID": 215, "conditions": [18, 1200, "a", 18000], "trial": 1, "serialpos": 15, "trial_type": "single-audio", "trial_index": 70, "time_elapsed": 699470, "internal_node_id": "0.0-52.0"}}, {"uniqueid": "MTK0900:3FK0YFF9P0N026N8FSBI2H0LQJMVVB", "current_trial": 71, "dateTime": 1512869482761, "trialdata": {"rt": -1000, "stimulus": "/static/audio/wordpool/WRENCH.wav", "key_press": -1, "type": "PRES_AUD", "word": "wrench", "wordID": 1624, "conditions": [18, 1200, "a", 18000], "trial": 1, "serialpos": 16, "trial_type": "single-audio", "trial_index": 71, "time_elapsed": 701482, "internal_node_id": "0.0-53.0"}}, {"uniqueid": "MTK0900:3FK0YFF9P0N026N8FSBI2H0LQJMVVB", "current_trial": 72, "dateTime": 1512869484893, "trialdata": {"rt": -1000, "stimulus": "/static/audio/wordpool/PERFUME.wav", "key_press": -1, "type": "PRES_AUD", "word": "perfume", "wordID": 1048, "conditions": [18, 1200, "a", 18000], "trial": 1, "serialpos": 17, "trial_type": "single-audio", "trial_index": 72, "time_elapsed": 703615, "internal_node_id": "0.0-54.0"}}, {"uniqueid": "MTK0900:3FK0YFF9P0N026N8FSBI2H0LQJMVVB", "current_trial": 73, "dateTime": 1512869486141, "trialdata": {"rt": -1, "stimulus": "", "key_press": -1, "type": "PRE_RECALL_DELAY", "trial_type": "single-stim", "trial_index": 73, "time_elapsed": 704862, "internal_node_id": "0.0-55.0-0.0"}}, {"uniqueid": "MTK0900:3FK0YFF9P0N026N8FSBI2H0LQJMVVB", "current_trial": 74, "dateTime": 1512869486642, "trialdata": {"rt": -1000, "stimulus": "/static/audio/400Hz.wav", "key_press": -1, "type": "PRE_RECALL_ALERT", "trial_type": "single-audio", "trial_index": 74, "time_elapsed": 705364, "internal_node_id": "0.0-56.0"}}, {"uniqueid": "MTK0900:3FK0YFF9P0N026N8FSBI2H0LQJMVVB", "current_trial": 75, "dateTime": 1512869546647, "trialdata": {"rt": [3774, 5765, 7221, 10133, 13814, 15869, 34261, 55108], "recwords": ["dragon", "belly", "breast", "mop", "hostess", "cafe", "omlette", "widow"], "type": "FREE_RECALL", "conditions": [18, 1200, "a", 18000], "trial": 1, "trial_type": "free-recall", "trial_index": 75, "time_elapsed": 765366, "internal_node_id": "0.0-57.0-0.0"}}, {"uniqueid": "MTK0900:3FK0YFF9P0N026N8FSBI2H0LQJMVVB", "current_trial": 76, "dateTime": 1512869551139, "trialdata": {"rt": 2489, "key_press": 32, "type": "INSTRUCTIONS", "trial_type": "text", "trial_index": 76, "time_elapsed": 769858, "internal_node_id": "0.0-58.0"}}, {"uniqueid": "MTK0900:3FK0YFF9P0N026N8FSBI2H0LQJMVVB", "current_trial": 77, "dateTime": 1512869576142, "trialdata": {"rt": [5401, 7969, 9785, 13105, 15578, 17866, 19657, 21721], "responses": ["22", "13", "8", "21", "11", "19", "18", "23"], "num1": [5, 2, 1, 8, 6, 7, 8, 6, 5], "num2": [9, 9, 3, 5, 3, 8, 2, 9, 1], "num3": [8, 2, 4, 8, 2, 4, 8, 7, 5], "type": "DISTRACTOR", "conditions": [12, 1600, "v", 24000], "trial": 2, "trial_type": "math-distractor", "trial_index": 77, "time_elapsed": 794864, "internal_node_id": "0.0-59.0"}}, {"uniqueid": "MTK0900:3FK0YFF9P0N026N8FSBI2H0LQJMVVB", "current_trial": 78, "dateTime": 1512869579143, "trialdata": {"rt": -1, "stimulus": "<p id=\"stim\">10</p>", "key_press": -1, "trial_type": "single-stim", "trial_index": 78, "time_elapsed": 797865, "internal_node_id": "0.0-60.0-0.0"}}, {"uniqueid": "MTK0900:3FK0YFF9P0N026N8FSBI2H0LQJMVVB", "current_trial": 79, "dateTime": 1512869580145, "trialdata": {"rt": -1, "stimulus": "<p id=\"stim\">9</p>", "key_press": -1, "trial_type": "single-stim", "trial_index": 79, "time_elapsed": 798867, "internal_node_id": "0.0-60.0-1.0"}}, {"uniqueid": "MTK0900:3FK0YFF9P0N026N8FSBI2H0LQJMVVB", "current_trial": 80, "dateTime": 1512869581147, "trialdata": {"rt": -1, "stimulus": "<p id=\"stim\">8</p>", "key_press": -1, "trial_type": "single-stim", "trial_index": 80, "time_elapsed": 799869, "internal_node_id": "0.0-60.0-2.0"}}, {"uniqueid": "MTK0900:3FK0YFF9P0N026N8FSBI2H0LQJMVVB", "current_trial": 81, "dateTime": 1512869582148, "trialdata": {"rt": -1, "stimulus": "<p id=\"stim\">7</p>", "key_press": -1, "trial_type": "single-stim", "trial_index": 81, "time_elapsed": 800870, "internal_node_id": "0.0-60.0-3.0"}}, {"uniqueid": "MTK0900:3FK0YFF9P0N026N8FSBI2H0LQJMVVB", "current_trial": 82, "dateTime": 1512869583149, "trialdata": {"rt": -1, "stimulus": "<p id=\"stim\">6</p>", "key_press": -1, "trial_type": "single-stim", "trial_index": 82, "time_elapsed": 801871, "internal_node_id": "0.0-60.0-4.0"}}, {"uniqueid": "MTK0900:3FK0YFF9P0N026N8FSBI2H0LQJMVVB", "current_trial": 83, "dateTime": 1512869584152, "trialdata": {"rt": -1, "stimulus": "<p id=\"stim\">5</p>", "key_press": -1, "trial_type": "single-stim", "trial_index": 83, "time_elapsed": 802874, "internal_node_id": "0.0-60.0-5.0"}}, {"uniqueid": "MTK0900:3FK0YFF9P0N026N8FSBI2H0LQJMVVB", "current_trial": 84, "dateTime": 1512869585153, "trialdata": {"rt": -1, "stimulus": "<p id=\"stim\">4</p>", "key_press": -1, "trial_type": "single-stim", "trial_index": 84, "time_elapsed": 803875, "internal_node_id": "0.0-60.0-6.0"}}, {"uniqueid": "MTK0900:3FK0YFF9P0N026N8FSBI2H0LQJMVVB", "current_trial": 85, "dateTime": 1512869586154, "trialdata": {"rt": -1, "stimulus": "<p id=\"stim\">3</p>", "key_press": -1, "trial_type": "single-stim", "trial_index": 85, "time_elapsed": 804876, "internal_node_id": "0.0-60.0-7.0"}}, {"uniqueid": "MTK0900:3FK0YFF9P0N026N8FSBI2H0LQJMVVB", "current_trial": 86, "dateTime": 1512869587155, "trialdata": {"rt": -1, "stimulus": "<p id=\"stim\">2</p>", "key_press": -1, "trial_type": "single-stim", "trial_index": 86, "time_elapsed": 805877, "internal_node_id": "0.0-60.0-8.0"}}, {"uniqueid": "MTK0900:3FK0YFF9P0N026N8FSBI2H0LQJMVVB", "current_trial": 87, "dateTime": 1512869588157, "trialdata": {"rt": -1, "stimulus": "<p id=\"stim\">1</p>", "key_press": -1, "trial_type": "single-stim", "trial_index": 87, "time_elapsed": 806879, "internal_node_id": "0.0-60.0-9.0"}}, {"uniqueid": "MTK0900:3FK0YFF9P0N026N8FSBI2H0LQJMVVB", "current_trial": 88, "dateTime": 1512869589657, "trialdata": {"rt": -1, "stimulus": "<p id=\"stim\">+</p>", "key_press": -1, "type": "FIXATION", "trial_type": "single-stim", "trial_index": 88, "time_elapsed": 808379, "internal_node_id": "0.0-61.0-0.0"}}, {"uniqueid": "MTK0900:3FK0YFF9P0N026N8FSBI2H0LQJMVVB", "current_trial": 89, "dateTime": 1512869591259, "trialdata": {"rt": -1, "stimulus": "<p id=\"stim\">TURKEY</p>", "key_press": -1, "type": "PRES_VIS", "word": "turkey", "wordID": 1519, "conditions": [12, 1600, "v", 24000], "trial": 2, "serialpos": 0, "trial_type": "single-stim", "trial_index": 89, "time_elapsed": 809981, "internal_node_id": "0.0-62.0"}}, {"uniqueid": "MTK0900:3FK0YFF9P0N026N8FSBI2H0LQJMVVB", "current_trial": 90, "dateTime": 1512869593683, "trialdata": {"rt": -1, "stimulus": "<p id=\"stim\">PLAYGROUND</p>", "key_press": -1, "type": "PRES_VIS", "word": "playground", "wordID": 1086, "conditions": [12, 1600, "v", 24000], "trial": 2, "serialpos": 1, "trial_type": "single-stim", "trial_index": 90, "time_elapsed": 812405, "internal_node_id": "0.0-63.0"}}, {"uniqueid": "MTK0900:3FK0YFF9P0N026N8FSBI2H0LQJMVVB", "current_trial": 91, "dateTime": 1512869596273, "trialdata": {"rt": -1, "stimulus": "<p id=\"stim\">DENTIST</p>", "key_press": -1, "type": "PRES_VIS", "word": "dentist", "wordID": 446, "conditions": [12, 1600, "v", 24000], "trial": 2, "serialpos": 2, "trial_type": "single-stim", "trial_index": 91, "time_elapsed": 814995, "internal_node_id": "0.0-64.0"}}, {"uniqueid": "MTK0900:3FK0YFF9P0N026N8FSBI2H0LQJMVVB", "current_trial": 92, "dateTime": 1512869598892, "trialdata": {"rt": -1, "stimulus": "<p id=\"stim\">DANDRUFF</p>", "key_press": -1, "type": "PRES_VIS", "word": "dandruff", "wordID": 438, "conditions": [12, 1600, "v", 24000], "trial": 2, "serialpos": 3, "trial_type": "single-stim", "trial_index": 92, "time_elapsed": 817614, "internal_node_id": "0.0-65.0"}}, {"uniqueid": "MTK0900:3FK0YFF9P0N026N8FSBI2H0LQJMVVB", "current_trial": 93, "dateTime": 1512869601516, "trialdata": {"rt": -1, "stimulus": "<p id=\"stim\">WARDROBE</p>", "key_press": -1, "type": "PRES_VIS", "word": "wardrobe", "wordID": 1586, "conditions": [12, 1600, "v", 24000], "trial": 2, "serialpos": 4, "trial_type": "single-stim", "trial_index": 93, "time_elapsed": 820238, "internal_node_id": "0.0-66.0"}}, {"uniqueid": "MTK0900:3FK0YFF9P0N026N8FSBI2H0LQJMVVB", "current_trial": 94, "dateTime": 1512869604158, "trialdata": {"rt": -1, "stimulus": "<p id=\"stim\">JUGGLER</p>", "key_press": -1, "type": "PRES_VIS", "word": "juggler", "wordID": 762, "conditions": [12, 1600, "v", 24000], "trial": 2, "serialpos": 5, "trial_type": "single-stim", "trial_index": 94, "time_elapsed": 822880, "internal_node_id": "0.0-67.0"}}, {"uniqueid": "MTK0900:3FK0YFF9P0N026N8FSBI2H0LQJMVVB", "current_trial": 95, "dateTime": 1512869606908, "trialdata": {"rt": -1, "stimulus": "<p id=\"stim\">MUSTARD</p>", "key_press": -1, "type": "PRES_VIS", "word": "mustard", "wordID": 934, "conditions": [12, 1600, "v", 24000], "trial": 2, "serialpos": 6, "trial_type": "single-stim", "trial_index": 95, "time_elapsed": 825630, "internal_node_id": "0.0-68.0"}}, {"uniqueid": "MTK0900:3FK0YFF9P0N026N8FSBI2H0LQJMVVB", "current_trial": 96, "dateTime": 1512869609506, "trialdata": {"rt": -1, "stimulus": "<p id=\"stim\">HIKER</p>", "key_press": -1, "type": "PRES_VIS", "word": "hiker", "wordID": 707, "conditions": [12, 1600, "v", 24000], "trial": 2, "serialpos": 7, "trial_type": "single-stim", "trial_index": 96, "time_elapsed": 828228, "internal_node_id": "0.0-69.0"}}, {"uniqueid": "MTK0900:3FK0YFF9P0N026N8FSBI2H0LQJMVVB", "current_trial": 97, "dateTime": 1512869612058, "trialdata": {"rt": -1, "stimulus": "<p id=\"stim\">CLIMBER</p>", "key_press": -1, "type": "PRES_VIS", "word": "climber", "wordID": 322, "conditions": [12, 1600, "v", 24000], "trial": 2, "serialpos": 8, "trial_type": "single-stim", "trial_index": 97, "time_elapsed": 830780, "internal_node_id": "0.0-70.0"}}, {"uniqueid": "MTK0900:3FK0YFF9P0N026N8FSBI2H0LQJMVVB", "current_trial": 98, "dateTime": 1512869614477, "trialdata": {"rt": -1, "stimulus": "<p id=\"stim\">MARROW</p>", "key_press": -1, "type": "PRES_VIS", "word": "marrow", "wordID": 871, "conditions": [12, 1600, "v", 24000], "trial": 2, "serialpos": 9, "trial_type": "single-stim", "trial_index": 98, "time_elapsed": 833199, "internal_node_id": "0.0-71.0"}}, {"uniqueid": "MTK0900:3FK0YFF9P0N026N8FSBI2H0LQJMVVB", "current_trial": 99, "dateTime": 1512869617027, "trialdata": {"rt": -1, "stimulus": "<p id=\"stim\">QUAIL</p>", "key_press": -1, "type": "PRES_VIS", "word": "quail", "wordID": 1146, "conditions": [12, 1600, "v", 24000], "trial": 2, "serialpos": 10, "trial_type": "single-stim", "trial_index": 99, "time_elapsed": 835749, "internal_node_id": "0.0-72.0"}}, {"uniqueid": "MTK0900:3FK0YFF9P0N026N8FSBI2H0LQJMVVB", "current_trial": 100, "dateTime": 1512869619647, "trialdata": {"rt": -1, "stimulus": "<p id=\"stim\">OFFICE</p>", "key_press": -1, "type": "PRES_VIS", "word": "office", "wordID": 971, "conditions": [12, 1600, "v", 24000], "trial": 2, "serialpos": 11, "trial_type": "single-stim", "trial_index": 100, "time_elapsed": 838369, "internal_node_id": "0.0-73.0"}}, {"uniqueid": "MTK0900:3FK0YFF9P0N026N8FSBI2H0LQJMVVB", "current_trial": 101, "dateTime": 1512869622020, "trialdata": {"rt": -1, "stimulus": "", "key_press": -1, "type": "PRE_RECALL_DELAY", "trial_type": "single-stim", "trial_index": 101, "time_elapsed": 840742, "internal_node_id": "0.0-74.0-0.0"}}, {"uniqueid": "MTK0900:3FK0YFF9P0N026N8FSBI2H0LQJMVVB", "current_trial": 102, "dateTime": 1512869622533, "trialdata": {"rt": -1000, "stimulus": "/static/audio/400Hz.wav", "key_press": -1, "type": "PRE_RECALL_ALERT", "trial_type": "single-audio", "trial_index": 102, "time_elapsed": 841255, "internal_node_id": "0.0-75.0"}}, {"uniqueid": "MTK0900:3FK0YFF9P0N026N8FSBI2H0LQJMVVB", "current_trial": 103, "dateTime": 1512869682537, "trialdata": {"rt": [3961, 7305, 11273, 27289, 46361], "recwords": ["office", "quail", "widow", "window", "shopping"], "type": "FREE_RECALL", "conditions": [12, 1600, "v", 24000], "trial": 2, "trial_type": "free-recall", "trial_index": 103, "time_elapsed": 901258, "internal_node_id": "0.0-76.0-0.0"}}, {"uniqueid": "MTK0900:3FK0YFF9P0N026N8FSBI2H0LQJMVVB", "current_trial": 104, "dateTime": 1512869689447, "trialdata": {"rt": 4907, "key_press": 32, "type": "INSTRUCTIONS", "trial_type": "text", "trial_index": 104, "time_elapsed": 908169, "internal_node_id": "0.0-77.0"}}, {"uniqueid": "MTK0900:3FK0YFF9P0N026N8FSBI2H0LQJMVVB", "current_trial": 105, "dateTime": 1512869715450, "trialdata": {"rt": [4015, 6774, 8911, 12464, 14071, 15871, 17863, 20494, 23334], "responses": ["21", "23", "23", "24", "10", "16", "11", "10", "18"], "num1": [9, 6, 7, 9, 1, 9, 5, 3, 2, 1], "num2": [6, 9, 8, 6, 4, 4, 3, 3, 9, 2], "num3": [6, 8, 8, 9, 5, 3, 3, 4, 7, 4], "type": "DISTRACTOR", "conditions": [24, 1600, "a", 24000], "trial": 3, "trial_type": "math-distractor", "trial_index": 105, "time_elapsed": 934172, "internal_node_id": "0.0-78.0"}}, {"uniqueid": "MTK0900:3FK0YFF9P0N026N8FSBI2H0LQJMVVB", "current_trial": 106, "dateTime": 1512869718452, "trialdata": {"rt": -1, "stimulus": "<p id=\"stim\">10</p>", "key_press": -1, "trial_type": "single-stim", "trial_index": 106, "time_elapsed": 937174, "internal_node_id": "0.0-79.0-0.0"}}, {"uniqueid": "MTK0900:3FK0YFF9P0N026N8FSBI2H0LQJMVVB", "current_trial": 107, "dateTime": 1512869719453, "trialdata": {"rt": -1, "stimulus": "<p id=\"stim\">9</p>", "key_press": -1, "trial_type": "single-stim", "trial_index": 107, "time_elapsed": 938175, "internal_node_id": "0.0-79.0-1.0"}}, {"uniqueid": "MTK0900:3FK0YFF9P0N026N8FSBI2H0LQJMVVB", "current_trial": 108, "dateTime": 1512869720455, "trialdata": {"rt": -1, "stimulus": "<p id=\"stim\">8</p>", "key_press": -1, "trial_type": "single-stim", "trial_index": 108, "time_elapsed": 939177, "internal_node_id": "0.0-79.0-2.0"}}, {"uniqueid": "MTK0900:3FK0YFF9P0N026N8FSBI2H0LQJMVVB", "current_trial": 109, "dateTime": 1512869721456, "trialdata": {"rt": -1, "stimulus": "<p id=\"stim\">7</p>", "key_press": -1, "trial_type": "single-stim", "trial_index": 109, "time_elapsed": 940178, "internal_node_id": "0.0-79.0-3.0"}}, {"uniqueid": "MTK0900:3FK0YFF9P0N026N8FSBI2H0LQJMVVB", "current_trial": 110, "dateTime": 1512869722457, "trialdata": {"rt": -1, "stimulus": "<p id=\"stim\">6</p>", "key_press": -1, "trial_type": "single-stim", "trial_index": 110, "time_elapsed": 941179, "internal_node_id": "0.0-79.0-4.0"}}, {"uniqueid": "MTK0900:3FK0YFF9P0N026N8FSBI2H0LQJMVVB", "current_trial": 111, "dateTime": 1512869723458, "trialdata": {"rt": -1, "stimulus": "<p id=\"stim\">5</p>", "key_press": -1, "trial_type": "single-stim", "trial_index": 111, "time_elapsed": 942180, "internal_node_id": "0.0-79.0-5.0"}}, {"uniqueid": "MTK0900:3FK0YFF9P0N026N8FSBI2H0LQJMVVB", "current_trial": 112, "dateTime": 1512869724460, "trialdata": {"rt": -1, "stimulus": "<p id=\"stim\">4</p>", "key_press": -1, "trial_type": "single-stim", "trial_index": 112, "time_elapsed": 943182, "internal_node_id": "0.0-79.0-6.0"}}, {"uniqueid": "MTK0900:3FK0YFF9P0N026N8FSBI2H0LQJMVVB", "current_trial": 113, "dateTime": 1512869725461, "trialdata": {"rt": -1, "stimulus": "<p id=\"stim\">3</p>", "key_press": -1, "trial_type": "single-stim", "trial_index": 113, "time_elapsed": 944183, "internal_node_id": "0.0-79.0-7.0"}}, {"uniqueid": "MTK0900:3FK0YFF9P0N026N8FSBI2H0LQJMVVB", "current_trial": 114, "dateTime": 1512869726462, "trialdata": {"rt": -1, "stimulus": "<p id=\"stim\">2</p>", "key_press": -1, "trial_type": "single-stim", "trial_index": 114, "time_elapsed": 945184, "internal_node_id": "0.0-79.0-8.0"}}, {"uniqueid": "MTK0900:3FK0YFF9P0N026N8FSBI2H0LQJMVVB", "current_trial": 115, "dateTime": 1512869727464, "trialdata": {"rt": -1, "stimulus": "<p id=\"stim\">1</p>", "key_press": -1, "trial_type": "single-stim", "trial_index": 115, "time_elapsed": 946186, "internal_node_id": "0.0-79.0-9.0"}}, {"uniqueid": "MTK0900:3FK0YFF9P0N026N8FSBI2H0LQJMVVB", "current_trial": 116, "dateTime": 1512869728965, "trialdata": {"rt": -1, "stimulus": "<p id=\"stim\">+</p>", "key_press": -1, "type": "FIXATION", "trial_type": "single-stim", "trial_index": 116, "time_elapsed": 947687, "internal_node_id": "0.0-80.0-0.0"}}, {"uniqueid": "MTK0900:3FK0YFF9P0N026N8FSBI2H0LQJMVVB", "current_trial": 117, "dateTime": 1512869731456, "trialdata": {"rt": -1000, "stimulus": "/static/audio/wordpool/MISTER.wav", "key_press": -1, "type": "PRES_AUD", "word": "mister", "wordID": 900, "conditions": [24, 1600, "a", 24000], "trial": 3, "serialpos": 0, "trial_type": "single-audio", "trial_index": 117, "time_elapsed": 950177, "internal_node_id": "0.0-81.0"}}, {"uniqueid": "MTK0900:3FK0YFF9P0N026N8FSBI2H0LQJMVVB", "current_trial": 118, "dateTime": 1512869734222, "trialdata": {"rt": -1000, "stimulus": "/static/audio/wordpool/DENIM.wav", "key_press": -1, "type": "PRES_AUD", "word": "denim", "wordID": 445, "conditions": [24, 1600, "a", 24000], "trial": 3, "serialpos": 1, "trial_type": "single-audio", "trial_index": 118, "time_elapsed": 952944, "internal_node_id": "0.0-82.0"}}, {"uniqueid": "MTK0900:3FK0YFF9P0N026N8FSBI2H0LQJMVVB", "current_trial": 119, "dateTime": 1512869736862, "trialdata": {"rt": -1000, "stimulus": "/static/audio/wordpool/OUTFIT.wav", "key_press": -1, "type": "PRES_AUD", "word": "outfit", "wordID": 987, "conditions": [24, 1600, "a", 24000], "trial": 3, "serialpos": 2, "trial_type": "single-audio", "trial_index": 119, "time_elapsed": 955584, "internal_node_id": "0.0-83.0"}}, {"uniqueid": "MTK0900:3FK0YFF9P0N026N8FSBI2H0LQJMVVB", "current_trial": 120, "dateTime": 1512869739493, "trialdata": {"rt": -1000, "stimulus": "/static/audio/wordpool/BROOK.wav", "key_press": -1, "type": "PRES_AUD", "word": "brook", "wordID": 176, "conditions": [24, 1600, "a", 24000], "trial": 3, "serialpos": 3, "trial_type": "single-audio", "trial_index": 120, "time_elapsed": 958214, "internal_node_id": "0.0-84.0"}}, {"uniqueid": "MTK0900:3FK0YFF9P0N026N8FSBI2H0LQJMVVB", "current_trial": 121, "dateTime": 1512869742187, "trialdata": {"rt": -1000, "stimulus": "/static/audio/wordpool/ITEM.wav", "key_press": -1, "type": "PRES_AUD", "word": "item", "wordID": 745, "conditions": [24, 1600, "a", 24000], "trial": 3, "serialpos": 4, "trial_type": "single-audio", "trial_index": 121, "time_elapsed": 960909, "internal_node_id": "0.0-85.0"}}, {"uniqueid": "MTK0900:3FK0YFF9P0N026N8FSBI2H0LQJMVVB", "current_trial": 122, "dateTime": 1512869744757, "trialdata": {"rt": -1000, "stimulus": "/static/audio/wordpool/FIREPLACE.wav", "key_press": -1, "type": "PRES_AUD", "word": "fireplace", "wordID": 569, "conditions": [24, 1600, "a", 24000], "trial": 3, "serialpos": 5, "trial_type": "single-audio", "trial_index": 122, "time_elapsed": 963479, "internal_node_id": "0.0-86.0"}}, {"uniqueid": "MTK0900:3FK0YFF9P0N026N8FSBI2H0LQJMVVB", "current_trial": 123, "dateTime": 1512869747406, "trialdata": {"rt": -1000, "stimulus": "/static/audio/wordpool/RIVER.wav", "key_press": -1, "type": "PRES_AUD", "word": "river", "wordID": 1193, "conditions": [24, 1600, "a", 24000], "trial": 3, "serialpos": 6, "trial_type": "single-audio", "trial_index": 123, "time_elapsed": 966128, "internal_node_id": "0.0-87.0"}}, {"uniqueid": "MTK0900:3FK0YFF9P0N026N8FSBI2H0LQJMVVB", "current_trial": 124, "dateTime": 1512869749990, "trialdata": {"rt": -1000, "stimulus": "/static/audio/wordpool/CARRIAGE.wav", "key_press": -1, "type": "PRES_AUD", "word": "carriage", "wordID": 247, "conditions": [24, 1600, "a", 24000], "trial": 3, "serialpos": 7, "trial_type": "single-audio", "trial_index": 124, "time_elapsed": 968712, "internal_node_id": "0.0-88.0"}}, {"uniqueid": "MTK0900:3FK0YFF9P0N026N8FSBI2H0LQJMVVB", "current_trial": 125, "dateTime": 1512869752573, "trialdata": {"rt": -1000, "stimulus": "/static/audio/wordpool/STOVE.wav", "key_press": -1, "type": "PRES_AUD", "word": "stove", "wordID": 1387, "conditions": [24, 1600, "a", 24000], "trial": 3, "serialpos": 8, "trial_type": "single-audio", "trial_index": 125, "time_elapsed": 971295, "internal_node_id": "0.0-89.0"}}, {"uniqueid": "MTK0900:3FK0YFF9P0N026N8FSBI2H0LQJMVVB", "current_trial": 126, "dateTime": 1512869755049, "trialdata": {"rt": -1000, "stimulus": "/static/audio/wordpool/CASHIER.wav", "key_press": -1, "type": "PRES_AUD", "word": "cashier", "wordID": 253, "conditions": [24, 1600, "a", 24000], "trial": 3, "serialpos": 9, "trial_type": "single-audio", "trial_index": 126, "time_elapsed": 973770, "internal_node_id": "0.0-90.0"}}, {"uniqueid": "MTK0900:3FK0YFF9P0N026N8FSBI2H0LQJMVVB", "current_trial": 127, "dateTime": 1512869757615, "trialdata": {"rt": -1000, "stimulus": "/static/audio/wordpool/ROBBER.wav", "key_press": -1, "type": "PRES_AUD", "word": "robber", "wordID": 1196, "conditions": [24, 1600, "a", 24000], "trial": 3, "serialpos": 10, "trial_type": "single-audio", "trial_index": 127, "time_elapsed": 976337, "internal_node_id": "0.0-91.0"}}, {"uniqueid": "MTK0900:3FK0YFF9P0N026N8FSBI2H0LQJMVVB", "current_trial": 128, "dateTime": 1512869760032, "trialdata": {"rt": -1000, "stimulus": "/static/audio/wordpool/MATTRESS.wav", "key_press": -1, "type": "PRES_AUD", "word": "mattress", "wordID": 878, "conditions": [24, 1600, "a", 24000], "trial": 3, "serialpos": 11, "trial_type": "single-audio", "trial_index": 128, "time_elapsed": 978753, "internal_node_id": "0.0-92.0"}}, {"uniqueid": "MTK0900:3FK0YFF9P0N026N8FSBI2H0LQJMVVB", "current_trial": 129, "dateTime": 1512869762761, "trialdata": {"rt": -1000, "stimulus": "/static/audio/wordpool/BARLEY.wav", "key_press": -1, "type": "PRES_AUD", "word": "barley", "wordID": 87, "conditions": [24, 1600, "a", 24000], "trial": 3, "serialpos": 12, "trial_type": "single-audio", "trial_index": 129, "time_elapsed": 981483, "internal_node_id": "0.0-93.0"}}, {"uniqueid": "MTK0900:3FK0YFF9P0N026N8FSBI2H0LQJMVVB", "current_trial": 130, "dateTime": 1512869765430, "trialdata": {"rt": -1000, "stimulus": "/static/audio/wordpool/MARINE.wav", "key_press": -1, "type": "PRES_AUD", "word": "marine", "wordID": 868, "conditions": [24, 1600, "a", 24000], "trial": 3, "serialpos": 13, "trial_type": "single-audio", "trial_index": 130, "time_elapsed": 984152, "internal_node_id": "0.0-94.0"}}, {"uniqueid": "MTK0900:3FK0YFF9P0N026N8FSBI2H0LQJMVVB", "current_trial": 131, "dateTime": 1512869768150, "trialdata": {"rt": -1000, "stimulus": "/static/audio/wordpool/WOMAN.wav", "key_press": -1, "type": "PRES_AUD", "word": "woman", "wordID": 1619, "conditions": [24, 1600, "a", 24000], "trial": 3, "serialpos": 14, "trial_type": "single-audio", "trial_index": 131, "time_elapsed": 986871, "internal_node_id": "0.0-95.0"}}, {"uniqueid": "MTK0900:3FK0YFF9P0N026N8FSBI2H0LQJMVVB", "current_trial": 132, "dateTime": 1512869770897, "trialdata": {"rt": -1000, "stimulus": "/static/audio/wordpool/DOLPHIN.wav", "key_press": -1, "type": "PRES_AUD", "word": "dolphin", "wordID": 482, "conditions": [24, 1600, "a", 24000], "trial": 3, "serialpos": 15, "trial_type": "single-audio", "trial_index": 132, "time_elapsed": 989619, "internal_node_id": "0.0-96.0"}}, {"uniqueid": "MTK0900:3FK0YFF9P0N026N8FSBI2H0LQJMVVB", "current_trial": 133, "dateTime": 1512869773476, "trialdata": {"rt": -1000, "stimulus": "/static/audio/wordpool/GRAPE.wav", "key_press": -1, "type": "PRES_AUD", "word": "grape", "wordID": 653, "conditions": [24, 1600, "a", 24000], "trial": 3, "serialpos": 16, "trial_type": "single-audio", "trial_index": 133, "time_elapsed": 992198, "internal_node_id": "0.0-97.0"}}, {"uniqueid": "MTK0900:3FK0YFF9P0N026N8FSBI2H0LQJMVVB", "current_trial": 134, "dateTime": 1512869775919, "trialdata": {"rt": -1000, "stimulus": "/static/audio/wordpool/SHIRT.wav", "key_press": -1, "type": "PRES_AUD", "word": "shirt", "wordID": 1286, "conditions": [24, 1600, "a", 24000], "trial": 3, "serialpos": 17, "trial_type": "single-audio", "trial_index": 134, "time_elapsed": 994641, "internal_node_id": "0.0-98.0"}}, {"uniqueid": "MTK0900:3FK0YFF9P0N026N8FSBI2H0LQJMVVB", "current_trial": 135, "dateTime": 1512869778638, "trialdata": {"rt": -1000, "stimulus": "/static/audio/wordpool/UMPIRE.wav", "key_press": -1, "type": "PRES_AUD", "word": "umpire", "wordID": 1534, "conditions": [24, 1600, "a", 24000], "trial": 3, "serialpos": 18, "trial_type": "single-audio", "trial_index": 135, "time_elapsed": 997360, "internal_node_id": "0.0-99.0"}}, {"uniqueid": "MTK0900:3FK0YFF9P0N026N8FSBI2H0LQJMVVB", "current_trial": 136, "dateTime": 1512869781421, "trialdata": {"rt": -1000, "stimulus": "/static/audio/wordpool/BOX.wav", "key_press": -1, "type": "PRES_AUD", "word": "box", "wordID": 158, "conditions": [24, 1600, "a", 24000], "trial": 3, "serialpos": 19, "trial_type": "single-audio", "trial_index": 136, "time_elapsed": 1000143, "internal_node_id": "0.0-100.0"}}, {"uniqueid": "MTK0900:3FK0YFF9P0N026N8FSBI2H0LQJMVVB", "current_trial": 137, "dateTime": 1512869784174, "trialdata": {"rt": -1000, "stimulus": "/static/audio/wordpool/MOTOR.wav", "key_press": -1, "type": "PRES_AUD", "word": "motor", "wordID": 921, "conditions": [24, 1600, "a", 24000], "trial": 3, "serialpos": 20, "trial_type": "single-audio", "trial_index": 137, "time_elapsed": 1002895, "internal_node_id": "0.0-101.0"}}, {"uniqueid": "MTK0900:3FK0YFF9P0N026N8FSBI2H0LQJMVVB", "current_trial": 138, "dateTime": 1512869786746, "trialdata": {"rt": -1000, "stimulus": "/static/audio/wordpool/SCARF.wav", "key_press": -1, "type": "PRES_AUD", "word": "scarf", "wordID": 1245, "conditions": [24, 1600, "a", 24000], "trial": 3, "serialpos": 21, "trial_type": "single-audio", "trial_index": 138, "time_elapsed": 1005468, "internal_node_id": "0.0-102.0"}}, {"uniqueid": "MTK0900:3FK0YFF9P0N026N8FSBI2H0LQJMVVB", "current_trial": 139, "dateTime": 1512869789517, "trialdata": {"rt": -1000, "stimulus": "/static/audio/wordpool/BLOUSE.wav", "key_press": -1, "type": "PRES_AUD", "word": "blouse", "wordID": 138, "conditions": [24, 1600, "a", 24000], "trial": 3, "serialpos": 22, "trial_type": "single-audio", "trial_index": 139, "time_elapsed": 1008239, "internal_node_id": "0.0-103.0"}}, {"uniqueid": "MTK0900:3FK0YFF9P0N026N8FSBI2H0LQJMVVB", "current_trial": 140, "dateTime": 1512869792315, "trialdata": {"rt": -1000, "stimulus": "/static/audio/wordpool/DUSTPAN.wav", "key_press": -1, "type": "PRES_AUD", "word": "dustpan", "wordID": 508, "conditions": [24, 1600, "a", 24000], "trial": 3, "serialpos": 23, "trial_type": "single-audio", "trial_index": 140, "time_elapsed": 1011037, "internal_node_id": "0.0-104.0"}}, {"uniqueid": "MTK0900:3FK0YFF9P0N026N8FSBI2H0LQJMVVB", "current_trial": 141, "dateTime": 1512869793637, "trialdata": {"rt": -1, "stimulus": "", "key_press": -1, "type": "PRE_RECALL_DELAY", "trial_type": "single-stim", "trial_index": 141, "time_elapsed": 1012358, "internal_node_id": "0.0-105.0-0.0"}}, {"uniqueid": "MTK0900:3FK0YFF9P0N026N8FSBI2H0LQJMVVB", "current_trial": 142, "dateTime": 1512869794142, "trialdata": {"rt": -1000, "stimulus": "/static/audio/400Hz.wav", "key_press": -1, "type": "PRE_RECALL_ALERT", "trial_type": "single-audio", "trial_index": 142, "time_elapsed": 1012864, "internal_node_id": "0.0-106.0"}}, {"uniqueid": "MTK0900:3FK0YFF9P0N026N8FSBI2H0LQJMVVB", "current_trial": 143, "dateTime": 1512869854145, "trialdata": {"rt": [5319, 6751, 8399, 10719, 12519, 14175, 23007, 27543, 39422], "recwords": ["dustpan", "mister", "denim", "cashier", "robber", "woman", "broke", "dustpan", "river"], "type": "FREE_RECALL", "conditions": [24, 1600, "a", 24000], "trial": 3, "trial_type": "free-recall", "trial_index": 143, "time_elapsed": 1072865, "internal_node_id": "0.0-107.0-0.0"}}, {"uniqueid": "MTK0900:3FK0YFF9P0N026N8FSBI2H0LQJMVVB", "current_trial": 144, "dateTime": 1512869857517, "trialdata": {"rt": 1371, "key_press": 32, "type": "INSTRUCTIONS", "trial_type": "text", "trial_index": 144, "time_elapsed": 1076239, "internal_node_id": "0.0-108.0"}}, {"uniqueid": "MTK0900:3FK0YFF9P0N026N8FSBI2H0LQJMVVB", "current_trial": 145, "dateTime": 1512869883520, "trialdata": {"rt": [2540, 4301, 6581, 7942, 9692, 11860, 15277, 17516, 19157, 21277, 23916], "responses": ["11", "23", "11", "13", "10", "14", "24", "17", "5", "12", "8"], "num1": [8, 5, 5, 3, 4, 2, 9, 2, 1, 4, 4, 5], "num2": [2, 7, 4, 7, 3, 4, 8, 9, 3, 5, 3, 1], "num3": [1, 7, 2, 3, 3, 8, 7, 6, 1, 3, 1, 3], "type": "DISTRACTOR", "conditions": [12, 800, "a", 24000], "trial": 4, "trial_type": "math-distractor", "trial_index": 145, "time_elapsed": 1102242, "internal_node_id": "0.0-109.0"}}, {"uniqueid": "MTK0900:3FK0YFF9P0N026N8FSBI2H0LQJMVVB", "current_trial": 146, "dateTime": 1512869886522, "trialdata": {"rt": -1, "stimulus": "<p id=\"stim\">10</p>", "key_press": -1, "trial_type": "single-stim", "trial_index": 146, "time_elapsed": 1105244, "internal_node_id": "0.0-110.0-0.0"}}, {"uniqueid": "MTK0900:3FK0YFF9P0N026N8FSBI2H0LQJMVVB", "current_trial": 147, "dateTime": 1512869887524, "trialdata": {"rt": -1, "stimulus": "<p id=\"stim\">9</p>", "key_press": -1, "trial_type": "single-stim", "trial_index": 147, "time_elapsed": 1106246, "internal_node_id": "0.0-110.0-1.0"}}, {"uniqueid": "MTK0900:3FK0YFF9P0N026N8FSBI2H0LQJMVVB", "current_trial": 148, "dateTime": 1512869888525, "trialdata": {"rt": -1, "stimulus": "<p id=\"stim\">8</p>", "key_press": -1, "trial_type": "single-stim", "trial_index": 148, "time_elapsed": 1107247, "internal_node_id": "0.0-110.0-2.0"}}, {"uniqueid": "MTK0900:3FK0YFF9P0N026N8FSBI2H0LQJMVVB", "current_trial": 149, "dateTime": 1512869889526, "trialdata": {"rt": -1, "stimulus": "<p id=\"stim\">7</p>", "key_press": -1, "trial_type": "single-stim", "trial_index": 149, "time_elapsed": 1108248, "internal_node_id": "0.0-110.0-3.0"}}, {"uniqueid": "MTK0900:3FK0YFF9P0N026N8FSBI2H0LQJMVVB", "current_trial": 150, "dateTime": 1512869890527, "trialdata": {"rt": -1, "stimulus": "<p id=\"stim\">6</p>", "key_press": -1, "trial_type": "single-stim", "trial_index": 150, "time_elapsed": 1109249, "internal_node_id": "0.0-110.0-4.0"}}, {"uniqueid": "MTK0900:3FK0YFF9P0N026N8FSBI2H0LQJMVVB", "current_trial": 151, "dateTime": 1512869891528, "trialdata": {"rt": -1, "stimulus": "<p id=\"stim\">5</p>", "key_press": -1, "trial_type": "single-stim", "trial_index": 151, "time_elapsed": 1110250, "internal_node_id": "0.0-110.0-5.0"}}, {"uniqueid": "MTK0900:3FK0YFF9P0N026N8FSBI2H0LQJMVVB", "current_trial": 152, "dateTime": 1512869892530, "trialdata": {"rt": -1, "stimulus": "<p id=\"stim\">4</p>", "key_press": -1, "trial_type": "single-stim", "trial_index": 152, "time_elapsed": 1111252, "internal_node_id": "0.0-110.0-6.0"}}, {"uniqueid": "MTK0900:3FK0YFF9P0N026N8FSBI2H0LQJMVVB", "current_trial": 153, "dateTime": 1512869893532, "trialdata": {"rt": -1, "stimulus": "<p id=\"stim\">3</p>", "key_press": -1, "trial_type": "single-stim", "trial_index": 153, "time_elapsed": 1112254, "internal_node_id": "0.0-110.0-7.0"}}, {"uniqueid": "MTK0900:3FK0YFF9P0N026N8FSBI2H0LQJMVVB", "current_trial": 154, "dateTime": 1512869894533, "trialdata": {"rt": -1, "stimulus": "<p id=\"stim\">2</p>", "key_press": -1, "trial_type": "single-stim", "trial_index": 154, "time_elapsed": 1113255, "internal_node_id": "0.0-110.0-8.0"}}, {"uniqueid": "MTK0900:3FK0YFF9P0N026N8FSBI2H0LQJMVVB", "current_trial": 155, "dateTime": 1512869895534, "trialdata": {"rt": -1, "stimulus": "<p id=\"stim\">1</p>", "key_press": -1, "trial_type": "single-stim", "trial_index": 155, "time_elapsed": 1114256, "internal_node_id": "0.0-110.0-9.0"}}, {"uniqueid": "MTK0900:3FK0YFF9P0N026N8FSBI2H0LQJMVVB", "current_trial": 156, "dateTime": 1512869897036, "trialdata": {"rt": -1, "stimulus": "<p id=\"stim\">+</p>", "key_press": -1, "type": "FIXATION", "trial_type": "single-stim", "trial_index": 156, "time_elapsed": 1115758, "internal_node_id": "0.0-111.0-0.0"}}, {"uniqueid": "MTK0900:3FK0YFF9P0N026N8FSBI2H0LQJMVVB", "current_trial": 157, "dateTime": 1512869898963, "trialdata": {"rt": -1000, "stimulus": "/static/audio/wordpool/ZEBRA.wav", "key_press": -1, "type": "PRES_AUD", "word": "zebra", "wordID": 1634, "conditions": [12, 800, "a", 24000], "trial": 4, "serialpos": 0, "trial_type": "single-audio", "trial_index": 157, "time_elapsed": 1117685, "internal_node_id": "0.0-112.0"}}, {"uniqueid": "MTK0900:3FK0YFF9P0N026N8FSBI2H0LQJMVVB", "current_trial": 158, "dateTime": 1512869900880, "trialdata": {"rt": -1000, "stimulus": "/static/audio/wordpool/PANTHER.wav", "key_press": -1, "type": "PRES_AUD", "word": "panther", "wordID": 1008, "conditions": [12, 800, "a", 24000], "trial": 4, "serialpos": 1, "trial_type": "single-audio", "trial_index": 158, "time_elapsed": 1119601, "internal_node_id": "0.0-113.0"}}, {"uniqueid": "MTK0900:3FK0YFF9P0N026N8FSBI2H0LQJMVVB", "current_trial": 159, "dateTime": 1512869902665, "trialdata": {"rt": -1000, "stimulus": "/static/audio/wordpool/CANAL.wav", "key_press": -1, "type": "PRES_AUD", "word": "canal", "wordID": 225, "conditions": [12, 800, "a", 24000], "trial": 4, "serialpos": 2, "trial_type": "single-audio", "trial_index": 159, "time_elapsed": 1121386, "internal_node_id": "0.0-114.0"}}, {"uniqueid": "MTK0900:3FK0YFF9P0N026N8FSBI2H0LQJMVVB", "current_trial": 160, "dateTime": 1512869904384, "trialdata": {"rt": -1000, "stimulus": "/static/audio/wordpool/TABLET.wav", "key_press": -1, "type": "PRES_AUD", "word": "tablet", "wordID": 1426, "conditions": [12, 800, "a", 24000], "trial": 4, "serialpos": 3, "trial_type": "single-audio", "trial_index": 160, "time_elapsed": 1123104, "internal_node_id": "0.0-115.0"}}, {"uniqueid": "MTK0900:3FK0YFF9P0N026N8FSBI2H0LQJMVVB", "current_trial": 161, "dateTime": 1512869906369, "trialdata": {"rt": -1000, "stimulus": "/static/audio/wordpool/PIMPLE.wav", "key_press": -1, "type": "PRES_AUD", "word": "pimple", "wordID": 1070, "conditions": [12, 800, "a", 24000], "trial": 4, "serialpos": 4, "trial_type": "single-audio", "trial_index": 161, "time_elapsed": 1125091, "internal_node_id": "0.0-116.0"}}, {"uniqueid": "MTK0900:3FK0YFF9P0N026N8FSBI2H0LQJMVVB", "current_trial": 162, "dateTime": 1512869908299, "trialdata": {"rt": -1000, "stimulus": "/static/audio/wordpool/PECAN.wav", "key_press": -1, "type": "PRES_AUD", "word": "pecan", "wordID": 1035, "conditions": [12, 800, "a", 24000], "trial": 4, "serialpos": 5, "trial_type": "single-audio", "trial_index": 162, "time_elapsed": 1127021, "internal_node_id": "0.0-117.0"}}, {"uniqueid": "MTK0900:3FK0YFF9P0N026N8FSBI2H0LQJMVVB", "current_trial": 163, "dateTime": 1512869909918, "trialdata": {"rt": -1000, "stimulus": "/static/audio/wordpool/CRAB.wav", "key_press": -1, "type": "PRES_AUD", "word": "crab", "wordID": 396, "conditions": [12, 800, "a", 24000], "trial": 4, "serialpos": 6, "trial_type": "single-audio", "trial_index": 163, "time_elapsed": 1128640, "internal_node_id": "0.0-118.0"}}, {"uniqueid": "MTK0900:3FK0YFF9P0N026N8FSBI2H0LQJMVVB", "current_trial": 164, "dateTime": 1512869911635, "trialdata": {"rt": -1000, "stimulus": "/static/audio/wordpool/RECORD.wav", "key_press": -1, "type": "PRES_AUD", "word": "record", "wordID": 1175, "conditions": [12, 800, "a", 24000], "trial": 4, "serialpos": 7, "trial_type": "single-audio", "trial_index": 164, "time_elapsed": 1130357, "internal_node_id": "0.0-119.0"}}, {"uniqueid": "MTK0900:3FK0YFF9P0N026N8FSBI2H0LQJMVVB", "current_trial": 165, "dateTime": 1512869913301, "trialdata": {"rt": -1000, "stimulus": "/static/audio/wordpool/PEACH.wav", "key_press": -1, "type": "PRES_AUD", "word": "peach", "wordID": 1030, "conditions": [12, 800, "a", 24000], "trial": 4, "serialpos": 8, "trial_type": "single-audio", "trial_index": 165, "time_elapsed": 1132023, "internal_node_id": "0.0-120.0"}}, {"uniqueid": "MTK0900:3FK0YFF9P0N026N8FSBI2H0LQJMVVB", "current_trial": 166, "dateTime": 1512869915000, "trialdata": {"rt": -1000, "stimulus": "/static/audio/wordpool/SILK.wav", "key_press": -1, "type": "PRES_AUD", "word": "silk", "wordID": 1306, "conditions": [12, 800, "a", 24000], "trial": 4, "serialpos": 9, "trial_type": "single-audio", "trial_index": 166, "time_elapsed": 1133722, "internal_node_id": "0.0-121.0"}}, {"uniqueid": "MTK0900:3FK0YFF9P0N026N8FSBI2H0LQJMVVB", "current_trial": 167, "dateTime": 1512869916936, "trialdata": {"rt": -1000, "stimulus": "/static/audio/wordpool/VAGRANT.wav", "key_press": -1, "type": "PRES_AUD", "word": "vagrant", "wordID": 1543, "conditions": [12, 800, "a", 24000], "trial": 4, "serialpos": 10, "trial_type": "single-audio", "trial_index": 167, "time_elapsed": 1135658, "internal_node_id": "0.0-122.0"}}, {"uniqueid": "MTK0900:3FK0YFF9P0N026N8FSBI2H0LQJMVVB", "current_trial": 168, "dateTime": 1512869918812, "trialdata": {"rt": -1000, "stimulus": "/static/audio/wordpool/CAPTIVE.wav", "key_press": -1, "type": "PRES_AUD", "word": "captive", "wordID": 239, "conditions": [12, 800, "a", 24000], "trial": 4, "serialpos": 11, "trial_type": "single-audio", "trial_index": 168, "time_elapsed": 1137533, "internal_node_id": "0.0-123.0"}}, {"uniqueid": "MTK0900:3FK0YFF9P0N026N8FSBI2H0LQJMVVB", "current_trial": 169, "dateTime": 1512869920168, "trialdata": {"rt": -1, "stimulus": "", "key_press": -1, "type": "PRE_RECALL_DELAY", "trial_type": "single-stim", "trial_index": 169, "time_elapsed": 1138890, "internal_node_id": "0.0-124.0-0.0"}}, {"uniqueid": "MTK0900:3FK0YFF9P0N026N8FSBI2H0LQJMVVB", "current_trial": 170, "dateTime": 1512869920673, "trialdata": {"rt": -1000, "stimulus": "/static/audio/400Hz.wav", "key_press": -1, "type": "PRE_RECALL_ALERT", "trial_type": "single-audio", "trial_index": 170, "time_elapsed": 1139395, "internal_node_id": "0.0-125.0"}}, {"uniqueid": "MTK0900:3FK0YFF9P0N026N8FSBI2H0LQJMVVB", "current_trial": 171, "dateTime": 1512869980678, "trialdata": {"rt": [3457, 5537, 8282, 12210, 17529, 23337, 25073], "recwords": ["zebra", "captive", "pimple", "pecan", "vagrant", "tablet", "couch"], "type": "FREE_RECALL", "conditions": [12, 800, "a", 24000], "trial": 4, "trial_type": "free-recall", "trial_index": 171, "time_elapsed": 1199396, "internal_node_id": "0.0-126.0-0.0"}}, {"uniqueid": "MTK0900:3FK0YFF9P0N026N8FSBI2H0LQJMVVB", "current_trial": 172, "dateTime": 1512869987756, "trialdata": {"rt": 5076, "key_press": 32, "type": "INSTRUCTIONS", "trial_type": "text", "trial_index": 172, "time_elapsed": 1206478, "internal_node_id": "0.0-127.0"}}, {"uniqueid": "MTK0900:3FK0YFF9P0N026N8FSBI2H0LQJMVVB", "current_trial": 173, "dateTime": 1512870001759, "trialdata": {"rt": [1988, 4844, 7508, 10356], "responses": ["13", "23", "13", "17"], "num1": [4, 5, 9, 7, 4], "num2": [5, 9, 2, 4, 8], "num3": [4, 9, 2, 6, 7], "type": "DISTRACTOR", "conditions": [24, 800, "a", 12000], "trial": 5, "trial_type": "math-distractor", "trial_index": 173, "time_elapsed": 1220481, "internal_node_id": "0.0-128.0"}}, {"uniqueid": "MTK0900:3FK0YFF9P0N026N8FSBI2H0LQJMVVB", "current_trial": 174, "dateTime": 1512870004761, "trialdata": {"rt": -1, "stimulus": "<p id=\"stim\">10</p>", "key_press": -1, "trial_type": "single-stim", "trial_index": 174, "time_elapsed": 1223483, "internal_node_id": "0.0-129.0-0.0"}}, {"uniqueid": "MTK0900:3FK0YFF9P0N026N8FSBI2H0LQJMVVB", "current_trial": 175, "dateTime": 1512870005762, "trialdata": {"rt": -1, "stimulus": "<p id=\"stim\">9</p>", "key_press": -1, "trial_type": "single-stim", "trial_index": 175, "time_elapsed": 1224484, "internal_node_id": "0.0-129.0-1.0"}}, {"uniqueid": "MTK0900:3FK0YFF9P0N026N8FSBI2H0LQJMVVB", "current_trial": 176, "dateTime": 1512870006763, "trialdata": {"rt": -1, "stimulus": "<p id=\"stim\">8</p>", "key_press": -1, "trial_type": "single-stim", "trial_index": 176, "time_elapsed": 1225485, "internal_node_id": "0.0-129.0-2.0"}}, {"uniqueid": "MTK0900:3FK0YFF9P0N026N8FSBI2H0LQJMVVB", "current_trial": 177, "dateTime": 1512870007765, "trialdata": {"rt": -1, "stimulus": "<p id=\"stim\">7</p>", "key_press": -1, "trial_type": "single-stim", "trial_index": 177, "time_elapsed": 1226487, "internal_node_id": "0.0-129.0-3.0"}}, {"uniqueid": "MTK0900:3FK0YFF9P0N026N8FSBI2H0LQJMVVB", "current_trial": 178, "dateTime": 1512870008766, "trialdata": {"rt": -1, "stimulus": "<p id=\"stim\">6</p>", "key_press": -1, "trial_type": "single-stim", "trial_index": 178, "time_elapsed": 1227488, "internal_node_id": "0.0-129.0-4.0"}}, {"uniqueid": "MTK0900:3FK0YFF9P0N026N8FSBI2H0LQJMVVB", "current_trial": 179, "dateTime": 1512870009767, "trialdata": {"rt": -1, "stimulus": "<p id=\"stim\">5</p>", "key_press": -1, "trial_type": "single-stim", "trial_index": 179, "time_elapsed": 1228489, "internal_node_id": "0.0-129.0-5.0"}}, {"uniqueid": "MTK0900:3FK0YFF9P0N026N8FSBI2H0LQJMVVB", "current_trial": 180, "dateTime": 1512870010769, "trialdata": {"rt": -1, "stimulus": "<p id=\"stim\">4</p>", "key_press": -1, "trial_type": "single-stim", "trial_index": 180, "time_elapsed": 1229491, "internal_node_id": "0.0-129.0-6.0"}}, {"uniqueid": "MTK0900:3FK0YFF9P0N026N8FSBI2H0LQJMVVB", "current_trial": 181, "dateTime": 1512870011771, "trialdata": {"rt": -1, "stimulus": "<p id=\"stim\">3</p>", "key_press": -1, "trial_type": "single-stim", "trial_index": 181, "time_elapsed": 1230493, "internal_node_id": "0.0-129.0-7.0"}}, {"uniqueid": "MTK0900:3FK0YFF9P0N026N8FSBI2H0LQJMVVB", "current_trial": 182, "dateTime": 1512870012771, "trialdata": {"rt": -1, "stimulus": "<p id=\"stim\">2</p>", "key_press": -1, "trial_type": "single-stim", "trial_index": 182, "time_elapsed": 1231493, "internal_node_id": "0.0-129.0-8.0"}}, {"uniqueid": "MTK0900:3FK0YFF9P0N026N8FSBI2H0LQJMVVB", "current_trial": 183, "dateTime": 1512870013773, "trialdata": {"rt": -1, "stimulus": "<p id=\"stim\">1</p>", "key_press": -1, "trial_type": "single-stim", "trial_index": 183, "time_elapsed": 1232495, "internal_node_id": "0.0-129.0-9.0"}}, {"uniqueid": "MTK0900:3FK0YFF9P0N026N8FSBI2H0LQJMVVB", "current_trial": 184, "dateTime": 1512870015274, "trialdata": {"rt": -1, "stimulus": "<p id=\"stim\">+</p>", "key_press": -1, "type": "FIXATION", "trial_type": "single-stim", "trial_index": 184, "time_elapsed": 1233996, "internal_node_id": "0.0-130.0-0.0"}}, {"uniqueid": "MTK0900:3FK0YFF9P0N026N8FSBI2H0LQJMVVB", "current_trial": 185, "dateTime": 1512870017033, "trialdata": {"rt": -1000, "stimulus": "/static/audio/wordpool/HORNET.wav", "key_press": -1, "type": "PRES_AUD", "word": "hornet", "wordID": 717, "conditions": [24, 800, "a", 12000], "trial": 5, "serialpos": 0, "trial_type": "single-audio", "trial_index": 185, "time_elapsed": 1235755, "internal_node_id": "0.0-131.0"}}, {"uniqueid": "MTK0900:3FK0YFF9P0N026N8FSBI2H0LQJMVVB", "current_trial": 186, "dateTime": 1512870018770, "trialdata": {"rt": -1000, "stimulus": "/static/audio/wordpool/STATUE.wav", "key_press": -1, "type": "PRES_AUD", "word": "statue", "wordID": 1373, "conditions": [24, 800, "a", 12000], "trial": 5, "serialpos": 1, "trial_type": "single-audio", "trial_index": 186, "time_elapsed": 1237491, "internal_node_id": "0.0-132.0"}}, {"uniqueid": "MTK0900:3FK0YFF9P0N026N8FSBI2H0LQJMVVB", "current_trial": 187, "dateTime": 1512870020420, "trialdata": {"rt": -1000, "stimulus": "/static/audio/wordpool/PLUTO.wav", "key_press": -1, "type": "PRES_AUD", "word": "pluto", "wordID": 1091, "conditions": [24, 800, "a", 12000], "trial": 5, "serialpos": 2, "trial_type": "single-audio", "trial_index": 187, "time_elapsed": 1239142, "internal_node_id": "0.0-133.0"}}, {"uniqueid": "MTK0900:3FK0YFF9P0N026N8FSBI2H0LQJMVVB", "current_trial": 188, "dateTime": 1512870022066, "trialdata": {"rt": -1000, "stimulus": "/static/audio/wordpool/PADDLE.wav", "key_press": -1, "type": "PRES_AUD", "word": "paddle", "wordID": 999, "conditions": [24, 800, "a", 12000], "trial": 5, "serialpos": 3, "trial_type": "single-audio", "trial_index": 188, "time_elapsed": 1240787, "internal_node_id": "0.0-134.0"}}, {"uniqueid": "MTK0900:3FK0YFF9P0N026N8FSBI2H0LQJMVVB", "current_trial": 189, "dateTime": 1512870023777, "trialdata": {"rt": -1000, "stimulus": "/static/audio/wordpool/WIFE.wav", "key_press": -1, "type": "PRES_AUD", "word": "wife", "wordID": 1608, "conditions": [24, 800, "a", 12000], "trial": 5, "serialpos": 4, "trial_type": "single-audio", "trial_index": 189, "time_elapsed": 1242499, "internal_node_id": "0.0-135.0"}}, {"uniqueid": "MTK0900:3FK0YFF9P0N026N8FSBI2H0LQJMVVB", "current_trial": 190, "dateTime": 1512870025584, "trialdata": {"rt": -1000, "stimulus": "/static/audio/wordpool/LODGE.wav", "key_press": -1, "type": "PRES_AUD", "word": "lodge", "wordID": 838, "conditions": [24, 800, "a", 12000], "trial": 5, "serialpos": 5, "trial_type": "single-audio", "trial_index": 190, "time_elapsed": 1244306, "internal_node_id": "0.0-136.0"}}, {"uniqueid": "MTK0900:3FK0YFF9P0N026N8FSBI2H0LQJMVVB", "current_trial": 191, "dateTime": 1512870027488, "trialdata": {"rt": -1000, "stimulus": "/static/audio/wordpool/SUNSET.wav", "key_press": -1, "type": "PRES_AUD", "word": "sunset", "wordID": 1407, "conditions": [24, 800, "a", 12000], "trial": 5, "serialpos": 6, "trial_type": "single-audio", "trial_index": 191, "time_elapsed": 1246210, "internal_node_id": "0.0-137.0"}}, {"uniqueid": "MTK0900:3FK0YFF9P0N026N8FSBI2H0LQJMVVB", "current_trial": 192, "dateTime": 1512870029228, "trialdata": {"rt": -1000, "stimulus": "/static/audio/wordpool/DINER.wav", "key_press": -1, "type": "PRES_AUD", "word": "diner", "wordID": 466, "conditions": [24, 800, "a", 12000], "trial": 5, "serialpos": 7, "trial_type": "single-audio", "trial_index": 192, "time_elapsed": 1247949, "internal_node_id": "0.0-138.0"}}, {"uniqueid": "MTK0900:3FK0YFF9P0N026N8FSBI2H0LQJMVVB", "current_trial": 193, "dateTime": 1512870031131, "trialdata": {"rt": -1000, "stimulus": "/static/audio/wordpool/TRACTOR.wav", "key_press": -1, "type": "PRES_AUD", "word": "tractor", "wordID": 1492, "conditions": [24, 800, "a", 12000], "trial": 5, "serialpos": 8, "trial_type": "single-audio", "trial_index": 193, "time_elapsed": 1249853, "internal_node_id": "0.0-139.0"}}, {"uniqueid": "MTK0900:3FK0YFF9P0N026N8FSBI2H0LQJMVVB", "current_trial": 194, "dateTime": 1512870033018, "trialdata": {"rt": -1000, "stimulus": "/static/audio/wordpool/CUPBOARD.wav", "key_press": -1, "type": "PRES_AUD", "word": "cupboard", "wordID": 424, "conditions": [24, 800, "a", 12000], "trial": 5, "serialpos": 9, "trial_type": "single-audio", "trial_index": 194, "time_elapsed": 1251740, "internal_node_id": "0.0-140.0"}}, {"uniqueid": "MTK0900:3FK0YFF9P0N026N8FSBI2H0LQJMVVB", "current_trial": 195, "dateTime": 1512870034846, "trialdata": {"rt": -1000, "stimulus": "/static/audio/wordpool/KITCHEN.wav", "key_press": -1, "type": "PRES_AUD", "word": "kitchen", "wordID": 777, "conditions": [24, 800, "a", 12000], "trial": 5, "serialpos": 10, "trial_type": "single-audio", "trial_index": 195, "time_elapsed": 1253568, "internal_node_id": "0.0-141.0"}}, {"uniqueid": "MTK0900:3FK0YFF9P0N026N8FSBI2H0LQJMVVB", "current_trial": 196, "dateTime": 1512870036596, "trialdata": {"rt": -1000, "stimulus": "/static/audio/wordpool/WAGON.wav", "key_press": -1, "type": "PRES_AUD", "word": "wagon", "wordID": 1577, "conditions": [24, 800, "a", 12000], "trial": 5, "serialpos": 11, "trial_type": "single-audio", "trial_index": 196, "time_elapsed": 1255318, "internal_node_id": "0.0-142.0"}}, {"uniqueid": "MTK0900:3FK0YFF9P0N026N8FSBI2H0LQJMVVB", "current_trial": 197, "dateTime": 1512870038350, "trialdata": {"rt": -1000, "stimulus": "/static/audio/wordpool/VENUS.wav", "key_press": -1, "type": "PRES_AUD", "word": "venus", "wordID": 1556, "conditions": [24, 800, "a", 12000], "trial": 5, "serialpos": 12, "trial_type": "single-audio", "trial_index": 197, "time_elapsed": 1257072, "internal_node_id": "0.0-143.0"}}, {"uniqueid": "MTK0900:3FK0YFF9P0N026N8FSBI2H0LQJMVVB", "current_trial": 198, "dateTime": 1512870040355, "trialdata": {"rt": -1000, "stimulus": "/static/audio/wordpool/SALAD.wav", "key_press": -1, "type": "PRES_AUD", "word": "salad", "wordID": 1223, "conditions": [24, 800, "a", 12000], "trial": 5, "serialpos": 13, "trial_type": "single-audio", "trial_index": 198, "time_elapsed": 1259077, "internal_node_id": "0.0-144.0"}}, {"uniqueid": "MTK0900:3FK0YFF9P0N026N8FSBI2H0LQJMVVB", "current_trial": 199, "dateTime": 1512870042170, "trialdata": {"rt": -1000, "stimulus": "/static/audio/wordpool/CHAMPAGNE.wav", "key_press": -1, "type": "PRES_AUD", "word": "champagne", "wordID": 277, "conditions": [24, 800, "a", 12000], "trial": 5, "serialpos": 14, "trial_type": "single-audio", "trial_index": 199, "time_elapsed": 1260892, "internal_node_id": "0.0-145.0"}}, {"uniqueid": "MTK0900:3FK0YFF9P0N026N8FSBI2H0LQJMVVB", "current_trial": 200, "dateTime": 1512870043800, "trialdata": {"rt": -1000, "stimulus": "/static/audio/wordpool/LAVA.wav", "key_press": -1, "type": "PRES_AUD", "word": "lava", "wordID": 803, "conditions": [24, 800, "a", 12000], "trial": 5, "serialpos": 15, "trial_type": "single-audio", "trial_index": 200, "time_elapsed": 1262522, "internal_node_id": "0.0-146.0"}}, {"uniqueid": "MTK0900:3FK0YFF9P0N026N8FSBI2H0LQJMVVB", "current_trial": 201, "dateTime": 1512870045584, "trialdata": {"rt": -1000, "stimulus": "/static/audio/wordpool/PIANO.wav", "key_press": -1, "type": "PRES_AUD", "word": "piano", "wordID": 1056, "conditions": [24, 800, "a", 12000], "trial": 5, "serialpos": 16, "trial_type": "single-audio", "trial_index": 201, "time_elapsed": 1264306, "internal_node_id": "0.0-147.0"}}, {"uniqueid": "MTK0900:3FK0YFF9P0N026N8FSBI2H0LQJMVVB", "current_trial": 202, "dateTime": 1512870047368, "trialdata": {"rt": -1000, "stimulus": "/static/audio/wordpool/OZONE.wav", "key_press": -1, "type": "PRES_AUD", "word": "ozone", "wordID": 995, "conditions": [24, 800, "a", 12000], "trial": 5, "serialpos": 17, "trial_type": "single-audio", "trial_index": 202, "time_elapsed": 1266090, "internal_node_id": "0.0-148.0"}}, {"uniqueid": "MTK0900:3FK0YFF9P0N026N8FSBI2H0LQJMVVB", "current_trial": 203, "dateTime": 1512870049107, "trialdata": {"rt": -1000, "stimulus": "/static/audio/wordpool/CANYON.wav", "key_press": -1, "type": "PRES_AUD", "word": "canyon", "wordID": 234, "conditions": [24, 800, "a", 12000], "trial": 5, "serialpos": 18, "trial_type": "single-audio", "trial_index": 203, "time_elapsed": 1267829, "internal_node_id": "0.0-149.0"}}, {"uniqueid": "MTK0900:3FK0YFF9P0N026N8FSBI2H0LQJMVVB", "current_trial": 204, "dateTime": 1512870050975, "trialdata": {"rt": -1000, "stimulus": "/static/audio/wordpool/YARN.wav", "key_press": -1, "type": "PRES_AUD", "word": "yarn", "wordID": 1630, "conditions": [24, 800, "a", 12000], "trial": 5, "serialpos": 19, "trial_type": "single-audio", "trial_index": 204, "time_elapsed": 1269697, "internal_node_id": "0.0-150.0"}}, {"uniqueid": "MTK0900:3FK0YFF9P0N026N8FSBI2H0LQJMVVB", "current_trial": 205, "dateTime": 1512870052609, "trialdata": {"rt": -1000, "stimulus": "/static/audio/wordpool/TUBA.wav", "key_press": -1, "type": "PRES_AUD", "word": "tuba", "wordID": 1514, "conditions": [24, 800, "a", 12000], "trial": 5, "serialpos": 20, "trial_type": "single-audio", "trial_index": 205, "time_elapsed": 1271331, "internal_node_id": "0.0-151.0"}}, {"uniqueid": "MTK0900:3FK0YFF9P0N026N8FSBI2H0LQJMVVB", "current_trial": 206, "dateTime": 1512870054258, "trialdata": {"rt": -1000, "stimulus": "/static/audio/wordpool/ARM.wav", "key_press": -1, "type": "PRES_AUD", "word": "arm", "wordID": 37, "conditions": [24, 800, "a", 12000], "trial": 5, "serialpos": 21, "trial_type": "single-audio", "trial_index": 206, "time_elapsed": 1272980, "internal_node_id": "0.0-152.0"}}, {"uniqueid": "MTK0900:3FK0YFF9P0N026N8FSBI2H0LQJMVVB", "current_trial": 207, "dateTime": 1512870055930, "trialdata": {"rt": -1000, "stimulus": "/static/audio/wordpool/SHOULDER.wav", "key_press": -1, "type": "PRES_AUD", "word": "shoulder", "wordID": 1293, "conditions": [24, 800, "a", 12000], "trial": 5, "serialpos": 22, "trial_type": "single-audio", "trial_index": 207, "time_elapsed": 1274651, "internal_node_id": "0.0-153.0"}}, {"uniqueid": "MTK0900:3FK0YFF9P0N026N8FSBI2H0LQJMVVB", "current_trial": 208, "dateTime": 1512870057741, "trialdata": {"rt": -1000, "stimulus": "/static/audio/wordpool/HEART.wav", "key_press": -1, "type": "PRES_AUD", "word": "heart", "wordID": 696, "conditions": [24, 800, "a", 12000], "trial": 5, "serialpos": 23, "trial_type": "single-audio", "trial_index": 208, "time_elapsed": 1276463, "internal_node_id": "0.0-154.0"}}, {"uniqueid": "MTK0900:3FK0YFF9P0N026N8FSBI2H0LQJMVVB", "current_trial": 209, "dateTime": 1512870059055, "trialdata": {"rt": -1, "stimulus": "", "key_press": -1, "type": "PRE_RECALL_DELAY", "trial_type": "single-stim", "trial_index": 209, "time_elapsed": 1277777, "internal_node_id": "0.0-155.0-0.0"}}, {"uniqueid": "MTK0900:3FK0YFF9P0N026N8FSBI2H0LQJMVVB", "current_trial": 210, "dateTime": 1512870059557, "trialdata": {"rt": -1000, "stimulus": "/static/audio/400Hz.wav", "key_press": -1, "type": "PRE_RECALL_ALERT", "trial_type": "single-audio", "trial_index": 210, "time_elapsed": 1278279, "internal_node_id": "0.0-156.0"}}, {"uniqueid": "MTK0900:3FK0YFF9P0N026N8FSBI2H0LQJMVVB", "current_trial": 211, "dateTime": 1512870119561, "trialdata": {"rt": [2972, 5627, 6859, 8508, 11931, 13852, 32803], "recwords": ["arm", "shoulder", "heart", "kitchen", "cubbord", "panther", "dust"], "type": "FREE_RECALL", "conditions": [24, 800, "a", 12000], "trial": 5, "trial_type": "free-recall", "trial_index": 211, "time_elapsed": 1338280, "internal_node_id": "0.0-157.0-0.0"}}, {"uniqueid": "MTK0900:3FK0YFF9P0N026N8FSBI2H0LQJMVVB", "current_trial": 212, "dateTime": 1512870122898, "trialdata": {"rt": 1335, "key_press": 32, "type": "INSTRUCTIONS", "trial_type": "text", "trial_index": 212, "time_elapsed": 1341619, "internal_node_id": "0.0-158.0"}}, {"uniqueid": "MTK0900:3FK0YFF9P0N026N8FSBI2H0LQJMVVB", "current_trial": 213, "dateTime": 1512870148901, "trialdata": {"rt": [4069, 6028, 8037, 12165, 13628, 15796, 17972, 20037], "responses": ["10", "12", "8", "17", "8", "16", "15", "18"], "num1": [3, 9, 6, 2, 2, 4, 6, 4, 2], "num2": [5, 1, 1, 9, 1, 8, 3, 8, 4], "num3": [2, 2, 1, 6, 5, 4, 6, 6, 3], "type": "DISTRACTOR", "conditions": [24, 800, "v", 24000], "trial": 6, "trial_type": "math-distractor", "trial_index": 213, "time_elapsed": 1367623, "internal_node_id": "0.0-159.0"}}, {"uniqueid": "MTK0900:3FK0YFF9P0N026N8FSBI2H0LQJMVVB", "current_trial": 214, "dateTime": 1512870151902, "trialdata": {"rt": -1, "stimulus": "<p id=\"stim\">10</p>", "key_press": -1, "trial_type": "single-stim", "trial_index": 214, "time_elapsed": 1370624, "internal_node_id": "0.0-160.0-0.0"}}, {"uniqueid": "MTK0900:3FK0YFF9P0N026N8FSBI2H0LQJMVVB", "current_trial": 215, "dateTime": 1512870152905, "trialdata": {"rt": -1, "stimulus": "<p id=\"stim\">9</p>", "key_press": -1, "trial_type": "single-stim", "trial_index": 215, "time_elapsed": 1371627, "internal_node_id": "0.0-160.0-1.0"}}, {"uniqueid": "MTK0900:3FK0YFF9P0N026N8FSBI2H0LQJMVVB", "current_trial": 216, "dateTime": 1512870153906, "trialdata": {"rt": -1, "stimulus": "<p id=\"stim\">8</p>", "key_press": -1, "trial_type": "single-stim", "trial_index": 216, "time_elapsed": 1372628, "internal_node_id": "0.0-160.0-2.0"}}, {"uniqueid": "MTK0900:3FK0YFF9P0N026N8FSBI2H0LQJMVVB", "current_trial": 217, "dateTime": 1512870154908, "trialdata": {"rt": -1, "stimulus": "<p id=\"stim\">7</p>", "key_press": -1, "trial_type": "single-stim", "trial_index": 217, "time_elapsed": 1373630, "internal_node_id": "0.0-160.0-3.0"}}, {"uniqueid": "MTK0900:3FK0YFF9P0N026N8FSBI2H0LQJMVVB", "current_trial": 218, "dateTime": 1512870155909, "trialdata": {"rt": -1, "stimulus": "<p id=\"stim\">6</p>", "key_press": -1, "trial_type": "single-stim", "trial_index": 218, "time_elapsed": 1374631, "internal_node_id": "0.0-160.0-4.0"}}, {"uniqueid": "MTK0900:3FK0YFF9P0N026N8FSBI2H0LQJMVVB", "current_trial": 219, "dateTime": 1512870156911, "trialdata": {"rt": -1, "stimulus": "<p id=\"stim\">5</p>", "key_press": -1, "trial_type": "single-stim", "trial_index": 219, "time_elapsed": 1375633, "internal_node_id": "0.0-160.0-5.0"}}, {"uniqueid": "MTK0900:3FK0YFF9P0N026N8FSBI2H0LQJMVVB", "current_trial": 220, "dateTime": 1512870157912, "trialdata": {"rt": -1, "stimulus": "<p id=\"stim\">4</p>", "key_press": -1, "trial_type": "single-stim", "trial_index": 220, "time_elapsed": 1376634, "internal_node_id": "0.0-160.0-6.0"}}, {"uniqueid": "MTK0900:3FK0YFF9P0N026N8FSBI2H0LQJMVVB", "current_trial": 221, "dateTime": 1512870158913, "trialdata": {"rt": -1, "stimulus": "<p id=\"stim\">3</p>", "key_press": -1, "trial_type": "single-stim", "trial_index": 221, "time_elapsed": 1377635, "internal_node_id": "0.0-160.0-7.0"}}, {"uniqueid": "MTK0900:3FK0YFF9P0N026N8FSBI2H0LQJMVVB", "current_trial": 222, "dateTime": 1512870159915, "trialdata": {"rt": -1, "stimulus": "<p id=\"stim\">2</p>", "key_press": -1, "trial_type": "single-stim", "trial_index": 222, "time_elapsed": 1378637, "internal_node_id": "0.0-160.0-8.0"}}, {"uniqueid": "MTK0900:3FK0YFF9P0N026N8FSBI2H0LQJMVVB", "current_trial": 223, "dateTime": 1512870160917, "trialdata": {"rt": -1, "stimulus": "<p id=\"stim\">1</p>", "key_press": -1, "trial_type": "single-stim", "trial_index": 223, "time_elapsed": 1379639, "internal_node_id": "0.0-160.0-9.0"}}, {"uniqueid": "MTK0900:3FK0YFF9P0N026N8FSBI2H0LQJMVVB", "current_trial": 224, "dateTime": 1512870162418, "trialdata": {"rt": -1, "stimulus": "<p id=\"stim\">+</p>", "key_press": -1, "type": "FIXATION", "trial_type": "single-stim", "trial_index": 224, "time_elapsed": 1381140, "internal_node_id": "0.0-161.0-0.0"}}, {"uniqueid": "MTK0900:3FK0YFF9P0N026N8FSBI2H0LQJMVVB", "current_trial": 225, "dateTime": 1512870163220, "trialdata": {"rt": -1, "stimulus": "<p id=\"stim\">FLESH</p>", "key_press": -1, "type": "PRES_VIS", "word": "flesh", "wordID": 578, "conditions": [24, 800, "v", 24000], "trial": 6, "serialpos": 0, "trial_type": "single-stim", "trial_index": 225, "time_elapsed": 1381942, "internal_node_id": "0.0-162.0"}}, {"uniqueid": "MTK0900:3FK0YFF9P0N026N8FSBI2H0LQJMVVB", "current_trial": 226, "dateTime": 1512870165162, "trialdata": {"rt": -1, "stimulus": "<p id=\"stim\">SPHINX</p>", "key_press": -1, "type": "PRES_VIS", "word": "sphinx", "wordID": 1348, "conditions": [24, 800, "v", 24000], "trial": 6, "serialpos": 1, "trial_type": "single-stim", "trial_index": 226, "time_elapsed": 1383882, "internal_node_id": "0.0-163.0"}}, {"uniqueid": "MTK0900:3FK0YFF9P0N026N8FSBI2H0LQJMVVB", "current_trial": 227, "dateTime": 1512870166797, "trialdata": {"rt": -1, "stimulus": "<p id=\"stim\">PICTURE</p>", "key_press": -1, "type": "PRES_VIS", "word": "picture", "wordID": 1060, "conditions": [24, 800, "v", 24000], "trial": 6, "serialpos": 2, "trial_type": "single-stim", "trial_index": 227, "time_elapsed": 1385519, "internal_node_id": "0.0-164.0"}}, {"uniqueid": "MTK0900:3FK0YFF9P0N026N8FSBI2H0LQJMVVB", "current_trial": 228, "dateTime": 1512870168744, "trialdata": {"rt": -1, "stimulus": "<p id=\"stim\">SPONGE</p>", "key_press": -1, "type": "PRES_VIS", "word": "sponge", "wordID": 1354, "conditions": [24, 800, "v", 24000], "trial": 6, "serialpos": 3, "trial_type": "single-stim", "trial_index": 228, "time_elapsed": 1387466, "internal_node_id": "0.0-165.0"}}, {"uniqueid": "MTK0900:3FK0YFF9P0N026N8FSBI2H0LQJMVVB", "current_trial": 229, "dateTime": 1512870170644, "trialdata": {"rt": -1, "stimulus": "<p id=\"stim\">BEAVER</p>", "key_press": -1, "type": "PRES_VIS", "word": "beaver", "wordID": 108, "conditions": [24, 800, "v", 24000], "trial": 6, "serialpos": 4, "trial_type": "single-stim", "trial_index": 229, "time_elapsed": 1389366, "internal_node_id": "0.0-166.0"}}, {"uniqueid": "MTK0900:3FK0YFF9P0N026N8FSBI2H0LQJMVVB", "current_trial": 230, "dateTime": 1512870172317, "trialdata": {"rt": -1, "stimulus": "<p id=\"stim\">CUSTARD</p>", "key_press": -1, "type": "PRES_VIS", "word": "custard", "wordID": 428, "conditions": [24, 800, "v", 24000], "trial": 6, "serialpos": 5, "trial_type": "single-stim", "trial_index": 230, "time_elapsed": 1391039, "internal_node_id": "0.0-167.0"}}, {"uniqueid": "MTK0900:3FK0YFF9P0N026N8FSBI2H0LQJMVVB", "current_trial": 231, "dateTime": 1512870174067, "trialdata": {"rt": -1, "stimulus": "<p id=\"stim\">PASTA</p>", "key_press": -1, "type": "PRES_VIS", "word": "pasta", "wordID": 1020, "conditions": [24, 800, "v", 24000], "trial": 6, "serialpos": 6, "trial_type": "single-stim", "trial_index": 231, "time_elapsed": 1392789, "internal_node_id": "0.0-168.0"}}, {"uniqueid": "MTK0900:3FK0YFF9P0N026N8FSBI2H0LQJMVVB", "current_trial": 232, "dateTime": 1512870175896, "trialdata": {"rt": -1, "stimulus": "<p id=\"stim\">PLAID</p>", "key_press": -1, "type": "PRES_VIS", "word": "plaid", "wordID": 1079, "conditions": [24, 800, "v", 24000], "trial": 6, "serialpos": 7, "trial_type": "single-stim", "trial_index": 232, "time_elapsed": 1394618, "internal_node_id": "0.0-169.0"}}, {"uniqueid": "MTK0900:3FK0YFF9P0N026N8FSBI2H0LQJMVVB", "current_trial": 233, "dateTime": 1512870177720, "trialdata": {"rt": -1, "stimulus": "<p id=\"stim\">SCALPEL</p>", "key_press": -1, "type": "PRES_VIS", "word": "scalpel", "wordID": 1242, "conditions": [24, 800, "v", 24000], "trial": 6, "serialpos": 8, "trial_type": "single-stim", "trial_index": 233, "time_elapsed": 1396442, "internal_node_id": "0.0-170.0"}}, {"uniqueid": "MTK0900:3FK0YFF9P0N026N8FSBI2H0LQJMVVB", "current_trial": 234, "dateTime": 1512870179462, "trialdata": {"rt": -1, "stimulus": "<p id=\"stim\">PORTRAIT</p>", "key_press": -1, "type": "PRES_VIS", "word": "portrait", "wordID": 1110, "conditions": [24, 800, "v", 24000], "trial": 6, "serialpos": 9, "trial_type": "single-stim", "trial_index": 234, "time_elapsed": 1398184, "internal_node_id": "0.0-171.0"}}, {"uniqueid": "MTK0900:3FK0YFF9P0N026N8FSBI2H0LQJMVVB", "current_trial": 235, "dateTime": 1512870181399, "trialdata": {"rt": -1, "stimulus": "<p id=\"stim\">HUMAN</p>", "key_press": -1, "type": "PRES_VIS", "word": "human", "wordID": 725, "conditions": [24, 800, "v", 24000], "trial": 6, "serialpos": 10, "trial_type": "single-stim", "trial_index": 235, "time_elapsed": 1400121, "internal_node_id": "0.0-172.0"}}, {"uniqueid": "MTK0900:3FK0YFF9P0N026N8FSBI2H0LQJMVVB", "current_trial": 236, "dateTime": 1512870183008, "trialdata": {"rt": -1, "stimulus": "<p id=\"stim\">HONEY</p>", "key_press": -1, "type": "PRES_VIS", "word": "honey", "wordID": 712, "conditions": [24, 800, "v", 24000], "trial": 6, "serialpos": 11, "trial_type": "single-stim", "trial_index": 236, "time_elapsed": 1401730, "internal_node_id": "0.0-173.0"}}, {"uniqueid": "MTK0900:3FK0YFF9P0N026N8FSBI2H0LQJMVVB", "current_trial": 237, "dateTime": 1512870184760, "trialdata": {"rt": -1, "stimulus": "<p id=\"stim\">PIGEON</p>", "key_press": -1, "type": "PRES_VIS", "word": "pigeon", "wordID": 1064, "conditions": [24, 800, "v", 24000], "trial": 6, "serialpos": 12, "trial_type": "single-stim", "trial_index": 237, "time_elapsed": 1403482, "internal_node_id": "0.0-174.0"}}, {"uniqueid": "MTK0900:3FK0YFF9P0N026N8FSBI2H0LQJMVVB", "current_trial": 238, "dateTime": 1512870186474, "trialdata": {"rt": -1, "stimulus": "<p id=\"stim\">CITRUS</p>", "key_press": -1, "type": "PRES_VIS", "word": "citrus", "wordID": 312, "conditions": [24, 800, "v", 24000], "trial": 6, "serialpos": 13, "trial_type": "single-stim", "trial_index": 238, "time_elapsed": 1405196, "internal_node_id": "0.0-175.0"}}, {"uniqueid": "MTK0900:3FK0YFF9P0N026N8FSBI2H0LQJMVVB", "current_trial": 239, "dateTime": 1512870188404, "trialdata": {"rt": -1, "stimulus": "<p id=\"stim\">OINTMENT</p>", "key_press": -1, "type": "PRES_VIS", "word": "ointment", "wordID": 973, "conditions": [24, 800, "v", 24000], "trial": 6, "serialpos": 14, "trial_type": "single-stim", "trial_index": 239, "time_elapsed": 1407126, "internal_node_id": "0.0-176.0"}}, {"uniqueid": "MTK0900:3FK0YFF9P0N026N8FSBI2H0LQJMVVB", "current_trial": 240, "dateTime": 1512870190184, "trialdata": {"rt": -1, "stimulus": "<p id=\"stim\">TOMBSTONE</p>", "key_press": -1, "type": "PRES_VIS", "word": "tombstone", "wordID": 1477, "conditions": [24, 800, "v", 24000], "trial": 6, "serialpos": 15, "trial_type": "single-stim", "trial_index": 240, "time_elapsed": 1408906, "internal_node_id": "0.0-177.0"}}, {"uniqueid": "MTK0900:3FK0YFF9P0N026N8FSBI2H0LQJMVVB", "current_trial": 241, "dateTime": 1512870191890, "trialdata": {"rt": -1, "stimulus": "<p id=\"stim\">WHISTLE</p>", "key_press": -1, "type": "PRES_VIS", "word": "whistle", "wordID": 1605, "conditions": [24, 800, "v", 24000], "trial": 6, "serialpos": 16, "trial_type": "single-stim", "trial_index": 241, "time_elapsed": 1410612, "internal_node_id": "0.0-178.0"}}, {"uniqueid": "MTK0900:3FK0YFF9P0N026N8FSBI2H0LQJMVVB", "current_trial": 242, "dateTime": 1512870193820, "trialdata": {"rt": -1, "stimulus": "<p id=\"stim\">LIPSTICK</p>", "key_press": -1, "type": "PRES_VIS", "word": "lipstick", "wordID": 828, "conditions": [24, 800, "v", 24000], "trial": 6, "serialpos": 17, "trial_type": "single-stim", "trial_index": 242, "time_elapsed": 1412542, "internal_node_id": "0.0-179.0"}}, {"uniqueid": "MTK0900:3FK0YFF9P0N026N8FSBI2H0LQJMVVB", "current_trial": 243, "dateTime": 1512870195532, "trialdata": {"rt": -1, "stimulus": "<p id=\"stim\">WHISKERS</p>", "key_press": -1, "type": "PRES_VIS", "word": "whiskers", "wordID": 1604, "conditions": [24, 800, "v", 24000], "trial": 6, "serialpos": 18, "trial_type": "single-stim", "trial_index": 243, "time_elapsed": 1414254, "internal_node_id": "0.0-180.0"}}, {"uniqueid": "MTK0900:3FK0YFF9P0N026N8FSBI2H0LQJMVVB", "current_trial": 244, "dateTime": 1512870197311, "trialdata": {"rt": -1, "stimulus": "<p id=\"stim\">FOX</p>", "key_press": -1, "type": "PRES_VIS", "word": "fox", "wordID": 597, "conditions": [24, 800, "v", 24000], "trial": 6, "serialpos": 19, "trial_type": "single-stim", "trial_index": 244, "time_elapsed": 1416033, "internal_node_id": "0.0-181.0"}}, {"uniqueid": "MTK0900:3FK0YFF9P0N026N8FSBI2H0LQJMVVB", "current_trial": 245, "dateTime": 1512870199280, "trialdata": {"rt": -1, "stimulus": "<p id=\"stim\">GALLON</p>", "key_press": -1, "type": "PRES_VIS", "word": "gallon", "wordID": 617, "conditions": [24, 800, "v", 24000], "trial": 6, "serialpos": 20, "trial_type": "single-stim", "trial_index": 245, "time_elapsed": 1418002, "internal_node_id": "0.0-182.0"}}, {"uniqueid": "MTK0900:3FK0YFF9P0N026N8FSBI2H0LQJMVVB", "current_trial": 246, "dateTime": 1512870200930, "trialdata": {"rt": -1, "stimulus": "<p id=\"stim\">RABBIT</p>", "key_press": -1, "type": "PRES_VIS", "word": "rabbit", "wordID": 1151, "conditions": [24, 800, "v", 24000], "trial": 6, "serialpos": 21, "trial_type": "single-stim", "trial_index": 246, "time_elapsed": 1419652, "internal_node_id": "0.0-183.0"}}, {"uniqueid": "MTK0900:3FK0YFF9P0N026N8FSBI2H0LQJMVVB", "current_trial": 247, "dateTime": 1512870202832, "trialdata": {"rt": -1, "stimulus": "<p id=\"stim\">LIZARD</p>", "key_press": -1, "type": "PRES_VIS", "word": "lizard", "wordID": 833, "conditions": [24, 800, "v", 24000], "trial": 6, "serialpos": 22, "trial_type": "single-stim", "trial_index": 247, "time_elapsed": 1421554, "internal_node_id": "0.0-184.0"}}, {"uniqueid": "MTK0900:3FK0YFF9P0N026N8FSBI2H0LQJMVVB", "current_trial": 248, "dateTime": 1512870204690, "trialdata": {"rt": -1, "stimulus": "<p id=\"stim\">TUNNEL</p>", "key_press": -1, "type": "PRES_VIS", "word": "tunnel", "wordID": 1518, "conditions": [24, 800, "v", 24000], "trial": 6, "serialpos": 23, "trial_type": "single-stim", "trial_index": 248, "time_elapsed": 1423410, "internal_node_id": "0.0-185.0"}}, {"uniqueid": "MTK0900:3FK0YFF9P0N026N8FSBI2H0LQJMVVB", "current_trial": 249, "dateTime": 1512870206795, "trialdata": {"rt": -1, "stimulus": "", "key_press": -1, "type": "PRE_RECALL_DELAY", "trial_type": "single-stim", "trial_index": 249, "time_elapsed": 1425517, "internal_node_id": "0.0-186.0-0.0"}}, {"uniqueid": "MTK0900:3FK0YFF9P0N026N8FSBI2H0LQJMVVB", "current_trial": 250, "dateTime": 1512870207297, "trialdata": {"rt": -1000, "stimulus": "/static/audio/400Hz.wav", "key_press": -1, "type": "PRE_RECALL_ALERT", "trial_type": "single-audio", "trial_index": 250, "time_elapsed": 1426019, "internal_node_id": "0.0-187.0"}}, {"uniqueid": "MTK0900:3FK0YFF9P0N026N8FSBI2H0LQJMVVB", "current_trial": 251, "dateTime": 1512870267304, "trialdata": {"rt": [2917, 4974, 6238, 8014, 14982, 22365, 25862, 29733, 32445, 43829], "recwords": ["rabbit", "lizard", "fox", "tunnel", "ozone", "tunnel", "human", "whiskers", "lipstick", "ointment"], "type": "FREE_RECALL", "conditions": [24, 800, "v", 24000], "trial": 6, "trial_type": "free-recall", "trial_index": 251, "time_elapsed": 1486021, "internal_node_id": "0.0-188.0-0.0"}}, {"uniqueid": "MTK0900:3FK0YFF9P0N026N8FSBI2H0LQJMVVB", "current_trial": 252, "dateTime": 1512870270623, "trialdata": {"rt": 1318, "key_press": 32, "type": "INSTRUCTIONS", "trial_type": "text", "trial_index": 252, "time_elapsed": 1489345, "internal_node_id": "0.0-189.0"}}, {"uniqueid": "MTK0900:3FK0YFF9P0N026N8FSBI2H0LQJMVVB", "current_trial": 253, "dateTime": 1512870284627, "trialdata": {"rt": [2613, 5261, 9829], "responses": ["12", "19", "14"], "num1": [3, 9, 8, 3], "num2": [3, 7, 1, 3], "num3": [6, 3, 5, 8], "type": "DISTRACTOR", "conditions": [12, 800, "a", 12000], "trial": 7, "trial_type": "math-distractor", "trial_index": 253, "time_elapsed": 1503349, "internal_node_id": "0.0-190.0"}}, {"uniqueid": "MTK0900:3FK0YFF9P0N026N8FSBI2H0LQJMVVB", "current_trial": 254, "dateTime": 1512870287629, "trialdata": {"rt": -1, "stimulus": "<p id=\"stim\">10</p>", "key_press": -1, "trial_type": "single-stim", "trial_index": 254, "time_elapsed": 1506351, "internal_node_id": "0.0-191.0-0.0"}}, {"uniqueid": "MTK0900:3FK0YFF9P0N026N8FSBI2H0LQJMVVB", "current_trial": 255, "dateTime": 1512870288630, "trialdata": {"rt": -1, "stimulus": "<p id=\"stim\">9</p>", "key_press": -1, "trial_type": "single-stim", "trial_index": 255, "time_elapsed": 1507352, "internal_node_id": "0.0-191.0-1.0"}}, {"uniqueid": "MTK0900:3FK0YFF9P0N026N8FSBI2H0LQJMVVB", "current_trial": 256, "dateTime": 1512870289631, "trialdata": {"rt": -1, "stimulus": "<p id=\"stim\">8</p>", "key_press": -1, "trial_type": "single-stim", "trial_index": 256, "time_elapsed": 1508353, "internal_node_id": "0.0-191.0-2.0"}}, {"uniqueid": "MTK0900:3FK0YFF9P0N026N8FSBI2H0LQJMVVB", "current_trial": 257, "dateTime": 1512870290632, "trialdata": {"rt": -1, "stimulus": "<p id=\"stim\">7</p>", "key_press": -1, "trial_type": "single-stim", "trial_index": 257, "time_elapsed": 1509354, "internal_node_id": "0.0-191.0-3.0"}}, {"uniqueid": "MTK0900:3FK0YFF9P0N026N8FSBI2H0LQJMVVB", "current_trial": 258, "dateTime": 1512870291635, "trialdata": {"rt": -1, "stimulus": "<p id=\"stim\">6</p>", "key_press": -1, "trial_type": "single-stim", "trial_index": 258, "time_elapsed": 1510357, "internal_node_id": "0.0-191.0-4.0"}}, {"uniqueid": "MTK0900:3FK0YFF9P0N026N8FSBI2H0LQJMVVB", "current_trial": 259, "dateTime": 1512870292637, "trialdata": {"rt": -1, "stimulus": "<p id=\"stim\">5</p>", "key_press": -1, "trial_type": "single-stim", "trial_index": 259, "time_elapsed": 1511359, "internal_node_id": "0.0-191.0-5.0"}}, {"uniqueid": "MTK0900:3FK0YFF9P0N026N8FSBI2H0LQJMVVB", "current_trial": 260, "dateTime": 1512870293638, "trialdata": {"rt": -1, "stimulus": "<p id=\"stim\">4</p>", "key_press": -1, "trial_type": "single-stim", "trial_index": 260, "time_elapsed": 1512360, "internal_node_id": "0.0-191.0-6.0"}}, {"uniqueid": "MTK0900:3FK0YFF9P0N026N8FSBI2H0LQJMVVB", "current_trial": 261, "dateTime": 1512870294641, "trialdata": {"rt": -1, "stimulus": "<p id=\"stim\">3</p>", "key_press": -1, "trial_type": "single-stim", "trial_index": 261, "time_elapsed": 1513362, "internal_node_id": "0.0-191.0-7.0"}}, {"uniqueid": "MTK0900:3FK0YFF9P0N026N8FSBI2H0LQJMVVB", "current_trial": 262, "dateTime": 1512870295642, "trialdata": {"rt": -1, "stimulus": "<p id=\"stim\">2</p>", "key_press": -1, "trial_type": "single-stim", "trial_index": 262, "time_elapsed": 1514364, "internal_node_id": "0.0-191.0-8.0"}}, {"uniqueid": "MTK0900:3FK0YFF9P0N026N8FSBI2H0LQJMVVB", "current_trial": 263, "dateTime": 1512870296643, "trialdata": {"rt": -1, "stimulus": "<p id=\"stim\">1</p>", "key_press": -1, "trial_type": "single-stim", "trial_index": 263, "time_elapsed": 1515365, "internal_node_id": "0.0-191.0-9.0"}}, {"uniqueid": "MTK0900:3FK0YFF9P0N026N8FSBI2H0LQJMVVB", "current_trial": 264, "dateTime": 1512870298144, "trialdata": {"rt": -1, "stimulus": "<p id=\"stim\">+</p>", "key_press": -1, "type": "FIXATION", "trial_type": "single-stim", "trial_index": 264, "time_elapsed": 1516866, "internal_node_id": "0.0-192.0-0.0"}}, {"uniqueid": "MTK0900:3FK0YFF9P0N026N8FSBI2H0LQJMVVB", "current_trial": 265, "dateTime": 1512870299978, "trialdata": {"rt": -1000, "stimulus": "/static/audio/wordpool/PUPPY.wav", "key_press": -1, "type": "PRES_AUD", "word": "puppy", "wordID": 1143, "conditions": [12, 800, "a", 12000], "trial": 7, "serialpos": 0, "trial_type": "single-audio", "trial_index": 265, "time_elapsed": 1518700, "internal_node_id": "0.0-193.0"}}, {"uniqueid": "MTK0900:3FK0YFF9P0N026N8FSBI2H0LQJMVVB", "current_trial": 266, "dateTime": 1512870301718, "trialdata": {"rt": -1000, "stimulus": "/static/audio/wordpool/BUBBLE.wav", "key_press": -1, "type": "PRES_AUD", "word": "bubble", "wordID": 182, "conditions": [12, 800, "a", 12000], "trial": 7, "serialpos": 1, "trial_type": "single-audio", "trial_index": 266, "time_elapsed": 1520440, "internal_node_id": "0.0-194.0"}}, {"uniqueid": "MTK0900:3FK0YFF9P0N026N8FSBI2H0LQJMVVB", "current_trial": 267, "dateTime": 1512870303483, "trialdata": {"rt": -1000, "stimulus": "/static/audio/wordpool/TURNIP.wav", "key_press": -1, "type": "PRES_AUD", "word": "turnip", "wordID": 1520, "conditions": [12, 800, "a", 12000], "trial": 7, "serialpos": 2, "trial_type": "single-audio", "trial_index": 267, "time_elapsed": 1522204, "internal_node_id": "0.0-195.0"}}, {"uniqueid": "MTK0900:3FK0YFF9P0N026N8FSBI2H0LQJMVVB", "current_trial": 268, "dateTime": 1512870305106, "trialdata": {"rt": -1000, "stimulus": "/static/audio/wordpool/CHILD.wav", "key_press": -1, "type": "PRES_AUD", "word": "child", "wordID": 298, "conditions": [12, 800, "a", 12000], "trial": 7, "serialpos": 3, "trial_type": "single-audio", "trial_index": 268, "time_elapsed": 1523828, "internal_node_id": "0.0-196.0"}}, {"uniqueid": "MTK0900:3FK0YFF9P0N026N8FSBI2H0LQJMVVB", "current_trial": 269, "dateTime": 1512870306970, "trialdata": {"rt": -1000, "stimulus": "/static/audio/wordpool/GRAVE.wav", "key_press": -1, "type": "PRES_AUD", "word": "grave", "wordID": 657, "conditions": [12, 800, "a", 12000], "trial": 7, "serialpos": 4, "trial_type": "single-audio", "trial_index": 269, "time_elapsed": 1525691, "internal_node_id": "0.0-197.0"}}, {"uniqueid": "MTK0900:3FK0YFF9P0N026N8FSBI2H0LQJMVVB", "current_trial": 270, "dateTime": 1512870308872, "trialdata": {"rt": -1000, "stimulus": "/static/audio/wordpool/FLOWER.wav", "key_press": -1, "type": "PRES_AUD", "word": "flower", "wordID": 583, "conditions": [12, 800, "a", 12000], "trial": 7, "serialpos": 5, "trial_type": "single-audio", "trial_index