{"condition": 0, "counterbalance": 1194, "assignmentId": "33NF62TLXK9DV0T2ZZJSXKEAFWZJKF", "workerId": "MTK0807", "hitId": "33EEIIWHK7E6AETX3RC67A5TTJPQVN", "currenttrial": 626, "bonus": 0, "data": [{"uniqueid": "MTK0807:33NF62TLXK9DV0T2ZZJSXKEAFWZJKF", "current_trial": 0, "dateTime": 1512757162591, "trialdata": {"rt": 24283, "key_press": 32, "type": "INSTRUCTIONS", "trial_type": "text", "trial_index": 0, "time_elapsed": 24287, "internal_node_id": "0.0-0.0"}}, {"uniqueid": "MTK0807:33NF62TLXK9DV0T2ZZJSXKEAFWZJKF", "current_trial": 1, "dateTime": 1512757265787, "trialdata": {"rt": 103194, "key_press": 32, "type": "INSTRUCTIONS", "trial_type": "text", "trial_index": 1, "time_elapsed": 127485, "internal_node_id": "0.0-1.0"}}, {"uniqueid": "MTK0807:33NF62TLXK9DV0T2ZZJSXKEAFWZJKF", "current_trial": 2, "dateTime": 1512757273086, "trialdata": {"rt": [7288], "responses": ["ocean"], "type": "AUDIO_TEST", "trial_type": "audio-test", "trial_index": 2, "time_elapsed": 134784, "internal_node_id": "0.0-2.0"}}, {"uniqueid": "MTK0807:33NF62TLXK9DV0T2ZZJSXKEAFWZJKF", "current_trial": 3, "dateTime": 1512757280508, "trialdata": {"rt": [7419], "responses": ["crystal"], "type": "AUDIO_TEST", "trial_type": "audio-test", "trial_index": 3, "time_elapsed": 142206, "internal_node_id": "0.0-3.0"}}, {"uniqueid": "MTK0807:33NF62TLXK9DV0T2ZZJSXKEAFWZJKF", "current_trial": 4, "dateTime": 1512757289071, "trialdata": {"rt": [8561], "responses": ["spice"], "type": "AUDIO_TEST", "trial_type": "audio-test", "trial_index": 4, "time_elapsed": 150769, "internal_node_id": "0.0-4.0"}}, {"uniqueid": "MTK0807:33NF62TLXK9DV0T2ZZJSXKEAFWZJKF", "current_trial": 5, "dateTime": 1512757311381, "trialdata": {"rt": 21558, "responses": "{\"Q0\":\"11\",\"Q1\":\"5 am\",\"Q2\":\"4\"}", "type": "SLEEP_SURVEY", "trial_type": "survey-text", "trial_index": 5, "time_elapsed": 173079, "internal_node_id": "0.0-5.0"}}, {"uniqueid": "MTK0807:33NF62TLXK9DV0T2ZZJSXKEAFWZJKF", "current_trial": 6, "dateTime": 1512757367887, "trialdata": {"rt": 55504, "key_press": 32, "type": "INSTRUCTIONS", "trial_type": "text", "trial_index": 6, "time_elapsed": 229585, "internal_node_id": "0.0-6.0"}}, {"uniqueid": "MTK0807:33NF62TLXK9DV0T2ZZJSXKEAFWZJKF", "current_trial": 7, "dateTime": 1512757375949, "trialdata": {"rt": 7560, "key_press": 32, "type": "INSTRUCTIONS", "trial_type": "text", "trial_index": 7, "time_elapsed": 237647, "internal_node_id": "0.0-7.0"}}, {"uniqueid": "MTK0807:33NF62TLXK9DV0T2ZZJSXKEAFWZJKF", "current_trial": 8, "dateTime": 1512757392881, "trialdata": {"rt": 16431, "key_press": 32, "type": "INSTRUCTIONS", "trial_type": "text", "trial_index": 8, "time_elapsed": 254579, "internal_node_id": "0.0-8.0"}}, {"uniqueid": "MTK0807:33NF62TLXK9DV0T2ZZJSXKEAFWZJKF", "current_trial": 9, "dateTime": 1512757411894, "trialdata": {"rt": [7851, 9897, 11879, 15435, 17642], "responses": ["20", "13", "14", "13", "16"], "num1": [5, 3, 7, 2, 4, 7], "num2": [7, 9, 6, 9, 4, 5], "num3": [8, 1, 1, 2, 8, 3], "type": "DISTRACTOR", "conditions": [18, 1200, "a", 18000], "trial": 0, "trial_type": "math-distractor", "trial_index": 9, "time_elapsed": 273591, "internal_node_id": "0.0-9.0"}}, {"uniqueid": "MTK0807:33NF62TLXK9DV0T2ZZJSXKEAFWZJKF", "current_trial": 10, "dateTime": 1512757414897, "trialdata": {"rt": -1, "stimulus": "<p id=\"stim\">10</p>", "key_press": -1, "trial_type": "single-stim", "trial_index": 10, "time_elapsed": 276594, "internal_node_id": "0.0-10.0-0.0"}}, {"uniqueid": "MTK0807:33NF62TLXK9DV0T2ZZJSXKEAFWZJKF", "current_trial": 11, "dateTime": 1512757415898, "trialdata": {"rt": -1, "stimulus": "<p id=\"stim\">9</p>", "key_press": -1, "trial_type": "single-stim", "trial_index": 11, "time_elapsed": 277596, "internal_node_id": "0.0-10.0-1.0"}}, {"uniqueid": "MTK0807:33NF62TLXK9DV0T2ZZJSXKEAFWZJKF", "current_trial": 12, "dateTime": 1512757416901, "trialdata": {"rt": -1, "stimulus": "<p id=\"stim\">8</p>", "key_press": -1, "trial_type": "single-stim", "trial_index": 12, "time_elapsed": 278599, "internal_node_id": "0.0-10.0-2.0"}}, {"uniqueid": "MTK0807:33NF62TLXK9DV0T2ZZJSXKEAFWZJKF", "current_trial": 13, "dateTime": 1512757417903, "trialdata": {"rt": -1, "stimulus": "<p id=\"stim\">7</p>", "key_press": -1, "trial_type": "single-stim", "trial_index": 13, "time_elapsed": 279601, "internal_node_id": "0.0-10.0-3.0"}}, {"uniqueid": "MTK0807:33NF62TLXK9DV0T2ZZJSXKEAFWZJKF", "current_trial": 14, "dateTime": 1512757418904, "trialdata": {"rt": -1, "stimulus": "<p id=\"stim\">6</p>", "key_press": -1, "trial_type": "single-stim", "trial_index": 14, "time_elapsed": 280602, "internal_node_id": "0.0-10.0-4.0"}}, {"uniqueid": "MTK0807:33NF62TLXK9DV0T2ZZJSXKEAFWZJKF", "current_trial": 15, "dateTime": 1512757419905, "trialdata": {"rt": -1, "stimulus": "<p id=\"stim\">5</p>", "key_press": -1, "trial_type": "single-stim", "trial_index": 15, "time_elapsed": 281603, "internal_node_id": "0.0-10.0-5.0"}}, {"uniqueid": "MTK0807:33NF62TLXK9DV0T2ZZJSXKEAFWZJKF", "current_trial": 16, "dateTime": 1512757420907, "trialdata": {"rt": -1, "stimulus": "<p id=\"stim\">4</p>", "key_press": -1, "trial_type": "single-stim", "trial_index": 16, "time_elapsed": 282605, "internal_node_id": "0.0-10.0-6.0"}}, {"uniqueid": "MTK0807:33NF62TLXK9DV0T2ZZJSXKEAFWZJKF", "current_trial": 17, "dateTime": 1512757421909, "trialdata": {"rt": -1, "stimulus": "<p id=\"stim\">3</p>", "key_press": -1, "trial_type": "single-stim", "trial_index": 17, "time_elapsed": 283607, "internal_node_id": "0.0-10.0-7.0"}}, {"uniqueid": "MTK0807:33NF62TLXK9DV0T2ZZJSXKEAFWZJKF", "current_trial": 18, "dateTime": 1512757422912, "trialdata": {"rt": -1, "stimulus": "<p id=\"stim\">2</p>", "key_press": -1, "trial_type": "single-stim", "trial_index": 18, "time_elapsed": 284610, "internal_node_id": "0.0-10.0-8.0"}}, {"uniqueid": "MTK0807:33NF62TLXK9DV0T2ZZJSXKEAFWZJKF", "current_trial": 19, "dateTime": 1512757423913, "trialdata": {"rt": -1, "stimulus": "<p id=\"stim\">1</p>", "key_press": -1, "trial_type": "single-stim", "trial_index": 19, "time_elapsed": 285611, "internal_node_id": "0.0-10.0-9.0"}}, {"uniqueid": "MTK0807:33NF62TLXK9DV0T2ZZJSXKEAFWZJKF", "current_trial": 20, "dateTime": 1512757425415, "trialdata": {"rt": -1, "stimulus": "<p id=\"stim\">+</p>", "key_press": -1, "type": "FIXATION", "trial_type": "single-stim", "trial_index": 20, "time_elapsed": 287113, "internal_node_id": "0.0-11.0-0.0"}}, {"uniqueid": "MTK0807:33NF62TLXK9DV0T2ZZJSXKEAFWZJKF", "current_trial": 21, "dateTime": 1512757427431, "trialdata": {"rt": 1329.3333333332953, "stimulus": "/static/audio/wordpool/SHOVEL.wav", "key_press": 83, "type": "PRES_AUD", "word": "shovel", "wordID": 1294, "conditions": [18, 1200, "a", 18000], "trial": 0, "serialpos": 0, "trial_type": "single-audio", "trial_index": 21, "time_elapsed": 289129, "internal_node_id": "0.0-12.0"}}, {"uniqueid": "MTK0807:33NF62TLXK9DV0T2ZZJSXKEAFWZJKF", "current_trial": 22, "dateTime": 1512757429451, "trialdata": {"rt": 27.999999999963165, "stimulus": "/static/audio/wordpool/EUROPE.wav", "key_press": 72, "type": "PRES_AUD", "word": "europe", "wordID": 540, "conditions": [18, 1200, "a", 18000], "trial": 0, "serialpos": 1, "trial_type": "single-audio", "trial_index": 22, "time_elapsed": 291148, "internal_node_id": "0.0-13.0"}}, {"uniqueid": "MTK0807:33NF62TLXK9DV0T2ZZJSXKEAFWZJKF", "current_trial": 23, "dateTime": 1512757431616, "trialdata": {"rt": -9.333333333302107, "stimulus": "/static/audio/wordpool/COWBOY.wav", "key_press": 76, "type": "PRES_AUD", "word": "cowboy", "wordID": 394, "conditions": [18, 1200, "a", 18000], "trial": 0, "serialpos": 2, "trial_type": "single-audio", "trial_index": 23, "time_elapsed": 293314, "internal_node_id": "0.0-14.0"}}, {"uniqueid": "MTK0807:33NF62TLXK9DV0T2ZZJSXKEAFWZJKF", "current_trial": 24, "dateTime": 1512757433876, "trialdata": {"rt": -1000, "stimulus": "/static/audio/wordpool/BUNNY.wav", "key_press": -1, "type": "PRES_AUD", "word": "bunny", "wordID": 197, "conditions": [18, 1200, "a", 18000], "trial": 0, "serialpos": 3, "trial_type": "single-audio", "trial_index": 24, "time_elapsed": 295574, "internal_node_id": "0.0-15.0"}}, {"uniqueid": "MTK0807:33NF62TLXK9DV0T2ZZJSXKEAFWZJKF", "current_trial": 25, "dateTime": 1512757436052, "trialdata": {"rt": -1000, "stimulus": "/static/audio/wordpool/BURGLAR.wav", "key_press": -1, "type": "PRES_AUD", "word": "burglar", "wordID": 199, "conditions": [18, 1200, "a", 18000], "trial": 0, "serialpos": 4, "trial_type": "single-audio", "trial_index": 25, "time_elapsed": 297750, "internal_node_id": "0.0-16.0"}}, {"uniqueid": "MTK0807:33NF62TLXK9DV0T2ZZJSXKEAFWZJKF", "current_trial": 26, "dateTime": 1512757438260, "trialdata": {"rt": -1000, "stimulus": "/static/audio/wordpool/JOURNAL.wav", "key_press": -1, "type": "PRES_AUD", "word": "journal", "wordID": 759, "conditions": [18, 1200, "a", 18000], "trial": 0, "serialpos": 5, "trial_type": "single-audio", "trial_index": 26, "time_elapsed": 299958, "internal_node_id": "0.0-17.0"}}, {"uniqueid": "MTK0807:33NF62TLXK9DV0T2ZZJSXKEAFWZJKF", "current_trial": 27, "dateTime": 1512757440547, "trialdata": {"rt": -1000, "stimulus": "/static/audio/wordpool/SPIDER.wav", "key_press": -1, "type": "PRES_AUD", "word": "spider", "wordID": 1350, "conditions": [18, 1200, "a", 18000], "trial": 0, "serialpos": 6, "trial_type": "single-audio", "trial_index": 27, "time_elapsed": 302244, "internal_node_id": "0.0-18.0"}}, {"uniqueid": "MTK0807:33NF62TLXK9DV0T2ZZJSXKEAFWZJKF", "current_trial": 28, "dateTime": 1512757442615, "trialdata": {"rt": -1000, "stimulus": "/static/audio/wordpool/PICTURE.wav", "key_press": -1, "type": "PRES_AUD", "word": "picture", "wordID": 1060, "conditions": [18, 1200, "a", 18000], "trial": 0, "serialpos": 7, "trial_type": "single-audio", "trial_index": 28, "time_elapsed": 304313, "internal_node_id": "0.0-19.0"}}, {"uniqueid": "MTK0807:33NF62TLXK9DV0T2ZZJSXKEAFWZJKF", "current_trial": 29, "dateTime": 1512757444618, "trialdata": {"rt": -1000, "stimulus": "/static/audio/wordpool/INFANT.wav", "key_press": -1, "type": "PRES_AUD", "word": "infant", "wordID": 736, "conditions": [18, 1200, "a", 18000], "trial": 0, "serialpos": 8, "trial_type": "single-audio", "trial_index": 29, "time_elapsed": 306316, "internal_node_id": "0.0-20.0"}}, {"uniqueid": "MTK0807:33NF62TLXK9DV0T2ZZJSXKEAFWZJKF", "current_trial": 30, "dateTime": 1512757446822, "trialdata": {"rt": -1000, "stimulus": "/static/audio/wordpool/COCOON.wav", "key_press": -1, "type": "PRES_AUD", "word": "cocoon", "wordID": 338, "conditions": [18, 1200, "a", 18000], "trial": 0, "serialpos": 9, "trial_type": "single-audio", "trial_index": 30, "time_elapsed": 308519, "internal_node_id": "0.0-21.0"}}, {"uniqueid": "MTK0807:33NF62TLXK9DV0T2ZZJSXKEAFWZJKF", "current_trial": 31, "dateTime": 1512757449216, "trialdata": {"rt": -1000, "stimulus": "/static/audio/wordpool/PUPPY.wav", "key_press": -1, "type": "PRES_AUD", "word": "puppy", "wordID": 1143, "conditions": [18, 1200, "a", 18000], "trial": 0, "serialpos": 10, "trial_type": "single-audio", "trial_index": 31, "time_elapsed": 310914, "internal_node_id": "0.0-22.0"}}, {"uniqueid": "MTK0807:33NF62TLXK9DV0T2ZZJSXKEAFWZJKF", "current_trial": 32, "dateTime": 1512757451377, "trialdata": {"rt": -1000, "stimulus": "/static/audio/wordpool/JUGGLER.wav", "key_press": -1, "type": "PRES_AUD", "word": "juggler", "wordID": 762, "conditions": [18, 1200, "a", 18000], "trial": 0, "serialpos": 11, "trial_type": "single-audio", "trial_index": 32, "time_elapsed": 313075, "internal_node_id": "0.0-23.0"}}, {"uniqueid": "MTK0807:33NF62TLXK9DV0T2ZZJSXKEAFWZJKF", "current_trial": 33, "dateTime": 1512757453500, "trialdata": {"rt": -1000, "stimulus": "/static/audio/wordpool/OYSTER.wav", "key_press": -1, "type": "PRES_AUD", "word": "oyster", "wordID": 994, "conditions": [18, 1200, "a", 18000], "trial": 0, "serialpos": 12, "trial_type": "single-audio", "trial_index": 33, "time_elapsed": 315197, "internal_node_id": "0.0-24.0"}}, {"uniqueid": "MTK0807:33NF62TLXK9DV0T2ZZJSXKEAFWZJKF", "current_trial": 34, "dateTime": 1512757455672, "trialdata": {"rt": -1000, "stimulus": "/static/audio/wordpool/PASTA.wav", "key_press": -1, "type": "PRES_AUD", "word": "pasta", "wordID": 1020, "conditions": [18, 1200, "a", 18000], "trial": 0, "serialpos": 13, "trial_type": "single-audio", "trial_index": 34, "time_elapsed": 317370, "internal_node_id": "0.0-25.0"}}, {"uniqueid": "MTK0807:33NF62TLXK9DV0T2ZZJSXKEAFWZJKF", "current_trial": 35, "dateTime": 1512757458049, "trialdata": {"rt": -1000, "stimulus": "/static/audio/wordpool/DINER.wav", "key_press": -1, "type": "PRES_AUD", "word": "diner", "wordID": 466, "conditions": [18, 1200, "a", 18000], "trial": 0, "serialpos": 14, "trial_type": "single-audio", "trial_index": 35, "time_elapsed": 319747, "internal_node_id": "0.0-26.0"}}, {"uniqueid": "MTK0807:33NF62TLXK9DV0T2ZZJSXKEAFWZJKF", "current_trial": 36, "dateTime": 1512757460365, "trialdata": {"rt": -1000, "stimulus": "/static/audio/wordpool/SISTER.wav", "key_press": -1, "type": "PRES_AUD", "word": "sister", "wordID": 1311, "conditions": [18, 1200, "a", 18000], "trial": 0, "serialpos": 15, "trial_type": "single-audio", "trial_index": 36, "time_elapsed": 322063, "internal_node_id": "0.0-27.0"}}, {"uniqueid": "MTK0807:33NF62TLXK9DV0T2ZZJSXKEAFWZJKF", "current_trial": 37, "dateTime": 1512757462420, "trialdata": {"rt": -1000, "stimulus": "/static/audio/wordpool/TAXI.wav", "key_press": -1, "type": "PRES_AUD", "word": "taxi", "wordID": 1437, "conditions": [18, 1200, "a", 18000], "trial": 0, "serialpos": 16, "trial_type": "single-audio", "trial_index": 37, "time_elapsed": 324118, "internal_node_id": "0.0-28.0"}}, {"uniqueid": "MTK0807:33NF62TLXK9DV0T2ZZJSXKEAFWZJKF", "current_trial": 38, "dateTime": 1512757464475, "trialdata": {"rt": -1000, "stimulus": "/static/audio/wordpool/MOP.wav", "key_press": -1, "type": "PRES_AUD", "word": "mop", "wordID": 915, "conditions": [18, 1200, "a", 18000], "trial": 0, "serialpos": 17, "trial_type": "single-audio", "trial_index": 38, "time_elapsed": 326173, "internal_node_id": "0.0-29.0"}}, {"uniqueid": "MTK0807:33NF62TLXK9DV0T2ZZJSXKEAFWZJKF", "current_trial": 39, "dateTime": 1512757465786, "trialdata": {"rt": -1, "stimulus": "", "key_press": -1, "type": "PRE_RECALL_DELAY", "trial_type": "single-stim", "trial_index": 39, "time_elapsed": 327484, "internal_node_id": "0.0-30.0-0.0"}}, {"uniqueid": "MTK0807:33NF62TLXK9DV0T2ZZJSXKEAFWZJKF", "current_trial": 40, "dateTime": 1512757466287, "trialdata": {"rt": -1000, "stimulus": "/static/audio/400Hz.wav", "key_press": -1, "type": "PRE_RECALL_ALERT", "trial_type": "single-audio", "trial_index": 40, "time_elapsed": 327985, "internal_node_id": "0.0-31.0"}}, {"uniqueid": "MTK0807:33NF62TLXK9DV0T2ZZJSXKEAFWZJKF", "current_trial": 41, "dateTime": 1512757526292, "trialdata": {"rt": [2074, 3329, 4914, 6744, 8748, 35198], "recwords": ["hosta", "sister", "shovel", "cocoon", "spider", "juggler"], "type": "FREE_RECALL", "conditions": [18, 1200, "a", 18000], "trial": 0, "trial_type": "free-recall", "trial_index": 41, "time_elapsed": 387988, "internal_node_id": "0.0-32.0-0.0"}}, {"uniqueid": "MTK0807:33NF62TLXK9DV0T2ZZJSXKEAFWZJKF", "current_trial": 42, "dateTime": 1512757530547, "trialdata": {"rt": 2255, "key_press": 32, "type": "INSTRUCTIONS", "trial_type": "text", "trial_index": 42, "time_elapsed": 392245, "internal_node_id": "0.0-33.0"}}, {"uniqueid": "MTK0807:33NF62TLXK9DV0T2ZZJSXKEAFWZJKF", "current_trial": 43, "dateTime": 1512757550551, "trialdata": {"rt": [3720, 5427, 6816, 9664, 15568, 17927], "responses": ["22", "22", "11", "25", "22", "11"], "num1": [9, 9, 9, 9, 6, 4, 2], "num2": [4, 4, 1, 7, 9, 4, 2], "num3": [9, 9, 1, 9, 7, 3, 6], "type": "DISTRACTOR", "conditions": [18, 1200, "v", 18000], "trial": 1, "trial_type": "math-distractor", "trial_index": 43, "time_elapsed": 412249, "internal_node_id": "0.0-34.0"}}, {"uniqueid": "MTK0807:33NF62TLXK9DV0T2ZZJSXKEAFWZJKF", "current_trial": 44, "dateTime": 1512757553553, "trialdata": {"rt": -1, "stimulus": "<p id=\"stim\">10</p>", "key_press": -1, "trial_type": "single-stim", "trial_index": 44, "time_elapsed": 415251, "internal_node_id": "0.0-35.0-0.0"}}, {"uniqueid": "MTK0807:33NF62TLXK9DV0T2ZZJSXKEAFWZJKF", "current_trial": 45, "dateTime": 1512757554555, "trialdata": {"rt": -1, "stimulus": "<p id=\"stim\">9</p>", "key_press": -1, "trial_type": "single-stim", "trial_index": 45, "time_elapsed": 416253, "internal_node_id": "0.0-35.0-1.0"}}, {"uniqueid": "MTK0807:33NF62TLXK9DV0T2ZZJSXKEAFWZJKF", "current_trial": 46, "dateTime": 1512757555557, "trialdata": {"rt": -1, "stimulus": "<p id=\"stim\">8</p>", "key_press": -1, "trial_type": "single-stim", "trial_index": 46, "time_elapsed": 417255, "internal_node_id": "0.0-35.0-2.0"}}, {"uniqueid": "MTK0807:33NF62TLXK9DV0T2ZZJSXKEAFWZJKF", "current_trial": 47, "dateTime": 1512757556559, "trialdata": {"rt": -1, "stimulus": "<p id=\"stim\">7</p>", "key_press": -1, "trial_type": "single-stim", "trial_index": 47, "time_elapsed": 418256, "internal_node_id": "0.0-35.0-3.0"}}, {"uniqueid": "MTK0807:33NF62TLXK9DV0T2ZZJSXKEAFWZJKF", "current_trial": 48, "dateTime": 1512757557560, "trialdata": {"rt": -1, "stimulus": "<p id=\"stim\">6</p>", "key_press": -1, "trial_type": "single-stim", "trial_index": 48, "time_elapsed": 419258, "internal_node_id": "0.0-35.0-4.0"}}, {"uniqueid": "MTK0807:33NF62TLXK9DV0T2ZZJSXKEAFWZJKF", "current_trial": 49, "dateTime": 1512757558561, "trialdata": {"rt": -1, "stimulus": "<p id=\"stim\">5</p>", "key_press": -1, "trial_type": "single-stim", "trial_index": 49, "time_elapsed": 420259, "internal_node_id": "0.0-35.0-5.0"}}, {"uniqueid": "MTK0807:33NF62TLXK9DV0T2ZZJSXKEAFWZJKF", "current_trial": 50, "dateTime": 1512757559562, "trialdata": {"rt": -1, "stimulus": "<p id=\"stim\">4</p>", "key_press": -1, "trial_type": "single-stim", "trial_index": 50, "time_elapsed": 421260, "internal_node_id": "0.0-35.0-6.0"}}, {"uniqueid": "MTK0807:33NF62TLXK9DV0T2ZZJSXKEAFWZJKF", "current_trial": 51, "dateTime": 1512757560564, "trialdata": {"rt": -1, "stimulus": "<p id=\"stim\">3</p>", "key_press": -1, "trial_type": "single-stim", "trial_index": 51, "time_elapsed": 422262, "internal_node_id": "0.0-35.0-7.0"}}, {"uniqueid": "MTK0807:33NF62TLXK9DV0T2ZZJSXKEAFWZJKF", "current_trial": 52, "dateTime": 1512757561565, "trialdata": {"rt": -1, "stimulus": "<p id=\"stim\">2</p>", "key_press": -1, "trial_type": "single-stim", "trial_index": 52, "time_elapsed": 423263, "internal_node_id": "0.0-35.0-8.0"}}, {"uniqueid": "MTK0807:33NF62TLXK9DV0T2ZZJSXKEAFWZJKF", "current_trial": 53, "dateTime": 1512757562567, "trialdata": {"rt": -1, "stimulus": "<p id=\"stim\">1</p>", "key_press": -1, "trial_type": "single-stim", "trial_index": 53, "time_elapsed": 424265, "internal_node_id": "0.0-35.0-9.0"}}, {"uniqueid": "MTK0807:33NF62TLXK9DV0T2ZZJSXKEAFWZJKF", "current_trial": 54, "dateTime": 1512757564068, "trialdata": {"rt": -1, "stimulus": "<p id=\"stim\">+</p>", "key_press": -1, "type": "FIXATION", "trial_type": "single-stim", "trial_index": 54, "time_elapsed": 425766, "internal_node_id": "0.0-36.0-0.0"}}, {"uniqueid": "MTK0807:33NF62TLXK9DV0T2ZZJSXKEAFWZJKF", "current_trial": 55, "dateTime": 1512757565270, "trialdata": {"rt": -1, "stimulus": "<p id=\"stim\">BUTCHER</p>", "key_press": -1, "type": "PRES_VIS", "word": "butcher", "wordID": 202, "conditions": [18, 1200, "v", 18000], "trial": 1, "serialpos": 0, "trial_type": "single-stim", "trial_index": 55, "time_elapsed": 426968, "internal_node_id": "0.0-37.0"}}, {"uniqueid": "MTK0807:33NF62TLXK9DV0T2ZZJSXKEAFWZJKF", "current_trial": 56, "dateTime": 1512757567370, "trialdata": {"rt": -1, "stimulus": "<p id=\"stim\">SHORTS</p>", "key_press": -1, "type": "PRES_VIS", "word": "shorts", "wordID": 1292, "conditions": [18, 1200, "v", 18000], "trial": 1, "serialpos": 1, "trial_type": "single-stim", "trial_index": 56, "time_elapsed": 429068, "internal_node_id": "0.0-38.0"}}, {"uniqueid": "MTK0807:33NF62TLXK9DV0T2ZZJSXKEAFWZJKF", "current_trial": 57, "dateTime": 1512757569616, "trialdata": {"rt": -1, "stimulus": "<p id=\"stim\">FLEET</p>", "key_press": -1, "type": "PRES_VIS", "word": "fleet", "wordID": 577, "conditions": [18, 1200, "v", 18000], "trial": 1, "serialpos": 2, "trial_type": "single-stim", "trial_index": 57, "time_elapsed": 431314, "internal_node_id": "0.0-39.0"}}, {"uniqueid": "MTK0807:33NF62TLXK9DV0T2ZZJSXKEAFWZJKF", "current_trial": 58, "dateTime": 1512757571879, "trialdata": {"rt": -1, "stimulus": "<p id=\"stim\">BROOK</p>", "key_press": -1, "type": "PRES_VIS", "word": "brook", "wordID": 176, "conditions": [18, 1200, "v", 18000], "trial": 1, "serialpos": 3, "trial_type": "single-stim", "trial_index": 58, "time_elapsed": 433577, "internal_node_id": "0.0-40.0"}}, {"uniqueid": "MTK0807:33NF62TLXK9DV0T2ZZJSXKEAFWZJKF", "current_trial": 59, "dateTime": 1512757573972, "trialdata": {"rt": -1, "stimulus": "<p id=\"stim\">MARKER</p>", "key_press": -1, "type": "PRES_VIS", "word": "marker", "wordID": 869, "conditions": [18, 1200, "v", 18000], "trial": 1, "serialpos": 4, "trial_type": "single-stim", "trial_index": 59, "time_elapsed": 435670, "internal_node_id": "0.0-41.0"}}, {"uniqueid": "MTK0807:33NF62TLXK9DV0T2ZZJSXKEAFWZJKF", "current_trial": 60, "dateTime": 1512757576206, "trialdata": {"rt": -1, "stimulus": "<p id=\"stim\">GLOVE</p>", "key_press": -1, "type": "PRES_VIS", "word": "glove", "wordID": 641, "conditions": [18, 1200, "v", 18000], "trial": 1, "serialpos": 5, "trial_type": "single-stim", "trial_index": 60, "time_elapsed": 437903, "internal_node_id": "0.0-42.0"}}, {"uniqueid": "MTK0807:33NF62TLXK9DV0T2ZZJSXKEAFWZJKF", "current_trial": 61, "dateTime": 1512757578364, "trialdata": {"rt": -1, "stimulus": "<p id=\"stim\">OUTDOORS</p>", "key_press": -1, "type": "PRES_VIS", "word": "outdoors", "wordID": 986, "conditions": [18, 1200, "v", 18000], "trial": 1, "serialpos": 6, "trial_type": "single-stim", "trial_index": 61, "time_elapsed": 440062, "internal_node_id": "0.0-43.0"}}, {"uniqueid": "MTK0807:33NF62TLXK9DV0T2ZZJSXKEAFWZJKF", "current_trial": 62, "dateTime": 1512757580704, "trialdata": {"rt": -1, "stimulus": "<p id=\"stim\">SPOOL</p>", "key_press": -1, "type": "PRES_VIS", "word": "spool", "wordID": 1355, "conditions": [18, 1200, "v", 18000], "trial": 1, "serialpos": 7, "trial_type": "single-stim", "trial_index": 62, "time_elapsed": 442402, "internal_node_id": "0.0-44.0"}}, {"uniqueid": "MTK0807:33NF62TLXK9DV0T2ZZJSXKEAFWZJKF", "current_trial": 63, "dateTime": 1512757582921, "trialdata": {"rt": -1, "stimulus": "<p id=\"stim\">COUSIN</p>", "key_press": -1, "type": "PRES_VIS", "word": "cousin", "wordID": 391, "conditions": [18, 1200, "v", 18000], "trial": 1, "serialpos": 8, "trial_type": "single-stim", "trial_index": 63, "time_elapsed": 444619, "internal_node_id": "0.0-45.0"}}, {"uniqueid": "MTK0807:33NF62TLXK9DV0T2ZZJSXKEAFWZJKF", "current_trial": 64, "dateTime": 1512757585283, "trialdata": {"rt": -1, "stimulus": "<p id=\"stim\">KEEPER</p>", "key_press": -1, "type": "PRES_VIS", "word": "keeper", "wordID": 768, "conditions": [18, 1200, "v", 18000], "trial": 1, "serialpos": 9, "trial_type": "single-stim", "trial_index": 64, "time_elapsed": 446981, "internal_node_id": "0.0-46.0"}}, {"uniqueid": "MTK0807:33NF62TLXK9DV0T2ZZJSXKEAFWZJKF", "current_trial": 65, "dateTime": 1512757587664, "trialdata": {"rt": -1, "stimulus": "<p id=\"stim\">PERCH</p>", "key_press": -1, "type": "PRES_VIS", "word": "perch", "wordID": 1047, "conditions": [18, 1200, "v", 18000], "trial": 1, "serialpos": 10, "trial_type": "single-stim", "trial_index": 65, "time_elapsed": 449362, "internal_node_id": "0.0-47.0"}}, {"uniqueid": "MTK0807:33NF62TLXK9DV0T2ZZJSXKEAFWZJKF", "current_trial": 66, "dateTime": 1512757589898, "trialdata": {"rt": -1, "stimulus": "<p id=\"stim\">FRUIT</p>", "key_press": -1, "type": "PRES_VIS", "word": "fruit", "wordID": 609, "conditions": [18, 1200, "v", 18000], "trial": 1, "serialpos": 11, "trial_type": "single-stim", "trial_index": 66, "time_elapsed": 451596, "internal_node_id": "0.0-48.0"}}, {"uniqueid": "MTK0807:33NF62TLXK9DV0T2ZZJSXKEAFWZJKF", "current_trial": 67, "dateTime": 1512757592136, "trialdata": {"rt": -1, "stimulus": "<p id=\"stim\">SLIDE</p>", "key_press": -1, "type": "PRES_VIS", "word": "slide", "wordID": 1325, "conditions": [18, 1200, "v", 18000], "trial": 1, "serialpos": 12, "trial_type": "single-stim", "trial_index": 67, "time_elapsed": 453834, "internal_node_id": "0.0-49.0"}}, {"uniqueid": "MTK0807:33NF62TLXK9DV0T2ZZJSXKEAFWZJKF", "current_trial": 68, "dateTime": 1512757594178, "trialdata": {"rt": -1, "stimulus": "<p id=\"stim\">HEDGE</p>", "key_press": -1, "type": "PRES_VIS", "word": "hedge", "wordID": 698, "conditions": [18, 1200, "v", 18000], "trial": 1, "serialpos": 13, "trial_type": "single-stim", "trial_index": 68, "time_elapsed": 455872, "internal_node_id": "0.0-50.0"}}, {"uniqueid": "MTK0807:33NF62TLXK9DV0T2ZZJSXKEAFWZJKF", "current_trial": 69, "dateTime": 1512757596354, "trialdata": {"rt": -1, "stimulus": "<p id=\"stim\">GAVEL</p>", "key_press": -1, "type": "PRES_VIS", "word": "gavel", "wordID": 626, "conditions": [18, 1200, "v", 18000], "trial": 1, "serialpos": 14, "trial_type": "single-stim", "trial_index": 69, "time_elapsed": 458052, "internal_node_id": "0.0-51.0"}}, {"uniqueid": "MTK0807:33NF62TLXK9DV0T2ZZJSXKEAFWZJKF", "current_trial": 70, "dateTime": 1512757598374, "trialdata": {"rt": -1, "stimulus": "<p id=\"stim\">MARROW</p>", "key_press": -1, "type": "PRES_VIS", "word": "marrow", "wordID": 871, "conditions": [18, 1200, "v", 18000], "trial": 1, "serialpos": 15, "trial_type": "single-stim", "trial_index": 70, "time_elapsed": 460072, "internal_node_id": "0.0-52.0"}}, {"uniqueid": "MTK0807:33NF62TLXK9DV0T2ZZJSXKEAFWZJKF", "current_trial": 71, "dateTime": 1512757600393, "trialdata": {"rt": -1, "stimulus": "<p id=\"stim\">SEAL</p>", "key_press": -1, "type": "PRES_VIS", "word": "seal", "wordID": 1261, "conditions": [18, 1200, "v", 18000], "trial": 1, "serialpos": 16, "trial_type": "single-stim", "trial_index": 71, "time_elapsed": 462091, "internal_node_id": "0.0-53.0"}}, {"uniqueid": "MTK0807:33NF62TLXK9DV0T2ZZJSXKEAFWZJKF", "current_trial": 72, "dateTime": 1512757602779, "trialdata": {"rt": -1, "stimulus": "<p id=\"stim\">SEAGULL</p>", "key_press": -1, "type": "PRES_VIS", "word": "seagull", "wordID": 1260, "conditions": [18, 1200, "v", 18000], "trial": 1, "serialpos": 17, "trial_type": "single-stim", "trial_index": 72, "time_elapsed": 464477, "internal_node_id": "0.0-54.0"}}, {"uniqueid": "MTK0807:33NF62TLXK9DV0T2ZZJSXKEAFWZJKF", "current_trial": 73, "dateTime": 1512757605254, "trialdata": {"rt": -1, "stimulus": "", "key_press": -1, "type": "PRE_RECALL_DELAY", "trial_type": "single-stim", "trial_index": 73, "time_elapsed": 466952, "internal_node_id": "0.0-55.0-0.0"}}, {"uniqueid": "MTK0807:33NF62TLXK9DV0T2ZZJSXKEAFWZJKF", "current_trial": 74, "dateTime": 1512757605755, "trialdata": {"rt": -1000, "stimulus": "/static/audio/400Hz.wav", "key_press": -1, "type": "PRE_RECALL_ALERT", "trial_type": "single-audio", "trial_index": 74, "time_elapsed": 467453, "internal_node_id": "0.0-56.0"}}, {"uniqueid": "MTK0807:33NF62TLXK9DV0T2ZZJSXKEAFWZJKF", "current_trial": 75, "dateTime": 1512757665764, "trialdata": {"rt": [2721, 4121, 6768, 8034, 13732, 16619, 18627, 30848], "recwords": ["seagull", "brook", "cousin", "keeper", "gaval", "fruit", "hedge", "butcher"], "type": "FREE_RECALL", "conditions": [18, 1200, "v", 18000], "trial": 1, "trial_type": "free-recall", "trial_index": 75, "time_elapsed": 527457, "internal_node_id": "0.0-57.0-0.0"}}, {"uniqueid": "MTK0807:33NF62TLXK9DV0T2ZZJSXKEAFWZJKF", "current_trial": 76, "dateTime": 1512757676221, "trialdata": {"rt": 8453, "key_press": 32, "type": "INSTRUCTIONS", "trial_type": "text", "trial_index": 76, "time_elapsed": 537916, "internal_node_id": "0.0-58.0"}}, {"uniqueid": "MTK0807:33NF62TLXK9DV0T2ZZJSXKEAFWZJKF", "current_trial": 77, "dateTime": 1512757701226, "trialdata": {"rt": [2411, 6239, 7838, 10330, 13025, 14952, 18739, 21630], "responses": ["19", "25", "14", "10", "18", "8", "18", "21"], "num1": [5, 7, 2, 2, 9, 2, 5, 6, 6], "num2": [9, 9, 6, 6, 4, 3, 9, 6, 9], "num3": [5, 9, 6, 2, 5, 3, 4, 9, 5], "type": "DISTRACTOR", "conditions": [24, 1600, "v", 24000], "trial": 2, "trial_type": "math-distractor", "trial_index": 77, "time_elapsed": 562924, "internal_node_id": "0.0-59.0"}}, {"uniqueid": "MTK0807:33NF62TLXK9DV0T2ZZJSXKEAFWZJKF", "current_trial": 78, "dateTime": 1512757704227, "trialdata": {"rt": -1, "stimulus": "<p id=\"stim\">10</p>", "key_press": -1, "trial_type": "single-stim", "trial_index": 78, "time_elapsed": 565925, "internal_node_id": "0.0-60.0-0.0"}}, {"uniqueid": "MTK0807:33NF62TLXK9DV0T2ZZJSXKEAFWZJKF", "current_trial": 79, "dateTime": 1512757705228, "trialdata": {"rt": -1, "stimulus": "<p id=\"stim\">9</p>", "key_press": -1, "trial_type": "single-stim", "trial_index": 79, "time_elapsed": 566926, "internal_node_id": "0.0-60.0-1.0"}}, {"uniqueid": "MTK0807:33NF62TLXK9DV0T2ZZJSXKEAFWZJKF", "current_trial": 80, "dateTime": 1512757706230, "trialdata": {"rt": -1, "stimulus": "<p id=\"stim\">8</p>", "key_press": -1, "trial_type": "single-stim", "trial_index": 80, "time_elapsed": 567928, "internal_node_id": "0.0-60.0-2.0"}}, {"uniqueid": "MTK0807:33NF62TLXK9DV0T2ZZJSXKEAFWZJKF", "current_trial": 81, "dateTime": 1512757707231, "trialdata": {"rt": -1, "stimulus": "<p id=\"stim\">7</p>", "key_press": -1, "trial_type": "single-stim", "trial_index": 81, "time_elapsed": 568928, "internal_node_id": "0.0-60.0-3.0"}}, {"uniqueid": "MTK0807:33NF62TLXK9DV0T2ZZJSXKEAFWZJKF", "current_trial": 82, "dateTime": 1512757708233, "trialdata": {"rt": -1, "stimulus": "<p id=\"stim\">6</p>", "key_press": -1, "trial_type": "single-stim", "trial_index": 82, "time_elapsed": 569931, "internal_node_id": "0.0-60.0-4.0"}}, {"uniqueid": "MTK0807:33NF62TLXK9DV0T2ZZJSXKEAFWZJKF", "current_trial": 83, "dateTime": 1512757709234, "trialdata": {"rt": -1, "stimulus": "<p id=\"stim\">5</p>", "key_press": -1, "trial_type": "single-stim", "trial_index": 83, "time_elapsed": 570932, "internal_node_id": "0.0-60.0-5.0"}}, {"uniqueid": "MTK0807:33NF62TLXK9DV0T2ZZJSXKEAFWZJKF", "current_trial": 84, "dateTime": 1512757710236, "trialdata": {"rt": -1, "stimulus": "<p id=\"stim\">4</p>", "key_press": -1, "trial_type": "single-stim", "trial_index": 84, "time_elapsed": 571934, "internal_node_id": "0.0-60.0-6.0"}}, {"uniqueid": "MTK0807:33NF62TLXK9DV0T2ZZJSXKEAFWZJKF", "current_trial": 85, "dateTime": 1512757711237, "trialdata": {"rt": -1, "stimulus": "<p id=\"stim\">3</p>", "key_press": -1, "trial_type": "single-stim", "trial_index": 85, "time_elapsed": 572935, "internal_node_id": "0.0-60.0-7.0"}}, {"uniqueid": "MTK0807:33NF62TLXK9DV0T2ZZJSXKEAFWZJKF", "current_trial": 86, "dateTime": 1512757712241, "trialdata": {"rt": -1, "stimulus": "<p id=\"stim\">2</p>", "key_press": -1, "trial_type": "single-stim", "trial_index": 86, "time_elapsed": 573939, "internal_node_id": "0.0-60.0-8.0"}}, {"uniqueid": "MTK0807:33NF62TLXK9DV0T2ZZJSXKEAFWZJKF", "current_trial": 87, "dateTime": 1512757713243, "trialdata": {"rt": -1, "stimulus": "<p id=\"stim\">1</p>", "key_press": -1, "trial_type": "single-stim", "trial_index": 87, "time_elapsed": 574941, "internal_node_id": "0.0-60.0-9.0"}}, {"uniqueid": "MTK0807:33NF62TLXK9DV0T2ZZJSXKEAFWZJKF", "current_trial": 88, "dateTime": 1512757714744, "trialdata": {"rt": -1, "stimulus": "<p id=\"stim\">+</p>", "key_press": -1, "type": "FIXATION", "trial_type": "single-stim", "trial_index": 88, "time_elapsed": 576442, "internal_node_id": "0.0-61.0-0.0"}}, {"uniqueid": "MTK0807:33NF62TLXK9DV0T2ZZJSXKEAFWZJKF", "current_trial": 89, "dateTime": 1512757716347, "trialdata": {"rt": -1, "stimulus": "<p id=\"stim\">DANCER</p>", "key_press": -1, "type": "PRES_VIS", "word": "dancer", "wordID": 436, "conditions": [24, 1600, "v", 24000], "trial": 2, "serialpos": 0, "trial_type": "single-stim", "trial_index": 89, "time_elapsed": 578045, "internal_node_id": "0.0-62.0"}}, {"uniqueid": "MTK0807:33NF62TLXK9DV0T2ZZJSXKEAFWZJKF", "current_trial": 90, "dateTime": 1512757718835, "trialdata": {"rt": -1, "stimulus": "<p id=\"stim\">ACTOR</p>", "key_press": -1, "type": "PRES_VIS", "word": "actor", "wordID": 4, "conditions": [24, 1600, "v", 24000], "trial": 2, "serialpos": 1, "trial_type": "single-stim", "trial_index": 90, "time_elapsed": 580533, "internal_node_id": "0.0-63.0"}}, {"uniqueid": "MTK0807:33NF62TLXK9DV0T2ZZJSXKEAFWZJKF", "current_trial": 91, "dateTime": 1512757721585, "trialdata": {"rt": -1, "stimulus": "<p id=\"stim\">SCULPTURE</p>", "key_press": -1, "type": "PRES_VIS", "word": "sculpture", "wordID": 1257, "conditions": [24, 1600, "v", 24000], "trial": 2, "serialpos": 2, "trial_type": "single-stim", "trial_index": 91, "time_elapsed": 583283, "internal_node_id": "0.0-64.0"}}, {"uniqueid": "MTK0807:33NF62TLXK9DV0T2ZZJSXKEAFWZJKF", "current_trial": 92, "dateTime": 1512757723998, "trialdata": {"rt": -1, "stimulus": "<p id=\"stim\">ANKLE</p>", "key_press": -1, "type": "PRES_VIS", "word": "ankle", "wordID": 23, "conditions": [24, 1600, "v", 24000], "trial": 2, "serialpos": 3, "trial_type": "single-stim", "trial_index": 92, "time_elapsed": 585695, "internal_node_id": "0.0-65.0"}}, {"uniqueid": "MTK0807:33NF62TLXK9DV0T2ZZJSXKEAFWZJKF", "current_trial": 93, "dateTime": 1512757726797, "trialdata": {"rt": -1, "stimulus": "<p id=\"stim\">SHOULDER</p>", "key_press": -1, "type": "PRES_VIS", "word": "shoulder", "wordID": 1293, "conditions": [24, 1600, "v", 24000], "trial": 2, "serialpos": 4, "trial_type": "single-stim", "trial_index": 93, "time_elapsed": 588495, "internal_node_id": "0.0-66.0"}}, {"uniqueid": "MTK0807:33NF62TLXK9DV0T2ZZJSXKEAFWZJKF", "current_trial": 94, "dateTime": 1512757729499, "trialdata": {"rt": -1, "stimulus": "<p id=\"stim\">LONDON</p>", "key_press": -1, "type": "PRES_VIS", "word": "london", "wordID": 842, "conditions": [24, 1600, "v", 24000], "trial": 2, "serialpos": 5, "trial_type": "single-stim", "trial_index": 94, "time_elapsed": 591197, "internal_node_id": "0.0-67.0"}}, {"uniqueid": "MTK0807:33NF62TLXK9DV0T2ZZJSXKEAFWZJKF", "current_trial": 95, "dateTime": 1512757732269, "trialdata": {"rt": -1, "stimulus": "<p id=\"stim\">SIDEWALK</p>", "key_press": -1, "type": "PRES_VIS", "word": "sidewalk", "wordID": 1302, "conditions": [24, 1600, "v", 24000], "trial": 2, "serialpos": 6, "trial_type": "single-stim", "trial_index": 95, "time_elapsed": 593967, "internal_node_id": "0.0-68.0"}}, {"uniqueid": "MTK0807:33NF62TLXK9DV0T2ZZJSXKEAFWZJKF", "current_trial": 96, "dateTime": 1512757734685, "trialdata": {"rt": -1, "stimulus": "<p id=\"stim\">PIZZA</p>", "key_press": -1, "type": "PRES_VIS", "word": "pizza", "wordID": 1078, "conditions": [24, 1600, "v", 24000], "trial": 2, "serialpos": 7, "trial_type": "single-stim", "trial_index": 96, "time_elapsed": 596383, "internal_node_id": "0.0-69.0"}}, {"uniqueid": "MTK0807:33NF62TLXK9DV0T2ZZJSXKEAFWZJKF", "current_trial": 97, "dateTime": 1512757737177, "trialdata": {"rt": -1, "stimulus": "<p id=\"stim\">CAPTIVE</p>", "key_press": -1, "type": "PRES_VIS", "word": "captive", "wordID": 239, "conditions": [24, 1600, "v", 24000], "trial": 2, "serialpos": 8, "trial_type": "single-stim", "trial_index": 97, "time_elapsed": 598875, "internal_node_id": "0.0-70.0"}}, {"uniqueid": "MTK0807:33NF62TLXK9DV0T2ZZJSXKEAFWZJKF", "current_trial": 98, "dateTime": 1512757739760, "trialdata": {"rt": -1, "stimulus": "<p id=\"stim\">BELLY</p>", "key_press": -1, "type": "PRES_VIS", "word": "belly", "wordID": 118, "conditions": [24, 1600, "v", 24000], "trial": 2, "serialpos": 9, "trial_type": "single-stim", "trial_index": 98, "time_elapsed": 601458, "internal_node_id": "0.0-71.0"}}, {"uniqueid": "MTK0807:33NF62TLXK9DV0T2ZZJSXKEAFWZJKF", "current_trial": 99, "dateTime": 1512757742555, "trialdata": {"rt": -1, "stimulus": "<p id=\"stim\">STATUE</p>", "key_press": -1, "type": "PRES_VIS", "word": "statue", "wordID": 1373, "conditions": [24, 1600, "v", 24000], "trial": 2, "serialpos": 10, "trial_type": "single-stim", "trial_index": 99, "time_elapsed": 604253, "internal_node_id": "0.0-72.0"}}, {"uniqueid": "MTK0807:33NF62TLXK9DV0T2ZZJSXKEAFWZJKF", "current_trial": 100, "dateTime": 1512757745084, "trialdata": {"rt": -1, "stimulus": "<p id=\"stim\">OUTFIT</p>", "key_press": -1, "type": "PRES_VIS", "word": "outfit", "wordID": 987, "conditions": [24, 1600, "v", 24000], "trial": 2, "serialpos": 11, "trial_type": "single-stim", "trial_index": 100, "time_elapsed": 606782, "internal_node_id": "0.0-73.0"}}, {"uniqueid": "MTK0807:33NF62TLXK9DV0T2ZZJSXKEAFWZJKF", "current_trial": 101, "dateTime": 1512757747670, "trialdata": {"rt": -1, "stimulus": "<p id=\"stim\">TWIG</p>", "key_press": -1, "type": "PRES_VIS", "word": "twig", "wordID": 1526, "conditions": [24, 1600, "v", 24000], "trial": 2, "serialpos": 12, "trial_type": "single-stim", "trial_index": 101, "time_elapsed": 609368, "internal_node_id": "0.0-74.0"}}, {"uniqueid": "MTK0807:33NF62TLXK9DV0T2ZZJSXKEAFWZJKF", "current_trial": 102, "dateTime": 1512757750199, "trialdata": {"rt": -1, "stimulus": "<p id=\"stim\">DRINK</p>", "key_press": -1, "type": "PRES_VIS", "word": "drink", "wordID": 497, "conditions": [24, 1600, "v", 24000], "trial": 2, "serialpos": 13, "trial_type": "single-stim", "trial_index": 102, "time_elapsed": 611897, "internal_node_id": "0.0-75.0"}}, {"uniqueid": "MTK0807:33NF62TLXK9DV0T2ZZJSXKEAFWZJKF", "current_trial": 103, "dateTime": 1512757752902, "trialdata": {"rt": -1, "stimulus": "<p id=\"stim\">HANDBAG</p>", "key_press": -1, "type": "PRES_VIS", "word": "handbag", "wordID": 683, "conditions": [24, 1600, "v", 24000], "trial": 2, "serialpos": 14, "trial_type": "single-stim", "trial_index": 103, "time_elapsed": 614600, "internal_node_id": "0.0-76.0"}}, {"uniqueid": "MTK0807:33NF62TLXK9DV0T2ZZJSXKEAFWZJKF", "current_trial": 104, "dateTime": 1512757755371, "trialdata": {"rt": -1, "stimulus": "<p id=\"stim\">WAITRESS</p>", "key_press": -1, "type": "PRES_VIS", "word": "waitress", "wordID": 1580, "conditions": [24, 1600, "v", 24000], "trial": 2, "serialpos": 15, "trial_type": "single-stim", "trial_index": 104, "time_elapsed": 617069, "internal_node_id": "0.0-77.0"}}, {"uniqueid": "MTK0807:33NF62TLXK9DV0T2ZZJSXKEAFWZJKF", "current_trial": 105, "dateTime": 1512757757962, "trialdata": {"rt": -1, "stimulus": "<p id=\"stim\">SUITCASE</p>", "key_press": -1, "type": "PRES_VIS", "word": "suitcase", "wordID": 1402, "conditions": [24, 1600, "v", 24000], "trial": 2, "serialpos": 16, "trial_type": "single-stim", "trial_index": 105, "time_elapsed": 619660, "internal_node_id": "0.0-78.0"}}, {"uniqueid": "MTK0807:33NF62TLXK9DV0T2ZZJSXKEAFWZJKF", "current_trial": 106, "dateTime": 1512757760693, "trialdata": {"rt": -1, "stimulus": "<p id=\"stim\">SKIRT</p>", "key_press": -1, "type": "PRES_VIS", "word": "skirt", "wordID": 1318, "conditions": [24, 1600, "v", 24000], "trial": 2, "serialpos": 17, "trial_type": "single-stim", "trial_index": 106, "time_elapsed": 622390, "internal_node_id": "0.0-79.0"}}, {"uniqueid": "MTK0807:33NF62TLXK9DV0T2ZZJSXKEAFWZJKF", "current_trial": 107, "dateTime": 1512757763190, "trialdata": {"rt": -1, "stimulus": "<p id=\"stim\">STOVE</p>", "key_press": -1, "type": "PRES_VIS", "word": "stove", "wordID": 1387, "conditions": [24, 1600, "v", 24000], "trial": 2, "serialpos": 18, "trial_type": "single-stim", "trial_index": 107, "time_elapsed": 624888, "internal_node_id": "0.0-80.0"}}, {"uniqueid": "MTK0807:33NF62TLXK9DV0T2ZZJSXKEAFWZJKF", "current_trial": 108, "dateTime": 1512757765892, "trialdata": {"rt": -1, "stimulus": "<p id=\"stim\">CIGAR</p>", "key_press": -1, "type": "PRES_VIS", "word": "cigar", "wordID": 307, "conditions": [24, 1600, "v", 24000], "trial": 2, "serialpos": 19, "trial_type": "single-stim", "trial_index": 108, "time_elapsed": 627590, "internal_node_id": "0.0-81.0"}}, {"uniqueid": "MTK0807:33NF62TLXK9DV0T2ZZJSXKEAFWZJKF", "current_trial": 109, "dateTime": 1512757768413, "trialdata": {"rt": -1, "stimulus": "<p id=\"stim\">CHAPEL</p>", "key_press": -1, "type": "PRES_VIS", "word": "chapel", "wordID": 279, "conditions": [24, 1600, "v", 24000], "trial": 2, "serialpos": 20, "trial_type": "single-stim", "trial_index": 109, "time_elapsed": 630111, "internal_node_id": "0.0-82.0"}}, {"uniqueid": "MTK0807:33NF62TLXK9DV0T2ZZJSXKEAFWZJKF", "current_trial": 110, "dateTime": 1512757770924, "trialdata": {"rt": -1, "stimulus": "<p id=\"stim\">VALVE</p>", "key_press": -1, "type": "PRES_VIS", "word": "valve", "wordID": 1545, "conditions": [24, 1600, "v", 24000], "trial": 2, "serialpos": 21, "trial_type": "single-stim", "trial_index": 110, "time_elapsed": 632621, "internal_node_id": "0.0-83.0"}}, {"uniqueid": "MTK0807:33NF62TLXK9DV0T2ZZJSXKEAFWZJKF", "current_trial": 111, "dateTime": 1512757773652, "trialdata": {"rt": -1, "stimulus": "<p id=\"stim\">PISTON</p>", "key_press": -1, "type": "PRES_VIS", "word": "piston", "wordID": 1075, "conditions": [24, 1600, "v", 24000], "trial": 2, "serialpos": 22, "trial_type": "single-stim", "trial_index": 111, "time_elapsed": 635350, "internal_node_id": "0.0-84.0"}}, {"uniqueid": "MTK0807:33NF62TLXK9DV0T2ZZJSXKEAFWZJKF", "current_trial": 112, "dateTime": 1512757776191, "trialdata": {"rt": -1, "stimulus": "<p id=\"stim\">HOSTESS</p>", "key_press": -1, "type": "PRES_VIS", "word": "hostess", "wordID": 722, "conditions": [24, 1600, "v", 24000], "trial": 2, "serialpos": 23, "trial_type": "single-stim", "trial_index": 112, "time_elapsed": 637889, "internal_node_id": "0.0-85.0"}}, {"uniqueid": "MTK0807:33NF62TLXK9DV0T2ZZJSXKEAFWZJKF", "current_trial": 113, "dateTime": 1512757778543, "trialdata": {"rt": -1, "stimulus": "", "key_press": -1, "type": "PRE_RECALL_DELAY", "trial_type": "single-stim", "trial_index": 113, "time_elapsed": 640240, "internal_node_id": "0.0-86.0-0.0"}}, {"uniqueid": "MTK0807:33NF62TLXK9DV0T2ZZJSXKEAFWZJKF", "current_trial": 114, "dateTime": 1512757779044, "trialdata": {"rt": -1000, "stimulus": "/static/audio/400Hz.wav", "key_press": -1, "type": "PRE_RECALL_ALERT", "trial_type": "single-audio", "trial_index": 114, "time_elapsed": 640742, "internal_node_id": "0.0-87.0"}}, {"uniqueid": "MTK0807:33NF62TLXK9DV0T2ZZJSXKEAFWZJKF", "current_trial": 115, "dateTime": 1512757839049, "trialdata": {"rt": [10531, 11730, 13003, 14186, 16349, 17579], "recwords": ["waitress", "cigar", "chapel", "statue", "dancer", "actor"], "type": "FREE_RECALL", "conditions": [24, 1600, "v", 24000], "trial": 2, "trial_type": "free-recall", "trial_index": 115, "time_elapsed": 700745, "internal_node_id": "0.0-88.0-0.0"}}, {"uniqueid": "MTK0807:33NF62TLXK9DV0T2ZZJSXKEAFWZJKF", "current_trial": 116, "dateTime": 1512757853331, "trialdata": {"rt": 12279, "key_press": 32, "type": "INSTRUCTIONS", "trial_type": "text", "trial_index": 116, "time_elapsed": 715027, "internal_node_id": "0.0-89.0"}}, {"uniqueid": "MTK0807:33NF62TLXK9DV0T2ZZJSXKEAFWZJKF", "current_trial": 117, "dateTime": 1512757879338, "trialdata": {"rt": [3243, 5369, 6890, 8568, 9910, 11744, 14990, 17129, 18905, 20893, 23924], "responses": ["21", "10", "12", "18", "12", "7", "13", "13", "17", "15", "13"], "num1": [8, 5, 4, 9, 2, 3, 5, 1, 1, 1, 4, 3], "num2": [3, 2, 8, 8, 2, 4, 2, 6, 9, 6, 8, 7], "num3": [9, 3, 4, 1, 6, 2, 6, 6, 7, 8, 1, 2], "type": "DISTRACTOR", "conditions": [12, 800, "v", 24000], "trial": 3, "trial_type": "math-distractor", "trial_index": 117, "time_elapsed": 741035, "internal_node_id": "0.0-90.0"}}, {"uniqueid": "MTK0807:33NF62TLXK9DV0T2ZZJSXKEAFWZJKF", "current_trial": 118, "dateTime": 1512757882340, "trialdata": {"rt": -1, "stimulus": "<p id=\"stim\">10</p>", "key_press": -1, "trial_type": "single-stim", "trial_index": 118, "time_elapsed": 744038, "internal_node_id": "0.0-91.0-0.0"}}, {"uniqueid": "MTK0807:33NF62TLXK9DV0T2ZZJSXKEAFWZJKF", "current_trial": 119, "dateTime": 1512757883341, "trialdata": {"rt": -1, "stimulus": "<p id=\"stim\">9</p>", "key_press": -1, "trial_type": "single-stim", "trial_index": 119, "time_elapsed": 745039, "internal_node_id": "0.0-91.0-1.0"}}, {"uniqueid": "MTK0807:33NF62TLXK9DV0T2ZZJSXKEAFWZJKF", "current_trial": 120, "dateTime": 1512757884342, "trialdata": {"rt": -1, "stimulus": "<p id=\"stim\">8</p>", "key_press": -1, "trial_type": "single-stim", "trial_index": 120, "time_elapsed": 746040, "internal_node_id": "0.0-91.0-2.0"}}, {"uniqueid": "MTK0807:33NF62TLXK9DV0T2ZZJSXKEAFWZJKF", "current_trial": 121, "dateTime": 1512757885344, "trialdata": {"rt": -1, "stimulus": "<p id=\"stim\">7</p>", "key_press": -1, "trial_type": "single-stim", "trial_index": 121, "time_elapsed": 747042, "internal_node_id": "0.0-91.0-3.0"}}, {"uniqueid": "MTK0807:33NF62TLXK9DV0T2ZZJSXKEAFWZJKF", "current_trial": 122, "dateTime": 1512757886345, "trialdata": {"rt": -1, "stimulus": "<p id=\"stim\">6</p>", "key_press": -1, "trial_type": "single-stim", "trial_index": 122, "time_elapsed": 748043, "internal_node_id": "0.0-91.0-4.0"}}, {"uniqueid": "MTK0807:33NF62TLXK9DV0T2ZZJSXKEAFWZJKF", "current_trial": 123, "dateTime": 1512757887346, "trialdata": {"rt": -1, "stimulus": "<p id=\"stim\">5</p>", "key_press": -1, "trial_type": "single-stim", "trial_index": 123, "time_elapsed": 749044, "internal_node_id": "0.0-91.0-5.0"}}, {"uniqueid": "MTK0807:33NF62TLXK9DV0T2ZZJSXKEAFWZJKF", "current_trial": 124, "dateTime": 1512757888348, "trialdata": {"rt": -1, "stimulus": "<p id=\"stim\">4</p>", "key_press": -1, "trial_type": "single-stim", "trial_index": 124, "time_elapsed": 750046, "internal_node_id": "0.0-91.0-6.0"}}, {"uniqueid": "MTK0807:33NF62TLXK9DV0T2ZZJSXKEAFWZJKF", "current_trial": 125, "dateTime": 1512757889349, "trialdata": {"rt": -1, "stimulus": "<p id=\"stim\">3</p>", "key_press": -1, "trial_type": "single-stim", "trial_index": 125, "time_elapsed": 751047, "internal_node_id": "0.0-91.0-7.0"}}, {"uniqueid": "MTK0807:33NF62TLXK9DV0T2ZZJSXKEAFWZJKF", "current_trial": 126, "dateTime": 1512757890351, "trialdata": {"rt": -1, "stimulus": "<p id=\"stim\">2</p>", "key_press": -1, "trial_type": "single-stim", "trial_index": 126, "time_elapsed": 752049, "internal_node_id": "0.0-91.0-8.0"}}, {"uniqueid": "MTK0807:33NF62TLXK9DV0T2ZZJSXKEAFWZJKF", "current_trial": 127, "dateTime": 1512757891352, "trialdata": {"rt": -1, "stimulus": "<p id=\"stim\">1</p>", "key_press": -1, "trial_type": "single-stim", "trial_index": 127, "time_elapsed": 753050, "internal_node_id": "0.0-91.0-9.0"}}, {"uniqueid": "MTK0807:33NF62TLXK9DV0T2ZZJSXKEAFWZJKF", "current_trial": 128, "dateTime": 1512757892853, "trialdata": {"rt": -1, "stimulus": "<p id=\"stim\">+</p>", "key_press": -1, "type": "FIXATION", "trial_type": "single-stim", "trial_index": 128, "time_elapsed": 754551, "internal_node_id": "0.0-92.0-0.0"}}, {"uniqueid": "MTK0807:33NF62TLXK9DV0T2ZZJSXKEAFWZJKF", "current_trial": 129, "dateTime": 1512757893654, "trialdata": {"rt": -1, "stimulus": "<p id=\"stim\">HAMPER</p>", "key_press": -1, "type": "PRES_VIS", "word": "hamper", "wordID": 681, "conditions": [12, 800, "v", 24000], "trial": 3, "serialpos": 0, "trial_type": "single-stim", "trial_index": 129, "time_elapsed": 755352, "internal_node_id": "0.0-93.0"}}, {"uniqueid": "MTK0807:33NF62TLXK9DV0T2ZZJSXKEAFWZJKF", "current_trial": 130, "dateTime": 1512757895648, "trialdata": {"rt": -1, "stimulus": "<p id=\"stim\">OZONE</p>", "key_press": -1, "type": "PRES_VIS", "word": "ozone", "wordID": 995, "conditions": [12, 800, "v", 24000], "trial": 3, "serialpos": 1, "trial_type": "single-stim", "trial_index": 130, "time_elapsed": 757346, "internal_node_id": "0.0-94.0"}}, {"uniqueid": "MTK0807:33NF62TLXK9DV0T2ZZJSXKEAFWZJKF", "current_trial": 131, "dateTime": 1512757897361, "trialdata": {"rt": -1, "stimulus": "<p id=\"stim\">MOTOR</p>", "key_press": -1, "type": "PRES_VIS", "word": "motor", "wordID": 921, "conditions": [12, 800, "v", 24000], "trial": 3, "serialpos": 2, "trial_type": "single-stim", "trial_index": 131, "time_elapsed": 759059, "internal_node_id": "0.0-95.0"}}, {"uniqueid": "MTK0807:33NF62TLXK9DV0T2ZZJSXKEAFWZJKF", "current_trial": 132, "dateTime": 1512757899328, "trialdata": {"rt": -1, "stimulus": "<p id=\"stim\">BIKE</p>", "key_press": -1, "type": "PRES_VIS", "word": "bike", "wordID": 124, "conditions": [12, 800, "v", 24000], "trial": 3, "serialpos": 3, "trial_type": "single-stim", "trial_index": 132, "time_elapsed": 761026, "internal_node_id": "0.0-96.0"}}, {"uniqueid": "MTK0807:33NF62TLXK9DV0T2ZZJSXKEAFWZJKF", "current_trial": 133, "dateTime": 1512757900986, "trialdata": {"rt": -1, "stimulus": "<p id=\"stim\">LAGOON</p>", "key_press": -1, "type": "PRES_VIS", "word": "lagoon", "wordID": 794, "conditions": [12, 800, "v", 24000], "trial": 3, "serialpos": 4, "trial_type": "single-stim", "trial_index": 133, "time_elapsed": 762684, "internal_node_id": "0.0-97.0"}}, {"uniqueid": "MTK0807:33NF62TLXK9DV0T2ZZJSXKEAFWZJKF", "current_trial": 134, "dateTime": 1512757902778, "trialdata": {"rt": -1, "stimulus": "<p id=\"stim\">SILK</p>", "key_press": -1, "type": "PRES_VIS", "word": "silk", "wordID": 1306, "conditions": [12, 800, "v", 24000], "trial": 3, "serialpos": 5, "trial_type": "single-stim", "trial_index": 134, "time_elapsed": 764476, "internal_node_id": "0.0-98.0"}}, {"uniqueid": "MTK0807:33NF62TLXK9DV0T2ZZJSXKEAFWZJKF", "current_trial": 135, "dateTime": 1512757904454, "trialdata": {"rt": -1, "stimulus": "<p id=\"stim\">LACE</p>", "key_press": -1, "type": "PRES_VIS", "word": "lace", "wordID": 791, "conditions": [12, 800, "v", 24000], "trial": 3, "serialpos": 6, "trial_type": "single-stim", "trial_index": 135, "time_elapsed": 766152, "internal_node_id": "0.0-99.0"}}, {"uniqueid": "MTK0807:33NF62TLXK9DV0T2ZZJSXKEAFWZJKF", "current_trial": 136, "dateTime": 1512757906083, "trialdata": {"rt": -1, "stimulus": "<p id=\"stim\">PROTON</p>", "key_press": -1, "type": "PRES_VIS", "word": "proton", "wordID": 1131, "conditions": [12, 800, "v", 24000], "trial": 3, "serialpos": 7, "trial_type": "single-stim", "trial_index": 136, "time_elapsed": 767781, "internal_node_id": "0.0-100.0"}}, {"uniqueid": "MTK0807:33NF62TLXK9DV0T2ZZJSXKEAFWZJKF", "current_trial": 137, "dateTime": 1512757907752, "trialdata": {"rt": -1, "stimulus": "<p id=\"stim\">DUSTPAN</p>", "key_press": -1, "type": "PRES_VIS", "word": "dustpan", "wordID": 508, "conditions": [12, 800, "v", 24000], "trial": 3, "serialpos": 8, "trial_type": "single-stim", "trial_index": 137, "time_elapsed": 769450, "internal_node_id": "0.0-101.0"}}, {"uniqueid": "MTK0807:33NF62TLXK9DV0T2ZZJSXKEAFWZJKF", "current_trial": 138, "dateTime": 1512757909546, "trialdata": {"rt": -1, "stimulus": "<p id=\"stim\">BLADE</p>", "key_press": -1, "type": "PRES_VIS", "word": "blade", "wordID": 133, "conditions": [12, 800, "v", 24000], "trial": 3, "serialpos": 9, "trial_type": "single-stim", "trial_index": 138, "time_elapsed": 771244, "internal_node_id": "0.0-102.0"}}, {"uniqueid": "MTK0807:33NF62TLXK9DV0T2ZZJSXKEAFWZJKF", "current_trial": 139, "dateTime": 1512757911452, "trialdata": {"rt": -1, "stimulus": "<p id=\"stim\">POET</p>", "key_press": -1, "type": "PRES_VIS", "word": "poet", "wordID": 1094, "conditions": [12, 800, "v", 24000], "trial": 3, "serialpos": 10, "trial_type": "single-stim", "trial_index": 139, "time_elapsed": 773150, "internal_node_id": "0.0-103.0"}}, {"uniqueid": "MTK0807:33NF62TLXK9DV0T2ZZJSXKEAFWZJKF", "current_trial": 140, "dateTime": 1512757913438, "trialdata": {"rt": -1, "stimulus": "<p id=\"stim\">LAKE</p>", "key_press": -1, "type": "PRES_VIS", "word": "lake", "wordID": 795, "conditions": [12, 800, "v", 24000], "trial": 3, "serialpos": 11, "trial_type": "single-stim", "trial_index": 140, "time_elapsed": 775136, "internal_node_id": "0.0-104.0"}}, {"uniqueid": "MTK0807:33NF62TLXK9DV0T2ZZJSXKEAFWZJKF", "current_trial": 141, "dateTime": 1512757915700, "trialdata": {"rt": -1, "stimulus": "", "key_press": -1, "type": "PRE_RECALL_DELAY", "trial_type": "single-stim", "trial_index": 141, "time_elapsed": 777398, "internal_node_id": "0.0-105.0-0.0"}}, {"uniqueid": "MTK0807:33NF62TLXK9DV0T2ZZJSXKEAFWZJKF", "current_trial": 142, "dateTime": 1512757916202, "trialdata": {"rt": -1000, "stimulus": "/static/audio/400Hz.wav", "key_press": -1, "type": "PRE_RECALL_ALERT", "trial_type": "single-audio", "trial_index": 142, "time_elapsed": 777900, "internal_node_id": "0.0-106.0"}}, {"uniqueid": "MTK0807:33NF62TLXK9DV0T2ZZJSXKEAFWZJKF", "current_trial": 143, "dateTime": 1512757976211, "trialdata": {"rt": [1795, 3076, 5358, 6757, 8297, 14930, 16081], "recwords": ["lake", "lagoon", "dustpan", "poet", "broom", "ozone", "motor"], "type": "FREE_RECALL", "conditions": [12, 800, "v", 24000], "trial": 3, "trial_type": "free-recall", "trial_index": 143, "time_elapsed": 837903, "internal_node_id": "0.0-107.0-0.0"}}, {"uniqueid": "MTK0807:33NF62TLXK9DV0T2ZZJSXKEAFWZJKF", "current_trial": 144, "dateTime": 1512757979694, "trialdata": {"rt": 1482, "key_press": 13, "type": "INSTRUCTIONS", "trial_type": "text", "trial_index": 144, "time_elapsed": 841392, "internal_node_id": "0.0-108.0"}}, {"uniqueid": "MTK0807:33NF62TLXK9DV0T2ZZJSXKEAFWZJKF", "current_trial": 145, "dateTime": 1512758005699, "trialdata": {"rt": [2340, 3884, 6042, 7795, 12143, 14962, 17619, 20554, 22360], "responses": ["17", "13", "16", "18", "17", "19", "11", "20", "21"], "num1": [6, 8, 6, 8, 6, 8, 3, 6, 5, 2], "num2": [4, 1, 5, 1, 5, 9, 3, 7, 8, 9], "num3": [7, 4, 5, 9, 8, 2, 5, 7, 8, 2], "type": "DISTRACTOR", "conditions": [24, 1600, "a", 24000], "trial": 4, "trial_type": "math-distractor", "trial_index": 145, "time_elapsed": 867396, "internal_node_id": "0.0-109.0"}}, {"uniqueid": "MTK0807:33NF62TLXK9DV0T2ZZJSXKEAFWZJKF", "current_trial": 146, "dateTime": 1512758008702, "trialdata": {"rt": -1, "stimulus": "<p id=\"stim\">10</p>", "key_press": -1, "trial_type": "single-stim", "trial_index": 146, "time_elapsed": 870400, "internal_node_id": "0.0-110.0-0.0"}}, {"uniqueid": "MTK0807:33NF62TLXK9DV0T2ZZJSXKEAFWZJKF", "current_trial": 147, "dateTime": 1512758009705, "trialdata": {"rt": -1, "stimulus": "<p id=\"stim\">9</p>", "key_press": -1, "trial_type": "single-stim", "trial_index": 147, "time_elapsed": 871402, "internal_node_id": "0.0-110.0-1.0"}}, {"uniqueid": "MTK0807:33NF62TLXK9DV0T2ZZJSXKEAFWZJKF", "current_trial": 148, "dateTime": 1512758010706, "trialdata": {"rt": -1, "stimulus": "<p id=\"stim\">8</p>", "key_press": -1, "trial_type": "single-stim", "trial_index": 148, "time_elapsed": 872404, "internal_node_id": "0.0-110.0-2.0"}}, {"uniqueid": "MTK0807:33NF62TLXK9DV0T2ZZJSXKEAFWZJKF", "current_trial": 149, "dateTime": 1512758011707, "trialdata": {"rt": -1, "stimulus": "<p id=\"stim\">7</p>", "key_press": -1, "trial_type": "single-stim", "trial_index": 149, "time_elapsed": 873405, "internal_node_id": "0.0-110.0-3.0"}}, {"uniqueid": "MTK0807:33NF62TLXK9DV0T2ZZJSXKEAFWZJKF", "current_trial": 150, "dateTime": 1512758012708, "trialdata": {"rt": -1, "stimulus": "<p id=\"stim\">6</p>", "key_press": -1, "trial_type": "single-stim", "trial_index": 150, "time_elapsed": 874406, "internal_node_id": "0.0-110.0-4.0"}}, {"uniqueid": "MTK0807:33NF62TLXK9DV0T2ZZJSXKEAFWZJKF", "current_trial": 151, "dateTime": 1512758013709, "trialdata": {"rt": -1, "stimulus": "<p id=\"stim\">5</p>", "key_press": -1, "trial_type": "single-stim", "trial_index": 151, "time_elapsed": 875406, "internal_node_id": "0.0-110.0-5.0"}}, {"uniqueid": "MTK0807:33NF62TLXK9DV0T2ZZJSXKEAFWZJKF", "current_trial": 152, "dateTime": 1512758014710, "trialdata": {"rt": -1, "stimulus": "<p id=\"stim\">4</p>", "key_press": -1, "trial_type": "single-stim", "trial_index": 152, "time_elapsed": 876408, "internal_node_id": "0.0-110.0-6.0"}}, {"uniqueid": "MTK0807:33NF62TLXK9DV0T2ZZJSXKEAFWZJKF", "current_trial": 153, "dateTime": 1512758015711, "trialdata": {"rt": -1, "stimulus": "<p id=\"stim\">3</p>", "key_press": -1, "trial_type": "single-stim", "trial_index": 153, "time_elapsed": 877409, "internal_node_id": "0.0-110.0-7.0"}}, {"uniqueid": "MTK0807:33NF62TLXK9DV0T2ZZJSXKEAFWZJKF", "current_trial": 154, "dateTime": 1512758016712, "trialdata": {"rt": -1, "stimulus": "<p id=\"stim\">2</p>", "key_press": -1, "trial_type": "single-stim", "trial_index": 154, "time_elapsed": 878410, "internal_node_id": "0.0-110.0-8.0"}}, {"uniqueid": "MTK0807:33NF62TLXK9DV0T2ZZJSXKEAFWZJKF", "current_trial": 155, "dateTime": 1512758017713, "trialdata": {"rt": -1, "stimulus": "<p id=\"stim\">1</p>", "key_press": -1, "trial_type": "single-stim", "trial_index": 155, "time_elapsed": 879411, "internal_node_id": "0.0-110.0-9.0"}}, {"uniqueid": "MTK0807:33NF62TLXK9DV0T2ZZJSXKEAFWZJKF", "current_trial": 156, "dateTime": 1512758019222, "trialdata": {"rt": -1, "stimulus": "<p id=\"stim\">+</p>", "key_press": -1, "type": "FIXATION", "trial_type": "single-stim", "trial_index": 156, "time_elapsed": 880920, "internal_node_id": "0.0-111.0-0.0"}}, {"uniqueid": "MTK0807:33NF62TLXK9DV0T2ZZJSXKEAFWZJKF", "current_trial": 157, "dateTime": 1512758021796, "trialdata": {"rt": -1000, "stimulus": "/static/audio/wordpool/VALLEY.wav", "key_press": -1, "type": "PRES_AUD", "word": "valley", "wordID": 1544, "conditions": [24, 1600, "a", 24000], "trial": 4, "serialpos": 0, "trial_type": "single-audio", "trial_index": 157, "time_elapsed": 883494, "internal_node_id": "0.0-112.0"}}, {"uniqueid": "MTK0807:33NF62TLXK9DV0T2ZZJSXKEAFWZJKF", "current_trial": 158, "dateTime": 1512758024337, "trialdata": {"rt": -1000, "stimulus": "/static/audio/wordpool/PASTRY.wav", "key_press": -1, "type": "PRES_AUD", "word": "pastry", "wordID": 1021, "conditions": [24, 1600, "a", 24000], "trial": 4, "serialpos": 1, "trial_type": "single-audio", "trial_index": 158, "time_elapsed": 886035, "internal_node_id": "0.0-113.0"}}, {"uniqueid": "MTK0807:33NF62TLXK9DV0T2ZZJSXKEAFWZJKF", "current_trial": 159, "dateTime": 1512758026882, "trialdata": {"rt": -1000, "stimulus": "/static/audio/wordpool/MUMMY.wav", "key_press": -1, "type": "PRES_AUD", "word": "mummy", "wordID": 931, "conditions": [24, 1600, "a", 24000], "trial": 4, "serialpos": 2, "trial_type": "single-audio", "trial_index": 159, "time_elapsed": 888580, "internal_node_id": "0.0-114.0"}}, {"uniqueid": "MTK0807:33NF62TLXK9DV0T2ZZJSXKEAFWZJKF", "current_trial": 160, "dateTime": 1512758029341, "trialdata": {"rt": -1000, "stimulus": "/static/audio/wordpool/DONKEY.wav", "key_press": -1, "type": "PRES_AUD", "word": "donkey", "wordID": 483, "conditions": [24, 1600, "a", 24000], "trial": 4, "serialpos": 3, "trial_type": "single-audio", "trial_index": 160, "time_elapsed": 891039, "internal_node_id": "0.0-115.0"}}, {"uniqueid": "MTK0807:33NF62TLXK9DV0T2ZZJSXKEAFWZJKF", "current_trial": 161, "dateTime": 1512758031804, "trialdata": {"rt": -1000, "stimulus": "/static/audio/wordpool/BRIEFCASE.wav", "key_press": -1, "type": "PRES_AUD", "word": "briefcase", "wordID": 174, "conditions": [24, 1600, "a", 24000], "trial": 4, "serialpos": 4, "trial_type": "single-audio", "trial_index": 161, "time_elapsed": 893502, "internal_node_id": "0.0-116.0"}}, {"uniqueid": "MTK0807:33NF62TLXK9DV0T2ZZJSXKEAFWZJKF", "current_trial": 162, "dateTime": 1512758034319, "trialdata": {"rt": -1000, "stimulus": "/static/audio/wordpool/YACHT.wav", "key_press": -1, "type": "PRES_AUD", "word": "yacht", "wordID": 1628, "conditions": [24, 1600, "a", 24000], "trial": 4, "serialpos": 5, "trial_type": "single-audio", "trial_index": 162, "time_elapsed": 896017, "internal_node_id": "0.0-117.0"}}, {"uniqueid": "MTK0807:33NF62TLXK9DV0T2ZZJSXKEAFWZJKF", "current_trial": 163, "dateTime": 1512758036988, "trialdata": {"rt": -1000, "stimulus": "/static/audio/wordpool/ICEBERG.wav", "key_press": -1, "type": "PRES_AUD", "word": "iceberg", "wordID": 730, "conditions": [24, 1600, "a", 24000], "trial": 4, "serialpos": 6, "trial_type": "single-audio", "trial_index": 163, "time_elapsed": 898686, "internal_node_id": "0.0-118.0"}}, {"uniqueid": "MTK0807:33NF62TLXK9DV0T2ZZJSXKEAFWZJKF", "current_trial": 164, "dateTime": 1512758039543, "trialdata": {"rt": -1000, "stimulus": "/static/audio/wordpool/CREATURE.wav", "key_press": -1, "type": "PRES_AUD", "word": "creature", "wordID": 402, "conditions": [24, 1600, "a", 24000], "trial": 4, "serialpos": 7, "trial_type": "single-audio", "trial_index": 164, "time_elapsed": 901241, "internal_node_id": "0.0-119.0"}}, {"uniqueid": "MTK0807:33NF62TLXK9DV0T2ZZJSXKEAFWZJKF", "current_trial": 165, "dateTime": 1512758042036, "trialdata": {"rt": -1000, "stimulus": "/static/audio/wordpool/MONSTER.wav", "key_press": -1, "type": "PRES_AUD", "word": "monster", "wordID": 911, "conditions": [24, 1600, "a", 24000], "trial": 4, "serialpos": 8, "trial_type": "single-audio", "trial_index": 165, "time_elapsed": 903734, "internal_node_id": "0.0-120.0"}}, {"uniqueid": "MTK0807:33NF62TLXK9DV0T2ZZJSXKEAFWZJKF", "current_trial": 166, "dateTime": 1512758044606, "trialdata": {"rt": -1000, "stimulus": "/static/audio/wordpool/WOMAN.wav", "key_press": -1, "type": "PRES_AUD", "word": "woman", "wordID": 1619, "conditions": [24, 1600, "a", 24000], "trial": 4, "serialpos": 9, "trial_type": "single-audio", "trial_index": 166, "time_elapsed": 906304, "internal_node_id": "0.0-121.0"}}, {"uniqueid": "MTK0807:33NF62TLXK9DV0T2ZZJSXKEAFWZJKF", "current_trial": 167, "dateTime": 1512758047291, "trialdata": {"rt": -1000, "stimulus": "/static/audio/wordpool/MUFFIN.wav", "key_press": -1, "type": "PRES_AUD", "word": "muffin", "wordID": 928, "conditions": [24, 1600, "a", 24000], "trial": 4, "serialpos": 10, "trial_type": "single-audio", "trial_index": 167, "time_elapsed": 908989, "internal_node_id": "0.0-122.0"}}, {"uniqueid": "MTK0807:33NF62TLXK9DV0T2ZZJSXKEAFWZJKF", "current_trial": 168, "dateTime": 1512758049892, "trialdata": {"rt": -1000, "stimulus": "/static/audio/wordpool/BLOUSE.wav", "key_press": -1, "type": "PRES_AUD", "word": "blouse", "wordID": 138, "conditions": [24, 1600, "a", 24000], "trial": 4, "serialpos": 11, "trial_type": "single-audio", "trial_index": 168, "time_elapsed": 911590, "internal_node_id": "0.0-123.0"}}, {"uniqueid": "MTK0807:33NF62TLXK9DV0T2ZZJSXKEAFWZJKF", "current_trial": 169, "dateTime": 1512758052406, "trialdata": {"rt": -1000, "stimulus": "/static/audio/wordpool/SNACK.wav", "key_press": -1, "type": "PRES_AUD", "word": "snack", "wordID": 1330, "conditions": [24, 1600, "a", 24000], "trial": 4, "serialpos": 12, "trial_type": "single-audio", "trial_index": 169, "time_elapsed": 914104, "internal_node_id": "0.0-124.0"}}, {"uniqueid": "MTK0807:33NF62TLXK9DV0T2ZZJSXKEAFWZJKF", "current_trial": 170, "dateTime": 1512758055171, "trialdata": {"rt": -1000, "stimulus": "/static/audio/wordpool/PANTHER.wav", "key_press": -1, "type": "PRES_AUD", "word": "panther", "wordID": 1008, "conditions": [24, 1600, "a", 24000], "trial": 4, "serialpos": 13, "trial_type": "single-audio", "trial_index": 170, "time_elapsed": 916869, "internal_node_id": "0.0-125.0"}}, {"uniqueid": "MTK0807:33NF62TLXK9DV0T2ZZJSXKEAFWZJKF", "current_trial": 171, "dateTime": 1512758057853, "trialdata": {"rt": -1000, "stimulus": "/static/audio/wordpool/COMET.wav", "key_press": -1, "type": "PRES_AUD", "word": "comet", "wordID": 352, "conditions": [24, 1600, "a", 24000], "trial": 4, "serialpos": 14, "trial_type": "single-audio", "trial_index": 171, "time_elapsed": 919551, "internal_node_id": "0.0-126.0"}}, {"uniqueid": "MTK0807:33NF62TLXK9DV0T2ZZJSXKEAFWZJKF", "current_trial": 172, "dateTime": 1512758060423, "trialdata": {"rt": -1000, "stimulus": "/static/audio/wordpool/RECORD.wav", "key_press": -1, "type": "PRES_AUD", "word": "record", "wordID": 1175, "conditions": [24, 1600, "a", 24000], "trial": 4, "serialpos": 15, "trial_type": "single-audio", "trial_index": 172, "time_elapsed": 922121, "internal_node_id": "0.0-127.0"}}, {"uniqueid": "MTK0807:33NF62TLXK9DV0T2ZZJSXKEAFWZJKF", "current_trial": 173, "dateTime": 1512758063195, "trialdata": {"rt": -1000, "stimulus": "/static/audio/wordpool/FEMALE.wav", "key_press": -1, "type": "PRES_AUD", "word": "female", "wordID": 558, "conditions": [24, 1600, "a", 24000], "trial": 4, "serialpos": 16, "trial_type": "single-audio", "trial_index": 173, "time_elapsed": 924892, "internal_node_id": "0.0-128.0"}}, {"uniqueid": "MTK0807:33NF62TLXK9DV0T2ZZJSXKEAFWZJKF", "current_trial": 174, "dateTime": 1512758065969, "trialdata": {"rt": -1000, "stimulus": "/static/audio/wordpool/BUG.wav", "key_press": -1, "type": "PRES_AUD", "word": "bug", "wordID": 186, "conditions": [24, 1600, "a", 24000], "trial": 4, "serialpos": 17, "trial_type": "single-audio", "trial_index": 174, "time_elapsed": 927667, "internal_node_id": "0.0-129.0"}}, {"uniqueid": "MTK0807:33NF62TLXK9DV0T2ZZJSXKEAFWZJKF", "current_trial": 175, "dateTime": 1512758068539, "trialdata": {"rt": -1000, "stimulus": "/static/audio/wordpool/VIRUS.wav", "key_press": -1, "type": "PRES_AUD", "word": "virus", "wordID": 1571, "conditions": [24, 1600, "a", 24000], "trial": 4, "serialpos": 18, "trial_type": "single-audio", "trial_index": 175, "time_elapsed": 930237, "internal_node_id": "0.0-130.0"}}, {"uniqueid": "MTK0807:33NF62TLXK9DV0T2ZZJSXKEAFWZJKF", "current_trial": 176, "dateTime": 1512758070975, "trialdata": {"rt": -1000, "stimulus": "/static/audio/wordpool/POPCORN.wav", "key_press": -1, "type": "PRES_AUD", "word": "popcorn", "wordID": 1103, "conditions": [24, 1600, "a", 24000], "trial": 4, "serialpos": 19, "trial_type": "single-audio", "trial_index": 176, "time_elapsed": 932672, "internal_node_id": "0.0-131.0"}}, {"uniqueid": "MTK0807:33NF62TLXK9DV0T2ZZJSXKEAFWZJKF", "current_trial": 177, "dateTime": 1512758073395, "trialdata": {"rt": -1000, "stimulus": "/static/audio/wordpool/EAGLE.wav", "key_press": -1, "type": "PRES_AUD", "word": "eagle", "wordID": 511, "conditions": [24, 1600, "a", 24000], "trial": 4, "serialpos": 20, "trial_type": "single-audio", "trial_index": 177, "time_elapsed": 935093, "internal_node_id": "0.0-132.0"}}, {"uniqueid": "MTK0807:33NF62TLXK9DV0T2ZZJSXKEAFWZJKF", "current_trial": 178, "dateTime": 1512758076056, "trialdata": {"rt": -1000, "stimulus": "/static/audio/wordpool/APRON.wav", "key_press": -1, "type": "PRES_AUD", "word": "apron", "wordID": 34, "conditions": [24, 1600, "a", 24000], "trial": 4, "serialpos": 21, "trial_type": "single-audio", "trial_index": 178, "time_elapsed": 937753, "internal_node_id": "0.0-133.0"}}, {"uniqueid": "MTK0807:33NF62TLXK9DV0T2ZZJSXKEAFWZJKF", "current_trial": 179, "dateTime": 1512758078711, "trialdata": {"rt": -1000, "stimulus": "/static/audio/wordpool/CAMEL.wav", "key_press": -1, "type": "PRES_AUD", "word": "camel", "wordID": 222, "conditions": [24, 1600, "a", 24000], "trial": 4, "serialpos": 22, "trial_type": "single-audio", "trial_index": 179, "time_elapsed": 940409, "internal_node_id": "0.0-134.0"}}, {"uniqueid": "MTK0807:33NF62TLXK9DV0T2ZZJSXKEAFWZJKF", "current_trial": 180, "dateTime": 1512758081321, "trialdata": {"rt": -1000, "stimulus": "/static/audio/wordpool/FLAG.wav", "key_press": -1, "type": "PRES_AUD", "word": "flag", "wordID": 572, "conditions": [24, 1600, "a", 24000], "trial": 4, "serialpos": 23, "trial_type": "single-audio", "trial_index": 180, "time_elapsed": 943019, "internal_node_id": "0.0-135.0"}}, {"uniqueid": "MTK0807:33NF62TLXK9DV0T2ZZJSXKEAFWZJKF", "current_trial": 181, "dateTime": 1512758082642, "trialdata": {"rt": -1, "stimulus": "", "key_press": -1, "type": "PRE_RECALL_DELAY", "trial_type": "single-stim", "trial_index": 181, "time_elapsed": 944340, "internal_node_id": "0.0-136.0-0.0"}}, {"uniqueid": "MTK0807:33NF62TLXK9DV0T2ZZJSXKEAFWZJKF", "current_trial": 182, "dateTime": 1512758083145, "trialdata": {"rt": -1000, "stimulus": "/static/audio/400Hz.wav", "key_press": -1, "type": "PRE_RECALL_ALERT", "trial_type": "single-audio", "trial_index": 182, "time_elapsed": 944843, "internal_node_id": "0.0-137.0"}}, {"uniqueid": "MTK0807:33NF62TLXK9DV0T2ZZJSXKEAFWZJKF", "current_trial": 183, "dateTime": 1512758143154, "trialdata": {"rt": [1890, 3539, 4708, 8948, 10375, 11586], "recwords": ["flag", "camel", "apron", "muffin", "valet", "mummy"], "type": "FREE_RECALL", "conditions": [24, 1600, "a", 24000], "trial": 4, "trial_type": "free-recall", "trial_index": 183, "time_elapsed": 1004848, "internal_node_id": "0.0-138.0-0.0"}}, {"uniqueid": "MTK0807:33NF62TLXK9DV0T2ZZJSXKEAFWZJKF", "current_trial": 184, "dateTime": 1512758146192, "trialdata": {"rt": 1036, "key_press": 32, "type": "INSTRUCTIONS", "trial_type": "text", "trial_index": 184, "time_elapsed": 1007890, "internal_node_id": "0.0-139.0"}}, {"uniqueid": "MTK0807:33NF62TLXK9DV0T2ZZJSXKEAFWZJKF", "current_trial": 185, "dateTime": 1512758160196, "trialdata": {"rt": [2516, 5718, 9046, 11857], "responses": ["15", "24", "13", "18"], "num1": [5, 9, 4, 7, 5], "num2": [4, 6, 7, 2, 3], "num3": [6, 9, 2, 9, 1], "type": "DISTRACTOR", "conditions": [24, 800, "v", 12000], "trial": 5, "trial_type": "math-distractor", "trial_index": 185, "time_elapsed": 1021894, "internal_node_id": "0.0-140.0"}}, {"uniqueid": "MTK0807:33NF62TLXK9DV0T2ZZJSXKEAFWZJKF", "current_trial": 186, "dateTime": 1512758163197, "trialdata": {"rt": -1, "stimulus": "<p id=\"stim\">10</p>", "key_press": -1, "trial_type": "single-stim", "trial_index": 186, "time_elapsed": 1024895, "internal_node_id": "0.0-141.0-0.0"}}, {"uniqueid": "MTK0807:33NF62TLXK9DV0T2ZZJSXKEAFWZJKF", "current_trial": 187, "dateTime": 1512758164198, "trialdata": {"rt": -1, "stimulus": "<p id=\"stim\">9</p>", "key_press": -1, "trial_type": "single-stim", "trial_index": 187, "time_elapsed": 1025896, "internal_node_id": "0.0-141.0-1.0"}}, {"uniqueid": "MTK0807:33NF62TLXK9DV0T2ZZJSXKEAFWZJKF", "current_trial": 188, "dateTime": 1512758165199, "trialdata": {"rt": -1, "stimulus": "<p id=\"stim\">8</p>", "key_press": -1, "trial_type": "single-stim", "trial_index": 188, "time_elapsed": 1026897, "internal_node_id": "0.0-141.0-2.0"}}, {"uniqueid": "MTK0807:33NF62TLXK9DV0T2ZZJSXKEAFWZJKF", "current_trial": 189, "dateTime": 1512758166200, "trialdata": {"rt": -1, "stimulus": "<p id=\"stim\">7</p>", "key_press": -1, "trial_type": "single-stim", "trial_index": 189, "time_elapsed": 1027898, "internal_node_id": "0.0-141.0-3.0"}}, {"uniqueid": "MTK0807:33NF62TLXK9DV0T2ZZJSXKEAFWZJKF", "current_trial": 190, "dateTime": 1512758167201, "trialdata": {"rt": -1, "stimulus": "<p id=\"stim\">6</p>", "key_press": -1, "trial_type": "single-stim", "trial_index": 190, "time_elapsed": 1028899, "internal_node_id": "0.0-141.0-4.0"}}, {"uniqueid": "MTK0807:33NF62TLXK9DV0T2ZZJSXKEAFWZJKF", "current_trial": 191, "dateTime": 1512758168202, "trialdata": {"rt": -1, "stimulus": "<p id=\"stim\">5</p>", "key_press": -1, "trial_type": "single-stim", "trial_index": 191, "time_elapsed": 1029900, "internal_node_id": "0.0-141.0-5.0"}}, {"uniqueid": "MTK0807:33NF62TLXK9DV0T2ZZJSXKEAFWZJKF", "current_trial": 192, "dateTime": 1512758169205, "trialdata": {"rt": -1, "stimulus": "<p id=\"stim\">4</p>", "key_press": -1, "trial_type": "single-stim", "trial_index": 192, "time_elapsed": 1030903, "internal_node_id": "0.0-141.0-6.0"}}, {"uniqueid": "MTK0807:33NF62TLXK9DV0T2ZZJSXKEAFWZJKF", "current_trial": 193, "dateTime": 1512758170206, "trialdata": {"rt": -1, "stimulus": "<p id=\"stim\">3</p>", "key_press": -1, "trial_type": "single-stim", "trial_index": 193, "time_elapsed": 1031904, "internal_node_id": "0.0-141.0-7.0"}}, {"uniqueid": "MTK0807:33NF62TLXK9DV0T2ZZJSXKEAFWZJKF", "current_trial": 194, "dateTime": 1512758171208, "trialdata": {"rt": -1, "stimulus": "<p id=\"stim\">2</p>", "key_press": -1, "trial_type": "single-stim", "trial_index": 194, "time_elapsed": 1032906, "internal_node_id": "0.0-141.0-8.0"}}, {"uniqueid": "MTK0807:33NF62TLXK9DV0T2ZZJSXKEAFWZJKF", "current_trial": 195, "dateTime": 1512758172209, "trialdata": {"rt": -1, "stimulus": "<p id=\"stim\">1</p>", "key_press": -1, "trial_type": "single-stim", "trial_index": 195, "time_elapsed": 1033907, "internal_node_id": "0.0-141.0-9.0"}}, {"uniqueid": "MTK0807:33NF62TLXK9DV0T2ZZJSXKEAFWZJKF", "current_trial": 196, "dateTime": 1512758173710, "trialdata": {"rt": -1, "stimulus": "<p id=\"stim\">+</p>", "key_press": -1, "type": "FIXATION", "trial_type": "single-stim", "trial_index": 196, "time_elapsed": 1035408, "internal_node_id": "0.0-142.0-0.0"}}, {"uniqueid": "MTK0807:33NF62TLXK9DV0T2ZZJSXKEAFWZJKF", "current_trial": 197, "dateTime": 1512758174513, "trialdata": {"rt": -1, "stimulus": "<p id=\"stim\">COFFEE</p>", "key_press": -1, "type": "PRES_VIS", "word": "coffee", "wordID": 340, "conditions": [24, 800, "v", 12000], "trial": 5, "serialpos": 0, "trial_type": "single-stim", "trial_index": 197, "time_elapsed": 1036211, "internal_node_id": "0.0-143.0"}}, {"uniqueid": "MTK0807:33NF62TLXK9DV0T2ZZJSXKEAFWZJKF", "current_trial": 198, "dateTime": 1512758176479, "trialdata": {"rt": -1, "stimulus": "<p id=\"stim\">MONEY</p>", "key_press": -1, "type": "PRES_VIS", "word": "money", "wordID": 907, "conditions": [24, 800, "v", 12000], "trial": 5, "serialpos": 1, "trial_type": "single-stim", "trial_index": 198, "time_elapsed": 1038177, "internal_node_id": "0.0-144.0"}}, {"uniqueid": "MTK0807:33NF62TLXK9DV0T2ZZJSXKEAFWZJKF", "current_trial": 199, "dateTime": 1512758178315, "trialdata": {"rt": -1, "stimulus": "<p id=\"stim\">HORNET</p>", "key_press": -1, "type": "PRES_VIS", "word": "hornet", "wordID": 717, "conditions": [24, 800, "v", 12000], "trial": 5, "serialpos": 2, "trial_type": "single-stim", "trial_index": 199, "time_elapsed": 1040013, "internal_node_id": "0.0-145.0"}}, {"uniqueid": "MTK0807:33NF62TLXK9DV0T2ZZJSXKEAFWZJKF", "current_trial": 200, "dateTime": 1512758180016, "trialdata": {"rt": -1, "stimulus": "<p id=\"stim\">MASK</p>", "key_press": -1, "type": "PRES_VIS", "word": "mask", "wordID": 875, "conditions": [24, 800, "v", 12000], "trial": 5, "serialpos": 3, "trial_type": "single-stim", "trial_index": 200, "time_elapsed": 1041714, "internal_node_id": "0.0-146.0"}}, {"uniqueid": "MTK0807:33NF62TLXK9DV0T2ZZJSXKEAFWZJKF", "current_trial": 201, "dateTime": 1512758181907, "trialdata": {"rt": -1, "stimulus": "<p id=\"stim\">SCOTCH</p>", "key_press": -1, "type": "PRES_VIS", "word": "scotch", "wordID": 1250, "conditions": [24, 800, "v", 12000], "trial": 5, "serialpos": 4, "trial_type": "single-stim", "trial_index": 201, "time_elapsed": 1043605, "internal_node_id": "0.0-147.0"}}, {"uniqueid": "MTK0807:33NF62TLXK9DV0T2ZZJSXKEAFWZJKF", "current_trial": 202, "dateTime": 1512758183552, "trialdata": {"rt": -1, "stimulus": "<p id=\"stim\">GIRL</p>", "key_press": -1, "type": "PRES_VIS", "word": "girl", "wordID": 636, "conditions": [24, 800, "v", 12000], "trial": 5, "serialpos": 5, "trial_type": "single-stim", "trial_index": 202, "time_elapsed": 1045250, "internal_node_id": "0.0-148.0"}}, {"uniqueid": "MTK0807:33NF62TLXK9DV0T2ZZJSXKEAFWZJKF", "current_trial": 203, "dateTime": 1512758185270, "trialdata": {"rt": -1, "stimulus": "<p id=\"stim\">COIN</p>", "key_press": -1, "type": "PRES_VIS", "word": "coin", "wordID": 342, "conditions": [24, 800, "v", 12000], "trial": 5, "serialpos": 6, "trial_type": "single-stim", "trial_index": 203, "time_elapsed": 1046968, "internal_node_id": "0.0-149.0"}}, {"uniqueid": "MTK0807:33NF62TLXK9DV0T2ZZJSXKEAFWZJKF", "current_trial": 204, "dateTime": 1512758186935, "trialdata": {"rt": -1, "stimulus": "<p id=\"stim\">MAMMAL</p>", "key_press": -1, "type": "PRES_VIS", "word": "mammal", "wordID": 860, "conditions": [24, 800, "v", 12000], "trial": 5, "serialpos": 7, "trial_type": "single-stim", "trial_index": 204, "time_elapsed": 1048633, "internal_node_id": "0.0-150.0"}}, {"uniqueid": "MTK0807:33NF62TLXK9DV0T2ZZJSXKEAFWZJKF", "current_trial": 205, "dateTime": 1512758188738, "trialdata": {"rt": -1, "stimulus": "<p id=\"stim\">BROTHER</p>", "key_press": -1, "type": "PRES_VIS", "word": "brother", "wordID": 178, "conditions": [24, 800, "v", 12000], "trial": 5, "serialpos": 8, "trial_type": "single-stim", "trial_index": 205, "time_elapsed": 1050436, "internal_node_id": "0.0-151.0"}}, {"uniqueid": "MTK0807:33NF62TLXK9DV0T2ZZJSXKEAFWZJKF", "current_trial": 206, "dateTime": 1512758190541, "trialdata": {"rt": -1, "stimulus": "<p id=\"stim\">SIBLING</p>", "key_press": -1, "type": "PRES_VIS", "word": "sibling", "wordID": 1300, "conditions": [24, 800, "v", 12000], "trial": 5, "serialpos": 9, "trial_type": "single-stim", "trial_index": 206, "time_elapsed": 1052239, "internal_node_id": "0.0-152.0"}}, {"uniqueid": "MTK0807:33NF62TLXK9DV0T2ZZJSXKEAFWZJKF", "current_trial": 207, "dateTime": 1512758192336, "trialdata": {"rt": -1, "stimulus": "<p id=\"stim\">DOLPHIN</p>", "key_press": -1, "type": "PRES_VIS", "word": "dolphin", "wordID": 482, "conditions": [24, 800, "v", 12000], "trial": 5, "serialpos": 10, "trial_type": "single-stim", "trial_index": 207, "time_elapsed": 1054034, "internal_node_id": "0.0-153.0"}}, {"uniqueid": "MTK0807:33NF62TLXK9DV0T2ZZJSXKEAFWZJKF", "current_trial": 208, "dateTime": 1512758194275, "trialdata": {"rt": -1, "stimulus": "<p id=\"stim\">SPARROW</p>", "key_press": -1, "type": "PRES_VIS", "word": "sparrow", "wordID": 1346, "conditions": [24, 800, "v", 12000], "trial": 5, "serialpos": 11, "trial_type": "single-stim", "trial_index": 208, "time_elapsed": 1055973, "internal_node_id": "0.0-154.0"}}, {"uniqueid": "MTK0807:33NF62TLXK9DV0T2ZZJSXKEAFWZJKF", "current_trial": 209, "dateTime": 1512758195976, "trialdata": {"rt": -1, "stimulus": "<p id=\"stim\">LILY</p>", "key_press": -1, "type": "PRES_VIS", "word": "lily", "wordID": 820, "conditions": [24, 800, "v", 12000], "trial": 5, "serialpos": 12, "trial_type": "single-stim", "trial_index": 209, "time_elapsed": 1057674, "internal_node_id": "0.0-155.0"}}, {"uniqueid": "MTK0807:33NF62TLXK9DV0T2ZZJSXKEAFWZJKF", "current_trial": 210, "dateTime": 1512758197631, "trialdata": {"rt": -1, "stimulus": "<p id=\"stim\">COMPASS</p>", "key_press": -1, "type": "PRES_VIS", "word": "compass", "wordID": 357, "conditions": [24, 800, "v", 12000], "trial": 5, "serialpos": 13, "trial_type": "single-stim", "trial_index": 210, "time_elapsed": 1059329, "internal_node_id": "0.0-156.0"}}, {"uniqueid": "MTK0807:33NF62TLXK9DV0T2ZZJSXKEAFWZJKF", "current_trial": 211, "dateTime": 1512758199314, "trialdata": {"rt": -1, "stimulus": "<p id=\"stim\">ZIPPER</p>", "key_press": -1, "type": "PRES_VIS", "word": "zipper", "wordID": 1635, "conditions": [24, 800, "v", 12000], "trial": 5, "serialpos": 14, "trial_type": "single-stim", "trial_index": 211, "time_elapsed": 1061012, "internal_node_id": "0.0-157.0"}}, {"uniqueid": "MTK0807:33NF62TLXK9DV0T2ZZJSXKEAFWZJKF", "current_trial": 212, "dateTime": 1512758201068, "trialdata": {"rt": -1, "stimulus": "<p id=\"stim\">ARM</p>", "key_press": -1, "type": "PRES_VIS", "word": "arm", "wordID": 37, "conditions": [24, 800, "v", 12000], "trial": 5, "serialpos": 15, "trial_type": "single-stim", "trial_index": 212, "time_elapsed": 1062766, "internal_node_id": "0.0-158.0"}}, {"uniqueid": "MTK0807:33NF62TLXK9DV0T2ZZJSXKEAFWZJKF", "current_trial": 213, "dateTime": 1512758202849, "trialdata": {"rt": -1, "stimulus": "<p id=\"stim\">EYELASH</p>", "key_press": -1, "type": "PRES_VIS", "word": "eyelash", "wordID": 545, "conditions": [24, 800, "v", 12000], "trial": 5, "serialpos": 16, "trial_type": "single-stim", "trial_index": 213, "time_elapsed": 1064547, "internal_node_id": "0.0-159.0"}}, {"uniqueid": "MTK0807:33NF62TLXK9DV0T2ZZJSXKEAFWZJKF", "current_trial": 214, "dateTime": 1512758204740, "trialdata": {"rt": -1, "stimulus": "<p id=\"stim\">SUPPER</p>", "key_press": -1, "type": "PRES_VIS", "word": "supper", "wordID": 1410, "conditions": [24, 800, "v", 12000], "trial": 5, "serialpos": 17, "trial_type": "single-stim", "trial_index": 214, "time_elapsed": 1066438, "internal_node_id": "0.0-160.0"}}, {"uniqueid": "MTK0807:33NF62TLXK9DV0T2ZZJSXKEAFWZJKF", "current_trial": 215, "dateTime": 1512758206594, "trialdata": {"rt": -1, "stimulus": "<p id=\"stim\">PEBBLE</p>", "key_press": -1, "type": "PRES_VIS", "word": "pebble", "wordID": 1034, "conditions": [24, 800, "v", 12000], "trial": 5, "serialpos": 18, "trial_type": "single-stim", "trial_index": 215, "time_elapsed": 1068292, "internal_node_id": "0.0-161.0"}}, {"uniqueid": "MTK0807:33NF62TLXK9DV0T2ZZJSXKEAFWZJKF", "current_trial": 216, "dateTime": 1512758208568, "trialdata": {"rt": -1, "stimulus": "<p id=\"stim\">PARENT</p>", "key_press": -1, "type": "PRES_VIS", "word": "parent", "wordID": 1012, "conditions": [24, 800, "v", 12000], "trial": 5, "serialpos": 19, "trial_type": "single-stim", "trial_index": 216, "time_elapsed": 1070266, "internal_node_id": "0.0-162.0"}}, {"uniqueid": "MTK0807:33NF62TLXK9DV0T2ZZJSXKEAFWZJKF", "current_trial": 217, "dateTime": 1512758210471, "trialdata": {"rt": -1, "stimulus": "<p id=\"stim\">KIDNEY</p>", "key_press": -1, "type": "PRES_VIS", "word": "kidney", "wordID": 775, "conditions": [24, 800, "v", 12000], "trial": 5, "serialpos": 20, "trial_type": "single-stim", "trial_index": 217, "time_elapsed": 1072169, "internal_node_id": "0.0-163.0"}}, {"uniqueid": "MTK0807:33NF62TLXK9DV0T2ZZJSXKEAFWZJKF", "current_trial": 218, "dateTime": 1512758212100, "trialdata": {"rt": -1, "stimulus": "<p id=\"stim\">SURVEY</p>", "key_press": -1, "type": "PRES_VIS", "word": "survey", "wordID": 1413, "conditions": [24, 800, "v", 12000], "trial": 5, "serialpos": 21, "trial_type": "single-stim", "trial_index": 218, "time_elapsed": 1073798, "internal_node_id": "0.0-164.0"}}, {"uniqueid": "MTK0807:33NF62TLXK9DV0T2ZZJSXKEAFWZJKF", "current_trial": 219, "dateTime": 1512758213984, "trialdata": {"rt": -1, "stimulus": "<p id=\"stim\">REPORT</p>", "key_press": -1, "type": "PRES_VIS", "word": "report", "wordID": 1183, "conditions": [24, 800, "v", 12000], "trial": 5, "serialpos": 22, "trial_type": "single-stim", "trial_index": 219, "time_elapsed": 1075682, "internal_node_id": "0.0-165.0"}}, {"uniqueid": "MTK0807:33NF62TLXK9DV0T2ZZJSXKEAFWZJKF", "current_trial": 220, "dateTime": 1512758215962, "trialdata": {"rt": -1, "stimulus": "<p id=\"stim\">PICNIC</p>", "key_press": -1, "type": "PRES_VIS", "word": "picnic", "wordID": 1059, "conditions": [24, 800, "v", 12000], "trial": 5, "serialpos": 23, "trial_type": "single-stim", "trial_index": 220, "time_elapsed": 1077660, "internal_node_id": "0.0-166.0"}}, {"uniqueid": "MTK0807:33NF62TLXK9DV0T2ZZJSXKEAFWZJKF", "current_trial": 221, "dateTime": 1512758218255, "trialdata": {"rt": -1, "stimulus": "", "key_press": -1, "type": "PRE_RECALL_DELAY", "trial_type": "single-stim", "trial_index": 221, "time_elapsed": 1079952, "internal_node_id": "0.0-167.0-0.0"}}, {"uniqueid": "MTK0807:33NF62TLXK9DV0T2ZZJSXKEAFWZJKF", "current_trial": 222, "dateTime": 1512758218755, "trialdata": {"rt": -1000, "stimulus": "/static/audio/400Hz.wav", "key_press": -1, "type": "PRE_RECALL_ALERT", "trial_type": "single-audio", "trial_index": 222, "time_elapsed": 1080453, "internal_node_id": "0.0-168.0"}}, {"uniqueid": "MTK0807:33NF62TLXK9DV0T2ZZJSXKEAFWZJKF", "current_trial": 223, "dateTime": 1512758278760, "trialdata": {"rt": [3893, 5011, 6431, 7798, 9481, 16615, 18678, 23145, 33164, 41108, 52888], "recwords": ["survey", "report", "kidney", "brother", "sibling", "dolphin", "hornet", "arm", "pebble", "eyelash", "coffee"], "type": "FREE_RECALL", "conditions": [24, 800, "v", 12000], "trial": 5, "trial_type": "free-recall", "trial_index": 223, "time_elapsed": 1140455, "internal_node_id": "0.0-169.0-0.0"}}, {"uniqueid": "MTK0807:33NF62TLXK9DV0T2ZZJSXKEAFWZJKF", "current_trial": 224, "dateTime": 1512758281345, "trialdata": {"rt": 584, "key_press": 32, "type": "INSTRUCTIONS", "trial_type": "text", "trial_index": 224, "time_elapsed": 1143043, "internal_node_id": "0.0-170.0"}}, {"uniqueid": "MTK0807:33NF62TLXK9DV0T2ZZJSXKEAFWZJKF", "current_trial": 225, "dateTime": 1512758295348, "trialdata": {"rt": [2737, 5108, 6364, 8234, 9963, 11711], "responses": ["14", "11", "11", "14", "16", "20"], "num1": [7, 5, 9, 6, 5, 4, 6], "num2": [4, 3, 1, 2, 6, 8, 3], "num3": [3, 3, 1, 6, 5, 8, 8], "type": "DISTRACTOR", "conditions": [12, 800, "v", 12000], "trial": 6, "trial_type": "math-distractor", "trial_index": 225, "time_elapsed": 1157046, "internal_node_id": "0.0-171.0"}}, {"uniqueid": "MTK0807:33NF62TLXK9DV0T2ZZJSXKEAFWZJKF", "current_trial": 226, "dateTime": 1512758298350, "trialdata": {"rt": -1, "stimulus": "<p id=\"stim\">10</p>", "key_press": -1, "trial_type": "single-stim", "trial_index": 226, "time_elapsed": 1160048, "internal_node_id": "0.0-172.0-0.0"}}, {"uniqueid": "MTK0807:33NF62TLXK9DV0T2ZZJSXKEAFWZJKF", "current_trial": 227, "dateTime": 1512758299352, "trialdata": {"rt": -1, "stimulus": "<p id=\"stim\">9</p>", "key_press": -1, "trial_type": "single-stim", "trial_index": 227, "time_elapsed": 1161050, "internal_node_id": "0.0-172.0-1.0"}}, {"uniqueid": "MTK0807:33NF62TLXK9DV0T2ZZJSXKEAFWZJKF", "current_trial": 228, "dateTime": 1512758300354, "trialdata": {"rt": -1, "stimulus": "<p id=\"stim\">8</p>", "key_press": -1, "trial_type": "single-stim", "trial_index": 228, "time_elapsed": 1162052, "internal_node_id": "0.0-172.0-2.0"}}, {"uniqueid": "MTK0807:33NF62TLXK9DV0T2ZZJSXKEAFWZJKF", "current_trial": 229, "dateTime": 1512758301355, "trialdata": {"rt": -1, "stimulus": "<p id=\"stim\">7</p>", "key_press": -1, "trial_type": "single-stim", "trial_index": 229, "time_elapsed": 1163053, "internal_node_id": "0.0-172.0-3.0"}}, {"uniqueid": "MTK0807:33NF62TLXK9DV0T2ZZJSXKEAFWZJKF", "current_trial": 230, "dateTime": 1512758302357, "trialdata": {"rt": -1, "stimulus": "<p id=\"stim\">6</p>", "key_press": -1, "trial_type": "single-stim", "trial_index": 230, "time_elapsed": 1164055, "internal_node_id": "0.0-172.0-4.0"}}, {"uniqueid": "MTK0807:33NF62TLXK9DV0T2ZZJSXKEAFWZJKF", "current_trial": 231, "dateTime": 1512758303359, "trialdata": {"rt": -1, "stimulus": "<p id=\"stim\">5</p>", "key_press": -1, "trial_type": "single-stim", "trial_index": 231, "time_elapsed": 1165057, "internal_node_id": "0.0-172.0-5.0"}}, {"uniqueid": "MTK0807:33NF62TLXK9DV0T2ZZJSXKEAFWZJKF", "current_trial": 232, "dateTime": 1512758304360, "trialdata": {"rt": -1, "stimulus": "<p id=\"stim\">4</p>", "key_press": -1, "trial_type": "single-stim", "trial_index": 232, "time_elapsed": 1166058, "internal_node_id": "0.0-172.0-6.0"}}, {"uniqueid": "MTK0807:33NF62TLXK9DV0T2ZZJSXKEAFWZJKF", "current_trial": 233, "dateTime": 1512758305363, "trialdata": {"rt": -1, "stimulus": "<p id=\"stim\">3</p>", "key_press": -1, "trial_type": "single-stim", "trial_index": 233, "time_elapsed": 1167061, "internal_node_id": "0.0-172.0-7.0"}}, {"uniqueid": "MTK0807:33NF62TLXK9DV0T2ZZJSXKEAFWZJKF", "current_trial": 234, "dateTime": 1512758306364, "trialdata": {"rt": -1, "stimulus": "<p id=\"stim\">2</p>", "key_press": -1, "trial_type": "single-stim", "trial_index": 234, "time_elapsed": 1168062, "internal_node_id": "0.0-172.0-8.0"}}, {"uniqueid": "MTK0807:33NF62TLXK9DV0T2ZZJSXKEAFWZJKF", "current_trial": 235, "dateTime": 1512758307366, "trialdata": {"rt": -1, "stimulus": "<p id=\"stim\">1</p>", "key_press": -1, "trial_type": "single-stim", "trial_index": 235, "time_elapsed": 1169064, "internal_node_id": "0.0-172.0-9.0"}}, {"uniqueid": "MTK0807:33NF62TLXK9DV0T2ZZJSXKEAFWZJKF", "current_trial": 236, "dateTime": 1512758308867, "trialdata": {"rt": -1, "stimulus": "<p id=\"stim\">+</p>", "key_press": -1, "type": "FIXATION", "trial_type": "single-stim", "trial_index": 236, "time_elapsed": 1170565, "internal_node_id": "0.0-173.0-0.0"}}, {"uniqueid": "MTK0807:33NF62TLXK9DV0T2ZZJSXKEAFWZJKF", "current_trial": 237, "dateTime": 1512758309669, "trialdata": {"rt": -1, "stimulus": "<p id=\"stim\">RECEIPT</p>", "key_press": -1, "type": "PRES_VIS", "word": "receipt", "wordID": 1172, "conditions": [12, 800, "v", 12000], "trial": 6, "serialpos": 0, "trial_type": "single-stim", "trial_index": 237, "time_elapsed": 1171367, "internal_node_id": "0.0-174.0"}}, {"uniqueid": "MTK0807:33NF62TLXK9DV0T2ZZJSXKEAFWZJKF", "current_trial": 238, "dateTime": 1512758311482, "trialdata": {"rt": -1, "stimulus": "<p id=\"stim\">RACKET</p>", "key_press": -1, "type": "PRES_VIS", "word": "racket", "wordID": 1154, "conditions": [12, 800, "v", 12000], "trial": 6, "serialpos": 1, "trial_type": "single-stim", "trial_index": 238, "time_elapsed": 1173179, "internal_node_id": "0.0-175.0"}}, {"uniqueid": "MTK0807:33NF62TLXK9DV0T2ZZJSXKEAFWZJKF", "current_trial": 239, "dateTime": 1512758313231, "trialdata": {"rt": -1, "stimulus": "<p id=\"stim\">PILOT</p>", "key_press": -1, "type": "PRES_VIS", "word": "pilot", "wordID": 1069, "conditions": [12, 800, "v", 12000], "trial": 6, "serialpos": 2, "trial_type": "single-stim", "trial_index": 239, "time_elapsed": 1174929, "internal_node_id": "0.0-176.0"}}, {"uniqueid": "MTK0807:33NF62TLXK9DV0T2ZZJSXKEAFWZJKF", "current_trial": 240, "dateTime": 1512758314898, "trialdata": {"rt": -1, "stimulus": "<p id=\"stim\">SUMMIT</p>", "key_press": -1, "type": "PRES_VIS", "word": "summit", "wordID": 1404, "conditions": [12, 800, "v", 12000], "trial": 6, "serialpos": 3, "trial_type": "single-stim", "trial_index": 240, "time_elapsed": 1176596, "internal_node_id": "0.0-177.0"}}, {"uniqueid": "MTK0807:33NF62TLXK9DV0T2ZZJSXKEAFWZJKF", "current_trial": 241, "dateTime": 1512758316699, "trialdata": {"rt": -1, "stimulus": "<p id=\"stim\">SANDWICH</p>", "key_press": -1, "type": "PRES_VIS", "word": "sandwich", "wordID": 1231, "conditions": [12, 800, "v", 12000], "trial": 6, "serialpos": 4, "trial_type": "single-stim", "trial_index": 241, "time_elapsed": 1178397, "internal_node_id": "0.0-178.0"}}, {"uniqueid": "MTK0807:33NF62TLXK9DV0T2ZZJSXKEAFWZJKF", "current_trial": 242, "dateTime": 1512758318348, "trialdata": {"rt": -1, "stimulus": "<p id=\"stim\">SPOUSE</p>", "key_press": -1, "type": "PRES_VIS", "word": "spouse", "wordID": 1357, "conditions": [12, 800, "v", 12000], "trial": 6, "serialpos": 5, "trial_type": "single-stim", "trial_index": 242, "time_elapsed": 1180046, "internal_node_id": "0.0-179.0"}}, {"uniqueid": "MTK0807:33NF62TLXK9DV0T2ZZJSXKEAFWZJKF", "current_trial": 243, "dateTime": 1512758320316, "trialdata": {"rt": -1, "stimulus": "<p id=\"stim\">WIFE</p>", "key_press": -1, "type": "PRES_VIS", "word": "wife", "wordID": 1608, "conditions": [12, 800, "v", 12000], "trial": 6, "serialpos": 6, "trial_type": "single-stim", "trial_index": 243, "time_elapsed": 1182014, "internal_node_id": "0.0-180.0"}}, {"uniqueid": "MTK0807:33NF62TLXK9DV0T2ZZJSXKEAFWZJKF", "current_trial": 244, "dateTime": 1512758322194, "trialdata": {"rt": -1, "stimulus": "<p id=\"stim\">ASIA</p>", "key_press": -1, "type": "PRES_VIS", "word": "asia", "wordID": 45, "conditions": [12, 800, "v", 12000], "trial": 6, "serialpos": 7, "trial_type": "single-stim", "trial_index": 244, "time_elapsed": 1183892, "internal_node_id": "0.0-181.0"}}, {"uniqueid": "MTK0807:33NF62TLXK9DV0T2ZZJSXKEAFWZJKF", "current_trial": 245, "dateTime": 1512758324099, "trialdata": {"rt": -1, "stimulus": "<p id=\"stim\">DRAGON</p>", "key_press": -1, "type": "PRES_VIS", "word": "dragon", "wordID": 491, "conditions": [12, 800, "v", 12000], "trial": 6, "serialpos": 8, "trial_type": "single-stim", "trial_index": 245, "time_elapsed": 1185796, "internal_node_id": "0.0-182.0"}}, {"uniqueid": "MTK0807:33NF62TLXK9DV0T2ZZJSXKEAFWZJKF", "current_trial": 246, "dateTime": 1512758325734, "trialdata": {"rt": -1, "stimulus": "<p id=\"stim\">COSTUME</p>", "key_press": -1, "type": "PRES_VIS", "word": "costume", "wordID": 382, "conditions": [12, 800, "v", 12000], "trial": 6, "serialpos": 9, "trial_type": "single-stim", "trial_index": 246, "time_elapsed": 1187432, "internal_node_id": "0.0-183.0"}}, {"uniqueid": "MTK0807:33NF62TLXK9DV0T2ZZJSXKEAFWZJKF", "current_trial": 247, "dateTime": 1512758327425, "trialdata": {"rt": -1, "stimulus": "<p id=\"stim\">PERMIT</p>", "key_press": -1, "type": "PRES_VIS", "word": "permit", "wordID": 1050, "conditions": [12, 800, "v", 12000], "trial": 6, "serialpos": 10, "trial_type": "single-stim", "trial_index": 247, "time_elapsed": 1189123, "internal_node_id": "0.0-184.0"}}, {"uniqueid": "MTK0807:33NF62TLXK9DV0T2ZZJSXKEAFWZJKF", "current_trial": 248, "dateTime": 1512758329149, "trialdata": {"rt": -1, "stimulus": "<p id=\"stim\">BACON</p>", "key_press": -1, "type": "PRES_VIS", "word": "bacon", "wordID": 66, "conditions": [12, 800, "v", 12000], "trial": 6, "serialpos": 11, "trial_type": "single-stim", "trial_index": 248, "time_elapsed": 1190847, "internal_node_id": "0.0-185.0"}}, {"uniqueid": "MTK0807:33NF62TLXK9DV0T2ZZJSXKEAFWZJKF", "current_trial": 249, "dateTime": 1512758331383, "trialdata": {"rt": -1, "stimulus": "", "key_press": -1, "type": "PRE_RECALL_DELAY", "trial_type": "single-stim", "trial_index": 249, "time_elapsed": 1193081, "internal_node_id": "0.0-186.0-0.0"}}, {"uniqueid": "MTK0807:33NF62TLXK9DV0T2ZZJSXKEAFWZJKF", "current_trial": 250, "dateTime": 1512758331885, "trialdata": {"rt": -1000, "stimulus": "/static/audio/400Hz.wav", "key_press": -1, "type": "PRE_RECALL_ALERT", "trial_type": "single-audio", "trial_index": 250, "time_elapsed": 1193583, "internal_node_id": "0.0-187.0"}}, {"uniqueid": "MTK0807:33NF62TLXK9DV0T2ZZJSXKEAFWZJKF", "current_trial": 251, "dateTime": 1512758391890, "trialdata": {"rt": [1847, 3051, 7917, 17256, 25176], "recwords": ["bacon", "wife", "husband", "spouse", "sandwhich"], "type": "FREE_RECALL", "conditions": [12, 800, "v", 12000], "trial": 6, "trial_type": "free-recall", "trial_index": 251, "time_elapsed": 1253585, "internal_node_id": "0.0-188.0-0.0"}}, {"uniqueid": "MTK0807:33NF62TLXK9DV0T2ZZJSXKEAFWZJKF", "current_trial": 252, "dateTime": 1512758394318, "trialdata": {"rt": 427, "key_press": 32, "type": "INSTRUCTIONS", "trial_type": "text", "trial_index": 252, "time_elapsed": 1256016, "internal_node_id": "0.0-189.0"}}, {"uniqueid": "MTK0807:33NF62TLXK9DV0T2ZZJSXKEAFWZJKF", "current_trial": 253, "dateTime": 1512758420321, "trialdata": {"rt": [1636, 4335, 7414, 9503, 10776, 12430, 15784, 18274, 20626], "responses": ["14", "8", "15", "16", "13", "8", "20", "11", "7"], "num1": [1, 2, 6, 9, 5, 1, 6, 2, 1, 7], "num2": [9, 1, 1, 2, 5, 5, 9, 5, 2, 6], "num3": [4, 5, 8, 5, 3, 2, 5, 4, 4, 6], "type": "DISTRACTOR", "conditions": [12, 1600, "a", 24000], "trial": 7, "trial_type": "math-distractor", "trial_index": 253, "time_elapsed": 1282019, "internal_node_id": "0.0-190.0"}}, {"uniqueid": "MTK0807:33NF62TLXK9DV0T2ZZJSXKEAFWZJKF", "current_trial": 254, "dateTime": 1512758423324, "trialdata": {"rt": -1, "stimulus": "<p id=\"stim\">10</p>", "key_press": -1, "trial_type": "single-stim", "trial_index": 254, "time_elapsed": 1285022, "internal_node_id": "0.0-191.0-0.0"}}, {"uniqueid": "MTK0807:33NF62TLXK9DV0T2ZZJSXKEAFWZJKF", "current_trial": 255, "dateTime": 1512758424328, "trialdata": {"rt": -1, "stimulus": "<p id=\"stim\">9</p>", "key_press": -1, "trial_type": "single-stim", "trial_index": 255, "time_elapsed": 1286025, "internal_node_id": "0.0-191.0-1.0"}}, {"uniqueid": "MTK0807:33NF62TLXK9DV0T2ZZJSXKEAFWZJKF", "current_trial": 256, "dateTime": 1512758425328, "trialdata": {"rt": -1, "stimulus": "<p id=\"stim\">8</p>", "key_press": -1, "trial_type": "single-stim", "trial_index": 256, "time_elapsed": 1287026, "internal_node_id": "0.0-191.0-2.0"}}, {"uniqueid": "MTK0807:33NF62TLXK9DV0T2ZZJSXKEAFWZJKF", "current_trial": 257, "dateTime": 1512758426329, "trialdata": {"rt": -1, "stimulus": "<p id=\"stim\">7</p>", "key_press": -1, "trial_type": "single-stim", "trial_index": 257, "time_elapsed": 1288027, "internal_node_id": "0.0-191.0-3.0"}}, {"uniqueid": "MTK0807:33NF62TLXK9DV0T2ZZJSXKEAFWZJKF", "current_trial": 258, "dateTime": 1512758427331, "trialdata": {"rt": -1, "stimulus": "<p id=\"stim\">6</p>", "key_press": -1, "trial_type": "single-stim", "trial_index": 258, "time_elapsed": 1289028, "internal_node_id": "0.0-191.0-4.0"}}, {"uniqueid": "MTK0807:33NF62TLXK9DV0T2ZZJSXKEAFWZJKF", "current_trial": 259, "dateTime": 1512758428333, "trialdata": {"rt": -1, "stimulus": "<p id=\"stim\">5</p>", "key_press": -1, "trial_type": "single-stim", "trial_index": 259, "time_elapsed": 1290031, "internal_node_id": "0.0-191.0-5.0"}}, {"uniqueid": "MTK0807:33NF62TLXK9DV0T2ZZJSXKEAFWZJKF", "current_trial": 260, "dateTime": 1512758429334, "trialdata": {"rt": -1, "stimulus": "<p id=\"stim\">4</p>", "key_press": -1, "trial_type": "single-stim", "trial_index": 260, "time_elapsed": 1291032, "internal_node_id": "0.0-191.0-6.0"}}, {"uniqueid": "MTK0807:33NF62TLXK9DV0T2ZZJSXKEAFWZJKF", "current_trial": 261, "dateTime": 1512758430335, "trialdata": {"rt": -1, "stimulus": "<p id=\"stim\">3</p>", "key_press": -1, "trial_type": "single-stim", "trial_index": 261, "time_elapsed": 1292033, "internal_node_id": "0.0-191.0-7.0"}}, {"uniqueid": "MTK0807:33NF62TLXK9DV0T2ZZJSXKEAFWZJKF", "current_trial": 262, "dateTime": 1512758431336, "trialdata": {"rt": -1, "stimulus": "<p id=\"stim\">2</p>", "key_press": -1, "trial_type": "single-stim", "trial_index": 262, "time_elapsed": 1293034, "internal_node_id": "0.0-191.0-8.0"}}, {"uniqueid": "MTK0807:33NF62TLXK9DV0T2ZZJSXKEAFWZJKF", "current_trial": 263, "dateTime": 1512758432338, "trialdata": {"rt": -1, "stimulus": "<p id=\"stim\">1</p>", "key_press": -1, "trial_type": "single-stim", "trial_index": 263, "time_elapsed": 1294036, "internal_node_id": "0.0-191.0-9.0"}}, {"uniqueid": "MTK0807:33NF62TLXK9DV0T2ZZJSXKEAFWZJKF", "current_trial": 264, "dateTime": 1512758433840, "trialdata": {"rt": -1, "stimulus": "<p id=\"stim\">+</p>", "key_press": -1, "type": "FIXATION", "trial_type": "single-stim", "trial_index": 264, "time_elapsed": 1295537, "internal_node_id": "0.0-192.0-0.0"}}, {"uniqueid": "MTK0807:33NF62TLXK9DV0T2ZZJSXKEAFWZJKF", "current_trial": 265, "dateTime": 1512758436309, "trialdata": {"rt": -1000, "stimulus": "/static/audio/wordpool/SCALLOP.wav", "key_press": -1, "type": "PRES_AUD", "word": "scallop", "wordID": 1241, "conditions": [12, 1600, "a", 24000], "trial": 7, "serialpos": 0, "trial_type": "single-audio", "trial_index": 265, "time_elapsed": 1298007, "internal_node_id": "0.0-193.0"}}, {"uniqueid": "MTK0807:33NF62TLXK9DV0T2ZZJSXKEAFWZJKF", "current_trial": 266, "dateTime": 1512758438840, "trialdata": {"rt": -1000, "stimulus": "/static/audio/wordpool/PLAZA.wav", "key_press": -1, "type": "PRES_AUD", "word": "plaza", "wordID": 1087, "conditions": [12, 1600, "a", 24000], "trial": 7, "serialpos": 1, "trial_type": "single-audio", "trial_index": 266, "time_elapsed": 1300538, "internal_node_id": "0.0-194.0"}}, {"uniqueid": "MTK0807:33NF62TLXK9DV0T2ZZJSXKEAFWZJKF", "current_trial": 267, "dateTime": 1512758441392, "trialdata": {"rt": -1000, "stimulus": "/static/audio/wordpool/CONCERT.wav", "key_press": -1, "type": "PRES_AUD", "word": "concert", "wordID": 359, "conditions": [12, 1600, "a", 24000], "trial": 7, "serialpos": 2, "trial_type": "single-audio", "trial_index": 267, "time_elapsed": 1303090, "internal_node_id": "0.0-195.0"}}, {"uniqueid": "MTK0807:33NF62TLXK9DV0T2ZZJSXKEAFWZJKF", "current_trial": 268, "dateTime": 1512758444119, "trialdata": {"rt": -1000, "stimulus": "/static/audio/wordpool/HONEY.wav", "key_press": -1, "type": "PRES_AUD", "word": "honey", "wordID": 712, "conditions": [12, 1600, "a", 24000], "trial": 7, "serialpos": 3, "trial_type": "single-audio", "trial_index": 268, "time_elapsed": 1305817, "internal_node_id": "0.0-196.0"}}, {"uniqueid": "MTK0807:33NF62TLXK9DV0T2ZZJSXKEAFWZJKF", "current_trial": 269, "dateTime": 1512758446919, "trialdata": {"rt": -1000, "stimulus": "/static/audio/wordpool/SADDLE.wav", "key_press": -1, "type": "PRES_AUD", "word": "saddle", "wordID": 1220, "conditions": [12, 1600, "a", 24000], "trial": 7, "serialpos": 4, "trial_type": "single-audio", "trial_index": 269, "time_elapsed": 1308617, "internal_node_id": "0.0-197.0"}}, {"uniqueid": "MTK0807:33NF62TLXK9DV0T2ZZJSXKEAFWZJKF", "current_trial": 270, "dateTime": 1512758449595, "trialdata": {"rt": -1000, "stimulus": "/static/audio/wordpool/CASHEW.wav", "key_press": -1, "type": "PRES_AUD", "word": "cashew", "wordID": 252, "conditions": [12, 1600, "a", 24000], "trial": 7, "serialpos": 5, "trial_type": "single-audio", "trial_index": 270, "time_elapsed": 1311293, "internal_node_id": "0.0-198.0"}}, {"uniqueid": "MTK0807:33NF62TLXK9DV0T2ZZJSXKEAFWZJKF", "current_trial": 271, "dateTime": 1512758452255, "trialdata": {"rt": -1000, "stimulus": "/static/audio/wordpool/DAUGHTER.wav", "key_press": -1, "type": "PRES_AUD", "word": "daughter", "wordID": 441, "conditions": [12, 1600, "a", 24000], "trial": 7, "serialpos": 6, "trial_type": "single-audio", "trial_index": 271, "time_elapsed": 1313953, "internal_node_id": "0.0-199.0"}}, {"uniqueid": "MTK0807:33NF62TLXK9DV0T2ZZJSXKEAFWZJK