{"condition": 0, "counterbalance": 383, "assignmentId": "35K3O9HUACKU4YFWKNH4KR9DZLKEF4", "workerId": "MTK0251", "hitId": "3HYV4299H03J2Z7FM76WLFW7ZY78ER", "currenttrial": 628, "bonus": 0, "data": [{"uniqueid": "MTK0251:35K3O9HUACKU4YFWKNH4KR9DZLKEF4", "current_trial": 0, "dateTime": 1510681814965, "trialdata": {"rt": 33616, "key_press": 74, "type": "INSTRUCTIONS", "trial_type": "text", "trial_index": 0, "time_elapsed": 33624, "internal_node_id": "0.0-0.0"}}, {"uniqueid": "MTK0251:35K3O9HUACKU4YFWKNH4KR9DZLKEF4", "current_trial": 1, "dateTime": 1510681822011, "trialdata": {"rt": 7041, "key_press": 74, "type": "INSTRUCTIONS", "trial_type": "text", "trial_index": 1, "time_elapsed": 40672, "internal_node_id": "0.0-1.0"}}, {"uniqueid": "MTK0251:35K3O9HUACKU4YFWKNH4KR9DZLKEF4", "current_trial": 2, "dateTime": 1510681840591, "trialdata": {"rt": [18515], "responses": ["ocean"], "type": "AUDIO_TEST", "trial_type": "audio-test", "trial_index": 2, "time_elapsed": 59253, "internal_node_id": "0.0-2.0"}}, {"uniqueid": "MTK0251:35K3O9HUACKU4YFWKNH4KR9DZLKEF4", "current_trial": 3, "dateTime": 1510681847191, "trialdata": {"rt": [6581], "responses": ["crystal"], "type": "AUDIO_TEST", "trial_type": "audio-test", "trial_index": 3, "time_elapsed": 65853, "internal_node_id": "0.0-3.0"}}, {"uniqueid": "MTK0251:35K3O9HUACKU4YFWKNH4KR9DZLKEF4", "current_trial": 4, "dateTime": 1510681852691, "trialdata": {"rt": [5479], "responses": ["spice"], "type": "AUDIO_TEST", "trial_type": "audio-test", "trial_index": 4, "time_elapsed": 71352, "internal_node_id": "0.0-4.0"}}, {"uniqueid": "MTK0251:35K3O9HUACKU4YFWKNH4KR9DZLKEF4", "current_trial": 5, "dateTime": 1510681873814, "trialdata": {"rt": 20344, "responses": "{\"Q0\":\"9 pm\",\"Q1\":\"4 am\",\"Q2\":\"5\"}", "type": "SLEEP_SURVEY", "trial_type": "survey-text", "trial_index": 5, "time_elapsed": 92476, "internal_node_id": "0.0-5.0"}}, {"uniqueid": "MTK0251:35K3O9HUACKU4YFWKNH4KR9DZLKEF4", "current_trial": 6, "dateTime": 1510681937987, "trialdata": {"rt": 63169, "key_press": 74, "type": "INSTRUCTIONS", "trial_type": "text", "trial_index": 6, "time_elapsed": 156649, "internal_node_id": "0.0-6.0"}}, {"uniqueid": "MTK0251:35K3O9HUACKU4YFWKNH4KR9DZLKEF4", "current_trial": 7, "dateTime": 1510681964543, "trialdata": {"rt": 26051, "key_press": 75, "type": "INSTRUCTIONS", "trial_type": "text", "trial_index": 7, "time_elapsed": 183205, "internal_node_id": "0.0-7.0"}}, {"uniqueid": "MTK0251:35K3O9HUACKU4YFWKNH4KR9DZLKEF4", "current_trial": 8, "dateTime": 1510681975537, "trialdata": {"rt": 10490, "key_press": 74, "type": "INSTRUCTIONS", "trial_type": "text", "trial_index": 8, "time_elapsed": 194198, "internal_node_id": "0.0-8.0"}}, {"uniqueid": "MTK0251:35K3O9HUACKU4YFWKNH4KR9DZLKEF4", "current_trial": 9, "dateTime": 1510681994553, "trialdata": {"rt": [4381, 7367, 9654, 12086, 14197, 16549], "responses": ["20", "15", "20", "18", "20", "20"], "num1": [5, 3, 6, 2, 9, 5, 8], "num2": [6, 4, 8, 7, 6, 9, 3], "num3": [9, 4, 6, 9, 5, 6, 2], "type": "DISTRACTOR", "conditions": [18, 1200, "v", 18000], "trial": 0, "trial_type": "math-distractor", "trial_index": 9, "time_elapsed": 213214, "internal_node_id": "0.0-9.0"}}, {"uniqueid": "MTK0251:35K3O9HUACKU4YFWKNH4KR9DZLKEF4", "current_trial": 10, "dateTime": 1510681997558, "trialdata": {"rt": -1, "stimulus": "<p id=\"stim\">10</p>", "key_press": -1, "trial_type": "single-stim", "trial_index": 10, "time_elapsed": 216220, "internal_node_id": "0.0-10.0-0.0"}}, {"uniqueid": "MTK0251:35K3O9HUACKU4YFWKNH4KR9DZLKEF4", "current_trial": 11, "dateTime": 1510681998561, "trialdata": {"rt": -1, "stimulus": "<p id=\"stim\">9</p>", "key_press": -1, "trial_type": "single-stim", "trial_index": 11, "time_elapsed": 217222, "internal_node_id": "0.0-10.0-1.0"}}, {"uniqueid": "MTK0251:35K3O9HUACKU4YFWKNH4KR9DZLKEF4", "current_trial": 12, "dateTime": 1510681999565, "trialdata": {"rt": -1, "stimulus": "<p id=\"stim\">8</p>", "key_press": -1, "trial_type": "single-stim", "trial_index": 12, "time_elapsed": 218227, "internal_node_id": "0.0-10.0-2.0"}}, {"uniqueid": "MTK0251:35K3O9HUACKU4YFWKNH4KR9DZLKEF4", "current_trial": 13, "dateTime": 1510682000571, "trialdata": {"rt": -1, "stimulus": "<p id=\"stim\">7</p>", "key_press": -1, "trial_type": "single-stim", "trial_index": 13, "time_elapsed": 219233, "internal_node_id": "0.0-10.0-3.0"}}, {"uniqueid": "MTK0251:35K3O9HUACKU4YFWKNH4KR9DZLKEF4", "current_trial": 14, "dateTime": 1510682001574, "trialdata": {"rt": -1, "stimulus": "<p id=\"stim\">6</p>", "key_press": -1, "trial_type": "single-stim", "trial_index": 14, "time_elapsed": 220235, "internal_node_id": "0.0-10.0-4.0"}}, {"uniqueid": "MTK0251:35K3O9HUACKU4YFWKNH4KR9DZLKEF4", "current_trial": 15, "dateTime": 1510682002575, "trialdata": {"rt": -1, "stimulus": "<p id=\"stim\">5</p>", "key_press": -1, "trial_type": "single-stim", "trial_index": 15, "time_elapsed": 221237, "internal_node_id": "0.0-10.0-5.0"}}, {"uniqueid": "MTK0251:35K3O9HUACKU4YFWKNH4KR9DZLKEF4", "current_trial": 16, "dateTime": 1510682003578, "trialdata": {"rt": -1, "stimulus": "<p id=\"stim\">4</p>", "key_press": -1, "trial_type": "single-stim", "trial_index": 16, "time_elapsed": 222240, "internal_node_id": "0.0-10.0-6.0"}}, {"uniqueid": "MTK0251:35K3O9HUACKU4YFWKNH4KR9DZLKEF4", "current_trial": 17, "dateTime": 1510682004610, "trialdata": {"rt": -1, "stimulus": "<p id=\"stim\">3</p>", "key_press": -1, "trial_type": "single-stim", "trial_index": 17, "time_elapsed": 223271, "internal_node_id": "0.0-10.0-7.0"}}, {"uniqueid": "MTK0251:35K3O9HUACKU4YFWKNH4KR9DZLKEF4", "current_trial": 18, "dateTime": 1510682005613, "trialdata": {"rt": -1, "stimulus": "<p id=\"stim\">2</p>", "key_press": -1, "trial_type": "single-stim", "trial_index": 18, "time_elapsed": 224275, "internal_node_id": "0.0-10.0-8.0"}}, {"uniqueid": "MTK0251:35K3O9HUACKU4YFWKNH4KR9DZLKEF4", "current_trial": 19, "dateTime": 1510682006615, "trialdata": {"rt": -1, "stimulus": "<p id=\"stim\">1</p>", "key_press": -1, "trial_type": "single-stim", "trial_index": 19, "time_elapsed": 225276, "internal_node_id": "0.0-10.0-9.0"}}, {"uniqueid": "MTK0251:35K3O9HUACKU4YFWKNH4KR9DZLKEF4", "current_trial": 20, "dateTime": 1510682008128, "trialdata": {"rt": -1, "stimulus": "<p id=\"stim\">+</p>", "key_press": -1, "type": "FIXATION", "trial_type": "single-stim", "trial_index": 20, "time_elapsed": 226789, "internal_node_id": "0.0-11.0-0.0"}}, {"uniqueid": "MTK0251:35K3O9HUACKU4YFWKNH4KR9DZLKEF4", "current_trial": 21, "dateTime": 1510682009331, "trialdata": {"rt": -1, "stimulus": "<p id=\"stim\">COD</p>", "key_press": -1, "type": "PRES_VIS", "word": "cod", "wordID": 339, "conditions": [18, 1200, "v", 18000], "trial": 0, "serialpos": 0, "trial_type": "single-stim", "trial_index": 21, "time_elapsed": 227993, "internal_node_id": "0.0-12.0"}}, {"uniqueid": "MTK0251:35K3O9HUACKU4YFWKNH4KR9DZLKEF4", "current_trial": 22, "dateTime": 1510682011427, "trialdata": {"rt": -1, "stimulus": "<p id=\"stim\">ORCHID</p>", "key_press": -1, "type": "PRES_VIS", "word": "orchid", "wordID": 981, "conditions": [18, 1200, "v", 18000], "trial": 0, "serialpos": 1, "trial_type": "single-stim", "trial_index": 22, "time_elapsed": 230088, "internal_node_id": "0.0-13.0"}}, {"uniqueid": "MTK0251:35K3O9HUACKU4YFWKNH4KR9DZLKEF4", "current_trial": 23, "dateTime": 1510682013532, "trialdata": {"rt": -1, "stimulus": "<p id=\"stim\">SEAL</p>", "key_press": -1, "type": "PRES_VIS", "word": "seal", "wordID": 1261, "conditions": [18, 1200, "v", 18000], "trial": 0, "serialpos": 2, "trial_type": "single-stim", "trial_index": 23, "time_elapsed": 232194, "internal_node_id": "0.0-14.0"}}, {"uniqueid": "MTK0251:35K3O9HUACKU4YFWKNH4KR9DZLKEF4", "current_trial": 24, "dateTime": 1510682015759, "trialdata": {"rt": -1, "stimulus": "<p id=\"stim\">QUEEN</p>", "key_press": -1, "type": "PRES_VIS", "word": "queen", "wordID": 1148, "conditions": [18, 1200, "v", 18000], "trial": 0, "serialpos": 3, "trial_type": "single-stim", "trial_index": 24, "time_elapsed": 234420, "internal_node_id": "0.0-15.0"}}, {"uniqueid": "MTK0251:35K3O9HUACKU4YFWKNH4KR9DZLKEF4", "current_trial": 25, "dateTime": 1510682017952, "trialdata": {"rt": -1, "stimulus": "<p id=\"stim\">WORKER</p>", "key_press": -1, "type": "PRES_VIS", "word": "worker", "wordID": 1620, "conditions": [18, 1200, "v", 18000], "trial": 0, "serialpos": 4, "trial_type": "single-stim", "trial_index": 25, "time_elapsed": 236614, "internal_node_id": "0.0-16.0"}}, {"uniqueid": "MTK0251:35K3O9HUACKU4YFWKNH4KR9DZLKEF4", "current_trial": 26, "dateTime": 1510682020147, "trialdata": {"rt": -1, "stimulus": "<p id=\"stim\">SEAGULL</p>", "key_press": -1, "type": "PRES_VIS", "word": "seagull", "wordID": 1260, "conditions": [18, 1200, "v", 18000], "trial": 0, "serialpos": 5, "trial_type": "single-stim", "trial_index": 26, "time_elapsed": 238809, "internal_node_id": "0.0-17.0"}}, {"uniqueid": "MTK0251:35K3O9HUACKU4YFWKNH4KR9DZLKEF4", "current_trial": 27, "dateTime": 1510682022352, "trialdata": {"rt": -1, "stimulus": "<p id=\"stim\">CREVICE</p>", "key_press": -1, "type": "PRES_VIS", "word": "crevice", "wordID": 404, "conditions": [18, 1200, "v", 18000], "trial": 0, "serialpos": 6, "trial_type": "single-stim", "trial_index": 27, "time_elapsed": 241014, "internal_node_id": "0.0-18.0"}}, {"uniqueid": "MTK0251:35K3O9HUACKU4YFWKNH4KR9DZLKEF4", "current_trial": 28, "dateTime": 1510682024585, "trialdata": {"rt": -1, "stimulus": "<p id=\"stim\">MARSH</p>", "key_press": -1, "type": "PRES_VIS", "word": "marsh", "wordID": 873, "conditions": [18, 1200, "v", 18000], "trial": 0, "serialpos": 7, "trial_type": "single-stim", "trial_index": 28, "time_elapsed": 243247, "internal_node_id": "0.0-19.0"}}, {"uniqueid": "MTK0251:35K3O9HUACKU4YFWKNH4KR9DZLKEF4", "current_trial": 29, "dateTime": 1510682026949, "trialdata": {"rt": -1, "stimulus": "<p id=\"stim\">HUMAN</p>", "key_press": -1, "type": "PRES_VIS", "word": "human", "wordID": 725, "conditions": [18, 1200, "v", 18000], "trial": 0, "serialpos": 8, "trial_type": "single-stim", "trial_index": 29, "time_elapsed": 245611, "internal_node_id": "0.0-20.0"}}, {"uniqueid": "MTK0251:35K3O9HUACKU4YFWKNH4KR9DZLKEF4", "current_trial": 30, "dateTime": 1510682028978, "trialdata": {"rt": -1, "stimulus": "<p id=\"stim\">OUTFIT</p>", "key_press": -1, "type": "PRES_VIS", "word": "outfit", "wordID": 987, "conditions": [18, 1200, "v", 18000], "trial": 0, "serialpos": 9, "trial_type": "single-stim", "trial_index": 30, "time_elapsed": 247639, "internal_node_id": "0.0-21.0"}}, {"uniqueid": "MTK0251:35K3O9HUACKU4YFWKNH4KR9DZLKEF4", "current_trial": 31, "dateTime": 1510682031237, "trialdata": {"rt": -1, "stimulus": "<p id=\"stim\">PIZZA</p>", "key_press": -1, "type": "PRES_VIS", "word": "pizza", "wordID": 1078, "conditions": [18, 1200, "v", 18000], "trial": 0, "serialpos": 10, "trial_type": "single-stim", "trial_index": 31, "time_elapsed": 249898, "internal_node_id": "0.0-22.0"}}, {"uniqueid": "MTK0251:35K3O9HUACKU4YFWKNH4KR9DZLKEF4", "current_trial": 32, "dateTime": 1510682033491, "trialdata": {"rt": -1, "stimulus": "<p id=\"stim\">BLOCKADE</p>", "key_press": -1, "type": "PRES_VIS", "word": "blockade", "wordID": 136, "conditions": [18, 1200, "v", 18000], "trial": 0, "serialpos": 11, "trial_type": "single-stim", "trial_index": 32, "time_elapsed": 252152, "internal_node_id": "0.0-23.0"}}, {"uniqueid": "MTK0251:35K3O9HUACKU4YFWKNH4KR9DZLKEF4", "current_trial": 33, "dateTime": 1510682035902, "trialdata": {"rt": -1, "stimulus": "<p id=\"stim\">BROOK</p>", "key_press": -1, "type": "PRES_VIS", "word": "brook", "wordID": 176, "conditions": [18, 1200, "v", 18000], "trial": 0, "serialpos": 12, "trial_type": "single-stim", "trial_index": 33, "time_elapsed": 254563, "internal_node_id": "0.0-24.0"}}, {"uniqueid": "MTK0251:35K3O9HUACKU4YFWKNH4KR9DZLKEF4", "current_trial": 34, "dateTime": 1510682038270, "trialdata": {"rt": -1, "stimulus": "<p id=\"stim\">SPOOL</p>", "key_press": -1, "type": "PRES_VIS", "word": "spool", "wordID": 1355, "conditions": [18, 1200, "v", 18000], "trial": 0, "serialpos": 13, "trial_type": "single-stim", "trial_index": 34, "time_elapsed": 256932, "internal_node_id": "0.0-25.0"}}, {"uniqueid": "MTK0251:35K3O9HUACKU4YFWKNH4KR9DZLKEF4", "current_trial": 35, "dateTime": 1510682040449, "trialdata": {"rt": -1, "stimulus": "<p id=\"stim\">PADDING</p>", "key_press": -1, "type": "PRES_VIS", "word": "padding", "wordID": 998, "conditions": [18, 1200, "v", 18000], "trial": 0, "serialpos": 14, "trial_type": "single-stim", "trial_index": 35, "time_elapsed": 259111, "internal_node_id": "0.0-26.0"}}, {"uniqueid": "MTK0251:35K3O9HUACKU4YFWKNH4KR9DZLKEF4", "current_trial": 36, "dateTime": 1510682042632, "trialdata": {"rt": -1, "stimulus": "<p id=\"stim\">PLAYGROUND</p>", "key_press": -1, "type": "PRES_VIS", "word": "playground", "wordID": 1086, "conditions": [18, 1200, "v", 18000], "trial": 0, "serialpos": 15, "trial_type": "single-stim", "trial_index": 36, "time_elapsed": 261294, "internal_node_id": "0.0-27.0"}}, {"uniqueid": "MTK0251:35K3O9HUACKU4YFWKNH4KR9DZLKEF4", "current_trial": 37, "dateTime": 1510682044778, "trialdata": {"rt": -1, "stimulus": "<p id=\"stim\">RECEIPT</p>", "key_press": -1, "type": "PRES_VIS", "word": "receipt", "wordID": 1172, "conditions": [18, 1200, "v", 18000], "trial": 0, "serialpos": 16, "trial_type": "single-stim", "trial_index": 37, "time_elapsed": 263439, "internal_node_id": "0.0-28.0"}}, {"uniqueid": "MTK0251:35K3O9HUACKU4YFWKNH4KR9DZLKEF4", "current_trial": 38, "dateTime": 1510682047128, "trialdata": {"rt": -1, "stimulus": "<p id=\"stim\">DENIM</p>", "key_press": -1, "type": "PRES_VIS", "word": "denim", "wordID": 445, "conditions": [18, 1200, "v", 18000], "trial": 0, "serialpos": 17, "trial_type": "single-stim", "trial_index": 38, "time_elapsed": 265789, "internal_node_id": "0.0-29.0"}}, {"uniqueid": "MTK0251:35K3O9HUACKU4YFWKNH4KR9DZLKEF4", "current_trial": 39, "dateTime": 1510682049494, "trialdata": {"rt": -1, "stimulus": "", "key_press": -1, "type": "PRE_RECALL_DELAY", "trial_type": "single-stim", "trial_index": 39, "time_elapsed": 268156, "internal_node_id": "0.0-30.0-0.0"}}, {"uniqueid": "MTK0251:35K3O9HUACKU4YFWKNH4KR9DZLKEF4", "current_trial": 40, "dateTime": 1510682050002, "trialdata": {"rt": -1000, "stimulus": "/static/audio/400Hz.wav", "key_press": -1, "type": "PRE_RECALL_ALERT", "trial_type": "single-audio", "trial_index": 40, "time_elapsed": 268664, "internal_node_id": "0.0-31.0"}}, {"uniqueid": "MTK0251:35K3O9HUACKU4YFWKNH4KR9DZLKEF4", "current_trial": 41, "dateTime": 1510682110064, "trialdata": {"rt": [4447, 7644, 10158, 11468, 14811, 16438, 18372, 20014, 24913, 25351, 26716, 34516, 34996, 35680, 39300, 40488, 40782, 41155, 41400, 41599, 41797, 50955, 51462], "recwords": ["denim", "receipt", "playground", "seal", "crevice", "pizza", "blockade", "briij", "padding", "", "", "queen", "", "", "", "", "", "", "", "", "", "", ""], "type": "FREE_RECALL", "conditions": [18, 1200, "v", 18000], "trial": 0, "trial_type": "free-recall", "trial_index": 41, "time_elapsed": 328693, "internal_node_id": "0.0-32.0-0.0"}}, {"uniqueid": "MTK0251:35K3O9HUACKU4YFWKNH4KR9DZLKEF4", "current_trial": 42, "dateTime": 1510682120430, "trialdata": {"rt": 8363, "key_press": 32, "type": "INSTRUCTIONS", "trial_type": "text", "trial_index": 42, "time_elapsed": 339092, "internal_node_id": "0.0-33.0"}}, {"uniqueid": "MTK0251:35K3O9HUACKU4YFWKNH4KR9DZLKEF4", "current_trial": 43, "dateTime": 1510682140437, "trialdata": {"rt": [2960, 4851, 6423, 8176, 9797, 11471, 13687, 15693], "responses": ["13", "14", "16", "15", "14", "15", "19", "20"], "num1": [2, 5, 5, 8, 7, 9, 4, 3, 5], "num2": [8, 4, 5, 3, 4, 4, 7, 9, 9], "num3": [3, 5, 6, 4, 3, 2, 8, 8, 6], "type": "DISTRACTOR", "conditions": [18, 1200, "a", 18000], "trial": 1, "trial_type": "math-distractor", "trial_index": 43, "time_elapsed": 359099, "internal_node_id": "0.0-34.0"}}, {"uniqueid": "MTK0251:35K3O9HUACKU4YFWKNH4KR9DZLKEF4", "current_trial": 44, "dateTime": 1510682143448, "trialdata": {"rt": -1, "stimulus": "<p id=\"stim\">10</p>", "key_press": -1, "trial_type": "single-stim", "trial_index": 44, "time_elapsed": 362110, "internal_node_id": "0.0-35.0-0.0"}}, {"uniqueid": "MTK0251:35K3O9HUACKU4YFWKNH4KR9DZLKEF4", "current_trial": 45, "dateTime": 1510682144451, "trialdata": {"rt": -1, "stimulus": "<p id=\"stim\">9</p>", "key_press": -1, "trial_type": "single-stim", "trial_index": 45, "time_elapsed": 363112, "internal_node_id": "0.0-35.0-1.0"}}, {"uniqueid": "MTK0251:35K3O9HUACKU4YFWKNH4KR9DZLKEF4", "current_trial": 46, "dateTime": 1510682145458, "trialdata": {"rt": -1, "stimulus": "<p id=\"stim\">8</p>", "key_press": -1, "trial_type": "single-stim", "trial_index": 46, "time_elapsed": 364120, "internal_node_id": "0.0-35.0-2.0"}}, {"uniqueid": "MTK0251:35K3O9HUACKU4YFWKNH4KR9DZLKEF4", "current_trial": 47, "dateTime": 1510682146461, "trialdata": {"rt": -1, "stimulus": "<p id=\"stim\">7</p>", "key_press": -1, "trial_type": "single-stim", "trial_index": 47, "time_elapsed": 365123, "internal_node_id": "0.0-35.0-3.0"}}, {"uniqueid": "MTK0251:35K3O9HUACKU4YFWKNH4KR9DZLKEF4", "current_trial": 48, "dateTime": 1510682147466, "trialdata": {"rt": -1, "stimulus": "<p id=\"stim\">6</p>", "key_press": -1, "trial_type": "single-stim", "trial_index": 48, "time_elapsed": 366127, "internal_node_id": "0.0-35.0-4.0"}}, {"uniqueid": "MTK0251:35K3O9HUACKU4YFWKNH4KR9DZLKEF4", "current_trial": 49, "dateTime": 1510682148468, "trialdata": {"rt": -1, "stimulus": "<p id=\"stim\">5</p>", "key_press": -1, "trial_type": "single-stim", "trial_index": 49, "time_elapsed": 367130, "internal_node_id": "0.0-35.0-5.0"}}, {"uniqueid": "MTK0251:35K3O9HUACKU4YFWKNH4KR9DZLKEF4", "current_trial": 50, "dateTime": 1510682149473, "trialdata": {"rt": -1, "stimulus": "<p id=\"stim\">4</p>", "key_press": -1, "trial_type": "single-stim", "trial_index": 50, "time_elapsed": 368133, "internal_node_id": "0.0-35.0-6.0"}}, {"uniqueid": "MTK0251:35K3O9HUACKU4YFWKNH4KR9DZLKEF4", "current_trial": 51, "dateTime": 1510682150475, "trialdata": {"rt": -1, "stimulus": "<p id=\"stim\">3</p>", "key_press": -1, "trial_type": "single-stim", "trial_index": 51, "time_elapsed": 369136, "internal_node_id": "0.0-35.0-7.0"}}, {"uniqueid": "MTK0251:35K3O9HUACKU4YFWKNH4KR9DZLKEF4", "current_trial": 52, "dateTime": 1510682151480, "trialdata": {"rt": -1, "stimulus": "<p id=\"stim\">2</p>", "key_press": -1, "trial_type": "single-stim", "trial_index": 52, "time_elapsed": 370142, "internal_node_id": "0.0-35.0-8.0"}}, {"uniqueid": "MTK0251:35K3O9HUACKU4YFWKNH4KR9DZLKEF4", "current_trial": 53, "dateTime": 1510682152482, "trialdata": {"rt": -1, "stimulus": "<p id=\"stim\">1</p>", "key_press": -1, "trial_type": "single-stim", "trial_index": 53, "time_elapsed": 371144, "internal_node_id": "0.0-35.0-9.0"}}, {"uniqueid": "MTK0251:35K3O9HUACKU4YFWKNH4KR9DZLKEF4", "current_trial": 54, "dateTime": 1510682153985, "trialdata": {"rt": -1, "stimulus": "<p id=\"stim\">+</p>", "key_press": -1, "type": "FIXATION", "trial_type": "single-stim", "trial_index": 54, "time_elapsed": 372646, "internal_node_id": "0.0-36.0-0.0"}}, {"uniqueid": "MTK0251:35K3O9HUACKU4YFWKNH4KR9DZLKEF4", "current_trial": 55, "dateTime": 1510682156237, "trialdata": {"rt": -1000, "stimulus": "/static/audio/wordpool/PLATE.wav", "key_press": -1, "type": "PRES_AUD", "word": "plate", "wordID": 1085, "conditions": [18, 1200, "a", 18000], "trial": 1, "serialpos": 0, "trial_type": "single-audio", "trial_index": 55, "time_elapsed": 374899, "internal_node_id": "0.0-37.0"}}, {"uniqueid": "MTK0251:35K3O9HUACKU4YFWKNH4KR9DZLKEF4", "current_trial": 56, "dateTime": 1510682158501, "trialdata": {"rt": -1000, "stimulus": "/static/audio/wordpool/COFFEE.wav", "key_press": -1, "type": "PRES_AUD", "word": "coffee", "wordID": 340, "conditions": [18, 1200, "a", 18000], "trial": 1, "serialpos": 1, "trial_type": "single-audio", "trial_index": 56, "time_elapsed": 377163, "internal_node_id": "0.0-38.0"}}, {"uniqueid": "MTK0251:35K3O9HUACKU4YFWKNH4KR9DZLKEF4", "current_trial": 57, "dateTime": 1510682160540, "trialdata": {"rt": -1000, "stimulus": "/static/audio/wordpool/MOP.wav", "key_press": -1, "type": "PRES_AUD", "word": "mop", "wordID": 915, "conditions": [18, 1200, "a", 18000], "trial": 1, "serialpos": 2, "trial_type": "single-audio", "trial_index": 57, "time_elapsed": 379202, "internal_node_id": "0.0-39.0"}}, {"uniqueid": "MTK0251:35K3O9HUACKU4YFWKNH4KR9DZLKEF4", "current_trial": 58, "dateTime": 1510682162693, "trialdata": {"rt": -1000, "stimulus": "/static/audio/wordpool/ROBOT.wav", "key_press": -1, "type": "PRES_AUD", "word": "robot", "wordID": 1199, "conditions": [18, 1200, "a", 18000], "trial": 1, "serialpos": 3, "trial_type": "single-audio", "trial_index": 58, "time_elapsed": 381355, "internal_node_id": "0.0-40.0"}}, {"uniqueid": "MTK0251:35K3O9HUACKU4YFWKNH4KR9DZLKEF4", "current_trial": 59, "dateTime": 1510682164956, "trialdata": {"rt": -1000, "stimulus": "/static/audio/wordpool/CHIPMUNK.wav", "key_press": -1, "type": "PRES_AUD", "word": "chipmunk", "wordID": 303, "conditions": [18, 1200, "a", 18000], "trial": 1, "serialpos": 4, "trial_type": "single-audio", "trial_index": 59, "time_elapsed": 383618, "internal_node_id": "0.0-41.0"}}, {"uniqueid": "MTK0251:35K3O9HUACKU4YFWKNH4KR9DZLKEF4", "current_trial": 60, "dateTime": 1510682167042, "trialdata": {"rt": -1000, "stimulus": "/static/audio/wordpool/GIRL.wav", "key_press": -1, "type": "PRES_AUD", "word": "girl", "wordID": 636, "conditions": [18, 1200, "a", 18000], "trial": 1, "serialpos": 5, "trial_type": "single-audio", "trial_index": 60, "time_elapsed": 385704, "internal_node_id": "0.0-42.0"}}, {"uniqueid": "MTK0251:35K3O9HUACKU4YFWKNH4KR9DZLKEF4", "current_trial": 61, "dateTime": 1510682169371, "trialdata": {"rt": -1000, "stimulus": "/static/audio/wordpool/CAFE.wav", "key_press": -1, "type": "PRES_AUD", "word": "cafe", "wordID": 215, "conditions": [18, 1200, "a", 18000], "trial": 1, "serialpos": 6, "trial_type": "single-audio", "trial_index": 61, "time_elapsed": 388033, "internal_node_id": "0.0-43.0"}}, {"uniqueid": "MTK0251:35K3O9HUACKU4YFWKNH4KR9DZLKEF4", "current_trial": 62, "dateTime": 1510682171409, "trialdata": {"rt": -1000, "stimulus": "/static/audio/wordpool/OUTDOORS.wav", "key_press": -1, "type": "PRES_AUD", "word": "outdoors", "wordID": 986, "conditions": [18, 1200, "a", 18000], "trial": 1, "serialpos": 7, "trial_type": "single-audio", "trial_index": 62, "time_elapsed": 390071, "internal_node_id": "0.0-44.0"}}, {"uniqueid": "MTK0251:35K3O9HUACKU4YFWKNH4KR9DZLKEF4", "current_trial": 63, "dateTime": 1510682173714, "trialdata": {"rt": -1000, "stimulus": "/static/audio/wordpool/BARREL.wav", "key_press": -1, "type": "PRES_AUD", "word": "barrel", "wordID": 90, "conditions": [18, 1200, "a", 18000], "trial": 1, "serialpos": 8, "trial_type": "single-audio", "trial_index": 63, "time_elapsed": 392376, "internal_node_id": "0.0-45.0"}}, {"uniqueid": "MTK0251:35K3O9HUACKU4YFWKNH4KR9DZLKEF4", "current_trial": 64, "dateTime": 1510682176030, "trialdata": {"rt": -1000, "stimulus": "/static/audio/wordpool/VELVET.wav", "key_press": -1, "type": "PRES_AUD", "word": "velvet", "wordID": 1554, "conditions": [18, 1200, "a", 18000], "trial": 1, "serialpos": 9, "trial_type": "single-audio", "trial_index": 64, "time_elapsed": 394692, "internal_node_id": "0.0-46.0"}}, {"uniqueid": "MTK0251:35K3O9HUACKU4YFWKNH4KR9DZLKEF4", "current_trial": 65, "dateTime": 1510682178185, "trialdata": {"rt": -1000, "stimulus": "/static/audio/wordpool/PARENT.wav", "key_press": -1, "type": "PRES_AUD", "word": "parent", "wordID": 1012, "conditions": [18, 1200, "a", 18000], "trial": 1, "serialpos": 10, "trial_type": "single-audio", "trial_index": 65, "time_elapsed": 396846, "internal_node_id": "0.0-47.0"}}, {"uniqueid": "MTK0251:35K3O9HUACKU4YFWKNH4KR9DZLKEF4", "current_trial": 66, "dateTime": 1510682180497, "trialdata": {"rt": -1000, "stimulus": "/static/audio/wordpool/BASEMENT.wav", "key_press": -1, "type": "PRES_AUD", "word": "basement", "wordID": 93, "conditions": [18, 1200, "a", 18000], "trial": 1, "serialpos": 11, "trial_type": "single-audio", "trial_index": 66, "time_elapsed": 399159, "internal_node_id": "0.0-48.0"}}, {"uniqueid": "MTK0251:35K3O9HUACKU4YFWKNH4KR9DZLKEF4", "current_trial": 67, "dateTime": 1510682182712, "trialdata": {"rt": -1000, "stimulus": "/static/audio/wordpool/CHEST.wav", "key_press": -1, "type": "PRES_AUD", "word": "chest", "wordID": 294, "conditions": [18, 1200, "a", 18000], "trial": 1, "serialpos": 12, "trial_type": "single-audio", "trial_index": 67, "time_elapsed": 401374, "internal_node_id": "0.0-49.0"}}, {"uniqueid": "MTK0251:35K3O9HUACKU4YFWKNH4KR9DZLKEF4", "current_trial": 68, "dateTime": 1510682185009, "trialdata": {"rt": -1000, "stimulus": "/static/audio/wordpool/MACHINE.wav", "key_press": -1, "type": "PRES_AUD", "word": "machine", "wordID": 851, "conditions": [18, 1200, "a", 18000], "trial": 1, "serialpos": 13, "trial_type": "single-audio", "trial_index": 68, "time_elapsed": 403663, "internal_node_id": "0.0-50.0"}}, {"uniqueid": "MTK0251:35K3O9HUACKU4YFWKNH4KR9DZLKEF4", "current_trial": 69, "dateTime": 1510682187383, "trialdata": {"rt": -1000, "stimulus": "/static/audio/wordpool/PORK.wav", "key_press": -1, "type": "PRES_AUD", "word": "pork", "wordID": 1107, "conditions": [18, 1200, "a", 18000], "trial": 1, "serialpos": 14, "trial_type": "single-audio", "trial_index": 69, "time_elapsed": 406045, "internal_node_id": "0.0-51.0"}}, {"uniqueid": "MTK0251:35K3O9HUACKU4YFWKNH4KR9DZLKEF4", "current_trial": 70, "dateTime": 1510682189611, "trialdata": {"rt": -1000, "stimulus": "/static/audio/wordpool/RADISH.wav", "key_press": -1, "type": "PRES_AUD", "word": "radish", "wordID": 1157, "conditions": [18, 1200, "a", 18000], "trial": 1, "serialpos": 15, "trial_type": "single-audio", "trial_index": 70, "time_elapsed": 408272, "internal_node_id": "0.0-52.0"}}, {"uniqueid": "MTK0251:35K3O9HUACKU4YFWKNH4KR9DZLKEF4", "current_trial": 71, "dateTime": 1510682191711, "trialdata": {"rt": -1000, "stimulus": "/static/audio/wordpool/FLEET.wav", "key_press": -1, "type": "PRES_AUD", "word": "fleet", "wordID": 577, "conditions": [18, 1200, "a", 18000], "trial": 1, "serialpos": 16, "trial_type": "single-audio", "trial_index": 71, "time_elapsed": 410373, "internal_node_id": "0.0-53.0"}}, {"uniqueid": "MTK0251:35K3O9HUACKU4YFWKNH4KR9DZLKEF4", "current_trial": 72, "dateTime": 1510682194094, "trialdata": {"rt": -1000, "stimulus": "/static/audio/wordpool/EMPIRE.wav", "key_press": -1, "type": "PRES_AUD", "word": "empire", "wordID": 529, "conditions": [18, 1200, "a", 18000], "trial": 1, "serialpos": 17, "trial_type": "single-audio", "trial_index": 72, "time_elapsed": 412756, "internal_node_id": "0.0-54.0"}}, {"uniqueid": "MTK0251:35K3O9HUACKU4YFWKNH4KR9DZLKEF4", "current_trial": 73, "dateTime": 1510682195340, "trialdata": {"rt": -1, "stimulus": "", "key_press": -1, "type": "PRE_RECALL_DELAY", "trial_type": "single-stim", "trial_index": 73, "time_elapsed": 414002, "internal_node_id": "0.0-55.0-0.0"}}, {"uniqueid": "MTK0251:35K3O9HUACKU4YFWKNH4KR9DZLKEF4", "current_trial": 74, "dateTime": 1510682195852, "trialdata": {"rt": -1000, "stimulus": "/static/audio/400Hz.wav", "key_press": -1, "type": "PRE_RECALL_ALERT", "trial_type": "single-audio", "trial_index": 74, "time_elapsed": 414513, "internal_node_id": "0.0-56.0"}}, {"uniqueid": "MTK0251:35K3O9HUACKU4YFWKNH4KR9DZLKEF4", "current_trial": 75, "dateTime": 1510682255898, "trialdata": {"rt": [3123, 4479, 6605, 8081, 10254, 11550, 14934, 17751, 19315, 21447], "recwords": ["empire", "fleet", "pork", "mchine", "coffee", "cafe", "chipmonk", "velvet", "parrot", "basement"], "type": "FREE_RECALL", "conditions": [18, 1200, "a", 18000], "trial": 1, "trial_type": "free-recall", "trial_index": 75, "time_elapsed": 474551, "internal_node_id": "0.0-57.0-0.0"}}, {"uniqueid": "MTK0251:35K3O9HUACKU4YFWKNH4KR9DZLKEF4", "current_trial": 76, "dateTime": 1510682470831, "trialdata": {"rt": 212918, "key_press": 32, "type": "INSTRUCTIONS", "trial_type": "text", "trial_index": 76, "time_elapsed": 689479, "internal_node_id": "0.0-58.0"}}, {"uniqueid": "MTK0251:35K3O9HUACKU4YFWKNH4KR9DZLKEF4", "current_trial": 77, "dateTime": 1510682483842, "trialdata": {"rt": [4239, 7768, 9648, 11290], "responses": ["15", "17", "22", "8"], "num1": [2, 6, 8, 6, 6], "num2": [8, 9, 6, 1, 2], "num3": [5, 2, 8, 2, 7], "type": "DISTRACTOR", "conditions": [24, 800, "v", 12000], "trial": 2, "trial_type": "math-distractor", "trial_index": 77, "time_elapsed": 702503, "internal_node_id": "0.0-59.0"}}, {"uniqueid": "MTK0251:35K3O9HUACKU4YFWKNH4KR9DZLKEF4", "current_trial": 78, "dateTime": 1510682486849, "trialdata": {"rt": -1, "stimulus": "<p id=\"stim\">10</p>", "key_press": -1, "trial_type": "single-stim", "trial_index": 78, "time_elapsed": 705510, "internal_node_id": "0.0-60.0-0.0"}}, {"uniqueid": "MTK0251:35K3O9HUACKU4YFWKNH4KR9DZLKEF4", "current_trial": 79, "dateTime": 1510682487858, "trialdata": {"rt": -1, "stimulus": "<p id=\"stim\">9</p>", "key_press": -1, "trial_type": "single-stim", "trial_index": 79, "time_elapsed": 706520, "internal_node_id": "0.0-60.0-1.0"}}, {"uniqueid": "MTK0251:35K3O9HUACKU4YFWKNH4KR9DZLKEF4", "current_trial": 80, "dateTime": 1510682488861, "trialdata": {"rt": -1, "stimulus": "<p id=\"stim\">8</p>", "key_press": -1, "trial_type": "single-stim", "trial_index": 80, "time_elapsed": 707523, "internal_node_id": "0.0-60.0-2.0"}}, {"uniqueid": "MTK0251:35K3O9HUACKU4YFWKNH4KR9DZLKEF4", "current_trial": 81, "dateTime": 1510682489864, "trialdata": {"rt": -1, "stimulus": "<p id=\"stim\">7</p>", "key_press": -1, "trial_type": "single-stim", "trial_index": 81, "time_elapsed": 708525, "internal_node_id": "0.0-60.0-3.0"}}, {"uniqueid": "MTK0251:35K3O9HUACKU4YFWKNH4KR9DZLKEF4", "current_trial": 82, "dateTime": 1510682490867, "trialdata": {"rt": -1, "stimulus": "<p id=\"stim\">6</p>", "key_press": -1, "trial_type": "single-stim", "trial_index": 82, "time_elapsed": 709528, "internal_node_id": "0.0-60.0-4.0"}}, {"uniqueid": "MTK0251:35K3O9HUACKU4YFWKNH4KR9DZLKEF4", "current_trial": 83, "dateTime": 1510682491869, "trialdata": {"rt": -1, "stimulus": "<p id=\"stim\">5</p>", "key_press": -1, "trial_type": "single-stim", "trial_index": 83, "time_elapsed": 710530, "internal_node_id": "0.0-60.0-5.0"}}, {"uniqueid": "MTK0251:35K3O9HUACKU4YFWKNH4KR9DZLKEF4", "current_trial": 84, "dateTime": 1510682492881, "trialdata": {"rt": -1, "stimulus": "<p id=\"stim\">4</p>", "key_press": -1, "trial_type": "single-stim", "trial_index": 84, "time_elapsed": 711543, "internal_node_id": "0.0-60.0-6.0"}}, {"uniqueid": "MTK0251:35K3O9HUACKU4YFWKNH4KR9DZLKEF4", "current_trial": 85, "dateTime": 1510682493884, "trialdata": {"rt": -1, "stimulus": "<p id=\"stim\">3</p>", "key_press": -1, "trial_type": "single-stim", "trial_index": 85, "time_elapsed": 712545, "internal_node_id": "0.0-60.0-7.0"}}, {"uniqueid": "MTK0251:35K3O9HUACKU4YFWKNH4KR9DZLKEF4", "current_trial": 86, "dateTime": 1510682494885, "trialdata": {"rt": -1, "stimulus": "<p id=\"stim\">2</p>", "key_press": -1, "trial_type": "single-stim", "trial_index": 86, "time_elapsed": 713547, "internal_node_id": "0.0-60.0-8.0"}}, {"uniqueid": "MTK0251:35K3O9HUACKU4YFWKNH4KR9DZLKEF4", "current_trial": 87, "dateTime": 1510682495891, "trialdata": {"rt": -1, "stimulus": "<p id=\"stim\">1</p>", "key_press": -1, "trial_type": "single-stim", "trial_index": 87, "time_elapsed": 714552, "internal_node_id": "0.0-60.0-9.0"}}, {"uniqueid": "MTK0251:35K3O9HUACKU4YFWKNH4KR9DZLKEF4", "current_trial": 88, "dateTime": 1510682497393, "trialdata": {"rt": -1, "stimulus": "<p id=\"stim\">+</p>", "key_press": -1, "type": "FIXATION", "trial_type": "single-stim", "trial_index": 88, "time_elapsed": 716055, "internal_node_id": "0.0-61.0-0.0"}}, {"uniqueid": "MTK0251:35K3O9HUACKU4YFWKNH4KR9DZLKEF4", "current_trial": 89, "dateTime": 1510682498196, "trialdata": {"rt": -1, "stimulus": "<p id=\"stim\">PIGMENT</p>", "key_press": -1, "type": "PRES_VIS", "word": "pigment", "wordID": 1065, "conditions": [24, 800, "v", 12000], "trial": 2, "serialpos": 0, "trial_type": "single-stim", "trial_index": 89, "time_elapsed": 716858, "internal_node_id": "0.0-62.0"}}, {"uniqueid": "MTK0251:35K3O9HUACKU4YFWKNH4KR9DZLKEF4", "current_trial": 90, "dateTime": 1510682499929, "trialdata": {"rt": -1, "stimulus": "<p id=\"stim\">KITCHEN</p>", "key_press": -1, "type": "PRES_VIS", "word": "kitchen", "wordID": 777, "conditions": [24, 800, "v", 12000], "trial": 2, "serialpos": 1, "trial_type": "single-stim", "trial_index": 90, "time_elapsed": 718591, "internal_node_id": "0.0-63.0"}}, {"uniqueid": "MTK0251:35K3O9HUACKU4YFWKNH4KR9DZLKEF4", "current_trial": 91, "dateTime": 1510682501594, "trialdata": {"rt": -1, "stimulus": "<p id=\"stim\">HUSBAND</p>", "key_press": -1, "type": "PRES_VIS", "word": "husband", "wordID": 727, "conditions": [24, 800, "v", 12000], "trial": 2, "serialpos": 2, "trial_type": "single-stim", "trial_index": 91, "time_elapsed": 720256, "internal_node_id": "0.0-64.0"}}, {"uniqueid": "MTK0251:35K3O9HUACKU4YFWKNH4KR9DZLKEF4", "current_trial": 92, "dateTime": 1510682503223, "trialdata": {"rt": -1, "stimulus": "<p id=\"stim\">SHOVEL</p>", "key_press": -1, "type": "PRES_VIS", "word": "shovel", "wordID": 1294, "conditions": [24, 800, "v", 12000], "trial": 2, "serialpos": 3, "trial_type": "single-stim", "trial_index": 92, "time_elapsed": 721884, "internal_node_id": "0.0-65.0"}}, {"uniqueid": "MTK0251:35K3O9HUACKU4YFWKNH4KR9DZLKEF4", "current_trial": 93, "dateTime": 1510682504866, "trialdata": {"rt": -1, "stimulus": "<p id=\"stim\">CASKET</p>", "key_press": -1, "type": "PRES_VIS", "word": "casket", "wordID": 254, "conditions": [24, 800, "v", 12000], "trial": 2, "serialpos": 4, "trial_type": "single-stim", "trial_index": 93, "time_elapsed": 723528, "internal_node_id": "0.0-66.0"}}, {"uniqueid": "MTK0251:35K3O9HUACKU4YFWKNH4KR9DZLKEF4", "current_trial": 94, "dateTime": 1510682506484, "trialdata": {"rt": -1, "stimulus": "<p id=\"stim\">SCOTCH</p>", "key_press": -1, "type": "PRES_VIS", "word": "scotch", "wordID": 1250, "conditions": [24, 800, "v", 12000], "trial": 2, "serialpos": 5, "trial_type": "single-stim", "trial_index": 94, "time_elapsed": 725146, "internal_node_id": "0.0-67.0"}}, {"uniqueid": "MTK0251:35K3O9HUACKU4YFWKNH4KR9DZLKEF4", "current_trial": 95, "dateTime": 1510682508136, "trialdata": {"rt": -1, "stimulus": "<p id=\"stim\">TILE</p>", "key_press": -1, "type": "PRES_VIS", "word": "tile", "wordID": 1467, "conditions": [24, 800, "v", 12000], "trial": 2, "serialpos": 6, "trial_type": "single-stim", "trial_index": 95, "time_elapsed": 726798, "internal_node_id": "0.0-68.0"}}, {"uniqueid": "MTK0251:35K3O9HUACKU4YFWKNH4KR9DZLKEF4", "current_trial": 96, "dateTime": 1510682509912, "trialdata": {"rt": -1, "stimulus": "<p id=\"stim\">BROTHER</p>", "key_press": -1, "type": "PRES_VIS", "word": "brother", "wordID": 178, "conditions": [24, 800, "v", 12000], "trial": 2, "serialpos": 7, "trial_type": "single-stim", "trial_index": 96, "time_elapsed": 728574, "internal_node_id": "0.0-69.0"}}, {"uniqueid": "MTK0251:35K3O9HUACKU4YFWKNH4KR9DZLKEF4", "current_trial": 97, "dateTime": 1510682511761, "trialdata": {"rt": -1, "stimulus": "<p id=\"stim\">LETTUCE</p>", "key_press": -1, "type": "PRES_VIS", "word": "lettuce", "wordID": 813, "conditions": [24, 800, "v", 12000], "trial": 2, "serialpos": 8, "trial_type": "single-stim", "trial_index": 97, "time_elapsed": 730423, "internal_node_id": "0.0-70.0"}}, {"uniqueid": "MTK0251:35K3O9HUACKU4YFWKNH4KR9DZLKEF4", "current_trial": 98, "dateTime": 1510682513686, "trialdata": {"rt": -1, "stimulus": "<p id=\"stim\">VALVE</p>", "key_press": -1, "type": "PRES_VIS", "word": "valve", "wordID": 1545, "conditions": [24, 800, "v", 12000], "trial": 2, "serialpos": 9, "trial_type": "single-stim", "trial_index": 98, "time_elapsed": 732348, "internal_node_id": "0.0-71.0"}}, {"uniqueid": "MTK0251:35K3O9HUACKU4YFWKNH4KR9DZLKEF4", "current_trial": 99, "dateTime": 1510682515418, "trialdata": {"rt": -1, "stimulus": "<p id=\"stim\">PISTON</p>", "key_press": -1, "type": "PRES_VIS", "word": "piston", "wordID": 1075, "conditions": [24, 800, "v", 12000], "trial": 2, "serialpos": 10, "trial_type": "single-stim", "trial_index": 99, "time_elapsed": 734080, "internal_node_id": "0.0-72.0"}}, {"uniqueid": "MTK0251:35K3O9HUACKU4YFWKNH4KR9DZLKEF4", "current_trial": 100, "dateTime": 1510682517279, "trialdata": {"rt": -1, "stimulus": "<p id=\"stim\">FRUIT</p>", "key_press": -1, "type": "PRES_VIS", "word": "fruit", "wordID": 609, "conditions": [24, 800, "v", 12000], "trial": 2, "serialpos": 11, "trial_type": "single-stim", "trial_index": 100, "time_elapsed": 735940, "internal_node_id": "0.0-73.0"}}, {"uniqueid": "MTK0251:35K3O9HUACKU4YFWKNH4KR9DZLKEF4", "current_trial": 101, "dateTime": 1510682519158, "trialdata": {"rt": -1, "stimulus": "<p id=\"stim\">GARBAGE</p>", "key_press": -1, "type": "PRES_VIS", "word": "garbage", "wordID": 621, "conditions": [24, 800, "v", 12000], "trial": 2, "serialpos": 12, "trial_type": "single-stim", "trial_index": 101, "time_elapsed": 737819, "internal_node_id": "0.0-74.0"}}, {"uniqueid": "MTK0251:35K3O9HUACKU4YFWKNH4KR9DZLKEF4", "current_trial": 102, "dateTime": 1510682521120, "trialdata": {"rt": -1, "stimulus": "<p id=\"stim\">CUSTARD</p>", "key_press": -1, "type": "PRES_VIS", "word": "custard", "wordID": 428, "conditions": [24, 800, "v", 12000], "trial": 2, "serialpos": 13, "trial_type": "single-stim", "trial_index": 102, "time_elapsed": 739782, "internal_node_id": "0.0-75.0"}}, {"uniqueid": "MTK0251:35K3O9HUACKU4YFWKNH4KR9DZLKEF4", "current_trial": 103, "dateTime": 1510682522883, "trialdata": {"rt": -1, "stimulus": "<p id=\"stim\">POSSUM</p>", "key_press": -1, "type": "PRES_VIS", "word": "possum", "wordID": 1111, "conditions": [24, 800, "v", 12000], "trial": 2, "serialpos": 14, "trial_type": "single-stim", "trial_index": 103, "time_elapsed": 741544, "internal_node_id": "0.0-76.0"}}, {"uniqueid": "MTK0251:35K3O9HUACKU4YFWKNH4KR9DZLKEF4", "current_trial": 104, "dateTime": 1510682524594, "trialdata": {"rt": -1, "stimulus": "<p id=\"stim\">SNAKE</p>", "key_press": -1, "type": "PRES_VIS", "word": "snake", "wordID": 1332, "conditions": [24, 800, "v", 12000], "trial": 2, "serialpos": 15, "trial_type": "single-stim", "trial_index": 104, "time_elapsed": 743255, "internal_node_id": "0.0-77.0"}}, {"uniqueid": "MTK0251:35K3O9HUACKU4YFWKNH4KR9DZLKEF4", "current_trial": 105, "dateTime": 1510682526254, "trialdata": {"rt": -1, "stimulus": "<p id=\"stim\">DANCER</p>", "key_press": -1, "type": "PRES_VIS", "word": "dancer", "wordID": 436, "conditions": [24, 800, "v", 12000], "trial": 2, "serialpos": 16, "trial_type": "single-stim", "trial_index": 105, "time_elapsed": 744916, "internal_node_id": "0.0-78.0"}}, {"uniqueid": "MTK0251:35K3O9HUACKU4YFWKNH4KR9DZLKEF4", "current_trial": 106, "dateTime": 1510682527949, "trialdata": {"rt": -1, "stimulus": "<p id=\"stim\">LAVA</p>", "key_press": -1, "type": "PRES_VIS", "word": "lava", "wordID": 803, "conditions": [24, 800, "v", 12000], "trial": 2, "serialpos": 17, "trial_type": "single-stim", "trial_index": 106, "time_elapsed": 746610, "internal_node_id": "0.0-79.0"}}, {"uniqueid": "MTK0251:35K3O9HUACKU4YFWKNH4KR9DZLKEF4", "current_trial": 107, "dateTime": 1510682529641, "trialdata": {"rt": -1, "stimulus": "<p id=\"stim\">PROTON</p>", "key_press": -1, "type": "PRES_VIS", "word": "proton", "wordID": 1131, "conditions": [24, 800, "v", 12000], "trial": 2, "serialpos": 18, "trial_type": "single-stim", "trial_index": 107, "time_elapsed": 748302, "internal_node_id": "0.0-80.0"}}, {"uniqueid": "MTK0251:35K3O9HUACKU4YFWKNH4KR9DZLKEF4", "current_trial": 108, "dateTime": 1510682531573, "trialdata": {"rt": -1, "stimulus": "<p id=\"stim\">ELBOW</p>", "key_press": -1, "type": "PRES_VIS", "word": "elbow", "wordID": 519, "conditions": [24, 800, "v", 12000], "trial": 2, "serialpos": 19, "trial_type": "single-stim", "trial_index": 108, "time_elapsed": 750234, "internal_node_id": "0.0-81.0"}}, {"uniqueid": "MTK0251:35K3O9HUACKU4YFWKNH4KR9DZLKEF4", "current_trial": 109, "dateTime": 1510682533315, "trialdata": {"rt": -1, "stimulus": "<p id=\"stim\">SWIMMER</p>", "key_press": -1, "type": "PRES_VIS", "word": "swimmer", "wordID": 1419, "conditions": [24, 800, "v", 12000], "trial": 2, "serialpos": 20, "trial_type": "single-stim", "trial_index": 109, "time_elapsed": 751977, "internal_node_id": "0.0-82.0"}}, {"uniqueid": "MTK0251:35K3O9HUACKU4YFWKNH4KR9DZLKEF4", "current_trial": 110, "dateTime": 1510682535295, "trialdata": {"rt": -1, "stimulus": "<p id=\"stim\">PLASTER</p>", "key_press": -1, "type": "PRES_VIS", "word": "plaster", "wordID": 1084, "conditions": [24, 800, "v", 12000], "trial": 2, "serialpos": 21, "trial_type": "single-stim", "trial_index": 110, "time_elapsed": 753957, "internal_node_id": "0.0-83.0"}}, {"uniqueid": "MTK0251:35K3O9HUACKU4YFWKNH4KR9DZLKEF4", "current_trial": 111, "dateTime": 1510682537291, "trialdata": {"rt": -1, "stimulus": "<p id=\"stim\">SALAD</p>", "key_press": -1, "type": "PRES_VIS", "word": "salad", "wordID": 1223, "conditions": [24, 800, "v", 12000], "trial": 2, "serialpos": 22, "trial_type": "single-stim", "trial_index": 111, "time_elapsed": 755952, "internal_node_id": "0.0-84.0"}}, {"uniqueid": "MTK0251:35K3O9HUACKU4YFWKNH4KR9DZLKEF4", "current_trial": 112, "dateTime": 1510682539128, "trialdata": {"rt": -1, "stimulus": "<p id=\"stim\">PUDDING</p>", "key_press": -1, "type": "PRES_VIS", "word": "pudding", "wordID": 1138, "conditions": [24, 800, "v", 12000], "trial": 2, "serialpos": 23, "trial_type": "single-stim", "trial_index": 112, "time_elapsed": 757790, "internal_node_id": "0.0-85.0"}}, {"uniqueid": "MTK0251:35K3O9HUACKU4YFWKNH4KR9DZLKEF4", "current_trial": 113, "dateTime": 1510682541419, "trialdata": {"rt": -1, "stimulus": "", "key_press": -1, "type": "PRE_RECALL_DELAY", "trial_type": "single-stim", "trial_index": 113, "time_elapsed": 760081, "internal_node_id": "0.0-86.0-0.0"}}, {"uniqueid": "MTK0251:35K3O9HUACKU4YFWKNH4KR9DZLKEF4", "current_trial": 114, "dateTime": 1510682541923, "trialdata": {"rt": -1000, "stimulus": "/static/audio/400Hz.wav", "key_press": -1, "type": "PRE_RECALL_ALERT", "trial_type": "single-audio", "trial_index": 114, "time_elapsed": 760584, "internal_node_id": "0.0-87.0"}}, {"uniqueid": "MTK0251:35K3O9HUACKU4YFWKNH4KR9DZLKEF4", "current_trial": 115, "dateTime": 1510682601940, "trialdata": {"rt": [3730, 5799, 7856, 9624, 11396, 14019, 15910, 18565, 20471, 22359, 25000, 26300], "recwords": ["pudding", "salad", "casket", "scotch", "garbage", "snake", "possum", "kitchen", "shovel", "swimmer", "proton", "lava"], "type": "FREE_RECALL", "conditions": [24, 800, "v", 12000], "trial": 2, "trial_type": "free-recall", "trial_index": 115, "time_elapsed": 820592, "internal_node_id": "0.0-88.0-0.0"}}, {"uniqueid": "MTK0251:35K3O9HUACKU4YFWKNH4KR9DZLKEF4", "current_trial": 116, "dateTime": 1510682607934, "trialdata": {"rt": 3986, "key_press": 32, "type": "INSTRUCTIONS", "trial_type": "text", "trial_index": 116, "time_elapsed": 826596, "internal_node_id": "0.0-89.0"}}, {"uniqueid": "MTK0251:35K3O9HUACKU4YFWKNH4KR9DZLKEF4", "current_trial": 117, "dateTime": 1510682621939, "trialdata": {"rt": [2864, 4646, 9856, 11849], "responses": ["11", "16", "24", "15"], "num1": [6, 6, 9, 5, 3], "num2": [4, 4, 7, 1, 5], "num3": [1, 6, 8, 9, 8], "type": "DISTRACTOR", "conditions": [12, 1600, "v", 12000], "trial": 3, "trial_type": "math-distractor", "trial_index": 117, "time_elapsed": 840601, "internal_node_id": "0.0-90.0"}}, {"uniqueid": "MTK0251:35K3O9HUACKU4YFWKNH4KR9DZLKEF4", "current_trial": 118, "dateTime": 1510682624945, "trialdata": {"rt": -1, "stimulus": "<p id=\"stim\">10</p>", "key_press": -1, "trial_type": "single-stim", "trial_index": 118, "time_elapsed": 843607, "internal_node_id": "0.0-91.0-0.0"}}, {"uniqueid": "MTK0251:35K3O9HUACKU4YFWKNH4KR9DZLKEF4", "current_trial": 119, "dateTime": 1510682625951, "trialdata": {"rt": -1, "stimulus": "<p id=\"stim\">9</p>", "key_press": -1, "trial_type": "single-stim", "trial_index": 119, "time_elapsed": 844612, "internal_node_id": "0.0-91.0-1.0"}}, {"uniqueid": "MTK0251:35K3O9HUACKU4YFWKNH4KR9DZLKEF4", "current_trial": 120, "dateTime": 1510682626955, "trialdata": {"rt": -1, "stimulus": "<p id=\"stim\">8</p>", "key_press": -1, "trial_type": "single-stim", "trial_index": 120, "time_elapsed": 845616, "internal_node_id": "0.0-91.0-2.0"}}, {"uniqueid": "MTK0251:35K3O9HUACKU4YFWKNH4KR9DZLKEF4", "current_trial": 121, "dateTime": 1510682627957, "trialdata": {"rt": -1, "stimulus": "<p id=\"stim\">7</p>", "key_press": -1, "trial_type": "single-stim", "trial_index": 121, "time_elapsed": 846618, "internal_node_id": "0.0-91.0-3.0"}}, {"uniqueid": "MTK0251:35K3O9HUACKU4YFWKNH4KR9DZLKEF4", "current_trial": 122, "dateTime": 1510682628960, "trialdata": {"rt": -1, "stimulus": "<p id=\"stim\">6</p>", "key_press": -1, "trial_type": "single-stim", "trial_index": 122, "time_elapsed": 847621, "internal_node_id": "0.0-91.0-4.0"}}, {"uniqueid": "MTK0251:35K3O9HUACKU4YFWKNH4KR9DZLKEF4", "current_trial": 123, "dateTime": 1510682629962, "trialdata": {"rt": -1, "stimulus": "<p id=\"stim\">5</p>", "key_press": -1, "trial_type": "single-stim", "trial_index": 123, "time_elapsed": 848623, "internal_node_id": "0.0-91.0-5.0"}}, {"uniqueid": "MTK0251:35K3O9HUACKU4YFWKNH4KR9DZLKEF4", "current_trial": 124, "dateTime": 1510682630982, "trialdata": {"rt": -1, "stimulus": "<p id=\"stim\">4</p>", "key_press": -1, "trial_type": "single-stim", "trial_index": 124, "time_elapsed": 849644, "internal_node_id": "0.0-91.0-6.0"}}, {"uniqueid": "MTK0251:35K3O9HUACKU4YFWKNH4KR9DZLKEF4", "current_trial": 125, "dateTime": 1510682631987, "trialdata": {"rt": -1, "stimulus": "<p id=\"stim\">3</p>", "key_press": -1, "trial_type": "single-stim", "trial_index": 125, "time_elapsed": 850648, "internal_node_id": "0.0-91.0-7.0"}}, {"uniqueid": "MTK0251:35K3O9HUACKU4YFWKNH4KR9DZLKEF4", "current_trial": 126, "dateTime": 1510682632990, "trialdata": {"rt": -1, "stimulus": "<p id=\"stim\">2</p>", "key_press": -1, "trial_type": "single-stim", "trial_index": 126, "time_elapsed": 851651, "internal_node_id": "0.0-91.0-8.0"}}, {"uniqueid": "MTK0251:35K3O9HUACKU4YFWKNH4KR9DZLKEF4", "current_trial": 127, "dateTime": 1510682634058, "trialdata": {"rt": -1, "stimulus": "<p id=\"stim\">1</p>", "key_press": -1, "trial_type": "single-stim", "trial_index": 127, "time_elapsed": 852719, "internal_node_id": "0.0-91.0-9.0"}}, {"uniqueid": "MTK0251:35K3O9HUACKU4YFWKNH4KR9DZLKEF4", "current_trial": 128, "dateTime": 1510682635561, "trialdata": {"rt": -1, "stimulus": "<p id=\"stim\">+</p>", "key_press": -1, "type": "FIXATION", "trial_type": "single-stim", "trial_index": 128, "time_elapsed": 854222, "internal_node_id": "0.0-92.0-0.0"}}, {"uniqueid": "MTK0251:35K3O9HUACKU4YFWKNH4KR9DZLKEF4", "current_trial": 129, "dateTime": 1510682637162, "trialdata": {"rt": -1, "stimulus": "<p id=\"stim\">SCALLOP</p>", "key_press": -1, "type": "PRES_VIS", "word": "scallop", "wordID": 1241, "conditions": [12, 1600, "v", 12000], "trial": 3, "serialpos": 0, "trial_type": "single-stim", "trial_index": 129, "time_elapsed": 855824, "internal_node_id": "0.0-93.0"}}, {"uniqueid": "MTK0251:35K3O9HUACKU4YFWKNH4KR9DZLKEF4", "current_trial": 130, "dateTime": 1510682639950, "trialdata": {"rt": -1, "stimulus": "<p id=\"stim\">PENGUIN</p>", "key_press": -1, "type": "PRES_VIS", "word": "penguin", "wordID": 1043, "conditions": [12, 1600, "v", 12000], "trial": 3, "serialpos": 1, "trial_type": "single-stim", "trial_index": 130, "time_elapsed": 858611, "internal_node_id": "0.0-94.0"}}, {"uniqueid": "MTK0251:35K3O9HUACKU4YFWKNH4KR9DZLKEF4", "current_trial": 131, "dateTime": 1510682642490, "trialdata": {"rt": -1, "stimulus": "<p id=\"stim\">BISON</p>", "key_press": -1, "type": "PRES_VIS", "word": "bison", "wordID": 130, "conditions": [12, 1600, "v", 12000], "trial": 3, "serialpos": 2, "trial_type": "single-stim", "trial_index": 131, "time_elapsed": 861151, "internal_node_id": "0.0-95.0"}}, {"uniqueid": "MTK0251:35K3O9HUACKU4YFWKNH4KR9DZLKEF4", "current_trial": 132, "dateTime": 1510682645265, "trialdata": {"rt": -1, "stimulus": "<p id=\"stim\">SHARK</p>", "key_press": -1, "type": "PRES_VIS", "word": "shark", "wordID": 1274, "conditions": [12, 1600, "v", 12000], "trial": 3, "serialpos": 3, "trial_type": "single-stim", "trial_index": 132, "time_elapsed": 863927, "internal_node_id": "0.0-96.0"}}, {"uniqueid": "MTK0251:35K3O9HUACKU4YFWKNH4KR9DZLKEF4", "current_trial": 133, "dateTime": 1510682647810, "trialdata": {"rt": -1, "stimulus": "<p id=\"stim\">TWEEZERS</p>", "key_press": -1, "type": "PRES_VIS", "word": "tweezers", "wordID": 1525, "conditions": [12, 1600, "v", 12000], "trial": 3, "serialpos": 4, "trial_type": "single-stim", "trial_index": 133, "time_elapsed": 866472, "internal_node_id": "0.0-97.0"}}, {"uniqueid": "MTK0251:35K3O9HUACKU4YFWKNH4KR9DZLKEF4", "current_trial": 134, "dateTime": 1510682650266, "trialdata": {"rt": -1, "stimulus": "<p id=\"stim\">PLIERS</p>", "key_press": -1, "type": "PRES_VIS", "word": "pliers", "wordID": 1088, "conditions": [12, 1600, "v", 12000], "trial": 3, "serialpos": 5, "trial_type": "single-stim", "trial_index": 134, "time_elapsed": 868928, "internal_node_id": "0.0-98.0"}}, {"uniqueid": "MTK0251:35K3O9HUACKU4YFWKNH4KR9DZLKEF4", "current_trial": 135, "dateTime": 1510682653064, "trialdata": {"rt": -1, "stimulus": "<p id=\"stim\">JAPAN</p>", "key_press": -1, "type": "PRES_VIS", "word": "japan", "wordID": 748, "conditions": [12, 1600, "v", 12000], "trial": 3, "serialpos": 6, "trial_type": "single-stim", "trial_index": 135, "time_elapsed": 871726, "internal_node_id": "0.0-99.0"}}, {"uniqueid": "MTK0251:35K3O9HUACKU4YFWKNH4KR9DZLKEF4", "current_trial": 136, "dateTime": 1510682655671, "trialdata": {"rt": -1, "stimulus": "<p id=\"stim\">HIKER</p>", "key_press": -1, "type": "PRES_VIS", "word": "hiker", "wordID": 707, "conditions": [12, 1600, "v", 12000], "trial": 3, "serialpos": 7, "trial_type": "single-stim", "trial_index": 136, "time_elapsed": 874333, "internal_node_id": "0.0-100.0"}}, {"uniqueid": "MTK0251:35K3O9HUACKU4YFWKNH4KR9DZLKEF4", "current_trial": 137, "dateTime": 1510682658250, "trialdata": {"rt": -1, "stimulus": "<p id=\"stim\">OYSTER</p>", "key_press": -1, "type": "PRES_VIS", "word": "oyster", "wordID": 994, "conditions": [12, 1600, "v", 12000], "trial": 3, "serialpos": 8, "trial_type": "single-stim", "trial_index": 137, "time_elapsed": 876911, "internal_node_id": "0.0-101.0"}}, {"uniqueid": "MTK0251:35K3O9HUACKU4YFWKNH4KR9DZLKEF4", "current_trial": 138, "dateTime": 1510682661004, "trialdata": {"rt": -1, "stimulus": "<p id=\"stim\">DUSTPAN</p>", "key_press": -1, "type": "PRES_VIS", "word": "dustpan", "wordID": 508, "conditions": [12, 1600, "v", 12000], "trial": 3, "serialpos": 9, "trial_type": "single-stim", "trial_index": 138, "time_elapsed": 879666, "internal_node_id": "0.0-102.0"}}, {"uniqueid": "MTK0251:35K3O9HUACKU4YFWKNH4KR9DZLKEF4", "current_trial": 139, "dateTime": 1510682663681, "trialdata": {"rt": -1, "stimulus": "<p id=\"stim\">BUG</p>", "key_press": -1, "type": "PRES_VIS", "word": "bug", "wordID": 186, "conditions": [12, 1600, "v", 12000], "trial": 3, "serialpos": 10, "trial_type": "single-stim", "trial_index": 139, "time_elapsed": 882342, "internal_node_id": "0.0-103.0"}}, {"uniqueid": "MTK0251:35K3O9HUACKU4YFWKNH4KR9DZLKEF4", "current_trial": 140, "dateTime": 1510682666145, "trialdata": {"rt": -1, "stimulus": "<p id=\"stim\">TROUT</p>", "key_press": -1, "type": "PRES_VIS", "word": "trout", "wordID": 1510, "conditions": [12, 1600, "v", 12000], "trial": 3, "serialpos": 11, "trial_type": "single-stim", "trial_index": 140, "time_elapsed": 884807, "internal_node_id": "0.0-104.0"}}, {"uniqueid": "MTK0251:35K3O9HUACKU4YFWKNH4KR9DZLKEF4", "current_trial": 141, "dateTime": 1510682668293, "trialdata": {"rt": -1, "stimulus": "", "key_press": -1, "type": "PRE_RECALL_DELAY", "trial_type": "single-stim", "trial_index": 141, "time_elapsed": 886955, "internal_node_id": "0.0-105.0-0.0"}}, {"uniqueid": "MTK0251:35K3O9HUACKU4YFWKNH4KR9DZLKEF4", "current_trial": 142, "dateTime": 1510682668799, "trialdata": {"rt": -1000, "stimulus": "/static/audio/400Hz.wav", "key_press": -1, "type": "PRE_RECALL_ALERT", "trial_type": "single-audio", "trial_index": 142, "time_elapsed": 887461, "internal_node_id": "0.0-106.0"}}, {"uniqueid": "MTK0251:35K3O9HUACKU4YFWKNH4KR9DZLKEF4", "current_trial": 143, "dateTime": 1510682728835, "trialdata": {"rt": [4555, 5836, 7158, 8966, 11368, 13840, 18208], "recwords": ["tweezers", "trout", "bug", "pliers", "japan", "penguin", "dustpan"], "type": "FREE_RECALL", "conditions": [12, 1600, "v", 12000], "trial": 3, "trial_type": "free-recall", "trial_index": 143, "time_elapsed": 947477, "internal_node_id": "0.0-107.0-0.0"}}, {"uniqueid": "MTK0251:35K3O9HUACKU4YFWKNH4KR9DZLKEF4", "current_trial": 144, "dateTime": 1510682734585, "trialdata": {"rt": 3743, "key_press": 13, "type": "INSTRUCTIONS", "trial_type": "text", "trial_index": 144, "time_elapsed": 953246, "internal_node_id": "0.0-108.0"}}, {"uniqueid": "MTK0251:35K3O9HUACKU4YFWKNH4KR9DZLKEF4", "current_trial": 145, "dateTime": 1510682748590, "trialdata": {"rt": [3936, 7664, 9734, 11464, 11583], "responses": ["13", "13", "15", "11", ""], "num1": [2, 3, 4, 3, 2, 1], "num2": [8, 1, 2, 4, 7, 3], "num3": [3, 9, 9, 4, 6, 4], "type": "DISTRACTOR", "conditions": [24, 1600, "v", 12000], "trial": 4, "trial_type": "math-distractor", "trial_index": 145, "time_elapsed": 967252, "internal_node_id": "0.0-109.0"}}, {"uniqueid": "MTK0251:35K3O9HUACKU4YFWKNH4KR9DZLKEF4", "current_trial": 146, "dateTime": 1510682751605, "trialdata": {"rt": -1, "stimulus": "<p id=\"stim\">10</p>", "key_press": -1, "trial_type": "single-stim", "trial_index": 146, "time_elapsed": 970267, "internal_node_id": "0.0-110.0-0.0"}}, {"uniqueid": "MTK0251:35K3O9HUACKU4YFWKNH4KR9DZLKEF4", "current_trial": 147, "dateTime": 1510682752617, "trialdata": {"rt": -1, "stimulus": "<p id=\"stim\">9</p>", "key_press": -1, "trial_type": "single-stim", "trial_index": 147, "time_elapsed": 971270, "internal_node_id": "0.0-110.0-1.0"}}, {"uniqueid": "MTK0251:35K3O9HUACKU4YFWKNH4KR9DZLKEF4", "current_trial": 148, "dateTime": 1510682753622, "trialdata": {"rt": -1, "stimulus": "<p id=\"stim\">8</p>", "key_press": -1, "trial_type": "single-stim", "trial_index": 148, "time_elapsed": 972283, "internal_node_id": "0.0-110.0-2.0"}}, {"uniqueid": "MTK0251:35K3O9HUACKU4YFWKNH4KR9DZLKEF4", "current_trial": 149, "dateTime": 1510682754625, "trialdata": {"rt": -1, "stimulus": "<p id=\"stim\">7</p>", "key_press": -1, "trial_type": "single-stim", "trial_index": 149, "time_elapsed": 973287, "internal_node_id": "0.0-110.0-3.0"}}, {"uniqueid": "MTK0251:35K3O9HUACKU4YFWKNH4KR9DZLKEF4", "current_trial": 150, "dateTime": 1510682755633, "trialdata": {"rt": -1, "stimulus": "<p id=\"stim\">6</p>", "key_press": -1, "trial_type": "single-stim", "trial_index": 150, "time_elapsed": 974294, "internal_node_id": "0.0-110.0-4.0"}}, {"uniqueid": "MTK0251:35K3O9HUACKU4YFWKNH4KR9DZLKEF4", "current_trial": 151, "dateTime": 1510682756655, "trialdata": {"rt": -1, "stimulus": "<p id=\"stim\">5</p>", "key_press": -1, "trial_type": "single-stim", "trial_index": 151, "time_elapsed": 975316, "internal_node_id": "0.0-110.0-5.0"}}, {"uniqueid": "MTK0251:35K3O9HUACKU4YFWKNH4KR9DZLKEF4", "current_trial": 152, "dateTime": 1510682757703, "trialdata": {"rt": -1, "stimulus": "<p id=\"stim\">4</p>", "key_press": -1, "trial_type": "single-stim", "trial_index": 152, "time_elapsed": 976364, "internal_node_id": "0.0-110.0-6.0"}}, {"uniqueid": "MTK0251:35K3O9HUACKU4YFWKNH4KR9DZLKEF4", "current_trial": 153, "dateTime": 1510682758705, "trialdata": {"rt": -1, "stimulus": "<p id=\"stim\">3</p>", "key_press": -1, "trial_type": "single-stim", "trial_index": 153, "time_elapsed": 977366, "internal_node_id": "0.0-110.0-7.0"}}, {"uniqueid": "MTK0251:35K3O9HUACKU4YFWKNH4KR9DZLKEF4", "current_trial": 154, "dateTime": 1510682759708, "trialdata": {"rt": -1, "stimulus": "<p id=\"stim\">2</p>", "key_press": -1, "trial_type": "single-stim", "trial_index": 154, "time_elapsed": 978370, "internal_node_id": "0.0-110.0-8.0"}}, {"uniqueid": "MTK0251:35K3O9HUACKU4YFWKNH4KR9DZLKEF4", "current_trial": 155, "dateTime": 1510682760709, "trialdata": {"rt": -1, "stimulus": "<p id=\"stim\">1</p>", "key_press": -1, "trial_type": "single-stim", "trial_index": 155, "time_elapsed": 979371, "internal_node_id": "0.0-110.0-9.0"}}, {"uniqueid": "MTK0251:35K3O9HUACKU4YFWKNH4KR9DZLKEF4", "current_trial": 156, "dateTime": 1510682762216, "trialdata": {"rt": -1, "stimulus": "<p id=\"stim\">+</p>", "key_press": -1, "type": "FIXATION", "trial_type": "single-stim", "trial_index": 156, "time_elapsed": 980878, "internal_node_id": "0.0-111.0-0.0"}}, {"uniqueid": "MTK0251:35K3O9HUACKU4YFWKNH4KR9DZLKEF4", "current_trial": 157, "dateTime": 1510682763819, "trialdata": {"rt": -1, "stimulus": "<p id=\"stim\">HARP</p>", "key_press": -1, "type": "PRES_VIS", "word": "harp", "wordID": 688, "conditions": [24, 1600, "v", 12000], "trial": 4, "serialpos": 0, "trial_type": "single-stim", "trial_index": 157, "time_elapsed": 982480, "internal_node_id": "0.0-112.0"}}, {"uniqueid": "MTK0251:35K3O9HUACKU4YFWKNH4KR9DZLKEF4", "current_trial": 158, "dateTime": 1510682766264, "trialdata": {"rt": -1, "stimulus": "<p id=\"stim\">SIDEWALK</p>", "key_press": -1, "type": "PRES_VIS", "word": "sidewalk", "wordID": 1302, "conditions": [24, 1600, "v", 12000], "trial": 4, "serialpos": 1, "trial_type": "single-stim", "trial_index": 158, "time_elapsed": 984926, "internal_node_id": "0.0-113.0"}}, {"uniqueid": "MTK0251:35K3O9HUACKU4YFWKNH4KR9DZLKEF4", "current_trial": 159, "dateTime": 1510682768844, "trialdata": {"rt": -1, "stimulus": "<p id=\"stim\">DRAGON</p>", "key_press": -1, "type": "PRES_VIS", "word": "dragon", "wordID": 491, "conditions": [24, 1600, "v", 12000], "trial": 4, "serialpos": 2, "trial_type": "single-stim", "trial_index": 159, "time_elapsed": 987506, "internal_node_id": "0.0-114.0"}}, {"uniqueid": "MTK0251:35K3O9HUACKU4YFWKNH4KR9DZLKEF4", "current_trial": 160, "dateTime": 1510682771463, "trialdata": {"rt": -1, "stimulus": "<p id=\"stim\">CREATURE</p>", "key_press": -1, "type": "PRES_VIS", "word": "creature", "wordID": 402, "conditions": [24, 1600, "v", 12000], "trial": 4, "serialpos": 3, "trial_type": "single-stim", "trial_index": 160, "time_elapsed": 990125, "internal_node_id": "0.0-115.0"}}, {"uniqueid": "MTK0251:35K3O9HUACKU4YFWKNH4KR9DZLKEF4", "current_trial": 161, "dateTime": 1510682774214, "trialdata": {"rt": -1, "stimulus": "<p id=\"stim\">WAGON</p>", "key_press": -1, "type": "PRES_VIS", "word": "wagon", "wordID": 1577, "conditions": [24, 1600, "v", 12000], "trial": 4, "serialpos": 4, "trial_type": "single-stim", "trial_index": 161, "time_elapsed": 992875, "internal_node_id": "0.0-116.0"}}, {"uniqueid": "MTK0251:35K3O9HUACKU4YFWKNH4KR9DZLKEF4", "current_trial": 162, "dateTime": 1510682776838, "trialdata": {"rt": -1, "stimulus": "<p id=\"stim\">PUDDLE</p>", "key_press": -1, "type": "PRES_VIS", "word": "puddle", "wordID": 1139, "conditions": [24, 1600, "v", 12000], "trial": 4, "serialpos": 5, "trial_type": "single-stim", "trial_index": 162, "time_elapsed": 995500, "internal_node_id": "0.0-117.0"}}, {"uniqueid": "MTK0251:35K3O9HUACKU4YFWKNH4KR9DZLKEF4", "current_trial": 163, "dateTime": 1510682779617, "trialdata": {"rt": -1, "stimulus": "<p id=\"stim\">PLAZA</p>", "key_press": -1, "type": "PRES_VIS", "word": "plaza", "wordID": 1087, "conditions": [24, 1600, "v", 12000], "trial": 4, "serialpos": 6, "trial_type": "single-stim", "trial_index": 163, "time_elapsed": 998279, "internal_node_id": "0.0-118.0"}}, {"uniqueid": "MTK0251:35K3O9HUACKU4YFWKNH4KR9DZLKEF4", "current_trial": 164, "dateTime": 1510682782272, "trialdata": {"rt": -1, "stimulus": "<p id=\"stim\">KLEENEX</p>", "key_press": -1, "type": "PRES_VIS", "word": "kleenex", "wordID": 781, "conditions": [24, 1600, "v", 12000], "trial": 4, "serialpos": 7, "trial_type": "single-stim", "trial_index": 164, "time_elapsed": 1000933, "internal_node_id": "0.0-119.0"}}, {"uniqueid": "MTK0251:35K3O9HUACKU4YFWKNH4KR9DZLKEF4", "current_trial": 165, "dateTime": 1510682784699, "trialdata": {"rt": -1, "stimulus": "<p id=\"stim\">BEAKER</p>", "key_press": -1, "type": "PRES_VIS", "word": "beaker", "wordID": 103, "conditions": [24, 1600, "v", 12000], "trial": 4, "serialpos": 8, "trial_type": "single-stim", "trial_index": 165, "time_elapsed": 1003361, "internal_node_id": "0.0-120.0"}}, {"uniqueid": "MTK0251:35K3O9HUACKU4YFWKNH4KR9DZLKEF4", "current_trial": 166, "dateTime": 1510682787281, "trialdata": {"rt": -1, "stimulus": "<p id=\"stim\">CLOTHES</p>", "key_press": -1, "type": "PRES_VIS", "word": "clothes", "wordID": 326, "conditions": [24, 1600, "v", 12000], "trial": 4, "serialpos": 9, "trial_type": "single-stim", "trial_index": 166, "time_elapsed": 1005943, "internal_node_id": "0.0-121.0"}}, {"uniqueid": "MTK0251:35K3O9HUACKU4YFWKNH4KR9DZLKEF4", "current_trial": 167, "dateTime": 1510682789954, "trialdata": {"rt": -1, "stimulus": "<p id=\"stim\">TAXI</p>", "key_press": -1, "type": "PRES_VIS", "word": "taxi", "wordID": 1437, "conditions": [24, 1600, "v", 12000], "trial": 4, "serialpos": 10, "trial_type": "single-stim", "trial_index": 167, "time_elapsed": 1008615, "internal_node_id": "0.0-122.0"}}, {"uniqueid": "MTK0251:35K3O9HUACKU4YFWKNH4KR9DZLKEF4", "current_trial": 168, "dateTime": 1510682792438, "trialdata": {"rt": -1, "stimulus": "<p id=\"stim\">DRINK</p>", "key_press": -1, "type": "PRES_VIS", "word": "drink", "wordID": 497, "conditions": [24, 1600, "v", 12000], "trial": 4, "serialpos": 11, "trial_type": "single-stim", "trial_index": 168, "time_elapsed": 1011100, "internal_node_id": "0.0-123.0"}}, {"uniqueid": "MTK0251:35K3O9HUACKU4YFWKNH4KR9DZLKEF4", "current_trial": 169, "dateTime": 1510682795053, "trialdata": {"rt": -1, "stimulus": "<p id=\"stim\">ARM</p>", "key_press": -1, "type": "PRES_VIS", "word": "arm", "wordID": 37, "conditions": [24, 1600, "v", 12000], "trial": 4, "serialpos": 12, "trial_type": "single-stim", "trial_index": 169, "time_elapsed": 1013714, "internal_node_id": "0.0-124.0"}}, {"uniqueid": "MTK0251:35K3O9HUACKU4YFWKNH4KR9DZLKEF4", "current_trial": 170, "dateTime": 1510682797633, "trialdata": {"rt": -1, "stimulus": "<p id=\"stim\">SUPPER</p>", "key_press": -1, "type": "PRES_VIS", "word": "supper", "wordID": 1410, "conditions": [24, 1600, "v", 12000], "trial": 4, "serialpos": 13, "trial_type": "single-stim", "trial_index": 170, "time_elapsed": 1016294, "internal_node_id": "0.0-125.0"}}, {"uniqueid": "MTK0251:35K3O9HUACKU4YFWKNH4KR9DZLKEF4", "current_trial": 171, "dateTime": 1510682800086, "trialdata": {"rt": -1, "stimulus": "<p id=\"stim\">TERMITE</p>", "key_press": -1, "type": "PRES_VIS", "word": "termite", "wordID": 1450, "conditions": [24, 1600, "v", 12000], "trial": 4, "serialpos": 14, "trial_type": "single-stim", "trial_index": 171, "time_elapsed": 1018747, "internal_node_id": "0.0-126.0"}}, {"uniqueid": "MTK0251:35K3O9HUACKU4YFWKNH4KR9DZLKEF4", "current_trial": 172, "dateTime": 1510682802706, "trialdata": {"rt": -1, "stimulus": "<p id=\"stim\">COSTUME</p>", "key_press": -1, "type": "PRES_VIS", "word": "costume", "wordID": 382, "conditions": [24, 1600, "v", 12000], "trial": 4, "serialpos": 15, "trial_type": "single-stim", "trial_index": 172, "time_elapsed": 1021367, "internal_node_id": "0.0-127.0"}}, {"uniqueid": "MTK0251:35K3O9HUACKU4YFWKNH4KR9DZLKEF4", "current_trial": 173, "dateTime": 1510682805303, "trialdata": {"rt": -1, "stimulus": "<p id=\"stim\">SCARECROW</p>", "key_press": -1, "type": "PRES_VIS", "word": "scarecrow", "wordID": 1244, "conditions": [24, 1600, "v", 12000], "trial": 4, "serialpos": 16, "trial_type": "single-stim", "trial_index": 173, "time_elapsed": 1023964, "internal_node_id": "0.0-128.0"}}, {"uniqueid": "MTK0251:35K3O9HUACKU4YFWKNH4KR9DZLKEF4", "current_trial": 174, "dateTime": 1510682807993, "trialdata": {"rt": -1, "stimulus": "<p id=\"stim\">CROWN</p>", "key_press": -1, "type": "PRES_VIS", "word": "crown", "wordID": 414, "conditions": [24, 1600, "v", 12000], "trial": 4, "serialpos": 17, "trial_type": "single-stim", "trial_index": 174, "time_elapsed": 1026655, "internal_node_id": "0.0-129.0"}}, {"uniqueid": "MTK0251:35K3O9HUACKU4YFWKNH4KR9DZLKEF4", "current_trial": 175, "dateTime": 1510682810413, "trialdata": {"rt": -1, "stimulus": "<p id=\"stim\">AWARD</p>", "key_press": -1, "type": "PRES_VIS", "word": "award", "wordID": 62, "conditions": [24, 1600, "v", 12000], "trial": 4, "serialpos": 18, "trial_type": "single-stim", "trial_index": 175, "time_elapsed": 1029074, "internal_node_id": "0.0-130.0"}}, {"uniqueid": "MTK0251:35K3O9HUACKU4YFWKNH4KR9DZLKEF4", "current_trial": 176, "dateTime": 1510682813080, "trialdata": {"rt": -1, "stimulus": "<p id=\"stim\">EYELASH</p>", "key_press": -1, "type": "PRES_VIS", "word": "eyelash", "wordID": 545, "conditions": [24, 1600, "v", 12000], "trial": 4, "serialpos": 19, "trial_type": "single-stim", "trial_index": 176, "time_elapsed": 1031742, "internal_node_id": "0.0-131.0"}}, {"uniqueid": "MTK0251:35K3O9HUACKU4YFWKNH4KR9DZLKEF4", "current_trial": 177, "dateTime": 1510682815566, "trialdata": {"rt": -1, "stimulus": "<p id=\"stim\">MARROW</p>", "key_press": -1, "type": "PRES_VIS", "word": "marrow", "wordID": 871, "conditions": [24, 1600, "v", 12000], "trial": 4, "serialpos": 20, "trial_type": "single-stim", "trial_index": 177, "time_elapsed": 1034228, "internal_node_id": "0.0-132.0"}}, {"uniqueid": "MTK0251:35K3O9HUACKU4YFWKNH4KR9DZLKEF4", "current_trial": 178, "dateTime": 1510682818037, "trialdata": {"rt": -1, "stimulus": "<p id=\"stim\">COUCH</p>", "key_press": -1, "type": "PRES_VIS", "word": "couch", "wordID": 385, "conditions": [24, 1600, "v", 12000], "trial": 4, "serialpos": 21, "trial_type": "single-stim", "trial_index": 178, "time_elapsed": 1036698, "internal_node_id": "0.0-133.0"}}, {"uniqueid": "MTK0251:35K3O9HUACKU4YFWKNH4KR9DZLKEF4", "current_trial": 179, "dateTime": 1510682820738, "trialdata": {"rt": -1, "stimulus": "<p id=\"stim\">KETCHUP</p>", "key_press": -1, "type": "PRES_VIS", "word": "ketchup", "wordID": 770, "conditions": [24, 1600, "v", 12000], "trial": 4, "serialpos": 22, "trial_type": "single-stim", "trial_index": 179, "time_elapsed": 1039399, "internal_node_id": "0.0-134.0"}}, {"uniqueid": "MTK0251:35K3O9HUACKU4YFWKNH4KR9DZLKEF4", "current_trial": 180, "dateTime": 1510682823450, "trialdata": {"rt": -1, "stimulus": "<p id=\"stim\">LEG</p>", "key_press": -1, "type": "PRES_VIS", "word": "leg", "wordID": 808, "conditions": [24, 1600, "v", 12000], "trial": 4, "serialpos": 23, "trial_type": "single-stim", "trial_index": 180, "time_elapsed": 1042111, "internal_node_id": "0.0-135.0"}}, {"uniqueid": "MTK0251:35K3O9HUACKU4YFWKNH4KR9DZLKEF4", "current_trial": 181, "dateTime": 1510682825948, "trialdata": {"rt": -1, "stimulus": "", "key_press": -1, "type": "PRE_RECALL_DELAY", "trial_type": "single-stim", "trial_index": 181, "time_elapsed": 1044610, "internal_node_id": "0.0-136.0-0.0"}}, {"uniqueid": "MTK0251:35K3O9HUACKU4YFWKNH4KR9DZLKEF4", "current_trial": 182, "dateTime": 1510682826454, "trialdata": {"rt": -1000, "stimulus": "/static/audio/400Hz.wav", "key_press": -1, "type": "PRE_RECALL_ALERT", "trial_type": "single-audio", "trial_index": 182, "time_elapsed": 1045113, "internal_node_id": "0.0-137.0"}}, {"uniqueid": "MTK0251:35K3O9HUACKU4YFWKNH4KR9DZLKEF4", "current_trial": 183, "dateTime": 1510682886494, "trialdata": {"rt": [5443, 7562, 9521, 11893, 13462, 17461, 18325, 20371, 22286, 25085], "recwords": ["leg", "ketchup", "termite", "sidewalk", "dragon", "clothes'drink", "arm", "couch", "award", "scarecrow"], "type": "FREE_RECALL", "conditions": [24, 1600, "v", 12000], "trial": 4, "trial_type": "free-recall", "trial_index": 183, "time_elapsed": 1105125, "internal_node_id": "0.0-138.0-0.0"}}, {"uniqueid": "MTK0251:35K3O9HUACKU4YFWKNH4KR9DZLKEF4", "current_trial": 184, "dateTime": 1510682910483, "trialdata": {"rt": 21987, "key_press": 13, "type": "INSTRUCTIONS", "trial_type": "text", "trial_index": 184, "time_elapsed": 1129145, "internal_node_id": "0.0-139.0"}}, {"uniqueid": "MTK0251:35K3O9HUACKU4YFWKNH4KR9DZLKEF4", "current_trial": 185, "dateTime": 1510682936537, "trialdata": {"rt": [3155, 5816, 7757, 9743, 11561, 13537, 16190], "responses": ["12", "7", "9", "20", "8", "21", "21"], "num1": [4, 1, 2, 8, 4, 8, 7, 4], "num2": [3, 2, 1, 9, 2, 9, 9, 7], "num3": [5, 4, 6, 3, 2, 4, 5, 9], "type": "DISTRACTOR", "conditions": [12, 1600, "v", 24000], "trial": 5, "trial_type": "math-distractor", "trial_index": 185, "time_elapsed": 1155198, "internal_node_id": "0.0-140.0"}}, {"uniqueid": "MTK0251:35K3O9HUACKU4YFWKNH4KR9DZLKEF4", "current_trial": 186, "dateTime": 1510682939539, "trialdata": {"rt": -1, "stimulus": "<p id=\"stim\">10</p>", "key_press": -1, "trial_type": "single-stim", "trial_index": 186, "time_elapsed": 1158200, "internal_node_id": "0.0-141.0-0.0"}}, {"uniqueid": "MTK0251:35K3O9HUACKU4YFWKNH4KR9DZLKEF4", "current_trial": 187, "dateTime": 1510682940564, "trialdata": {"rt": -1, "stimulus": "<p id=\"stim\">9</p>", "key_press": -1, "trial_type": "single-stim", "trial_index": 187, "time_elapsed": 1159226, "internal_node_id": "0.0-141.0-1.0"}}, {"uniqueid": "MTK0251:35K3O9HUACKU4YFWKNH4KR9DZLKEF4", "current_trial": 188, "dateTime": 1510682941567, "trialdata": {"rt": -1, "stimulus": "<p id=\"stim\">8</p>", "key_press": -1, "trial_type": "single-stim", "trial_index": 188, "time_elapsed": 1160228, "internal_node_id": "0.0-141.0-2.0"}}, {"uniqueid": "MTK0251:35K3O9HUACKU4YFWKNH4KR9DZLKEF4", "current_trial": 189, "dateTime": 1510682942589, "trialdata": {"rt": -1, "stimulus": "<p id=\"stim\">7</p>", "key_press": -1, "trial_type": "single-stim", "trial_index": 189, "time_elapsed": 1161250, "internal_node_id": "0.0-141.0-3.0"}}, {"uniqueid": "MTK0251:35K3O9HUACKU4YFWKNH4KR9DZLKEF4", "current_trial": 190, "dateTime": 1510682943593, "trialdata": {"rt": -1, "stimulus": "<p id=\"stim\">6</p>", "key_press": -1, "trial_type": "single-stim", "trial_index": 190, "time_elapsed": 1162255, "internal_node_id": "0.0-141.0-4.0"}}, {"uniqueid": "MTK0251:35K3O9HUACKU4YFWKNH4KR9DZLKEF4", "current_trial": 191, "dateTime": 1510682944619, "trialdata": {"rt": -1, "stimulus": "<p id=\"stim\">5</p>", "key_press": -1, "trial_type": "single-stim", "trial_index": 191, "time_elapsed": 1163280, "internal_node_id": "0.0-141.0-5.0"}}, {"uniqueid": "MTK0251:35K3O9HUACKU4YFWKNH4KR9DZLKEF4", "current_trial": 192, "dateTime": 1510682945621, "trialdata": {"rt": -1, "stimulus": "<p id=\"stim\">4</p>", "key_press": -1, "trial_type": "single-stim", "trial_index": 192, "time_elapsed": 1164283, "internal_node_id": "0.0-141.0-6.0"}}, {"uniqueid": "MTK0251:35K3O9HUACKU4YFWKNH4KR9DZLKEF4", "current_trial": 193, "dateTime": 1510682946627, "trialdata": {"rt": -1, "stimulus": "<p id=\"stim\">3</p>", "key_press": -1, "trial_type": "single-stim", "trial_index": 193, "time_elapsed": 1165289, "internal_node_id": "0.0-141.0-7.0"}}, {"uniqueid": "MTK0251:35K3O9HUACKU4YFWKNH4KR9DZLKEF4", "current_trial": 194, "dateTime": 1510682947630, "trialdata": {"rt": -1, "stimulus": "<p id=\"stim\">2</p>", "key_press": -1, "trial_type": "single-stim", "trial_index": 194, "time_elapsed": 1166291, "internal_node_id": "0.0-141.0-8.0"}}, {"uniqueid": "MTK0251:35K3O9HUACKU4YFWKNH4KR9DZLKEF4", "current_trial": 195, "dateTime": 1510682948670, "trialdata": {"rt": -1, "stimulus": "<p id=\"stim\">1</p>", "key_press": -1, "trial_type": "single-stim", "trial_index": 195, "time_elapsed": 1167332, "internal_node_id": "0.0-141.0-9.0"}}, {"uniqueid": "MTK0251:35K3O9HUACKU4YFWKNH4KR9DZLKEF4", "current_trial": 196, "dateTime": 1510682950182, "trialdata": {"rt": -1, "stimulus": "<p id=\"stim\">+</p>", "key_press": -1, "type": "FIXATION", "trial_type": "single-stim", "trial_index": 196, "time_elapsed": 1168844, "internal_node_id": "0.0-142.0-0.0"}}, {"uniqueid": "MTK0251:35K3O9HUACKU4YFWKNH4KR9DZLKEF4", "current_trial": 197, "dateTime": 1510682951789, "trialdata": {"rt": -1, "stimulus": "<p id=\"stim\">BINDER</p>", "key_press": -1, "type": "PRES_VIS", "word": "binder", "wordID": 126, "conditions": [12, 1600, "v", 24000], "trial": 5, "serialpos": 0, "trial_type": "single-stim", "trial_index": 197, "time_elapsed": 1170450, "internal_node_id": "0.0-143.0"}}, {"uniqueid": "MTK0251:35K3O9HUACKU4YFWKNH4KR9DZLKEF4", "current_trial": 198, "dateTime": 1510682954491, "trialdata": {"rt": -1, "stimulus": "<p id=\"stim\">BUGGY</p>", "key_press": -1, "type": "PRES_VIS", "word": "buggy", "wordID": 187, "conditions": [12, 1600, "v", 24000], "trial": 5, "serialpos": 1, "trial_type": "single-stim", "trial_index": 198, "time_elapsed": 1173152, "internal_node_id": "0.0-144.0"}}, {"uniqueid": "MTK0251:35K3O9HUACKU4YFWKNH4KR9DZLKEF4", "current_trial": 199, "dateTime": 1510682957198, "trialdata": {"rt": -1, "stimulus": "<p id=\"stim\">CRUTCH</p>", "key_press": -1, "type": "PRES_VIS", "word": "crutch", "wordID": 416, "conditions": [12, 1600, "v", 24000], "trial": 5, "serialpos": 2, "trial_type": "single-stim", "trial_index": 199, "time_elapsed": 1175860, "internal_node_id": "0.0-145.0"}}, {"uniqueid": "MTK0251:35K3O9HUACKU4YFWKNH4KR9DZLKEF4", "current_trial": 200, "dateTime": 1510682959809, "trialdata": {"rt": -1, "stimulus": "<p id=\"stim\">MUFFIN</p>", "key_press": -1, "type": "PRES_VIS", "word": "muffin", "wordID": 928, "conditions": [12, 1600, "v", 24000], "trial": 5, "serialpos": 3, "trial_type": "single-stim", "trial_index": 200, "time_elapsed": 1178471, "internal_node_id": "0.0-146.0"}}, {"uniqueid": "MTK0251:35K3O9HUACKU4YFWKNH4KR9DZLKEF4", "current_trial": 201, "dateTime": 1510682962328, "trialdata": {"rt": -1, "stimulus": "<p id=\"stim\">BEEF</p>", "key_press": -1, "type": "PRES_VIS", "word": "beef", "wordID": 112, "conditions": [12, 1600, "v", 24000], "trial": 5, "serialpos": 4, "trial_type": "single-stim", "trial_index": 201, "time_elapsed": 1180990, "internal_node_id": "0.0-147.0"}}, {"uniqueid": "MTK0251:35K3O9HUACKU4YFWKNH4KR9DZLKEF4", "current_trial": 202, "dateTime": 1510682964911, "trialdata": {"rt": -1, "stimulus": "<p id=\"stim\">HONEY</p>", "key_press": -1, "type": "PRES_VIS", "word": "honey", "wordID": 712, "conditions": [12, 1600, "v", 24000], "trial": 5, "serialpos": 5, "trial_type": "single-stim", "trial_index": 202, "time_elapsed": 1183557, "internal_node_id": "0.0-148.0"}}, {"uniqueid": "MTK0251:35K3O9HUACKU4YFWKNH4KR9DZLKEF4", "current_trial": 203, "dateTime": 1510682967356, "trialdata": {"rt": -1, "stimulus": "<p id=\"stim\">SHORTCAKE</p>", "key_press": -1, "type": "PRES_VIS", "word": "shortcake", "wordID": 1291, "conditions": [12, 1600, "v", 24000], "trial": 5, "serialpos": 6, "trial_type": "single-stim", "trial_index": 203, "time_elapsed": 1186018, "internal_node_id": "0.0-149.0"}}, {"uniqueid": "MTK0251:35K3O9HUACKU4YFWKNH4KR9DZLKEF4", "current_trial": 204, "dateTime": 1510682969771, "trialdata": {"rt": -1, "stimulus": "<p id=\"stim\">JUDGE</p>", "key_press": -1, "type": "PRES_VIS", "word": "judge", "wordID": 760, "conditions": [12, 1600, "v", 24000], "trial": 5, "serialpos": 7, "trial_type": "single-stim", "trial_index": 204, "time_elapsed": 1188433, "internal_node_id": "0.0-150.0"}}, {"uniqueid": "MTK0251:35K3O9HUACKU4YFWKNH4KR9DZLKEF4", "current_trial": 205, "dateTime": 1510682972239, "trialdata": {"rt": -1, "stimulus": "<p id=\"stim\">TROMBONE</p>", "key_press": -1, "type": "PRES_VIS", "word": "trombone", "wordID": 1507, "conditions": [12, 1600, "v", 24000], "trial": 5, "serialpos": 8, "trial_type": "single-stim", "trial_index": 205, "time_elapsed": 1190901, "internal_node_id": "0.0-151.0"}}, {"uniqueid": "MTK0251:35K3O9HUACKU4YFWKNH4KR9DZLKEF4", "current_trial": 206, "dateTime": 1510682974958, "trialdata": {"rt": -1, "stimulus": "<p id=\"stim\">PEACH</p>", "key_press": -1, "type": "PRES_VIS", "word": "peach", "wordID": 1030, "conditions": [12, 1600, "v", 24000], "trial": 5, "serialpos": 9, "trial_type": "single-stim", "trial_index": 206, "time_elapsed": 1193619, "internal_node_id": "0.0-152.0"}}, {"uniqueid": "MTK0251:35K3O9HUACKU4YFWKNH4KR9DZLKEF4", "current_trial": 207, "dateTime": 1510682977749, "trialdata": {"rt": -1, "stimulus": "<p id=\"stim\">PECAN</p>", "key_press": -1, "type": "PRES_VIS", "word": "pecan", "wordID": 1035, "conditions": [12, 1600, "v", 24000], "trial": 5, "serialpos": 10, "trial_type": "single-stim", "trial_index": 207, "time_elapsed": 1196410, "internal_node_id": "0.0-153.0"}}, {"uniqueid": "MTK0251:35K3O9HUACKU4YFWKNH4KR9DZLKEF4", "current_trial": 208, "dateTime": 1510682980470, "trialdata": {"rt": -1, "stimulus": "<p id=\"stim\">SCISSORS</p>", "key_press": -1, "type": "PRES_VIS", "word": "scissors", "wordID": 1249, "conditions": [12, 1600, "v", 24000], "trial": 5, "serialpos": 11, "trial_type": "single-stim", "trial_index": 208, "time_elapsed": 1199127, "internal_node_id": "0.0-154.0"}}, {"uniqueid": "MTK0251:35K3O9HUACKU4YFWKNH4KR9DZLKEF4", "current_trial": 209, "dateTime": 1510682982823, "trialdata": {"rt": -1, "stimulus": "", "key_press": -1, "type": "PRE_RECALL_DELAY", "trial_type": "single-stim", "trial_index": 209, "time_elapsed": 1201485, "internal_node_id": "0.0-155.0-0.0"}}, {"uniqueid": "MTK0251:35K3O9HUACKU4YFWKNH4KR9DZLKEF4", "current_trial": 210, "dateTime": 1510682983328, "trialdata": {"rt": -1000, "stimulus": "/static/audio/400Hz.wav", "key_press": -1, "type": "PRE_RECALL_ALERT", "trial_type": "single-audio", "trial_index": 210, "time_elapsed": 1201990, "internal_node_id": "0.0-156.0"}}, {"uniqueid": "MTK0251:35K3O9HUACKU4YFWKNH4KR9DZLKEF4", "current_trial": 211, "dateTime": 1510683043363, "trialdata": {"rt": [3903, 6778, 8163, 9428, 11653, 13406, 15609, 20328], "recwords": ["scissors", "pecan", "peach", "beef", "shortcake", "binder", "buggy", "judge"], "type": "FREE_RECALL", "conditions": [12, 1600, "v", 24000], "trial": 5, "trial_type": "free-recall", "trial_index": 211, "time_elapsed": 1262012, "internal_node_id": "0.0-157.0-0.0"}}, {"uniqueid": "MTK0251:35K3O9HUACKU4YFWKNH4KR9DZLKEF4", "current_trial": 212, "dateTime": 1510683059290, "trialdata": {"rt": 13914, "key_press": 32, "type": "INSTRUCTIONS", "trial_type": "text", "trial_index": 212, "time_elapsed": 1277952, "internal_node_id": "0.0-158.0"}}, {"uniqueid": "MTK0251:35K3O9HUACKU4YFWKNH4KR9DZLKEF4", "current_trial": 213, "dateTime": 1510683085298, "trialdata": {"rt": [3569, 5058, 6662, 8817, 10419, 12158, 13472, 14553, 16250, 17653, 19531, 22342], "responses": ["20", "7", "20", "14", "10", "21", "7", "5", "11", "11", "21", "13"], "num1": [6, 1, 7, 6, 1, 9, 5, 1, 2, 1, 3, 1, 7], "num2": [5, 5, 4, 6, 1, 7, 1, 1, 5, 7, 9, 9, 9], "num3": [9, 1, 9, 2, 8, 5, 1, 3, 4, 3, 9, 3, 3], "type": "DISTRACTOR", "conditions": [12, 800, "a", 24000], "trial": 6, "trial_type": "math-distractor", "trial_index": 213, "time_elapsed": 1303959, "internal_node_id": "0.0-159.0"}}, {"uniqueid": "MTK0251:35K3O9HUACKU4YFWKNH4KR9DZLKEF4", "current_trial": 214, "dateTime": 1510683088305, "trialdata": {"rt": -1, "stimulus": "<p id=\"stim\">10</p>", "key_press": -1, "trial_type": "single-stim", "trial_index": 214, "time_elapsed": 1306967, "internal_node_id": "0.0-160.0-0.0"}}, {"uniqueid": "MTK0251:35K3O9HUACKU4YFWKNH4KR9DZLKEF4", "current_trial": 215, "dateTime": 1510683089309, "trialdata": {"rt": -1, "stimulus": "<p id=\"stim\">9</p>", "key_press": -1, "trial_type": "single-stim", "trial_index": 215, "time_elapsed": 1307971, "internal_node_id": "0.0-160.0-1.0"}}, {"uniqueid": "MTK0251:35K3O9HUACKU4YFWKNH4KR9DZLKEF4", "current_trial": 216, "dateTime": 1510683090313, "trialdata": {"rt": -1, "stimulus": "<p id=\"stim\">8</p>", "key_press": -1, "trial_type": "single-stim", "trial_index": 216, "time_elapsed": 1308974, "internal_node_id": "0.0-160.0-2.0"}}, {"uniqueid": "MTK0251:35K3O9HUACKU4YFWKNH4KR9DZLKEF4", "current_trial": 217, "dateTime": 1510683091316, "trialdata": {"rt": -1, "stimulus": "<p id=\"stim\">7</p>", "key_press": -1, "trial_type": "single-stim", "trial_index": 217, "time_elapsed": 1309977, "internal_node_id": "0.0-160.0-3.0"}}, {"uniqueid": "MTK0251:35K3O9HUACKU4YFWKNH4KR9DZLKEF4", "current_trial": 218, "dateTime": 1510683092320, "trialdata": {"rt": -1, "stimulus": "<p id=\"stim\">6</p>", "key_press": -1, "trial_type": "single-stim", "trial_index": 218, "time_elapsed": 1310980, "internal_node_id": "0.0-160.0-4.0"}}, {"uniqueid": "MTK0251:35K3O9HUACKU4YFWKNH4KR9DZLKEF4", "current_trial": 219, "dateTime": 1510683093327, "trialdata": {"rt": -1, "stimulus": "<p id=\"stim\">5</p>", "key_press": -1, "trial_type": "single-stim", "trial_index": 219, "time_elapsed": 1311985, "internal_node_id": "0.0-160.0-5.0"}}, {"uniqueid": "MTK0251:35K3O9HUACKU4YFWKNH4KR9DZLKEF4", "current_trial": 220, "dateTime": 1510683094331, "trialdata": {"rt": -1, "stimulus": "<p id=\"stim\">4</p>", "key_press": -1, "trial_type": "single-stim", "trial_index": 220, "time_elapsed": 1312992, "internal_node_id": "0.0-160.0-6.0"}}, {"uniqueid": "MTK0251:35K3O9HUACKU4YFWKNH4KR9DZLKEF4", "current_trial": 221, "dateTime": 1510683095344, "trialdata": {"rt": -1, "stimulus": "<p id=\"stim\">3</p>", "key_press": -1, "trial_type": "single-stim", "trial_index": 221, "time_elapsed": 1314006, "internal_node_id": "0.0-160.0-7.0"}}, {"uniqueid": "MTK0251:35K3O9HUACKU4YFWKNH4KR9DZLKEF4", "current_trial": 222, "dateTime": 1510683096352, "trialdata": {"rt": -1, "stimulus": "<p id=\"stim\">2</p>", "key_press": -1, "trial_type": "single-stim", "trial_index": 222, "time_elapsed": 1315014, "internal_node_id": "0.0-160.0-8.0"}}, {"uniqueid": "MTK0251:35K3O9HUACKU4YFWKNH4KR9DZLKEF4", "current_trial": 223, "dateTime": 1510683097358, "trialdata": {"rt": -1, "stimulus": "<p id=\"stim\">1</p>", "key_press": -1, "trial_type": "single-stim", "trial_index": 223, "time_elapsed": 1316020, "internal_node_id": "0.0-160.0-9.0"}}, {"uniqueid": "MTK0251:35K3O9HUACKU4YFWKNH4KR9DZLKEF4", "current_trial": 224, "dateTime": 1510683098861, "trialdata": {"rt": -1, "stimulus": "<p id=\"stim\">+</p>", "key_press": -1, "type": "FIXATION", "trial_type": "single-stim", "trial_index": 224, "time_elapsed": 1317522, "internal_node_id": "0.0-161.0-0.0"}}, {"uniqueid": "MTK0251:35K3O9HUACKU4YFWKNH4KR9DZLKEF4", "current_trial": 225, "dateTime": 1510683100707, "trialdata": {"rt": -1000, "stimulus": "/static/audio/wordpool/SHERIFF.wav", "key_press": -1, "type": "PRES_AUD", "word": "sheriff", "wordID": 1283, "conditions": [12, 800, "a", 24000], "trial": 6, "serialpos": 0, "trial_type": "single-audio", "trial_index": 225, "time_elapsed": 1319369, "internal_node_id": "0.0-162.0"}}, {"uniqueid": "MTK0251:35K3O9HUACKU4YFWKNH4KR9DZLKEF4", "current_trial": 226, "dateTime": 1510683102449, "trialdata": {"rt": -1000, "stimulus": "/static/audio/wordpool/CLAM.wav", "key_press": -1, "type": "PRES_AUD", "word": "clam", "wordID": 314, "conditions": [12, 800, "a", 24000], "trial": 6, "serialpos": 1, "trial_type": "single-audio", "trial_index": 226, "time_elapsed": 1321110, "internal_node_id": "0.0-163.0"}}, {"uniqueid": "MTK0251:35K3O9HUACKU4YFWKNH4KR9DZLKEF4", "current_trial": 227, "dateTime": 1510683104194, "trialdata": {"rt": -1000, "stimulus": "/static/audio/wordpool/MAILBOX.wav", "key_press": -1, "type": "PRES_AUD", "word": "mailbox", "wordID": 856, "conditions": [12, 800, "a", 24000], "trial": 6, "serialpos": 2, "trial_type": "single-audio", "trial_index": 227, "time_elapsed": 1322855, "internal_node_id": "0.0-164.0"}}, {"uniqueid": "MTK0251:35K3O9HUACKU4YFWKNH4KR9DZLKEF4", "current_trial": 228, "dateTime": 1510683106109, "trialdata": {"rt": -1000, "stimulus": "/static/audio/wordpool/FREEZER.wav", "key_press": -1, "type": "PRES_AUD", "word": "freezer", "wordID": 603, "conditions": [12, 800, "a", 24000], "trial": 6, "serialpos": 3, "trial_type": "single-audio", "trial_index": 228, "time_elapsed": 1324771, "internal_node_id": "0.0-165.0"}}, {"uniqueid": "MTK0251:35K3O9HUACKU4YFWKNH4KR9DZLKEF4", "current_trial": 229, "dateTime": 1510683107780, "trialdata": {"rt": -1000, "stimulus": "/static/audio/wordpool/PISTOL.wav", "key_press": -1, "type": "PRES_AUD", "word": "pistol", "wordID": 1074, "conditions": [12, 800, "a", 24000], "trial": 6, "serialpos": 4, "trial_type": "single-audio", "trial_index": 229, "time_elapsed": 1326442, "internal_node_id": "0.0-166.0"}}, {"uniqueid": "MTK0251:35K3O9HUACKU4YFWKNH4KR9DZLKEF4", "current_trial": 230, "dateTime": 1510683109507, "trialdata": {"rt": -1000, "stimulus": "/static/audio/wordpool/KNIFE.wav", "key_press": -1, "type": "PRES_AUD", "word": "knife", "wordID": 784, "conditions": [12, 800, "a", 24000], "trial": 6, "serialpos": 5, "trial_type": "single-audio", "trial_index": 230, "time_elapsed": 1328169, "internal_node_id": "0.0-167.0"}}, {"uniqueid": "MTK0251:35K3O9HUACKU4YFWKNH4KR9DZLKEF4", "current_trial": 231, "dateTime": 1510683111507, "trialdata": {"rt": -1000, "stimulus": "/static/audio/wordpool/MAILMAN.wav", "key_press": -1, "type": "PRES_AUD", "word": "mailman", "wordID": 857, "conditions": [12, 800, "a", 24000], "trial": 6, "serialpos": 6, "trial_type": "single-audio", "trial_index": 231, "time_elapsed": 1330169, "internal_node_id": "0.0-168.0"}}, {"uniqueid": "MTK0251:35K3O9HUACKU4YFWKNH4KR9DZLKEF4", "current_trial": 232, "dateTime": 1510683113386, "trialdata": {"rt": -1000, "stimulus": "/static/audio/wordpool/CAMEL.wav", "key_press": -1, "type": "PRES_AUD", "word": "camel", "wordID": 222, "conditions": [12, 800, "a", 24000], "trial": 6, "serialpos": 7, "trial_type": "single-audio", "trial_index": 232, "time_elapsed": 1332048, "internal_node_id": "0.0-169.0"}}, {"uniqueid": "MTK0251:35K3O9HUACKU4YFWKNH4KR9DZLKEF4", "current_trial": 233, "dateTime": 1510683115134, "trialdata": {"rt": -1000, "stimulus": "/static/audio/wordpool/LION.wav", "key_press": -1, "type": "PRES_AUD", "word": "lion", "wordID": 826, "conditions": [12, 800, "a", 24000], "trial": 6, "serialpos": 8, "trial_type": "single-audio", "trial_index": 233, "time_elapsed": 1333796, "internal_node_id": "0.0-170.0"}}, {"uniqueid": "MTK0251:35K3O9HUACKU4YFWKNH4KR9DZLKEF4", "current_trial": 234, "dateTime": 1510683116948, "trialdata": {"rt": -1000, "stimulus": "/static/audio/wordpool/VIKING.wav", "key_press": -1, "type": "PRES_AUD", "word": "viking", "wordID": 1564, "conditions": [12, 800, "a", 24000], "trial": 6, "serialpos": 9, "trial_type": "single-audio", "trial_index": 234, "time_elapsed": 1335610, "internal_node_id": "0.0-171.0"}}, {"uniqueid": "MTK0251:35K3O9HUACKU4YFWKNH4KR9DZLKEF4", "current_trial": 235, "dateTime": 1510683118923, "trialdata": {"rt": -1000, "stimulus": "/static/audio/wordpool/FARMER.wav", "key_press": -1, "type": "PRES_AUD", "word": "farmer", "wordID": 552, "conditions": [12, 800, "a", 24000], "trial": 6, "serialpos": 10, "trial_type": "single-audio", "trial_index": 235, "time_elapsed": 1337585, "internal_node_id": "0.0-172.0"}}, {"uniqueid": "MTK0251:35K3O9HUACKU4YFWKNH4KR9DZLKEF4", "current_trial": 236, "dateTime": 1510683120637, "trialdata": {"rt": -1000, "stimulus": "/static/audio/wordpool/BLACKBOARD.wav", "key_press": -1, "type": "PRES_AUD", "word": "blackboard", "wordID": 132, "conditions": [12, 800, "a", 24000], "trial": 6, "serialpos": 11, "trial_type": "single-audio", "trial_index": 236, "time_elapsed": 1339298, "internal_node_id": "0.0-173.0"}}, {"uniqueid": "MTK0251:35K3O9HUACKU4YFWKNH4KR9DZLKEF4", "current_trial": 237, "dateTime": 1510683121964, "trialdata": {"rt": -1, "stimulus": "", "key_press": -1, "type": "PRE_RECALL_DELAY", "trial_type": "single-stim", "trial_index": 237, "time_elapsed": 1340626, "internal_node_id": "0.0-174.0-0.0"}}, {"uniqueid": "MTK0251:35K3O9HUACKU4YFWKNH4KR9DZLKEF4", "current_trial": 238, "dateTime": 1510683122467, "trialdata": {"rt": -1000, "stimulus": "/static/audio/400Hz.wav", "key_press": -1, "type": "PRE_RECALL_ALERT", "trial_type": "single-audio", "trial_index": 238, "time_elapsed": 1341129, "internal_node_id": "0.0-175.0"}}, {"uniqueid": "MTK0251:35K3O9HUACKU4YFWKNH4KR9DZLKEF4", "current_trial": 239, "dateTime": 1510683182594, "trialdata": {"rt": [4044, 5570, 7955, 9515, 13288, 15069, 19411, 21200], "recwords": ["blackboard", "farmer", "pistol", "knife", "sherriff", "mailbox", "lion", "camel"], "type": "FREE_RECALL", "conditions": [12, 800, "a", 24000], "trial": 6, "trial_type": "free-recall", "trial_index": 239, "time_elapsed": 1401223, "internal_node_id": "0.0-176.0-0.0"}}, {"uniqueid": "MTK0251:35K3O9HUACKU4YFWKNH4KR9DZLKEF4", "current_trial": 240, "dateTime": 1510683521546, "trialdata": {"rt": 336935, "key_press": 13, "type": "INSTRUCTIONS", "trial_type": "text", "trial_index": 240, "time_elapsed": 1740208, "internal_node_id": "0.0-177.0"}}, {"uniqueid": "MTK0251:35K3O9HUACKU4YFWKNH4KR9DZLKEF4", "current_trial": 241, "dateTime": 1510683535625, "trialdata": {"rt": [8294], "responses": ["10"], "num1": [2, 4], "num2": [3, 8], "num3": [5, 7], "type": "DISTRACTOR", "conditions": [12, 1600, "a", 12000], "trial": 7, "trial_type": "math-distractor", "trial_index": 241, "time_elapsed": 1754287, "internal_node_id": "0.0-178.0"}}, {"uniqueid": "MTK0251:35K3O9HUACKU4YFWKNH4KR9DZLKEF4", "current_trial": 242, "dateTime": 1510683538657, "trialdata": {"rt": -1, "stimulus": "<p id=\"stim\">10</p>", "key_press": -1, "trial_type": "single-stim", "trial_index": 242, "time_elapsed": 1757319, "internal_node_id": "0.0-179.0-0.0"}}, {"uniqueid": "MTK0251:35K3O9HUACKU4YFWKNH4KR9DZLKEF4", "current_trial": 243, "dateTime": 1510683539759, "trialdata": {"rt": -1, "stimulus": "<p id=\"stim\">9</p>", "key_press": -1, "trial_type": "single-stim", "trial_index": 243, "time_elapsed": 1758420, "internal_node_id": "0.0-179.0-1.0"}}, {"uniqueid": "MTK0251:35K3O9HUACKU4YFWKNH4KR9DZLKEF4", "current_trial": 244, "dateTime": 1510683540766, "trialdata": {"rt": -1, "stimulus": "<p id=\"stim\">8</p>", "key_press": -1, "trial_type": "single-stim", "trial_index": 244, "time_elapsed": 1759428, "internal_node_id": "0.0-179.0-2.0"}}, {"uniqueid": "MTK0251:35K3O9HUACKU4YFWKNH4KR9DZLKEF4", "current_trial": 245, "dateTime": 1510683541773, "trialdata": {"rt": -1, "stimulus": "<p id=\"stim\">7</p>", "key_press": -1, "trial_type": "single-stim", "trial_index": 245, "time_elapsed": 1760434, "internal_node_id": "0.0-179.0-3.0"}}, {"uniqueid": "MTK0251:35K3O9HUACKU4YFWKNH4KR9DZLKEF4", "current_trial": 246, "dateTime": 1510683542799, "trialdata": {"rt": -1, "stimulus": "<p id=\"stim\">6</p>", "key_press": -1, "trial_type": "single-stim", "trial_index": 246, "time_elapsed": 1761460, "internal_node_id": "0.0-179.0-4.0"}}, {"uniqueid": "MTK0251:35K3O9HUACKU4YFWKNH4KR9DZLKEF4", "current_trial": 247, "dateTime": 1510683543843, "trialdata": {"rt": -1, "stimulus": "<p id=\"stim\">5</p>", "key_press": -1, "trial_type": "single-stim", "trial_index": 247, "time_elapsed": 1762505, "internal_node_id": "0.0-179.0-5.0"}}, {"uniqueid": "MTK0251:35K3O9HUACKU4YFWKNH4KR9DZLKEF4", "current_trial": 248, "dateTime": 1510683544856, "trialdata": {"rt": -1, "stimulus": "<p id=\"stim\">4</p>", "key_press": -1, "trial_type": "single-stim", "trial_index": 248, "time_elapsed": 1763518, "internal_node_id": "0.0-179.0-6.0"}}, {"uniqueid": "MTK0251:35K3O9HUACKU4YFWKNH4KR9DZLKEF4", "current_trial": 249, "dateTime": 1510683545867, "trialdata": {"rt": -1, "stimulus": "<p id=\"stim\">3</p>", "key_press": -1, "trial_type": "single-stim", "trial_index": 249, "time_elapsed": 1764528, "internal_node_id": "0.0-179.0-7.0"}}, {"uniqueid": "MTK0251:35K3O9HUACKU4YFWKNH4KR9DZLKEF4", "current_trial": 250, "dateTime": 1510683546870, "trialdata": {"rt": -1, "stimulus": "<p id=\"stim\">2</p>", "key_press": -1, "trial_type": "single-stim", "trial_index": 250, "time_elapsed": 1765531, "internal_node_id": "0.0-179.0-8.0"}}, {"uniqueid": "MTK0251:35K3O9HUACKU4YFWKNH4KR9DZLKEF4", "current_trial": 251, "dateTime": 1510683547877, "trialdata": {"rt": -1, "stimulus": "<p id=\"stim\">1</p>", "key_press": -1, "trial_type": "single-stim", "trial_index": 251, "time_elapsed": 1766539, "internal_node_id": "0.0-179.0-9.0"}}, {"uniqueid": "MTK0251:35K3O9HUACKU4YFWKNH4KR9DZLKEF4", "current_trial": 252, "dateTime": 1510683549384, "trialdata": {"rt": -1, "stimulus": "<p id=\"stim\">+</p>", "key_press": -1, "type": "FIXATION", "trial_type": "single-stim", "trial_index": 252, "time_elapsed": 1768045, "internal_node_id": "0.0-180.0-0.0"}}, {"uniqueid": "MTK0251:35K3O9HUACKU4YFWKNH4KR9DZLKEF4", "current_trial": 253, "dateTime": 1510683552050, "trialdata": {"rt": -1000, "stimulus": "/static/audio/wordpool/SCARF.wav", "key_press": -1, "type": "PRES_AUD", "word": "scarf", "wordID": 1245, "conditions": [12, 1600, "a", 12000], "trial": 7, "serialpos": 0, "trial_type": "single-audio", "trial_index": 253, "time_elapsed": 1770712, "internal_node_id": "0.0-181.0"}}, {"uniqueid": "MTK0251:35K3O9HUACKU4YFWKNH4KR9DZLKEF4", "current_trial": 254, "dateTime": 1510683554786, "trialdata": {"rt": -1000, "stimulus": "/static/audio/wordpool/STAR.wav", "key_press": -1, "type": "PRES_AUD", "word": "star", "wordID": 1372, "conditions": [12, 1600, "a", 12000], "trial": 7, "serialpos": 1, "trial_type": "single-audio", "trial_index": 254, "time_elapsed": 1773447, "internal_node_id": "0.0-182.0"}}, {"uniqueid": "MTK0251:35K3O9HUACKU4YFWKNH4KR9DZLKEF4", "current_trial": 255, "dateTime": 1510683557393, "trialdata": {"rt": -1000, "stimulus": "/static/audio/wordpool/PICTURE.wav", "key_press": -1, "type": "PRES_AUD", "word": "picture", "wordID": 1060, "conditions": [12, 1600, "a", 12000], "trial": 7, "serialpos": 2, "trial_type": "single-audio", "trial_index": 255, "time_elapsed": 1776055, "internal_node_id": "0.0-183.0"}}, {"uniqueid": "MTK0251:35K3O9HUACKU4YFWKNH4KR9DZLKEF4", "current_trial": 256, "dateTime": 1510683559812, "trialdata": {"rt": -1000, "stimulus": "/static/audio/wordpool/PORTRAIT.wav", "key_press": -1, "type": "PRES_AUD", "word": "portrait", "wordID": 1110, "conditions": [12, 1600, "a", 12000], "trial": 7, "serialpos": 3, "trial_type": "single-audio", "trial_index": 256, "time_elapsed": 1778473, "internal_node_id": "0.0-184.0"}}, {"uniqueid": "MTK0251:35K3O9HUACKU4YFWKNH4KR9DZLKEF4", "current_trial": 257, "dateTime": 1510683562381, "trialdata": {"rt": -1000, "stimulus": "/static/audio/wordpool/SKIRT.wav", "key_press": -1, "type": "PRES_AUD", "word": "skirt", "wordID": 1318, "conditions": [12, 1600, "a", 12000], "trial": 7, "serialpos": 4, "trial_type": "single-audio", "trial_index": 257, "time_elapsed": 1781043, "internal_node_id": "0.0-185.0"}}, {"uniqueid": "MTK0251:35K3O9HUACKU4YFWKNH4KR9DZLKEF4", "current_trial": 258, "dateTime": 1510683565064, "trialdata": {"rt": -1000, "stimulus": "/static/audio/wordpool/FINGER.wav", "key_press": -1, "type": "PRES_AUD", "word": "finger", "wordID": 566, "conditions": [12, 1600, "a", 12000], "trial": 7, "serialpos": 5, "trial_type": "single-audio", "trial_index": 258, "time_elapsed": 1783726, "internal_node_id": "0.0-186.0"}}, {"uniqueid": "MTK0251:35K3O9HUACKU4YFWKNH4KR9DZLKEF4", "current_trial": 259, "dateTime": 1510683567536, "trialdata": {"rt": -1000, "stimulus": "/static/audio/wordpool/PASTA.wav", "key_press": -1, "type": "PRES_AUD", "word": "pasta", "wordID": 1020, "conditions": [12, 1600, "a", 12000], "trial": 7, "serialpos": 6, "trial_type": "single-audio", "trial_index": 259, "time_elapsed": 1786198, "internal_node_id": "0.0-187.0"}}, {"uniqueid": "MTK0251:35K3O9HUACKU4YFWKNH4KR9DZLKEF4", "current_trial": 260, "dateTime": 1510683570154, "trialdata": {"rt": -1000, "stimulus": "/static/audio/wordpool/POWDER.wav", "key_press": -1, "type": "PRES_AUD", "word": "powder", "wordID": 1116, "conditions": [12, 1600, "a", 12000], "trial": 7, "serialpos": 7, "trial_type": "single-audio", "trial_index": 260, "time_elapsed": 1788816, "internal_node_id": "0.0-188.0"}}, {"uniqueid": "MTK0251:35K3O9HUACKU4YFWKNH4KR9DZLKEF4", "current_trial": 261, "dateTime": 1510683572677, "trialdata": {"rt": -1000, "stimulus": "/static/audio/wordpool/BLOUSE.wav", "key_press": -1, "type": "PRES_AUD", "word": "blouse", "wordID": 138, "conditions": [12, 1600, "a", 12000], "trial": 7, "serialpos": 8, "trial_type": "single-audio", "trial_index": 261, "time_elapsed": 1791339, "internal_node_id": "0.0-189.0"}}, {"uniqueid": "MTK0251:35K3O9HUACKU4YFWKNH4KR9DZLKEF4", "current_trial": 262, "dateTime": 1510683575279, "trialdata": {"rt": -1000, "stimulus": "/static/audio/wordpool/DRESSER.wav", "key_press": -1, "type": "PRES_AUD", "word": "dresser", "wordID": 495, "conditions": [12, 1600, "a", 12000], "trial": 7, "serialpos": 9, "trial_type": "single-audio", "trial_index": 262, "time_elapsed": 1793941, "internal_node_id": "0.0-190.0"}}, {"uniqueid": "MTK0251:35K3O9HUACKU4YFWKNH4KR9DZLKEF4", "current_trial": 263, "dateTime": 1510683577941, "trialdata": {"rt": -1000, "stimulus": "/static/audio/wordpool/CATCHER.wav", "key_press": -1, "type": "PRES_AUD", "word": "catcher", "wordID": 257, "conditions": [12, 1600, "a", 12000], "trial": 7, "serialpos": 10, "trial_type": "single-audio", "trial_index": 263, "time_elapsed": 1796603, "internal_node_id": "0.0-191.0"}}, {"uniqueid": "MTK0251:35K3O9HUACKU4YFWKNH4KR9DZLKEF4", "current_trial": 264, "dateTime": 1510683580385, "trialdata": {"rt": -1000, "stimulus": "/static/audio/wordpool/PEPPER.wav", "key_press": -1, "type": "PRES_AUD", "word": "pepper", "wordID": 1046, "conditions": [12, 1600, "a", 12000], "trial": 7, "serialpos": 11, "trial_type": "single-audio", "trial_index": 264, "time_elapsed": 1799047, "internal_node_id": "0.0-192.0"}}, {"uniqueid": "MTK0251:35K3O9HUACKU4YFWKNH4KR9DZLKEF4", "current_trial": 265, "dateTime": 1510683581634, "trialdata": {"rt": -1, "stimulus": "", "key_press": -1, "type": "PRE_RECALL_DELAY", "trial_type": "single-stim", "trial_index": 265, "time_elapsed": 1800295, "internal_node_id": "0.0-193.0-0.0"}}, {"uniqueid": "MTK0251:35K3O9HUACKU4YFWKNH4KR9DZLKEF4", "current_trial": 266, "dateTime": 1510683582135, "trialdata": {"rt": -1000, "stimulus": "/static/audio/400Hz.wav", "key_press": -1, "type": "PRE_RECALL_ALERT", "trial_type": "single-audio", "trial_index": 266, "time_elapsed": 1800797, "internal_node_id": "0.0-194.0"}}, {"uniqueid": "MTK0251:35K3O9HUACKU4YFWKNH4KR9DZLKEF4", "current_trial": 267, "dateTime": 1510683642193, "trialdata": {"rt": [2843, 6022, 9363, 10653, 12078, 14107, 15847, 18092], "recwords": ["pepper", "blouse", "finger", "skirt", "picture", "portrait", "catcher", "scarf"], "type": "FREE_RECALL", "conditions": [12, 1600, "a", 12000], "trial": 7, "trial_type": "free-recall", "trial_index": 267, "time_elapsed": 1860822, "internal_node_id": "0.0-195.0-0.0"}}, {"uniqueid": "MTK0251:35K3O9HUACKU4YFWKNH4KR9DZLKEF4", "current_trial": 268, "dateTime": 1510683834076, "trialdata": {"rt": 189877, "key_press": 13, "type": "INSTRUCTIONS", "trial_type": "text", "trial_index": 268, "time_elapsed": 2052737, "internal_node_id": "0.0-196.0"}}, {"uniqueid": "MTK0251:35K3O9HUACKU4YFWKNH4KR9DZLKEF4", "current_trial": 269, "dateTime": 1510683860089, "trialdata": {"rt": [2312, 3587, 3667, 5663, 7379, 9502, 11324, 13236, 14375, 16988, 19660, 21625, 23424], "responses": ["13", "15", "", "12", "11", "22", "15", "12", "3", "27", "10", "15", "9"], "num1": [2, 5, 2, 2, 2, 6, 5, 3, 1, 9, 7, 2, 4, 5], "num2": [3, 5, 9, 6, 8, 9, 1, 4, 1, 9, 1, 4, 3, 2], "num3": [8, 5, 4, 4, 1, 7, 9, 5, 1, 9, 2, 9, 2, 2], "type": "DISTRACTOR", "conditions": [12, 1600, "a", 24000], "trial": 8, "trial_type": "math-distractor", "trial_index": 269, "time_elapsed": 2078750, "internal_node_id": "0.0-197.0"}}, {"uniqueid": "MTK0251:35K3O9HUACKU4YFWKNH4KR9DZLKEF4", "current_trial": 270, "dateTime": 1510683863090, "trialdata": {"rt": -1, "stimulus": "<p id=\"stim\">10</p>", "key_press": -1, "trial_type": "single-stim", "trial_index": 270, "time_elapsed": 2081752, "internal_node_id": "0.0-198.0-0.0"}}, {"uniqueid": "MTK0251:35K3O9HUACKU4YFWKNH4KR9DZLKEF4", "current_trial": 271, "dateTime": 1510683864112, "trialdata": {"rt": -1, "stimulus": "<p id=\"stim\">9</p>", "key_press": -1, "trial_type": "single-stim", "trial_index": 271, "time_elapsed": 2082773, "internal_node_id": "0.0-198.0-1.0"}}, {"uniqueid": "MTK0251:35K3O9HUACKU4YFWKNH4KR9DZLKEF4", "current_trial": 272, "dateTime": 1510683865115, "trialdata": {"rt": -1, "stimulus": "<p id=\"stim\">8</p>", "key_press": -1, "trial_type": "single-stim", "tri