{"condition": 0, "counterbalance": 67, "assignmentId": "3U088ZLJVL0XOUMX25SP3QT90PG0WM", "workerId": "MTK0340", "hitId": "3SBNLSTU6UCTUPU2Z2VPSHBQYWZDZW", "currenttrial": 627, "bonus": 0, "data": [{"uniqueid": "MTK0340:3U088ZLJVL0XOUMX25SP3QT90PG0WM", "current_trial": 0, "dateTime": 1510720612680, "trialdata": {"rt": 2417, "key_press": 32, "type": "INSTRUCTIONS", "trial_type": "text", "trial_index": 0, "time_elapsed": 2417, "internal_node_id": "0.0-0.0"}}, {"uniqueid": "MTK0340:3U088ZLJVL0XOUMX25SP3QT90PG0WM", "current_trial": 1, "dateTime": 1510720661875, "trialdata": {"rt": 49193, "key_press": 13, "type": "INSTRUCTIONS", "trial_type": "text", "trial_index": 1, "time_elapsed": 51611, "internal_node_id": "0.0-1.0"}}, {"uniqueid": "MTK0340:3U088ZLJVL0XOUMX25SP3QT90PG0WM", "current_trial": 2, "dateTime": 1510720689447, "trialdata": {"rt": [27536], "responses": ["ocean"], "type": "AUDIO_TEST", "trial_type": "audio-test", "trial_index": 2, "time_elapsed": 79184, "internal_node_id": "0.0-2.0"}}, {"uniqueid": "MTK0340:3U088ZLJVL0XOUMX25SP3QT90PG0WM", "current_trial": 3, "dateTime": 1510720703401, "trialdata": {"rt": [13944], "responses": ["crystal"], "type": "AUDIO_TEST", "trial_type": "audio-test", "trial_index": 3, "time_elapsed": 93137, "internal_node_id": "0.0-3.0"}}, {"uniqueid": "MTK0340:3U088ZLJVL0XOUMX25SP3QT90PG0WM", "current_trial": 4, "dateTime": 1510720749557, "trialdata": {"rt": [46148], "responses": ["spice"], "type": "AUDIO_TEST", "trial_type": "audio-test", "trial_index": 4, "time_elapsed": 139294, "internal_node_id": "0.0-4.0"}}, {"uniqueid": "MTK0340:3U088ZLJVL0XOUMX25SP3QT90PG0WM", "current_trial": 5, "dateTime": 1510720768255, "trialdata": {"rt": 17943, "responses": "{\"Q0\":\"10\",\"Q1\":\"8\",\"Q2\":\"3\"}", "type": "SLEEP_SURVEY", "trial_type": "survey-text", "trial_index": 5, "time_elapsed": 157992, "internal_node_id": "0.0-5.0"}}, {"uniqueid": "MTK0340:3U088ZLJVL0XOUMX25SP3QT90PG0WM", "current_trial": 6, "dateTime": 1510720800676, "trialdata": {"rt": 31419, "key_press": 13, "type": "INSTRUCTIONS", "trial_type": "text", "trial_index": 6, "time_elapsed": 190413, "internal_node_id": "0.0-6.0"}}, {"uniqueid": "MTK0340:3U088ZLJVL0XOUMX25SP3QT90PG0WM", "current_trial": 7, "dateTime": 1510720817391, "trialdata": {"rt": 16213, "key_press": 32, "type": "INSTRUCTIONS", "trial_type": "text", "trial_index": 7, "time_elapsed": 207128, "internal_node_id": "0.0-7.0"}}, {"uniqueid": "MTK0340:3U088ZLJVL0XOUMX25SP3QT90PG0WM", "current_trial": 8, "dateTime": 1510720825022, "trialdata": {"rt": 7129, "key_press": 32, "type": "INSTRUCTIONS", "trial_type": "text", "trial_index": 8, "time_elapsed": 214759, "internal_node_id": "0.0-8.0"}}, {"uniqueid": "MTK0340:3U088ZLJVL0XOUMX25SP3QT90PG0WM", "current_trial": 9, "dateTime": 1510720844031, "trialdata": {"rt": [7673, 11104, 15102], "responses": ["18", "21", "14"], "num1": [6, 6, 4, 2], "num2": [5, 6, 6, 5], "num3": [7, 9, 4, 2], "type": "DISTRACTOR", "conditions": [18, 1200, "a", 18000], "trial": 0, "trial_type": "math-distractor", "trial_index": 9, "time_elapsed": 233768, "internal_node_id": "0.0-9.0"}}, {"uniqueid": "MTK0340:3U088ZLJVL0XOUMX25SP3QT90PG0WM", "current_trial": 10, "dateTime": 1510720847033, "trialdata": {"rt": -1, "stimulus": "<p id=\"stim\">10</p>", "key_press": -1, "trial_type": "single-stim", "trial_index": 10, "time_elapsed": 236770, "internal_node_id": "0.0-10.0-0.0"}}, {"uniqueid": "MTK0340:3U088ZLJVL0XOUMX25SP3QT90PG0WM", "current_trial": 11, "dateTime": 1510720848035, "trialdata": {"rt": -1, "stimulus": "<p id=\"stim\">9</p>", "key_press": -1, "trial_type": "single-stim", "trial_index": 11, "time_elapsed": 237772, "internal_node_id": "0.0-10.0-1.0"}}, {"uniqueid": "MTK0340:3U088ZLJVL0XOUMX25SP3QT90PG0WM", "current_trial": 12, "dateTime": 1510720849037, "trialdata": {"rt": -1, "stimulus": "<p id=\"stim\">8</p>", "key_press": -1, "trial_type": "single-stim", "trial_index": 12, "time_elapsed": 238774, "internal_node_id": "0.0-10.0-2.0"}}, {"uniqueid": "MTK0340:3U088ZLJVL0XOUMX25SP3QT90PG0WM", "current_trial": 13, "dateTime": 1510720850038, "trialdata": {"rt": -1, "stimulus": "<p id=\"stim\">7</p>", "key_press": -1, "trial_type": "single-stim", "trial_index": 13, "time_elapsed": 239775, "internal_node_id": "0.0-10.0-3.0"}}, {"uniqueid": "MTK0340:3U088ZLJVL0XOUMX25SP3QT90PG0WM", "current_trial": 14, "dateTime": 1510720851039, "trialdata": {"rt": -1, "stimulus": "<p id=\"stim\">6</p>", "key_press": -1, "trial_type": "single-stim", "trial_index": 14, "time_elapsed": 240775, "internal_node_id": "0.0-10.0-4.0"}}, {"uniqueid": "MTK0340:3U088ZLJVL0XOUMX25SP3QT90PG0WM", "current_trial": 15, "dateTime": 1510720852040, "trialdata": {"rt": -1, "stimulus": "<p id=\"stim\">5</p>", "key_press": -1, "trial_type": "single-stim", "trial_index": 15, "time_elapsed": 241777, "internal_node_id": "0.0-10.0-5.0"}}, {"uniqueid": "MTK0340:3U088ZLJVL0XOUMX25SP3QT90PG0WM", "current_trial": 16, "dateTime": 1510720853042, "trialdata": {"rt": -1, "stimulus": "<p id=\"stim\">4</p>", "key_press": -1, "trial_type": "single-stim", "trial_index": 16, "time_elapsed": 242779, "internal_node_id": "0.0-10.0-6.0"}}, {"uniqueid": "MTK0340:3U088ZLJVL0XOUMX25SP3QT90PG0WM", "current_trial": 17, "dateTime": 1510720854043, "trialdata": {"rt": -1, "stimulus": "<p id=\"stim\">3</p>", "key_press": -1, "trial_type": "single-stim", "trial_index": 17, "time_elapsed": 243780, "internal_node_id": "0.0-10.0-7.0"}}, {"uniqueid": "MTK0340:3U088ZLJVL0XOUMX25SP3QT90PG0WM", "current_trial": 18, "dateTime": 1510720855044, "trialdata": {"rt": -1, "stimulus": "<p id=\"stim\">2</p>", "key_press": -1, "trial_type": "single-stim", "trial_index": 18, "time_elapsed": 244781, "internal_node_id": "0.0-10.0-8.0"}}, {"uniqueid": "MTK0340:3U088ZLJVL0XOUMX25SP3QT90PG0WM", "current_trial": 19, "dateTime": 1510720856045, "trialdata": {"rt": -1, "stimulus": "<p id=\"stim\">1</p>", "key_press": -1, "trial_type": "single-stim", "trial_index": 19, "time_elapsed": 245782, "internal_node_id": "0.0-10.0-9.0"}}, {"uniqueid": "MTK0340:3U088ZLJVL0XOUMX25SP3QT90PG0WM", "current_trial": 20, "dateTime": 1510720857546, "trialdata": {"rt": -1, "stimulus": "<p id=\"stim\">+</p>", "key_press": -1, "type": "FIXATION", "trial_type": "single-stim", "trial_index": 20, "time_elapsed": 247283, "internal_node_id": "0.0-11.0-0.0"}}, {"uniqueid": "MTK0340:3U088ZLJVL0XOUMX25SP3QT90PG0WM", "current_trial": 21, "dateTime": 1510720859804, "trialdata": {"rt": -1000, "stimulus": "/static/audio/wordpool/SHELF.wav", "key_press": -1, "type": "PRES_AUD", "word": "shelf", "wordID": 1279, "conditions": [18, 1200, "a", 18000], "trial": 0, "serialpos": 0, "trial_type": "single-audio", "trial_index": 21, "time_elapsed": 249541, "internal_node_id": "0.0-12.0"}}, {"uniqueid": "MTK0340:3U088ZLJVL0XOUMX25SP3QT90PG0WM", "current_trial": 22, "dateTime": 1510720861818, "trialdata": {"rt": -1000, "stimulus": "/static/audio/wordpool/OFFICE.wav", "key_press": -1, "type": "PRES_AUD", "word": "office", "wordID": 971, "conditions": [18, 1200, "a", 18000], "trial": 0, "serialpos": 1, "trial_type": "single-audio", "trial_index": 22, "time_elapsed": 251555, "internal_node_id": "0.0-13.0"}}, {"uniqueid": "MTK0340:3U088ZLJVL0XOUMX25SP3QT90PG0WM", "current_trial": 23, "dateTime": 1510720864047, "trialdata": {"rt": -1000, "stimulus": "/static/audio/wordpool/RAZOR.wav", "key_press": -1, "type": "PRES_AUD", "word": "razor", "wordID": 1170, "conditions": [18, 1200, "a", 18000], "trial": 0, "serialpos": 2, "trial_type": "single-audio", "trial_index": 23, "time_elapsed": 253784, "internal_node_id": "0.0-14.0"}}, {"uniqueid": "MTK0340:3U088ZLJVL0XOUMX25SP3QT90PG0WM", "current_trial": 24, "dateTime": 1510720866134, "trialdata": {"rt": -1000, "stimulus": "/static/audio/wordpool/SHOVEL.wav", "key_press": -1, "type": "PRES_AUD", "word": "shovel", "wordID": 1294, "conditions": [18, 1200, "a", 18000], "trial": 0, "serialpos": 3, "trial_type": "single-audio", "trial_index": 24, "time_elapsed": 255871, "internal_node_id": "0.0-15.0"}}, {"uniqueid": "MTK0340:3U088ZLJVL0XOUMX25SP3QT90PG0WM", "current_trial": 25, "dateTime": 1510720868355, "trialdata": {"rt": -1000, "stimulus": "/static/audio/wordpool/CASHEW.wav", "key_press": -1, "type": "PRES_AUD", "word": "cashew", "wordID": 252, "conditions": [18, 1200, "a", 18000], "trial": 0, "serialpos": 4, "trial_type": "single-audio", "trial_index": 25, "time_elapsed": 258092, "internal_node_id": "0.0-16.0"}}, {"uniqueid": "MTK0340:3U088ZLJVL0XOUMX25SP3QT90PG0WM", "current_trial": 26, "dateTime": 1510720870711, "trialdata": {"rt": -1000, "stimulus": "/static/audio/wordpool/MATCH.wav", "key_press": -1, "type": "PRES_AUD", "word": "match", "wordID": 877, "conditions": [18, 1200, "a", 18000], "trial": 0, "serialpos": 5, "trial_type": "single-audio", "trial_index": 26, "time_elapsed": 260448, "internal_node_id": "0.0-17.0"}}, {"uniqueid": "MTK0340:3U088ZLJVL0XOUMX25SP3QT90PG0WM", "current_trial": 27, "dateTime": 1510720872837, "trialdata": {"rt": -1000, "stimulus": "/static/audio/wordpool/LAMP.wav", "key_press": -1, "type": "PRES_AUD", "word": "lamp", "wordID": 797, "conditions": [18, 1200, "a", 18000], "trial": 0, "serialpos": 6, "trial_type": "single-audio", "trial_index": 27, "time_elapsed": 262574, "internal_node_id": "0.0-18.0"}}, {"uniqueid": "MTK0340:3U088ZLJVL0XOUMX25SP3QT90PG0WM", "current_trial": 28, "dateTime": 1510720875176, "trialdata": {"rt": -1000, "stimulus": "/static/audio/wordpool/DINER.wav", "key_press": -1, "type": "PRES_AUD", "word": "diner", "wordID": 466, "conditions": [18, 1200, "a", 18000], "trial": 0, "serialpos": 7, "trial_type": "single-audio", "trial_index": 28, "time_elapsed": 264913, "internal_node_id": "0.0-19.0"}}, {"uniqueid": "MTK0340:3U088ZLJVL0XOUMX25SP3QT90PG0WM", "current_trial": 29, "dateTime": 1510720877234, "trialdata": {"rt": -1000, "stimulus": "/static/audio/wordpool/MONEY.wav", "key_press": -1, "type": "PRES_AUD", "word": "money", "wordID": 907, "conditions": [18, 1200, "a", 18000], "trial": 0, "serialpos": 8, "trial_type": "single-audio", "trial_index": 29, "time_elapsed": 266971, "internal_node_id": "0.0-20.0"}}, {"uniqueid": "MTK0340:3U088ZLJVL0XOUMX25SP3QT90PG0WM", "current_trial": 30, "dateTime": 1510720879593, "trialdata": {"rt": -1000, "stimulus": "/static/audio/wordpool/GIRL.wav", "key_press": -1, "type": "PRES_AUD", "word": "girl", "wordID": 636, "conditions": [18, 1200, "a", 18000], "trial": 0, "serialpos": 9, "trial_type": "single-audio", "trial_index": 30, "time_elapsed": 269330, "internal_node_id": "0.0-21.0"}}, {"uniqueid": "MTK0340:3U088ZLJVL0XOUMX25SP3QT90PG0WM", "current_trial": 31, "dateTime": 1510720881875, "trialdata": {"rt": -1000, "stimulus": "/static/audio/wordpool/CUSTARD.wav", "key_press": -1, "type": "PRES_AUD", "word": "custard", "wordID": 428, "conditions": [18, 1200, "a", 18000], "trial": 0, "serialpos": 10, "trial_type": "single-audio", "trial_index": 31, "time_elapsed": 271612, "internal_node_id": "0.0-22.0"}}, {"uniqueid": "MTK0340:3U088ZLJVL0XOUMX25SP3QT90PG0WM", "current_trial": 32, "dateTime": 1510720884262, "trialdata": {"rt": -1000, "stimulus": "/static/audio/wordpool/POET.wav", "key_press": -1, "type": "PRES_AUD", "word": "poet", "wordID": 1094, "conditions": [18, 1200, "a", 18000], "trial": 0, "serialpos": 11, "trial_type": "single-audio", "trial_index": 32, "time_elapsed": 273999, "internal_node_id": "0.0-23.0"}}, {"uniqueid": "MTK0340:3U088ZLJVL0XOUMX25SP3QT90PG0WM", "current_trial": 33, "dateTime": 1510720886263, "trialdata": {"rt": -1000, "stimulus": "/static/audio/wordpool/SHARK.wav", "key_press": -1, "type": "PRES_AUD", "word": "shark", "wordID": 1274, "conditions": [18, 1200, "a", 18000], "trial": 0, "serialpos": 12, "trial_type": "single-audio", "trial_index": 33, "time_elapsed": 276000, "internal_node_id": "0.0-24.0"}}, {"uniqueid": "MTK0340:3U088ZLJVL0XOUMX25SP3QT90PG0WM", "current_trial": 34, "dateTime": 1510720888295, "trialdata": {"rt": -1000, "stimulus": "/static/audio/wordpool/SANDWICH.wav", "key_press": -1, "type": "PRES_AUD", "word": "sandwich", "wordID": 1231, "conditions": [18, 1200, "a", 18000], "trial": 0, "serialpos": 13, "trial_type": "single-audio", "trial_index": 34, "time_elapsed": 278032, "internal_node_id": "0.0-25.0"}}, {"uniqueid": "MTK0340:3U088ZLJVL0XOUMX25SP3QT90PG0WM", "current_trial": 35, "dateTime": 1510720890598, "trialdata": {"rt": -1000, "stimulus": "/static/audio/wordpool/INFANT.wav", "key_press": -1, "type": "PRES_AUD", "word": "infant", "wordID": 736, "conditions": [18, 1200, "a", 18000], "trial": 0, "serialpos": 14, "trial_type": "single-audio", "trial_index": 35, "time_elapsed": 280335, "internal_node_id": "0.0-26.0"}}, {"uniqueid": "MTK0340:3U088ZLJVL0XOUMX25SP3QT90PG0WM", "current_trial": 36, "dateTime": 1510720892641, "trialdata": {"rt": -1000, "stimulus": "/static/audio/wordpool/BROTHER.wav", "key_press": -1, "type": "PRES_AUD", "word": "brother", "wordID": 178, "conditions": [18, 1200, "a", 18000], "trial": 0, "serialpos": 15, "trial_type": "single-audio", "trial_index": 36, "time_elapsed": 282378, "internal_node_id": "0.0-27.0"}}, {"uniqueid": "MTK0340:3U088ZLJVL0XOUMX25SP3QT90PG0WM", "current_trial": 37, "dateTime": 1510720894881, "trialdata": {"rt": 1525.3968253967969, "stimulus": "/static/audio/wordpool/PLIERS.wav", "key_press": 13, "type": "PRES_AUD", "word": "pliers", "wordID": 1088, "conditions": [18, 1200, "a", 18000], "trial": 0, "serialpos": 16, "trial_type": "single-audio", "trial_index": 37, "time_elapsed": 284617, "internal_node_id": "0.0-28.0"}}, {"uniqueid": "MTK0340:3U088ZLJVL0XOUMX25SP3QT90PG0WM", "current_trial": 38, "dateTime": 1510720897044, "trialdata": {"rt": 286.03174603171055, "stimulus": "/static/audio/wordpool/YARN.wav", "key_press": 32, "type": "PRES_AUD", "word": "yarn", "wordID": 1630, "conditions": [18, 1200, "a", 18000], "trial": 0, "serialpos": 17, "trial_type": "single-audio", "trial_index": 38, "time_elapsed": 286780, "internal_node_id": "0.0-29.0"}}, {"uniqueid": "MTK0340:3U088ZLJVL0XOUMX25SP3QT90PG0WM", "current_trial": 39, "dateTime": 1510720898295, "trialdata": {"rt": -1, "stimulus": "", "key_press": -1, "type": "PRE_RECALL_DELAY", "trial_type": "single-stim", "trial_index": 39, "time_elapsed": 288032, "internal_node_id": "0.0-30.0-0.0"}}, {"uniqueid": "MTK0340:3U088ZLJVL0XOUMX25SP3QT90PG0WM", "current_trial": 40, "dateTime": 1510720898796, "trialdata": {"rt": -1000, "stimulus": "/static/audio/400Hz.wav", "key_press": -1, "type": "PRE_RECALL_ALERT", "trial_type": "single-audio", "trial_index": 40, "time_elapsed": 288533, "internal_node_id": "0.0-31.0"}}, {"uniqueid": "MTK0340:3U088ZLJVL0XOUMX25SP3QT90PG0WM", "current_trial": 41, "dateTime": 1510720958804, "trialdata": {"rt": [8353, 10093, 15461], "recwords": ["", "f", "plumb"], "type": "FREE_RECALL", "conditions": [18, 1200, "a", 18000], "trial": 0, "trial_type": "free-recall", "trial_index": 41, "time_elapsed": 348538, "internal_node_id": "0.0-32.0-0.0"}}, {"uniqueid": "MTK0340:3U088ZLJVL0XOUMX25SP3QT90PG0WM", "current_trial": 42, "dateTime": 1510720995439, "trialdata": {"rt": 34634, "key_press": 32, "type": "INSTRUCTIONS", "trial_type": "text", "trial_index": 42, "time_elapsed": 385176, "internal_node_id": "0.0-33.0"}}, {"uniqueid": "MTK0340:3U088ZLJVL0XOUMX25SP3QT90PG0WM", "current_trial": 43, "dateTime": 1510721015442, "trialdata": {"rt": [6750, 9416, 14397], "responses": ["16", "8", "17"], "num1": [7, 4, 4, 4], "num2": [1, 2, 9, 9], "num3": [9, 2, 4, 7], "type": "DISTRACTOR", "conditions": [18, 1200, "v", 18000], "trial": 1, "trial_type": "math-distractor", "trial_index": 43, "time_elapsed": 405179, "internal_node_id": "0.0-34.0"}}, {"uniqueid": "MTK0340:3U088ZLJVL0XOUMX25SP3QT90PG0WM", "current_trial": 44, "dateTime": 1510721018444, "trialdata": {"rt": -1, "stimulus": "<p id=\"stim\">10</p>", "key_press": -1, "trial_type": "single-stim", "trial_index": 44, "time_elapsed": 408181, "internal_node_id": "0.0-35.0-0.0"}}, {"uniqueid": "MTK0340:3U088ZLJVL0XOUMX25SP3QT90PG0WM", "current_trial": 45, "dateTime": 1510721019445, "trialdata": {"rt": -1, "stimulus": "<p id=\"stim\">9</p>", "key_press": -1, "trial_type": "single-stim", "trial_index": 45, "time_elapsed": 409181, "internal_node_id": "0.0-35.0-1.0"}}, {"uniqueid": "MTK0340:3U088ZLJVL0XOUMX25SP3QT90PG0WM", "current_trial": 46, "dateTime": 1510721020450, "trialdata": {"rt": -1, "stimulus": "<p id=\"stim\">8</p>", "key_press": -1, "trial_type": "single-stim", "trial_index": 46, "time_elapsed": 410187, "internal_node_id": "0.0-35.0-2.0"}}, {"uniqueid": "MTK0340:3U088ZLJVL0XOUMX25SP3QT90PG0WM", "current_trial": 47, "dateTime": 1510721021451, "trialdata": {"rt": -1, "stimulus": "<p id=\"stim\">7</p>", "key_press": -1, "trial_type": "single-stim", "trial_index": 47, "time_elapsed": 411188, "internal_node_id": "0.0-35.0-3.0"}}, {"uniqueid": "MTK0340:3U088ZLJVL0XOUMX25SP3QT90PG0WM", "current_trial": 48, "dateTime": 1510721022454, "trialdata": {"rt": -1, "stimulus": "<p id=\"stim\">6</p>", "key_press": -1, "trial_type": "single-stim", "trial_index": 48, "time_elapsed": 412190, "internal_node_id": "0.0-35.0-4.0"}}, {"uniqueid": "MTK0340:3U088ZLJVL0XOUMX25SP3QT90PG0WM", "current_trial": 49, "dateTime": 1510721023456, "trialdata": {"rt": -1, "stimulus": "<p id=\"stim\">5</p>", "key_press": -1, "trial_type": "single-stim", "trial_index": 49, "time_elapsed": 413193, "internal_node_id": "0.0-35.0-5.0"}}, {"uniqueid": "MTK0340:3U088ZLJVL0XOUMX25SP3QT90PG0WM", "current_trial": 50, "dateTime": 1510721024457, "trialdata": {"rt": -1, "stimulus": "<p id=\"stim\">4</p>", "key_press": -1, "trial_type": "single-stim", "trial_index": 50, "time_elapsed": 414194, "internal_node_id": "0.0-35.0-6.0"}}, {"uniqueid": "MTK0340:3U088ZLJVL0XOUMX25SP3QT90PG0WM", "current_trial": 51, "dateTime": 1510721025458, "trialdata": {"rt": -1, "stimulus": "<p id=\"stim\">3</p>", "key_press": -1, "trial_type": "single-stim", "trial_index": 51, "time_elapsed": 415195, "internal_node_id": "0.0-35.0-7.0"}}, {"uniqueid": "MTK0340:3U088ZLJVL0XOUMX25SP3QT90PG0WM", "current_trial": 52, "dateTime": 1510721026458, "trialdata": {"rt": -1, "stimulus": "<p id=\"stim\">2</p>", "key_press": -1, "trial_type": "single-stim", "trial_index": 52, "time_elapsed": 416195, "internal_node_id": "0.0-35.0-8.0"}}, {"uniqueid": "MTK0340:3U088ZLJVL0XOUMX25SP3QT90PG0WM", "current_trial": 53, "dateTime": 1510721027460, "trialdata": {"rt": -1, "stimulus": "<p id=\"stim\">1</p>", "key_press": -1, "trial_type": "single-stim", "trial_index": 53, "time_elapsed": 417197, "internal_node_id": "0.0-35.0-9.0"}}, {"uniqueid": "MTK0340:3U088ZLJVL0XOUMX25SP3QT90PG0WM", "current_trial": 54, "dateTime": 1510721028963, "trialdata": {"rt": -1, "stimulus": "<p id=\"stim\">+</p>", "key_press": -1, "type": "FIXATION", "trial_type": "single-stim", "trial_index": 54, "time_elapsed": 418699, "internal_node_id": "0.0-36.0-0.0"}}, {"uniqueid": "MTK0340:3U088ZLJVL0XOUMX25SP3QT90PG0WM", "current_trial": 55, "dateTime": 1510721030164, "trialdata": {"rt": -1, "stimulus": "<p id=\"stim\">POISON</p>", "key_press": -1, "type": "PRES_VIS", "word": "poison", "wordID": 1095, "conditions": [18, 1200, "v", 18000], "trial": 1, "serialpos": 0, "trial_type": "single-stim", "trial_index": 55, "time_elapsed": 419901, "internal_node_id": "0.0-37.0"}}, {"uniqueid": "MTK0340:3U088ZLJVL0XOUMX25SP3QT90PG0WM", "current_trial": 56, "dateTime": 1510721032497, "trialdata": {"rt": -1, "stimulus": "<p id=\"stim\">TOASTER</p>", "key_press": -1, "type": "PRES_VIS", "word": "toaster", "wordID": 1471, "conditions": [18, 1200, "v", 18000], "trial": 1, "serialpos": 1, "trial_type": "single-stim", "trial_index": 56, "time_elapsed": 422234, "internal_node_id": "0.0-38.0"}}, {"uniqueid": "MTK0340:3U088ZLJVL0XOUMX25SP3QT90PG0WM", "current_trial": 57, "dateTime": 1510721034773, "trialdata": {"rt": -1, "stimulus": "<p id=\"stim\">OUTDOORS</p>", "key_press": -1, "type": "PRES_VIS", "word": "outdoors", "wordID": 986, "conditions": [18, 1200, "v", 18000], "trial": 1, "serialpos": 2, "trial_type": "single-stim", "trial_index": 57, "time_elapsed": 424509, "internal_node_id": "0.0-39.0"}}, {"uniqueid": "MTK0340:3U088ZLJVL0XOUMX25SP3QT90PG0WM", "current_trial": 58, "dateTime": 1510721037112, "trialdata": {"rt": -1, "stimulus": "<p id=\"stim\">MARINE</p>", "key_press": -1, "type": "PRES_VIS", "word": "marine", "wordID": 868, "conditions": [18, 1200, "v", 18000], "trial": 1, "serialpos": 3, "trial_type": "single-stim", "trial_index": 58, "time_elapsed": 426849, "internal_node_id": "0.0-40.0"}}, {"uniqueid": "MTK0340:3U088ZLJVL0XOUMX25SP3QT90PG0WM", "current_trial": 59, "dateTime": 1510721039271, "trialdata": {"rt": -1, "stimulus": "<p id=\"stim\">GLASS</p>", "key_press": -1, "type": "PRES_VIS", "word": "glass", "wordID": 638, "conditions": [18, 1200, "v", 18000], "trial": 1, "serialpos": 4, "trial_type": "single-stim", "trial_index": 59, "time_elapsed": 429008, "internal_node_id": "0.0-41.0"}}, {"uniqueid": "MTK0340:3U088ZLJVL0XOUMX25SP3QT90PG0WM", "current_trial": 60, "dateTime": 1510721041318, "trialdata": {"rt": -1, "stimulus": "<p id=\"stim\">THIEF</p>", "key_press": -1, "type": "PRES_VIS", "word": "thief", "wordID": 1455, "conditions": [18, 1200, "v", 18000], "trial": 1, "serialpos": 5, "trial_type": "single-stim", "trial_index": 60, "time_elapsed": 431055, "internal_node_id": "0.0-42.0"}}, {"uniqueid": "MTK0340:3U088ZLJVL0XOUMX25SP3QT90PG0WM", "current_trial": 61, "dateTime": 1510721043707, "trialdata": {"rt": -1, "stimulus": "<p id=\"stim\">LUGGAGE</p>", "key_press": -1, "type": "PRES_VIS", "word": "luggage", "wordID": 846, "conditions": [18, 1200, "v", 18000], "trial": 1, "serialpos": 6, "trial_type": "single-stim", "trial_index": 61, "time_elapsed": 433444, "internal_node_id": "0.0-43.0"}}, {"uniqueid": "MTK0340:3U088ZLJVL0XOUMX25SP3QT90PG0WM", "current_trial": 62, "dateTime": 1510721046056, "trialdata": {"rt": -1, "stimulus": "<p id=\"stim\">DAISY</p>", "key_press": -1, "type": "PRES_VIS", "word": "daisy", "wordID": 434, "conditions": [18, 1200, "v", 18000], "trial": 1, "serialpos": 7, "trial_type": "single-stim", "trial_index": 62, "time_elapsed": 435793, "internal_node_id": "0.0-44.0"}}, {"uniqueid": "MTK0340:3U088ZLJVL0XOUMX25SP3QT90PG0WM", "current_trial": 63, "dateTime": 1510721048133, "trialdata": {"rt": -1, "stimulus": "<p id=\"stim\">BRACES</p>", "key_press": -1, "type": "PRES_VIS", "word": "braces", "wordID": 163, "conditions": [18, 1200, "v", 18000], "trial": 1, "serialpos": 8, "trial_type": "single-stim", "trial_index": 63, "time_elapsed": 437870, "internal_node_id": "0.0-45.0"}}, {"uniqueid": "MTK0340:3U088ZLJVL0XOUMX25SP3QT90PG0WM", "current_trial": 64, "dateTime": 1510721050303, "trialdata": {"rt": -1, "stimulus": "<p id=\"stim\">SMOG</p>", "key_press": -1, "type": "PRES_VIS", "word": "smog", "wordID": 1329, "conditions": [18, 1200, "v", 18000], "trial": 1, "serialpos": 9, "trial_type": "single-stim", "trial_index": 64, "time_elapsed": 440040, "internal_node_id": "0.0-46.0"}}, {"uniqueid": "MTK0340:3U088ZLJVL0XOUMX25SP3QT90PG0WM", "current_trial": 65, "dateTime": 1510721052384, "trialdata": {"rt": -1, "stimulus": "<p id=\"stim\">COCOON</p>", "key_press": -1, "type": "PRES_VIS", "word": "cocoon", "wordID": 338, "conditions": [18, 1200, "v", 18000], "trial": 1, "serialpos": 10, "trial_type": "single-stim", "trial_index": 65, "time_elapsed": 442121, "internal_node_id": "0.0-47.0"}}, {"uniqueid": "MTK0340:3U088ZLJVL0XOUMX25SP3QT90PG0WM", "current_trial": 66, "dateTime": 1510721054629, "trialdata": {"rt": -1, "stimulus": "<p id=\"stim\">TUBA</p>", "key_press": -1, "type": "PRES_VIS", "word": "tuba", "wordID": 1514, "conditions": [18, 1200, "v", 18000], "trial": 1, "serialpos": 11, "trial_type": "single-stim", "trial_index": 66, "time_elapsed": 444366, "internal_node_id": "0.0-48.0"}}, {"uniqueid": "MTK0340:3U088ZLJVL0XOUMX25SP3QT90PG0WM", "current_trial": 67, "dateTime": 1510721057031, "trialdata": {"rt": -1, "stimulus": "<p id=\"stim\">GAZELLE</p>", "key_press": -1, "type": "PRES_VIS", "word": "gazelle", "wordID": 627, "conditions": [18, 1200, "v", 18000], "trial": 1, "serialpos": 12, "trial_type": "single-stim", "trial_index": 67, "time_elapsed": 446768, "internal_node_id": "0.0-49.0"}}, {"uniqueid": "MTK0340:3U088ZLJVL0XOUMX25SP3QT90PG0WM", "current_trial": 68, "dateTime": 1510721059123, "trialdata": {"rt": -1, "stimulus": "<p id=\"stim\">RADISH</p>", "key_press": -1, "type": "PRES_VIS", "word": "radish", "wordID": 1157, "conditions": [18, 1200, "v", 18000], "trial": 1, "serialpos": 13, "trial_type": "single-stim", "trial_index": 68, "time_elapsed": 448856, "internal_node_id": "0.0-50.0"}}, {"uniqueid": "MTK0340:3U088ZLJVL0XOUMX25SP3QT90PG0WM", "current_trial": 69, "dateTime": 1510721061502, "trialdata": {"rt": -1, "stimulus": "<p id=\"stim\">DRINK</p>", "key_press": -1, "type": "PRES_VIS", "word": "drink", "wordID": 497, "conditions": [18, 1200, "v", 18000], "trial": 1, "serialpos": 14, "trial_type": "single-stim", "trial_index": 69, "time_elapsed": 451239, "internal_node_id": "0.0-51.0"}}, {"uniqueid": "MTK0340:3U088ZLJVL0XOUMX25SP3QT90PG0WM", "current_trial": 70, "dateTime": 1510721063774, "trialdata": {"rt": -1, "stimulus": "<p id=\"stim\">BANK</p>", "key_press": -1, "type": "PRES_VIS", "word": "bank", "wordID": 82, "conditions": [18, 1200, "v", 18000], "trial": 1, "serialpos": 15, "trial_type": "single-stim", "trial_index": 70, "time_elapsed": 453511, "internal_node_id": "0.0-52.0"}}, {"uniqueid": "MTK0340:3U088ZLJVL0XOUMX25SP3QT90PG0WM", "current_trial": 71, "dateTime": 1510721066149, "trialdata": {"rt": -1, "stimulus": "<p id=\"stim\">DRESS</p>", "key_press": -1, "type": "PRES_VIS", "word": "dress", "wordID": 494, "conditions": [18, 1200, "v", 18000], "trial": 1, "serialpos": 16, "trial_type": "single-stim", "trial_index": 71, "time_elapsed": 455886, "internal_node_id": "0.0-53.0"}}, {"uniqueid": "MTK0340:3U088ZLJVL0XOUMX25SP3QT90PG0WM", "current_trial": 72, "dateTime": 1510721068435, "trialdata": {"rt": -1, "stimulus": "<p id=\"stim\">CHAPEL</p>", "key_press": -1, "type": "PRES_VIS", "word": "chapel", "wordID": 279, "conditions": [18, 1200, "v", 18000], "trial": 1, "serialpos": 17, "trial_type": "single-stim", "trial_index": 72, "time_elapsed": 458169, "internal_node_id": "0.0-54.0"}}, {"uniqueid": "MTK0340:3U088ZLJVL0XOUMX25SP3QT90PG0WM", "current_trial": 73, "dateTime": 1510721070645, "trialdata": {"rt": -1, "stimulus": "", "key_press": -1, "type": "PRE_RECALL_DELAY", "trial_type": "single-stim", "trial_index": 73, "time_elapsed": 460382, "internal_node_id": "0.0-55.0-0.0"}}, {"uniqueid": "MTK0340:3U088ZLJVL0XOUMX25SP3QT90PG0WM", "current_trial": 74, "dateTime": 1510721071149, "trialdata": {"rt": -1000, "stimulus": "/static/audio/400Hz.wav", "key_press": -1, "type": "PRE_RECALL_ALERT", "trial_type": "single-audio", "trial_index": 74, "time_elapsed": 460886, "internal_node_id": "0.0-56.0"}}, {"uniqueid": "MTK0340:3U088ZLJVL0XOUMX25SP3QT90PG0WM", "current_trial": 75, "dateTime": 1510721131155, "trialdata": {"rt": [2667, 5015, 7312, 13299], "recwords": ["theif", "gazelle", "posion", "luggage"], "type": "FREE_RECALL", "conditions": [18, 1200, "v", 18000], "trial": 1, "trial_type": "free-recall", "trial_index": 75, "time_elapsed": 520887, "internal_node_id": "0.0-57.0-0.0"}}, {"uniqueid": "MTK0340:3U088ZLJVL0XOUMX25SP3QT90PG0WM", "current_trial": 76, "dateTime": 1510721135724, "trialdata": {"rt": 2562, "key_press": 32, "type": "INSTRUCTIONS", "trial_type": "text", "trial_index": 76, "time_elapsed": 525455, "internal_node_id": "0.0-58.0"}}, {"uniqueid": "MTK0340:3U088ZLJVL0XOUMX25SP3QT90PG0WM", "current_trial": 77, "dateTime": 1510721148728, "trialdata": {"rt": [2708], "responses": ["10"], "num1": [1, 8], "num2": [8, 6], "num3": [1, 2], "type": "DISTRACTOR", "conditions": [12, 800, "v", 12000], "trial": 2, "trial_type": "math-distractor", "trial_index": 77, "time_elapsed": 538465, "internal_node_id": "0.0-59.0"}}, {"uniqueid": "MTK0340:3U088ZLJVL0XOUMX25SP3QT90PG0WM", "current_trial": 78, "dateTime": 1510721151729, "trialdata": {"rt": -1, "stimulus": "<p id=\"stim\">10</p>", "key_press": -1, "trial_type": "single-stim", "trial_index": 78, "time_elapsed": 541465, "internal_node_id": "0.0-60.0-0.0"}}, {"uniqueid": "MTK0340:3U088ZLJVL0XOUMX25SP3QT90PG0WM", "current_trial": 79, "dateTime": 1510721152731, "trialdata": {"rt": -1, "stimulus": "<p id=\"stim\">9</p>", "key_press": -1, "trial_type": "single-stim", "trial_index": 79, "time_elapsed": 542468, "internal_node_id": "0.0-60.0-1.0"}}, {"uniqueid": "MTK0340:3U088ZLJVL0XOUMX25SP3QT90PG0WM", "current_trial": 80, "dateTime": 1510721153732, "trialdata": {"rt": -1, "stimulus": "<p id=\"stim\">8</p>", "key_press": -1, "trial_type": "single-stim", "trial_index": 80, "time_elapsed": 543469, "internal_node_id": "0.0-60.0-2.0"}}, {"uniqueid": "MTK0340:3U088ZLJVL0XOUMX25SP3QT90PG0WM", "current_trial": 81, "dateTime": 1510721154733, "trialdata": {"rt": -1, "stimulus": "<p id=\"stim\">7</p>", "key_press": -1, "trial_type": "single-stim", "trial_index": 81, "time_elapsed": 544470, "internal_node_id": "0.0-60.0-3.0"}}, {"uniqueid": "MTK0340:3U088ZLJVL0XOUMX25SP3QT90PG0WM", "current_trial": 82, "dateTime": 1510721155735, "trialdata": {"rt": -1, "stimulus": "<p id=\"stim\">6</p>", "key_press": -1, "trial_type": "single-stim", "trial_index": 82, "time_elapsed": 545472, "internal_node_id": "0.0-60.0-4.0"}}, {"uniqueid": "MTK0340:3U088ZLJVL0XOUMX25SP3QT90PG0WM", "current_trial": 83, "dateTime": 1510721156739, "trialdata": {"rt": -1, "stimulus": "<p id=\"stim\">5</p>", "key_press": -1, "trial_type": "single-stim", "trial_index": 83, "time_elapsed": 546474, "internal_node_id": "0.0-60.0-5.0"}}, {"uniqueid": "MTK0340:3U088ZLJVL0XOUMX25SP3QT90PG0WM", "current_trial": 84, "dateTime": 1510721157741, "trialdata": {"rt": -1, "stimulus": "<p id=\"stim\">4</p>", "key_press": -1, "trial_type": "single-stim", "trial_index": 84, "time_elapsed": 547478, "internal_node_id": "0.0-60.0-6.0"}}, {"uniqueid": "MTK0340:3U088ZLJVL0XOUMX25SP3QT90PG0WM", "current_trial": 85, "dateTime": 1510721158742, "trialdata": {"rt": -1, "stimulus": "<p id=\"stim\">3</p>", "key_press": -1, "trial_type": "single-stim", "trial_index": 85, "time_elapsed": 548479, "internal_node_id": "0.0-60.0-7.0"}}, {"uniqueid": "MTK0340:3U088ZLJVL0XOUMX25SP3QT90PG0WM", "current_trial": 86, "dateTime": 1510721159742, "trialdata": {"rt": -1, "stimulus": "<p id=\"stim\">2</p>", "key_press": -1, "trial_type": "single-stim", "trial_index": 86, "time_elapsed": 549479, "internal_node_id": "0.0-60.0-8.0"}}, {"uniqueid": "MTK0340:3U088ZLJVL0XOUMX25SP3QT90PG0WM", "current_trial": 87, "dateTime": 1510721160744, "trialdata": {"rt": -1, "stimulus": "<p id=\"stim\">1</p>", "key_press": -1, "trial_type": "single-stim", "trial_index": 87, "time_elapsed": 550481, "internal_node_id": "0.0-60.0-9.0"}}, {"uniqueid": "MTK0340:3U088ZLJVL0XOUMX25SP3QT90PG0WM", "current_trial": 88, "dateTime": 1510721162245, "trialdata": {"rt": -1, "stimulus": "<p id=\"stim\">+</p>", "key_press": -1, "type": "FIXATION", "trial_type": "single-stim", "trial_index": 88, "time_elapsed": 551982, "internal_node_id": "0.0-61.0-0.0"}}, {"uniqueid": "MTK0340:3U088ZLJVL0XOUMX25SP3QT90PG0WM", "current_trial": 89, "dateTime": 1510721163046, "trialdata": {"rt": -1, "stimulus": "<p id=\"stim\">PARROT</p>", "key_press": -1, "type": "PRES_VIS", "word": "parrot", "wordID": 1014, "conditions": [12, 800, "v", 12000], "trial": 2, "serialpos": 0, "trial_type": "single-stim", "trial_index": 89, "time_elapsed": 552783, "internal_node_id": "0.0-62.0"}}, {"uniqueid": "MTK0340:3U088ZLJVL0XOUMX25SP3QT90PG0WM", "current_trial": 90, "dateTime": 1510721164993, "trialdata": {"rt": -1, "stimulus": "<p id=\"stim\">SERVER</p>", "key_press": -1, "type": "PRES_VIS", "word": "server", "wordID": 1271, "conditions": [12, 800, "v", 12000], "trial": 2, "serialpos": 1, "trial_type": "single-stim", "trial_index": 90, "time_elapsed": 554730, "internal_node_id": "0.0-63.0"}}, {"uniqueid": "MTK0340:3U088ZLJVL0XOUMX25SP3QT90PG0WM", "current_trial": 91, "dateTime": 1510721166914, "trialdata": {"rt": -1, "stimulus": "<p id=\"stim\">MATTRESS</p>", "key_press": -1, "type": "PRES_VIS", "word": "mattress", "wordID": 878, "conditions": [12, 800, "v", 12000], "trial": 2, "serialpos": 2, "trial_type": "single-stim", "trial_index": 91, "time_elapsed": 556651, "internal_node_id": "0.0-64.0"}}, {"uniqueid": "MTK0340:3U088ZLJVL0XOUMX25SP3QT90PG0WM", "current_trial": 92, "dateTime": 1510721168790, "trialdata": {"rt": -1, "stimulus": "<p id=\"stim\">TOMBSTONE</p>", "key_press": -1, "type": "PRES_VIS", "word": "tombstone", "wordID": 1477, "conditions": [12, 800, "v", 12000], "trial": 2, "serialpos": 3, "trial_type": "single-stim", "trial_index": 92, "time_elapsed": 558527, "internal_node_id": "0.0-65.0"}}, {"uniqueid": "MTK0340:3U088ZLJVL0XOUMX25SP3QT90PG0WM", "current_trial": 93, "dateTime": 1510721170484, "trialdata": {"rt": -1, "stimulus": "<p id=\"stim\">TEMPLE</p>", "key_press": -1, "type": "PRES_VIS", "word": "temple", "wordID": 1447, "conditions": [12, 800, "v", 12000], "trial": 2, "serialpos": 4, "trial_type": "single-stim", "trial_index": 93, "time_elapsed": 560221, "internal_node_id": "0.0-66.0"}}, {"uniqueid": "MTK0340:3U088ZLJVL0XOUMX25SP3QT90PG0WM", "current_trial": 94, "dateTime": 1510721172201, "trialdata": {"rt": -1, "stimulus": "<p id=\"stim\">WASP</p>", "key_press": -1, "type": "PRES_VIS", "word": "wasp", "wordID": 1592, "conditions": [12, 800, "v", 12000], "trial": 2, "serialpos": 5, "trial_type": "single-stim", "trial_index": 94, "time_elapsed": 561937, "internal_node_id": "0.0-67.0"}}, {"uniqueid": "MTK0340:3U088ZLJVL0XOUMX25SP3QT90PG0WM", "current_trial": 95, "dateTime": 1510721173832, "trialdata": {"rt": -1, "stimulus": "<p id=\"stim\">ROBIN</p>", "key_press": -1, "type": "PRES_VIS", "word": "robin", "wordID": 1198, "conditions": [12, 800, "v", 12000], "trial": 2, "serialpos": 6, "trial_type": "single-stim", "trial_index": 95, "time_elapsed": 563569, "internal_node_id": "0.0-68.0"}}, {"uniqueid": "MTK0340:3U088ZLJVL0XOUMX25SP3QT90PG0WM", "current_trial": 96, "dateTime": 1510721175471, "trialdata": {"rt": -1, "stimulus": "<p id=\"stim\">PENGUIN</p>", "key_press": -1, "type": "PRES_VIS", "word": "penguin", "wordID": 1043, "conditions": [12, 800, "v", 12000], "trial": 2, "serialpos": 7, "trial_type": "single-stim", "trial_index": 96, "time_elapsed": 565208, "internal_node_id": "0.0-69.0"}}, {"uniqueid": "MTK0340:3U088ZLJVL0XOUMX25SP3QT90PG0WM", "current_trial": 97, "dateTime": 1510721177299, "trialdata": {"rt": -1, "stimulus": "<p id=\"stim\">SCARECROW</p>", "key_press": -1, "type": "PRES_VIS", "word": "scarecrow", "wordID": 1244, "conditions": [12, 800, "v", 12000], "trial": 2, "serialpos": 8, "trial_type": "single-stim", "trial_index": 97, "time_elapsed": 567036, "internal_node_id": "0.0-70.0"}}, {"uniqueid": "MTK0340:3U088ZLJVL0XOUMX25SP3QT90PG0WM", "current_trial": 98, "dateTime": 1510721179019, "trialdata": {"rt": -1, "stimulus": "<p id=\"stim\">COUCH</p>", "key_press": -1, "type": "PRES_VIS", "word": "couch", "wordID": 385, "conditions": [12, 800, "v", 12000], "trial": 2, "serialpos": 9, "trial_type": "single-stim", "trial_index": 98, "time_elapsed": 568756, "internal_node_id": "0.0-71.0"}}, {"uniqueid": "MTK0340:3U088ZLJVL0XOUMX25SP3QT90PG0WM", "current_trial": 99, "dateTime": 1510721180808, "trialdata": {"rt": -1, "stimulus": "<p id=\"stim\">SPOON</p>", "key_press": -1, "type": "PRES_VIS", "word": "spoon", "wordID": 1356, "conditions": [12, 800, "v", 12000], "trial": 2, "serialpos": 10, "trial_type": "single-stim", "trial_index": 99, "time_elapsed": 570545, "internal_node_id": "0.0-72.0"}}, {"uniqueid": "MTK0340:3U088ZLJVL0XOUMX25SP3QT90PG0WM", "current_trial": 100, "dateTime": 1510721182595, "trialdata": {"rt": -1, "stimulus": "<p id=\"stim\">STAMP</p>", "key_press": -1, "type": "PRES_VIS", "word": "stamp", "wordID": 1369, "conditions": [12, 800, "v", 12000], "trial": 2, "serialpos": 11, "trial_type": "single-stim", "trial_index": 100, "time_elapsed": 572332, "internal_node_id": "0.0-73.0"}}, {"uniqueid": "MTK0340:3U088ZLJVL0XOUMX25SP3QT90PG0WM", "current_trial": 101, "dateTime": 1510721184891, "trialdata": {"rt": -1, "stimulus": "", "key_press": -1, "type": "PRE_RECALL_DELAY", "trial_type": "single-stim", "trial_index": 101, "time_elapsed": 574627, "internal_node_id": "0.0-74.0-0.0"}}, {"uniqueid": "MTK0340:3U088ZLJVL0XOUMX25SP3QT90PG0WM", "current_trial": 102, "dateTime": 1510721185394, "trialdata": {"rt": -1000, "stimulus": "/static/audio/400Hz.wav", "key_press": -1, "type": "PRE_RECALL_ALERT", "trial_type": "single-audio", "trial_index": 102, "time_elapsed": 575131, "internal_node_id": "0.0-75.0"}}, {"uniqueid": "MTK0340:3U088ZLJVL0XOUMX25SP3QT90PG0WM", "current_trial": 103, "dateTime": 1510721245399, "trialdata": {"rt": [2422, 4305, 6949], "recwords": ["stamp", "penguin", "spoon"], "type": "FREE_RECALL", "conditions": [12, 800, "v", 12000], "trial": 2, "trial_type": "free-recall", "trial_index": 103, "time_elapsed": 635131, "internal_node_id": "0.0-76.0-0.0"}}, {"uniqueid": "MTK0340:3U088ZLJVL0XOUMX25SP3QT90PG0WM", "current_trial": 104, "dateTime": 1510721497639, "trialdata": {"rt": 250239, "key_press": 32, "type": "INSTRUCTIONS", "trial_type": "text", "trial_index": 104, "time_elapsed": 887376, "internal_node_id": "0.0-77.0"}}, {"uniqueid": "MTK0340:3U088ZLJVL0XOUMX25SP3QT90PG0WM", "current_trial": 105, "dateTime": 1510721523646, "trialdata": {"rt": [2302, 4582, 7679, 9721, 14813], "responses": ["6", "11", "9", "8", "16"], "num1": [2, 7, 4, 1, 5, 7], "num2": [1, 2, 1, 1, 3, 5], "num3": [3, 2, 4, 6, 8, 3], "type": "DISTRACTOR", "conditions": [24, 800, "a", 24000], "trial": 3, "trial_type": "math-distractor", "trial_index": 105, "time_elapsed": 913383, "internal_node_id": "0.0-78.0"}}, {"uniqueid": "MTK0340:3U088ZLJVL0XOUMX25SP3QT90PG0WM", "current_trial": 106, "dateTime": 1510721526647, "trialdata": {"rt": -1, "stimulus": "<p id=\"stim\">10</p>", "key_press": -1, "trial_type": "single-stim", "trial_index": 106, "time_elapsed": 916384, "internal_node_id": "0.0-79.0-0.0"}}, {"uniqueid": "MTK0340:3U088ZLJVL0XOUMX25SP3QT90PG0WM", "current_trial": 107, "dateTime": 1510721527648, "trialdata": {"rt": -1, "stimulus": "<p id=\"stim\">9</p>", "key_press": -1, "trial_type": "single-stim", "trial_index": 107, "time_elapsed": 917385, "internal_node_id": "0.0-79.0-1.0"}}, {"uniqueid": "MTK0340:3U088ZLJVL0XOUMX25SP3QT90PG0WM", "current_trial": 108, "dateTime": 1510721528649, "trialdata": {"rt": -1, "stimulus": "<p id=\"stim\">8</p>", "key_press": -1, "trial_type": "single-stim", "trial_index": 108, "time_elapsed": 918386, "internal_node_id": "0.0-79.0-2.0"}}, {"uniqueid": "MTK0340:3U088ZLJVL0XOUMX25SP3QT90PG0WM", "current_trial": 109, "dateTime": 1510721529650, "trialdata": {"rt": -1, "stimulus": "<p id=\"stim\">7</p>", "key_press": -1, "trial_type": "single-stim", "trial_index": 109, "time_elapsed": 919387, "internal_node_id": "0.0-79.0-3.0"}}, {"uniqueid": "MTK0340:3U088ZLJVL0XOUMX25SP3QT90PG0WM", "current_trial": 110, "dateTime": 1510721530651, "trialdata": {"rt": -1, "stimulus": "<p id=\"stim\">6</p>", "key_press": -1, "trial_type": "single-stim", "trial_index": 110, "time_elapsed": 920388, "internal_node_id": "0.0-79.0-4.0"}}, {"uniqueid": "MTK0340:3U088ZLJVL0XOUMX25SP3QT90PG0WM", "current_trial": 111, "dateTime": 1510721531652, "trialdata": {"rt": -1, "stimulus": "<p id=\"stim\">5</p>", "key_press": -1, "trial_type": "single-stim", "trial_index": 111, "time_elapsed": 921389, "internal_node_id": "0.0-79.0-5.0"}}, {"uniqueid": "MTK0340:3U088ZLJVL0XOUMX25SP3QT90PG0WM", "current_trial": 112, "dateTime": 1510721532653, "trialdata": {"rt": -1, "stimulus": "<p id=\"stim\">4</p>", "key_press": -1, "trial_type": "single-stim", "trial_index": 112, "time_elapsed": 922390, "internal_node_id": "0.0-79.0-6.0"}}, {"uniqueid": "MTK0340:3U088ZLJVL0XOUMX25SP3QT90PG0WM", "current_trial": 113, "dateTime": 1510721533654, "trialdata": {"rt": -1, "stimulus": "<p id=\"stim\">3</p>", "key_press": -1, "trial_type": "single-stim", "trial_index": 113, "time_elapsed": 923391, "internal_node_id": "0.0-79.0-7.0"}}, {"uniqueid": "MTK0340:3U088ZLJVL0XOUMX25SP3QT90PG0WM", "current_trial": 114, "dateTime": 1510721534656, "trialdata": {"rt": -1, "stimulus": "<p id=\"stim\">2</p>", "key_press": -1, "trial_type": "single-stim", "trial_index": 114, "time_elapsed": 924393, "internal_node_id": "0.0-79.0-8.0"}}, {"uniqueid": "MTK0340:3U088ZLJVL0XOUMX25SP3QT90PG0WM", "current_trial": 115, "dateTime": 1510721535657, "trialdata": {"rt": -1, "stimulus": "<p id=\"stim\">1</p>", "key_press": -1, "trial_type": "single-stim", "trial_index": 115, "time_elapsed": 925393, "internal_node_id": "0.0-79.0-9.0"}}, {"uniqueid": "MTK0340:3U088ZLJVL0XOUMX25SP3QT90PG0WM", "current_trial": 116, "dateTime": 1510721537158, "trialdata": {"rt": -1, "stimulus": "<p id=\"stim\">+</p>", "key_press": -1, "type": "FIXATION", "trial_type": "single-stim", "trial_index": 116, "time_elapsed": 926895, "internal_node_id": "0.0-80.0-0.0"}}, {"uniqueid": "MTK0340:3U088ZLJVL0XOUMX25SP3QT90PG0WM", "current_trial": 117, "dateTime": 1510721538954, "trialdata": {"rt": -1000, "stimulus": "/static/audio/wordpool/TERMITE.wav", "key_press": -1, "type": "PRES_AUD", "word": "termite", "wordID": 1450, "conditions": [24, 800, "a", 24000], "trial": 3, "serialpos": 0, "trial_type": "single-audio", "trial_index": 117, "time_elapsed": 928691, "internal_node_id": "0.0-81.0"}}, {"uniqueid": "MTK0340:3U088ZLJVL0XOUMX25SP3QT90PG0WM", "current_trial": 118, "dateTime": 1510721540587, "trialdata": {"rt": -1000, "stimulus": "/static/audio/wordpool/SEAFOOD.wav", "key_press": -1, "type": "PRES_AUD", "word": "seafood", "wordID": 1259, "conditions": [24, 800, "a", 24000], "trial": 3, "serialpos": 1, "trial_type": "single-audio", "trial_index": 118, "time_elapsed": 930324, "internal_node_id": "0.0-82.0"}}, {"uniqueid": "MTK0340:3U088ZLJVL0XOUMX25SP3QT90PG0WM", "current_trial": 119, "dateTime": 1510721542540, "trialdata": {"rt": -1000, "stimulus": "/static/audio/wordpool/WIFE.wav", "key_press": -1, "type": "PRES_AUD", "word": "wife", "wordID": 1608, "conditions": [24, 800, "a", 24000], "trial": 3, "serialpos": 2, "trial_type": "single-audio", "trial_index": 119, "time_elapsed": 932277, "internal_node_id": "0.0-83.0"}}, {"uniqueid": "MTK0340:3U088ZLJVL0XOUMX25SP3QT90PG0WM", "current_trial": 120, "dateTime": 1510721544243, "trialdata": {"rt": -1000, "stimulus": "/static/audio/wordpool/PORTRAIT.wav", "key_press": -1, "type": "PRES_AUD", "word": "portrait", "wordID": 1110, "conditions": [24, 800, "a", 24000], "trial": 3, "serialpos": 3, "trial_type": "single-audio", "trial_index": 120, "time_elapsed": 933980, "internal_node_id": "0.0-84.0"}}, {"uniqueid": "MTK0340:3U088ZLJVL0XOUMX25SP3QT90PG0WM", "current_trial": 121, "dateTime": 1510721545983, "trialdata": {"rt": -1000, "stimulus": "/static/audio/wordpool/SILK.wav", "key_press": -1, "type": "PRES_AUD", "word": "silk", "wordID": 1306, "conditions": [24, 800, "a", 24000], "trial": 3, "serialpos": 4, "trial_type": "single-audio", "trial_index": 121, "time_elapsed": 935719, "internal_node_id": "0.0-85.0"}}, {"uniqueid": "MTK0340:3U088ZLJVL0XOUMX25SP3QT90PG0WM", "current_trial": 122, "dateTime": 1510721547718, "trialdata": {"rt": -1000, "stimulus": "/static/audio/wordpool/RABBIT.wav", "key_press": -1, "type": "PRES_AUD", "word": "rabbit", "wordID": 1151, "conditions": [24, 800, "a", 24000], "trial": 3, "serialpos": 5, "trial_type": "single-audio", "trial_index": 122, "time_elapsed": 937455, "internal_node_id": "0.0-86.0"}}, {"uniqueid": "MTK0340:3U088ZLJVL0XOUMX25SP3QT90PG0WM", "current_trial": 123, "dateTime": 1510721549422, "trialdata": {"rt": -1000, "stimulus": "/static/audio/wordpool/VAGRANT.wav", "key_press": -1, "type": "PRES_AUD", "word": "vagrant", "wordID": 1543, "conditions": [24, 800, "a", 24000], "trial": 3, "serialpos": 6, "trial_type": "single-audio", "trial_index": 123, "time_elapsed": 939159, "internal_node_id": "0.0-87.0"}}, {"uniqueid": "MTK0340:3U088ZLJVL0XOUMX25SP3QT90PG0WM", "current_trial": 124, "dateTime": 1510721551289, "trialdata": {"rt": -1000, "stimulus": "/static/audio/wordpool/WAITER.wav", "key_press": -1, "type": "PRES_AUD", "word": "waiter", "wordID": 1579, "conditions": [24, 800, "a", 24000], "trial": 3, "serialpos": 7, "trial_type": "single-audio", "trial_index": 124, "time_elapsed": 941026, "internal_node_id": "0.0-88.0"}}, {"uniqueid": "MTK0340:3U088ZLJVL0XOUMX25SP3QT90PG0WM", "current_trial": 125, "dateTime": 1510721553239, "trialdata": {"rt": -1000, "stimulus": "/static/audio/wordpool/CASHIER.wav", "key_press": -1, "type": "PRES_AUD", "word": "cashier", "wordID": 253, "conditions": [24, 800, "a", 24000], "trial": 3, "serialpos": 8, "trial_type": "single-audio", "trial_index": 125, "time_elapsed": 942976, "internal_node_id": "0.0-89.0"}}, {"uniqueid": "MTK0340:3U088ZLJVL0XOUMX25SP3QT90PG0WM", "current_trial": 126, "dateTime": 1510721555049, "trialdata": {"rt": -1000, "stimulus": "/static/audio/wordpool/POSSUM.wav", "key_press": -1, "type": "PRES_AUD", "word": "possum", "wordID": 1111, "conditions": [24, 800, "a", 24000], "trial": 3, "serialpos": 9, "trial_type": "single-audio", "trial_index": 126, "time_elapsed": 944786, "internal_node_id": "0.0-90.0"}}, {"uniqueid": "MTK0340:3U088ZLJVL0XOUMX25SP3QT90PG0WM", "current_trial": 127, "dateTime": 1510721556915, "trialdata": {"rt": -1000, "stimulus": "/static/audio/wordpool/DOLPHIN.wav", "key_press": -1, "type": "PRES_AUD", "word": "dolphin", "wordID": 482, "conditions": [24, 800, "a", 24000], "trial": 3, "serialpos": 10, "trial_type": "single-audio", "trial_index": 127, "time_elapsed": 946652, "internal_node_id": "0.0-91.0"}}, {"uniqueid": "MTK0340:3U088ZLJVL0XOUMX25SP3QT90PG0WM", "current_trial": 128, "dateTime": 1510721558521, "trialdata": {"rt": -1000, "stimulus": "/static/audio/wordpool/SWAMP.wav", "key_press": -1, "type": "PRES_AUD", "word": "swamp", "wordID": 1415, "conditions": [24, 800, "a", 24000], "trial": 3, "serialpos": 11, "trial_type": "single-audio", "trial_index": 128, "time_elapsed": 948257, "internal_node_id": "0.0-92.0"}}, {"uniqueid": "MTK0340:3U088ZLJVL0XOUMX25SP3QT90PG0WM", "current_trial": 129, "dateTime": 1510721560357, "trialdata": {"rt": -1000, "stimulus": "/static/audio/wordpool/TWIG.wav", "key_press": -1, "type": "PRES_AUD", "word": "twig", "wordID": 1526, "conditions": [24, 800, "a", 24000], "trial": 3, "serialpos": 12, "trial_type": "single-audio", "trial_index": 129, "time_elapsed": 950093, "internal_node_id": "0.0-93.0"}}, {"uniqueid": "MTK0340:3U088ZLJVL0XOUMX25SP3QT90PG0WM", "current_trial": 130, "dateTime": 1510721562345, "trialdata": {"rt": -1000, "stimulus": "/static/audio/wordpool/CARROT.wav", "key_press": -1, "type": "PRES_AUD", "word": "carrot", "wordID": 248, "conditions": [24, 800, "a", 24000], "trial": 3, "serialpos": 13, "trial_type": "single-audio", "trial_index": 130, "time_elapsed": 952082, "internal_node_id": "0.0-94.0"}}, {"uniqueid": "MTK0340:3U088ZLJVL0XOUMX25SP3QT90PG0WM", "current_trial": 131, "dateTime": 1510721564248, "trialdata": {"rt": -1000, "stimulus": "/static/audio/wordpool/BEEF.wav", "key_press": -1, "type": "PRES_AUD", "word": "beef", "wordID": 112, "conditions": [24, 800, "a", 24000], "trial": 3, "serialpos": 14, "trial_type": "single-audio", "trial_index": 131, "time_elapsed": 953985, "internal_node_id": "0.0-95.0"}}, {"uniqueid": "MTK0340:3U088ZLJVL0XOUMX25SP3QT90PG0WM", "current_trial": 132, "dateTime": 1510721566198, "trialdata": {"rt": -1000, "stimulus": "/static/audio/wordpool/PORK.wav", "key_press": -1, "type": "PRES_AUD", "word": "pork", "wordID": 1107, "conditions": [24, 800, "a", 24000], "trial": 3, "serialpos": 15, "trial_type": "single-audio", "trial_index": 132, "time_elapsed": 955935, "internal_node_id": "0.0-96.0"}}, {"uniqueid": "MTK0340:3U088ZLJVL0XOUMX25SP3QT90PG0WM", "current_trial": 133, "dateTime": 1510721567838, "trialdata": {"rt": -1000, "stimulus": "/static/audio/wordpool/TRANSPLANT.wav", "key_press": -1, "type": "PRES_AUD", "word": "transplant", "wordID": 1495, "conditions": [24, 800, "a", 24000], "trial": 3, "serialpos": 16, "trial_type": "single-audio", "trial_index": 133, "time_elapsed": 957575, "internal_node_id": "0.0-97.0"}}, {"uniqueid": "MTK0340:3U088ZLJVL0XOUMX25SP3QT90PG0WM", "current_trial": 134, "dateTime": 1510721569532, "trialdata": {"rt": -1000, "stimulus": "/static/audio/wordpool/CELLAR.wav", "key_press": -1, "type": "PRES_AUD", "word": "cellar", "wordID": 266, "conditions": [24, 800, "a", 24000], "trial": 3, "serialpos": 17, "trial_type": "single-audio", "trial_index": 134, "time_elapsed": 959269, "internal_node_id": "0.0-98.0"}}, {"uniqueid": "MTK0340:3U088ZLJVL0XOUMX25SP3QT90PG0WM", "current_trial": 135, "dateTime": 1510721571455, "trialdata": {"rt": -1000, "stimulus": "/static/audio/wordpool/SWIMMER.wav", "key_press": -1, "type": "PRES_AUD", "word": "swimmer", "wordID": 1419, "conditions": [24, 800, "a", 24000], "trial": 3, "serialpos": 18, "trial_type": "single-audio", "trial_index": 135, "time_elapsed": 961192, "internal_node_id": "0.0-99.0"}}, {"uniqueid": "MTK0340:3U088ZLJVL0XOUMX25SP3QT90PG0WM", "current_trial": 136, "dateTime": 1510721573403, "trialdata": {"rt": -1000, "stimulus": "/static/audio/wordpool/BISON.wav", "key_press": -1, "type": "PRES_AUD", "word": "bison", "wordID": 130, "conditions": [24, 800, "a", 24000], "trial": 3, "serialpos": 19, "trial_type": "single-audio", "trial_index": 136, "time_elapsed": 963139, "internal_node_id": "0.0-100.0"}}, {"uniqueid": "MTK0340:3U088ZLJVL0XOUMX25SP3QT90PG0WM", "current_trial": 137, "dateTime": 1510721575093, "trialdata": {"rt": -1000, "stimulus": "/static/audio/wordpool/RAFT.wav", "key_press": -1, "type": "PRES_AUD", "word": "raft", "wordID": 1158, "conditions": [24, 800, "a", 24000], "trial": 3, "serialpos": 20, "trial_type": "single-audio", "trial_index": 137, "time_elapsed": 964830, "internal_node_id": "0.0-101.0"}}, {"uniqueid": "MTK0340:3U088ZLJVL0XOUMX25SP3QT90PG0WM", "current_trial": 138, "dateTime": 1510721576889, "trialdata": {"rt": -1000, "stimulus": "/static/audio/wordpool/LOFT.wav", "key_press": -1, "type": "PRES_AUD", "word": "loft", "wordID": 839, "conditions": [24, 800, "a", 24000], "trial": 3, "serialpos": 21, "trial_type": "single-audio", "trial_index": 138, "time_elapsed": 966626, "internal_node_id": "0.0-102.0"}}, {"uniqueid": "MTK0340:3U088ZLJVL0XOUMX25SP3QT90PG0WM", "current_trial": 139, "dateTime": 1510721578517, "trialdata": {"rt": -1000, "stimulus": "/static/audio/wordpool/CRATER.wav", "key_press": -1, "type": "PRES_AUD", "word": "crater", "wordID": 399, "conditions": [24, 800, "a", 24000], "trial": 3, "serialpos": 22, "trial_type": "single-audio", "trial_index": 139, "time_elapsed": 968254, "internal_node_id": "0.0-103.0"}}, {"uniqueid": "MTK0340:3U088ZLJVL0XOUMX25SP3QT90PG0WM", "current_trial": 140, "dateTime": 1510721580225, "trialdata": {"rt": -1000, "stimulus": "/static/audio/wordpool/GYMNAST.wav", "key_press": -1, "type": "PRES_AUD", "word": "gymnast", "wordID": 674, "conditions": [24, 800, "a", 24000], "trial": 3, "serialpos": 23, "trial_type": "single-audio", "trial_index": 140, "time_elapsed": 969961, "internal_node_id": "0.0-104.0"}}, {"uniqueid": "MTK0340:3U088ZLJVL0XOUMX25SP3QT90PG0WM", "current_trial": 141, "dateTime": 1510721581622, "trialdata": {"rt": -1, "stimulus": "", "key_press": -1, "type": "PRE_RECALL_DELAY", "trial_type": "single-stim", "trial_index": 141, "time_elapsed": 971359, "internal_node_id": "0.0-105.0-0.0"}}, {"uniqueid": "MTK0340:3U088ZLJVL0XOUMX25SP3QT90PG0WM", "current_trial": 142, "dateTime": 1510721582125, "trialdata": {"rt": -1000, "stimulus": "/static/audio/400Hz.wav", "key_press": -1, "type": "PRE_RECALL_ALERT", "trial_type": "single-audio", "trial_index": 142, "time_elapsed": 971862, "internal_node_id": "0.0-106.0"}}, {"uniqueid": "MTK0340:3U088ZLJVL0XOUMX25SP3QT90PG0WM", "current_trial": 143, "dateTime": 1510721642135, "trialdata": {"rt": [2188, 3930, 6323], "recwords": ["loft", "crater", "gmnist"], "type": "FREE_RECALL", "conditions": [24, 800, "a", 24000], "trial": 3, "trial_type": "free-recall", "trial_index": 143, "time_elapsed": 1031866, "internal_node_id": "0.0-107.0-0.0"}}, {"uniqueid": "MTK0340:3U088ZLJVL0XOUMX25SP3QT90PG0WM", "current_trial": 144, "dateTime": 1510721739546, "trialdata": {"rt": 95409, "key_press": 32, "type": "INSTRUCTIONS", "trial_type": "text", "trial_index": 144, "time_elapsed": 1129282, "internal_node_id": "0.0-108.0"}}, {"uniqueid": "MTK0340:3U088ZLJVL0XOUMX25SP3QT90PG0WM", "current_trial": 145, "dateTime": 1510721753551, "trialdata": {"rt": [2990, 6974, 10253], "responses": ["10", "18", "13"], "num1": [6, 5, 4, 3], "num2": [3, 8, 7, 3], "num3": [1, 5, 2, 9], "type": "DISTRACTOR", "conditions": [24, 1600, "v", 12000], "trial": 4, "trial_type": "math-distractor", "trial_index": 145, "time_elapsed": 1143288, "internal_node_id": "0.0-109.0"}}, {"uniqueid": "MTK0340:3U088ZLJVL0XOUMX25SP3QT90PG0WM", "current_trial": 146, "dateTime": 1510721756552, "trialdata": {"rt": -1, "stimulus": "<p id=\"stim\">10</p>", "key_press": -1, "trial_type": "single-stim", "trial_index": 146, "time_elapsed": 1146288, "internal_node_id": "0.0-110.0-0.0"}}, {"uniqueid": "MTK0340:3U088ZLJVL0XOUMX25SP3QT90PG0WM", "current_trial": 147, "dateTime": 1510721757553, "trialdata": {"rt": -1, "stimulus": "<p id=\"stim\">9</p>", "key_press": -1, "trial_type": "single-stim", "trial_index": 147, "time_elapsed": 1147290, "internal_node_id": "0.0-110.0-1.0"}}, {"uniqueid": "MTK0340:3U088ZLJVL0XOUMX25SP3QT90PG0WM", "current_trial": 148, "dateTime": 1510721758554, "trialdata": {"rt": -1, "stimulus": "<p id=\"stim\">8</p>", "key_press": -1, "trial_type": "single-stim", "trial_index": 148, "time_elapsed": 1148291, "internal_node_id": "0.0-110.0-2.0"}}, {"uniqueid": "MTK0340:3U088ZLJVL0XOUMX25SP3QT90PG0WM", "current_trial": 149, "dateTime": 1510721759555, "trialdata": {"rt": -1, "stimulus": "<p id=\"stim\">7</p>", "key_press": -1, "trial_type": "single-stim", "trial_index": 149, "time_elapsed": 1149292, "internal_node_id": "0.0-110.0-3.0"}}, {"uniqueid": "MTK0340:3U088ZLJVL0XOUMX25SP3QT90PG0WM", "current_trial": 150, "dateTime": 1510721760556, "trialdata": {"rt": -1, "stimulus": "<p id=\"stim\">6</p>", "key_press": -1, "trial_type": "single-stim", "trial_index": 150, "time_elapsed": 1150293, "internal_node_id": "0.0-110.0-4.0"}}, {"uniqueid": "MTK0340:3U088ZLJVL0XOUMX25SP3QT90PG0WM", "current_trial": 151, "dateTime": 1510721761557, "trialdata": {"rt": -1, "stimulus": "<p id=\"stim\">5</p>", "key_press": -1, "trial_type": "single-stim", "trial_index": 151, "time_elapsed": 1151294, "internal_node_id": "0.0-110.0-5.0"}}, {"uniqueid": "MTK0340:3U088ZLJVL0XOUMX25SP3QT90PG0WM", "current_trial": 152, "dateTime": 1510721762558, "trialdata": {"rt": -1, "stimulus": "<p id=\"stim\">4</p>", "key_press": -1, "trial_type": "single-stim", "trial_index": 152, "time_elapsed": 1152295, "internal_node_id": "0.0-110.0-6.0"}}, {"uniqueid": "MTK0340:3U088ZLJVL0XOUMX25SP3QT90PG0WM", "current_trial": 153, "dateTime": 1510721763559, "trialdata": {"rt": -1, "stimulus": "<p id=\"stim\">3</p>", "key_press": -1, "trial_type": "single-stim", "trial_index": 153, "time_elapsed": 1153296, "internal_node_id": "0.0-110.0-7.0"}}, {"uniqueid": "MTK0340:3U088ZLJVL0XOUMX25SP3QT90PG0WM", "current_trial": 154, "dateTime": 1510721764560, "trialdata": {"rt": -1, "stimulus": "<p id=\"stim\">2</p>", "key_press": -1, "trial_type": "single-stim", "trial_index": 154, "time_elapsed": 1154297, "internal_node_id": "0.0-110.0-8.0"}}, {"uniqueid": "MTK0340:3U088ZLJVL0XOUMX25SP3QT90PG0WM", "current_trial": 155, "dateTime": 1510721765561, "trialdata": {"rt": -1, "stimulus": "<p id=\"stim\">1</p>", "key_press": -1, "trial_type": "single-stim", "trial_index": 155, "time_elapsed": 1155298, "internal_node_id": "0.0-110.0-9.0"}}, {"uniqueid": "MTK0340:3U088ZLJVL0XOUMX25SP3QT90PG0WM", "current_trial": 156, "dateTime": 1510721767062, "trialdata": {"rt": -1, "stimulus": "<p id=\"stim\">+</p>", "key_press": -1, "type": "FIXATION", "trial_type": "single-stim", "trial_index": 156, "time_elapsed": 1156798, "internal_node_id": "0.0-111.0-0.0"}}, {"uniqueid": "MTK0340:3U088ZLJVL0XOUMX25SP3QT90PG0WM", "current_trial": 157, "dateTime": 1510721768663, "trialdata": {"rt": -1, "stimulus": "<p id=\"stim\">VIKING</p>", "key_press": -1, "type": "PRES_VIS", "word": "viking", "wordID": 1564, "conditions": [24, 1600, "v", 12000], "trial": 4, "serialpos": 0, "trial_type": "single-stim", "trial_index": 157, "time_elapsed": 1158400, "internal_node_id": "0.0-112.0"}}, {"uniqueid": "MTK0340:3U088ZLJVL0XOUMX25SP3QT90PG0WM", "current_trial": 158, "dateTime": 1510721771359, "trialdata": {"rt": -1, "stimulus": "<p id=\"stim\">RACKET</p>", "key_press": -1, "type": "PRES_VIS", "word": "racket", "wordID": 1154, "conditions": [24, 1600, "v", 12000], "trial": 4, "serialpos": 1, "trial_type": "single-stim", "trial_index": 158, "time_elapsed": 1161092, "internal_node_id": "0.0-113.0"}}, {"uniqueid": "MTK0340:3U088ZLJVL0XOUMX25SP3QT90PG0WM", "current_trial": 159, "dateTime": 1510721774003, "trialdata": {"rt": -1, "stimulus": "<p id=\"stim\">COD</p>", "key_press": -1, "type": "PRES_VIS", "word": "cod", "wordID": 339, "conditions": [24, 1600, "v", 12000], "trial": 4, "serialpos": 2, "trial_type": "single-stim", "trial_index": 159, "time_elapsed": 1163740, "internal_node_id": "0.0-114.0"}}, {"uniqueid": "MTK0340:3U088ZLJVL0XOUMX25SP3QT90PG0WM", "current_trial": 160, "dateTime": 1510721776473, "trialdata": {"rt": -1, "stimulus": "<p id=\"stim\">PRIMATE</p>", "key_press": -1, "type": "PRES_VIS", "word": "primate", "wordID": 1122, "conditions": [24, 1600, "v", 12000], "trial": 4, "serialpos": 3, "trial_type": "single-stim", "trial_index": 160, "time_elapsed": 1166210, "internal_node_id": "0.0-115.0"}}, {"uniqueid": "MTK0340:3U088ZLJVL0XOUMX25SP3QT90PG0WM", "current_trial": 161, "dateTime": 1510721779088, "trialdata": {"rt": -1, "stimulus": "<p id=\"stim\">FOREST</p>", "key_press": -1, "type": "PRES_VIS", "word": "forest", "wordID": 592, "conditions": [24, 1600, "v", 12000], "trial": 4, "serialpos": 4, "trial_type": "single-stim", "trial_index": 161, "time_elapsed": 1168825, "internal_node_id": "0.0-116.0"}}, {"uniqueid": "MTK0340:3U088ZLJVL0XOUMX25SP3QT90PG0WM", "current_trial": 162, "dateTime": 1510721781808, "trialdata": {"rt": -1, "stimulus": "<p id=\"stim\">GRAPE</p>", "key_press": -1, "type": "PRES_VIS", "word": "grape", "wordID": 653, "conditions": [24, 1600, "v", 12000], "trial": 4, "serialpos": 5, "trial_type": "single-stim", "trial_index": 162, "time_elapsed": 1171545, "internal_node_id": "0.0-117.0"}}, {"uniqueid": "MTK0340:3U088ZLJVL0XOUMX25SP3QT90PG0WM", "current_trial": 163, "dateTime": 1510721784358, "trialdata": {"rt": -1, "stimulus": "<p id=\"stim\">BLUEPRINT</p>", "key_press": -1, "type": "PRES_VIS", "word": "blueprint", "wordID": 141, "conditions": [24, 1600, "v", 12000], "trial": 4, "serialpos": 6, "trial_type": "single-stim", "trial_index": 163, "time_elapsed": 1174095, "internal_node_id": "0.0-118.0"}}, {"uniqueid": "MTK0340:3U088ZLJVL0XOUMX25SP3QT90PG0WM", "current_trial": 164, "dateTime": 1510721786989, "trialdata": {"rt": -1, "stimulus": "<p id=\"stim\">SURVEY</p>", "key_press": -1, "type": "PRES_VIS", "word": "survey", "wordID": 1413, "conditions": [24, 1600, "v", 12000], "trial": 4, "serialpos": 7, "trial_type": "single-stim", "trial_index": 164, "time_elapsed": 1176726, "internal_node_id": "0.0-119.0"}}, {"uniqueid": "MTK0340:3U088ZLJVL0XOUMX25SP3QT90PG0WM", "current_trial": 165, "dateTime": 1510721789417, "trialdata": {"rt": -1, "stimulus": "<p id=\"stim\">TRIBE</p>", "key_press": -1, "type": "PRES_VIS", "word": "tribe", "wordID": 1504, "conditions": [24, 1600, "v", 12000], "trial": 4, "serialpos": 8, "trial_type": "single-stim", "trial_index": 165, "time_elapsed": 1179154, "internal_node_id": "0.0-120.0"}}, {"uniqueid": "MTK0340:3U088ZLJVL0XOUMX25SP3QT90PG0WM", "current_trial": 166, "dateTime": 1510721792140, "trialdata": {"rt": -1, "stimulus": "<p id=\"stim\">COUNTY</p>", "key_press": -1, "type": "PRES_VIS", "word": "county", "wordID": 388, "conditions": [24, 1600, "v", 12000], "trial": 4, "serialpos": 9, "trial_type": "single-stim", "trial_index": 166, "time_elapsed": 1181877, "internal_node_id": "0.0-121.0"}}, {"uniqueid": "MTK0340:3U088ZLJVL0XOUMX25SP3QT90PG0WM", "current_trial": 167, "dateTime": 1510721794774, "trialdata": {"rt": -1, "stimulus": "<p id=\"stim\">SHERIFF</p>", "key_press": -1, "type": "PRES_VIS", "word": "sheriff", "wordID": 1283, "conditions": [24, 1600, "v", 12000], "trial": 4, "serialpos": 10, "trial_type": "single-stim", "trial_index": 167, "time_elapsed": 1184511, "internal_node_id": "0.0-122.0"}}, {"uniqueid": "MTK0340:3U088ZLJVL0XOUMX25SP3QT90PG0WM", "current_trial": 168, "dateTime": 1510721797477, "trialdata": {"rt": -1, "stimulus": "<p id=\"stim\">REPORT</p>", "key_press": -1, "type": "PRES_VIS", "word": "report", "wordID": 1183, "conditions": [24, 1600, "v", 12000], "trial": 4, "serialpos": 11, "trial_type": "single-stim", "trial_index": 168, "time_elapsed": 1187214, "internal_node_id": "0.0-123.0"}}, {"uniqueid": "MTK0340:3U088ZLJVL0XOUMX25SP3QT90PG0WM", "current_trial": 169, "dateTime": 1510721800239, "trialdata": {"rt": -1, "stimulus": "<p id=\"stim\">LIZARD</p>", "key_press": -1, "type": "PRES_VIS", "word": "lizard", "wordID": 833, "conditions": [24, 1600, "v", 12000], "trial": 4, "serialpos": 12, "trial_type": "single-stim", "trial_index": 169, "time_elapsed": 1189976, "internal_node_id": "0.0-124.0"}}, {"uniqueid": "MTK0340:3U088ZLJVL0XOUMX25SP3QT90PG0WM", "current_trial": 170, "dateTime": 1510721802897, "trialdata": {"rt": -1, "stimulus": "<p id=\"stim\">SPIDER</p>", "key_press": -1, "type": "PRES_VIS", "word": "spider", "wordID": 1350, "conditions": [24, 1600, "v", 12000], "trial": 4, "serialpos": 13, "trial_type": "single-stim", "trial_index": 170, "time_elapsed": 1192633, "internal_node_id": "0.0-125.0"}}, {"uniqueid": "MTK0340:3U088ZLJVL0XOUMX25SP3QT90PG0WM", "current_trial": 171, "dateTime": 1510721805633, "trialdata": {"rt": -1, "stimulus": "<p id=\"stim\">PEBBLE</p>", "key_press": -1, "type": "PRES_VIS", "word": "pebble", "wordID": 1034, "conditions": [24, 1600, "v", 12000], "trial": 4, "serialpos": 14, "trial_type": "single-stim", "trial_index": 171, "time_elapsed": 1195370, "internal_node_id": "0.0-126.0"}}, {"uniqueid": "MTK0340:3U088ZLJVL0XOUMX25SP3QT90PG0WM", "current_trial": 172, "dateTime": 1510721808284, "trialdata": {"rt": -1, "stimulus": "<p id=\"stim\">FRECKLE</p>", "key_press": -1, "type": "PRES_VIS", "word": "freckle", "wordID": 601, "conditions": [24, 1600, "v", 12000], "trial": 4, "serialpos": 15, "trial_type": "single-stim", "trial_index": 172, "time_elapsed": 1198021, "internal_node_id": "0.0-127.0"}}, {"uniqueid": "MTK0340:3U088ZLJVL0XOUMX25SP3QT90PG0WM", "current_trial": 173, "dateTime": 1510721811006, "trialdata": {"rt": -1, "stimulus": "<p id=\"stim\">FLUTE</p>", "key_press": -1, "type": "PRES_VIS", "word": "flute", "wordID": 584, "conditions": [24, 1600, "v", 12000], "trial": 4, "serialpos": 16, "trial_type": "single-stim", "trial_index": 173, "time_elapsed": 1200743, "internal_node_id": "0.0-128.0"}}, {"uniqueid": "MTK0340:3U088ZLJVL0XOUMX25SP3QT90PG0WM", "current_trial": 174, "dateTime": 1510721813544, "trialdata": {"rt": -1, "stimulus": "<p id=\"stim\">BRANCH</p>", "key_press": -1, "type": "PRES_VIS", "word": "branch", "wordID": 167, "conditions": [24, 1600, "v", 12000], "trial": 4, "serialpos": 17, "trial_type": "single-stim", "trial_index": 174, "time_elapsed": 1203281, "internal_node_id": "0.0-129.0"}}, {"uniqueid": "MTK0340:3U088ZLJVL0XOUMX25SP3QT90PG0WM", "current_trial": 175, "dateTime": 1510721816025, "trialdata": {"rt": -1, "stimulus": "<p id=\"stim\">WITNESS</p>", "key_press": -1, "type": "PRES_VIS", "word": "witness", "wordID": 1617, "conditions": [24, 1600, "v", 12000], "trial": 4, "serialpos": 18, "trial_type": "single-stim", "trial_index": 175, "time_elapsed": 1205762, "internal_node_id": "0.0-130.0"}}, {"uniqueid": "MTK0340:3U088ZLJVL0XOUMX25SP3QT90PG0WM", "current_trial": 176, "dateTime": 1510721818500, "trialdata": {"rt": -1, "stimulus": "<p id=\"stim\">PIANO</p>", "key_press": -1, "type": "PRES_VIS", "word": "piano", "wordID": 1056, "conditions": [24, 1600, "v", 12000], "trial": 4, "serialpos": 19, "trial_type": "single-stim", "trial_index": 176, "time_elapsed": 1208237, "internal_node_id": "0.0-131.0"}}, {"uniqueid": "MTK0340:3U088ZLJVL0XOUMX25SP3QT90PG0WM", "current_trial": 177, "dateTime": 1510721821295, "trialdata": {"rt": -1, "stimulus": "<p id=\"stim\">LODGE</p>", "key_press": -1, "type": "PRES_VIS", "word": "lodge", "wordID": 838, "conditions": [24, 1600, "v", 12000], "trial": 4, "serialpos": 20, "trial_type": "single-stim", "trial_index": 177, "time_elapsed": 1211032, "internal_node_id": "0.0-132.0"}}, {"uniqueid": "MTK0340:3U088ZLJVL0XOUMX25SP3QT90PG0WM", "current_trial": 178, "dateTime": 1510721823910, "trialdata": {"rt": -1, "stimulus": "<p id=\"stim\">KITCHEN</p>", "key_press": -1, "type": "PRES_VIS", "word": "kitchen", "wordID": 777, "conditions": [24, 1600, "v", 12000], "trial": 4, "serialpos": 21, "trial_type": "single-stim", "trial_index": 178, "time_elapsed": 1213647, "internal_node_id": "0.0-133.0"}}, {"uniqueid": "MTK0340:3U088ZLJVL0XOUMX25SP3QT90PG0WM", "current_trial": 179, "dateTime": 1510721826449, "trialdata": {"rt": -1, "stimulus": "<p id=\"stim\">SOFTBALL</p>", "key_press": -1, "type": "PRES_VIS", "word": "softball", "wordID": 1342, "conditions": [24, 1600, "v", 12000], "trial": 4, "serialpos": 22, "trial_type": "single-stim", "trial_index": 179, "time_elapsed": 1216186, "internal_node_id": "0.0-134.0"}}, {"uniqueid": "MTK0340:3U088ZLJVL0XOUMX25SP3QT90PG0WM", "current_trial": 180, "dateTime": 1510721829036, "trialdata": {"rt": -1, "stimulus": "<p id=\"stim\">BELLY</p>", "key_press": -1, "type": "PRES_VIS", "word": "belly", "wordID": 118, "conditions": [24, 1600, "v", 12000], "trial": 4, "serialpos": 23, "trial_type": "single-stim", "trial_index": 180, "time_elapsed": 1218773, "internal_node_id": "0.0-135.0"}}, {"uniqueid": "MTK0340:3U088ZLJVL0XOUMX25SP3QT90PG0WM", "current_trial": 181, "dateTime": 1510721831257, "trialdata": {"rt": -1, "stimulus": "", "key_press": -1, "type": "PRE_RECALL_DELAY", "trial_type": "single-stim", "trial_index": 181, "time_elapsed": 1220994, "internal_node_id": "0.0-136.0-0.0"}}, {"uniqueid": "MTK0340:3U088ZLJVL0XOUMX25SP3QT90PG0WM", "current_trial": 182, "dateTime": 1510721831760, "trialdata": {"rt": -1000, "stimulus": "/static/audio/400Hz.wav", "key_press": -1, "type": "PRE_RECALL_ALERT", "trial_type": "single-audio", "trial_index": 182, "time_elapsed": 1221497, "internal_node_id": "0.0-137.0"}}, {"uniqueid": "MTK0340:3U088ZLJVL0XOUMX25SP3QT90PG0WM", "current_trial": 183, "dateTime": 1510721891768, "trialdata": {"rt": [14488, 15938], "recwords": ["grape", "lodge"], "type": "FREE_RECALL", "conditions": [24, 1600, "v", 12000], "trial": 4, "trial_type": "free-recall", "trial_index": 183, "time_elapsed": 1281498, "internal_node_id": "0.0-138.0-0.0"}}, {"uniqueid": "MTK0340:3U088ZLJVL0XOUMX25SP3QT90PG0WM", "current_trial": 184, "dateTime": 1510721999762, "trialdata": {"rt": 105993, "key_press": 32, "type": "INSTRUCTIONS", "trial_type": "text", "trial_index": 184, "time_elapsed": 1389499, "internal_node_id": "0.0-139.0"}}, {"uniqueid": "MTK0340:3U088ZLJVL0XOUMX25SP3QT90PG0WM", "current_trial": 185, "dateTime": 1510722013765, "trialdata": {"rt": [4026, 5958, 8475, 11699], "responses": ["15", "17", "12", "13"], "num1": [3, 8, 1, 2, 9], "num2": [7, 1, 4, 3, 6], "num3": [5, 8, 7, 8, 4], "type": "DISTRACTOR", "conditions": [12, 1600, "v", 12000], "trial": 5, "trial_type": "math-distractor", "trial_index": 185, "time_elapsed": 1403502, "internal_node_id": "0.0-140.0"}}, {"uniqueid": "MTK0340:3U088ZLJVL0XOUMX25SP3QT90PG0WM", "current_trial": 186, "dateTime": 1510722016766, "trialdata": {"rt": -1, "stimulus": "<p id=\"stim\">10</p>", "key_press": -1, "trial_type": "single-stim", "trial_index": 186, "time_elapsed": 1406503, "internal_node_id": "0.0-141.0-0.0"}}, {"uniqueid": "MTK0340:3U088ZLJVL0XOUMX25SP3QT90PG0WM", "current_trial": 187, "dateTime": 1510722017767, "trialdata": {"rt": -1, "stimulus": "<p id=\"stim\">9</p>", "key_press": -1, "trial_type": "single-stim", "trial_index": 187, "time_elapsed": 1407504, "internal_node_id": "0.0-141.0-1.0"}}, {"uniqueid": "MTK0340:3U088ZLJVL0XOUMX25SP3QT90PG0WM", "current_trial": 188, "dateTime": 1510722018770, "trialdata": {"rt": -1, "stimulus": "<p id=\"stim\">8</p>", "key_press": -1, "trial_type": "single-stim", "trial_index": 188, "time_elapsed": 1408507, "internal_node_id": "0.0-141.0-2.0"}}, {"uniqueid": "MTK0340:3U088ZLJVL0XOUMX25SP3QT90PG0WM", "current_trial": 189, "dateTime": 1510722019772, "trialdata": {"rt": -1, "stimulus": "<p id=\"stim\">7</p>", "key_press": -1, "trial_type": "single-stim", "trial_index": 189, "time_elapsed": 1409509, "internal_node_id": "0.0-141.0-3.0"}}, {"uniqueid": "MTK0340:3U088ZLJVL0XOUMX25SP3QT90PG0WM", "current_trial": 190, "dateTime": 1510722020773, "trialdata": {"rt": -1, "stimulus": "<p id=\"stim\">6</p>", "key_press": -1, "trial_type": "single-stim", "trial_index": 190, "time_elapsed": 1410510, "internal_node_id": "0.0-141.0-4.0"}}, {"uniqueid": "MTK0340:3U088ZLJVL0XOUMX25SP3QT90PG0WM", "current_trial": 191, "dateTime": 1510722021774, "trialdata": {"rt": -1, "stimulus": "<p id=\"stim\">5</p>", "key_press": -1, "trial_type": "single-stim", "trial_index": 191, "time_elapsed": 1411511, "internal_node_id": "0.0-141.0-5.0"}}, {"uniqueid": "MTK0340:3U088ZLJVL0XOUMX25SP3QT90PG0WM", "current_trial": 192, "dateTime": 1510722022775, "trialdata": {"rt": -1, "stimulus": "<p id=\"stim\">4</p>", "key_press": -1, "trial_type": "single-stim", "trial_index": 192, "time_elapsed": 1412512, "internal_node_id": "0.0-141.0-6.0"}}, {"uniqueid": "MTK0340:3U088ZLJVL0XOUMX25SP3QT90PG0WM", "current_trial": 193, "dateTime": 1510722023776, "trialdata": {"rt": -1, "stimulus": "<p id=\"stim\">3</p>", "key_press": -1, "trial_type": "single-stim", "trial_index": 193, "time_elapsed": 1413513, "internal_node_id": "0.0-141.0-7.0"}}, {"uniqueid": "MTK0340:3U088ZLJVL0XOUMX25SP3QT90PG0WM", "current_trial": 194, "dateTime": 1510722024777, "trialdata": {"rt": -1, "stimulus": "<p id=\"stim\">2</p>", "key_press": -1, "trial_type": "single-stim", "trial_index": 194, "time_elapsed": 1414514, "internal_node_id": "0.0-141.0-8.0"}}, {"uniqueid": "MTK0340:3U088ZLJVL0XOUMX25SP3QT90PG0WM", "current_trial": 195, "dateTime": 1510722025778, "trialdata": {"rt": -1, "stimulus": "<p id=\"stim\">1</p>", "key_press": -1, "trial_type": "single-stim", "trial_index": 195, "time_elapsed": 1415515, "internal_node_id": "0.0-141.0-9.0"}}, {"uniqueid": "MTK0340:3U088ZLJVL0XOUMX25SP3QT90PG0WM", "current_trial": 196, "dateTime": 1510722027280, "trialdata": {"rt": -1, "stimulus": "<p id=\"stim\">+</p>", "key_press": -1, "type": "FIXATION", "trial_type": "single-stim", "trial_index": 196, "time_elapsed": 1417017, "internal_node_id": "0.0-142.0-0.0"}}, {"uniqueid": "MTK0340:3U088ZLJVL0XOUMX25SP3QT90PG0WM", "current_trial": 197, "dateTime": 1510722028881, "trialdata": {"rt": -1, "stimulus": "<p id=\"stim\">MAILMAN</p>", "key_press": -1, "type": "PRES_VIS", "word": "mailman", "wordID": 857, "conditions": [12, 1600, "v", 12000], "trial": 5, "serialpos": 0, "trial_type": "single-stim", "trial_index": 197, "time_elapsed": 1418618, "internal_node_id": "0.0-143.0"}}, {"uniqueid": "MTK0340:3U088ZLJVL0XOUMX25SP3QT90PG0WM", "current_trial": 198, "dateTime": 1510722031627, "trialdata": {"rt": -1, "stimulus": "<p id=\"stim\">DRESSER</p>", "key_press": -1, "type": "PRES_VIS", "word": "dresser", "wordID": 495, "conditions": [12, 1600, "v", 12000], "trial": 5, "serialpos": 1, "trial_type": "single-stim", "trial_index": 198, "time_elapsed": 1421364, "internal_node_id": "0.0-144.0"}}, {"uniqueid": "MTK0340:3U088ZLJVL0XOUMX25SP3QT90PG0WM", "current_trial": 199, "dateTime": 1510722034162, "trialdata": {"rt": -1, "stimulus": "<p id=\"stim\">SUNRISE</p>", "key_press": -1, "type": "PRES_VIS", "word": "sunrise", "wordID": 1406, "conditions": [12, 1600, "v", 12000], "trial": 5, "serialpos": 2, "trial_type": "single-stim", "trial_index": 199, "time_elapsed": 1423898, "internal_node_id": "0.0-145.0"}}, {"uniqueid": "MTK0340:3U088ZLJVL0XOUMX25SP3QT90PG0WM", "current_trial": 200, "dateTime": 1510722036864, "trialdata": {"rt": -1, "stimulus": "<p id=\"stim\">HANDBAG</p>", "key_press": -1, "type": "PRES_VIS", "word": "handbag", "wordID": 683, "conditions": [12, 1600, "v", 12000], "trial": 5, "serialpos": 3, "trial_type": "single-stim", "trial_index": 200, "time_elapsed": 1426601, "internal_node_id": "0.0-146.0"}}, {"uniqueid": "MTK0340:3U088ZLJVL0XOUMX25SP3QT90PG0WM", "current_trial": 201, "dateTime": 1510722039589, "trialdata": {"rt": -1, "stimulus": "<p id=\"stim\">SEAL</p>", "key_press": -1, "type": "PRES_VIS", "word": "seal", "wordID": 1261, "conditions": [12, 1600, "v", 12000], "trial": 5, "serialpos": 4, "trial_type": "single-stim", "trial_index": 201, "time_elapsed": 1429326, "internal_node_id": "0.0-147.0"}}, {"uniqueid": "MTK0340:3U088ZLJVL0XOUMX25SP3QT90PG0WM", "current_trial": 202, "dateTime": 1510722042230, "trialdata": {"rt": -1, "stimulus": "<p id=\"stim\">WOMAN</p>", "key_press": -1, "type": "PRES_VIS", "word": "woman", "wordID": 1619, "conditions": [12, 1600, "v", 12000], "trial": 5, "serialpos": 5, "trial_type": "single-stim", "trial_index": 202, "time_elapsed": 1431967, "internal_node_id": "0.0-148.0"}}, {"uniqueid": "MTK0340:3U088ZLJVL0XOUMX25SP3QT90PG0WM", "current_trial": 203, "dateTime": 1510722044840, "trialdata": {"rt": -1, "stimulus": "<p id=\"stim\">BARLEY</p>", "key_press": -1, "type": "PRES_VIS", "word": "barley", "wordID": 87, "conditions": [12, 1600, "v", 12000], "trial": 5, "serialpos": 6, "trial_type": "single-stim", "trial_index": 203, "time_elapsed": 1434577, "internal_node_id": "0.0-149.0"}}, {"uniqueid": "MTK0340:3U088ZLJVL0XOUMX25SP3QT90PG0WM", "current_trial": 204, "dateTime": 1510722047575, "trialdata": {"rt": -1, "stimulus": "<p id=\"stim\">CROWN</p>", "key_press": -1, "type": "PRES_VIS", "word": "crown", "wordID": 414, "conditions": [12, 1600, "v", 12000], "trial": 5, "serialpos": 7, "trial_type": "single-stim", "trial_index": 204, "time_elapsed": 1437312, "internal_node_id": "0.0-150.0"}}, {"uniqueid": "MTK0340:3U088ZLJVL0XOUMX25SP3QT90PG0WM", "current_trial": 205, "dateTime": 1510722050291, "trialdata": {"rt": -1, "stimulus": "<p id=\"stim\">PECAN</p>", "key_press": -1, "type": "PRES_VIS", "word": "pecan", "wordID": 1035, "conditions": [12, 1600, "v", 12000], "trial": 5, "serialpos": 8, "trial_type": "single-stim", "trial_index": 205, "time_elapsed": 1440028, "internal_node_id": "0.0-151.0"}}, {"uniqueid": "MTK0340:3U088ZLJVL0XOUMX25SP3QT90PG0WM", "current_trial": 206, "dateTime": 1510722052775, "trialdata": {"rt": -1, "stimulus": "<p id=\"stim\">PEACH</p>", "key_press": -1, "type": "PRES_VIS", "word": "peach", "wordID": 1030, "conditions": [12, 1600, "v", 12000], "trial": 5, "serialpos": 9, "trial_type": "single-stim", "trial_index": 206, "time_elapsed": 1442511, "internal_node_id": "0.0-152.0"}}, {"uniqueid": "MTK0340:3U088ZLJVL0XOUMX25SP3QT90PG0WM", "current_trial": 207, "dateTime": 1510722055562, "trialdata": {"rt": -1, "stimulus": "<p id=\"stim\">EXPERT</p>", "key_press": -1, "type": "PRES_VIS", "word": "expert", "wordID": 542, "conditions": [12, 1600, "v", 12000], "trial": 5, "serialpos": 10, "trial_type": "single-stim", "trial_index": 207, "time_elapsed": 1445298, "internal_node_id": "0.0-153.0"}}, {"uniqueid": "MTK0340:3U088ZLJVL0XOUMX25SP3QT90PG0WM", "current_trial": 208, "dateTime": 1510722058232, "trialdata": {"rt": -1, "stimulus": "<p id=\"stim\">NECKLACE</p>", "key_press": -1, "type": "PRES_VIS", "word": "necklace", "wordID": 939, "conditions": [12, 1600, "v", 12000], "trial": 5, "serialpos": 11, "trial_type": "single-stim", "trial_index": 208, "time_elapsed": 1447969, "internal_node_id": "0.0-154.0"}}, {"uniqueid": "MTK0340:3U088ZLJVL0XOUMX25SP3QT90PG0WM", "current_trial": 209, "dateTime": 1510722060583, "trialdata": {"rt": -1, "stimulus": "", "key_press": -1, "type": "PRE_RECALL_DELAY", "trial_type": "single-stim", "trial_index": 209, "time_elapsed": 1450320, "internal_node_id": "0.0-155.0-0.0"}}, {"uniqueid": "MTK0340:3U088ZLJVL0XOUMX25SP3QT90PG0WM", "current_trial": 210, "dateTime": 1510722061083, "trialdata": {"rt": -1000, "stimulus": "/static/audio/400Hz.wav", "key_press": -1, "type": "PRE_RECALL_ALERT", "trial_type": "single-audio", "trial_index": 210, "time_elapsed": 1450820, "internal_node_id": "0.0-156.0"}}, {"uniqueid": "MTK0340:3U088ZLJVL0XOUMX25SP3QT90PG0WM", "current_trial": 211, "dateTime": 1510722121093, "trialdata": {"rt": [2558, 4438, 6036], "recwords": ["mailbag", "woman", "peach"], "type": "FREE_RECALL", "conditions": [12, 1600, "v", 12000], "trial": 5, "trial_type": "free-recall", "trial_index": 211, "time_elapsed": 1510822, "internal_node_id": "0.0-157.0-0.0"}}, {"uniqueid": "MTK0340:3U088ZLJVL0XOUMX25SP3QT90PG0WM", "current_trial": 212, "dateTime": 1510722173914, "trialdata": {"rt": 50820, "key_press": 32, "type": "INSTRUCTIONS", "trial_type": "text", "trial_index": 212, "time_elapsed": 1563651, "internal_node_id": "0.0-158.0"}}, {"uniqueid": "MTK0340:3U088ZLJVL0XOUMX25SP3QT90PG0WM", "current_trial": 213, "dateTime": 1510722187919, "trialdata": {"rt": [3034, 5276, 8185, 11939], "responses": ["16", "9", "21", "23"], "num1": [2, 1, 5, 9, 9], "num2": [6, 3, 8, 7, 4], "num3": [9, 5, 8, 8, 1], "type": "DISTRACTOR", "conditions": [12, 1600, "a", 12000], "trial": 6, "trial_type": "math-distractor", "trial_index": 213, "time_elapsed": 1577655, "internal_node_id": "0.0-159.0"}}, {"uniqueid": "MTK0340:3U088ZLJVL0XOUMX25SP3QT90PG0WM", "current_trial": 214, "dateTime": 1510722190920, "trialdata": {"rt": -1, "stimulus": "<p id=\"stim\">10</p>", "key_press": -1, "trial_type": "single-stim", "trial_index": 214, "time_elapsed": 1580657, "internal_node_id": "0.0-160.0-0.0"}}, {"uniqueid": "MTK0340:3U088ZLJVL0XOUMX25SP3QT90PG0WM", "current_trial": 215, "dateTime": 1510722191921, "trialdata": {"rt": -1, "stimulus": "<p id=\"stim\">9</p>", "key_press": -1, "trial_type": "single-stim", "trial_index": 215, "time_elapsed": 1581658, "internal_node_id": "0.0-160.0-1.0"}}, {"uniqueid": "MTK0340:3U088ZLJVL0XOUMX25SP3QT90PG0WM", "current_trial": 216, "dateTime": 1510722192922, "trialdata": {"rt": -1, "stimulus": "<p id=\"stim\">8</p>", "key_press": -1, "trial_type": "single-stim", "trial_index": 216, "time_elapsed": 1582659, "internal_node_id": "0.0-160.0-2.0"}}, {"uniqueid": "MTK0340:3U088ZLJVL0XOUMX25SP3QT90PG0WM", "current_trial": 217, "dateTime": 1510722193923, "trialdata": {"rt": -1, "stimulus": "<p id=\"stim\">7</p>", "key_press": -1, "trial_type": "single-stim", "trial_index": 217, "time_elapsed": 1583660, "internal_node_id": "0.0-160.0-3.0"}}, {"uniqueid": "MTK0340:3U088ZLJVL0XOUMX25SP3QT90PG0WM", "current_trial": 218, "dateTime": 1510722194926, "trialdata": {"rt": -1, "stimulus": "<p id=\"stim\">6</p>", "key_press": -1, "trial_type": "single-stim", "trial_index": 218, "time_elapsed": 1584661, "internal_node_id": "0.0-160.0-4.0"}}, {"uniqueid": "MTK0340:3U088ZLJVL0XOUMX25SP3QT90PG0WM", "current_trial": 219, "dateTime": 1510722195928, "trialdata": {"rt": -1, "stimulus": "<p id=\"stim\">5</p>", "key_press": -1, "trial_type": "single-stim", "trial_index": 219, "time_elapsed": 1585665, "internal_node_id": "0.0-160.0-5.0"}}, {"uniqueid": "MTK0340:3U088ZLJVL0XOUMX25SP3QT90PG0WM", "current_trial": 220, "dateTime": 1510722196929, "trialdata": {"rt": -1, "stimulus": "<p id=\"stim\">4</p>", "key_press": -1, "trial_type": "single-stim", "trial_index": 220, "time_elapsed": 1586666, "internal_node_id": "0.0-160.0-6.0"}}, {"uniqueid": "MTK0340:3U088ZLJVL0XOUMX25SP3QT90PG0WM", "current_trial": 221, "dateTime": 1510722197930, "trialdata": {"rt": -1, "stimulus": "<p id=\"stim\">3</p>", "key_press": -1, "trial_type": "single-stim", "trial_index": 221, "time_elapsed": 1587667, "internal_node_id": "0.0-160.0-7.0"}}, {"uniqueid": "MTK0340:3U088ZLJVL0XOUMX25SP3QT90PG0WM", "current_trial": 222, "dateTime": 1510722198931, "trialdata": {"rt": -1, "stimulus": "<p id=\"stim\">2</p>", "key_press": -1, "trial_type": "single-stim", "trial_index": 222, "time_elapsed": 1588668, "internal_node_id": "0.0-160.0-8.0"}}, {"uniqueid": "MTK0340:3U088ZLJVL0XOUMX25SP3QT90PG0WM", "current_trial": 223, "dateTime": 1510722199933, "trialdata": {"rt": -1, "stimulus": "<p id=\"stim\">1</p>", "key_press": -1, "trial_type": "single-stim", "trial_index": 223, "time_elapsed": 1589670, "internal_node_id": "0.0-160.0-9.0"}}, {"uniqueid": "MTK0340:3U088ZLJVL0XOUMX25SP3QT90PG0WM", "current_trial": 224, "dateTime": 1510722201436, "trialdata": {"rt": -1, "stimulus": "<p id=\"stim\">+</p>", "key_press": -1, "type": "FIXATION", "trial_type": "single-stim", "trial_index": 224, "time_elapsed": 1591173, "internal_node_id": "0.0-161.0-0.0"}}, {"uniqueid": "MTK0340:3U088ZLJVL0XOUMX25SP3QT90PG0WM", "current_trial": 225, "dateTime": 1510722204046, "trialdata": {"rt": -1000, "stimulus": "/static/audio/wordpool/DUSTPAN.wav", "key_press": -1, "type": "PRES_AUD", "word": "dustpan", "wordID": 508, "conditions": [12, 1600, "a", 12000], "trial": 6, "serialpos": 0, "trial_type": "single-audio", "trial_index": 225, "time_elapsed": 1593783, "internal_node_id": "0.0-162.0"}}, {"uniqueid": "MTK0340:3U088ZLJVL0XOUMX25SP3QT90PG0WM", "current_trial": 226, "dateTime": 1510722206606, "trialdata": {"rt": -1000, "stimulus": "/static/audio/wordpool/HUSBAND.wav", "key_press": -1, "type": "PRES_AUD", "word": "husband", "wordID": 727, "conditions": [12, 1600, "a", 12000], "trial": 6, "serialpos": 1, "trial_type": "single-audio", "trial_index": 226, "time_elapsed": 1596343, "internal_node_id": "0.0-163.0"}}, {"uniqueid": "MTK0340:3U088ZLJVL0XOUMX25SP3QT90PG0WM", "current_trial": 227, "dateTime": 1510722209156, "trialdata": {"rt": -1000, "stimulus": "/static/audio/wordpool/APPLE.wav", "key_press": -1, "type": "PRES_AUD", "word": "apple", "wordID": 32, "conditions": [12, 1600, "a", 12000], "trial": 6, "serialpos": 2, "trial_type": "single-audio", "trial_index": 227, "time_elapsed": 1598893, "internal_node_id": "0.0-164.0"}}, {"uniqueid": "MTK0340:3U088ZLJVL0XOUMX25SP3QT90PG0WM", "current_trial": 228, "dateTime": 1510722211724, "trialdata": {"rt": -1000, "stimulus": "/static/audio/wordpool/GIFT.wav", "key_press": -1, "type": "PRES_AUD", "word": "gift", "wordID": 634, "conditions": [12, 1600, "a", 12000], "trial": 6, "serialpos": 3, "trial_type": "single-audio", "trial_index": 228, "time_elapsed": 1601461, "internal_node_id": "0.0-165.0"}}, {"uniqueid": "MTK0340:3U088ZLJVL0XOUMX25SP3QT90PG0WM", "current_trial": 229, "dateTime": 1510722214143, "trialdata": {"rt": -1000, "stimulus": "/static/audio/wordpool/AWARD.wav", "key_press": -1, "type": "PRES_AUD", "word": "award", "wordID": 62, "conditions": [12, 1600, "a", 12000], "trial": 6, "serialpos": 4, "trial_type": "single-audio", "trial_index": 229, "time_elapsed": 1603880, "internal_node_id": "0.0-166.0"}}, {"uniqueid": "MTK0340:3U088ZLJVL0XOUMX25SP3QT90PG0WM", "current_trial": 230, "dateTime": 1510722216640, "trialdata": {"rt": -1000, "stimulus": "/static/audio/wordpool/BEAST.wav", "key_press": -1, "type": "PRES_AUD", "word": "beast", "wordID": 107, "conditions": [12, 1600, "a", 12000], "trial": 6, "serialpos": 5, "trial_type": "single-audio", "trial_index": 230, "time_elapsed": 1606377, "internal_node_id": "0.0-167.0"}}, {"uniqueid": "MTK0340:3U088ZLJVL0XOUMX25SP3QT90PG0WM", "current_trial": 231, "dateTime": 1510722219278, "trialdata": {"rt": -1000, "stimulus": "/static/audio/wordpool/CREATURE.wav", "key_press": -1, "type": "PRES_AUD", "word": "creature", "wordID": 402, "conditions": [12, 1600, "a", 12000], "trial": 6, "serialpos": 6, "trial_type": "single-audio", "trial_index": 231, "time_elapsed": 1609015, "internal_node_id": "0.0-168.0"}}, {"uniqueid": "MTK0340:3U088ZLJVL0XOUMX25SP3QT90PG0WM", "current_trial": 232, "dateTime": 1510722221883, "trialdata": {"rt": -1000, "stimulus": "/static/audio/wordpool/PEANUT.wav", "key_press": -1, "type": "PRES_AUD", "word": "peanut", "wordID": 1031, "conditions": [12, 1600, "a", 12000], "trial": 6, "serialpos": 7, "trial_type": "single-audio", "trial_index": 232, "time_elapsed": 1611620, "internal_node_id": "0.0-169.0"}}, {"uniqueid": "MTK0340:3U088ZLJVL0XOUMX25SP3QT90PG0WM", "current_trial": 233, "dateTime": 1510722224563, "trialdata": {"rt": -1000, "stimulus": "/static/audio/wordpool/COOK.wav", "key_press": -1, "type": "PRES_AUD", "word": "cook", "wordID": 371, "conditions": [12, 1600, "a", 12000], "trial": 6, "serialpos": 8, "trial_type": "single-audio", "trial_index": 233, "time_elapsed": 1614300, "internal_node_id": "0.0-170.0"}}, {"uniqueid": "MTK0340:3U088ZLJVL0XOUMX25SP3QT90PG0WM", "current_trial": 234, "dateTime": 1510722227018, "trialdata": {"rt": -1000, "stimulus": "/static/audio/wordpool/SISTER.wav", "key_press": -1, "type": "PRES_AUD", "word": "sister", "wordID": 1311, "conditions": [12, 1600, "a", 12000], "trial": 6, "serialpos": 9, "trial_type": "single-audio", "trial_index": 234, "time_elapsed": 1616755, "internal_node_id": "0.0-171.0"}}, {"uniqueid": "MTK0340:3U088ZLJVL0XOUMX25SP3QT90PG0WM", "current_trial": 235, "dateTime": 1510722229651, "trialdata": {"rt": -1000, "stimulus": "/static/audio/wordpool/NOMAD.wav", "key_press": -1, "type": "PRES_AUD", "word": "nomad", "wordID": 954, "conditions": [12, 1600, "a", 12000], "trial": 6, "serialpos": 10, "trial_type": "single-audio", "trial_index": 235, "time_elapsed": 1619387, "internal_node_id": "0.0-172.0"}}, {"uniqueid": "MTK0340:3U088ZLJVL0XOUMX25SP3QT90PG0WM", "current_trial": 236, "dateTime": 1510722232160, "trialdata": {"rt": -1000, "stimulus": "/static/audio/wordpool/TROUT.wav", "key_press": -1, "type": "PRES_AUD", "word": "trout", "wordID": 1510, "conditions": [12, 1600, "a", 12000], "trial": 6, "serialpos": 11, "trial_type": "single-audio", "trial_index": 236, "time_elapsed": 1621897, "internal_node_id": "0.0-173.0"}}, {"uniqueid": "MTK0340:3U088ZLJVL0XOUMX25SP3QT90PG0WM", "current_trial": 237, "dateTime": 1510722233420, "trialdata": {"rt": -1, "stimulus": "", "key_press": -1, "type": "PRE_RECALL_DELAY", "trial_type": "single-stim", "trial_index": 237, "time_elapsed": 1623156, "internal_node_id": "0.0-174.0-0.0"}}, {"uniqueid": "MTK0340:3U088ZLJVL0XOUMX25SP3QT90PG0WM", "current_trial": 238, "dateTime": 1510722233921, "trialdata": {"rt": -1000, "stimulus": "/static/audio/400Hz.wav", "key_press": -1, "type": "PRE_RECALL_ALERT", "trial_type": "single-audio", "trial_index": 238, "time_elapsed": 1623658, "internal_node_id": "0.0-175.0"}}, {"uniqueid": "MTK0340:3U088ZLJVL0XOUMX25SP3QT90PG0WM", "current_trial": 239, "dateTime": 1510722293932, "trialdata": {"rt": [], "recwords": [], "type": "FREE_RECALL", "conditions": [12, 1600, "a", 12000], "trial": 6, "trial_type": "free-recall", "trial_index": 239, "time_elapsed": 1683661, "internal_node_id": "0.0-176.0-0.0"}}, {"uniqueid": "MTK0340:3U088ZLJVL0XOUMX25SP3QT90PG0WM", "current_trial": 240, "dateTime": 1510722298938, "trialdata": {"rt": 3005, "key_press": 32, "type": "INSTRUCTIONS", "trial_type": "text", "trial_index": 240, "time_elapsed": 1688675, "internal_node_id": "0.0-177.0"}}, {"uniqueid": "MTK0340:3U088ZLJVL0XOUMX25SP3QT90PG0WM", "current_trial": 241, "dateTime": 1510722312940, "trialdata": {"rt": [3208, 5468, 10441], "responses": ["24", "11", "12"], "num1": [7, 5, 4, 5], "num2": [9, 4, 7, 4], "num3": [8, 2, 9, 9], "type": "DISTRACTOR", "conditions": [12, 800, "a", 12000], "trial": 7, "trial_type": "math-distractor", "trial_index": 241, "time_elapsed": 1702677, "internal_node_id": "0.0-178.0"}}, {"uniqueid": "MTK0340:3U088ZLJVL0XOUMX25SP3QT90PG0WM", "current_trial": 242, "dateTime": 1510722315943, "trialdata": {"rt": -1, "stimulus": "<p id=\"stim\">10</p>", "key_press": -1, "trial_type": "single-stim", "trial_index": 242, "time_elapsed": 1705680, "internal_node_id": "0.0-179.0-0.0"}}, {"uniqueid": "MTK0340:3U088ZLJVL0XOUMX25SP3QT90PG0WM", "current_trial": 243, "dateTime": 1510722316943, "trialdata": {"rt": -1, "stimulus": "<p id=\"stim\">9</p>", "key_press": -1, "trial_type": "single-stim", "trial_index": 243, "time_elapsed": 1706680, "internal_node_id": "0.0-179.0-1.0"}}, {"uniqueid": "MTK0340:3U088ZLJVL0XOUMX25SP3QT90PG0WM", "current_trial": 244, "dateTime": 1510722317946, "trialdata": {"rt": -1, "stimulus": "<p id=\"stim\">8</p>", "key_press": -1, "trial_type": "single-stim", "trial_index": 244, "time_elapsed": 1707683, "internal_node_id": "0.0-179.0-2.0"}}, {"uniqueid": "MTK0340:3U088ZLJVL0XOUMX25SP3QT90PG0WM", "current_trial": 245, "dateTime": 1510722318949, "trialdata": {"rt": -1, "stimulus": "<p id=\"stim\">7</p>", "key_press": -1, "trial_type": "single-stim", "trial_index": 245, "time_elapsed": 1708684, "internal_node_id": "0.0-179.0-3.0"}}, {"uniqueid": "MTK0340:3U088ZLJVL0XOUMX25SP3QT90PG0WM", "current_trial": 246, "dateTime": 1510722319950, "trialdata": {"rt": -1, "stimulus": "<p id=\"stim\">6</p>", "key_press": -1, "trial_type": "single-stim", "trial_index": 246, "time_elapsed": 1709686, "internal_node_id": "0.0-179.0-4.0"}}, {"uniqueid": "MTK0340:3U088ZLJVL0XOUMX25SP3QT90PG0WM", "current_trial": 247, "dateTime": 1510722320951, "trialdata": {"rt": -1, "stimulus": "<p id=\"stim\">5</p>", "key_press": -1, "trial_type": "single-stim", "trial_index": 247, "time_elapsed": 1710688, "internal_node_id": "0.0-179.0-5.0"}}, {"uniqueid": "MTK0340:3U088ZLJVL0XOUMX25SP3QT90PG0WM", "current_trial": 248, "dateTime": 1510722321952, "trialdata": {"rt": -1, "stimulus": "<p id=\"stim\">4</p>", "key_press": -1, "trial_type": "single-stim", "trial_index": 248, "time_elapsed": 1711689, "internal_node_id": "0.0-179.0-6.0"}}, {"uniqueid": "MTK0340:3U088ZLJVL0XOUMX25SP3QT90PG0WM", "current_trial": 249, "dateTime": 1510722322953, "trialdata": {"rt": -1, "stimulus": "<p id=\"stim\">3</p>", "key_press": -1, "trial_type": "single-stim", "trial_index": 249, "time_elapsed": 1712690, "internal_node_id": "0.0-179.0-7.0"}}, {"uniqueid": "MTK0340:3U088ZLJVL0XOUMX25SP3QT90PG0WM", "current_trial": 250, "dateTime": 1510722323954, "trialdata": {"rt": -1, "stimulus": "<p id=\"stim\">2</p>", "key_press": -1, "trial_type": "single-stim", "trial_index": 250, "time_elapsed": 1713691, "internal_node_id": "0.0-179.0-8.0"}}, {"uniqueid": "MTK0340:3U088ZLJVL0XOUMX25SP3QT90PG0WM", "current_trial": 251, "dateTime": 1510722324955, "trialdata": {"rt": -1, "stimulus": "<p id=\"stim\">1</p>", "key_press": -1, "trial_type": "single-stim", "trial_index": 251, "time_elapsed": 1714692, "internal_node_id": "0.0-179.0-9.0"}}, {"uniqueid": "MTK0340:3U088ZLJVL0XOUMX25SP3QT90PG0WM", "current_trial": 252, "dateTime": 1510722326456, "trialdata": {"rt": -1, "stimulus": "<p id=\"stim\">+</p>", "key_press": -1, "type": "FIXATION", "trial_type": "single-stim", "trial_index": 252, "time_elapsed": 1716193, "internal_node_id": "0.0-180.0-0.0"}}, {"uniqueid": "MTK0340:3U088ZLJVL0XOUMX25SP3QT90PG0WM", "current_trial": 253, "dateTime": 1510722328246, "trialdata": {"rt": -1000, "stimulus": "/static/audio/wordpool/CLAM.wav", "key_press": -1, "type": "PRES_AUD", "word": "clam", "wordID": 314, "conditions": [12, 800, "a", 12000], "trial": 7, "serialpos": 0, "trial_type": "single-audio", "trial_index": 253, "time_elapsed": 1717983, "internal_node_id": "0.0-181.0"}}, {"uniqueid": "MTK0340:3U088ZLJVL0XOUMX25SP3QT90PG0WM", "current_trial": 254, "dateTime": 1510722330019, "trialdata": {"rt": -1000, "stimulus": "/static/audio/wordpool/SHRUB.wav", "key_press": -1, "type": "PRES_AUD", "word": "shrub", "wordID": 1298, "conditions": [12, 800, "a", 12000], "trial": 7, "serialpos": 1, "trial_type": "single-audio", "trial_index": 254, "time_elapsed": 1719756, "internal_node_id": "0.0-182.0"}}, {"uniqueid": "MTK0340:3U088ZLJVL0XOUMX25SP3QT90PG0WM", "current_trial": 255, "dateTime": 1510722331866, "trialdata": {"rt": -1000, "stimulus": "/static/audio/wordpool/PASTA.wav", "key_press": -1, "type": "PRES_AUD", "word": "pasta", "wordID": 1020, "conditions": [12, 800, "a", 12000], "trial": 7, "serialpos": 2, "trial_type": "single-audio", "trial_index": 255, "time_elapsed": 1721602, "internal_node_id": "0.0-183.0"}}, {"uniqueid": "MTK0340:3U088ZLJVL0XOUMX25SP3QT90PG0WM", "current_trial": 256, "dateTime": 1510722333625, "trialdata": {"rt": -1000, "stimulus": "/static/audio/wordpool/PARSLEY.wav", "key_press": -1, "type": "PRES_AUD", "word": "parsley", "wordID": 1015, "conditions": [12, 800, "a", 12000], "trial": 7, "serialpos": 3, "trial_type": "single-audio", "trial_index": 256, "time_elapsed": 1723362, "internal_node_id": "0.0-184.0"}}, {"uniqueid": "MTK0340:3U088ZLJVL0XOUMX25SP3QT90PG0WM", "current_trial": 257, "dateTime": 1510722335409, "trialdata": {"rt": -1000, "stimulus": "/static/audio/wordpool/LEADER.wav", "key_press": -1, "type": "PRES_AUD", "word": "leader", "wordID": 806, "conditions": [12, 800, "a", 12000], "trial": 7, "serialpos": 4, "trial_type": "single-audio", "trial_index": 257, "time_elapsed": 1725146, "internal_node_id": "0.0-185.0"}}, {"uniqueid": "MTK0340:3U088ZLJVL0XOUMX25SP3QT90PG0WM", "current_trial": 258, "dateTime": 1510722337109, "trialdata": {"rt": -1000, "stimulus": "/static/audio/wordpool/FOREHEAD.wav", "key_press": -1, "type": "PRES_AUD", "word": "forehead", "wordID": 591, "conditions": [12, 800, "a", 12000], "trial": 7, "serialpos": 5, "trial_type": "single-audio", "trial_index": 258, "time_elapsed": 1726846, "internal_node_id": "0.0-186.0"}}, {"uniqueid": "MTK0340:3U088ZLJVL0XOUMX25SP3QT90PG0WM", "current_trial": 259, "dateTime": 1510722339011, "trialdata": {"rt": -1000, "stimulus": "/static/audio/wordpool/HOOK.wav", "key_press": -1, "type": "PRES_AUD", "word": "hook", "wordID": 714, "conditions": [12, 800, "a", 12000], "trial": 7, "serialpos": 6, "trial_type": "single-audio", "trial_index": 259, "time_elapsed": 1728748, "internal_node_id": "0.0-187.0"}}, {"uniqueid": "MTK0340:3U088ZLJVL0XOUMX25SP3QT90PG0WM", "current_trial": 260, "dateTime": 1510722340940, "trialdata": {"rt": -1000, "stimulus": "/static/audio/wordpool/BANKER.wav", "key_press": -1, "type": "PRES_AUD", "word": "banker", "wordID": 83, "conditions": [12, 800, "a", 12000], "trial": 7, "serialpos": 7, "trial_type": "single-audio", "trial_index": 260, "time_elapsed": 1730677, "internal_node_id": "0.0-188.0"}}, {"uniqueid": "MTK0340:3U088ZLJVL0XOUMX25SP3QT90PG0WM", "current_trial": 261, "dateTime": 1510722342734, "trialdata": {"rt": -1000, "stimulus": "/static/audio/wordpool/STATUE.wav", "key_press": -1, "type": "PRES_AUD", "word": "statue", "wordID": 1373, "conditions": [12, 800, "a", 12000], "trial": 7, "serialpos": 8, "trial_type": "single-audio", "trial_index": 261, "time_elapsed": 1732471, "internal_node_id": "0.0-189.0"}}, {"uniqueid": "MTK0340:3U088ZLJVL0XOUMX25SP3QT90PG0WM", "current_trial": 262, "dateTime": 1510722344667, "trialdata": {"rt": -1000, "stimulus": "/static/audio/wordpool/EUROPE.wav", "key_press": -1, "type": "PRES_AUD", "word": "europe", "wordID": 540, "conditions": [12, 800, "a", 12000], "trial": 7, "serialpos": 9, "trial_type": "single-audio", "trial_index": 262, "time_elapsed": 1734404, "internal_node_id": "0.0-190.0"}}, {"uniqueid": "MTK0340:3U088ZLJVL0XOUMX25SP3QT90PG0WM", "current_trial": 263, "dateTime": 1510722346601, "trialdata": {"rt": -1000, "stimulus": "/static/audio/wordpool/MISTER.wav", "key_press": -1, "type": "PRES_AUD", "word": "mister", "wordID": 900, "conditions": [12, 800, "a", 12000], "trial": 7, "serialpos": 10, "trial_type": "single-audio", "trial_index": 263, "time_elapsed": 1736338, "internal_node_id": "0.0-191.0"}}, {"uniqueid": "MTK0340:3U088ZLJVL0XOUMX25SP3QT90PG0WM", "current_trial": 264, "dateTime": 1510722348297, "trialdata": {"rt": -1000, "stimulus": "/static/audio/wordpool/GARDEN.wav", "key_press": -1, "type": "PRES_AUD", "word": "garden", "wordID": 622, "conditions": [12, 800, "a", 12000], "trial": 7, "serialpos": 11, "trial_type": "single-audio", "trial_index": 264, "time_elapsed": 1738034, "internal_node_id": "0.0-192.0"}}, {"uniqueid": "MTK0340:3U088ZLJVL0XOUMX25SP3QT90PG0WM", "current_trial": 265, "dateTime": 1510722349654, "trialdata": {"rt": -1, "stimulus": "", "key_press": -1, "type": "PRE_RECALL_DELAY", "trial_type": "single-stim", "trial_index": 265, "time_elapsed": 1739391, "internal_node_id": "0.0-193.0-0.0"}}, {"uniqueid": "MTK0340:3U088ZLJVL0XOUMX25SP3QT90PG0WM", "current_trial": 266, "dateTime": 1510722350155, "trialdata": {"rt": -1000, "stimulus": "/static/audio/400Hz.wav", "key_press": -1, "type": "PRE_RECALL_ALERT", "trial_type": "single-audio", "trial_index": 266, "time_elapsed": 1739891, "internal_node_id": "0.0-194.0"}}, {"uniqueid": "MTK0340:3U088ZLJVL0XOUMX25SP3QT90PG0WM", "current_trial": 267, "dateTime": 1510722410166, "trialdata": {"rt": [2337, 4177, 6332, 7616], "recwords": ["garden", "mister", "anchor", "hook"], "type": "FREE_RECALL", "conditions": [12, 800, "a", 12000], "trial": 7, "trial_type": "free-recall", "trial_index": 267, "time_elapsed": 1799895, "internal_node_id": "0.0-195.0-0.0"}}, {"uniqueid": "MTK0340:3U088ZLJVL0XOUMX25SP3QT90PG0WM", "current_trial": 268, "dateTime": 1510722414224, "trialdata": {"rt": 2055, "key_press": 32, "type": "INSTRUCTIONS", "trial_type": "text", "trial_index": 268, "time_elapsed": 1803959, "internal_node_id": "0.0-196.0"}}, {"uniqueid": "MTK0340:3U088ZLJVL0XOUMX25SP3QT90PG0WM", "current_trial": 269, "dateTime": 1510722440227, "trialdata": {"rt": [3982, 5914, 8846, 10452, 14864, 17125, 22308], "responses": ["16", "11", "23", "11", "15", "8", "20"], "num1": [7, 6, 9, 1, 8, 2, 7, 4], "num2": [2, 1, 9, 9, 5, 5, 5, 8], "num3": [6, 4, 6, 1, 2, 2, 8, 4], "type": "DISTRACTOR", "conditions": [12, 1600, "a", 24000], "trial": 8, "trial_type": "math-distractor", "trial_index": 269, "time_elapsed": 1829964, "internal_node_id": "0.0-197.0"}}, {"uniqueid": "MTK0340:3U088ZLJVL0XOUMX25SP3QT90PG0WM", "current_trial": 270, "dateTime": 1510722443229, "trialdata": {"rt": -1, "stimulus": "<p id=\"stim\">10</p>", "key_press": -1, "trial_type": "single-stim", "trial_index": 270, "time_elapsed": 1832966, "internal_node_id": "0.0-198.0-0.0"}}, {"uniqueid": "MTK0340:3U088ZLJVL0XOUMX25SP3QT90PG0WM", "current_trial": 271, "dateTime": 1510722444230, "trialdata": {"rt": -1, "stimulus": "<p id=\"stim\">9</p>", "key_press": -1, "trial_type": "single-stim", "trial_index": 271, "time_elapsed": 1833967, "internal_node_id": "0.0-198.0-1.0"}}, {"uniqueid": "MTK0340:3U088ZLJVL0XOUMX25SP3QT90PG0WM", "current_trial": 272, "dateTime": 1510722445232, "trialdata": {"rt": -1, "stimulus": "<p id=\"stim\">8</p>", "key_press": -1, "trial_type": "single-stim", "trial_index": 272, "time_elapsed": 1834969, "internal_node_id": "0.0-198.0-2.0"}}, {"uniqueid": "MTK0340:3U088ZLJVL0XOUMX25SP3QT90PG0WM", "current_trial": 273, "dateTime": 1510722446233, "trialdata": {"rt": -1, "stimulus": "<p id=\"stim\">7</p>", "key_press": -1, "trial_type": "single-stim", "trial_index": 273, "time_elapsed": 1835970, "internal_node_id": "0.0-198.0-3.0"}}, {"uniqueid": "MTK0340:3U088ZLJVL0XOUMX25SP3QT90PG0WM", "current_trial": 274, "dateTime": 1510722447235, "trialdata": {"rt": -1, "stimulus": "<p id=\"stim\">6</p>", "key_press": -1, "trial_type": "single-stim", "trial_index": 274, "time_elapsed": 1836972, "internal_node_id": "0.0-198.0-4.0"}}, {"uniqueid": "MTK0340:3U088ZLJVL0XOUMX25SP3QT90PG0WM", "current_trial": 275, "dateTime": 1510722448236, "trialdata": {"rt": -1, "stimulus": "<p id=\"stim\">5</p>", "key_press": -1, "trial_type": "single-stim", "trial_index": 275, "time_elapsed": 1837973, "internal_node_id": "0.0-198.0-5.0"}}, {"uniqueid": "MTK0340:3U088ZLJVL0XOUMX25SP3QT90PG0WM", "current_trial": 276, "dateTime": 1510722449239, "trialdata": {"rt": -1, "stimulus": "<p id=\"stim\">4</p>", "key_press": -1, "trial_type": "single-stim", "trial_index": 276, "time_elapsed": 1838976, "internal_node_id": "0.0-198.0-6.0"}}, {"uniqueid": "MTK0340:3U088ZLJVL0XOUMX25SP3QT90P