{"condition": 0, "counterbalance": 836, "assignmentId": "3OS46CRSLG6FNG87EK3AQPKM59NV6A", "workerId": "MTK0222", "hitId": "304QEQWKZPRNW1F1LHWDXCK3JN5O0X", "currenttrial": 625, "bonus": 0, "data": [{"uniqueid": "MTK0222:3OS46CRSLG6FNG87EK3AQPKM59NV6A", "current_trial": 0, "dateTime": 1509564290000, "trialdata": {"rt": 1523, "key_press": 32, "type": "INSTRUCTIONS", "trial_type": "text", "trial_index": 0, "time_elapsed": 1530, "internal_node_id": "0.0-0.0"}}, {"uniqueid": "MTK0222:3OS46CRSLG6FNG87EK3AQPKM59NV6A", "current_trial": 1, "dateTime": 1509564290473, "trialdata": {"rt": 469, "key_press": 32, "type": "INSTRUCTIONS", "trial_type": "text", "trial_index": 1, "time_elapsed": 2003, "internal_node_id": "0.0-1.0"}}, {"uniqueid": "MTK0222:3OS46CRSLG6FNG87EK3AQPKM59NV6A", "current_trial": 2, "dateTime": 1509564293429, "trialdata": {"rt": [2944], "responses": ["ocean"], "type": "AUDIO_TEST", "trial_type": "audio-test", "trial_index": 2, "time_elapsed": 4960, "internal_node_id": "0.0-2.0"}}, {"uniqueid": "MTK0222:3OS46CRSLG6FNG87EK3AQPKM59NV6A", "current_trial": 3, "dateTime": 1509564297089, "trialdata": {"rt": [3657], "responses": ["crystal"], "type": "AUDIO_TEST", "trial_type": "audio-test", "trial_index": 3, "time_elapsed": 8620, "internal_node_id": "0.0-3.0"}}, {"uniqueid": "MTK0222:3OS46CRSLG6FNG87EK3AQPKM59NV6A", "current_trial": 4, "dateTime": 1509564300109, "trialdata": {"rt": [3018], "responses": ["spice"], "type": "AUDIO_TEST", "trial_type": "audio-test", "trial_index": 4, "time_elapsed": 11640, "internal_node_id": "0.0-4.0"}}, {"uniqueid": "MTK0222:3OS46CRSLG6FNG87EK3AQPKM59NV6A", "current_trial": 5, "dateTime": 1509564301493, "trialdata": {"rt": 632, "key_press": 32, "type": "INSTRUCTIONS", "trial_type": "text", "trial_index": 5, "time_elapsed": 13024, "internal_node_id": "0.0-5.0"}}, {"uniqueid": "MTK0222:3OS46CRSLG6FNG87EK3AQPKM59NV6A", "current_trial": 6, "dateTime": 1509564336276, "trialdata": {"rt": 34781, "key_press": 32, "type": "INSTRUCTIONS", "trial_type": "text", "trial_index": 6, "time_elapsed": 47806, "internal_node_id": "0.0-6.0"}}, {"uniqueid": "MTK0222:3OS46CRSLG6FNG87EK3AQPKM59NV6A", "current_trial": 7, "dateTime": 1509564345739, "trialdata": {"rt": 9462, "key_press": 32, "type": "INSTRUCTIONS", "trial_type": "text", "trial_index": 7, "time_elapsed": 57270, "internal_node_id": "0.0-7.0"}}, {"uniqueid": "MTK0222:3OS46CRSLG6FNG87EK3AQPKM59NV6A", "current_trial": 8, "dateTime": 1509564349127, "trialdata": {"rt": 3386, "key_press": 32, "type": "INSTRUCTIONS", "trial_type": "text", "trial_index": 8, "time_elapsed": 60657, "internal_node_id": "0.0-8.0"}}, {"uniqueid": "MTK0222:3OS46CRSLG6FNG87EK3AQPKM59NV6A", "current_trial": 9, "dateTime": 1509564368132, "trialdata": {"rt": [4095, 8708, 15357], "responses": ["8", "12", "16"], "num1": [2, 3, 8, 6], "num2": [5, 1, 5, 7], "num3": [1, 7, 3, 9], "type": "DISTRACTOR", "conditions": [18, 1200, "v", 18000], "trial": 0, "trial_type": "math-distractor", "trial_index": 9, "time_elapsed": 79663, "internal_node_id": "0.0-9.0"}}, {"uniqueid": "MTK0222:3OS46CRSLG6FNG87EK3AQPKM59NV6A", "current_trial": 10, "dateTime": 1509564371138, "trialdata": {"rt": -1, "stimulus": "<p id=\"stim\">10</p>", "key_press": -1, "trial_type": "single-stim", "trial_index": 10, "time_elapsed": 82669, "internal_node_id": "0.0-10.0-0.0"}}, {"uniqueid": "MTK0222:3OS46CRSLG6FNG87EK3AQPKM59NV6A", "current_trial": 11, "dateTime": 1509564372141, "trialdata": {"rt": -1, "stimulus": "<p id=\"stim\">9</p>", "key_press": -1, "trial_type": "single-stim", "trial_index": 11, "time_elapsed": 83672, "internal_node_id": "0.0-10.0-1.0"}}, {"uniqueid": "MTK0222:3OS46CRSLG6FNG87EK3AQPKM59NV6A", "current_trial": 12, "dateTime": 1509564373144, "trialdata": {"rt": -1, "stimulus": "<p id=\"stim\">8</p>", "key_press": -1, "trial_type": "single-stim", "trial_index": 12, "time_elapsed": 84675, "internal_node_id": "0.0-10.0-2.0"}}, {"uniqueid": "MTK0222:3OS46CRSLG6FNG87EK3AQPKM59NV6A", "current_trial": 13, "dateTime": 1509564374146, "trialdata": {"rt": -1, "stimulus": "<p id=\"stim\">7</p>", "key_press": -1, "trial_type": "single-stim", "trial_index": 13, "time_elapsed": 85677, "internal_node_id": "0.0-10.0-3.0"}}, {"uniqueid": "MTK0222:3OS46CRSLG6FNG87EK3AQPKM59NV6A", "current_trial": 14, "dateTime": 1509564375148, "trialdata": {"rt": -1, "stimulus": "<p id=\"stim\">6</p>", "key_press": -1, "trial_type": "single-stim", "trial_index": 14, "time_elapsed": 86679, "internal_node_id": "0.0-10.0-4.0"}}, {"uniqueid": "MTK0222:3OS46CRSLG6FNG87EK3AQPKM59NV6A", "current_trial": 15, "dateTime": 1509564376151, "trialdata": {"rt": -1, "stimulus": "<p id=\"stim\">5</p>", "key_press": -1, "trial_type": "single-stim", "trial_index": 15, "time_elapsed": 87682, "internal_node_id": "0.0-10.0-5.0"}}, {"uniqueid": "MTK0222:3OS46CRSLG6FNG87EK3AQPKM59NV6A", "current_trial": 16, "dateTime": 1509564377154, "trialdata": {"rt": -1, "stimulus": "<p id=\"stim\">4</p>", "key_press": -1, "trial_type": "single-stim", "trial_index": 16, "time_elapsed": 88685, "internal_node_id": "0.0-10.0-6.0"}}, {"uniqueid": "MTK0222:3OS46CRSLG6FNG87EK3AQPKM59NV6A", "current_trial": 17, "dateTime": 1509564378156, "trialdata": {"rt": -1, "stimulus": "<p id=\"stim\">3</p>", "key_press": -1, "trial_type": "single-stim", "trial_index": 17, "time_elapsed": 89687, "internal_node_id": "0.0-10.0-7.0"}}, {"uniqueid": "MTK0222:3OS46CRSLG6FNG87EK3AQPKM59NV6A", "current_trial": 18, "dateTime": 1509564379158, "trialdata": {"rt": -1, "stimulus": "<p id=\"stim\">2</p>", "key_press": -1, "trial_type": "single-stim", "trial_index": 18, "time_elapsed": 90688, "internal_node_id": "0.0-10.0-8.0"}}, {"uniqueid": "MTK0222:3OS46CRSLG6FNG87EK3AQPKM59NV6A", "current_trial": 19, "dateTime": 1509564380160, "trialdata": {"rt": -1, "stimulus": "<p id=\"stim\">1</p>", "key_press": -1, "trial_type": "single-stim", "trial_index": 19, "time_elapsed": 91690, "internal_node_id": "0.0-10.0-9.0"}}, {"uniqueid": "MTK0222:3OS46CRSLG6FNG87EK3AQPKM59NV6A", "current_trial": 20, "dateTime": 1509564381663, "trialdata": {"rt": -1, "stimulus": "<p id=\"stim\">+</p>", "key_press": -1, "type": "FIXATION", "trial_type": "single-stim", "trial_index": 20, "time_elapsed": 93193, "internal_node_id": "0.0-11.0-0.0"}}, {"uniqueid": "MTK0222:3OS46CRSLG6FNG87EK3AQPKM59NV6A", "current_trial": 21, "dateTime": 1509564382865, "trialdata": {"rt": -1, "stimulus": "<p id=\"stim\">TROMBONE</p>", "key_press": -1, "type": "PRES_VIS", "word": "trombone", "wordID": 1507, "conditions": [18, 1200, "v", 18000], "trial": 0, "serialpos": 0, "trial_type": "single-stim", "trial_index": 21, "time_elapsed": 94396, "internal_node_id": "0.0-12.0"}}, {"uniqueid": "MTK0222:3OS46CRSLG6FNG87EK3AQPKM59NV6A", "current_trial": 22, "dateTime": 1509564384911, "trialdata": {"rt": -1, "stimulus": "<p id=\"stim\">BUCKET</p>", "key_press": -1, "type": "PRES_VIS", "word": "bucket", "wordID": 183, "conditions": [18, 1200, "v", 18000], "trial": 0, "serialpos": 1, "trial_type": "single-stim", "trial_index": 22, "time_elapsed": 96442, "internal_node_id": "0.0-13.0"}}, {"uniqueid": "MTK0222:3OS46CRSLG6FNG87EK3AQPKM59NV6A", "current_trial": 23, "dateTime": 1509564386928, "trialdata": {"rt": -1, "stimulus": "<p id=\"stim\">GARBAGE</p>", "key_press": -1, "type": "PRES_VIS", "word": "garbage", "wordID": 621, "conditions": [18, 1200, "v", 18000], "trial": 0, "serialpos": 2, "trial_type": "single-stim", "trial_index": 23, "time_elapsed": 98459, "internal_node_id": "0.0-14.0"}}, {"uniqueid": "MTK0222:3OS46CRSLG6FNG87EK3AQPKM59NV6A", "current_trial": 24, "dateTime": 1509564389075, "trialdata": {"rt": -1, "stimulus": "<p id=\"stim\">GIRL</p>", "key_press": -1, "type": "PRES_VIS", "word": "girl", "wordID": 636, "conditions": [18, 1200, "v", 18000], "trial": 0, "serialpos": 3, "trial_type": "single-stim", "trial_index": 24, "time_elapsed": 100605, "internal_node_id": "0.0-15.0"}}, {"uniqueid": "MTK0222:3OS46CRSLG6FNG87EK3AQPKM59NV6A", "current_trial": 25, "dateTime": 1509564391268, "trialdata": {"rt": -1, "stimulus": "<p id=\"stim\">SIDEWALK</p>", "key_press": -1, "type": "PRES_VIS", "word": "sidewalk", "wordID": 1302, "conditions": [18, 1200, "v", 18000], "trial": 0, "serialpos": 4, "trial_type": "single-stim", "trial_index": 25, "time_elapsed": 102798, "internal_node_id": "0.0-16.0"}}, {"uniqueid": "MTK0222:3OS46CRSLG6FNG87EK3AQPKM59NV6A", "current_trial": 26, "dateTime": 1509564393387, "trialdata": {"rt": -1, "stimulus": "<p id=\"stim\">BLENDER</p>", "key_press": -1, "type": "PRES_VIS", "word": "blender", "wordID": 135, "conditions": [18, 1200, "v", 18000], "trial": 0, "serialpos": 5, "trial_type": "single-stim", "trial_index": 26, "time_elapsed": 104918, "internal_node_id": "0.0-17.0"}}, {"uniqueid": "MTK0222:3OS46CRSLG6FNG87EK3AQPKM59NV6A", "current_trial": 27, "dateTime": 1509564395732, "trialdata": {"rt": -1, "stimulus": "<p id=\"stim\">TURNIP</p>", "key_press": -1, "type": "PRES_VIS", "word": "turnip", "wordID": 1520, "conditions": [18, 1200, "v", 18000], "trial": 0, "serialpos": 6, "trial_type": "single-stim", "trial_index": 27, "time_elapsed": 107263, "internal_node_id": "0.0-18.0"}}, {"uniqueid": "MTK0222:3OS46CRSLG6FNG87EK3AQPKM59NV6A", "current_trial": 28, "dateTime": 1509564397965, "trialdata": {"rt": -1, "stimulus": "<p id=\"stim\">SERVER</p>", "key_press": -1, "type": "PRES_VIS", "word": "server", "wordID": 1271, "conditions": [18, 1200, "v", 18000], "trial": 0, "serialpos": 7, "trial_type": "single-stim", "trial_index": 28, "time_elapsed": 109496, "internal_node_id": "0.0-19.0"}}, {"uniqueid": "MTK0222:3OS46CRSLG6FNG87EK3AQPKM59NV6A", "current_trial": 29, "dateTime": 1509564400042, "trialdata": {"rt": -1, "stimulus": "<p id=\"stim\">CANYON</p>", "key_press": -1, "type": "PRES_VIS", "word": "canyon", "wordID": 234, "conditions": [18, 1200, "v", 18000], "trial": 0, "serialpos": 8, "trial_type": "single-stim", "trial_index": 29, "time_elapsed": 111573, "internal_node_id": "0.0-20.0"}}, {"uniqueid": "MTK0222:3OS46CRSLG6FNG87EK3AQPKM59NV6A", "current_trial": 30, "dateTime": 1509564402206, "trialdata": {"rt": -1, "stimulus": "<p id=\"stim\">COCOON</p>", "key_press": -1, "type": "PRES_VIS", "word": "cocoon", "wordID": 338, "conditions": [18, 1200, "v", 18000], "trial": 0, "serialpos": 9, "trial_type": "single-stim", "trial_index": 30, "time_elapsed": 113737, "internal_node_id": "0.0-21.0"}}, {"uniqueid": "MTK0222:3OS46CRSLG6FNG87EK3AQPKM59NV6A", "current_trial": 31, "dateTime": 1509564404314, "trialdata": {"rt": -1, "stimulus": "<p id=\"stim\">ONION</p>", "key_press": -1, "type": "PRES_VIS", "word": "onion", "wordID": 976, "conditions": [18, 1200, "v", 18000], "trial": 0, "serialpos": 10, "trial_type": "single-stim", "trial_index": 31, "time_elapsed": 115844, "internal_node_id": "0.0-22.0"}}, {"uniqueid": "MTK0222:3OS46CRSLG6FNG87EK3AQPKM59NV6A", "current_trial": 32, "dateTime": 1509564406352, "trialdata": {"rt": -1, "stimulus": "<p id=\"stim\">PEBBLE</p>", "key_press": -1, "type": "PRES_VIS", "word": "pebble", "wordID": 1034, "conditions": [18, 1200, "v", 18000], "trial": 0, "serialpos": 11, "trial_type": "single-stim", "trial_index": 32, "time_elapsed": 117883, "internal_node_id": "0.0-23.0"}}, {"uniqueid": "MTK0222:3OS46CRSLG6FNG87EK3AQPKM59NV6A", "current_trial": 33, "dateTime": 1509564408363, "trialdata": {"rt": -1, "stimulus": "<p id=\"stim\">TWEEZERS</p>", "key_press": -1, "type": "PRES_VIS", "word": "tweezers", "wordID": 1525, "conditions": [18, 1200, "v", 18000], "trial": 0, "serialpos": 12, "trial_type": "single-stim", "trial_index": 33, "time_elapsed": 119894, "internal_node_id": "0.0-24.0"}}, {"uniqueid": "MTK0222:3OS46CRSLG6FNG87EK3AQPKM59NV6A", "current_trial": 34, "dateTime": 1509564410457, "trialdata": {"rt": -1, "stimulus": "<p id=\"stim\">YACHT</p>", "key_press": -1, "type": "PRES_VIS", "word": "yacht", "wordID": 1628, "conditions": [18, 1200, "v", 18000], "trial": 0, "serialpos": 13, "trial_type": "single-stim", "trial_index": 34, "time_elapsed": 121987, "internal_node_id": "0.0-25.0"}}, {"uniqueid": "MTK0222:3OS46CRSLG6FNG87EK3AQPKM59NV6A", "current_trial": 35, "dateTime": 1509564412682, "trialdata": {"rt": -1, "stimulus": "<p id=\"stim\">SEAGULL</p>", "key_press": -1, "type": "PRES_VIS", "word": "seagull", "wordID": 1260, "conditions": [18, 1200, "v", 18000], "trial": 0, "serialpos": 14, "trial_type": "single-stim", "trial_index": 35, "time_elapsed": 124213, "internal_node_id": "0.0-26.0"}}, {"uniqueid": "MTK0222:3OS46CRSLG6FNG87EK3AQPKM59NV6A", "current_trial": 36, "dateTime": 1509564415084, "trialdata": {"rt": -1, "stimulus": "<p id=\"stim\">ICING</p>", "key_press": -1, "type": "PRES_VIS", "word": "icing", "wordID": 731, "conditions": [18, 1200, "v", 18000], "trial": 0, "serialpos": 15, "trial_type": "single-stim", "trial_index": 36, "time_elapsed": 126614, "internal_node_id": "0.0-27.0"}}, {"uniqueid": "MTK0222:3OS46CRSLG6FNG87EK3AQPKM59NV6A", "current_trial": 37, "dateTime": 1509564417246, "trialdata": {"rt": -1, "stimulus": "<p id=\"stim\">TOURIST</p>", "key_press": -1, "type": "PRES_VIS", "word": "tourist", "wordID": 1487, "conditions": [18, 1200, "v", 18000], "trial": 0, "serialpos": 16, "trial_type": "single-stim", "trial_index": 37, "time_elapsed": 128776, "internal_node_id": "0.0-28.0"}}, {"uniqueid": "MTK0222:3OS46CRSLG6FNG87EK3AQPKM59NV6A", "current_trial": 38, "dateTime": 1509564419641, "trialdata": {"rt": -1, "stimulus": "<p id=\"stim\">RABBIT</p>", "key_press": -1, "type": "PRES_VIS", "word": "rabbit", "wordID": 1151, "conditions": [18, 1200, "v", 18000], "trial": 0, "serialpos": 17, "trial_type": "single-stim", "trial_index": 38, "time_elapsed": 131172, "internal_node_id": "0.0-29.0"}}, {"uniqueid": "MTK0222:3OS46CRSLG6FNG87EK3AQPKM59NV6A", "current_trial": 39, "dateTime": 1509564422040, "trialdata": {"rt": -1, "stimulus": "", "key_press": -1, "type": "PRE_RECALL_DELAY", "trial_type": "single-stim", "trial_index": 39, "time_elapsed": 133571, "internal_node_id": "0.0-30.0-0.0"}}, {"uniqueid": "MTK0222:3OS46CRSLG6FNG87EK3AQPKM59NV6A", "current_trial": 40, "dateTime": 1509564422545, "trialdata": {"rt": -1000, "stimulus": "/static/audio/400Hz.wav", "key_press": -1, "type": "PRE_RECALL_ALERT", "trial_type": "single-audio", "trial_index": 40, "time_elapsed": 134076, "internal_node_id": "0.0-31.0"}}, {"uniqueid": "MTK0222:3OS46CRSLG6FNG87EK3AQPKM59NV6A", "current_trial": 41, "dateTime": 1509564482557, "trialdata": {"rt": [6887, 8768, 12997, 15926, 16537, 26091, 31683, 50570, 51302, 51771, 52079, 52580, 52610, 52640, 52670, 52700, 52730, 52760, 52790, 52820, 52850, 52881, 52910, 52940, 52971, 53000, 53030, 53060, 53089, 53120, 53150, 53181, 53210, 53240, 53270, 53300, 53329, 53372, 53394, 53433, 53450, 53480, 53509, 53548, 53570, 53600, 53631, 53660, 54687, 54921, 55205, 55429, 55648, 55937, 56366, 57006, 57461, 57866, 58250, 58587, 58894, 59203, 59459, 59748], "recwords": ["trombone", "rabbit", "girl", "server", "", "ball", "tourist", "", "", "", "", "", "", "", "", "", "", "", "", "", "", "", "", "", "", "", "", "", "", "", "", "", "", "", "", "", "", "", "", "", "", "", "", "", "", "", "", "", "", "", "", "", "", "", "", "", "", "", "", "", "", "", "", ""], "type": "FREE_RECALL", "conditions": [18, 1200, "v", 18000], "trial": 0, "trial_type": "free-recall", "trial_index": 41, "time_elapsed": 194083, "internal_node_id": "0.0-32.0-0.0"}}, {"uniqueid": "MTK0222:3OS46CRSLG6FNG87EK3AQPKM59NV6A", "current_trial": 42, "dateTime": 1509564485659, "trialdata": {"rt": 1100, "key_press": 13, "type": "INSTRUCTIONS", "trial_type": "text", "trial_index": 42, "time_elapsed": 197189, "internal_node_id": "0.0-33.0"}}, {"uniqueid": "MTK0222:3OS46CRSLG6FNG87EK3AQPKM59NV6A", "current_trial": 43, "dateTime": 1509564505664, "trialdata": {"rt": [4233, 9924], "responses": ["13", "14"], "num1": [5, 6, 8], "num2": [3, 7, 8], "num3": [4, 1, 7], "type": "DISTRACTOR", "conditions": [18, 1200, "a", 18000], "trial": 1, "trial_type": "math-distractor", "trial_index": 43, "time_elapsed": 217194, "internal_node_id": "0.0-34.0"}}, {"uniqueid": "MTK0222:3OS46CRSLG6FNG87EK3AQPKM59NV6A", "current_trial": 44, "dateTime": 1509564508668, "trialdata": {"rt": -1, "stimulus": "<p id=\"stim\">10</p>", "key_press": -1, "trial_type": "single-stim", "trial_index": 44, "time_elapsed": 220198, "internal_node_id": "0.0-35.0-0.0"}}, {"uniqueid": "MTK0222:3OS46CRSLG6FNG87EK3AQPKM59NV6A", "current_trial": 45, "dateTime": 1509564509670, "trialdata": {"rt": -1, "stimulus": "<p id=\"stim\">9</p>", "key_press": -1, "trial_type": "single-stim", "trial_index": 45, "time_elapsed": 221200, "internal_node_id": "0.0-35.0-1.0"}}, {"uniqueid": "MTK0222:3OS46CRSLG6FNG87EK3AQPKM59NV6A", "current_trial": 46, "dateTime": 1509564510672, "trialdata": {"rt": -1, "stimulus": "<p id=\"stim\">8</p>", "key_press": -1, "trial_type": "single-stim", "trial_index": 46, "time_elapsed": 222202, "internal_node_id": "0.0-35.0-2.0"}}, {"uniqueid": "MTK0222:3OS46CRSLG6FNG87EK3AQPKM59NV6A", "current_trial": 47, "dateTime": 1509564511674, "trialdata": {"rt": -1, "stimulus": "<p id=\"stim\">7</p>", "key_press": -1, "trial_type": "single-stim", "trial_index": 47, "time_elapsed": 223205, "internal_node_id": "0.0-35.0-3.0"}}, {"uniqueid": "MTK0222:3OS46CRSLG6FNG87EK3AQPKM59NV6A", "current_trial": 48, "dateTime": 1509564512676, "trialdata": {"rt": -1, "stimulus": "<p id=\"stim\">6</p>", "key_press": -1, "trial_type": "single-stim", "trial_index": 48, "time_elapsed": 224207, "internal_node_id": "0.0-35.0-4.0"}}, {"uniqueid": "MTK0222:3OS46CRSLG6FNG87EK3AQPKM59NV6A", "current_trial": 49, "dateTime": 1509564513679, "trialdata": {"rt": -1, "stimulus": "<p id=\"stim\">5</p>", "key_press": -1, "trial_type": "single-stim", "trial_index": 49, "time_elapsed": 225209, "internal_node_id": "0.0-35.0-5.0"}}, {"uniqueid": "MTK0222:3OS46CRSLG6FNG87EK3AQPKM59NV6A", "current_trial": 50, "dateTime": 1509564514681, "trialdata": {"rt": -1, "stimulus": "<p id=\"stim\">4</p>", "key_press": -1, "trial_type": "single-stim", "trial_index": 50, "time_elapsed": 226212, "internal_node_id": "0.0-35.0-6.0"}}, {"uniqueid": "MTK0222:3OS46CRSLG6FNG87EK3AQPKM59NV6A", "current_trial": 51, "dateTime": 1509564515683, "trialdata": {"rt": -1, "stimulus": "<p id=\"stim\">3</p>", "key_press": -1, "trial_type": "single-stim", "trial_index": 51, "time_elapsed": 227214, "internal_node_id": "0.0-35.0-7.0"}}, {"uniqueid": "MTK0222:3OS46CRSLG6FNG87EK3AQPKM59NV6A", "current_trial": 52, "dateTime": 1509564516686, "trialdata": {"rt": -1, "stimulus": "<p id=\"stim\">2</p>", "key_press": -1, "trial_type": "single-stim", "trial_index": 52, "time_elapsed": 228217, "internal_node_id": "0.0-35.0-8.0"}}, {"uniqueid": "MTK0222:3OS46CRSLG6FNG87EK3AQPKM59NV6A", "current_trial": 53, "dateTime": 1509564517688, "trialdata": {"rt": -1, "stimulus": "<p id=\"stim\">1</p>", "key_press": -1, "trial_type": "single-stim", "trial_index": 53, "time_elapsed": 229219, "internal_node_id": "0.0-35.0-9.0"}}, {"uniqueid": "MTK0222:3OS46CRSLG6FNG87EK3AQPKM59NV6A", "current_trial": 54, "dateTime": 1509564519190, "trialdata": {"rt": -1, "stimulus": "<p id=\"stim\">+</p>", "key_press": -1, "type": "FIXATION", "trial_type": "single-stim", "trial_index": 54, "time_elapsed": 230720, "internal_node_id": "0.0-36.0-0.0"}}, {"uniqueid": "MTK0222:3OS46CRSLG6FNG87EK3AQPKM59NV6A", "current_trial": 55, "dateTime": 1509564521231, "trialdata": {"rt": -1000, "stimulus": "/static/audio/wordpool/TEACHER.wav", "key_press": -1, "type": "PRES_AUD", "word": "teacher", "wordID": 1439, "conditions": [18, 1200, "a", 18000], "trial": 1, "serialpos": 0, "trial_type": "single-audio", "trial_index": 55, "time_elapsed": 232761, "internal_node_id": "0.0-37.0"}}, {"uniqueid": "MTK0222:3OS46CRSLG6FNG87EK3AQPKM59NV6A", "current_trial": 56, "dateTime": 1509564523462, "trialdata": {"rt": -1000, "stimulus": "/static/audio/wordpool/CRAYON.wav", "key_press": -1, "type": "PRES_AUD", "word": "crayon", "wordID": 400, "conditions": [18, 1200, "a", 18000], "trial": 1, "serialpos": 1, "trial_type": "single-audio", "trial_index": 56, "time_elapsed": 234993, "internal_node_id": "0.0-38.0"}}, {"uniqueid": "MTK0222:3OS46CRSLG6FNG87EK3AQPKM59NV6A", "current_trial": 57, "dateTime": 1509564525571, "trialdata": {"rt": 825.8956916099862, "stimulus": "/static/audio/wordpool/SCARECROW.wav", "key_press": 175, "type": "PRES_AUD", "word": "scarecrow", "wordID": 1244, "conditions": [18, 1200, "a", 18000], "trial": 1, "serialpos": 2, "trial_type": "single-audio", "trial_index": 57, "time_elapsed": 237102, "internal_node_id": "0.0-39.0"}}, {"uniqueid": "MTK0222:3OS46CRSLG6FNG87EK3AQPKM59NV6A", "current_trial": 58, "dateTime": 1509564527678, "trialdata": {"rt": -1000, "stimulus": "/static/audio/wordpool/LOVER.wav", "key_press": -1, "type": "PRES_AUD", "word": "lover", "wordID": 845, "conditions": [18, 1200, "a", 18000], "trial": 1, "serialpos": 3, "trial_type": "single-audio", "trial_index": 58, "time_elapsed": 239209, "internal_node_id": "0.0-40.0"}}, {"uniqueid": "MTK0222:3OS46CRSLG6FNG87EK3AQPKM59NV6A", "current_trial": 59, "dateTime": 1509564529825, "trialdata": {"rt": -1000, "stimulus": "/static/audio/wordpool/SMOG.wav", "key_press": -1, "type": "PRES_AUD", "word": "smog", "wordID": 1329, "conditions": [18, 1200, "a", 18000], "trial": 1, "serialpos": 4, "trial_type": "single-audio", "trial_index": 59, "time_elapsed": 241356, "internal_node_id": "0.0-41.0"}}, {"uniqueid": "MTK0222:3OS46CRSLG6FNG87EK3AQPKM59NV6A", "current_trial": 60, "dateTime": 1509564532156, "trialdata": {"rt": -1000, "stimulus": "/static/audio/wordpool/EAGLE.wav", "key_press": -1, "type": "PRES_AUD", "word": "eagle", "wordID": 511, "conditions": [18, 1200, "a", 18000], "trial": 1, "serialpos": 5, "trial_type": "single-audio", "trial_index": 60, "time_elapsed": 243687, "internal_node_id": "0.0-42.0"}}, {"uniqueid": "MTK0222:3OS46CRSLG6FNG87EK3AQPKM59NV6A", "current_trial": 61, "dateTime": 1509564534485, "trialdata": {"rt": -1000, "stimulus": "/static/audio/wordpool/HAMPER.wav", "key_press": -1, "type": "PRES_AUD", "word": "hamper", "wordID": 681, "conditions": [18, 1200, "a", 18000], "trial": 1, "serialpos": 6, "trial_type": "single-audio", "trial_index": 61, "time_elapsed": 246016, "internal_node_id": "0.0-43.0"}}, {"uniqueid": "MTK0222:3OS46CRSLG6FNG87EK3AQPKM59NV6A", "current_trial": 62, "dateTime": 1509564536502, "trialdata": {"rt": -1000, "stimulus": "/static/audio/wordpool/CLOUD.wav", "key_press": -1, "type": "PRES_AUD", "word": "cloud", "wordID": 327, "conditions": [18, 1200, "a", 18000], "trial": 1, "serialpos": 7, "trial_type": "single-audio", "trial_index": 62, "time_elapsed": 248033, "internal_node_id": "0.0-44.0"}}, {"uniqueid": "MTK0222:3OS46CRSLG6FNG87EK3AQPKM59NV6A", "current_trial": 63, "dateTime": 1509564538559, "trialdata": {"rt": -1000, "stimulus": "/static/audio/wordpool/POSTAGE.wav", "key_press": -1, "type": "PRES_AUD", "word": "postage", "wordID": 1112, "conditions": [18, 1200, "a", 18000], "trial": 1, "serialpos": 8, "trial_type": "single-audio", "trial_index": 63, "time_elapsed": 250090, "internal_node_id": "0.0-45.0"}}, {"uniqueid": "MTK0222:3OS46CRSLG6FNG87EK3AQPKM59NV6A", "current_trial": 64, "dateTime": 1509564540679, "trialdata": {"rt": -1000, "stimulus": "/static/audio/wordpool/WHISKERS.wav", "key_press": -1, "type": "PRES_AUD", "word": "whiskers", "wordID": 1604, "conditions": [18, 1200, "a", 18000], "trial": 1, "serialpos": 9, "trial_type": "single-audio", "trial_index": 64, "time_elapsed": 252210, "internal_node_id": "0.0-46.0"}}, {"uniqueid": "MTK0222:3OS46CRSLG6FNG87EK3AQPKM59NV6A", "current_trial": 65, "dateTime": 1509564542707, "trialdata": {"rt": -1000, "stimulus": "/static/audio/wordpool/SISTER.wav", "key_press": -1, "type": "PRES_AUD", "word": "sister", "wordID": 1311, "conditions": [18, 1200, "a", 18000], "trial": 1, "serialpos": 10, "trial_type": "single-audio", "trial_index": 65, "time_elapsed": 254238, "internal_node_id": "0.0-47.0"}}, {"uniqueid": "MTK0222:3OS46CRSLG6FNG87EK3AQPKM59NV6A", "current_trial": 66, "dateTime": 1509564544938, "trialdata": {"rt": -1000, "stimulus": "/static/audio/wordpool/WIDOW.wav", "key_press": -1, "type": "PRES_AUD", "word": "widow", "wordID": 1607, "conditions": [18, 1200, "a", 18000], "trial": 1, "serialpos": 11, "trial_type": "single-audio", "trial_index": 66, "time_elapsed": 256469, "internal_node_id": "0.0-48.0"}}, {"uniqueid": "MTK0222:3OS46CRSLG6FNG87EK3AQPKM59NV6A", "current_trial": 67, "dateTime": 1509564547260, "trialdata": {"rt": -1000, "stimulus": "/static/audio/wordpool/HONEY.wav", "key_press": -1, "type": "PRES_AUD", "word": "honey", "wordID": 712, "conditions": [18, 1200, "a", 18000], "trial": 1, "serialpos": 12, "trial_type": "single-audio", "trial_index": 67, "time_elapsed": 258791, "internal_node_id": "0.0-49.0"}}, {"uniqueid": "MTK0222:3OS46CRSLG6FNG87EK3AQPKM59NV6A", "current_trial": 68, "dateTime": 1509564549284, "trialdata": {"rt": -1000, "stimulus": "/static/audio/wordpool/LADY.wav", "key_press": -1, "type": "PRES_AUD", "word": "lady", "wordID": 793, "conditions": [18, 1200, "a", 18000], "trial": 1, "serialpos": 13, "trial_type": "single-audio", "trial_index": 68, "time_elapsed": 260810, "internal_node_id": "0.0-50.0"}}, {"uniqueid": "MTK0222:3OS46CRSLG6FNG87EK3AQPKM59NV6A", "current_trial": 69, "dateTime": 1509564551429, "trialdata": {"rt": -1000, "stimulus": "/static/audio/wordpool/OYSTER.wav", "key_press": -1, "type": "PRES_AUD", "word": "oyster", "wordID": 994, "conditions": [18, 1200, "a", 18000], "trial": 1, "serialpos": 14, "trial_type": "single-audio", "trial_index": 69, "time_elapsed": 262960, "internal_node_id": "0.0-51.0"}}, {"uniqueid": "MTK0222:3OS46CRSLG6FNG87EK3AQPKM59NV6A", "current_trial": 70, "dateTime": 1509564553453, "trialdata": {"rt": -1000, "stimulus": "/static/audio/wordpool/CARRIAGE.wav", "key_press": -1, "type": "PRES_AUD", "word": "carriage", "wordID": 247, "conditions": [18, 1200, "a", 18000], "trial": 1, "serialpos": 15, "trial_type": "single-audio", "trial_index": 70, "time_elapsed": 264984, "internal_node_id": "0.0-52.0"}}, {"uniqueid": "MTK0222:3OS46CRSLG6FNG87EK3AQPKM59NV6A", "current_trial": 71, "dateTime": 1509564555710, "trialdata": {"rt": -1000, "stimulus": "/static/audio/wordpool/MATCH.wav", "key_press": -1, "type": "PRES_AUD", "word": "match", "wordID": 877, "conditions": [18, 1200, "a", 18000], "trial": 1, "serialpos": 16, "trial_type": "single-audio", "trial_index": 71, "time_elapsed": 267241, "internal_node_id": "0.0-53.0"}}, {"uniqueid": "MTK0222:3OS46CRSLG6FNG87EK3AQPKM59NV6A", "current_trial": 72, "dateTime": 1509564557861, "trialdata": {"rt": -1000, "stimulus": "/static/audio/wordpool/PADDLE.wav", "key_press": -1, "type": "PRES_AUD", "word": "paddle", "wordID": 999, "conditions": [18, 1200, "a", 18000], "trial": 1, "serialpos": 17, "trial_type": "single-audio", "trial_index": 72, "time_elapsed": 269392, "internal_node_id": "0.0-54.0"}}, {"uniqueid": "MTK0222:3OS46CRSLG6FNG87EK3AQPKM59NV6A", "current_trial": 73, "dateTime": 1509564559252, "trialdata": {"rt": -1, "stimulus": "", "key_press": -1, "type": "PRE_RECALL_DELAY", "trial_type": "single-stim", "trial_index": 73, "time_elapsed": 270782, "internal_node_id": "0.0-55.0-0.0"}}, {"uniqueid": "MTK0222:3OS46CRSLG6FNG87EK3AQPKM59NV6A", "current_trial": 74, "dateTime": 1509564559754, "trialdata": {"rt": -1000, "stimulus": "/static/audio/400Hz.wav", "key_press": -1, "type": "PRE_RECALL_ALERT", "trial_type": "single-audio", "trial_index": 74, "time_elapsed": 271285, "internal_node_id": "0.0-56.0"}}, {"uniqueid": "MTK0222:3OS46CRSLG6FNG87EK3AQPKM59NV6A", "current_trial": 75, "dateTime": 1509564619761, "trialdata": {"rt": [3804, 5209, 6677, 7706, 10446, 12744, 13811, 15301, 17435, 18563, 20988, 21997, 22225, 22426, 22619, 22797, 22994, 23195, 23380, 23582, 23809, 24022, 24227, 24406, 24610, 24823, 25047, 25254, 25571, 26292, 26466, 26641, 26855, 27071, 27274, 27508, 27730, 27961, 28175, 28392, 28612, 28844, 29056, 29291, 29525, 29752, 29996, 30219, 30448, 30681, 30902, 31120, 31341, 31524, 31761, 31989, 32229, 32450, 32682, 32887, 33125, 33337, 33556, 33788, 34010, 34244, 57585], "recwords": ["postage", "paddle", "widow", "sister", "match", "honey", "lady", "oyster", "carriage", "lady", "whiskers", "widow", "", "", "", "", "", "", "", "", "", "", "", "", "", "", "", "", "", "", "", "", "", "", "", "", "", "", "", "", "", "", "", "", "", "", "", "", "", "", "", "", "", "", "", "", "", "", "", "", "", "", "", "", "", "", "paddle"], "type": "FREE_RECALL", "conditions": [18, 1200, "a", 18000], "trial": 1, "trial_type": "free-recall", "trial_index": 75, "time_elapsed": 331288, "internal_node_id": "0.0-57.0-0.0"}}, {"uniqueid": "MTK0222:3OS46CRSLG6FNG87EK3AQPKM59NV6A", "current_trial": 76, "dateTime": 1509564624763, "trialdata": {"rt": 3000, "key_press": 32, "type": "INSTRUCTIONS", "trial_type": "text", "trial_index": 76, "time_elapsed": 336294, "internal_node_id": "0.0-58.0"}}, {"uniqueid": "MTK0222:3OS46CRSLG6FNG87EK3AQPKM59NV6A", "current_trial": 77, "dateTime": 1509564637770, "trialdata": {"rt": [3367, 8150], "responses": ["11", "17"], "num1": [1, 9, 5], "num2": [8, 3, 9], "num3": [2, 5, 1], "type": "DISTRACTOR", "conditions": [12, 800, "v", 12000], "trial": 2, "trial_type": "math-distractor", "trial_index": 77, "time_elapsed": 349301, "internal_node_id": "0.0-59.0"}}, {"uniqueid": "MTK0222:3OS46CRSLG6FNG87EK3AQPKM59NV6A", "current_trial": 78, "dateTime": 1509564640773, "trialdata": {"rt": -1, "stimulus": "<p id=\"stim\">10</p>", "key_press": -1, "trial_type": "single-stim", "trial_index": 78, "time_elapsed": 352304, "internal_node_id": "0.0-60.0-0.0"}}, {"uniqueid": "MTK0222:3OS46CRSLG6FNG87EK3AQPKM59NV6A", "current_trial": 79, "dateTime": 1509564641776, "trialdata": {"rt": -1, "stimulus": "<p id=\"stim\">9</p>", "key_press": -1, "trial_type": "single-stim", "trial_index": 79, "time_elapsed": 353306, "internal_node_id": "0.0-60.0-1.0"}}, {"uniqueid": "MTK0222:3OS46CRSLG6FNG87EK3AQPKM59NV6A", "current_trial": 80, "dateTime": 1509564642778, "trialdata": {"rt": -1, "stimulus": "<p id=\"stim\">8</p>", "key_press": -1, "trial_type": "single-stim", "trial_index": 80, "time_elapsed": 354308, "internal_node_id": "0.0-60.0-2.0"}}, {"uniqueid": "MTK0222:3OS46CRSLG6FNG87EK3AQPKM59NV6A", "current_trial": 81, "dateTime": 1509564643780, "trialdata": {"rt": -1, "stimulus": "<p id=\"stim\">7</p>", "key_press": -1, "trial_type": "single-stim", "trial_index": 81, "time_elapsed": 355311, "internal_node_id": "0.0-60.0-3.0"}}, {"uniqueid": "MTK0222:3OS46CRSLG6FNG87EK3AQPKM59NV6A", "current_trial": 82, "dateTime": 1509564644783, "trialdata": {"rt": -1, "stimulus": "<p id=\"stim\">6</p>", "key_press": -1, "trial_type": "single-stim", "trial_index": 82, "time_elapsed": 356313, "internal_node_id": "0.0-60.0-4.0"}}, {"uniqueid": "MTK0222:3OS46CRSLG6FNG87EK3AQPKM59NV6A", "current_trial": 83, "dateTime": 1509564645785, "trialdata": {"rt": -1, "stimulus": "<p id=\"stim\">5</p>", "key_press": -1, "trial_type": "single-stim", "trial_index": 83, "time_elapsed": 357316, "internal_node_id": "0.0-60.0-5.0"}}, {"uniqueid": "MTK0222:3OS46CRSLG6FNG87EK3AQPKM59NV6A", "current_trial": 84, "dateTime": 1509564646787, "trialdata": {"rt": -1, "stimulus": "<p id=\"stim\">4</p>", "key_press": -1, "trial_type": "single-stim", "trial_index": 84, "time_elapsed": 358318, "internal_node_id": "0.0-60.0-6.0"}}, {"uniqueid": "MTK0222:3OS46CRSLG6FNG87EK3AQPKM59NV6A", "current_trial": 85, "dateTime": 1509564647790, "trialdata": {"rt": -1, "stimulus": "<p id=\"stim\">3</p>", "key_press": -1, "trial_type": "single-stim", "trial_index": 85, "time_elapsed": 359321, "internal_node_id": "0.0-60.0-7.0"}}, {"uniqueid": "MTK0222:3OS46CRSLG6FNG87EK3AQPKM59NV6A", "current_trial": 86, "dateTime": 1509564648792, "trialdata": {"rt": -1, "stimulus": "<p id=\"stim\">2</p>", "key_press": -1, "trial_type": "single-stim", "trial_index": 86, "time_elapsed": 360322, "internal_node_id": "0.0-60.0-8.0"}}, {"uniqueid": "MTK0222:3OS46CRSLG6FNG87EK3AQPKM59NV6A", "current_trial": 87, "dateTime": 1509564649794, "trialdata": {"rt": -1, "stimulus": "<p id=\"stim\">1</p>", "key_press": -1, "trial_type": "single-stim", "trial_index": 87, "time_elapsed": 361324, "internal_node_id": "0.0-60.0-9.0"}}, {"uniqueid": "MTK0222:3OS46CRSLG6FNG87EK3AQPKM59NV6A", "current_trial": 88, "dateTime": 1509564651296, "trialdata": {"rt": -1, "stimulus": "<p id=\"stim\">+</p>", "key_press": -1, "type": "FIXATION", "trial_type": "single-stim", "trial_index": 88, "time_elapsed": 362827, "internal_node_id": "0.0-61.0-0.0"}}, {"uniqueid": "MTK0222:3OS46CRSLG6FNG87EK3AQPKM59NV6A", "current_trial": 89, "dateTime": 1509564652099, "trialdata": {"rt": -1, "stimulus": "<p id=\"stim\">FRAGRANCE</p>", "key_press": -1, "type": "PRES_VIS", "word": "fragrance", "wordID": 598, "conditions": [12, 800, "v", 12000], "trial": 2, "serialpos": 0, "trial_type": "single-stim", "trial_index": 89, "time_elapsed": 363629, "internal_node_id": "0.0-62.0"}}, {"uniqueid": "MTK0222:3OS46CRSLG6FNG87EK3AQPKM59NV6A", "current_trial": 90, "dateTime": 1509564654029, "trialdata": {"rt": -1, "stimulus": "<p id=\"stim\">BOUQUET</p>", "key_press": -1, "type": "PRES_VIS", "word": "bouquet", "wordID": 156, "conditions": [12, 800, "v", 12000], "trial": 2, "serialpos": 1, "trial_type": "single-stim", "trial_index": 90, "time_elapsed": 365560, "internal_node_id": "0.0-63.0"}}, {"uniqueid": "MTK0222:3OS46CRSLG6FNG87EK3AQPKM59NV6A", "current_trial": 91, "dateTime": 1509564655973, "trialdata": {"rt": -1, "stimulus": "<p id=\"stim\">RATTLE</p>", "key_press": -1, "type": "PRES_VIS", "word": "rattle", "wordID": 1169, "conditions": [12, 800, "v", 12000], "trial": 2, "serialpos": 2, "trial_type": "single-stim", "trial_index": 91, "time_elapsed": 367504, "internal_node_id": "0.0-64.0"}}, {"uniqueid": "MTK0222:3OS46CRSLG6FNG87EK3AQPKM59NV6A", "current_trial": 92, "dateTime": 1509564657718, "trialdata": {"rt": -1, "stimulus": "<p id=\"stim\">ANTLER</p>", "key_press": -1, "type": "PRES_VIS", "word": "antler", "wordID": 28, "conditions": [12, 800, "v", 12000], "trial": 2, "serialpos": 3, "trial_type": "single-stim", "trial_index": 92, "time_elapsed": 369246, "internal_node_id": "0.0-65.0"}}, {"uniqueid": "MTK0222:3OS46CRSLG6FNG87EK3AQPKM59NV6A", "current_trial": 93, "dateTime": 1509564659605, "trialdata": {"rt": -1, "stimulus": "<p id=\"stim\">SHIRT</p>", "key_press": -1, "type": "PRES_VIS", "word": "shirt", "wordID": 1286, "conditions": [12, 800, "v", 12000], "trial": 2, "serialpos": 4, "trial_type": "single-stim", "trial_index": 93, "time_elapsed": 371136, "internal_node_id": "0.0-66.0"}}, {"uniqueid": "MTK0222:3OS46CRSLG6FNG87EK3AQPKM59NV6A", "current_trial": 94, "dateTime": 1509564661222, "trialdata": {"rt": -1, "stimulus": "<p id=\"stim\">HAND</p>", "key_press": -1, "type": "PRES_VIS", "word": "hand", "wordID": 682, "conditions": [12, 800, "v", 12000], "trial": 2, "serialpos": 5, "trial_type": "single-stim", "trial_index": 94, "time_elapsed": 372752, "internal_node_id": "0.0-67.0"}}, {"uniqueid": "MTK0222:3OS46CRSLG6FNG87EK3AQPKM59NV6A", "current_trial": 95, "dateTime": 1509564662939, "trialdata": {"rt": -1, "stimulus": "<p id=\"stim\">LABEL</p>", "key_press": -1, "type": "PRES_VIS", "word": "label", "wordID": 789, "conditions": [12, 800, "v", 12000], "trial": 2, "serialpos": 6, "trial_type": "single-stim", "trial_index": 95, "time_elapsed": 374469, "internal_node_id": "0.0-68.0"}}, {"uniqueid": "MTK0222:3OS46CRSLG6FNG87EK3AQPKM59NV6A", "current_trial": 96, "dateTime": 1509564664814, "trialdata": {"rt": -1, "stimulus": "<p id=\"stim\">CUPBOARD</p>", "key_press": -1, "type": "PRES_VIS", "word": "cupboard", "wordID": 424, "conditions": [12, 800, "v", 12000], "trial": 2, "serialpos": 7, "trial_type": "single-stim", "trial_index": 96, "time_elapsed": 376345, "internal_node_id": "0.0-69.0"}}, {"uniqueid": "MTK0222:3OS46CRSLG6FNG87EK3AQPKM59NV6A", "current_trial": 97, "dateTime": 1509564666523, "trialdata": {"rt": -1, "stimulus": "<p id=\"stim\">BEAVER</p>", "key_press": -1, "type": "PRES_VIS", "word": "beaver", "wordID": 108, "conditions": [12, 800, "v", 12000], "trial": 2, "serialpos": 8, "trial_type": "single-stim", "trial_index": 97, "time_elapsed": 378054, "internal_node_id": "0.0-70.0"}}, {"uniqueid": "MTK0222:3OS46CRSLG6FNG87EK3AQPKM59NV6A", "current_trial": 98, "dateTime": 1509564668508, "trialdata": {"rt": -1, "stimulus": "<p id=\"stim\">CHIPMUNK</p>", "key_press": -1, "type": "PRES_VIS", "word": "chipmunk", "wordID": 303, "conditions": [12, 800, "v", 12000], "trial": 2, "serialpos": 9, "trial_type": "single-stim", "trial_index": 98, "time_elapsed": 380039, "internal_node_id": "0.0-71.0"}}, {"uniqueid": "MTK0222:3OS46CRSLG6FNG87EK3AQPKM59NV6A", "current_trial": 99, "dateTime": 1509564670409, "trialdata": {"rt": -1, "stimulus": "<p id=\"stim\">DRESSER</p>", "key_press": -1, "type": "PRES_VIS", "word": "dresser", "wordID": 495, "conditions": [12, 800, "v", 12000], "trial": 2, "serialpos": 10, "trial_type": "single-stim", "trial_index": 99, "time_elapsed": 381940, "internal_node_id": "0.0-72.0"}}, {"uniqueid": "MTK0222:3OS46CRSLG6FNG87EK3AQPKM59NV6A", "current_trial": 100, "dateTime": 1509564672408, "trialdata": {"rt": -1, "stimulus": "<p id=\"stim\">FLASK</p>", "key_press": -1, "type": "PRES_VIS", "word": "flask", "wordID": 575, "conditions": [12, 800, "v", 12000], "trial": 2, "serialpos": 11, "trial_type": "single-stim", "trial_index": 100, "time_elapsed": 383938, "internal_node_id": "0.0-73.0"}}, {"uniqueid": "MTK0222:3OS46CRSLG6FNG87EK3AQPKM59NV6A", "current_trial": 101, "dateTime": 1509564674911, "trialdata": {"rt": -1, "stimulus": "", "key_press": -1, "type": "PRE_RECALL_DELAY", "trial_type": "single-stim", "trial_index": 101, "time_elapsed": 386442, "internal_node_id": "0.0-74.0-0.0"}}, {"uniqueid": "MTK0222:3OS46CRSLG6FNG87EK3AQPKM59NV6A", "current_trial": 102, "dateTime": 1509564675413, "trialdata": {"rt": -1000, "stimulus": "/static/audio/400Hz.wav", "key_press": -1, "type": "PRE_RECALL_ALERT", "trial_type": "single-audio", "trial_index": 102, "time_elapsed": 386944, "internal_node_id": "0.0-75.0"}}, {"uniqueid": "MTK0222:3OS46CRSLG6FNG87EK3AQPKM59NV6A", "current_trial": 103, "dateTime": 1509564735420, "trialdata": {"rt": [3614, 7290, 9515, 13356, 15223, 18331, 19035], "recwords": ["fragrance", "dresser", "flask", "beaver", "rattle", "shirt", "hand"], "type": "FREE_RECALL", "conditions": [12, 800, "v", 12000], "trial": 2, "trial_type": "free-recall", "trial_index": 103, "time_elapsed": 446946, "internal_node_id": "0.0-76.0-0.0"}}, {"uniqueid": "MTK0222:3OS46CRSLG6FNG87EK3AQPKM59NV6A", "current_trial": 104, "dateTime": 1509564738882, "trialdata": {"rt": 1460, "key_press": 32, "type": "INSTRUCTIONS", "trial_type": "text", "trial_index": 104, "time_elapsed": 450413, "internal_node_id": "0.0-77.0"}}, {"uniqueid": "MTK0222:3OS46CRSLG6FNG87EK3AQPKM59NV6A", "current_trial": 105, "dateTime": 1509564764888, "trialdata": {"rt": [4171, 8825, 13806, 18445], "responses": ["14", "18", "18", "24"], "num1": [3, 5, 6, 9, 8], "num2": [7, 4, 5, 6, 4], "num3": [4, 9, 7, 9, 2], "type": "DISTRACTOR", "conditions": [12, 1600, "v", 24000], "trial": 3, "trial_type": "math-distractor", "trial_index": 105, "time_elapsed": 476419, "internal_node_id": "0.0-78.0"}}, {"uniqueid": "MTK0222:3OS46CRSLG6FNG87EK3AQPKM59NV6A", "current_trial": 106, "dateTime": 1509564767892, "trialdata": {"rt": -1, "stimulus": "<p id=\"stim\">10</p>", "key_press": -1, "trial_type": "single-stim", "trial_index": 106, "time_elapsed": 479422, "internal_node_id": "0.0-79.0-0.0"}}, {"uniqueid": "MTK0222:3OS46CRSLG6FNG87EK3AQPKM59NV6A", "current_trial": 107, "dateTime": 1509564768894, "trialdata": {"rt": -1, "stimulus": "<p id=\"stim\">9</p>", "key_press": -1, "trial_type": "single-stim", "trial_index": 107, "time_elapsed": 480424, "internal_node_id": "0.0-79.0-1.0"}}, {"uniqueid": "MTK0222:3OS46CRSLG6FNG87EK3AQPKM59NV6A", "current_trial": 108, "dateTime": 1509564769896, "trialdata": {"rt": -1, "stimulus": "<p id=\"stim\">8</p>", "key_press": -1, "trial_type": "single-stim", "trial_index": 108, "time_elapsed": 481427, "internal_node_id": "0.0-79.0-2.0"}}, {"uniqueid": "MTK0222:3OS46CRSLG6FNG87EK3AQPKM59NV6A", "current_trial": 109, "dateTime": 1509564770898, "trialdata": {"rt": -1, "stimulus": "<p id=\"stim\">7</p>", "key_press": -1, "trial_type": "single-stim", "trial_index": 109, "time_elapsed": 482429, "internal_node_id": "0.0-79.0-3.0"}}, {"uniqueid": "MTK0222:3OS46CRSLG6FNG87EK3AQPKM59NV6A", "current_trial": 110, "dateTime": 1509564771899, "trialdata": {"rt": -1, "stimulus": "<p id=\"stim\">6</p>", "key_press": -1, "trial_type": "single-stim", "trial_index": 110, "time_elapsed": 483430, "internal_node_id": "0.0-79.0-4.0"}}, {"uniqueid": "MTK0222:3OS46CRSLG6FNG87EK3AQPKM59NV6A", "current_trial": 111, "dateTime": 1509564772902, "trialdata": {"rt": -1, "stimulus": "<p id=\"stim\">5</p>", "key_press": -1, "trial_type": "single-stim", "trial_index": 111, "time_elapsed": 484432, "internal_node_id": "0.0-79.0-5.0"}}, {"uniqueid": "MTK0222:3OS46CRSLG6FNG87EK3AQPKM59NV6A", "current_trial": 112, "dateTime": 1509564773904, "trialdata": {"rt": -1, "stimulus": "<p id=\"stim\">4</p>", "key_press": -1, "trial_type": "single-stim", "trial_index": 112, "time_elapsed": 485435, "internal_node_id": "0.0-79.0-6.0"}}, {"uniqueid": "MTK0222:3OS46CRSLG6FNG87EK3AQPKM59NV6A", "current_trial": 113, "dateTime": 1509564774905, "trialdata": {"rt": -1, "stimulus": "<p id=\"stim\">3</p>", "key_press": -1, "trial_type": "single-stim", "trial_index": 113, "time_elapsed": 486436, "internal_node_id": "0.0-79.0-7.0"}}, {"uniqueid": "MTK0222:3OS46CRSLG6FNG87EK3AQPKM59NV6A", "current_trial": 114, "dateTime": 1509564775908, "trialdata": {"rt": -1, "stimulus": "<p id=\"stim\">2</p>", "key_press": -1, "trial_type": "single-stim", "trial_index": 114, "time_elapsed": 487439, "internal_node_id": "0.0-79.0-8.0"}}, {"uniqueid": "MTK0222:3OS46CRSLG6FNG87EK3AQPKM59NV6A", "current_trial": 115, "dateTime": 1509564776911, "trialdata": {"rt": -1, "stimulus": "<p id=\"stim\">1</p>", "key_press": -1, "trial_type": "single-stim", "trial_index": 115, "time_elapsed": 488442, "internal_node_id": "0.0-79.0-9.0"}}, {"uniqueid": "MTK0222:3OS46CRSLG6FNG87EK3AQPKM59NV6A", "current_trial": 116, "dateTime": 1509564778413, "trialdata": {"rt": -1, "stimulus": "<p id=\"stim\">+</p>", "key_press": -1, "type": "FIXATION", "trial_type": "single-stim", "trial_index": 116, "time_elapsed": 489944, "internal_node_id": "0.0-80.0-0.0"}}, {"uniqueid": "MTK0222:3OS46CRSLG6FNG87EK3AQPKM59NV6A", "current_trial": 117, "dateTime": 1509564780015, "trialdata": {"rt": -1, "stimulus": "<p id=\"stim\">FLOWER</p>", "key_press": -1, "type": "PRES_VIS", "word": "flower", "wordID": 583, "conditions": [12, 1600, "v", 24000], "trial": 3, "serialpos": 0, "trial_type": "single-stim", "trial_index": 117, "time_elapsed": 491546, "internal_node_id": "0.0-81.0"}}, {"uniqueid": "MTK0222:3OS46CRSLG6FNG87EK3AQPKM59NV6A", "current_trial": 118, "dateTime": 1509564782525, "trialdata": {"rt": -1, "stimulus": "<p id=\"stim\">SUBWAY</p>", "key_press": -1, "type": "PRES_VIS", "word": "subway", "wordID": 1399, "conditions": [12, 1600, "v", 24000], "trial": 3, "serialpos": 1, "trial_type": "single-stim", "trial_index": 118, "time_elapsed": 494055, "internal_node_id": "0.0-82.0"}}, {"uniqueid": "MTK0222:3OS46CRSLG6FNG87EK3AQPKM59NV6A", "current_trial": 119, "dateTime": 1509564785255, "trialdata": {"rt": -1, "stimulus": "<p id=\"stim\">ROBIN</p>", "key_press": -1, "type": "PRES_VIS", "word": "robin", "wordID": 1198, "conditions": [12, 1600, "v", 24000], "trial": 3, "serialpos": 2, "trial_type": "single-stim", "trial_index": 119, "time_elapsed": 496786, "internal_node_id": "0.0-83.0"}}, {"uniqueid": "MTK0222:3OS46CRSLG6FNG87EK3AQPKM59NV6A", "current_trial": 120, "dateTime": 1509564787802, "trialdata": {"rt": -1, "stimulus": "<p id=\"stim\">FIREPLACE</p>", "key_press": -1, "type": "PRES_VIS", "word": "fireplace", "wordID": 569, "conditions": [12, 1600, "v", 24000], "trial": 3, "serialpos": 3, "trial_type": "single-stim", "trial_index": 120, "time_elapsed": 499333, "internal_node_id": "0.0-84.0"}}, {"uniqueid": "MTK0222:3OS46CRSLG6FNG87EK3AQPKM59NV6A", "current_trial": 121, "dateTime": 1509564790567, "trialdata": {"rt": -1, "stimulus": "<p id=\"stim\">PRIMATE</p>", "key_press": -1, "type": "PRES_VIS", "word": "primate", "wordID": 1122, "conditions": [12, 1600, "v", 24000], "trial": 3, "serialpos": 4, "trial_type": "single-stim", "trial_index": 121, "time_elapsed": 502098, "internal_node_id": "0.0-85.0"}}, {"uniqueid": "MTK0222:3OS46CRSLG6FNG87EK3AQPKM59NV6A", "current_trial": 122, "dateTime": 1509564793123, "trialdata": {"rt": -1, "stimulus": "<p id=\"stim\">NAPKIN</p>", "key_press": -1, "type": "PRES_VIS", "word": "napkin", "wordID": 936, "conditions": [12, 1600, "v", 24000], "trial": 3, "serialpos": 5, "trial_type": "single-stim", "trial_index": 122, "time_elapsed": 504653, "internal_node_id": "0.0-86.0"}}, {"uniqueid": "MTK0222:3OS46CRSLG6FNG87EK3AQPKM59NV6A", "current_trial": 123, "dateTime": 1509564795780, "trialdata": {"rt": -1, "stimulus": "<p id=\"stim\">SPARROW</p>", "key_press": -1, "type": "PRES_VIS", "word": "sparrow", "wordID": 1346, "conditions": [12, 1600, "v", 24000], "trial": 3, "serialpos": 6, "trial_type": "single-stim", "trial_index": 123, "time_elapsed": 507310, "internal_node_id": "0.0-87.0"}}, {"uniqueid": "MTK0222:3OS46CRSLG6FNG87EK3AQPKM59NV6A", "current_trial": 124, "dateTime": 1509564798546, "trialdata": {"rt": -1, "stimulus": "<p id=\"stim\">PUDDING</p>", "key_press": -1, "type": "PRES_VIS", "word": "pudding", "wordID": 1138, "conditions": [12, 1600, "v", 24000], "trial": 3, "serialpos": 7, "trial_type": "single-stim", "trial_index": 124, "time_elapsed": 510077, "internal_node_id": "0.0-88.0"}}, {"uniqueid": "MTK0222:3OS46CRSLG6FNG87EK3AQPKM59NV6A", "current_trial": 125, "dateTime": 1509564801046, "trialdata": {"rt": -1, "stimulus": "<p id=\"stim\">GLASS</p>", "key_press": -1, "type": "PRES_VIS", "word": "glass", "wordID": 638, "conditions": [12, 1600, "v", 24000], "trial": 3, "serialpos": 8, "trial_type": "single-stim", "trial_index": 125, "time_elapsed": 512577, "internal_node_id": "0.0-89.0"}}, {"uniqueid": "MTK0222:3OS46CRSLG6FNG87EK3AQPKM59NV6A", "current_trial": 126, "dateTime": 1509564803747, "trialdata": {"rt": -1, "stimulus": "<p id=\"stim\">HEDGE</p>", "key_press": -1, "type": "PRES_VIS", "word": "hedge", "wordID": 698, "conditions": [12, 1600, "v", 24000], "trial": 3, "serialpos": 9, "trial_type": "single-stim", "trial_index": 126, "time_elapsed": 515278, "internal_node_id": "0.0-90.0"}}, {"uniqueid": "MTK0222:3OS46CRSLG6FNG87EK3AQPKM59NV6A", "current_trial": 127, "dateTime": 1509564806470, "trialdata": {"rt": -1, "stimulus": "<p id=\"stim\">SCALPEL</p>", "key_press": -1, "type": "PRES_VIS", "word": "scalpel", "wordID": 1242, "conditions": [12, 1600, "v", 24000], "trial": 3, "serialpos": 10, "trial_type": "single-stim", "trial_index": 127, "time_elapsed": 518000, "internal_node_id": "0.0-91.0"}}, {"uniqueid": "MTK0222:3OS46CRSLG6FNG87EK3AQPKM59NV6A", "current_trial": 128, "dateTime": 1509564809178, "trialdata": {"rt": -1, "stimulus": "<p id=\"stim\">SCISSORS</p>", "key_press": -1, "type": "PRES_VIS", "word": "scissors", "wordID": 1249, "conditions": [12, 1600, "v", 24000], "trial": 3, "serialpos": 11, "trial_type": "single-stim", "trial_index": 128, "time_elapsed": 520709, "internal_node_id": "0.0-92.0"}}, {"uniqueid": "MTK0222:3OS46CRSLG6FNG87EK3AQPKM59NV6A", "current_trial": 129, "dateTime": 1509564811600, "trialdata": {"rt": -1, "stimulus": "", "key_press": -1, "type": "PRE_RECALL_DELAY", "trial_type": "single-stim", "trial_index": 129, "time_elapsed": 523131, "internal_node_id": "0.0-93.0-0.0"}}, {"uniqueid": "MTK0222:3OS46CRSLG6FNG87EK3AQPKM59NV6A", "current_trial": 130, "dateTime": 1509564812101, "trialdata": {"rt": -1000, "stimulus": "/static/audio/400Hz.wav", "key_press": -1, "type": "PRE_RECALL_ALERT", "trial_type": "single-audio", "trial_index": 130, "time_elapsed": 523632, "internal_node_id": "0.0-94.0"}}, {"uniqueid": "MTK0222:3OS46CRSLG6FNG87EK3AQPKM59NV6A", "current_trial": 131, "dateTime": 1509564872112, "trialdata": {"rt": [4093, 5933, 6856, 7740, 10560, 11750, 17593, 18745], "recwords": ["scalpel", "scissors", "hedge", "flower", "primate", "fireplace", "sparrow", "glass"], "type": "FREE_RECALL", "conditions": [12, 1600, "v", 24000], "trial": 3, "trial_type": "free-recall", "trial_index": 131, "time_elapsed": 583638, "internal_node_id": "0.0-95.0-0.0"}}, {"uniqueid": "MTK0222:3OS46CRSLG6FNG87EK3AQPKM59NV6A", "current_trial": 132, "dateTime": 1509564875368, "trialdata": {"rt": 1253, "key_press": 32, "type": "INSTRUCTIONS", "trial_type": "text", "trial_index": 132, "time_elapsed": 586899, "internal_node_id": "0.0-96.0"}}, {"uniqueid": "MTK0222:3OS46CRSLG6FNG87EK3AQPKM59NV6A", "current_trial": 133, "dateTime": 1509564901373, "trialdata": {"rt": [4602, 6957, 9456, 11599, 16008, 17638, 19722], "responses": ["15", "7", "13", "7", "16", "16", "18"], "num1": [8, 4, 1, 2, 8, 8, 5, 9], "num2": [5, 2, 8, 4, 6, 6, 5, 4], "num3": [2, 1, 4, 1, 2, 2, 8, 9], "type": "DISTRACTOR", "conditions": [24, 1600, "v", 24000], "trial": 4, "trial_type": "math-distractor", "trial_index": 133, "time_elapsed": 612904, "internal_node_id": "0.0-97.0"}}, {"uniqueid": "MTK0222:3OS46CRSLG6FNG87EK3AQPKM59NV6A", "current_trial": 134, "dateTime": 1509564904378, "trialdata": {"rt": -1, "stimulus": "<p id=\"stim\">10</p>", "key_press": -1, "trial_type": "single-stim", "trial_index": 134, "time_elapsed": 615908, "internal_node_id": "0.0-98.0-0.0"}}, {"uniqueid": "MTK0222:3OS46CRSLG6FNG87EK3AQPKM59NV6A", "current_trial": 135, "dateTime": 1509564905380, "trialdata": {"rt": -1, "stimulus": "<p id=\"stim\">9</p>", "key_press": -1, "trial_type": "single-stim", "trial_index": 135, "time_elapsed": 616911, "internal_node_id": "0.0-98.0-1.0"}}, {"uniqueid": "MTK0222:3OS46CRSLG6FNG87EK3AQPKM59NV6A", "current_trial": 136, "dateTime": 1509564906382, "trialdata": {"rt": -1, "stimulus": "<p id=\"stim\">8</p>", "key_press": -1, "trial_type": "single-stim", "trial_index": 136, "time_elapsed": 617912, "internal_node_id": "0.0-98.0-2.0"}}, {"uniqueid": "MTK0222:3OS46CRSLG6FNG87EK3AQPKM59NV6A", "current_trial": 137, "dateTime": 1509564907385, "trialdata": {"rt": -1, "stimulus": "<p id=\"stim\">7</p>", "key_press": -1, "trial_type": "single-stim", "trial_index": 137, "time_elapsed": 618916, "internal_node_id": "0.0-98.0-3.0"}}, {"uniqueid": "MTK0222:3OS46CRSLG6FNG87EK3AQPKM59NV6A", "current_trial": 138, "dateTime": 1509564908387, "trialdata": {"rt": -1, "stimulus": "<p id=\"stim\">6</p>", "key_press": -1, "trial_type": "single-stim", "trial_index": 138, "time_elapsed": 619917, "internal_node_id": "0.0-98.0-4.0"}}, {"uniqueid": "MTK0222:3OS46CRSLG6FNG87EK3AQPKM59NV6A", "current_trial": 139, "dateTime": 1509564909389, "trialdata": {"rt": -1, "stimulus": "<p id=\"stim\">5</p>", "key_press": -1, "trial_type": "single-stim", "trial_index": 139, "time_elapsed": 620919, "internal_node_id": "0.0-98.0-5.0"}}, {"uniqueid": "MTK0222:3OS46CRSLG6FNG87EK3AQPKM59NV6A", "current_trial": 140, "dateTime": 1509564910391, "trialdata": {"rt": -1, "stimulus": "<p id=\"stim\">4</p>", "key_press": -1, "trial_type": "single-stim", "trial_index": 140, "time_elapsed": 621922, "internal_node_id": "0.0-98.0-6.0"}}, {"uniqueid": "MTK0222:3OS46CRSLG6FNG87EK3AQPKM59NV6A", "current_trial": 141, "dateTime": 1509564911394, "trialdata": {"rt": -1, "stimulus": "<p id=\"stim\">3</p>", "key_press": -1, "trial_type": "single-stim", "trial_index": 141, "time_elapsed": 622924, "internal_node_id": "0.0-98.0-7.0"}}, {"uniqueid": "MTK0222:3OS46CRSLG6FNG87EK3AQPKM59NV6A", "current_trial": 142, "dateTime": 1509564912396, "trialdata": {"rt": -1, "stimulus": "<p id=\"stim\">2</p>", "key_press": -1, "trial_type": "single-stim", "trial_index": 142, "time_elapsed": 623926, "internal_node_id": "0.0-98.0-8.0"}}, {"uniqueid": "MTK0222:3OS46CRSLG6FNG87EK3AQPKM59NV6A", "current_trial": 143, "dateTime": 1509564913398, "trialdata": {"rt": -1, "stimulus": "<p id=\"stim\">1</p>", "key_press": -1, "trial_type": "single-stim", "trial_index": 143, "time_elapsed": 624929, "internal_node_id": "0.0-98.0-9.0"}}, {"uniqueid": "MTK0222:3OS46CRSLG6FNG87EK3AQPKM59NV6A", "current_trial": 144, "dateTime": 1509564914901, "trialdata": {"rt": -1, "stimulus": "<p id=\"stim\">+</p>", "key_press": -1, "type": "FIXATION", "trial_type": "single-stim", "trial_index": 144, "time_elapsed": 626431, "internal_node_id": "0.0-99.0-0.0"}}, {"uniqueid": "MTK0222:3OS46CRSLG6FNG87EK3AQPKM59NV6A", "current_trial": 145, "dateTime": 1509564916502, "trialdata": {"rt": -1, "stimulus": "<p id=\"stim\">GUITAR</p>", "key_press": -1, "type": "PRES_VIS", "word": "guitar", "wordID": 669, "conditions": [24, 1600, "v", 24000], "trial": 4, "serialpos": 0, "trial_type": "single-stim", "trial_index": 145, "time_elapsed": 628033, "internal_node_id": "0.0-100.0"}}, {"uniqueid": "MTK0222:3OS46CRSLG6FNG87EK3AQPKM59NV6A", "current_trial": 146, "dateTime": 1509564919233, "trialdata": {"rt": -1, "stimulus": "<p id=\"stim\">CLOCK</p>", "key_press": -1, "type": "PRES_VIS", "word": "clock", "wordID": 324, "conditions": [24, 1600, "v", 24000], "trial": 4, "serialpos": 1, "trial_type": "single-stim", "trial_index": 146, "time_elapsed": 630764, "internal_node_id": "0.0-101.0"}}, {"uniqueid": "MTK0222:3OS46CRSLG6FNG87EK3AQPKM59NV6A", "current_trial": 147, "dateTime": 1509564921756, "trialdata": {"rt": -1, "stimulus": "<p id=\"stim\">SHOVEL</p>", "key_press": -1, "type": "PRES_VIS", "word": "shovel", "wordID": 1294, "conditions": [24, 1600, "v", 24000], "trial": 4, "serialpos": 2, "trial_type": "single-stim", "trial_index": 147, "time_elapsed": 633286, "internal_node_id": "0.0-102.0"}}, {"uniqueid": "MTK0222:3OS46CRSLG6FNG87EK3AQPKM59NV6A", "current_trial": 148, "dateTime": 1509564924385, "trialdata": {"rt": -1, "stimulus": "<p id=\"stim\">FLUTE</p>", "key_press": -1, "type": "PRES_VIS", "word": "flute", "wordID": 584, "conditions": [24, 1600, "v", 24000], "trial": 4, "serialpos": 3, "trial_type": "single-stim", "trial_index": 148, "time_elapsed": 635915, "internal_node_id": "0.0-103.0"}}, {"uniqueid": "MTK0222:3OS46CRSLG6FNG87EK3AQPKM59NV6A", "current_trial": 149, "dateTime": 1509564926850, "trialdata": {"rt": -1, "stimulus": "<p id=\"stim\">SPIDER</p>", "key_press": -1, "type": "PRES_VIS", "word": "spider", "wordID": 1350, "conditions": [24, 1600, "v", 24000], "trial": 4, "serialpos": 4, "trial_type": "single-stim", "trial_index": 149, "time_elapsed": 638381, "internal_node_id": "0.0-104.0"}}, {"uniqueid": "MTK0222:3OS46CRSLG6FNG87EK3AQPKM59NV6A", "current_trial": 150, "dateTime": 1509564929514, "trialdata": {"rt": -1, "stimulus": "<p id=\"stim\">FOREHEAD</p>", "key_press": -1, "type": "PRES_VIS", "word": "forehead", "wordID": 591, "conditions": [24, 1600, "v", 24000], "trial": 4, "serialpos": 5, "trial_type": "single-stim", "trial_index": 150, "time_elapsed": 641045, "internal_node_id": "0.0-105.0"}}, {"uniqueid": "MTK0222:3OS46CRSLG6FNG87EK3AQPKM59NV6A", "current_trial": 151, "dateTime": 1509564932214, "trialdata": {"rt": -1, "stimulus": "<p id=\"stim\">PECAN</p>", "key_press": -1, "type": "PRES_VIS", "word": "pecan", "wordID": 1035, "conditions": [24, 1600, "v", 24000], "trial": 4, "serialpos": 6, "trial_type": "single-stim", "trial_index": 151, "time_elapsed": 643744, "internal_node_id": "0.0-106.0"}}, {"uniqueid": "MTK0222:3OS46CRSLG6FNG87EK3AQPKM59NV6A", "current_trial": 152, "dateTime": 1509564934763, "trialdata": {"rt": -1, "stimulus": "<p id=\"stim\">PLAID</p>", "key_press": -1, "type": "PRES_VIS", "word": "plaid", "wordID": 1079, "conditions": [24, 1600, "v", 24000], "trial": 4, "serialpos": 7, "trial_type": "single-stim", "trial_index": 152, "time_elapsed": 646294, "internal_node_id": "0.0-107.0"}}, {"uniqueid": "MTK0222:3OS46CRSLG6FNG87EK3AQPKM59NV6A", "current_trial": 153, "dateTime": 1509564937376, "trialdata": {"rt": -1, "stimulus": "<p id=\"stim\">DRIVER</p>", "key_press": -1, "type": "PRES_VIS", "word": "driver", "wordID": 498, "conditions": [24, 1600, "v", 24000], "trial": 4, "serialpos": 8, "trial_type": "single-stim", "trial_index": 153, "time_elapsed": 648907, "internal_node_id": "0.0-108.0"}}, {"uniqueid": "MTK0222:3OS46CRSLG6FNG87EK3AQPKM59NV6A", "current_trial": 154, "dateTime": 1509564939973, "trialdata": {"rt": -1, "stimulus": "<p id=\"stim\">TRUCK</p>", "key_press": -1, "type": "PRES_VIS", "word": "truck", "wordID": 1511, "conditions": [24, 1600, "v", 24000], "trial": 4, "serialpos": 9, "trial_type": "single-stim", "trial_index": 154, "time_elapsed": 651504, "internal_node_id": "0.0-109.0"}}, {"uniqueid": "MTK0222:3OS46CRSLG6FNG87EK3AQPKM59NV6A", "current_trial": 155, "dateTime": 1509564942581, "trialdata": {"rt": -1, "stimulus": "<p id=\"stim\">PALACE</p>", "key_press": -1, "type": "PRES_VIS", "word": "palace", "wordID": 1005, "conditions": [24, 1600, "v", 24000], "trial": 4, "serialpos": 10, "trial_type": "single-stim", "trial_index": 155, "time_elapsed": 654112, "internal_node_id": "0.0-110.0"}}, {"uniqueid": "MTK0222:3OS46CRSLG6FNG87EK3AQPKM59NV6A", "current_trial": 156, "dateTime": 1509564945146, "trialdata": {"rt": -1, "stimulus": "<p id=\"stim\">TWIG</p>", "key_press": -1, "type": "PRES_VIS", "word": "twig", "wordID": 1526, "conditions": [24, 1600, "v", 24000], "trial": 4, "serialpos": 11, "trial_type": "single-stim", "trial_index": 156, "time_elapsed": 656677, "internal_node_id": "0.0-111.0"}}, {"uniqueid": "MTK0222:3OS46CRSLG6FNG87EK3AQPKM59NV6A", "current_trial": 157, "dateTime": 1509564947709, "trialdata": {"rt": -1, "stimulus": "<p id=\"stim\">REPORT</p>", "key_press": -1, "type": "PRES_VIS", "word": "report", "wordID": 1183, "conditions": [24, 1600, "v", 24000], "trial": 4, "serialpos": 12, "trial_type": "single-stim", "trial_index": 157, "time_elapsed": 659239, "internal_node_id": "0.0-112.0"}}, {"uniqueid": "MTK0222:3OS46CRSLG6FNG87EK3AQPKM59NV6A", "current_trial": 158, "dateTime": 1509564950184, "trialdata": {"rt": -1, "stimulus": "<p id=\"stim\">SODA</p>", "key_press": -1, "type": "PRES_VIS", "word": "soda", "wordID": 1340, "conditions": [24, 1600, "v", 24000], "trial": 4, "serialpos": 13, "trial_type": "single-stim", "trial_index": 158, "time_elapsed": 661714, "internal_node_id": "0.0-113.0"}}, {"uniqueid": "MTK0222:3OS46CRSLG6FNG87EK3AQPKM59NV6A", "current_trial": 159, "dateTime": 1509564952765, "trialdata": {"rt": -1, "stimulus": "<p id=\"stim\">JAPAN</p>", "key_press": -1, "type": "PRES_VIS", "word": "japan", "wordID": 748, "conditions": [24, 1600, "v", 24000], "trial": 4, "serialpos": 14, "trial_type": "single-stim", "trial_index": 159, "time_elapsed": 664295, "internal_node_id": "0.0-114.0"}}, {"uniqueid": "MTK0222:3OS46CRSLG6FNG87EK3AQPKM59NV6A", "current_trial": 160, "dateTime": 1509564955235, "trialdata": {"rt": -1, "stimulus": "<p id=\"stim\">SHORTCAKE</p>", "key_press": -1, "type": "PRES_VIS", "word": "shortcake", "wordID": 1291, "conditions": [24, 1600, "v", 24000], "trial": 4, "serialpos": 15, "trial_type": "single-stim", "trial_index": 160, "time_elapsed": 666765, "internal_node_id": "0.0-115.0"}}, {"uniqueid": "MTK0222:3OS46CRSLG6FNG87EK3AQPKM59NV6A", "current_trial": 161, "dateTime": 1509564957776, "trialdata": {"rt": -1, "stimulus": "<p id=\"stim\">MUFFIN</p>", "key_press": -1, "type": "PRES_VIS", "word": "muffin", "wordID": 928, "conditions": [24, 1600, "v", 24000], "trial": 4, "serialpos": 16, "trial_type": "single-stim", "trial_index": 161, "time_elapsed": 669307, "internal_node_id": "0.0-116.0"}}, {"uniqueid": "MTK0222:3OS46CRSLG6FNG87EK3AQPKM59NV6A", "current_trial": 162, "dateTime": 1509564960346, "trialdata": {"rt": -1, "stimulus": "<p id=\"stim\">PERFUME</p>", "key_press": -1, "type": "PRES_VIS", "word": "perfume", "wordID": 1048, "conditions": [24, 1600, "v", 24000], "trial": 4, "serialpos": 17, "trial_type": "single-stim", "trial_index": 162, "time_elapsed": 671877, "internal_node_id": "0.0-117.0"}}, {"uniqueid": "MTK0222:3OS46CRSLG6FNG87EK3AQPKM59NV6A", "current_trial": 163, "dateTime": 1509564962835, "trialdata": {"rt": -1, "stimulus": "<p id=\"stim\">PATROL</p>", "key_press": -1, "type": "PRES_VIS", "word": "patrol", "wordID": 1026, "conditions": [24, 1600, "v", 24000], "trial": 4, "serialpos": 18, "trial_type": "single-stim", "trial_index": 163, "time_elapsed": 674365, "internal_node_id": "0.0-118.0"}}, {"uniqueid": "MTK0222:3OS46CRSLG6FNG87EK3AQPKM59NV6A", "current_trial": 164, "dateTime": 1509564965450, "trialdata": {"rt": -1, "stimulus": "<p id=\"stim\">MISSILE</p>", "key_press": -1, "type": "PRES_VIS", "word": "missile", "wordID": 899, "conditions": [24, 1600, "v", 24000], "trial": 4, "serialpos": 19, "trial_type": "single-stim", "trial_index": 164, "time_elapsed": 676980, "internal_node_id": "0.0-119.0"}}, {"uniqueid": "MTK0222:3OS46CRSLG6FNG87EK3AQPKM59NV6A", "current_trial": 165, "dateTime": 1509564968230, "trialdata": {"rt": -1, "stimulus": "<p id=\"stim\">PACKAGE</p>", "key_press": -1, "type": "PRES_VIS", "word": "package", "wordID": 996, "conditions": [24, 1600, "v", 24000], "trial": 4, "serialpos": 20, "trial_type": "single-stim", "trial_index": 165, "time_elapsed": 679761, "internal_node_id": "0.0-120.0"}}, {"uniqueid": "MTK0222:3OS46CRSLG6FNG87EK3AQPKM59NV6A", "current_trial": 166, "dateTime": 1509564970927, "trialdata": {"rt": -1, "stimulus": "<p id=\"stim\">MATTRESS</p>", "key_press": -1, "type": "PRES_VIS", "word": "mattress", "wordID": 878, "conditions": [24, 1600, "v", 24000], "trial": 4, "serialpos": 21, "trial_type": "single-stim", "trial_index": 166, "time_elapsed": 682458, "internal_node_id": "0.0-121.0"}}, {"uniqueid": "MTK0222:3OS46CRSLG6FNG87EK3AQPKM59NV6A", "current_trial": 167, "dateTime": 1509564973705, "trialdata": {"rt": -1, "stimulus": "<p id=\"stim\">EUROPE</p>", "key_press": -1, "type": "PRES_VIS", "word": "europe", "wordID": 540, "conditions": [24, 1600, "v", 24000], "trial": 4, "serialpos": 22, "trial_type": "single-stim", "trial_index": 167, "time_elapsed": 685235, "internal_node_id": "0.0-122.0"}}, {"uniqueid": "MTK0222:3OS46CRSLG6FNG87EK3AQPKM59NV6A", "current_trial": 168, "dateTime": 1509564976349, "trialdata": {"rt": -1, "stimulus": "<p id=\"stim\">DRUG</p>", "key_press": -1, "type": "PRES_VIS", "word": "drug", "wordID": 500, "conditions": [24, 1600, "v", 24000], "trial": 4, "serialpos": 23, "trial_type": "single-stim", "trial_index": 168, "time_elapsed": 687880, "internal_node_id": "0.0-123.0"}}, {"uniqueid": "MTK0222:3OS46CRSLG6FNG87EK3AQPKM59NV6A", "current_trial": 169, "dateTime": 1509564978719, "trialdata": {"rt": -1, "stimulus": "", "key_press": -1, "type": "PRE_RECALL_DELAY", "trial_type": "single-stim", "trial_index": 169, "time_elapsed": 690249, "internal_node_id": "0.0-124.0-0.0"}}, {"uniqueid": "MTK0222:3OS46CRSLG6FNG87EK3AQPKM59NV6A", "current_trial": 170, "dateTime": 1509564979221, "trialdata": {"rt": -1000, "stimulus": "/static/audio/400Hz.wav", "key_press": -1, "type": "PRE_RECALL_ALERT", "trial_type": "single-audio", "trial_index": 170, "time_elapsed": 690752, "internal_node_id": "0.0-125.0"}}, {"uniqueid": "MTK0222:3OS46CRSLG6FNG87EK3AQPKM59NV6A", "current_trial": 171, "dateTime": 1509565039230, "trialdata": {"rt": [1480, 3213, 4868, 6332, 7928, 9119, 10424, 12392, 13759, 15935, 17425, 18420, 19148, 20031, 22543], "recwords": ["drug", "europe", "japan", "package", "missile", "forehead", "shortcake", "guitar", "flute", "pecan", "twig", "truck", "driver", "palace", "soda"], "type": "FREE_RECALL", "conditions": [24, 1600, "v", 24000], "trial": 4, "trial_type": "free-recall", "trial_index": 171, "time_elapsed": 750756, "internal_node_id": "0.0-126.0-0.0"}}, {"uniqueid": "MTK0222:3OS46CRSLG6FNG87EK3AQPKM59NV6A", "current_trial": 172, "dateTime": 1509565042370, "trialdata": {"rt": 1138, "key_press": 32, "type": "INSTRUCTIONS", "trial_type": "text", "trial_index": 172, "time_elapsed": 753901, "internal_node_id": "0.0-127.0"}}, {"uniqueid": "MTK0222:3OS46CRSLG6FNG87EK3AQPKM59NV6A", "current_trial": 173, "dateTime": 1509565068376, "trialdata": {"rt": [4010, 7725, 10825, 13120, 17383, 19623, 23943], "responses": ["16", "15", "11", "5", "11", "14", "17"], "num1": [9, 9, 1, 1, 3, 1, 3, 6], "num2": [5, 1, 4, 2, 1, 6, 6, 6], "num3": [2, 5, 6, 2, 7, 7, 8, 8], "type": "DISTRACTOR", "conditions": [24, 1600, "a", 24000], "trial": 5, "trial_type": "math-distractor", "trial_index": 173, "time_elapsed": 779906, "internal_node_id": "0.0-128.0"}}, {"uniqueid": "MTK0222:3OS46CRSLG6FNG87EK3AQPKM59NV6A", "current_trial": 174, "dateTime": 1509565071380, "trialdata": {"rt": -1, "stimulus": "<p id=\"stim\">10</p>", "key_press": -1, "trial_type": "single-stim", "trial_index": 174, "time_elapsed": 782911, "internal_node_id": "0.0-129.0-0.0"}}, {"uniqueid": "MTK0222:3OS46CRSLG6FNG87EK3AQPKM59NV6A", "current_trial": 175, "dateTime": 1509565072381, "trialdata": {"rt": -1, "stimulus": "<p id=\"stim\">9</p>", "key_press": -1, "trial_type": "single-stim", "trial_index": 175, "time_elapsed": 783912, "internal_node_id": "0.0-129.0-1.0"}}, {"uniqueid": "MTK0222:3OS46CRSLG6FNG87EK3AQPKM59NV6A", "current_trial": 176, "dateTime": 1509565073384, "trialdata": {"rt": -1, "stimulus": "<p id=\"stim\">8</p>", "key_press": -1, "trial_type": "single-stim", "trial_index": 176, "time_elapsed": 784914, "internal_node_id": "0.0-129.0-2.0"}}, {"uniqueid": "MTK0222:3OS46CRSLG6FNG87EK3AQPKM59NV6A", "current_trial": 177, "dateTime": 1509565074386, "trialdata": {"rt": -1, "stimulus": "<p id=\"stim\">7</p>", "key_press": -1, "trial_type": "single-stim", "trial_index": 177, "time_elapsed": 785916, "internal_node_id": "0.0-129.0-3.0"}}, {"uniqueid": "MTK0222:3OS46CRSLG6FNG87EK3AQPKM59NV6A", "current_trial": 178, "dateTime": 1509565075388, "trialdata": {"rt": -1, "stimulus": "<p id=\"stim\">6</p>", "key_press": -1, "trial_type": "single-stim", "trial_index": 178, "time_elapsed": 786918, "internal_node_id": "0.0-129.0-4.0"}}, {"uniqueid": "MTK0222:3OS46CRSLG6FNG87EK3AQPKM59NV6A", "current_trial": 179, "dateTime": 1509565076389, "trialdata": {"rt": -1, "stimulus": "<p id=\"stim\">5</p>", "key_press": -1, "trial_type": "single-stim", "trial_index": 179, "time_elapsed": 787920, "internal_node_id": "0.0-129.0-5.0"}}, {"uniqueid": "MTK0222:3OS46CRSLG6FNG87EK3AQPKM59NV6A", "current_trial": 180, "dateTime": 1509565077394, "trialdata": {"rt": -1, "stimulus": "<p id=\"stim\">4</p>", "key_press": -1, "trial_type": "single-stim", "trial_index": 180, "time_elapsed": 788922, "internal_node_id": "0.0-129.0-6.0"}}, {"uniqueid": "MTK0222:3OS46CRSLG6FNG87EK3AQPKM59NV6A", "current_trial": 181, "dateTime": 1509565078396, "trialdata": {"rt": -1, "stimulus": "<p id=\"stim\">3</p>", "key_press": -1, "trial_type": "single-stim", "trial_index": 181, "time_elapsed": 789926, "internal_node_id": "0.0-129.0-7.0"}}, {"uniqueid": "MTK0222:3OS46CRSLG6FNG87EK3AQPKM59NV6A", "current_trial": 182, "dateTime": 1509565079398, "trialdata": {"rt": -1, "stimulus": "<p id=\"stim\">2</p>", "key_press": -1, "trial_type": "single-stim", "trial_index": 182, "time_elapsed": 790928, "internal_node_id": "0.0-129.0-8.0"}}, {"uniqueid": "MTK0222:3OS46CRSLG6FNG87EK3AQPKM59NV6A", "current_trial": 183, "dateTime": 1509565080399, "trialdata": {"rt": -1, "stimulus": "<p id=\"stim\">1</p>", "key_press": -1, "trial_type": "single-stim", "trial_index": 183, "time_elapsed": 791930, "internal_node_id": "0.0-129.0-9.0"}}, {"uniqueid": "MTK0222:3OS46CRSLG6FNG87EK3AQPKM59NV6A", "current_trial": 184, "dateTime": 1509565081901, "trialdata": {"rt": -1, "stimulus": "<p id=\"stim\">+</p>", "key_press": -1, "type": "FIXATION", "trial_type": "single-stim", "trial_index": 184, "time_elapsed": 793432, "internal_node_id": "0.0-130.0-0.0"}}, {"uniqueid": "MTK0222:3OS46CRSLG6FNG87EK3AQPKM59NV6A", "current_trial": 185, "dateTime": 1509565084418, "trialdata": {"rt": -1000, "stimulus": "/static/audio/wordpool/MISTER.wav", "key_press": -1, "type": "PRES_AUD", "word": "mister", "wordID": 900, "conditions": [24, 1600, "a", 24000], "trial": 5, "serialpos": 0, "trial_type": "single-audio", "trial_index": 185, "time_elapsed": 795949, "internal_node_id": "0.0-131.0"}}, {"uniqueid": "MTK0222:3OS46CRSLG6FNG87EK3AQPKM59NV6A", "current_trial": 186, "dateTime": 1509565087057, "trialdata": {"rt": -1000, "stimulus": "/static/audio/wordpool/CRAB.wav", "key_press": -1, "type": "PRES_AUD", "word": "crab", "wordID": 396, "conditions": [24, 1600, "a", 24000], "trial": 5, "serialpos": 1, "trial_type": "single-audio", "trial_index": 186, "time_elapsed": 798588, "internal_node_id": "0.0-132.0"}}, {"uniqueid": "MTK0222:3OS46CRSLG6FNG87EK3AQPKM59NV6A", "current_trial": 187, "dateTime": 1509565089568, "trialdata": {"rt": -1000, "stimulus": "/static/audio/wordpool/BULLET.wav", "key_press": -1, "type": "PRES_AUD", "word": "bullet", "wordID": 193, "conditions": [24, 1600, "a", 24000], "trial": 5, "serialpos": 2, "trial_type": "single-audio", "trial_index": 187, "time_elapsed": 801099, "internal_node_id": "0.0-133.0"}}, {"uniqueid": "MTK0222:3OS46CRSLG6FNG87EK3AQPKM59NV6A", "current_trial": 188, "dateTime": 1509565092231, "trialdata": {"rt": 997.142857142876, "stimulus": "/static/audio/wordpool/RAZOR.wav", "key_press": 175, "type": "PRES_AUD", "word": "razor", "wordID": 1170, "conditions": [24, 1600, "a", 24000], "trial": 5, "serialpos": 3, "trial_type": "single-audio", "trial_index": 188, "time_elapsed": 803762, "internal_node_id": "0.0-134.0"}}, {"uniqueid": "MTK0222:3OS46CRSLG6FNG87EK3AQPKM59NV6A", "current_trial": 189, "dateTime": 1509565094813, "trialdata": {"rt": -1000, "stimulus": "/static/audio/wordpool/DAUGHTER.wav", "key_press": -1, "type": "PRES_AUD", "word": "daughter", "wordID": 441, "conditions": [24, 1600, "a", 24000], "trial": 5, "serialpos": 4, "trial_type": "single-audio", "trial_index": 189, "time_elapsed": 806344, "internal_node_id": "0.0-135.0"}}, {"uniqueid": "MTK0222:3OS46CRSLG6FNG87EK3AQPKM59NV6A", "current_trial": 190, "dateTime": 1509565097542, "trialdata": {"rt": -1000, "stimulus": "/static/audio/wordpool/CHAPEL.wav", "key_press": -1, "type": "PRES_AUD", "word": "chapel", "wordID": 279, "conditions": [24, 1600, "a", 24000], "trial": 5, "serialpos": 5, "trial_type": "single-audio", "trial_index": 190, "time_elapsed": 809073, "internal_node_id": "0.0-136.0"}}, {"uniqueid": "MTK0222:3OS46CRSLG6FNG87EK3AQPKM59NV6A", "current_trial": 191, "dateTime": 1509565099972, "trialdata": {"rt": -1000, "stimulus": "/static/audio/wordpool/CHURCH.wav", "key_press": -1, "type": "PRES_AUD", "word": "church", "wordID": 306, "conditions": [24, 1600, "a", 24000], "trial": 5, "serialpos": 6, "trial_type": "single-audio", "trial_index": 191, "time_elapsed": 811503, "internal_node_id": "0.0-137.0"}}, {"uniqueid": "MTK0222:3OS46CRSLG6FNG87EK3AQPKM59NV6A", "current_trial": 192, "dateTime": 1509565102756, "trialdata": {"rt": -1000, "stimulus": "/static/audio/wordpool/SERVANT.wav", "key_press": -1, "type": "PRES_AUD", "word": "servant", "wordID": 1270, "conditions": [24, 1600, "a", 24000], "trial": 5, "serialpos": 7, "trial_type": "single-audio", "trial_index": 192, "time_elapsed": 814287, "internal_node_id": "0.0-138.0"}}, {"uniqueid": "MTK0222:3OS46CRSLG6FNG87EK3AQPKM59NV6A", "current_trial": 193, "dateTime": 1509565105266, "trialdata": {"rt": -1000, "stimulus": "/static/audio/wordpool/DENIM.wav", "key_press": -1, "type": "PRES_AUD", "word": "denim", "wordID": 445, "conditions": [24, 1600, "a", 24000], "trial": 5, "serialpos": 8, "trial_type": "single-audio", "trial_index": 193, "time_elapsed": 816797, "internal_node_id": "0.0-139.0"}}, {"uniqueid": "MTK0222:3OS46CRSLG6FNG87EK3AQPKM59NV6A", "current_trial": 194, "dateTime": 1509565108041, "trialdata": {"rt": -1000, "stimulus": "/static/audio/wordpool/SEAFOOD.wav", "key_press": -1, "type": "PRES_AUD", "word": "seafood", "wordID": 1259, "conditions": [24, 1600, "a", 24000], "trial": 5, "serialpos": 9, "trial_type": "single-audio", "trial_index": 194, "time_elapsed": 819572, "internal_node_id": "0.0-140.0"}}, {"uniqueid": "MTK0222:3OS46CRSLG6FNG87EK3AQPKM59NV6A", "current_trial": 195, "dateTime": 1509565110648, "trialdata": {"rt": -1000, "stimulus": "/static/audio/wordpool/SILK.wav", "key_press": -1, "type": "PRES_AUD", "word": "silk", "wordID": 1306, "conditions": [24, 1600, "a", 24000], "trial": 5, "serialpos": 10, "trial_type": "single-audio", "trial_index": 195, "time_elapsed": 822179, "internal_node_id": "0.0-141.0"}}, {"uniqueid": "MTK0222:3OS46CRSLG6FNG87EK3AQPKM59NV6A", "current_trial": 196, "dateTime": 1509565113196, "trialdata": {"rt": -1000, "stimulus": "/static/audio/wordpool/PREACHER.wav", "key_press": -1, "type": "PRES_AUD", "word": "preacher", "wordID": 1118, "conditions": [24, 1600, "a", 24000], "trial": 5, "serialpos": 11, "trial_type": "single-audio", "trial_index": 196, "time_elapsed": 824727, "internal_node_id": "0.0-142.0"}}, {"uniqueid": "MTK0222:3OS46CRSLG6FNG87EK3AQPKM59NV6A", "current_trial": 197, "dateTime": 1509565115787, "trialdata": {"rt": -1000, "stimulus": "/static/audio/wordpool/SUPPER.wav", "key_press": -1, "type": "PRES_AUD", "word": "supper", "wordID": 1410, "conditions": [24, 1600, "a", 24000], "trial": 5, "serialpos": 12, "trial_type": "single-audio", "trial_index": 197, "time_elapsed": 827318, "internal_node_id": "0.0-143.0"}}, {"uniqueid": "MTK0222:3OS46CRSLG6FNG87EK3AQPKM59NV6A", "current_trial": 198, "dateTime": 1509565118233, "trialdata": {"rt": -1000, "stimulus": "/static/audio/wordpool/PASTRY.wav", "key_press": -1, "type": "PRES_AUD", "word": "pastry", "wordID": 1021, "conditions": [24, 1600, "a", 24000], "trial": 5, "serialpos": 13, "trial_type": "single-audio", "trial_index": 198, "time_elapsed": 829764, "internal_node_id": "0.0-144.0"}}, {"uniqueid": "MTK0222:3OS46CRSLG6FNG87EK3AQPKM59NV6A", "current_trial": 199, "dateTime": 1509565120753, "trialdata": {"rt": -1000, "stimulus": "/static/audio/wordpool/CUSTARD.wav", "key_press": -1, "type": "PRES_AUD", "word": "custard", "wordID": 428, "conditions": [24, 1600, "a", 24000], "trial": 5, "serialpos": 14, "trial_type": "single-audio", "trial_index": 199, "time_elapsed": 832284, "internal_node_id": "0.0-145.0"}}, {"uniqueid": "MTK0222:3OS46CRSLG6FNG87EK3AQPKM59NV6A", "current_trial": 200, "dateTime": 1509565123423, "trialdata": {"rt": -1000, "stimulus": "/static/audio/wordpool/CANDY.wav", "key_press": -1, "type": "PRES_AUD", "word": "candy", "wordID": 229, "conditions": [24, 1600, "a", 24000], "trial": 5, "serialpos": 15, "trial_type": "single-audio", "trial_index": 200, "time_elapsed": 834954, "internal_node_id": "0.0-146.0"}}, {"uniqueid": "MTK0222:3OS46CRSLG6FNG87EK3AQPKM59NV6A", "current_trial": 201, "dateTime": 1509565126125, "trialdata": {"rt": -1000, "stimulus": "/static/audio/wordpool/POLICE.wav", "key_press": -1, "type": "PRES_AUD", "word": "police", "wordID": 1097, "conditions": [24, 1600, "a", 24000], "trial": 5, "serialpos": 16, "trial_type": "single-audio", "trial_index": 201, "time_elapsed": 837656, "internal_node_id": "0.0-147.0"}}, {"uniqueid": "MTK0222:3OS46CRSLG6FNG87EK3AQPKM59NV6A", "current_trial": 202, "dateTime": 1509565128669, "trialdata": {"rt": -1000, "stimulus": "/static/audio/wordpool/EGYPT.wav", "key_press": -1, "type": "PRES_AUD", "word": "egypt", "wordID": 518, "conditions": [24, 1600, "a", 24000], "trial": 5, "serialpos": 17, "trial_type": "single-audio", "trial_index": 202, "time_elapsed": 840200, "internal_node_id": "0.0-148.0"}}, {"uniqueid": "MTK0222:3OS46CRSLG6FNG87EK3AQPKM59NV6A", "current_trial": 203, "dateTime": 1509565131080, "trialdata": {"rt": -1000, "stimulus": "/static/audio/wordpool/FRANCE.wav", "key_press": -1, "type": "PRES_AUD", "word": "france", "wordID": 600, "conditions": [24, 1600, "a", 24000], "trial": 5, "serialpos": 18, "trial_type": "single-audio", "trial_index": 203, "time_elapsed": 842611, "internal_node_id": "0.0-149.0"}}, {"uniqueid": "MTK0222:3OS46CRSLG6FNG87EK3AQPKM59NV6A", "current_trial": 204, "dateTime": 1509565133739, "trialdata": {"rt": -1000, "stimulus": "/static/audio/wordpool/BUG.wav", "key_press": -1, "type": "PRES_AUD", "word": "bug", "wordID": 186, "conditions": [24, 1600, "a", 24000], "trial": 5, "serialpos": 19, "trial_type": "single-audio", "trial_index": 204, "time_elapsed": 845270, "internal_node_id": "0.0-150.0"}}, {"uniqueid": "MTK0222:3OS46CRSLG6FNG87EK3AQPKM59NV6A", "current_trial": 205, "dateTime": 1509565136440, "trialdata": {"rt": -1000, "stimulus": "/static/audio/wordpool/MARROW.wav", "key_press": -1, "type": "PRES_AUD", "word": "marrow", "wordID": 871, "conditions": [24, 1600, "a", 24000], "trial": 5, "serialpos": 20, "trial_type": "single-audio", "trial_index": 205, "time_elapsed": 847971, "internal_node_id": "0.0-151.0"}}, {"uniqueid": "MTK0222:3OS46CRSLG6FNG87EK3AQPKM59NV6A", "current_trial": 206, "dateTime": 1509565139021, "trialdata": {"rt": -1000, "stimulus": "/static/audio/wordpool/CRITIC.wav", "key_press": -1, "type": "PRES_AUD", "word": "critic", "wordID": 409, "conditions": [24, 1600, "a", 24000], "trial": 5, "serialpos": 21, "trial_type": "single-audio", "trial_index": 206, "time_elapsed": 850552, "internal_node_id": "0.0-152.0"}}, {"uniqueid": "MTK0222:3OS46CRSLG6FNG87EK3AQPKM59NV6A", "current_trial": 207, "dateTime": 1509565141766, "trialdata": {"rt": -1000, "stimulus": "/static/audio/wordpool/BUREAU.wav", "key_press": -1, "type": "PRES_AUD", "word": "bureau", "wordID": 198, "conditions": [24, 1600, "a", 24000], "trial": 5, "serialpos": 22, "trial_type": "single-audio", "trial_index": 207, "time_elapsed": 853297, "internal_node_id": "0.0-153.0"}}, {"uniqueid": "MTK0222:3OS46CRSLG6FNG87EK3AQPKM59NV6A", "current_trial": 208, "dateTime": 1509565144235, "trialdata": {"rt": -1000, "stimulus": "/static/audio/wordpool/BANQUET.wav", "key_press": -1, "type": "PRES_AUD", "word": "banquet", "wordID": 85, "conditions": [24, 1600, "a", 24000], "trial": 5, "serialpos": 23, "trial_type": "single-audio", "trial_index": 208, "time_elapsed": 855766, "internal_node_id": "0.0-154.0"}}, {"uniqueid": "MTK0222:3OS46CRSLG6FNG87EK3AQPKM59NV6A", "current_trial": 209, "dateTime": 1509565145604, "trialdata": {"rt": -1, "stimulus": "", "key_press": -1, "type": "PRE_RECALL_DELAY", "trial_type": "single-stim", "trial_index": 209, "time_elapsed": 857135, "internal_node_id": "0.0-155.0-0.0"}}, {"uniqueid": "MTK0222:3OS46CRSLG6FNG87EK3AQPKM59NV6A", "current_trial": 210, "dateTime": 1509565146106, "trialdata": {"rt": -1000, "stimulus": "/static/audio/400Hz.wav", "key_press": -1, "type": "PRE_RECALL_ALERT", "trial_type": "single-audio", "trial_index": 210, "time_elapsed": 857636, "internal_node_id": "0.0-156.0"}}, {"uniqueid": "MTK0222:3OS46CRSLG6FNG87EK3AQPKM59NV6A", "current_trial": 211, "dateTime": 1509565206114, "trialdata": {"rt": [2112, 3145, 4328, 4851, 8738, 10288, 14503, 16591, 17617], "recwords": ["banquet", "euro", "creature", "bug", "egypt", "france", "chapel", "servant", "church"], "type": "FREE_RECALL", "conditions": [24, 1600, "a", 24000], "trial": 5, "trial_type": "free-recall", "trial_index": 211, "time_elapsed": 917642, "internal_node_id": "0.0-157.0-0.0"}}, {"uniqueid": "MTK0222:3OS46CRSLG6FNG87EK3AQPKM59NV6A", "current_trial": 212, "dateTime": 1509565212086, "trialdata": {"rt": 3970, "key_press": 32, "type": "INSTRUCTIONS", "trial_type": "text", "trial_index": 212, "time_elapsed": 923617, "internal_node_id": "0.0-158.0"}}, {"uniqueid": "MTK0222:3OS46CRSLG6FNG87EK3AQPKM59NV6A", "current_trial": 213, "dateTime": 1509565226091, "trialdata": {"rt": [3005, 5813], "responses": ["10", "11"], "num1": [1, 4, 7], "num2": [7, 1, 6], "num3": [2, 6, 8], "type": "DISTRACTOR", "conditions": [24, 800, "v", 12000], "trial": 6, "trial_type": "math-distractor", "trial_index": 213, "time_elapsed": 937622, "internal_node_id": "0.0-159.0"}}, {"uniqueid": "MTK0222:3OS46CRSLG6FNG87EK3AQPKM59NV6A", "current_trial": 214, "dateTime": 1509565229094, "trialdata": {"rt": -1, "stimulus": "<p id=\"stim\">10</p>", "key_press": -1, "trial_type": "single-stim", "trial_index": 214, "time_elapsed": 940625, "internal_node_id": "0.0-160.0-0.0"}}, {"uniqueid": "MTK0222:3OS46CRSLG6FNG87EK3AQPKM59NV6A", "current_trial": 215, "dateTime": 1509565230096, "trialdata": {"rt": -1, "stimulus": "<p id=\"stim\">9</p>", "key_press": -1, "trial_type": "single-stim", "trial_index": 215, "time_elapsed": 941627, "internal_node_id": "0.0-160.0-1.0"}}, {"uniqueid": "MTK0222:3OS46CRSLG6FNG87EK3AQPKM59NV6A", "current_trial": 216, "dateTime": 1509565231098, "trialdata": {"rt": -1, "stimulus": "<p id=\"stim\">8</p>", "key_press": -1, "trial_type": "single-stim", "trial_index": 216, "time_elapsed": 942629, "internal_node_id": "0.0-160.0-2.0"}}, {"uniqueid": "MTK0222:3OS46CRSLG6FNG87EK3AQPKM59NV6A", "current_trial": 217, "dateTime": 1509565232101, "trialdata": {"rt": -1, "stimulus": "<p id=\"stim\">7</p>", "key_press": -1, "trial_type": "single-stim", "trial_index": 217, "time_elapsed": 943631, "internal_node_id": "0.0-160.0-3.0"}}, {"uniqueid": "MTK0222:3OS46CRSLG6FNG87EK3AQPKM59NV6A", "current_trial": 218, "dateTime": 1509565233103, "trialdata": {"rt": -1, "stimulus": "<p id=\"stim\">6</p>", "key_press": -1, "trial_type": "single-stim", "trial_index": 218, "time_elapsed": 944634, "internal_node_id": "0.0-160.0-4.0"}}, {"uniqueid": "MTK0222:3OS46CRSLG6FNG87EK3AQPKM59NV6A", "current_trial": 219, "dateTime": 1509565234105, "trialdata": {"rt": -1, "stimulus": "<p id=\"stim\">5</p>", "key_press": -1, "trial_type": "single-stim", "trial_index": 219, "time_elapsed": 945636, "internal_node_id": "0.0-160.0-5.0"}}, {"uniqueid": "MTK0222:3OS46CRSLG6FNG87EK3AQPKM59NV6A", "current_trial": 220, "dateTime": 1509565235108, "trialdata": {"rt": -1, "stimulus": "<p id=\"stim\">4</p>", "key_press": -1, "trial_type": "single-stim", "trial_index": 220, "time_elapsed": 946638, "internal_node_id": "0.0-160.0-6.0"}}, {"uniqueid": "MTK0222:3OS46CRSLG6FNG87EK3AQPKM59NV6A", "current_trial": 221, "dateTime": 1509565236111, "trialdata": {"rt": -1, "stimulus": "<p id=\"stim\">3</p>", "key_press": -1, "trial_type": "single-stim", "trial_index": 221, "time_elapsed": 947641, "internal_node_id": "0.0-160.0-7.0"}}, {"uniqueid": "MTK0222:3OS46CRSLG6FNG87EK3AQPKM59NV6A", "current_trial": 222, "dateTime": 1509565237113, "trialdata": {"rt": -1, "stimulus": "<p id=\"stim\">2</p>", "key_press": -1, "trial_type": "single-stim", "trial_index": 222, "time_elapsed": 948643, "internal_node_id": "0.0-160.0-8.0"}}, {"uniqueid": "MTK0222:3OS46CRSLG6FNG87EK3AQPKM59NV6A", "current_trial": 223, "dateTime": 1509565238115, "trialdata": {"rt": -1, "stimulus": "<p id=\"stim\">1</p>", "key_press": -1, "trial_type": "single-stim", "trial_index": 223, "time_elapsed": 949646, "internal_node_id": "0.0-160.0-9.0"}}, {"uniqueid": "MTK0222:3OS46CRSLG6FNG87EK3AQPKM59NV6A", "current_trial": 224, "dateTime": 1509565239617, "trialdata": {"rt": -1, "stimulus": "<p id=\"stim\">+</p>", "key_press": -1, "type": "FIXATION", "trial_type": "single-stim", "trial_index": 224, "time_elapsed": 951148, "internal_node_id": "0.0-161.0-0.0"}}, {"uniqueid": "MTK0222:3OS46CRSLG6FNG87EK3AQPKM59NV6A", "current_trial": 225, "dateTime": 1509565240420, "trialdata": {"rt": -1, "stimulus": "<p id=\"stim\">FILM</p>", "key_press": -1, "type": "PRES_VIS", "word": "film", "wordID": 564, "conditions": [24, 800, "v", 12000], "trial": 6, "serialpos": 0, "trial_type": "single-stim", "trial_index": 225, "time_elapsed": 951950, "internal_node_id": "0.0-162.0"}}, {"uniqueid": "MTK0222:3OS46CRSLG6FNG87EK3AQPKM59NV6A", "current_trial": 226, "dateTime": 1509565242314, "trialdata": {"rt": -1, "stimulus": "<p id=\"stim\">HIKER</p>", "key_press": -1, "type": "PRES_VIS", "word": "hiker", "wordID": 707, "conditions": [24, 800, "v", 12000], "trial": 6, "serialpos": 1, "trial_type": "single-stim", "trial_index": 226, "time_elapsed": 953845, "internal_node_id": "0.0-163.0"}}, {"uniqueid": "MTK0222:3OS46CRSLG6FNG87EK3AQPKM59NV6A", "current_trial": 227, "dateTime": 1509565244141, "trialdata": {"rt": -1, "stimulus": "<p id=\"stim\">LIVER</p>", "key_press": -1, "type": "PRES_VIS", "word": "liver", "wordID": 832, "conditions": [24, 800, "v", 12000], "trial": 6, "serialpos": 2, "trial_type": "single-stim", "trial_index": 227, "time_elapsed": 955672, "internal_node_id": "0.0-164.0"}}, {"uniqueid": "MTK0222:3OS46CRSLG6FNG87EK3AQPKM59NV6A", "current_trial": 228, "dateTime": 1509565245897, "trialdata": {"rt": -1, "stimulus": "<p id=\"stim\">COFFEE</p>", "key_press": -1, "type": "PRES_VIS", "word": "coffee", "wordID": 340, "conditions": [24, 800, "v", 12000], "trial": 6, "serialpos": 3, "trial_type": "single-stim", "trial_index": 228, "time_elapsed": 957427, "internal_node_id": "0.0-165.0"}}, {"uniqueid": "MTK0222:3OS46CRSLG6FNG87EK3AQPKM59NV6A", "current_trial": 229, "dateTime": 1509565247808, "trialdata": {"rt": -1, "stimulus": "<p id=\"stim\">LION</p>", "key_press": -1, "type": "PRES_VIS", "word": "lion", "wordID": 826, "conditions": [24, 800, "v", 12000], "trial": 6, "serialpos": 4, "trial_type": "single-stim", "trial_index": 229, "time_elapsed": 959338, "internal_node_id": "0.0-166.0"}}, {"uniqueid": "MTK0222:3OS46CRSLG6FNG87EK3AQPKM59NV6A", "current_trial": 230, "dateTime": 1509565249791, "trialdata": {"rt": -1, "stimulus": "<p id=\"stim\">KIDNEY</p>", "key_press": -1, "type": "PRES_VIS", "word": "kidney", "wordID": 775, "conditions": [24, 800, "v", 12000], "trial": 6, "serialpos": 5, "trial_type": "single-stim", "trial_index": 230, "time_elapsed": 961322, "internal_node_id": "0.0-167.0"}}, {"uniqueid": "MTK0222:3OS46CRSLG6FNG87EK3AQPKM59NV6A", "current_trial": 231, "dateTime": 1509565251671, "trialdata": {"rt": -1, "stimulus": "<p id=\"stim\">TOMBSTONE</p>", "key_press": -1, "type": "PRES_VIS", "word": "tombstone", "wordID": 1477, "conditions": [24, 800, "v", 12000], "trial": 6, "serialpos": 6, "trial_type": "single-stim", "trial_index": 231, "time_elapsed": 963201, "internal_node_id": "0.0-168.0"}}, {"uniqueid": "MTK0222:3OS46CRSLG6FNG87EK3AQPKM59NV6A", "current_trial": 232, "dateTime": 1509565253613, "trialdata": {"rt": -1, "stimulus": "<p id=\"stim\">SLIDE</p>", "key_press": -1, "type": "PRES_VIS", "word": "slide", "wordID": 1325, "conditions": [24, 800, "v", 12000], "trial": 6, "serialpos": 7, "trial_type": "single-stim", "trial_index": 232, "time_elapsed": 965143, "internal_node_id": "0.0-169.0"}}, {"uniqueid": "MTK0222:3OS46CRSLG6FNG87EK3AQPKM59NV6A", "current_trial": 233, "dateTime": 1509565255505, "trialdata": {"rt": -1, "stimulus": "<p id=\"stim\">MONSTER</p>", "key_press": -1, "type": "PRES_VIS", "word": "monster", "wordID": 911, "conditions": [24, 800, "v", 12000], "trial": 6, "serialpos": 8, "trial_type": "single-stim", "trial_index": 233, "time_elapsed": 967035, "internal_node_id": "0.0-170.0"}}, {"uniqueid": "MTK0222:3OS46CRSLG6FNG87EK3AQPKM59NV6A", "current_trial": 234, "dateTime": 1509565257171, "trialdata": {"rt": -1, "stimulus": "<p id=\"stim\">SUMMIT</p>", "key_press": -1, "type": "PRES_VIS", "word": "summit", "wordID": 1404, "conditions": [24, 800, "v", 12000], "trial": 6, "serialpos": 9, "trial_type": "single-stim", "trial_index": 234, "time_elapsed": 968701, "internal_node_id": "0.0-171.0"}}, {"uniqueid": "MTK0222:3OS46CRSLG6FNG87EK3AQPKM59NV6A", "current_trial": 235, "dateTime": 1509565258828, "trialdata": {"rt": -1, "stimulus": "<p id=\"stim\">SHERIFF</p>", "key_press": -1, "type": "PRES_VIS", "word": "sheriff", "wordID": 1283, "conditions": [24, 800, "v", 12000], "trial": 6, "serialpos": 10, "trial_type": "single-stim", "trial_index": 235, "time_elapsed": 970359, "internal_node_id": "0.0-172.0"}}, {"uniqueid": "MTK0222:3OS46CRSLG6FNG87EK3AQPKM59NV6A", "current_trial": 236, "dateTime": 1509565260775, "trialdata": {"rt": -1, "stimulus": "<p id=\"stim\">COUNTY</p>", "key_press": -1, "type": "PRES_VIS", "word": "county", "wordID": 388, "conditions": [24, 800, "v", 12000], "trial": 6, "serialpos": 11, "trial_type": "single-stim", "trial_index": 236, "time_elapsed": 972306, "internal_node_id": "0.0-173.0"}}, {"uniqueid": "MTK0222:3OS46CRSLG6FNG87EK3AQPKM59NV6A", "current_trial": 237, "dateTime": 1509565262680, "trialdata": {"rt": -1, "stimulus": "<p id=\"stim\">HUSBAND</p>", "key_press": -1, "type": "PRES_VIS", "word": "husband", "wordID": 727, "conditions": [24, 800, "v", 12000], "trial": 6, "serialpos": 12, "trial_type": "single-stim", "trial_index": 237, "time_elapsed": 974210, "internal_node_id": "0.0-174.0"}}, {"uniqueid": "MTK0222:3OS46CRSLG6FNG87EK3AQPKM59NV6A", "current_trial": 238, "dateTime": 1509565264565, "trialdata": {"rt": -1, "stimulus": "<p id=\"stim\">OUTFIT</p>", "key_press": -1, "type": "PRES_VIS", "word": "outfit", "wordID": 987, "conditions": [24, 800, "v", 12000], "trial": 6, "serialpos": 13, "trial_type": "single-stim", "trial_index": 238, "time_elapsed": 976096, "internal_node_id": "0.0-175.0"}}, {"uniqueid": "MTK0222:3OS46CRSLG6FNG87EK3AQPKM59NV6A", "current_trial": 239, "dateTime": 1509565266392, "trialdata": {"rt": -1, "stimulus": "<p id=\"stim\">DORM</p>", "key_press": -1, "type": "PRES_VIS", "word": "dorm", "wordID": 487, "conditions": [24, 800, "v", 12000], "trial": 6, "serialpos": 14, "trial_type": "single-stim", "trial_index": 239, "time_elapsed": 977922, "internal_node_id": "0.0-176.0"}}, {"uniqueid": "MTK0222:3OS46CRSLG6FNG87EK3AQPKM59NV6A", "current_trial": 240, "dateTime": 1509565268053, "trialdata": {"rt": -1, "stimulus": "<p id=\"stim\">STUDENT</p>", "key_press": -1, "type": "PRES_VIS", "word": "student", "wordID": 1394, "conditions": [24, 800, "v", 12000], "trial": 6, "serialpos": 15, "trial_type": "single-stim", "trial_index": 240, "time_elapsed": 979584, "internal_node_id": "0.0-177.0"}}, {"uniqueid": "MTK0222:3OS46CRSLG6FNG87EK3AQPKM59NV6A", "current_trial": 241, "dateTime": 1509565270019, "trialdata": {"rt": -1, "stimulus": "<p id=\"stim\">SHELF</p>", "key_press": -1, "type": "PRES_VIS", "word": "shelf", "wordID": 1279, "conditions": [24, 800, "v", 12000], "trial": 6, "serialpos": 16, "trial_type": "single-stim", "trial_index": 241, "time_elapsed": 981550, "internal_node_id": "0.0-178.0"}}, {"uniqueid": "MTK0222:3OS46CRSLG6FNG87EK3AQPKM59NV6A", "current_trial": 242, "dateTime": 1509565271774, "trialdata": {"rt": -1, "stimulus": "<p id=\"stim\">COUSIN</p>", "key_press": -1, "type": "PRES_VIS", "word": "cousin", "wordID": 391, "conditions": [24, 800, "v", 12000], "trial": 6, "serialpos": 17, "trial_type": "single-stim", "trial_index": 242, "time_elapsed": 983304, "internal_node_id": "0.0-179.0"}}, {"uniqueid": "MTK0222:3OS46CRSLG6FNG87EK3AQPKM59NV6A", "current_trial": 243, "dateTime": 1509565273606, "trialdata": {"rt": -1, "stimulus": "<p id=\"stim\">NECKLACE</p>", "key_press": -1, "type": "PRES_VIS", "word": "necklace", "wordID": 939, "conditions": [24, 800, "v", 12000], "trial": 6, "serialpos": 18, "trial_type": "single-stim", "trial_index": 243, "time_elapsed": 985136, "internal_node_id": "0.0-180.0"}}, {"uniqueid": "MTK0222:3OS46CRSLG6FNG87EK3AQPKM59NV6A", "current_trial": 244, "dateTime": 1509565275320, "trialdata": {"rt": -1, "stimulus": "<p id=\"stim\">COMET</p>", "key_press": -1, "type": "PRES_VIS", "word": "comet", "wordID": 352, "conditions": [24, 800, "v", 12000], "trial": 6, "serialpos": 19, "trial_type": "single-stim", "trial_index": 244, "time_elapsed": 986851, "internal_node_id": "0.0-181.0"}}, {"uniqueid": "MTK0222:3OS46CRSLG6FNG87EK3AQPKM59NV6A", "current_trial": 245, "dateTime": 1509565277163, "trialdata": {"rt": -1, "stimulus": "<p id=\"stim\">DOLPHIN</p>", "key_press": -1, "type": "PRES_VIS", "word": "dolphin", "wordID": 482, "conditions": [24, 800, "v", 12000], "trial": 6, "serialpos": 20, "trial_type": "single-stim", "trial_index": 245, "time_elapsed": 988693, "internal_node_id": "0.0-182.0"}}, {"uniqueid": "MTK0222:3OS46CRSLG6FNG87EK3AQPKM59NV6A", "current_trial": 246, "dateTime": 1509565279101, "trialdata": {"rt": -1, "stimulus": "<p id=\"stim\">BLADE</p>", "key_press": -1, "type": "PRES_VIS", "word": "blade", "wordID": 133, "conditions": [24, 800, "v", 12000], "trial": 6, "serialpos": 21, "trial_type": "single-stim", "trial_index": 246, "time_elapsed": 990632, "internal_node_id": "0.0-183.0"}}, {"uniqueid": "MTK0222:3OS46CRSLG6FNG87EK3AQPKM59NV6A", "current_trial": 247, "dateTime": 1509565280835, "trialdata": {"rt": -1, "stimulus": "<p id=\"stim\">FRAME</p>", "key_press": -1, "type": "PRES_VIS", "word": "frame", "wordID": 599, "conditions": [24, 800, "v", 12000], "trial": 6, "serialpos": 22, "trial_type": "single-stim", "trial_index": 247, "time_elapsed": 992366, "internal_node_id": "0.0-184.0"}}, {"uniqueid": "MTK0222:3OS46CRSLG6FNG87EK3AQPKM59NV6A", "current_trial": 248, "dateTime": 1509565282445, "trialdata": {"rt": -1, "stimulus": "<p id=\"stim\">BRICK</p>", "key_press": -1, "type": "PRES_VIS", "word": "brick", "wordID": 171, "conditions": [24, 800, "v", 12000], "trial": 6, "serialpos": 23, "trial_type": "single-stim", "trial_index": 248, "time_elapsed": 993976, "internal_node_id": "0.0-185.0"}}, {"uniqueid": "MTK0222:3OS46CRSLG6FNG87EK3AQPKM59NV6A", "current_trial": 249, "dateTime": 1509565284914, "trialdata": {"rt": -1, "stimulus": "", "key_press": -1, "type": "PRE_RECALL_DELAY", "trial_type": "single-stim", "trial_index": 249, "time_elapsed": 996444, "internal_node_id": "0.0-186.0-0.0"}}, {"uniqueid": "MTK0222:3OS46CRSLG6FNG87EK3AQPKM59NV6A", "current_trial": 250, "dateTime": 1509565285415, "trialdata": {"rt": -1000, "stimulus": "/static/audio/400Hz.wav", "key_press": -1, "type": "PRE_RECALL_ALERT", "trial_type": "single-audio", "trial_index": 250, "time_elapsed": 996946, "internal_node_id": "0.0-187.0"}}, {"uniqueid": "MTK0222:3OS46CRSLG6FNG87EK3AQPKM59NV6A", "current_trial": 251, "dateTime": 1509565345426, "trialdata": {"rt": [1497, 2390, 3343, 3980, 5751, 6877, 9904, 14244, 15007, 29139], "recwords": ["brick", "frame", "student", "dorm", "sherrif", "husband", "county", "outfit", "film", "county"], "type": "FREE_RECALL", "conditions": [24, 800, "v", 12000], "trial": 6, "trial_type": "free-recall", "trial_index": 251, "time_elapsed": 1056950, "internal_node_id": "0.0-188.0-0.0"}}, {"uniqueid": "MTK0222:3OS46CRSLG6FNG87EK3AQPKM59NV6A", "current_trial": 252, "dateTime": 1509565355861, "trialdata": {"rt": 8433, "key_press": 32, "type": "INSTRUCTIONS", "trial_type": "text", "trial_index": 252, "time_elapsed": 1067392, "internal_node_id": "0.0-189.0"}}, {"uniqueid": "MTK0222:3OS46CRSLG6FNG87EK3AQPKM59NV6A", "current_trial": 253, "dateTime": 1509565369866, "trialdata": {"rt": [11256], "responses": ["15"], "num1": [2, 6], "num2": [9, 8], "num3": [4, 2], "type": "DISTRACTOR", "conditions": [12, 1600, "v", 12000], "trial": 7, "trial_type": "math-distractor", "trial_index": 253, "time_elapsed": 1081397, "internal_node_id": "0.0-190.0"}}, {"uniqueid": "MTK0222:3OS46CRSLG6FNG87EK3AQPKM59NV6A", "current_trial": 254, "dateTime": 1509565372868, "trialdata": {"rt": -1, "stimulus": "<p id=\"stim\">10</p>", "key_press": -1, "trial_type": "single-stim", "trial_index": 254, "time_elapsed": 1084399, "internal_node_id": "0.0-191.0-0.0"}}, {"uniqueid": "MTK0222:3OS46CRSLG6FNG87EK3AQPKM59NV6A", "current_trial": 255, "dateTime": 1509565373870, "trialdata": {"rt": -1, "stimulus": "<p id=\"stim\">9</p>", "key_press": -1, "trial_type": "single-stim", "trial_index": 255, "time_elapsed": 1085401, "internal_node_id": "0.0-191.0-1.0"}}, {"uniqueid": "MTK0222:3OS46CRSLG6FNG87EK3AQPKM59NV6A", "current_trial": 256, "dateTime": 1509565374872, "trialdata": {"rt": -1, "stimulus": "<p id=\"stim\">8</p>", "key_press": -1, "trial_type": "single-stim", "trial_index": 256, "time_elapsed": 1086403, "internal_node_id": "0.0-191.0-2.0"}}, {"uniqueid": "MTK0222:3OS46CRSLG6FNG87EK3AQPKM59NV6A", "current_trial": 257, "dateTime": 1509565375875, "trialdata": {"rt": -1, "stimulus": "<p id=\"stim\">7</p>", "key_press": -1, "trial_type": "single-stim", "trial_index": 257, "time_elapsed": 1087406, "internal_node_id": "0.0-191.0-3.0"}}, {"uniqueid": "MTK0222:3OS46CRSLG6FNG87EK3AQPKM59NV6A", "current_trial": 258, "dateTime": 1509565376877, "trialdata": {"rt": -1, "stimulus": "<p id=\"stim\">6</p>", "key_press": -1, "trial_type": "single-stim", "trial_index": 258, "time_elapsed": 1088408, "internal_node_id": "0.0-191.0-4.0"}}, {"uniqueid": "MTK0222:3OS46CRSLG6FNG87EK3AQPKM59NV6A", "current_trial": 259, "dateTime": 1509565377880, "trialdata": {"rt": -1, "stimulus": "<p id=\"stim\">5</p>", "key_press": -1, "trial_type": "single-stim", "trial_index": 259, "time_elapsed": 1089410, "internal_node_id": "0.0-191.0-5.0"}}, {"uniqueid": "MTK0222:3OS46CRSLG6FNG87EK3AQPKM59NV6A", "current_trial": 260, "dateTime": 1509565378882, "trialdata": {"rt": -1, "stimulus": "<p id=\"stim\">4</p>", "key_press": -1, "trial_type": "single-stim", "trial_index": 260, "time_elapsed": 1090413, "internal_node_id": "0.0-191.0-6.0"}}, {"uniqueid": "MTK0222:3OS46CRSLG6FNG87EK3AQPKM59NV6A", "current_trial": 261, "dateTime": 1509565379884, "trialdata": {"rt": -1, "stimulus": "<p id=\"stim\">3</p>", "key_press": -1, "trial_type": "single-stim", "trial_index": 261, "time_elapsed": 1091414, "internal_node_id": "0.0-191.0-7.0"}}, {"uniqueid": "MTK0222:3OS46CRSLG6FNG87EK3AQPKM59NV6A", "current_trial": 262, "dateTime": 1509565380886, "trialdata": {"rt": -1, "stimulus": "<p id=\"stim\">2</p>", "key_press": -1, "trial_type": "single-stim", "trial_index": 262, "time_elapsed": 1092417, "internal_node_id": "0.0-191.0-8.0"}}, {"uniqueid": "MTK0222:3OS46CRSLG6FNG87EK3AQPKM59NV6A", "current_trial": 263, "dateTime": 1509565381888, "trialdata": {"rt": -1, "stimulus": "<p id=\"stim\">1</p>", "key_press": -1, "trial_type": "single-stim", "trial_index": 263, "time_elapsed": 1093419, "internal_node_id": "0.0-191.0-9.0"}}, {"uniqueid": "MTK0222:3OS46CRSLG6FNG87EK3AQPKM59NV6A", "current_trial": 264, "dateTime": 1509565383390, "trialdata": {"rt": -1, "stimulus": "<p id=\"stim\">+</p>", "key_press": -1, "type": "FIXATION", "trial_type": "single-stim", "trial_index": 264, "time_elapsed": 1094921, "internal_node_id": "0.0-192.0-0.0"}}, {"uniqueid": "MTK0222:3OS46CRSLG6FNG87EK3AQPKM59NV6A", "current_trial": 265, "dateTime": 1509565384994, "trialdata": {"rt": -1, "stimulus": "<p id=\"stim\">WHISTLE</p>", "key_press": -1, "type": "PRES_VIS", "word": "whistle", "wordID": 1605, "conditions": [12, 1600, "v", 12000], "trial": 7, "serialpos": 0, "trial_type": "single-stim", "trial_index": 265, "time_elapsed": 1096524, "internal_node_id": "0.0-193.0"}}, {"uniqueid": "MTK0222:3OS46CRSLG6FNG87EK3AQPKM59NV6A", "current_trial": 266, "dateTime": 1509565387759, "trialdata": {"rt": -1, "stimulus": "<p id=\"stim\">SKILLET</p>", "key_press": -1, "type": "PRES_VIS", "word": "skillet", "wordID": 1316, "conditions": [12, 1600, "v", 12000], "trial": 7, "serialpos": 1, "trial_type": "single-stim", "trial_index": 266, "time_elapsed": 1099290, "internal_node_id": "0.0-194.0"}}, {"uniqueid": "MTK0222:3OS46CRSLG6FNG87EK3AQPKM59NV6A", "current_trial": 267, "dateTime": 1509565390201, "trialdata": {"rt": -1, "stimulus": "<p id=\"stim\">BRACES</p>", "key_press": -1, "type": "PRES_VIS", "word": "braces", "wordID": 163, "conditions": [12, 1600, "v", 12000], "trial": 7, "serialpos": 2, "trial_type": "single-stim", "trial_index": 267, "time_elapsed": 1101731, "internal_node_id": "0.0-195.0"}}, {"uniqueid": "MTK0222:3OS46CRSLG6FNG87EK3AQPKM59NV6A", "current_trial": 268, "dateTime": 1509565392984, "trialdata": {"rt": -1, "stimulus": "<p id=\"stim\">BEEF</p>", "key_press": -1, "type": "PRES_VIS", "word": "beef", "wordID": 112, "conditions": [12, 1600, "v", 12000], "trial": 7, "serialpos": 3, "trial_type": "single-stim", "trial_index": 268, "time_elapsed": 1104514, "internal_node_id": "0.0-196.0"}}, {"uniqueid": "MTK0222:3OS46CRSLG6FNG87EK3AQPKM59NV6A", "current_trial": 269, "dateTime": 1509565395441, "trialdata": {"rt": -1, "stimulus": "<p id=\"stim\">CATTLE</p>", "key_press": -1, "type": "PRES_VIS", "word": "cattle", "wordID": 260, "conditions": [12, 1600, "v", 12000], "trial": 7, "serialpos": 4, "trial_type": "single-stim", "trial_index": 269, "time_elapsed": 1106972, "internal_node_id": "0.0-197.0"}}, {"uniqueid": "MTK0222:3OS46CRSLG6FNG87EK3AQPKM59NV6A", "current_trial": 270, "dateTime": 1509565397911, "trialdata": {"rt": -1, "stimulus"