{"condition": 0, "counterbalance": 1665, "assignmentId": "39GHHAVOMGYSHY4ZE7WCQ3PEIC54JA", "workerId": "MTK0866", "hitId": "371DNNCG449LRIPCC2VRK1W82S88TZ", "currenttrial": 626, "bonus": 0, "data": [{"uniqueid": "MTK0866:39GHHAVOMGYSHY4ZE7WCQ3PEIC54JA", "current_trial": 0, "dateTime": 1512852686615, "trialdata": {"rt": 2155, "key_press": 32, "type": "INSTRUCTIONS", "trial_type": "text", "trial_index": 0, "time_elapsed": 2160, "internal_node_id": "0.0-0.0"}}, {"uniqueid": "MTK0866:39GHHAVOMGYSHY4ZE7WCQ3PEIC54JA", "current_trial": 1, "dateTime": 1512852698385, "trialdata": {"rt": 11767, "key_press": 175, "type": "INSTRUCTIONS", "trial_type": "text", "trial_index": 1, "time_elapsed": 13932, "internal_node_id": "0.0-1.0"}}, {"uniqueid": "MTK0866:39GHHAVOMGYSHY4ZE7WCQ3PEIC54JA", "current_trial": 2, "dateTime": 1512852707222, "trialdata": {"rt": [8818], "responses": ["ocean"], "type": "AUDIO_TEST", "trial_type": "audio-test", "trial_index": 2, "time_elapsed": 22769, "internal_node_id": "0.0-2.0"}}, {"uniqueid": "MTK0866:39GHHAVOMGYSHY4ZE7WCQ3PEIC54JA", "current_trial": 3, "dateTime": 1512852714738, "trialdata": {"rt": [7512], "responses": ["crystal"], "type": "AUDIO_TEST", "trial_type": "audio-test", "trial_index": 3, "time_elapsed": 30285, "internal_node_id": "0.0-3.0"}}, {"uniqueid": "MTK0866:39GHHAVOMGYSHY4ZE7WCQ3PEIC54JA", "current_trial": 4, "dateTime": 1512852728610, "trialdata": {"rt": [13869], "responses": ["spice"], "type": "AUDIO_TEST", "trial_type": "audio-test", "trial_index": 4, "time_elapsed": 44157, "internal_node_id": "0.0-4.0"}}, {"uniqueid": "MTK0866:39GHHAVOMGYSHY4ZE7WCQ3PEIC54JA", "current_trial": 5, "dateTime": 1512852764574, "trialdata": {"rt": 35208, "responses": "{\"Q0\":\"2 A.M.\",\"Q1\":\"10 A.M.\",\"Q2\":\"very alert\"}", "type": "SLEEP_SURVEY", "trial_type": "survey-text", "trial_index": 5, "time_elapsed": 80121, "internal_node_id": "0.0-5.0"}}, {"uniqueid": "MTK0866:39GHHAVOMGYSHY4ZE7WCQ3PEIC54JA", "current_trial": 6, "dateTime": 1512852826322, "trialdata": {"rt": 60744, "key_press": 32, "type": "INSTRUCTIONS", "trial_type": "text", "trial_index": 6, "time_elapsed": 141869, "internal_node_id": "0.0-6.0"}}, {"uniqueid": "MTK0866:39GHHAVOMGYSHY4ZE7WCQ3PEIC54JA", "current_trial": 7, "dateTime": 1512852845878, "trialdata": {"rt": 19054, "key_press": 32, "type": "INSTRUCTIONS", "trial_type": "text", "trial_index": 7, "time_elapsed": 161425, "internal_node_id": "0.0-7.0"}}, {"uniqueid": "MTK0866:39GHHAVOMGYSHY4ZE7WCQ3PEIC54JA", "current_trial": 8, "dateTime": 1512852861628, "trialdata": {"rt": 15248, "key_press": 32, "type": "INSTRUCTIONS", "trial_type": "text", "trial_index": 8, "time_elapsed": 177175, "internal_node_id": "0.0-8.0"}}, {"uniqueid": "MTK0866:39GHHAVOMGYSHY4ZE7WCQ3PEIC54JA", "current_trial": 9, "dateTime": 1512852880639, "trialdata": {"rt": [6264, 11054, 16171], "responses": ["17", "18", "18"], "num1": [3, 5, 4, 2], "num2": [8, 4, 7, 5], "num3": [6, 9, 7, 3], "type": "DISTRACTOR", "conditions": [18, 1200, "v", 18000], "trial": 0, "trial_type": "math-distractor", "trial_index": 9, "time_elapsed": 196185, "internal_node_id": "0.0-9.0"}}, {"uniqueid": "MTK0866:39GHHAVOMGYSHY4ZE7WCQ3PEIC54JA", "current_trial": 10, "dateTime": 1512852883643, "trialdata": {"rt": -1, "stimulus": "<p id=\"stim\">10</p>", "key_press": -1, "trial_type": "single-stim", "trial_index": 10, "time_elapsed": 199189, "internal_node_id": "0.0-10.0-0.0"}}, {"uniqueid": "MTK0866:39GHHAVOMGYSHY4ZE7WCQ3PEIC54JA", "current_trial": 11, "dateTime": 1512852884645, "trialdata": {"rt": -1, "stimulus": "<p id=\"stim\">9</p>", "key_press": -1, "trial_type": "single-stim", "trial_index": 11, "time_elapsed": 200192, "internal_node_id": "0.0-10.0-1.0"}}, {"uniqueid": "MTK0866:39GHHAVOMGYSHY4ZE7WCQ3PEIC54JA", "current_trial": 12, "dateTime": 1512852885647, "trialdata": {"rt": -1, "stimulus": "<p id=\"stim\">8</p>", "key_press": -1, "trial_type": "single-stim", "trial_index": 12, "time_elapsed": 201194, "internal_node_id": "0.0-10.0-2.0"}}, {"uniqueid": "MTK0866:39GHHAVOMGYSHY4ZE7WCQ3PEIC54JA", "current_trial": 13, "dateTime": 1512852886648, "trialdata": {"rt": -1, "stimulus": "<p id=\"stim\">7</p>", "key_press": -1, "trial_type": "single-stim", "trial_index": 13, "time_elapsed": 202195, "internal_node_id": "0.0-10.0-3.0"}}, {"uniqueid": "MTK0866:39GHHAVOMGYSHY4ZE7WCQ3PEIC54JA", "current_trial": 14, "dateTime": 1512852887649, "trialdata": {"rt": -1, "stimulus": "<p id=\"stim\">6</p>", "key_press": -1, "trial_type": "single-stim", "trial_index": 14, "time_elapsed": 203196, "internal_node_id": "0.0-10.0-4.0"}}, {"uniqueid": "MTK0866:39GHHAVOMGYSHY4ZE7WCQ3PEIC54JA", "current_trial": 15, "dateTime": 1512852888652, "trialdata": {"rt": -1, "stimulus": "<p id=\"stim\">5</p>", "key_press": -1, "trial_type": "single-stim", "trial_index": 15, "time_elapsed": 204199, "internal_node_id": "0.0-10.0-5.0"}}, {"uniqueid": "MTK0866:39GHHAVOMGYSHY4ZE7WCQ3PEIC54JA", "current_trial": 16, "dateTime": 1512852889654, "trialdata": {"rt": -1, "stimulus": "<p id=\"stim\">4</p>", "key_press": -1, "trial_type": "single-stim", "trial_index": 16, "time_elapsed": 205201, "internal_node_id": "0.0-10.0-6.0"}}, {"uniqueid": "MTK0866:39GHHAVOMGYSHY4ZE7WCQ3PEIC54JA", "current_trial": 17, "dateTime": 1512852890656, "trialdata": {"rt": -1, "stimulus": "<p id=\"stim\">3</p>", "key_press": -1, "trial_type": "single-stim", "trial_index": 17, "time_elapsed": 206203, "internal_node_id": "0.0-10.0-7.0"}}, {"uniqueid": "MTK0866:39GHHAVOMGYSHY4ZE7WCQ3PEIC54JA", "current_trial": 18, "dateTime": 1512852891658, "trialdata": {"rt": -1, "stimulus": "<p id=\"stim\">2</p>", "key_press": -1, "trial_type": "single-stim", "trial_index": 18, "time_elapsed": 207204, "internal_node_id": "0.0-10.0-8.0"}}, {"uniqueid": "MTK0866:39GHHAVOMGYSHY4ZE7WCQ3PEIC54JA", "current_trial": 19, "dateTime": 1512852892661, "trialdata": {"rt": -1, "stimulus": "<p id=\"stim\">1</p>", "key_press": -1, "trial_type": "single-stim", "trial_index": 19, "time_elapsed": 208208, "internal_node_id": "0.0-10.0-9.0"}}, {"uniqueid": "MTK0866:39GHHAVOMGYSHY4ZE7WCQ3PEIC54JA", "current_trial": 20, "dateTime": 1512852894163, "trialdata": {"rt": -1, "stimulus": "<p id=\"stim\">+</p>", "key_press": -1, "type": "FIXATION", "trial_type": "single-stim", "trial_index": 20, "time_elapsed": 209710, "internal_node_id": "0.0-11.0-0.0"}}, {"uniqueid": "MTK0866:39GHHAVOMGYSHY4ZE7WCQ3PEIC54JA", "current_trial": 21, "dateTime": 1512852895364, "trialdata": {"rt": -1, "stimulus": "<p id=\"stim\">HEART</p>", "key_press": -1, "type": "PRES_VIS", "word": "heart", "wordID": 696, "conditions": [18, 1200, "v", 18000], "trial": 0, "serialpos": 0, "trial_type": "single-stim", "trial_index": 21, "time_elapsed": 210911, "internal_node_id": "0.0-12.0"}}, {"uniqueid": "MTK0866:39GHHAVOMGYSHY4ZE7WCQ3PEIC54JA", "current_trial": 22, "dateTime": 1512852897384, "trialdata": {"rt": -1, "stimulus": "<p id=\"stim\">PEBBLE</p>", "key_press": -1, "type": "PRES_VIS", "word": "pebble", "wordID": 1034, "conditions": [18, 1200, "v", 18000], "trial": 0, "serialpos": 1, "trial_type": "single-stim", "trial_index": 22, "time_elapsed": 212930, "internal_node_id": "0.0-13.0"}}, {"uniqueid": "MTK0866:39GHHAVOMGYSHY4ZE7WCQ3PEIC54JA", "current_trial": 23, "dateTime": 1512852899784, "trialdata": {"rt": -1, "stimulus": "<p id=\"stim\">CRAB</p>", "key_press": -1, "type": "PRES_VIS", "word": "crab", "wordID": 396, "conditions": [18, 1200, "v", 18000], "trial": 0, "serialpos": 2, "trial_type": "single-stim", "trial_index": 23, "time_elapsed": 215331, "internal_node_id": "0.0-14.0"}}, {"uniqueid": "MTK0866:39GHHAVOMGYSHY4ZE7WCQ3PEIC54JA", "current_trial": 24, "dateTime": 1512852901845, "trialdata": {"rt": -1, "stimulus": "<p id=\"stim\">NAPKIN</p>", "key_press": -1, "type": "PRES_VIS", "word": "napkin", "wordID": 936, "conditions": [18, 1200, "v", 18000], "trial": 0, "serialpos": 3, "trial_type": "single-stim", "trial_index": 24, "time_elapsed": 217392, "internal_node_id": "0.0-15.0"}}, {"uniqueid": "MTK0866:39GHHAVOMGYSHY4ZE7WCQ3PEIC54JA", "current_trial": 25, "dateTime": 1512852904133, "trialdata": {"rt": -1, "stimulus": "<p id=\"stim\">BIKE</p>", "key_press": -1, "type": "PRES_VIS", "word": "bike", "wordID": 124, "conditions": [18, 1200, "v", 18000], "trial": 0, "serialpos": 4, "trial_type": "single-stim", "trial_index": 25, "time_elapsed": 219680, "internal_node_id": "0.0-16.0"}}, {"uniqueid": "MTK0866:39GHHAVOMGYSHY4ZE7WCQ3PEIC54JA", "current_trial": 26, "dateTime": 1512852906191, "trialdata": {"rt": -1, "stimulus": "<p id=\"stim\">RABBIT</p>", "key_press": -1, "type": "PRES_VIS", "word": "rabbit", "wordID": 1151, "conditions": [18, 1200, "v", 18000], "trial": 0, "serialpos": 5, "trial_type": "single-stim", "trial_index": 26, "time_elapsed": 221738, "internal_node_id": "0.0-17.0"}}, {"uniqueid": "MTK0866:39GHHAVOMGYSHY4ZE7WCQ3PEIC54JA", "current_trial": 27, "dateTime": 1512852908439, "trialdata": {"rt": -1, "stimulus": "<p id=\"stim\">DRAGON</p>", "key_press": -1, "type": "PRES_VIS", "word": "dragon", "wordID": 491, "conditions": [18, 1200, "v", 18000], "trial": 0, "serialpos": 6, "trial_type": "single-stim", "trial_index": 27, "time_elapsed": 223986, "internal_node_id": "0.0-18.0"}}, {"uniqueid": "MTK0866:39GHHAVOMGYSHY4ZE7WCQ3PEIC54JA", "current_trial": 28, "dateTime": 1512852910553, "trialdata": {"rt": -1, "stimulus": "<p id=\"stim\">POSSUM</p>", "key_press": -1, "type": "PRES_VIS", "word": "possum", "wordID": 1111, "conditions": [18, 1200, "v", 18000], "trial": 0, "serialpos": 7, "trial_type": "single-stim", "trial_index": 28, "time_elapsed": 226100, "internal_node_id": "0.0-19.0"}}, {"uniqueid": "MTK0866:39GHHAVOMGYSHY4ZE7WCQ3PEIC54JA", "current_trial": 29, "dateTime": 1512852912633, "trialdata": {"rt": -1, "stimulus": "<p id=\"stim\">UNCLE</p>", "key_press": -1, "type": "PRES_VIS", "word": "uncle", "wordID": 1535, "conditions": [18, 1200, "v", 18000], "trial": 0, "serialpos": 8, "trial_type": "single-stim", "trial_index": 29, "time_elapsed": 228179, "internal_node_id": "0.0-20.0"}}, {"uniqueid": "MTK0866:39GHHAVOMGYSHY4ZE7WCQ3PEIC54JA", "current_trial": 30, "dateTime": 1512852914691, "trialdata": {"rt": -1, "stimulus": "<p id=\"stim\">DRIVER</p>", "key_press": -1, "type": "PRES_VIS", "word": "driver", "wordID": 498, "conditions": [18, 1200, "v", 18000], "trial": 0, "serialpos": 9, "trial_type": "single-stim", "trial_index": 30, "time_elapsed": 230238, "internal_node_id": "0.0-21.0"}}, {"uniqueid": "MTK0866:39GHHAVOMGYSHY4ZE7WCQ3PEIC54JA", "current_trial": 31, "dateTime": 1512852916994, "trialdata": {"rt": -1, "stimulus": "<p id=\"stim\">GARLIC</p>", "key_press": -1, "type": "PRES_VIS", "word": "garlic", "wordID": 623, "conditions": [18, 1200, "v", 18000], "trial": 0, "serialpos": 10, "trial_type": "single-stim", "trial_index": 31, "time_elapsed": 232541, "internal_node_id": "0.0-22.0"}}, {"uniqueid": "MTK0866:39GHHAVOMGYSHY4ZE7WCQ3PEIC54JA", "current_trial": 32, "dateTime": 1512852919370, "trialdata": {"rt": -1, "stimulus": "<p id=\"stim\">WAITRESS</p>", "key_press": -1, "type": "PRES_VIS", "word": "waitress", "wordID": 1580, "conditions": [18, 1200, "v", 18000], "trial": 0, "serialpos": 11, "trial_type": "single-stim", "trial_index": 32, "time_elapsed": 234916, "internal_node_id": "0.0-23.0"}}, {"uniqueid": "MTK0866:39GHHAVOMGYSHY4ZE7WCQ3PEIC54JA", "current_trial": 33, "dateTime": 1512852921475, "trialdata": {"rt": -1, "stimulus": "<p id=\"stim\">ANKLE</p>", "key_press": -1, "type": "PRES_VIS", "word": "ankle", "wordID": 23, "conditions": [18, 1200, "v", 18000], "trial": 0, "serialpos": 12, "trial_type": "single-stim", "trial_index": 33, "time_elapsed": 237022, "internal_node_id": "0.0-24.0"}}, {"uniqueid": "MTK0866:39GHHAVOMGYSHY4ZE7WCQ3PEIC54JA", "current_trial": 34, "dateTime": 1512852923829, "trialdata": {"rt": -1, "stimulus": "<p id=\"stim\">DONKEY</p>", "key_press": -1, "type": "PRES_VIS", "word": "donkey", "wordID": 483, "conditions": [18, 1200, "v", 18000], "trial": 0, "serialpos": 13, "trial_type": "single-stim", "trial_index": 34, "time_elapsed": 239375, "internal_node_id": "0.0-25.0"}}, {"uniqueid": "MTK0866:39GHHAVOMGYSHY4ZE7WCQ3PEIC54JA", "current_trial": 35, "dateTime": 1512852926129, "trialdata": {"rt": -1, "stimulus": "<p id=\"stim\">ACTOR</p>", "key_press": -1, "type": "PRES_VIS", "word": "actor", "wordID": 4, "conditions": [18, 1200, "v", 18000], "trial": 0, "serialpos": 14, "trial_type": "single-stim", "trial_index": 35, "time_elapsed": 241676, "internal_node_id": "0.0-26.0"}}, {"uniqueid": "MTK0866:39GHHAVOMGYSHY4ZE7WCQ3PEIC54JA", "current_trial": 36, "dateTime": 1512852928460, "trialdata": {"rt": -1, "stimulus": "<p id=\"stim\">SNACK</p>", "key_press": -1, "type": "PRES_VIS", "word": "snack", "wordID": 1330, "conditions": [18, 1200, "v", 18000], "trial": 0, "serialpos": 15, "trial_type": "single-stim", "trial_index": 36, "time_elapsed": 244007, "internal_node_id": "0.0-27.0"}}, {"uniqueid": "MTK0866:39GHHAVOMGYSHY4ZE7WCQ3PEIC54JA", "current_trial": 37, "dateTime": 1512852930528, "trialdata": {"rt": -1, "stimulus": "<p id=\"stim\">DOLPHIN</p>", "key_press": -1, "type": "PRES_VIS", "word": "dolphin", "wordID": 482, "conditions": [18, 1200, "v", 18000], "trial": 0, "serialpos": 16, "trial_type": "single-stim", "trial_index": 37, "time_elapsed": 246075, "internal_node_id": "0.0-28.0"}}, {"uniqueid": "MTK0866:39GHHAVOMGYSHY4ZE7WCQ3PEIC54JA", "current_trial": 38, "dateTime": 1512852932841, "trialdata": {"rt": -1, "stimulus": "<p id=\"stim\">AIRPLANE</p>", "key_press": -1, "type": "PRES_VIS", "word": "airplane", "wordID": 11, "conditions": [18, 1200, "v", 18000], "trial": 0, "serialpos": 17, "trial_type": "single-stim", "trial_index": 38, "time_elapsed": 248387, "internal_node_id": "0.0-29.0"}}, {"uniqueid": "MTK0866:39GHHAVOMGYSHY4ZE7WCQ3PEIC54JA", "current_trial": 39, "dateTime": 1512852935231, "trialdata": {"rt": -1, "stimulus": "", "key_press": -1, "type": "PRE_RECALL_DELAY", "trial_type": "single-stim", "trial_index": 39, "time_elapsed": 250777, "internal_node_id": "0.0-30.0-0.0"}}, {"uniqueid": "MTK0866:39GHHAVOMGYSHY4ZE7WCQ3PEIC54JA", "current_trial": 40, "dateTime": 1512852935742, "trialdata": {"rt": -1000, "stimulus": "/static/audio/400Hz.wav", "key_press": -1, "type": "PRE_RECALL_ALERT", "trial_type": "single-audio", "trial_index": 40, "time_elapsed": 251289, "internal_node_id": "0.0-31.0"}}, {"uniqueid": "MTK0866:39GHHAVOMGYSHY4ZE7WCQ3PEIC54JA", "current_trial": 41, "dateTime": 1512852995751, "trialdata": {"rt": [8177, 9805, 12966, 14340, 15786, 18603, 20890, 25527, 46982, 58166], "recwords": ["dolphin", "actor", "ankle", "uncle", "driver", "snack", "dragon", "heart", "waitress", "garlic"], "type": "FREE_RECALL", "conditions": [18, 1200, "v", 18000], "trial": 0, "trial_type": "free-recall", "trial_index": 41, "time_elapsed": 311294, "internal_node_id": "0.0-32.0-0.0"}}, {"uniqueid": "MTK0866:39GHHAVOMGYSHY4ZE7WCQ3PEIC54JA", "current_trial": 42, "dateTime": 1512852999731, "trialdata": {"rt": 1978, "key_press": 32, "type": "INSTRUCTIONS", "trial_type": "text", "trial_index": 42, "time_elapsed": 315278, "internal_node_id": "0.0-33.0"}}, {"uniqueid": "MTK0866:39GHHAVOMGYSHY4ZE7WCQ3PEIC54JA", "current_trial": 43, "dateTime": 1512853019735, "trialdata": {"rt": [2712, 5847, 13608, 16159, 17843], "responses": ["13", "11", "22", "11", "11"], "num1": [6, 3, 5, 2, 4, 1], "num2": [4, 2, 8, 7, 5, 9], "num3": [3, 6, 9, 2, 1, 8], "type": "DISTRACTOR", "conditions": [18, 1200, "a", 18000], "trial": 1, "trial_type": "math-distractor", "trial_index": 43, "time_elapsed": 335282, "internal_node_id": "0.0-34.0"}}, {"uniqueid": "MTK0866:39GHHAVOMGYSHY4ZE7WCQ3PEIC54JA", "current_trial": 44, "dateTime": 1512853022738, "trialdata": {"rt": -1, "stimulus": "<p id=\"stim\">10</p>", "key_press": -1, "trial_type": "single-stim", "trial_index": 44, "time_elapsed": 338284, "internal_node_id": "0.0-35.0-0.0"}}, {"uniqueid": "MTK0866:39GHHAVOMGYSHY4ZE7WCQ3PEIC54JA", "current_trial": 45, "dateTime": 1512853023740, "trialdata": {"rt": -1, "stimulus": "<p id=\"stim\">9</p>", "key_press": -1, "trial_type": "single-stim", "trial_index": 45, "time_elapsed": 339286, "internal_node_id": "0.0-35.0-1.0"}}, {"uniqueid": "MTK0866:39GHHAVOMGYSHY4ZE7WCQ3PEIC54JA", "current_trial": 46, "dateTime": 1512853024742, "trialdata": {"rt": -1, "stimulus": "<p id=\"stim\">8</p>", "key_press": -1, "trial_type": "single-stim", "trial_index": 46, "time_elapsed": 340288, "internal_node_id": "0.0-35.0-2.0"}}, {"uniqueid": "MTK0866:39GHHAVOMGYSHY4ZE7WCQ3PEIC54JA", "current_trial": 47, "dateTime": 1512853025743, "trialdata": {"rt": -1, "stimulus": "<p id=\"stim\">7</p>", "key_press": -1, "trial_type": "single-stim", "trial_index": 47, "time_elapsed": 341290, "internal_node_id": "0.0-35.0-3.0"}}, {"uniqueid": "MTK0866:39GHHAVOMGYSHY4ZE7WCQ3PEIC54JA", "current_trial": 48, "dateTime": 1512853026746, "trialdata": {"rt": -1, "stimulus": "<p id=\"stim\">6</p>", "key_press": -1, "trial_type": "single-stim", "trial_index": 48, "time_elapsed": 342292, "internal_node_id": "0.0-35.0-4.0"}}, {"uniqueid": "MTK0866:39GHHAVOMGYSHY4ZE7WCQ3PEIC54JA", "current_trial": 49, "dateTime": 1512853027747, "trialdata": {"rt": -1, "stimulus": "<p id=\"stim\">5</p>", "key_press": -1, "trial_type": "single-stim", "trial_index": 49, "time_elapsed": 343293, "internal_node_id": "0.0-35.0-5.0"}}, {"uniqueid": "MTK0866:39GHHAVOMGYSHY4ZE7WCQ3PEIC54JA", "current_trial": 50, "dateTime": 1512853028750, "trialdata": {"rt": -1, "stimulus": "<p id=\"stim\">4</p>", "key_press": -1, "trial_type": "single-stim", "trial_index": 50, "time_elapsed": 344297, "internal_node_id": "0.0-35.0-6.0"}}, {"uniqueid": "MTK0866:39GHHAVOMGYSHY4ZE7WCQ3PEIC54JA", "current_trial": 51, "dateTime": 1512853029751, "trialdata": {"rt": -1, "stimulus": "<p id=\"stim\">3</p>", "key_press": -1, "trial_type": "single-stim", "trial_index": 51, "time_elapsed": 345297, "internal_node_id": "0.0-35.0-7.0"}}, {"uniqueid": "MTK0866:39GHHAVOMGYSHY4ZE7WCQ3PEIC54JA", "current_trial": 52, "dateTime": 1512853030753, "trialdata": {"rt": -1, "stimulus": "<p id=\"stim\">2</p>", "key_press": -1, "trial_type": "single-stim", "trial_index": 52, "time_elapsed": 346300, "internal_node_id": "0.0-35.0-8.0"}}, {"uniqueid": "MTK0866:39GHHAVOMGYSHY4ZE7WCQ3PEIC54JA", "current_trial": 53, "dateTime": 1512853031756, "trialdata": {"rt": -1, "stimulus": "<p id=\"stim\">1</p>", "key_press": -1, "trial_type": "single-stim", "trial_index": 53, "time_elapsed": 347302, "internal_node_id": "0.0-35.0-9.0"}}, {"uniqueid": "MTK0866:39GHHAVOMGYSHY4ZE7WCQ3PEIC54JA", "current_trial": 54, "dateTime": 1512853033258, "trialdata": {"rt": -1, "stimulus": "<p id=\"stim\">+</p>", "key_press": -1, "type": "FIXATION", "trial_type": "single-stim", "trial_index": 54, "time_elapsed": 348804, "internal_node_id": "0.0-36.0-0.0"}}, {"uniqueid": "MTK0866:39GHHAVOMGYSHY4ZE7WCQ3PEIC54JA", "current_trial": 55, "dateTime": 1512853035490, "trialdata": {"rt": -1000, "stimulus": "/static/audio/wordpool/TAXI.wav", "key_press": -1, "type": "PRES_AUD", "word": "taxi", "wordID": 1437, "conditions": [18, 1200, "a", 18000], "trial": 1, "serialpos": 0, "trial_type": "single-audio", "trial_index": 55, "time_elapsed": 351037, "internal_node_id": "0.0-37.0"}}, {"uniqueid": "MTK0866:39GHHAVOMGYSHY4ZE7WCQ3PEIC54JA", "current_trial": 56, "dateTime": 1512853037762, "trialdata": {"rt": -1000, "stimulus": "/static/audio/wordpool/SUPPER.wav", "key_press": -1, "type": "PRES_AUD", "word": "supper", "wordID": 1410, "conditions": [18, 1200, "a", 18000], "trial": 1, "serialpos": 1, "trial_type": "single-audio", "trial_index": 56, "time_elapsed": 353309, "internal_node_id": "0.0-38.0"}}, {"uniqueid": "MTK0866:39GHHAVOMGYSHY4ZE7WCQ3PEIC54JA", "current_trial": 57, "dateTime": 1512853040072, "trialdata": {"rt": -1000, "stimulus": "/static/audio/wordpool/YACHT.wav", "key_press": -1, "type": "PRES_AUD", "word": "yacht", "wordID": 1628, "conditions": [18, 1200, "a", 18000], "trial": 1, "serialpos": 2, "trial_type": "single-audio", "trial_index": 57, "time_elapsed": 355619, "internal_node_id": "0.0-39.0"}}, {"uniqueid": "MTK0866:39GHHAVOMGYSHY4ZE7WCQ3PEIC54JA", "current_trial": 58, "dateTime": 1512853042216, "trialdata": {"rt": -1000, "stimulus": "/static/audio/wordpool/BOUQUET.wav", "key_press": -1, "type": "PRES_AUD", "word": "bouquet", "wordID": 156, "conditions": [18, 1200, "a", 18000], "trial": 1, "serialpos": 3, "trial_type": "single-audio", "trial_index": 58, "time_elapsed": 357763, "internal_node_id": "0.0-40.0"}}, {"uniqueid": "MTK0866:39GHHAVOMGYSHY4ZE7WCQ3PEIC54JA", "current_trial": 59, "dateTime": 1512853044572, "trialdata": {"rt": -1000, "stimulus": "/static/audio/wordpool/TRIBE.wav", "key_press": -1, "type": "PRES_AUD", "word": "tribe", "wordID": 1504, "conditions": [18, 1200, "a", 18000], "trial": 1, "serialpos": 4, "trial_type": "single-audio", "trial_index": 59, "time_elapsed": 360119, "internal_node_id": "0.0-41.0"}}, {"uniqueid": "MTK0866:39GHHAVOMGYSHY4ZE7WCQ3PEIC54JA", "current_trial": 60, "dateTime": 1512853046878, "trialdata": {"rt": -1000, "stimulus": "/static/audio/wordpool/CHAMPAGNE.wav", "key_press": -1, "type": "PRES_AUD", "word": "champagne", "wordID": 277, "conditions": [18, 1200, "a", 18000], "trial": 1, "serialpos": 5, "trial_type": "single-audio", "trial_index": 60, "time_elapsed": 362425, "internal_node_id": "0.0-42.0"}}, {"uniqueid": "MTK0866:39GHHAVOMGYSHY4ZE7WCQ3PEIC54JA", "current_trial": 61, "dateTime": 1512853049200, "trialdata": {"rt": -1000, "stimulus": "/static/audio/wordpool/SODA.wav", "key_press": -1, "type": "PRES_AUD", "word": "soda", "wordID": 1340, "conditions": [18, 1200, "a", 18000], "trial": 1, "serialpos": 6, "trial_type": "single-audio", "trial_index": 61, "time_elapsed": 364746, "internal_node_id": "0.0-43.0"}}, {"uniqueid": "MTK0866:39GHHAVOMGYSHY4ZE7WCQ3PEIC54JA", "current_trial": 62, "dateTime": 1512853051216, "trialdata": {"rt": -1000, "stimulus": "/static/audio/wordpool/BRACES.wav", "key_press": -1, "type": "PRES_AUD", "word": "braces", "wordID": 163, "conditions": [18, 1200, "a", 18000], "trial": 1, "serialpos": 7, "trial_type": "single-audio", "trial_index": 62, "time_elapsed": 366762, "internal_node_id": "0.0-44.0"}}, {"uniqueid": "MTK0866:39GHHAVOMGYSHY4ZE7WCQ3PEIC54JA", "current_trial": 63, "dateTime": 1512853053275, "trialdata": {"rt": -1000, "stimulus": "/static/audio/wordpool/APRON.wav", "key_press": -1, "type": "PRES_AUD", "word": "apron", "wordID": 34, "conditions": [18, 1200, "a", 18000], "trial": 1, "serialpos": 8, "trial_type": "single-audio", "trial_index": 63, "time_elapsed": 368822, "internal_node_id": "0.0-45.0"}}, {"uniqueid": "MTK0866:39GHHAVOMGYSHY4ZE7WCQ3PEIC54JA", "current_trial": 64, "dateTime": 1512853055417, "trialdata": {"rt": -1000, "stimulus": "/static/audio/wordpool/SCARF.wav", "key_press": -1, "type": "PRES_AUD", "word": "scarf", "wordID": 1245, "conditions": [18, 1200, "a", 18000], "trial": 1, "serialpos": 9, "trial_type": "single-audio", "trial_index": 64, "time_elapsed": 370964, "internal_node_id": "0.0-46.0"}}, {"uniqueid": "MTK0866:39GHHAVOMGYSHY4ZE7WCQ3PEIC54JA", "current_trial": 65, "dateTime": 1512853057476, "trialdata": {"rt": -1000, "stimulus": "/static/audio/wordpool/SPOON.wav", "key_press": -1, "type": "PRES_AUD", "word": "spoon", "wordID": 1356, "conditions": [18, 1200, "a", 18000], "trial": 1, "serialpos": 10, "trial_type": "single-audio", "trial_index": 65, "time_elapsed": 373023, "internal_node_id": "0.0-47.0"}}, {"uniqueid": "MTK0866:39GHHAVOMGYSHY4ZE7WCQ3PEIC54JA", "current_trial": 66, "dateTime": 1512853059527, "trialdata": {"rt": -1000, "stimulus": "/static/audio/wordpool/MARKER.wav", "key_press": -1, "type": "PRES_AUD", "word": "marker", "wordID": 869, "conditions": [18, 1200, "a", 18000], "trial": 1, "serialpos": 11, "trial_type": "single-audio", "trial_index": 66, "time_elapsed": 375074, "internal_node_id": "0.0-48.0"}}, {"uniqueid": "MTK0866:39GHHAVOMGYSHY4ZE7WCQ3PEIC54JA", "current_trial": 67, "dateTime": 1512853061667, "trialdata": {"rt": -1000, "stimulus": "/static/audio/wordpool/BUCKET.wav", "key_press": -1, "type": "PRES_AUD", "word": "bucket", "wordID": 183, "conditions": [18, 1200, "a", 18000], "trial": 1, "serialpos": 12, "trial_type": "single-audio", "trial_index": 67, "time_elapsed": 377214, "internal_node_id": "0.0-49.0"}}, {"uniqueid": "MTK0866:39GHHAVOMGYSHY4ZE7WCQ3PEIC54JA", "current_trial": 68, "dateTime": 1512853064014, "trialdata": {"rt": -1000, "stimulus": "/static/audio/wordpool/LASER.wav", "key_press": -1, "type": "PRES_AUD", "word": "laser", "wordID": 800, "conditions": [18, 1200, "a", 18000], "trial": 1, "serialpos": 13, "trial_type": "single-audio", "trial_index": 68, "time_elapsed": 379558, "internal_node_id": "0.0-50.0"}}, {"uniqueid": "MTK0866:39GHHAVOMGYSHY4ZE7WCQ3PEIC54JA", "current_trial": 69, "dateTime": 1512853066059, "trialdata": {"rt": -1000, "stimulus": "/static/audio/wordpool/BEAVER.wav", "key_press": -1, "type": "PRES_AUD", "word": "beaver", "wordID": 108, "conditions": [18, 1200, "a", 18000], "trial": 1, "serialpos": 14, "trial_type": "single-audio", "trial_index": 69, "time_elapsed": 381606, "internal_node_id": "0.0-51.0"}}, {"uniqueid": "MTK0866:39GHHAVOMGYSHY4ZE7WCQ3PEIC54JA", "current_trial": 70, "dateTime": 1512853068316, "trialdata": {"rt": -1000, "stimulus": "/static/audio/wordpool/RIFLE.wav", "key_press": -1, "type": "PRES_AUD", "word": "rifle", "wordID": 1191, "conditions": [18, 1200, "a", 18000], "trial": 1, "serialpos": 15, "trial_type": "single-audio", "trial_index": 70, "time_elapsed": 383863, "internal_node_id": "0.0-52.0"}}, {"uniqueid": "MTK0866:39GHHAVOMGYSHY4ZE7WCQ3PEIC54JA", "current_trial": 71, "dateTime": 1512853070564, "trialdata": {"rt": -1000, "stimulus": "/static/audio/wordpool/ORANGE.wav", "key_press": -1, "type": "PRES_AUD", "word": "orange", "wordID": 979, "conditions": [18, 1200, "a", 18000], "trial": 1, "serialpos": 16, "trial_type": "single-audio", "trial_index": 71, "time_elapsed": 386111, "internal_node_id": "0.0-53.0"}}, {"uniqueid": "MTK0866:39GHHAVOMGYSHY4ZE7WCQ3PEIC54JA", "current_trial": 72, "dateTime": 1512853072887, "trialdata": {"rt": -1000, "stimulus": "/static/audio/wordpool/CROWN.wav", "key_press": -1, "type": "PRES_AUD", "word": "crown", "wordID": 414, "conditions": [18, 1200, "a", 18000], "trial": 1, "serialpos": 17, "trial_type": "single-audio", "trial_index": 72, "time_elapsed": 388434, "internal_node_id": "0.0-54.0"}}, {"uniqueid": "MTK0866:39GHHAVOMGYSHY4ZE7WCQ3PEIC54JA", "current_trial": 73, "dateTime": 1512853074110, "trialdata": {"rt": -1, "stimulus": "", "key_press": -1, "type": "PRE_RECALL_DELAY", "trial_type": "single-stim", "trial_index": 73, "time_elapsed": 389657, "internal_node_id": "0.0-55.0-0.0"}}, {"uniqueid": "MTK0866:39GHHAVOMGYSHY4ZE7WCQ3PEIC54JA", "current_trial": 74, "dateTime": 1512853074614, "trialdata": {"rt": -1000, "stimulus": "/static/audio/400Hz.wav", "key_press": -1, "type": "PRE_RECALL_ALERT", "trial_type": "single-audio", "trial_index": 74, "time_elapsed": 390161, "internal_node_id": "0.0-56.0"}}, {"uniqueid": "MTK0866:39GHHAVOMGYSHY4ZE7WCQ3PEIC54JA", "current_trial": 75, "dateTime": 1512853134623, "trialdata": {"rt": [2558, 3964, 6800, 9129, 15732, 19965, 31406, 54640], "recwords": ["crown", "bucket", "laser", "rifel", "bucket", "braces", "orange", "bouquet"], "type": "FREE_RECALL", "conditions": [18, 1200, "a", 18000], "trial": 1, "trial_type": "free-recall", "trial_index": 75, "time_elapsed": 450167, "internal_node_id": "0.0-57.0-0.0"}}, {"uniqueid": "MTK0866:39GHHAVOMGYSHY4ZE7WCQ3PEIC54JA", "current_trial": 76, "dateTime": 1512853140232, "trialdata": {"rt": 3601, "key_press": 32, "type": "INSTRUCTIONS", "trial_type": "text", "trial_index": 76, "time_elapsed": 455773, "internal_node_id": "0.0-58.0"}}, {"uniqueid": "MTK0866:39GHHAVOMGYSHY4ZE7WCQ3PEIC54JA", "current_trial": 77, "dateTime": 1512853153237, "trialdata": {"rt": [2586, 5571, 9425, 11912], "responses": ["11", "11", "15", "16"], "num1": [3, 3, 5, 6, 4], "num2": [4, 5, 3, 2, 5], "num3": [4, 3, 7, 8, 5], "type": "DISTRACTOR", "conditions": [12, 1600, "a", 12000], "trial": 2, "trial_type": "math-distractor", "trial_index": 77, "time_elapsed": 468784, "internal_node_id": "0.0-59.0"}}, {"uniqueid": "MTK0866:39GHHAVOMGYSHY4ZE7WCQ3PEIC54JA", "current_trial": 78, "dateTime": 1512853156242, "trialdata": {"rt": -1, "stimulus": "<p id=\"stim\">10</p>", "key_press": -1, "trial_type": "single-stim", "trial_index": 78, "time_elapsed": 471788, "internal_node_id": "0.0-60.0-0.0"}}, {"uniqueid": "MTK0866:39GHHAVOMGYSHY4ZE7WCQ3PEIC54JA", "current_trial": 79, "dateTime": 1512853157244, "trialdata": {"rt": -1, "stimulus": "<p id=\"stim\">9</p>", "key_press": -1, "trial_type": "single-stim", "trial_index": 79, "time_elapsed": 472790, "internal_node_id": "0.0-60.0-1.0"}}, {"uniqueid": "MTK0866:39GHHAVOMGYSHY4ZE7WCQ3PEIC54JA", "current_trial": 80, "dateTime": 1512853158245, "trialdata": {"rt": -1, "stimulus": "<p id=\"stim\">8</p>", "key_press": -1, "trial_type": "single-stim", "trial_index": 80, "time_elapsed": 473791, "internal_node_id": "0.0-60.0-2.0"}}, {"uniqueid": "MTK0866:39GHHAVOMGYSHY4ZE7WCQ3PEIC54JA", "current_trial": 81, "dateTime": 1512853159247, "trialdata": {"rt": -1, "stimulus": "<p id=\"stim\">7</p>", "key_press": -1, "trial_type": "single-stim", "trial_index": 81, "time_elapsed": 474793, "internal_node_id": "0.0-60.0-3.0"}}, {"uniqueid": "MTK0866:39GHHAVOMGYSHY4ZE7WCQ3PEIC54JA", "current_trial": 82, "dateTime": 1512853160249, "trialdata": {"rt": -1, "stimulus": "<p id=\"stim\">6</p>", "key_press": -1, "trial_type": "single-stim", "trial_index": 82, "time_elapsed": 475795, "internal_node_id": "0.0-60.0-4.0"}}, {"uniqueid": "MTK0866:39GHHAVOMGYSHY4ZE7WCQ3PEIC54JA", "current_trial": 83, "dateTime": 1512853161255, "trialdata": {"rt": -1, "stimulus": "<p id=\"stim\">5</p>", "key_press": -1, "trial_type": "single-stim", "trial_index": 83, "time_elapsed": 476802, "internal_node_id": "0.0-60.0-5.0"}}, {"uniqueid": "MTK0866:39GHHAVOMGYSHY4ZE7WCQ3PEIC54JA", "current_trial": 84, "dateTime": 1512853162256, "trialdata": {"rt": -1, "stimulus": "<p id=\"stim\">4</p>", "key_press": -1, "trial_type": "single-stim", "trial_index": 84, "time_elapsed": 477803, "internal_node_id": "0.0-60.0-6.0"}}, {"uniqueid": "MTK0866:39GHHAVOMGYSHY4ZE7WCQ3PEIC54JA", "current_trial": 85, "dateTime": 1512853163259, "trialdata": {"rt": -1, "stimulus": "<p id=\"stim\">3</p>", "key_press": -1, "trial_type": "single-stim", "trial_index": 85, "time_elapsed": 478805, "internal_node_id": "0.0-60.0-7.0"}}, {"uniqueid": "MTK0866:39GHHAVOMGYSHY4ZE7WCQ3PEIC54JA", "current_trial": 86, "dateTime": 1512853164261, "trialdata": {"rt": -1, "stimulus": "<p id=\"stim\">2</p>", "key_press": -1, "trial_type": "single-stim", "trial_index": 86, "time_elapsed": 479808, "internal_node_id": "0.0-60.0-8.0"}}, {"uniqueid": "MTK0866:39GHHAVOMGYSHY4ZE7WCQ3PEIC54JA", "current_trial": 87, "dateTime": 1512853165263, "trialdata": {"rt": -1, "stimulus": "<p id=\"stim\">1</p>", "key_press": -1, "trial_type": "single-stim", "trial_index": 87, "time_elapsed": 480810, "internal_node_id": "0.0-60.0-9.0"}}, {"uniqueid": "MTK0866:39GHHAVOMGYSHY4ZE7WCQ3PEIC54JA", "current_trial": 88, "dateTime": 1512853166765, "trialdata": {"rt": -1, "stimulus": "<p id=\"stim\">+</p>", "key_press": -1, "type": "FIXATION", "trial_type": "single-stim", "trial_index": 88, "time_elapsed": 482311, "internal_node_id": "0.0-61.0-0.0"}}, {"uniqueid": "MTK0866:39GHHAVOMGYSHY4ZE7WCQ3PEIC54JA", "current_trial": 89, "dateTime": 1512853169292, "trialdata": {"rt": -1000, "stimulus": "/static/audio/wordpool/HARP.wav", "key_press": -1, "type": "PRES_AUD", "word": "harp", "wordID": 688, "conditions": [12, 1600, "a", 12000], "trial": 2, "serialpos": 0, "trial_type": "single-audio", "trial_index": 89, "time_elapsed": 484839, "internal_node_id": "0.0-62.0"}}, {"uniqueid": "MTK0866:39GHHAVOMGYSHY4ZE7WCQ3PEIC54JA", "current_trial": 90, "dateTime": 1512853171807, "trialdata": {"rt": -1000, "stimulus": "/static/audio/wordpool/PIMPLE.wav", "key_press": -1, "type": "PRES_AUD", "word": "pimple", "wordID": 1070, "conditions": [12, 1600, "a", 12000], "trial": 2, "serialpos": 1, "trial_type": "single-audio", "trial_index": 90, "time_elapsed": 487354, "internal_node_id": "0.0-63.0"}}, {"uniqueid": "MTK0866:39GHHAVOMGYSHY4ZE7WCQ3PEIC54JA", "current_trial": 91, "dateTime": 1512853174249, "trialdata": {"rt": -1000, "stimulus": "/static/audio/wordpool/BUNNY.wav", "key_press": -1, "type": "PRES_AUD", "word": "bunny", "wordID": 197, "conditions": [12, 1600, "a", 12000], "trial": 2, "serialpos": 2, "trial_type": "single-audio", "trial_index": 91, "time_elapsed": 489796, "internal_node_id": "0.0-64.0"}}, {"uniqueid": "MTK0866:39GHHAVOMGYSHY4ZE7WCQ3PEIC54JA", "current_trial": 92, "dateTime": 1512853176946, "trialdata": {"rt": -1000, "stimulus": "/static/audio/wordpool/ZIPPER.wav", "key_press": -1, "type": "PRES_AUD", "word": "zipper", "wordID": 1635, "conditions": [12, 1600, "a", 12000], "trial": 2, "serialpos": 3, "trial_type": "single-audio", "trial_index": 92, "time_elapsed": 492492, "internal_node_id": "0.0-65.0"}}, {"uniqueid": "MTK0866:39GHHAVOMGYSHY4ZE7WCQ3PEIC54JA", "current_trial": 93, "dateTime": 1512853179755, "trialdata": {"rt": -1000, "stimulus": "/static/audio/wordpool/BRICK.wav", "key_press": -1, "type": "PRES_AUD", "word": "brick", "wordID": 171, "conditions": [12, 1600, "a", 12000], "trial": 2, "serialpos": 4, "trial_type": "single-audio", "trial_index": 93, "time_elapsed": 495302, "internal_node_id": "0.0-66.0"}}, {"uniqueid": "MTK0866:39GHHAVOMGYSHY4ZE7WCQ3PEIC54JA", "current_trial": 94, "dateTime": 1512853182397, "trialdata": {"rt": -1000, "stimulus": "/static/audio/wordpool/STONE.wav", "key_press": -1, "type": "PRES_AUD", "word": "stone", "wordID": 1384, "conditions": [12, 1600, "a", 12000], "trial": 2, "serialpos": 5, "trial_type": "single-audio", "trial_index": 94, "time_elapsed": 497944, "internal_node_id": "0.0-67.0"}}, {"uniqueid": "MTK0866:39GHHAVOMGYSHY4ZE7WCQ3PEIC54JA", "current_trial": 95, "dateTime": 1512853184937, "trialdata": {"rt": -1000, "stimulus": "/static/audio/wordpool/LAVA.wav", "key_press": -1, "type": "PRES_AUD", "word": "lava", "wordID": 803, "conditions": [12, 1600, "a", 12000], "trial": 2, "serialpos": 6, "trial_type": "single-audio", "trial_index": 95, "time_elapsed": 500483, "internal_node_id": "0.0-68.0"}}, {"uniqueid": "MTK0866:39GHHAVOMGYSHY4ZE7WCQ3PEIC54JA", "current_trial": 96, "dateTime": 1512853187484, "trialdata": {"rt": -1000, "stimulus": "/static/audio/wordpool/BANJO.wav", "key_press": -1, "type": "PRES_AUD", "word": "banjo", "wordID": 81, "conditions": [12, 1600, "a", 12000], "trial": 2, "serialpos": 7, "trial_type": "single-audio", "trial_index": 96, "time_elapsed": 503031, "internal_node_id": "0.0-69.0"}}, {"uniqueid": "MTK0866:39GHHAVOMGYSHY4ZE7WCQ3PEIC54JA", "current_trial": 97, "dateTime": 1512853190011, "trialdata": {"rt": -1000, "stimulus": "/static/audio/wordpool/MOTOR.wav", "key_press": -1, "type": "PRES_AUD", "word": "motor", "wordID": 921, "conditions": [12, 1600, "a", 12000], "trial": 2, "serialpos": 8, "trial_type": "single-audio", "trial_index": 97, "time_elapsed": 505558, "internal_node_id": "0.0-70.0"}}, {"uniqueid": "MTK0866:39GHHAVOMGYSHY4ZE7WCQ3PEIC54JA", "current_trial": 98, "dateTime": 1512853192505, "trialdata": {"rt": -1000, "stimulus": "/static/audio/wordpool/BALLOON.wav", "key_press": -1, "type": "PRES_AUD", "word": "balloon", "wordID": 74, "conditions": [12, 1600, "a", 12000], "trial": 2, "serialpos": 9, "trial_type": "single-audio", "trial_index": 98, "time_elapsed": 508052, "internal_node_id": "0.0-71.0"}}, {"uniqueid": "MTK0866:39GHHAVOMGYSHY4ZE7WCQ3PEIC54JA", "current_trial": 99, "dateTime": 1512853195105, "trialdata": {"rt": -1000, "stimulus": "/static/audio/wordpool/WRIST.wav", "key_press": -1, "type": "PRES_AUD", "word": "wrist", "wordID": 1625, "conditions": [12, 1600, "a", 12000], "trial": 2, "serialpos": 10, "trial_type": "single-audio", "trial_index": 99, "time_elapsed": 510652, "internal_node_id": "0.0-72.0"}}, {"uniqueid": "MTK0866:39GHHAVOMGYSHY4ZE7WCQ3PEIC54JA", "current_trial": 100, "dateTime": 1512853197771, "trialdata": {"rt": -1000, "stimulus": "/static/audio/wordpool/CRATER.wav", "key_press": -1, "type": "PRES_AUD", "word": "crater", "wordID": 399, "conditions": [12, 1600, "a", 12000], "trial": 2, "serialpos": 11, "trial_type": "single-audio", "trial_index": 100, "time_elapsed": 513318, "internal_node_id": "0.0-73.0"}}, {"uniqueid": "MTK0866:39GHHAVOMGYSHY4ZE7WCQ3PEIC54JA", "current_trial": 101, "dateTime": 1512853198987, "trialdata": {"rt": -1, "stimulus": "", "key_press": -1, "type": "PRE_RECALL_DELAY", "trial_type": "single-stim", "trial_index": 101, "time_elapsed": 514533, "internal_node_id": "0.0-74.0-0.0"}}, {"uniqueid": "MTK0866:39GHHAVOMGYSHY4ZE7WCQ3PEIC54JA", "current_trial": 102, "dateTime": 1512853199495, "trialdata": {"rt": -1000, "stimulus": "/static/audio/400Hz.wav", "key_press": -1, "type": "PRE_RECALL_ALERT", "trial_type": "single-audio", "trial_index": 102, "time_elapsed": 515041, "internal_node_id": "0.0-75.0"}}, {"uniqueid": "MTK0866:39GHHAVOMGYSHY4ZE7WCQ3PEIC54JA", "current_trial": 103, "dateTime": 1512853259504, "trialdata": {"rt": [3730, 7699, 9128, 10946, 12425, 46871], "recwords": ["crater", "wrist", "lava", "stone", "brickc", "crater"], "type": "FREE_RECALL", "conditions": [12, 1600, "a", 12000], "trial": 2, "trial_type": "free-recall", "trial_index": 103, "time_elapsed": 575047, "internal_node_id": "0.0-76.0-0.0"}}, {"uniqueid": "MTK0866:39GHHAVOMGYSHY4ZE7WCQ3PEIC54JA", "current_trial": 104, "dateTime": 1512853263586, "trialdata": {"rt": 2079, "key_press": 32, "type": "INSTRUCTIONS", "trial_type": "text", "trial_index": 104, "time_elapsed": 579132, "internal_node_id": "0.0-77.0"}}, {"uniqueid": "MTK0866:39GHHAVOMGYSHY4ZE7WCQ3PEIC54JA", "current_trial": 105, "dateTime": 1512853277591, "trialdata": {"rt": [2250, 5392, 9033, 11298], "responses": ["11", "8", "18", "10"], "num1": [6, 5, 9, 4, 9], "num2": [4, 1, 2, 2, 3], "num3": [1, 2, 7, 4, 8], "type": "DISTRACTOR", "conditions": [12, 800, "a", 12000], "trial": 3, "trial_type": "math-distractor", "trial_index": 105, "time_elapsed": 593138, "internal_node_id": "0.0-78.0"}}, {"uniqueid": "MTK0866:39GHHAVOMGYSHY4ZE7WCQ3PEIC54JA", "current_trial": 106, "dateTime": 1512853280593, "trialdata": {"rt": -1, "stimulus": "<p id=\"stim\">10</p>", "key_press": -1, "trial_type": "single-stim", "trial_index": 106, "time_elapsed": 596140, "internal_node_id": "0.0-79.0-0.0"}}, {"uniqueid": "MTK0866:39GHHAVOMGYSHY4ZE7WCQ3PEIC54JA", "current_trial": 107, "dateTime": 1512853281596, "trialdata": {"rt": -1, "stimulus": "<p id=\"stim\">9</p>", "key_press": -1, "trial_type": "single-stim", "trial_index": 107, "time_elapsed": 597142, "internal_node_id": "0.0-79.0-1.0"}}, {"uniqueid": "MTK0866:39GHHAVOMGYSHY4ZE7WCQ3PEIC54JA", "current_trial": 108, "dateTime": 1512853282598, "trialdata": {"rt": -1, "stimulus": "<p id=\"stim\">8</p>", "key_press": -1, "trial_type": "single-stim", "trial_index": 108, "time_elapsed": 598145, "internal_node_id": "0.0-79.0-2.0"}}, {"uniqueid": "MTK0866:39GHHAVOMGYSHY4ZE7WCQ3PEIC54JA", "current_trial": 109, "dateTime": 1512853283600, "trialdata": {"rt": -1, "stimulus": "<p id=\"stim\">7</p>", "key_press": -1, "trial_type": "single-stim", "trial_index": 109, "time_elapsed": 599147, "internal_node_id": "0.0-79.0-3.0"}}, {"uniqueid": "MTK0866:39GHHAVOMGYSHY4ZE7WCQ3PEIC54JA", "current_trial": 110, "dateTime": 1512853284602, "trialdata": {"rt": -1, "stimulus": "<p id=\"stim\">6</p>", "key_press": -1, "trial_type": "single-stim", "trial_index": 110, "time_elapsed": 600148, "internal_node_id": "0.0-79.0-4.0"}}, {"uniqueid": "MTK0866:39GHHAVOMGYSHY4ZE7WCQ3PEIC54JA", "current_trial": 111, "dateTime": 1512853285605, "trialdata": {"rt": -1, "stimulus": "<p id=\"stim\">5</p>", "key_press": -1, "trial_type": "single-stim", "trial_index": 111, "time_elapsed": 601152, "internal_node_id": "0.0-79.0-5.0"}}, {"uniqueid": "MTK0866:39GHHAVOMGYSHY4ZE7WCQ3PEIC54JA", "current_trial": 112, "dateTime": 1512853286607, "trialdata": {"rt": -1, "stimulus": "<p id=\"stim\">4</p>", "key_press": -1, "trial_type": "single-stim", "trial_index": 112, "time_elapsed": 602154, "internal_node_id": "0.0-79.0-6.0"}}, {"uniqueid": "MTK0866:39GHHAVOMGYSHY4ZE7WCQ3PEIC54JA", "current_trial": 113, "dateTime": 1512853287613, "trialdata": {"rt": -1, "stimulus": "<p id=\"stim\">3</p>", "key_press": -1, "trial_type": "single-stim", "trial_index": 113, "time_elapsed": 603160, "internal_node_id": "0.0-79.0-7.0"}}, {"uniqueid": "MTK0866:39GHHAVOMGYSHY4ZE7WCQ3PEIC54JA", "current_trial": 114, "dateTime": 1512853288614, "trialdata": {"rt": -1, "stimulus": "<p id=\"stim\">2</p>", "key_press": -1, "trial_type": "single-stim", "trial_index": 114, "time_elapsed": 604161, "internal_node_id": "0.0-79.0-8.0"}}, {"uniqueid": "MTK0866:39GHHAVOMGYSHY4ZE7WCQ3PEIC54JA", "current_trial": 115, "dateTime": 1512853289617, "trialdata": {"rt": -1, "stimulus": "<p id=\"stim\">1</p>", "key_press": -1, "trial_type": "single-stim", "trial_index": 115, "time_elapsed": 605163, "internal_node_id": "0.0-79.0-9.0"}}, {"uniqueid": "MTK0866:39GHHAVOMGYSHY4ZE7WCQ3PEIC54JA", "current_trial": 116, "dateTime": 1512853291118, "trialdata": {"rt": -1, "stimulus": "<p id=\"stim\">+</p>", "key_press": -1, "type": "FIXATION", "trial_type": "single-stim", "trial_index": 116, "time_elapsed": 606665, "internal_node_id": "0.0-80.0-0.0"}}, {"uniqueid": "MTK0866:39GHHAVOMGYSHY4ZE7WCQ3PEIC54JA", "current_trial": 117, "dateTime": 1512853292818, "trialdata": {"rt": -1000, "stimulus": "/static/audio/wordpool/VELVET.wav", "key_press": -1, "type": "PRES_AUD", "word": "velvet", "wordID": 1554, "conditions": [12, 800, "a", 12000], "trial": 3, "serialpos": 0, "trial_type": "single-audio", "trial_index": 117, "time_elapsed": 608365, "internal_node_id": "0.0-81.0"}}, {"uniqueid": "MTK0866:39GHHAVOMGYSHY4ZE7WCQ3PEIC54JA", "current_trial": 118, "dateTime": 1512853294786, "trialdata": {"rt": -1000, "stimulus": "/static/audio/wordpool/RUST.wav", "key_press": -1, "type": "PRES_AUD", "word": "rust", "wordID": 1218, "conditions": [12, 800, "a", 12000], "trial": 3, "serialpos": 1, "trial_type": "single-audio", "trial_index": 118, "time_elapsed": 610333, "internal_node_id": "0.0-82.0"}}, {"uniqueid": "MTK0866:39GHHAVOMGYSHY4ZE7WCQ3PEIC54JA", "current_trial": 119, "dateTime": 1512853296730, "trialdata": {"rt": -1000, "stimulus": "/static/audio/wordpool/LONDON.wav", "key_press": -1, "type": "PRES_AUD", "word": "london", "wordID": 842, "conditions": [12, 800, "a", 12000], "trial": 3, "serialpos": 2, "trial_type": "single-audio", "trial_index": 119, "time_elapsed": 612277, "internal_node_id": "0.0-83.0"}}, {"uniqueid": "MTK0866:39GHHAVOMGYSHY4ZE7WCQ3PEIC54JA", "current_trial": 120, "dateTime": 1512853298686, "trialdata": {"rt": -1000, "stimulus": "/static/audio/wordpool/WORLD.wav", "key_press": -1, "type": "PRES_AUD", "word": "world", "wordID": 1621, "conditions": [12, 800, "a", 12000], "trial": 3, "serialpos": 3, "trial_type": "single-audio", "trial_index": 120, "time_elapsed": 614232, "internal_node_id": "0.0-84.0"}}, {"uniqueid": "MTK0866:39GHHAVOMGYSHY4ZE7WCQ3PEIC54JA", "current_trial": 121, "dateTime": 1512853300551, "trialdata": {"rt": -1000, "stimulus": "/static/audio/wordpool/GLOBE.wav", "key_press": -1, "type": "PRES_AUD", "word": "globe", "wordID": 640, "conditions": [12, 800, "a", 12000], "trial": 3, "serialpos": 4, "trial_type": "single-audio", "trial_index": 121, "time_elapsed": 616098, "internal_node_id": "0.0-85.0"}}, {"uniqueid": "MTK0866:39GHHAVOMGYSHY4ZE7WCQ3PEIC54JA", "current_trial": 122, "dateTime": 1512853302337, "trialdata": {"rt": -1000, "stimulus": "/static/audio/wordpool/SILK.wav", "key_press": -1, "type": "PRES_AUD", "word": "silk", "wordID": 1306, "conditions": [12, 800, "a", 12000], "trial": 3, "serialpos": 5, "trial_type": "single-audio", "trial_index": 122, "time_elapsed": 617884, "internal_node_id": "0.0-86.0"}}, {"uniqueid": "MTK0866:39GHHAVOMGYSHY4ZE7WCQ3PEIC54JA", "current_trial": 123, "dateTime": 1512853303957, "trialdata": {"rt": -1000, "stimulus": "/static/audio/wordpool/FRAME.wav", "key_press": -1, "type": "PRES_AUD", "word": "frame", "wordID": 599, "conditions": [12, 800, "a", 12000], "trial": 3, "serialpos": 6, "trial_type": "single-audio", "trial_index": 123, "time_elapsed": 619504, "internal_node_id": "0.0-87.0"}}, {"uniqueid": "MTK0866:39GHHAVOMGYSHY4ZE7WCQ3PEIC54JA", "current_trial": 124, "dateTime": 1512853305822, "trialdata": {"rt": -1000, "stimulus": "/static/audio/wordpool/SERVER.wav", "key_press": -1, "type": "PRES_AUD", "word": "server", "wordID": 1271, "conditions": [12, 800, "a", 12000], "trial": 3, "serialpos": 7, "trial_type": "single-audio", "trial_index": 124, "time_elapsed": 621369, "internal_node_id": "0.0-88.0"}}, {"uniqueid": "MTK0866:39GHHAVOMGYSHY4ZE7WCQ3PEIC54JA", "current_trial": 125, "dateTime": 1512853307609, "trialdata": {"rt": -1000, "stimulus": "/static/audio/wordpool/HONEY.wav", "key_press": -1, "type": "PRES_AUD", "word": "honey", "wordID": 712, "conditions": [12, 800, "a", 12000], "trial": 3, "serialpos": 8, "trial_type": "single-audio", "trial_index": 125, "time_elapsed": 623155, "internal_node_id": "0.0-89.0"}}, {"uniqueid": "MTK0866:39GHHAVOMGYSHY4ZE7WCQ3PEIC54JA", "current_trial": 126, "dateTime": 1512853309497, "trialdata": {"rt": -1000, "stimulus": "/static/audio/wordpool/PIGMENT.wav", "key_press": -1, "type": "PRES_AUD", "word": "pigment", "wordID": 1065, "conditions": [12, 800, "a", 12000], "trial": 3, "serialpos": 9, "trial_type": "single-audio", "trial_index": 126, "time_elapsed": 625044, "internal_node_id": "0.0-90.0"}}, {"uniqueid": "MTK0866:39GHHAVOMGYSHY4ZE7WCQ3PEIC54JA", "current_trial": 127, "dateTime": 1512853311307, "trialdata": {"rt": -1000, "stimulus": "/static/audio/wordpool/TURNIP.wav", "key_press": -1, "type": "PRES_AUD", "word": "turnip", "wordID": 1520, "conditions": [12, 800, "a", 12000], "trial": 3, "serialpos": 10, "trial_type": "single-audio", "trial_index": 127, "time_elapsed": 626854, "internal_node_id": "0.0-91.0"}}, {"uniqueid": "MTK0866:39GHHAVOMGYSHY4ZE7WCQ3PEIC54JA", "current_trial": 128, "dateTime": 1512853313285, "trialdata": {"rt": -1000, "stimulus": "/static/audio/wordpool/PLATE.wav", "key_press": -1, "type": "PRES_AUD", "word": "plate", "wordID": 1085, "conditions": [12, 800, "a", 12000], "trial": 3, "serialpos": 11, "trial_type": "single-audio", "trial_index": 128, "time_elapsed": 628832, "internal_node_id": "0.0-92.0"}}, {"uniqueid": "MTK0866:39GHHAVOMGYSHY4ZE7WCQ3PEIC54JA", "current_trial": 129, "dateTime": 1512853314649, "trialdata": {"rt": -1, "stimulus": "", "key_press": -1, "type": "PRE_RECALL_DELAY", "trial_type": "single-stim", "trial_index": 129, "time_elapsed": 630196, "internal_node_id": "0.0-93.0-0.0"}}, {"uniqueid": "MTK0866:39GHHAVOMGYSHY4ZE7WCQ3PEIC54JA", "current_trial": 130, "dateTime": 1512853315151, "trialdata": {"rt": -1000, "stimulus": "/static/audio/400Hz.wav", "key_press": -1, "type": "PRE_RECALL_ALERT", "trial_type": "single-audio", "trial_index": 130, "time_elapsed": 630698, "internal_node_id": "0.0-94.0"}}, {"uniqueid": "MTK0866:39GHHAVOMGYSHY4ZE7WCQ3PEIC54JA", "current_trial": 131, "dateTime": 1512853375159, "trialdata": {"rt": [3265, 4965, 9915, 13051, 17023, 18329, 19353, 21016, 54073], "recwords": ["plate", "pigment", "turnup", "plate", "honey", "globe", "world", "london", "tarp"], "type": "FREE_RECALL", "conditions": [12, 800, "a", 12000], "trial": 3, "trial_type": "free-recall", "trial_index": 131, "time_elapsed": 690702, "internal_node_id": "0.0-95.0-0.0"}}, {"uniqueid": "MTK0866:39GHHAVOMGYSHY4ZE7WCQ3PEIC54JA", "current_trial": 132, "dateTime": 1512853378402, "trialdata": {"rt": 1241, "key_press": 32, "type": "INSTRUCTIONS", "trial_type": "text", "trial_index": 132, "time_elapsed": 693949, "internal_node_id": "0.0-96.0"}}, {"uniqueid": "MTK0866:39GHHAVOMGYSHY4ZE7WCQ3PEIC54JA", "current_trial": 133, "dateTime": 1512853404406, "trialdata": {"rt": [3233, 7234, 9881, 12421, 16118, 19402, 22499], "responses": ["16", "18", "7", "8", "19", "14", "16"], "num1": [6, 5, 2, 4, 5, 3, 8, 1], "num2": [7, 6, 1, 2, 8, 8, 7, 9], "num3": [3, 7, 4, 2, 6, 3, 1, 6], "type": "DISTRACTOR", "conditions": [24, 1600, "a", 24000], "trial": 4, "trial_type": "math-distractor", "trial_index": 133, "time_elapsed": 719953, "internal_node_id": "0.0-97.0"}}, {"uniqueid": "MTK0866:39GHHAVOMGYSHY4ZE7WCQ3PEIC54JA", "current_trial": 134, "dateTime": 1512853407411, "trialdata": {"rt": -1, "stimulus": "<p id=\"stim\">10</p>", "key_press": -1, "trial_type": "single-stim", "trial_index": 134, "time_elapsed": 722958, "internal_node_id": "0.0-98.0-0.0"}}, {"uniqueid": "MTK0866:39GHHAVOMGYSHY4ZE7WCQ3PEIC54JA", "current_trial": 135, "dateTime": 1512853408413, "trialdata": {"rt": -1, "stimulus": "<p id=\"stim\">9</p>", "key_press": -1, "trial_type": "single-stim", "trial_index": 135, "time_elapsed": 723960, "internal_node_id": "0.0-98.0-1.0"}}, {"uniqueid": "MTK0866:39GHHAVOMGYSHY4ZE7WCQ3PEIC54JA", "current_trial": 136, "dateTime": 1512853409415, "trialdata": {"rt": -1, "stimulus": "<p id=\"stim\">8</p>", "key_press": -1, "trial_type": "single-stim", "trial_index": 136, "time_elapsed": 724962, "internal_node_id": "0.0-98.0-2.0"}}, {"uniqueid": "MTK0866:39GHHAVOMGYSHY4ZE7WCQ3PEIC54JA", "current_trial": 137, "dateTime": 1512853410417, "trialdata": {"rt": -1, "stimulus": "<p id=\"stim\">7</p>", "key_press": -1, "trial_type": "single-stim", "trial_index": 137, "time_elapsed": 725964, "internal_node_id": "0.0-98.0-3.0"}}, {"uniqueid": "MTK0866:39GHHAVOMGYSHY4ZE7WCQ3PEIC54JA", "current_trial": 138, "dateTime": 1512853411419, "trialdata": {"rt": -1, "stimulus": "<p id=\"stim\">6</p>", "key_press": -1, "trial_type": "single-stim", "trial_index": 138, "time_elapsed": 726966, "internal_node_id": "0.0-98.0-4.0"}}, {"uniqueid": "MTK0866:39GHHAVOMGYSHY4ZE7WCQ3PEIC54JA", "current_trial": 139, "dateTime": 1512853412422, "trialdata": {"rt": -1, "stimulus": "<p id=\"stim\">5</p>", "key_press": -1, "trial_type": "single-stim", "trial_index": 139, "time_elapsed": 727968, "internal_node_id": "0.0-98.0-5.0"}}, {"uniqueid": "MTK0866:39GHHAVOMGYSHY4ZE7WCQ3PEIC54JA", "current_trial": 140, "dateTime": 1512853413425, "trialdata": {"rt": -1, "stimulus": "<p id=\"stim\">4</p>", "key_press": -1, "trial_type": "single-stim", "trial_index": 140, "time_elapsed": 728972, "internal_node_id": "0.0-98.0-6.0"}}, {"uniqueid": "MTK0866:39GHHAVOMGYSHY4ZE7WCQ3PEIC54JA", "current_trial": 141, "dateTime": 1512853414427, "trialdata": {"rt": -1, "stimulus": "<p id=\"stim\">3</p>", "key_press": -1, "trial_type": "single-stim", "trial_index": 141, "time_elapsed": 729974, "internal_node_id": "0.0-98.0-7.0"}}, {"uniqueid": "MTK0866:39GHHAVOMGYSHY4ZE7WCQ3PEIC54JA", "current_trial": 142, "dateTime": 1512853415429, "trialdata": {"rt": -1, "stimulus": "<p id=\"stim\">2</p>", "key_press": -1, "trial_type": "single-stim", "trial_index": 142, "time_elapsed": 730976, "internal_node_id": "0.0-98.0-8.0"}}, {"uniqueid": "MTK0866:39GHHAVOMGYSHY4ZE7WCQ3PEIC54JA", "current_trial": 143, "dateTime": 1512853416432, "trialdata": {"rt": -1, "stimulus": "<p id=\"stim\">1</p>", "key_press": -1, "trial_type": "single-stim", "trial_index": 143, "time_elapsed": 731979, "internal_node_id": "0.0-98.0-9.0"}}, {"uniqueid": "MTK0866:39GHHAVOMGYSHY4ZE7WCQ3PEIC54JA", "current_trial": 144, "dateTime": 1512853417934, "trialdata": {"rt": -1, "stimulus": "<p id=\"stim\">+</p>", "key_press": -1, "type": "FIXATION", "trial_type": "single-stim", "trial_index": 144, "time_elapsed": 733480, "internal_node_id": "0.0-99.0-0.0"}}, {"uniqueid": "MTK0866:39GHHAVOMGYSHY4ZE7WCQ3PEIC54JA", "current_trial": 145, "dateTime": 1512853420347, "trialdata": {"rt": -1000, "stimulus": "/static/audio/wordpool/LIGHTNING.wav", "key_press": -1, "type": "PRES_AUD", "word": "lightning", "wordID": 819, "conditions": [24, 1600, "a", 24000], "trial": 4, "serialpos": 0, "trial_type": "single-audio", "trial_index": 145, "time_elapsed": 735894, "internal_node_id": "0.0-100.0"}}, {"uniqueid": "MTK0866:39GHHAVOMGYSHY4ZE7WCQ3PEIC54JA", "current_trial": 146, "dateTime": 1512853422801, "trialdata": {"rt": -1000, "stimulus": "/static/audio/wordpool/CLIMBER.wav", "key_press": -1, "type": "PRES_AUD", "word": "climber", "wordID": 322, "conditions": [24, 1600, "a", 24000], "trial": 4, "serialpos": 1, "trial_type": "single-audio", "trial_index": 146, "time_elapsed": 738348, "internal_node_id": "0.0-101.0"}}, {"uniqueid": "MTK0866:39GHHAVOMGYSHY4ZE7WCQ3PEIC54JA", "current_trial": 147, "dateTime": 1512853425490, "trialdata": {"rt": -1000, "stimulus": "/static/audio/wordpool/DRESS.wav", "key_press": -1, "type": "PRES_AUD", "word": "dress", "wordID": 494, "conditions": [24, 1600, "a", 24000], "trial": 4, "serialpos": 2, "trial_type": "single-audio", "trial_index": 147, "time_elapsed": 741037, "internal_node_id": "0.0-102.0"}}, {"uniqueid": "MTK0866:39GHHAVOMGYSHY4ZE7WCQ3PEIC54JA", "current_trial": 148, "dateTime": 1512853428192, "trialdata": {"rt": -1000, "stimulus": "/static/audio/wordpool/PIZZA.wav", "key_press": -1, "type": "PRES_AUD", "word": "pizza", "wordID": 1078, "conditions": [24, 1600, "a", 24000], "trial": 4, "serialpos": 3, "trial_type": "single-audio", "trial_index": 148, "time_elapsed": 743739, "internal_node_id": "0.0-103.0"}}, {"uniqueid": "MTK0866:39GHHAVOMGYSHY4ZE7WCQ3PEIC54JA", "current_trial": 149, "dateTime": 1512853430644, "trialdata": {"rt": -1000, "stimulus": "/static/audio/wordpool/BRANCH.wav", "key_press": -1, "type": "PRES_AUD", "word": "branch", "wordID": 167, "conditions": [24, 1600, "a", 24000], "trial": 4, "serialpos": 4, "trial_type": "single-audio", "trial_index": 149, "time_elapsed": 746191, "internal_node_id": "0.0-104.0"}}, {"uniqueid": "MTK0866:39GHHAVOMGYSHY4ZE7WCQ3PEIC54JA", "current_trial": 150, "dateTime": 1512853433436, "trialdata": {"rt": -1000, "stimulus": "/static/audio/wordpool/POSTAGE.wav", "key_press": -1, "type": "PRES_AUD", "word": "postage", "wordID": 1112, "conditions": [24, 1600, "a", 24000], "trial": 4, "serialpos": 5, "trial_type": "single-audio", "trial_index": 150, "time_elapsed": 748983, "internal_node_id": "0.0-105.0"}}, {"uniqueid": "MTK0866:39GHHAVOMGYSHY4ZE7WCQ3PEIC54JA", "current_trial": 151, "dateTime": 1512853436191, "trialdata": {"rt": -1000, "stimulus": "/static/audio/wordpool/BOX.wav", "key_press": -1, "type": "PRES_AUD", "word": "box", "wordID": 158, "conditions": [24, 1600, "a", 24000], "trial": 4, "serialpos": 6, "trial_type": "single-audio", "trial_index": 151, "time_elapsed": 751738, "internal_node_id": "0.0-106.0"}}, {"uniqueid": "MTK0866:39GHHAVOMGYSHY4ZE7WCQ3PEIC54JA", "current_trial": 152, "dateTime": 1512853438804, "trialdata": {"rt": -1000, "stimulus": "/static/audio/wordpool/BACON.wav", "key_press": -1, "type": "PRES_AUD", "word": "bacon", "wordID": 66, "conditions": [24, 1600, "a", 24000], "trial": 4, "serialpos": 7, "trial_type": "single-audio", "trial_index": 152, "time_elapsed": 754351, "internal_node_id": "0.0-107.0"}}, {"uniqueid": "MTK0866:39GHHAVOMGYSHY4ZE7WCQ3PEIC54JA", "current_trial": 153, "dateTime": 1512853441268, "trialdata": {"rt": -1000, "stimulus": "/static/audio/wordpool/TURKEY.wav", "key_press": -1, "type": "PRES_AUD", "word": "turkey", "wordID": 1519, "conditions": [24, 1600, "a", 24000], "trial": 4, "serialpos": 8, "trial_type": "single-audio", "trial_index": 153, "time_elapsed": 756814, "internal_node_id": "0.0-108.0"}}, {"uniqueid": "MTK0866:39GHHAVOMGYSHY4ZE7WCQ3PEIC54JA", "current_trial": 154, "dateTime": 1512853443732, "trialdata": {"rt": -1000, "stimulus": "/static/audio/wordpool/EAGLE.wav", "key_press": -1, "type": "PRES_AUD", "word": "eagle", "wordID": 511, "conditions": [24, 1600, "a", 24000], "trial": 4, "serialpos": 9, "trial_type": "single-audio", "trial_index": 154, "time_elapsed": 759279, "internal_node_id": "0.0-109.0"}}, {"uniqueid": "MTK0866:39GHHAVOMGYSHY4ZE7WCQ3PEIC54JA", "current_trial": 155, "dateTime": 1512853446447, "trialdata": {"rt": -1000, "stimulus": "/static/audio/wordpool/DUSTPAN.wav", "key_press": -1, "type": "PRES_AUD", "word": "dustpan", "wordID": 508, "conditions": [24, 1600, "a", 24000], "trial": 4, "serialpos": 10, "trial_type": "single-audio", "trial_index": 155, "time_elapsed": 761994, "internal_node_id": "0.0-110.0"}}, {"uniqueid": "MTK0866:39GHHAVOMGYSHY4ZE7WCQ3PEIC54JA", "current_trial": 156, "dateTime": 1512853449181, "trialdata": {"rt": -1000, "stimulus": "/static/audio/wordpool/CLOTHES.wav", "key_press": -1, "type": "PRES_AUD", "word": "clothes", "wordID": 326, "conditions": [24, 1600, "a", 24000], "trial": 4, "serialpos": 11, "trial_type": "single-audio", "trial_index": 156, "time_elapsed": 764727, "internal_node_id": "0.0-111.0"}}, {"uniqueid": "MTK0866:39GHHAVOMGYSHY4ZE7WCQ3PEIC54JA", "current_trial": 157, "dateTime": 1512853451779, "trialdata": {"rt": -1000, "stimulus": "/static/audio/wordpool/MARINE.wav", "key_press": -1, "type": "PRES_AUD", "word": "marine", "wordID": 868, "conditions": [24, 1600, "a", 24000], "trial": 4, "serialpos": 12, "trial_type": "single-audio", "trial_index": 157, "time_elapsed": 767326, "internal_node_id": "0.0-112.0"}}, {"uniqueid": "MTK0866:39GHHAVOMGYSHY4ZE7WCQ3PEIC54JA", "current_trial": 158, "dateTime": 1512853454440, "trialdata": {"rt": -1000, "stimulus": "/static/audio/wordpool/CHEST.wav", "key_press": -1, "type": "PRES_AUD", "word": "chest", "wordID": 294, "conditions": [24, 1600, "a", 24000], "trial": 4, "serialpos": 13, "trial_type": "single-audio", "trial_index": 158, "time_elapsed": 769987, "internal_node_id": "0.0-113.0"}}, {"uniqueid": "MTK0866:39GHHAVOMGYSHY4ZE7WCQ3PEIC54JA", "current_trial": 159, "dateTime": 1512853456994, "trialdata": {"rt": -1000, "stimulus": "/static/audio/wordpool/FOX.wav", "key_press": -1, "type": "PRES_AUD", "word": "fox", "wordID": 597, "conditions": [24, 1600, "a", 24000], "trial": 4, "serialpos": 14, "trial_type": "single-audio", "trial_index": 159, "time_elapsed": 772541, "internal_node_id": "0.0-114.0"}}, {"uniqueid": "MTK0866:39GHHAVOMGYSHY4ZE7WCQ3PEIC54JA", "current_trial": 160, "dateTime": 1512853459556, "trialdata": {"rt": -1000, "stimulus": "/static/audio/wordpool/RIVER.wav", "key_press": -1, "type": "PRES_AUD", "word": "river", "wordID": 1193, "conditions": [24, 1600, "a", 24000], "trial": 4, "serialpos": 15, "trial_type": "single-audio", "trial_index": 160, "time_elapsed": 775100, "internal_node_id": "0.0-115.0"}}, {"uniqueid": "MTK0866:39GHHAVOMGYSHY4ZE7WCQ3PEIC54JA", "current_trial": 161, "dateTime": 1512853462093, "trialdata": {"rt": -1000, "stimulus": "/static/audio/wordpool/SALMON.wav", "key_press": -1, "type": "PRES_AUD", "word": "salmon", "wordID": 1226, "conditions": [24, 1600, "a", 24000], "trial": 4, "serialpos": 16, "trial_type": "single-audio", "trial_index": 161, "time_elapsed": 777640, "internal_node_id": "0.0-116.0"}}, {"uniqueid": "MTK0866:39GHHAVOMGYSHY4ZE7WCQ3PEIC54JA", "current_trial": 162, "dateTime": 1512853464697, "trialdata": {"rt": -1000, "stimulus": "/static/audio/wordpool/PARROT.wav", "key_press": -1, "type": "PRES_AUD", "word": "parrot", "wordID": 1014, "conditions": [24, 1600, "a", 24000], "trial": 4, "serialpos": 17, "trial_type": "single-audio", "trial_index": 162, "time_elapsed": 780244, "internal_node_id": "0.0-117.0"}}, {"uniqueid": "MTK0866:39GHHAVOMGYSHY4ZE7WCQ3PEIC54JA", "current_trial": 163, "dateTime": 1512853467272, "trialdata": {"rt": -1000, "stimulus": "/static/audio/wordpool/CUSTARD.wav", "key_press": -1, "type": "PRES_AUD", "word": "custard", "wordID": 428, "conditions": [24, 1600, "a", 24000], "trial": 4, "serialpos": 18, "trial_type": "single-audio", "trial_index": 163, "time_elapsed": 782819, "internal_node_id": "0.0-118.0"}}, {"uniqueid": "MTK0866:39GHHAVOMGYSHY4ZE7WCQ3PEIC54JA", "current_trial": 164, "dateTime": 1512853469728, "trialdata": {"rt": -1000, "stimulus": "/static/audio/wordpool/PASTRY.wav", "key_press": -1, "type": "PRES_AUD", "word": "pastry", "wordID": 1021, "conditions": [24, 1600, "a", 24000], "trial": 4, "serialpos": 19, "trial_type": "single-audio", "trial_index": 164, "time_elapsed": 785274, "internal_node_id": "0.0-119.0"}}, {"uniqueid": "MTK0866:39GHHAVOMGYSHY4ZE7WCQ3PEIC54JA", "current_trial": 165, "dateTime": 1512853472304, "trialdata": {"rt": -1000, "stimulus": "/static/audio/wordpool/POET.wav", "key_press": -1, "type": "PRES_AUD", "word": "poet", "wordID": 1094, "conditions": [24, 1600, "a", 24000], "trial": 4, "serialpos": 20, "trial_type": "single-audio", "trial_index": 165, "time_elapsed": 787851, "internal_node_id": "0.0-120.0"}}, {"uniqueid": "MTK0866:39GHHAVOMGYSHY4ZE7WCQ3PEIC54JA", "current_trial": 166, "dateTime": 1512853475046, "trialdata": {"rt": -1000, "stimulus": "/static/audio/wordpool/COMET.wav", "key_press": -1, "type": "PRES_AUD", "word": "comet", "wordID": 352, "conditions": [24, 1600, "a", 24000], "trial": 4, "serialpos": 21, "trial_type": "single-audio", "trial_index": 166, "time_elapsed": 790592, "internal_node_id": "0.0-121.0"}}, {"uniqueid": "MTK0866:39GHHAVOMGYSHY4ZE7WCQ3PEIC54JA", "current_trial": 167, "dateTime": 1512853477692, "trialdata": {"rt": -1000, "stimulus": "/static/audio/wordpool/KLEENEX.wav", "key_press": -1, "type": "PRES_AUD", "word": "kleenex", "wordID": 781, "conditions": [24, 1600, "a", 24000], "trial": 4, "serialpos": 22, "trial_type": "single-audio", "trial_index": 167, "time_elapsed": 793239, "internal_node_id": "0.0-122.0"}}, {"uniqueid": "MTK0866:39GHHAVOMGYSHY4ZE7WCQ3PEIC54JA", "current_trial": 168, "dateTime": 1512853480110, "trialdata": {"rt": -1000, "stimulus": "/static/audio/wordpool/MUMMY.wav", "key_press": -1, "type": "PRES_AUD", "word": "mummy", "wordID": 931, "conditions": [24, 1600, "a", 24000], "trial": 4, "serialpos": 23, "trial_type": "single-audio", "trial_index": 168, "time_elapsed": 795657, "internal_node_id": "0.0-123.0"}}, {"uniqueid": "MTK0866:39GHHAVOMGYSHY4ZE7WCQ3PEIC54JA", "current_trial": 169, "dateTime": 1512853481392, "trialdata": {"rt": -1, "stimulus": "", "key_press": -1, "type": "PRE_RECALL_DELAY", "trial_type": "single-stim", "trial_index": 169, "time_elapsed": 796938, "internal_node_id": "0.0-124.0-0.0"}}, {"uniqueid": "MTK0866:39GHHAVOMGYSHY4ZE7WCQ3PEIC54JA", "current_trial": 170, "dateTime": 1512853481895, "trialdata": {"rt": -1000, "stimulus": "/static/audio/400Hz.wav", "key_press": -1, "type": "PRE_RECALL_ALERT", "trial_type": "single-audio", "trial_index": 170, "time_elapsed": 797442, "internal_node_id": "0.0-125.0"}}, {"uniqueid": "MTK0866:39GHHAVOMGYSHY4ZE7WCQ3PEIC54JA", "current_trial": 171, "dateTime": 1512853541908, "trialdata": {"rt": [4426, 5972, 6941, 8669, 10453, 12174, 14249, 17240, 20908, 35262, 36540], "recwords": ["river", "salmon", "box", "pastry", "marine", "chest", "mummy", "kleenex", "mummy", "pizza", "bacon"], "type": "FREE_RECALL", "conditions": [24, 1600, "a", 24000], "trial": 4, "trial_type": "free-recall", "trial_index": 171, "time_elapsed": 857447, "internal_node_id": "0.0-126.0-0.0"}}, {"uniqueid": "MTK0866:39GHHAVOMGYSHY4ZE7WCQ3PEIC54JA", "current_trial": 172, "dateTime": 1512853545166, "trialdata": {"rt": 1257, "key_press": 32, "type": "INSTRUCTIONS", "trial_type": "text", "trial_index": 172, "time_elapsed": 860713, "internal_node_id": "0.0-127.0"}}, {"uniqueid": "MTK0866:39GHHAVOMGYSHY4ZE7WCQ3PEIC54JA", "current_trial": 173, "dateTime": 1512853559173, "trialdata": {"rt": [3720, 6551, 9927], "responses": ["17", "20", "13"], "num1": [5, 9, 2, 8], "num2": [3, 9, 4, 4], "num3": [9, 2, 7, 2], "type": "DISTRACTOR", "conditions": [12, 1600, "v", 12000], "trial": 5, "trial_type": "math-distractor", "trial_index": 173, "time_elapsed": 874720, "internal_node_id": "0.0-128.0"}}, {"uniqueid": "MTK0866:39GHHAVOMGYSHY4ZE7WCQ3PEIC54JA", "current_trial": 174, "dateTime": 1512853562176, "trialdata": {"rt": -1, "stimulus": "<p id=\"stim\">10</p>", "key_press": -1, "trial_type": "single-stim", "trial_index": 174, "time_elapsed": 877723, "internal_node_id": "0.0-129.0-0.0"}}, {"uniqueid": "MTK0866:39GHHAVOMGYSHY4ZE7WCQ3PEIC54JA", "current_trial": 175, "dateTime": 1512853563178, "trialdata": {"rt": -1, "stimulus": "<p id=\"stim\">9</p>", "key_press": -1, "trial_type": "single-stim", "trial_index": 175, "time_elapsed": 878725, "internal_node_id": "0.0-129.0-1.0"}}, {"uniqueid": "MTK0866:39GHHAVOMGYSHY4ZE7WCQ3PEIC54JA", "current_trial": 176, "dateTime": 1512853564181, "trialdata": {"rt": -1, "stimulus": "<p id=\"stim\">8</p>", "key_press": -1, "trial_type": "single-stim", "trial_index": 176, "time_elapsed": 879728, "internal_node_id": "0.0-129.0-2.0"}}, {"uniqueid": "MTK0866:39GHHAVOMGYSHY4ZE7WCQ3PEIC54JA", "current_trial": 177, "dateTime": 1512853565183, "trialdata": {"rt": -1, "stimulus": "<p id=\"stim\">7</p>", "key_press": -1, "trial_type": "single-stim", "trial_index": 177, "time_elapsed": 880730, "internal_node_id": "0.0-129.0-3.0"}}, {"uniqueid": "MTK0866:39GHHAVOMGYSHY4ZE7WCQ3PEIC54JA", "current_trial": 178, "dateTime": 1512853566185, "trialdata": {"rt": -1, "stimulus": "<p id=\"stim\">6</p>", "key_press": -1, "trial_type": "single-stim", "trial_index": 178, "time_elapsed": 881732, "internal_node_id": "0.0-129.0-4.0"}}, {"uniqueid": "MTK0866:39GHHAVOMGYSHY4ZE7WCQ3PEIC54JA", "current_trial": 179, "dateTime": 1512853567187, "trialdata": {"rt": -1, "stimulus": "<p id=\"stim\">5</p>", "key_press": -1, "trial_type": "single-stim", "trial_index": 179, "time_elapsed": 882734, "internal_node_id": "0.0-129.0-5.0"}}, {"uniqueid": "MTK0866:39GHHAVOMGYSHY4ZE7WCQ3PEIC54JA", "current_trial": 180, "dateTime": 1512853568190, "trialdata": {"rt": -1, "stimulus": "<p id=\"stim\">4</p>", "key_press": -1, "trial_type": "single-stim", "trial_index": 180, "time_elapsed": 883737, "internal_node_id": "0.0-129.0-6.0"}}, {"uniqueid": "MTK0866:39GHHAVOMGYSHY4ZE7WCQ3PEIC54JA", "current_trial": 181, "dateTime": 1512853569193, "trialdata": {"rt": -1, "stimulus": "<p id=\"stim\">3</p>", "key_press": -1, "trial_type": "single-stim", "trial_index": 181, "time_elapsed": 884740, "internal_node_id": "0.0-129.0-7.0"}}, {"uniqueid": "MTK0866:39GHHAVOMGYSHY4ZE7WCQ3PEIC54JA", "current_trial": 182, "dateTime": 1512853570195, "trialdata": {"rt": -1, "stimulus": "<p id=\"stim\">2</p>", "key_press": -1, "trial_type": "single-stim", "trial_index": 182, "time_elapsed": 885742, "internal_node_id": "0.0-129.0-8.0"}}, {"uniqueid": "MTK0866:39GHHAVOMGYSHY4ZE7WCQ3PEIC54JA", "current_trial": 183, "dateTime": 1512853571197, "trialdata": {"rt": -1, "stimulus": "<p id=\"stim\">1</p>", "key_press": -1, "trial_type": "single-stim", "trial_index": 183, "time_elapsed": 886744, "internal_node_id": "0.0-129.0-9.0"}}, {"uniqueid": "MTK0866:39GHHAVOMGYSHY4ZE7WCQ3PEIC54JA", "current_trial": 184, "dateTime": 1512853572699, "trialdata": {"rt": -1, "stimulus": "<p id=\"stim\">+</p>", "key_press": -1, "type": "FIXATION", "trial_type": "single-stim", "trial_index": 184, "time_elapsed": 888246, "internal_node_id": "0.0-130.0-0.0"}}, {"uniqueid": "MTK0866:39GHHAVOMGYSHY4ZE7WCQ3PEIC54JA", "current_trial": 185, "dateTime": 1512853574302, "trialdata": {"rt": -1, "stimulus": "<p id=\"stim\">GOBLIN</p>", "key_press": -1, "type": "PRES_VIS", "word": "goblin", "wordID": 644, "conditions": [12, 1600, "v", 12000], "trial": 5, "serialpos": 0, "trial_type": "single-stim", "trial_index": 185, "time_elapsed": 889849, "internal_node_id": "0.0-131.0"}}, {"uniqueid": "MTK0866:39GHHAVOMGYSHY4ZE7WCQ3PEIC54JA", "current_trial": 186, "dateTime": 1512853577076, "trialdata": {"rt": -1, "stimulus": "<p id=\"stim\">LIVER</p>", "key_press": -1, "type": "PRES_VIS", "word": "liver", "wordID": 832, "conditions": [12, 1600, "v", 12000], "trial": 5, "serialpos": 1, "trial_type": "single-stim", "trial_index": 186, "time_elapsed": 892623, "internal_node_id": "0.0-132.0"}}, {"uniqueid": "MTK0866:39GHHAVOMGYSHY4ZE7WCQ3PEIC54JA", "current_trial": 187, "dateTime": 1512853579620, "trialdata": {"rt": -1, "stimulus": "<p id=\"stim\">KIDNEY</p>", "key_press": -1, "type": "PRES_VIS", "word": "kidney", "wordID": 775, "conditions": [12, 1600, "v", 12000], "trial": 5, "serialpos": 2, "trial_type": "single-stim", "trial_index": 187, "time_elapsed": 895167, "internal_node_id": "0.0-133.0"}}, {"uniqueid": "MTK0866:39GHHAVOMGYSHY4ZE7WCQ3PEIC54JA", "current_trial": 188, "dateTime": 1512853582380, "trialdata": {"rt": -1, "stimulus": "<p id=\"stim\">FUNGUS</p>", "key_press": -1, "type": "PRES_VIS", "word": "fungus", "wordID": 613, "conditions": [12, 1600, "v", 12000], "trial": 5, "serialpos": 3, "trial_type": "single-stim", "trial_index": 188, "time_elapsed": 897927, "internal_node_id": "0.0-134.0"}}, {"uniqueid": "MTK0866:39GHHAVOMGYSHY4ZE7WCQ3PEIC54JA", "current_trial": 189, "dateTime": 1512853585027, "trialdata": {"rt": -1, "stimulus": "<p id=\"stim\">LAKE</p>", "key_press": -1, "type": "PRES_VIS", "word": "lake", "wordID": 795, "conditions": [12, 1600, "v", 12000], "trial": 5, "serialpos": 4, "trial_type": "single-stim", "trial_index": 189, "time_elapsed": 900573, "internal_node_id": "0.0-135.0"}}, {"uniqueid": "MTK0866:39GHHAVOMGYSHY4ZE7WCQ3PEIC54JA", "current_trial": 190, "dateTime": 1512853587575, "trialdata": {"rt": -1, "stimulus": "<p id=\"stim\">THIEF</p>", "key_press": -1, "type": "PRES_VIS", "word": "thief", "wordID": 1455, "conditions": [12, 1600, "v", 12000], "trial": 5, "serialpos": 5, "trial_type": "single-stim", "trial_index": 190, "time_elapsed": 903122, "internal_node_id": "0.0-136.0"}}, {"uniqueid": "MTK0866:39GHHAVOMGYSHY4ZE7WCQ3PEIC54JA", "current_trial": 191, "dateTime": 1512853590373, "trialdata": {"rt": -1, "stimulus": "<p id=\"stim\">TWEEZERS</p>", "key_press": -1, "type": "PRES_VIS", "word": "tweezers", "wordID": 1525, "conditions": [12, 1600, "v", 12000], "trial": 5, "serialpos": 6, "trial_type": "single-stim", "trial_index": 191, "time_elapsed": 905920, "internal_node_id": "0.0-137.0"}}, {"uniqueid": "MTK0866:39GHHAVOMGYSHY4ZE7WCQ3PEIC54JA", "current_trial": 192, "dateTime": 1512853593078, "trialdata": {"rt": -1, "stimulus": "<p id=\"stim\">FRIEND</p>", "key_press": -1, "type": "PRES_VIS", "word": "friend", "wordID": 605, "conditions": [12, 1600, "v", 12000], "trial": 5, "serialpos": 7, "trial_type": "single-stim", "trial_index": 192, "time_elapsed": 908624, "internal_node_id": "0.0-138.0"}}, {"uniqueid": "MTK0866:39GHHAVOMGYSHY4ZE7WCQ3PEIC54JA", "current_trial": 193, "dateTime": 1512853595832, "trialdata": {"rt": -1, "stimulus": "<p id=\"stim\">PRINCESS</p>", "key_press": -1, "type": "PRES_VIS", "word": "princess", "wordID": 1124, "conditions": [12, 1600, "v", 12000], "trial": 5, "serialpos": 8, "trial_type": "single-stim", "trial_index": 193, "time_elapsed": 911379, "internal_node_id": "0.0-139.0"}}, {"uniqueid": "MTK0866:39GHHAVOMGYSHY4ZE7WCQ3PEIC54JA", "current_trial": 194, "dateTime": 1512853598451, "trialdata": {"rt": -1, "stimulus": "<p id=\"stim\">PANTHER</p>", "key_press": -1, "type": "PRES_VIS", "word": "panther", "wordID": 1008, "conditions": [12, 1600, "v", 12000], "trial": 5, "serialpos": 9, "trial_type": "single-stim", "trial_index": 194, "time_elapsed": 913998, "internal_node_id": "0.0-140.0"}}, {"uniqueid": "MTK0866:39GHHAVOMGYSHY4ZE7WCQ3PEIC54JA", "current_trial": 195, "dateTime": 1512853600950, "trialdata": {"rt": -1, "stimulus": "<p id=\"stim\">SLIDE</p>", "key_press": -1, "type": "PRES_VIS", "word": "slide", "wordID": 1325, "conditions": [12, 1600, "v", 12000], "trial": 5, "serialpos": 10, "trial_type": "single-stim", "trial_index": 195, "time_elapsed": 916496, "internal_node_id": "0.0-141.0"}}, {"uniqueid": "MTK0866:39GHHAVOMGYSHY4ZE7WCQ3PEIC54JA", "current_trial": 196, "dateTime": 1512853603602, "trialdata": {"rt": -1, "stimulus": "<p id=\"stim\">PLIERS</p>", "key_press": -1, "type": "PRES_VIS", "word": "pliers", "wordID": 1088, "conditions": [12, 1600, "v", 12000], "trial": 5, "serialpos": 11, "trial_type": "single-stim", "trial_index": 196, "time_elapsed": 919149, "internal_node_id": "0.0-142.0"}}, {"uniqueid": "MTK0866:39GHHAVOMGYSHY4ZE7WCQ3PEIC54JA", "current_trial": 197, "dateTime": 1512853605822, "trialdata": {"rt": -1, "stimulus": "", "key_press": -1, "type": "PRE_RECALL_DELAY", "trial_type": "single-stim", "trial_index": 197, "time_elapsed": 921369, "internal_node_id": "0.0-143.0-0.0"}}, {"uniqueid": "MTK0866:39GHHAVOMGYSHY4ZE7WCQ3PEIC54JA", "current_trial": 198, "dateTime": 1512853606330, "trialdata": {"rt": -1000, "stimulus": "/static/audio/400Hz.wav", "key_press": -1, "type": "PRE_RECALL_ALERT", "trial_type": "single-audio", "trial_index": 198, "time_elapsed": 921877, "internal_node_id": "0.0-144.0"}}, {"uniqueid": "MTK0866:39GHHAVOMGYSHY4ZE7WCQ3PEIC54JA", "current_trial": 199, "dateTime": 1512853666339, "trialdata": {"rt": [3293, 4950, 10066, 12059, 19018, 31268], "recwords": ["slide", "lake", "tweezers", "princess", "goblin", "friend"], "type": "FREE_RECALL", "conditions": [12, 1600, "v", 12000], "trial": 5, "trial_type": "free-recall", "trial_index": 199, "time_elapsed": 981881, "internal_node_id": "0.0-145.0-0.0"}}, {"uniqueid": "MTK0866:39GHHAVOMGYSHY4ZE7WCQ3PEIC54JA", "current_trial": 200, "dateTime": 1512853669959, "trialdata": {"rt": 1618, "key_press": 32, "type": "INSTRUCTIONS", "trial_type": "text", "trial_index": 200, "time_elapsed": 985506, "internal_node_id": "0.0-146.0"}}, {"uniqueid": "MTK0866:39GHHAVOMGYSHY4ZE7WCQ3PEIC54JA", "current_trial": 201, "dateTime": 1512853695966, "trialdata": {"rt": [3238, 6279, 12573, 15905, 19089, 22460], "responses": ["18", "10", "22", "22", "15", "14"], "num1": [2, 3, 9, 6, 8, 5, 5], "num2": [9, 2, 8, 8, 4, 7, 4], "num3": [7, 5, 5, 8, 3, 2, 8], "type": "DISTRACTOR", "conditions": [12, 800, "v", 24000], "trial": 6, "trial_type": "math-distractor", "trial_index": 201, "time_elapsed": 1011513, "internal_node_id": "0.0-147.0"}}, {"uniqueid": "MTK0866:39GHHAVOMGYSHY4ZE7WCQ3PEIC54JA", "current_trial": 202, "dateTime": 1512853698968, "trialdata": {"rt": -1, "stimulus": "<p id=\"stim\">10</p>", "key_press": -1, "trial_type": "single-stim", "trial_index": 202, "time_elapsed": 1014515, "internal_node_id": "0.0-148.0-0.0"}}, {"uniqueid": "MTK0866:39GHHAVOMGYSHY4ZE7WCQ3PEIC54JA", "current_trial": 203, "dateTime": 1512853699971, "trialdata": {"rt": -1, "stimulus": "<p id=\"stim\">9</p>", "key_press": -1, "trial_type": "single-stim", "trial_index": 203, "time_elapsed": 1015518, "internal_node_id": "0.0-148.0-1.0"}}, {"uniqueid": "MTK0866:39GHHAVOMGYSHY4ZE7WCQ3PEIC54JA", "current_trial": 204, "dateTime": 1512853700972, "trialdata": {"rt": -1, "stimulus": "<p id=\"stim\">8</p>", "key_press": -1, "trial_type": "single-stim", "trial_index": 204, "time_elapsed": 1016518, "internal_node_id": "0.0-148.0-2.0"}}, {"uniqueid": "MTK0866:39GHHAVOMGYSHY4ZE7WCQ3PEIC54JA", "current_trial": 205, "dateTime": 1512853701974, "trialdata": {"rt": -1, "stimulus": "<p id=\"stim\">7</p>", "key_press": -1, "trial_type": "single-stim", "trial_index": 205, "time_elapsed": 1017521, "internal_node_id": "0.0-148.0-3.0"}}, {"uniqueid": "MTK0866:39GHHAVOMGYSHY4ZE7WCQ3PEIC54JA", "current_trial": 206, "dateTime": 1512853702976, "trialdata": {"rt": -1, "stimulus": "<p id=\"stim\">6</p>", "key_press": -1, "trial_type": "single-stim", "trial_index": 206, "time_elapsed": 1018522, "internal_node_id": "0.0-148.0-4.0"}}, {"uniqueid": "MTK0866:39GHHAVOMGYSHY4ZE7WCQ3PEIC54JA", "current_trial": 207, "dateTime": 1512853703978, "trialdata": {"rt": -1, "stimulus": "<p id=\"stim\">5</p>", "key_press": -1, "trial_type": "single-stim", "trial_index": 207, "time_elapsed": 1019525, "internal_node_id": "0.0-148.0-5.0"}}, {"uniqueid": "MTK0866:39GHHAVOMGYSHY4ZE7WCQ3PEIC54JA", "current_trial": 208, "dateTime": 1512853704981, "trialdata": {"rt": -1, "stimulus": "<p id=\"stim\">4</p>", "key_press": -1, "trial_type": "single-stim", "trial_index": 208, "time_elapsed": 1020527, "internal_node_id": "0.0-148.0-6.0"}}, {"uniqueid": "MTK0866:39GHHAVOMGYSHY4ZE7WCQ3PEIC54JA", "current_trial": 209, "dateTime": 1512853705982, "trialdata": {"rt": -1, "stimulus": "<p id=\"stim\">3</p>", "key_press": -1, "trial_type": "single-stim", "trial_index": 209, "time_elapsed": 1021528, "internal_node_id": "0.0-148.0-7.0"}}, {"uniqueid": "MTK0866:39GHHAVOMGYSHY4ZE7WCQ3PEIC54JA", "current_trial": 210, "dateTime": 1512853706985, "trialdata": {"rt": -1, "stimulus": "<p id=\"stim\">2</p>", "key_press": -1, "trial_type": "single-stim", "trial_index": 210, "time_elapsed": 1022531, "internal_node_id": "0.0-148.0-8.0"}}, {"uniqueid": "MTK0866:39GHHAVOMGYSHY4ZE7WCQ3PEIC54JA", "current_trial": 211, "dateTime": 1512853707987, "trialdata": {"rt": -1, "stimulus": "<p id=\"stim\">1</p>", "key_press": -1, "trial_type": "single-stim", "trial_index": 211, "time_elapsed": 1023533, "internal_node_id": "0.0-148.0-9.0"}}, {"uniqueid": "MTK0866:39GHHAVOMGYSHY4ZE7WCQ3PEIC54JA", "current_trial": 212, "dateTime": 1512853709489, "trialdata": {"rt": -1, "stimulus": "<p id=\"stim\">+</p>", "key_press": -1, "type": "FIXATION", "trial_type": "single-stim", "trial_index": 212, "time_elapsed": 1025036, "internal_node_id": "0.0-149.0-0.0"}}, {"uniqueid": "MTK0866:39GHHAVOMGYSHY4ZE7WCQ3PEIC54JA", "current_trial": 213, "dateTime": 1512853710291, "trialdata": {"rt": -1, "stimulus": "<p id=\"stim\">BANKER</p>", "key_press": -1, "type": "PRES_VIS", "word": "banker", "wordID": 83, "conditions": [12, 800, "v", 24000], "trial": 6, "serialpos": 0, "trial_type": "single-stim", "trial_index": 213, "time_elapsed": 1025837, "internal_node_id": "0.0-150.0"}}, {"uniqueid": "MTK0866:39GHHAVOMGYSHY4ZE7WCQ3PEIC54JA", "current_trial": 214, "dateTime": 1512853712266, "trialdata": {"rt": -1, "stimulus": "<p id=\"stim\">FRUIT</p>", "key_press": -1, "type": "PRES_VIS", "word": "fruit", "wordID": 609, "conditions": [12, 800, "v", 24000], "trial": 6, "serialpos": 1, "trial_type": "single-stim", "trial_index": 214, "time_elapsed": 1027812, "internal_node_id": "0.0-151.0"}}, {"uniqueid": "MTK0866:39GHHAVOMGYSHY4ZE7WCQ3PEIC54JA", "current_trial": 215, "dateTime": 1512853714214, "trialdata": {"rt": -1, "stimulus": "<p id=\"stim\">ZEBRA</p>", "key_press": -1, "type": "PRES_VIS", "word": "zebra", "wordID": 1634, "conditions": [12, 800, "v", 24000], "trial": 6, "serialpos": 2, "trial_type": "single-stim", "trial_index": 215, "time_elapsed": 1029761, "internal_node_id": "0.0-152.0"}}, {"uniqueid": "MTK0866:39GHHAVOMGYSHY4ZE7WCQ3PEIC54JA", "current_trial": 216, "dateTime": 1512853716146, "trialdata": {"rt": -1, "stimulus": "<p id=\"stim\">TUBA</p>", "key_press": -1, "type": "PRES_VIS", "word": "tuba", "wordID": 1514, "conditions": [12, 800, "v", 24000], "trial": 6, "serialpos": 3, "trial_type": "single-stim", "trial_index": 216, "time_elapsed": 1031692, "internal_node_id": "0.0-153.0"}}, {"uniqueid": "MTK0866:39GHHAVOMGYSHY4ZE7WCQ3PEIC54JA", "current_trial": 217, "dateTime": 1512853717851, "trialdata": {"rt": -1, "stimulus": "<p id=\"stim\">GARBAGE</p>", "key_press": -1, "type": "PRES_VIS", "word": "garbage", "wordID": 621, "conditions": [12, 800, "v", 24000], "trial": 6, "serialpos": 4, "trial_type": "single-stim", "trial_index": 217, "time_elapsed": 1033398, "internal_node_id": "0.0-154.0"}}, {"uniqueid": "MTK0866:39GHHAVOMGYSHY4ZE7WCQ3PEIC54JA", "current_trial": 218, "dateTime": 1512853719664, "trialdata": {"rt": -1, "stimulus": "<p id=\"stim\">BUG</p>", "key_press": -1, "type": "PRES_VIS", "word": "bug", "wordID": 186, "conditions": [12, 800, "v", 24000], "trial": 6, "serialpos": 5, "trial_type": "single-stim", "trial_index": 218, "time_elapsed": 1035211, "internal_node_id": "0.0-155.0"}}, {"uniqueid": "MTK0866:39GHHAVOMGYSHY4ZE7WCQ3PEIC54JA", "current_trial": 219, "dateTime": 1512853721498, "trialdata": {"rt": -1, "stimulus": "<p id=\"stim\">SNAKE</p>", "key_press": -1, "type": "PRES_VIS", "word": "snake", "wordID": 1332, "conditions": [12, 800, "v", 24000], "trial": 6, "serialpos": 6, "trial_type": "single-stim", "trial_index": 219, "time_elapsed": 1037045, "internal_node_id": "0.0-156.0"}}, {"uniqueid": "MTK0866:39GHHAVOMGYSHY4ZE7WCQ3PEIC54JA", "current_trial": 220, "dateTime": 1512853723166, "trialdata": {"rt": -1, "stimulus": "<p id=\"stim\">MARKET</p>", "key_press": -1, "type": "PRES_VIS", "word": "market", "wordID": 870, "conditions": [12, 800, "v", 24000], "trial": 6, "serialpos": 7, "trial_type": "single-stim", "trial_index": 220, "time_elapsed": 1038713, "internal_node_id": "0.0-157.0"}}, {"uniqueid": "MTK0866:39GHHAVOMGYSHY4ZE7WCQ3PEIC54JA", "current_trial": 221, "dateTime": 1512853725135, "trialdata": {"rt": -1, "stimulus": "<p id=\"stim\">QUARTER</p>", "key_press": -1, "type": "PRES_VIS", "word": "quarter", "wordID": 1147, "conditions": [12, 800, "v", 24000], "trial": 6, "serialpos": 8, "trial_type": "single-stim", "trial_index": 221, "time_elapsed": 1040681, "internal_node_id": "0.0-158.0"}}, {"uniqueid": "MTK0866:39GHHAVOMGYSHY4ZE7WCQ3PEIC54JA", "current_trial": 222, "dateTime": 1512853726769, "trialdata": {"rt": -1, "stimulus": "<p id=\"stim\">BANK</p>", "key_press": -1, "type": "PRES_VIS", "word": "bank", "wordID": 82, "conditions": [12, 800, "v", 24000], "trial": 6, "serialpos": 9, "trial_type": "single-stim", "trial_index": 222, "time_elapsed": 1042316, "internal_node_id": "0.0-159.0"}}, {"uniqueid": "MTK0866:39GHHAVOMGYSHY4ZE7WCQ3PEIC54JA", "current_trial": 223, "dateTime": 1512853728499, "trialdata": {"rt": -1, "stimulus": "<p id=\"stim\">SUNRISE</p>", "key_press": -1, "type": "PRES_VIS", "word": "sunrise", "wordID": 1406, "conditions": [12, 800, "v", 24000], "trial": 6, "serialpos": 10, "trial_type": "single-stim", "trial_index": 223, "time_elapsed": 1044045, "internal_node_id": "0.0-160.0"}}, {"uniqueid": "MTK0866:39GHHAVOMGYSHY4ZE7WCQ3PEIC54JA", "current_trial": 224, "dateTime": 1512853730335, "trialdata": {"rt": -1, "stimulus": "<p id=\"stim\">SUNSET</p>", "key_press": -1, "type": "PRES_VIS", "word": "sunset", "wordID": 1407, "conditions": [12, 800, "v", 24000], "trial": 6, "serialpos": 11, "trial_type": "single-stim", "trial_index": 224, "time_elapsed": 1045882, "internal_node_id": "0.0-161.0"}}, {"uniqueid": "MTK0866:39GHHAVOMGYSHY4ZE7WCQ3PEIC54JA", "current_trial": 225, "dateTime": 1512853732764, "trialdata": {"rt": -1, "stimulus": "", "key_press": -1, "type": "PRE_RECALL_DELAY", "trial_type": "single-stim", "trial_index": 225, "time_elapsed": 1048309, "internal_node_id": "0.0-162.0-0.0"}}, {"uniqueid": "MTK0866:39GHHAVOMGYSHY4ZE7WCQ3PEIC54JA", "current_trial": 226, "dateTime": 1512853733270, "trialdata": {"rt": -1000, "stimulus": "/static/audio/400Hz.wav", "key_press": -1, "type": "PRE_RECALL_ALERT", "trial_type": "single-audio", "trial_index": 226, "time_elapsed": 1048817, "internal_node_id": "0.0-163.0"}}, {"uniqueid": "MTK0866:39GHHAVOMGYSHY4ZE7WCQ3PEIC54JA", "current_trial": 227, "dateTime": 1512853793280, "trialdata": {"rt": [3122, 5917, 7442, 9187, 14481], "recwords": ["bank", "banker", "sunrise", "sunset", "garbage"], "type": "FREE_RECALL", "conditions": [12, 800, "v", 24000], "trial": 6, "trial_type": "free-recall", "trial_index": 227, "time_elapsed": 1108820, "internal_node_id": "0.0-164.0-0.0"}}, {"uniqueid": "MTK0866:39GHHAVOMGYSHY4ZE7WCQ3PEIC54JA", "current_trial": 228, "dateTime": 1512853796932, "trialdata": {"rt": 1650, "key_press": 32, "type": "INSTRUCTIONS", "trial_type": "text", "trial_index": 228, "time_elapsed": 1112479, "internal_node_id": "0.0-165.0"}}, {"uniqueid": "MTK0866:39GHHAVOMGYSHY4ZE7WCQ3PEIC54JA", "current_trial": 229, "dateTime": 1512853822937, "trialdata": {"rt": [4022, 6696, 9698, 14970, 23571], "responses": ["22", "15", "15", "20", "22"], "num1": [8, 9, 2, 8, 9, 2], "num2": [6, 5, 7, 9, 7, 7], "num3": [8, 1, 6, 3, 6, 5], "type": "DISTRACTOR", "conditions": [24, 800, "v", 24000], "trial": 7, "trial_type": "math-distractor", "trial_index": 229, "time_elapsed": 1138484, "internal_node_id": "0.0-166.0"}}, {"uniqueid": "MTK0866:39GHHAVOMGYSHY4ZE7WCQ3PEIC54JA", "current_trial": 230, "dateTime": 1512853825940, "trialdata": {"rt": -1, "stimulus": "<p id=\"stim\">10</p>", "key_press": -1, "trial_type": "single-stim", "trial_index": 230, "time_elapsed": 1141487, "internal_node_id": "0.0-167.0-0.0"}}, {"uniqueid": "MTK0866:39GHHAVOMGYSHY4ZE7WCQ3PEIC54JA", "current_trial": 231, "dateTime": 1512853826943, "trialdata": {"rt": -1, "stimulus": "<p id=\"stim\">9</p>", "key_press": -1, "trial_type": "single-stim", "trial_index": 231, "time_elapsed": 1142490, "internal_node_id": "0.0-167.0-1.0"}}, {"uniqueid": "MTK0866:39GHHAVOMGYSHY4ZE7WCQ3PEIC54JA", "current_trial": 232, "dateTime": 1512853827945, "trialdata": {"rt": -1, "stimulus": "<p id=\"stim\">8</p>", "key_press": -1, "trial_type": "single-stim", "trial_index": 232, "time_elapsed": 1143491, "internal_node_id": "0.0-167.0-2.0"}}, {"uniqueid": "MTK0866:39GHHAVOMGYSHY4ZE7WCQ3PEIC54JA", "current_trial": 233, "dateTime": 1512853828946, "trialdata": {"rt": -1, "stimulus": "<p id=\"stim\">7</p>", "key_press": -1, "trial_type": "single-stim", "trial_index": 233, "time_elapsed": 1144493, "internal_node_id": "0.0-167.0-3.0"}}, {"uniqueid": "MTK0866:39GHHAVOMGYSHY4ZE7WCQ3PEIC54JA", "current_trial": 234, "dateTime": 1512853829948, "trialdata": {"rt": -1, "stimulus": "<p id=\"stim\">6</p>", "key_press": -1, "trial_type": "single-stim", "trial_index": 234, "time_elapsed": 1145494, "internal_node_id": "0.0-167.0-4.0"}}, {"uniqueid": "MTK0866:39GHHAVOMGYSHY4ZE7WCQ3PEIC54JA", "current_trial": 235, "dateTime": 1512853830950, "trialdata": {"rt": -1, "stimulus": "<p id=\"stim\">5</p>", "key_press": -1, "trial_type": "single-stim", "trial_index": 235, "time_elapsed": 1146497, "internal_node_id": "0.0-167.0-5.0"}}, {"uniqueid": "MTK0866:39GHHAVOMGYSHY4ZE7WCQ3PEIC54JA", "current_trial": 236, "dateTime": 1512853831952, "trialdata": {"rt": -1, "stimulus": "<p id=\"stim\">4</p>", "key_press": -1, "trial_type": "single-stim", "trial_index": 236, "time_elapsed": 1147499, "internal_node_id": "0.0-167.0-6.0"}}, {"uniqueid": "MTK0866:39GHHAVOMGYSHY4ZE7WCQ3PEIC54JA", "current_trial": 237, "dateTime": 1512853832954, "trialdata": {"rt": -1, "stimulus": "<p id=\"stim\">3</p>", "key_press": -1, "trial_type": "single-stim", "trial_index": 237, "time_elapsed": 1148501, "internal_node_id": "0.0-167.0-7.0"}}, {"uniqueid": "MTK0866:39GHHAVOMGYSHY4ZE7WCQ3PEIC54JA", "current_trial": 238, "dateTime": 1512853833956, "trialdata": {"rt": -1, "stimulus": "<p id=\"stim\">2</p>", "key_press": -1, "trial_type": "single-stim", "trial_index": 238, "time_elapsed": 1149503, "internal_node_id": "0.0-167.0-8.0"}}, {"uniqueid": "MTK0866:39GHHAVOMGYSHY4ZE7WCQ3PEIC54JA", "current_trial": 239, "dateTime": 1512853834958, "trialdata": {"rt": -1, "stimulus": "<p id=\"stim\">1</p>", "key_press": -1, "trial_type": "single-stim", "trial_index": 239, "time_elapsed": 1150505, "internal_node_id": "0.0-167.0-9.0"}}, {"uniqueid": "MTK0866:39GHHAVOMGYSHY4ZE7WCQ3PEIC54JA", "current_trial": 240, "dateTime": 1512853836460, "trialdata": {"rt": -1, "stimulus": "<p id=\"stim\">+</p>", "key_press": -1, "type": "FIXATION", "trial_type": "single-stim", "trial_index": 240, "time_elapsed": 1152007, "internal_node_id": "0.0-168.0-0.0"}}, {"uniqueid": "MTK0866:39GHHAVOMGYSHY4ZE7WCQ3PEIC54JA", "current_trial": 241, "dateTime": 1512853837262, "trialdata": {"rt": -1, "stimulus": "<p id=\"stim\">SCALPEL</p>", "key_press": -1, "type": "PRES_VIS", "word": "scalpel", "wordID": 1242, "conditions": [24, 800, "v", 24000], "trial": 7, "serialpos": 0, "trial_type": "single-stim", "trial_index": 241, "time_elapsed": 1152809, "internal_node_id": "0.0-169.0"}}, {"uniqueid": "MTK0866:39GHHAVOMGYSHY4ZE7WCQ3PEIC54JA", "current_trial": 242, "dateTime": 1512853838991, "trialdata": {"rt": -1, "stimulus": "<p id=\"stim\">BUTCHER</p>", "key_press": -1, "type": "PRES_VIS", "word": "butcher", "wordID": 202, "conditions": [24, 800, "v", 24000], "trial": 7, "serialpos": 1, "trial_type": "single-stim", "trial_index": 242, "time_elapsed": 1154538, "internal_node_id": "0.0-170.0"}}, {"uniqueid": "MTK0866:39GHHAVOMGYSHY4ZE7WCQ3PEIC54JA", "current_trial": 243, "dateTime": 1512853840978, "trialdata": {"rt": -1, "stimulus": "<p id=\"stim\">TRACTOR</p>", "key_press": -1, "type": "PRES_VIS", "word": "tractor", "wordID": 1492, "conditions": [24, 800, "v", 24000], "trial": 7, "serialpos": 2, "trial_type": "single-stim", "trial_index": 243, "time_elapsed": 1156524, "internal_node_id": "0.0-171.0"}}, {"uniqueid": "MTK0866:39GHHAVOMGYSHY4ZE7WCQ3PEIC54JA", "current_trial": 244, "dateTime": 1512853842732, "trialdata": {"rt": -1, "stimulus": "<p id=\"stim\">FILM</p>", "key_press": -1, "type": "PRES_VIS", "word": "film", "wordID": 564, "conditions": [24, 800, "v", 24000], "trial": 7, "serialpos": 3, "trial_type": "single-stim", "trial_index": 244, "time_elapsed": 1158279, "internal_node_id": "0.0-172.0"}}, {"uniqueid": "MTK0866:39GHHAVOMGYSHY4ZE7WCQ3PEIC54JA", "current_trial": 245, "dateTime": 1512853844398, "trialdata": {"rt": -1, "stimulus": "<p id=\"stim\">RADISH</p>", "key_press": -1, "type": "PRES_VIS", "word": "radish", "wordID": 1157, "conditions": [24, 800, "v", 24000], "trial": 7, "serialpos": 4, "trial_type": "single-stim", "trial_index": 245, "time_elapsed": 1159945, "internal_node_id": "0.0-173.0"}}, {"uniqueid": "MTK0866:39GHHAVOMGYSHY4ZE7WCQ3PEIC54JA", "current_trial": 246, "dateTime": 1512853846277, "trialdata": {"rt": -1, "stimulus": "<p id=\"stim\">GLOVE</p>", "key_press": -1, "type": "PRES_VIS", "word": "glove", "wordID": 641, "conditions": [24, 800, "v", 24000], "trial": 7, "serialpos": 5, "trial_type": "single-stim", "trial_index": 246, "time_elapsed": 1161823, "internal_node_id": "0.0-174.0"}}, {"uniqueid": "MTK0866:39GHHAVOMGYSHY4ZE7WCQ3PEIC54JA", "current_trial": 247, "dateTime": 1512853848165, "trialdata": {"rt": -1, "stimulus": "<p id=\"stim\">STOMACH</p>", "key_press": -1, "type": "PRES_VIS", "word": "stomach", "wordID": 1383, "conditions": [24, 800, "v", 24000], "trial": 7, "serialpos": 6, "trial_type": "single-stim", "trial_index": 247, "time_elapsed": 1163712, "internal_node_id": "0.0-175.0"}}, {"uniqueid": "MTK0866:39GHHAVOMGYSHY4ZE7WCQ3PEIC54JA", "current_trial": 248, "dateTime": 1512853849799, "trialdata": {"rt": -1, "stimulus": "<p id=\"stim\">DRESSER</p>", "key_press": -1, "type": "PRES_VIS", "word": "dresser", "wordID": 495, "conditions": [24, 800, "v", 24000], "trial": 7, "serialpos": 7, "trial_type": "single-stim", "trial_index": 248, "time_elapsed": 1165345, "internal_node_id": "0.0-176.0"}}, {"uniqueid": "MTK0866:39GHHAVOMGYSHY4ZE7WCQ3PEIC54JA", "current_trial": 249, "dateTime": 1512853851649, "trialdata": {"rt": -1, "stimulus": "<p id=\"stim\">MATTRESS</p>", "key_press": -1, "type": "PRES_VIS", "word": "mattress", "wordID": 878, "conditions": [24, 800, "v", 24000], "trial": 7, "serialpos": 8, "trial_type": "single-stim", "trial_index": 249, "time_elapsed": 1167195, "internal_node_id": "0.0-177.0"}}, {"uniqueid": "MTK0866:39GHHAVOMGYSHY4ZE7WCQ3PEIC54JA", "current_trial": 250, "dateTime": 1512853853498, "trialdata": {"rt": -1, "stimulus": "<p id=\"stim\">COUCH</p>", "key_press": -1, "type": "PRES_VIS", "word": "couch", "wordID": 385, "conditions": [24, 800, "v", 24000], "trial": 7, "serialpos": 9, "trial_type": "single-stim", "trial_index": 250, "time_elapsed": 1169044, "internal_node_id": "0.0-178.0"}}, {"uniqueid": "MTK0866:39GHHAVOMGYSHY4ZE7WCQ3PEIC54JA", "current_trial": 251, "dateTime": 1512853855137, "trialdata": {"rt": -1, "stimulus": "<p id=\"stim\">SALAD</p>", "key_press": -1, "type": "PRES_VIS", "word": "salad", "wordID": 1223, "conditions": [24, 800, "v", 24000], "trial": 7, "serialpos": 10, "trial_type": "single-stim", "trial_index": 251, "time_elapsed": 1170684, "internal_node_id": "0.0-179.0"}}, {"uniqueid": "MTK0866:39GHHAVOMGYSHY4ZE7WCQ3PEIC54JA", "current_trial": 252, "dateTime": 1512853856763, "trialdata": {"rt": -1, "stimulus": "<p id=\"stim\">WHISKERS</p>", "key_press": -1, "type": "PRES_VIS", "word": "whiskers", "wordID": 1604, "conditions": [24, 800, "v", 24000], "trial": 7, "serialpos": 11, "trial_type": "single-stim", "trial_index": 252, "time_elapsed": 1172310, "internal_node_id": "0.0-180.0"}}, {"uniqueid": "MTK0866:39GHHAVOMGYSHY4ZE7WCQ3PEIC54JA", "current_trial": 253, "dateTime": 1512853858556, "trialdata": {"rt": -1, "stimulus": "<p id=\"stim\">RATTLE</p>", "key_press": -1, "type": "PRES_VIS", "word": "rattle", "wordID": 1169, "conditions": [24, 800, "v", 24000], "trial": 7, "serialpos": 12, "trial_type": "single-stim", "trial_index": 253, "time_elapsed": 1174102, "internal_node_id": "0.0-181.0"}}, {"uniqueid": "MTK0866:39GHHAVOMGYSHY4ZE7WCQ3PEIC54JA", "current_trial": 254, "dateTime": 1512853860242, "trialdata": {"rt": -1, "stimulus": "<p id=\"stim\">SAUSAGE</p>", "key_press": -1, "type": "PRES_VIS", "word": "sausage", "wordID": 1237, "conditions": [24, 800, "v", 24000], "trial": 7, "serialpos": 13, "trial_type": "single-stim", "trial_index": 254, "time_elapsed": 1175789, "internal_node_id": "0.0-182.0"}}, {"uniqueid": "MTK0866:39GHHAVOMGYSHY4ZE7WCQ3PEIC54JA", "current_trial": 255, "dateTime": 1512853862022, "trialdata": {"rt": -1, "stimulus": "<p id=\"stim\">JAPAN</p>", "key_press": -1, "type": "PRES_VIS", "word": "japan", "wordID": 748, "conditions": [24, 800, "v", 24000], "trial": 7, "serialpos": 14, "trial_type": "single-stim", "trial_index": 255, "time_elapsed": 1177569, "internal_node_id": "0.0-183.0"}}, {"uniqueid": "MTK0866:39GHHAVOMGYSHY4ZE7WCQ3PEIC54JA", "current_trial": 256, "dateTime": 1512853863803, "trialdata": {"rt": -1, "stimulus": "<p id=\"stim\">CHAUFFEUR</p>", "key_press": -1, "type": "PRES_VIS", "word": "chauffeur", "wordID": 282, "conditions": [24, 800, "v", 24000], "trial": 7, "serialpos": 15, "trial_type": "single-stim", "trial_index": 256, "time_elapsed": 1179349, "internal_node_id": "0.0-184.0"}}, {"uniqueid": "MTK0866:39GHHAVOMGYSHY4ZE7WCQ3PEIC54JA", "current_trial": 257, "dateTime": 1512853865772, "trialdata": {"rt": -1, "stimulus": "<p id=\"stim\">EGYPT</p>", "key_press": -1, "type": "PRES_VIS", "word": "egypt", "wordID": 518, "conditions": [24, 800, "v", 24000], "trial": 7, "serialpos": 16, "trial_type": "single-stim", "trial_index": 257, "time_elapsed": 1181319, "internal_node_id": "0.0-185.0"}}, {"uniqueid": "MTK0866:39GHHAVOMGYSHY4ZE7WCQ3PEIC54JA", "current_trial": 258, "dateTime": 1512853867699, "trialdata": {"rt": -1, "stimulus": "<p id=\"stim\">SHIRT</p>", "key_press": -1, "type": "PRES_VIS", "word": "shirt", "wordID": 1286, "conditions": [24, 800, "v", 24000], "trial": 7, "serialpos": 17, "trial_type": "single-stim", "trial_index": 258, "time_elapsed": 1183246, "internal_node_id": "0.0-186.0"}}, {"uniqueid": "MTK0866:39GHHAVOMGYSHY4ZE7WCQ3PEIC54JA", "current_trial": 259, "dateTime": 1512853869562, "trialdata": {"rt": -1, "stimulus": "<p id=\"stim\">HEADBAND</p>", "key_press": -1, "type": "PRES_VIS", "word": "headband", "wordID": 695, "conditions": [24, 800, "v", 24000], "trial": 7, "serialpos": 18, "trial_type": "single-stim", "trial_index": 259, "time_elapsed": 1185109, "internal_node_id": "0.0-187.0"}}, {"uniqueid": "MTK0866:39GHHAVOMGYSHY4ZE7WCQ3PEIC54JA", "current_trial": 260, "dateTime": 1512853871491, "trialdata": {"rt": -1, "stimulus": "<p id=\"stim\">BUBBLE</p>", "key_press": -1, "type": "PRES_VIS", "word": "bubble", "wordID": 182, "conditions": [24, 800, "v", 24000], "trial": 7, "serialpos": 19, "trial_type": "single-stim", "trial_index": 260, "time_elapsed": 1187037, "internal_node_id": "0.0-188.0"}}, {"uniqueid": "MTK0866:39GHHAVOMGYSHY4ZE7WCQ3PEIC54JA", "current_trial": 261, "dateTime": 1512853873460, "trialdata": {"rt": -1, "stimulus": "<p id=\"stim\">GHETTO</p>", "key_press": -1, "type": "PRES_VIS", "word": "ghetto", "wordID": 632, "conditions": [24, 800, "v", 24000], "trial": 7, "serialpos": 20, "trial_type": "single-stim", "trial_index": 261, "time_elapsed": 1189007, "internal_node_id": "0.0-189.0"}}, {"uniqueid": "MTK0866:39GHHAVOMGYSHY4ZE7WCQ3PEIC54JA", "current_trial": 262, "dateTime": 1512853875371, "trialdata": {"rt": -1, "stimulus": "<p id=\"stim\">PASTA</p>", "key_press": -1, "type": "PRES_VIS", "word": "pasta", "wordID": 1020, "conditions": [24, 800, "v", 24000], "trial": 7, "serialpos": 21, "trial_type": "single-stim", "trial_index": 262, "time_elapsed": 1190917, "internal_node_id": "0.0-190.0"}}, {"uniqueid": "MTK0866:39GHHAVOMGYSHY4ZE7WCQ3PEIC54JA", "current_trial": 263, "dateTime": 1512853877020, "trialdata": {"rt": -1, "stimulus": "<p id=\"stim\">BLOCKADE</p>", "key_press": -1, "type": "PRES_VIS", "word": "blockade", "wordID": 136, "conditions": [24, 800, "v", 24000], "trial": 7, "serialpos": 22, "trial_type": "single-stim", "trial_index": 263, "time_elapsed": 1192566, "internal_node_id": "0.0-191.0"}}, {"uniqueid": "MTK0866:39GHHAVOMGYSHY4ZE7WCQ3PEIC54JA", "current_trial": 264, "dateTime": 1512853878815, "trialdata": {"rt": -1, "stimulus": "<p id=\"stim\">DORM</p>", "key_press": -1, "type": "PRES_VIS", "word": "dorm", "wordID": 487, "conditions": [24, 800, "v", 24000], "trial": 7, "serialpos": 23, "trial_type": "single-stim", "trial_index": 264, "time_elapsed": 1194362, "internal_node_id": "0.0-192.0"}}, {"uniqueid": "MTK0866:39GHHAVOMGYSHY4ZE7WCQ3PEIC54JA", "current_trial": 265, "dateTime": 1512853881215, "trialdata": {"rt": -1, "stimulus": "", "key_press": -1, "type": "PRE_RECALL_DELAY", "trial_type": "single-stim", "trial_index": 265, "time_elapsed": 1196762, "internal_node_id": "0.0-193.0-0.0"}}, {"uniqueid": "MTK0866:39GHHAVOMGYSHY4ZE7WCQ3PEIC54JA", "current_trial": 266, "dateTime": 1512853881723, "trialdata": {"rt": -1000, "stimulus": "/static/audio/400Hz.wav", "key_press": -1, "type": "PRE_RECALL_ALERT", "trial_type": "single-audio", "trial_index": 266, "time_elapsed": 1197270, "internal_node_id": "0.0-194.0"}}, {"uniqueid": "MTK0866:39GHHAVOMGYSHY4ZE7WCQ3PEIC54JA", "current_trial": 267, "dateTime": 1512853941736, "trialdata": {"rt": [3478, 4967, 14174, 23401, 30028, 39745, 44176, 55736], "recwords": ["radish", "ghett", "chauffer", "rattle", "film", "couch", "dresser", "mattress"], "type": "FREE_RECALL", "conditions": [24, 800, "v", 24000], "trial": 7, "trial_type": "free-recall", "trial_index": 267, "time_elapsed": 1257275, "internal_node_id": "0.0-195.0-0.0"}}, {"uniqueid": "MTK0866:39GHHAVOMGYSHY4ZE7WCQ3PEIC54JA", "current_trial": 268, "dateTime": 1512853944388, "trialdata": {"rt": 649, "key_press": 32, "type": "INSTRUCTIONS", "trial_type": "text", "trial_index": 268, "time_elapsed": 1259935, "internal_node_id": "0.0-196.0"}}, {"uniqueid": "MTK0866:39GHHAVOMGYSHY4ZE7WCQ3PEIC54JA", "current_trial": 269, "dateTime": 1512853970393, "trialdata": {"rt": [3098, 6518, 8947, 14090, 17777, 21985], "responses": ["17", "17", "14", "13", "23", "14"], "num1": [7, 6, 5, 7, 9, 5, 3], "num2": [8, 6, 5, 4, 9, 4, 6], "num3": [2, 5, 4, 2, 5, 5, 7], "type": "DISTRACTOR", "conditions": [24, 800, "a", 24000], "trial": 8, "trial_type": "math-distractor", "trial_index": 269, "time_elapsed": 1285940, "internal_node_id": "0.0-197.0"}}, {"uniqueid": "MTK0866:39GHHAVOMGYSHY4ZE7WCQ3PEIC54JA", "current_trial": 270, "dateTime": 1512853973397, "trialdata": {"rt": -1, "stimulus": "<p id=\"stim\">10</p>", "key_press": -1, "trial_type": "single-stim", "trial_index": 270, "time_elapsed": 1288943, "internal_node_id": "0.0-198.0-0.0"}}, {"uniqueid": "MTK0866:39GHHAVOMGYSHY4ZE7WCQ3PEIC54JA", "current_trial": 271, "dateTime": 1512853974399, "trialdata": {"rt": -1, "stimulus": "<p id=\"stim\">9</p>", "key_press": -1, "trial_type": "single-stim", "trial_index": 271, "time_elapsed": 1289945, "internal_node_id": "0.0-198.0-1.0"}}, {"uniqueid": "MTK0866:39GHHAVOMGYSHY4ZE7WCQ3PEIC54JA", "current_trial": 272, "dateTime": 1512853975401, "trialdata": {"rt": -1, "stimulus": "<p id=\"stim\">8</p>", "key_press": -1, "trial_type": "single-stim", "trial_index": 272, "time_elapsed": 1290948, "internal_node_id": "0.0-198.0-2.0"}}, {"uniqueid": "MTK0866:39GHHAVOMGYSHY4ZE7WCQ3PEIC54JA", "current_trial": 273, "dateTime": 1512853976404, "trialdata": {"rt": -1, "stimulus": "<p id=\"stim\">7</p>", "key_press": -1, "trial_type": "single-stim", "trial_index": 273, "time_elapsed": 1291951, "internal_node_id": "0.0-198.0-3.0"}}, {"uniqueid": "MTK0866:39GHHAVOMGYSHY4ZE7WCQ3PEIC54JA", "current_trial": 274, "dateTime": 1512853977405, "trialdata": {"rt": -1, "stimulus": "<p id=