{"condition": 0, "counterbalance": 658, "assignmentId": "36H9ULYP6312FE1OYOSVH7M55X0JFN", "workerId": "MTK0349", "hitId": "39AYGO6AFFR0SR14MRCHROUP7WR6N3", "currenttrial": 626, "bonus": 0, "data": [{"uniqueid": "MTK0349:36H9ULYP6312FE1OYOSVH7M55X0JFN", "current_trial": 0, "dateTime": 1510772459022, "trialdata": {"rt": 5981, "key_press": 70, "type": "INSTRUCTIONS", "trial_type": "text", "trial_index": 0, "time_elapsed": 5982, "internal_node_id": "0.0-0.0"}}, {"uniqueid": "MTK0349:36H9ULYP6312FE1OYOSVH7M55X0JFN", "current_trial": 1, "dateTime": 1510772538055, "trialdata": {"rt": 79032, "key_press": 70, "type": "INSTRUCTIONS", "trial_type": "text", "trial_index": 1, "time_elapsed": 85015, "internal_node_id": "0.0-1.0"}}, {"uniqueid": "MTK0349:36H9ULYP6312FE1OYOSVH7M55X0JFN", "current_trial": 2, "dateTime": 1510772545430, "trialdata": {"rt": [7366], "responses": ["ocean"], "type": "AUDIO_TEST", "trial_type": "audio-test", "trial_index": 2, "time_elapsed": 92390, "internal_node_id": "0.0-2.0"}}, {"uniqueid": "MTK0349:36H9ULYP6312FE1OYOSVH7M55X0JFN", "current_trial": 3, "dateTime": 1510772551037, "trialdata": {"rt": [5606], "responses": ["crystal"], "type": "AUDIO_TEST", "trial_type": "audio-test", "trial_index": 3, "time_elapsed": 97997, "internal_node_id": "0.0-3.0"}}, {"uniqueid": "MTK0349:36H9ULYP6312FE1OYOSVH7M55X0JFN", "current_trial": 4, "dateTime": 1510772555318, "trialdata": {"rt": [4279], "responses": ["spice"], "type": "AUDIO_TEST", "trial_type": "audio-test", "trial_index": 4, "time_elapsed": 102278, "internal_node_id": "0.0-4.0"}}, {"uniqueid": "MTK0349:36H9ULYP6312FE1OYOSVH7M55X0JFN", "current_trial": 5, "dateTime": 1510772582741, "trialdata": {"rt": 26669, "responses": "{\"Q0\":\"1:30am\",\"Q1\":\"8:30am\",\"Q2\":\"4\"}", "type": "SLEEP_SURVEY", "trial_type": "survey-text", "trial_index": 5, "time_elapsed": 129701, "internal_node_id": "0.0-5.0"}}, {"uniqueid": "MTK0349:36H9ULYP6312FE1OYOSVH7M55X0JFN", "current_trial": 6, "dateTime": 1510772624550, "trialdata": {"rt": 40806, "key_press": 71, "type": "INSTRUCTIONS", "trial_type": "text", "trial_index": 6, "time_elapsed": 171510, "internal_node_id": "0.0-6.0"}}, {"uniqueid": "MTK0349:36H9ULYP6312FE1OYOSVH7M55X0JFN", "current_trial": 7, "dateTime": 1510772639302, "trialdata": {"rt": 14250, "key_press": 71, "type": "INSTRUCTIONS", "trial_type": "text", "trial_index": 7, "time_elapsed": 186262, "internal_node_id": "0.0-7.0"}}, {"uniqueid": "MTK0349:36H9ULYP6312FE1OYOSVH7M55X0JFN", "current_trial": 8, "dateTime": 1510772646888, "trialdata": {"rt": 7082, "key_press": 71, "type": "INSTRUCTIONS", "trial_type": "text", "trial_index": 8, "time_elapsed": 193847, "internal_node_id": "0.0-8.0"}}, {"uniqueid": "MTK0349:36H9ULYP6312FE1OYOSVH7M55X0JFN", "current_trial": 9, "dateTime": 1510772665895, "trialdata": {"rt": [3001, 4665, 7841, 12800, 14705], "responses": ["15", "13", "19", "13", "11"], "num1": [3, 6, 5, 7, 6, 2], "num2": [5, 4, 6, 4, 4, 3], "num3": [7, 3, 8, 2, 1, 9], "type": "DISTRACTOR", "conditions": [18, 1200, "a", 18000], "trial": 0, "trial_type": "math-distractor", "trial_index": 9, "time_elapsed": 212855, "internal_node_id": "0.0-9.0"}}, {"uniqueid": "MTK0349:36H9ULYP6312FE1OYOSVH7M55X0JFN", "current_trial": 10, "dateTime": 1510772668898, "trialdata": {"rt": -1, "stimulus": "<p id=\"stim\">10</p>", "key_press": -1, "trial_type": "single-stim", "trial_index": 10, "time_elapsed": 215858, "internal_node_id": "0.0-10.0-0.0"}}, {"uniqueid": "MTK0349:36H9ULYP6312FE1OYOSVH7M55X0JFN", "current_trial": 11, "dateTime": 1510772669900, "trialdata": {"rt": -1, "stimulus": "<p id=\"stim\">9</p>", "key_press": -1, "trial_type": "single-stim", "trial_index": 11, "time_elapsed": 216860, "internal_node_id": "0.0-10.0-1.0"}}, {"uniqueid": "MTK0349:36H9ULYP6312FE1OYOSVH7M55X0JFN", "current_trial": 12, "dateTime": 1510772670901, "trialdata": {"rt": -1, "stimulus": "<p id=\"stim\">8</p>", "key_press": -1, "trial_type": "single-stim", "trial_index": 12, "time_elapsed": 217861, "internal_node_id": "0.0-10.0-2.0"}}, {"uniqueid": "MTK0349:36H9ULYP6312FE1OYOSVH7M55X0JFN", "current_trial": 13, "dateTime": 1510772671903, "trialdata": {"rt": -1, "stimulus": "<p id=\"stim\">7</p>", "key_press": -1, "trial_type": "single-stim", "trial_index": 13, "time_elapsed": 218863, "internal_node_id": "0.0-10.0-3.0"}}, {"uniqueid": "MTK0349:36H9ULYP6312FE1OYOSVH7M55X0JFN", "current_trial": 14, "dateTime": 1510772672906, "trialdata": {"rt": -1, "stimulus": "<p id=\"stim\">6</p>", "key_press": -1, "trial_type": "single-stim", "trial_index": 14, "time_elapsed": 219865, "internal_node_id": "0.0-10.0-4.0"}}, {"uniqueid": "MTK0349:36H9ULYP6312FE1OYOSVH7M55X0JFN", "current_trial": 15, "dateTime": 1510772673908, "trialdata": {"rt": -1, "stimulus": "<p id=\"stim\">5</p>", "key_press": -1, "trial_type": "single-stim", "trial_index": 15, "time_elapsed": 220867, "internal_node_id": "0.0-10.0-5.0"}}, {"uniqueid": "MTK0349:36H9ULYP6312FE1OYOSVH7M55X0JFN", "current_trial": 16, "dateTime": 1510772674909, "trialdata": {"rt": -1, "stimulus": "<p id=\"stim\">4</p>", "key_press": -1, "trial_type": "single-stim", "trial_index": 16, "time_elapsed": 221869, "internal_node_id": "0.0-10.0-6.0"}}, {"uniqueid": "MTK0349:36H9ULYP6312FE1OYOSVH7M55X0JFN", "current_trial": 17, "dateTime": 1510772675911, "trialdata": {"rt": -1, "stimulus": "<p id=\"stim\">3</p>", "key_press": -1, "trial_type": "single-stim", "trial_index": 17, "time_elapsed": 222871, "internal_node_id": "0.0-10.0-7.0"}}, {"uniqueid": "MTK0349:36H9ULYP6312FE1OYOSVH7M55X0JFN", "current_trial": 18, "dateTime": 1510772676913, "trialdata": {"rt": -1, "stimulus": "<p id=\"stim\">2</p>", "key_press": -1, "trial_type": "single-stim", "trial_index": 18, "time_elapsed": 223872, "internal_node_id": "0.0-10.0-8.0"}}, {"uniqueid": "MTK0349:36H9ULYP6312FE1OYOSVH7M55X0JFN", "current_trial": 19, "dateTime": 1510772677915, "trialdata": {"rt": -1, "stimulus": "<p id=\"stim\">1</p>", "key_press": -1, "trial_type": "single-stim", "trial_index": 19, "time_elapsed": 224875, "internal_node_id": "0.0-10.0-9.0"}}, {"uniqueid": "MTK0349:36H9ULYP6312FE1OYOSVH7M55X0JFN", "current_trial": 20, "dateTime": 1510772679416, "trialdata": {"rt": -1, "stimulus": "<p id=\"stim\">+</p>", "key_press": -1, "type": "FIXATION", "trial_type": "single-stim", "trial_index": 20, "time_elapsed": 226376, "internal_node_id": "0.0-11.0-0.0"}}, {"uniqueid": "MTK0349:36H9ULYP6312FE1OYOSVH7M55X0JFN", "current_trial": 21, "dateTime": 1510772681689, "trialdata": {"rt": -1000, "stimulus": "/static/audio/wordpool/BRANCH.wav", "key_press": -1, "type": "PRES_AUD", "word": "branch", "wordID": 167, "conditions": [18, 1200, "a", 18000], "trial": 0, "serialpos": 0, "trial_type": "single-audio", "trial_index": 21, "time_elapsed": 228649, "internal_node_id": "0.0-12.0"}}, {"uniqueid": "MTK0349:36H9ULYP6312FE1OYOSVH7M55X0JFN", "current_trial": 22, "dateTime": 1510772683924, "trialdata": {"rt": -1000, "stimulus": "/static/audio/wordpool/GRAVE.wav", "key_press": -1, "type": "PRES_AUD", "word": "grave", "wordID": 657, "conditions": [18, 1200, "a", 18000], "trial": 0, "serialpos": 1, "trial_type": "single-audio", "trial_index": 22, "time_elapsed": 230884, "internal_node_id": "0.0-13.0"}}, {"uniqueid": "MTK0349:36H9ULYP6312FE1OYOSVH7M55X0JFN", "current_trial": 23, "dateTime": 1510772686017, "trialdata": {"rt": -1000, "stimulus": "/static/audio/wordpool/PEANUT.wav", "key_press": -1, "type": "PRES_AUD", "word": "peanut", "wordID": 1031, "conditions": [18, 1200, "a", 18000], "trial": 0, "serialpos": 2, "trial_type": "single-audio", "trial_index": 23, "time_elapsed": 232977, "internal_node_id": "0.0-14.0"}}, {"uniqueid": "MTK0349:36H9ULYP6312FE1OYOSVH7M55X0JFN", "current_trial": 24, "dateTime": 1510772688203, "trialdata": {"rt": -1000, "stimulus": "/static/audio/wordpool/CANAL.wav", "key_press": -1, "type": "PRES_AUD", "word": "canal", "wordID": 225, "conditions": [18, 1200, "a", 18000], "trial": 0, "serialpos": 3, "trial_type": "single-audio", "trial_index": 24, "time_elapsed": 235163, "internal_node_id": "0.0-15.0"}}, {"uniqueid": "MTK0349:36H9ULYP6312FE1OYOSVH7M55X0JFN", "current_trial": 25, "dateTime": 1510772690518, "trialdata": {"rt": -1000, "stimulus": "/static/audio/wordpool/TART.wav", "key_press": -1, "type": "PRES_AUD", "word": "tart", "wordID": 1435, "conditions": [18, 1200, "a", 18000], "trial": 0, "serialpos": 4, "trial_type": "single-audio", "trial_index": 25, "time_elapsed": 237478, "internal_node_id": "0.0-16.0"}}, {"uniqueid": "MTK0349:36H9ULYP6312FE1OYOSVH7M55X0JFN", "current_trial": 26, "dateTime": 1510772692823, "trialdata": {"rt": -1000, "stimulus": "/static/audio/wordpool/OFFICE.wav", "key_press": -1, "type": "PRES_AUD", "word": "office", "wordID": 971, "conditions": [18, 1200, "a", 18000], "trial": 0, "serialpos": 5, "trial_type": "single-audio", "trial_index": 26, "time_elapsed": 239782, "internal_node_id": "0.0-17.0"}}, {"uniqueid": "MTK0349:36H9ULYP6312FE1OYOSVH7M55X0JFN", "current_trial": 27, "dateTime": 1510772695162, "trialdata": {"rt": -1000, "stimulus": "/static/audio/wordpool/TOASTER.wav", "key_press": -1, "type": "PRES_AUD", "word": "toaster", "wordID": 1471, "conditions": [18, 1200, "a", 18000], "trial": 0, "serialpos": 6, "trial_type": "single-audio", "trial_index": 27, "time_elapsed": 242122, "internal_node_id": "0.0-18.0"}}, {"uniqueid": "MTK0349:36H9ULYP6312FE1OYOSVH7M55X0JFN", "current_trial": 28, "dateTime": 1510772697294, "trialdata": {"rt": -1000, "stimulus": "/static/audio/wordpool/BATHTUB.wav", "key_press": -1, "type": "PRES_AUD", "word": "bathtub", "wordID": 99, "conditions": [18, 1200, "a", 18000], "trial": 0, "serialpos": 7, "trial_type": "single-audio", "trial_index": 28, "time_elapsed": 244254, "internal_node_id": "0.0-19.0"}}, {"uniqueid": "MTK0349:36H9ULYP6312FE1OYOSVH7M55X0JFN", "current_trial": 29, "dateTime": 1510772699670, "trialdata": {"rt": -1000, "stimulus": "/static/audio/wordpool/PERMIT.wav", "key_press": -1, "type": "PRES_AUD", "word": "permit", "wordID": 1050, "conditions": [18, 1200, "a", 18000], "trial": 0, "serialpos": 8, "trial_type": "single-audio", "trial_index": 29, "time_elapsed": 246630, "internal_node_id": "0.0-20.0"}}, {"uniqueid": "MTK0349:36H9ULYP6312FE1OYOSVH7M55X0JFN", "current_trial": 30, "dateTime": 1510772702000, "trialdata": {"rt": -1000, "stimulus": "/static/audio/wordpool/MILK.wav", "key_press": -1, "type": "PRES_AUD", "word": "milk", "wordID": 894, "conditions": [18, 1200, "a", 18000], "trial": 0, "serialpos": 9, "trial_type": "single-audio", "trial_index": 30, "time_elapsed": 248960, "internal_node_id": "0.0-21.0"}}, {"uniqueid": "MTK0349:36H9ULYP6312FE1OYOSVH7M55X0JFN", "current_trial": 31, "dateTime": 1510772704348, "trialdata": {"rt": -1000, "stimulus": "/static/audio/wordpool/JURY.wav", "key_press": -1, "type": "PRES_AUD", "word": "jury", "wordID": 765, "conditions": [18, 1200, "a", 18000], "trial": 0, "serialpos": 10, "trial_type": "single-audio", "trial_index": 31, "time_elapsed": 251308, "internal_node_id": "0.0-22.0"}}, {"uniqueid": "MTK0349:36H9ULYP6312FE1OYOSVH7M55X0JFN", "current_trial": 32, "dateTime": 1510772706435, "trialdata": {"rt": -1000, "stimulus": "/static/audio/wordpool/TILE.wav", "key_press": -1, "type": "PRES_AUD", "word": "tile", "wordID": 1467, "conditions": [18, 1200, "a", 18000], "trial": 0, "serialpos": 11, "trial_type": "single-audio", "trial_index": 32, "time_elapsed": 253395, "internal_node_id": "0.0-23.0"}}, {"uniqueid": "MTK0349:36H9ULYP6312FE1OYOSVH7M55X0JFN", "current_trial": 33, "dateTime": 1510772708750, "trialdata": {"rt": -1000, "stimulus": "/static/audio/wordpool/ONION.wav", "key_press": -1, "type": "PRES_AUD", "word": "onion", "wordID": 976, "conditions": [18, 1200, "a", 18000], "trial": 0, "serialpos": 12, "trial_type": "single-audio", "trial_index": 33, "time_elapsed": 255710, "internal_node_id": "0.0-24.0"}}, {"uniqueid": "MTK0349:36H9ULYP6312FE1OYOSVH7M55X0JFN", "current_trial": 34, "dateTime": 1510772711145, "trialdata": {"rt": -1000, "stimulus": "/static/audio/wordpool/BLENDER.wav", "key_press": -1, "type": "PRES_AUD", "word": "blender", "wordID": 135, "conditions": [18, 1200, "a", 18000], "trial": 0, "serialpos": 13, "trial_type": "single-audio", "trial_index": 34, "time_elapsed": 258105, "internal_node_id": "0.0-25.0"}}, {"uniqueid": "MTK0349:36H9ULYP6312FE1OYOSVH7M55X0JFN", "current_trial": 35, "dateTime": 1510772713535, "trialdata": {"rt": -1000, "stimulus": "/static/audio/wordpool/ORCHID.wav", "key_press": -1, "type": "PRES_AUD", "word": "orchid", "wordID": 981, "conditions": [18, 1200, "a", 18000], "trial": 0, "serialpos": 14, "trial_type": "single-audio", "trial_index": 35, "time_elapsed": 260495, "internal_node_id": "0.0-26.0"}}, {"uniqueid": "MTK0349:36H9ULYP6312FE1OYOSVH7M55X0JFN", "current_trial": 36, "dateTime": 1510772715751, "trialdata": {"rt": -1000, "stimulus": "/static/audio/wordpool/HARP.wav", "key_press": -1, "type": "PRES_AUD", "word": "harp", "wordID": 688, "conditions": [18, 1200, "a", 18000], "trial": 0, "serialpos": 15, "trial_type": "single-audio", "trial_index": 36, "time_elapsed": 262711, "internal_node_id": "0.0-27.0"}}, {"uniqueid": "MTK0349:36H9ULYP6312FE1OYOSVH7M55X0JFN", "current_trial": 37, "dateTime": 1510772717894, "trialdata": {"rt": -1000, "stimulus": "/static/audio/wordpool/ICEBERG.wav", "key_press": -1, "type": "PRES_AUD", "word": "iceberg", "wordID": 730, "conditions": [18, 1200, "a", 18000], "trial": 0, "serialpos": 16, "trial_type": "single-audio", "trial_index": 37, "time_elapsed": 264854, "internal_node_id": "0.0-28.0"}}, {"uniqueid": "MTK0349:36H9ULYP6312FE1OYOSVH7M55X0JFN", "current_trial": 38, "dateTime": 1510772720173, "trialdata": {"rt": -1000, "stimulus": "/static/audio/wordpool/ORANGE.wav", "key_press": -1, "type": "PRES_AUD", "word": "orange", "wordID": 979, "conditions": [18, 1200, "a", 18000], "trial": 0, "serialpos": 17, "trial_type": "single-audio", "trial_index": 38, "time_elapsed": 267133, "internal_node_id": "0.0-29.0"}}, {"uniqueid": "MTK0349:36H9ULYP6312FE1OYOSVH7M55X0JFN", "current_trial": 39, "dateTime": 1510772721547, "trialdata": {"rt": -1, "stimulus": "", "key_press": -1, "type": "PRE_RECALL_DELAY", "trial_type": "single-stim", "trial_index": 39, "time_elapsed": 268507, "internal_node_id": "0.0-30.0-0.0"}}, {"uniqueid": "MTK0349:36H9ULYP6312FE1OYOSVH7M55X0JFN", "current_trial": 40, "dateTime": 1510772722048, "trialdata": {"rt": -1000, "stimulus": "/static/audio/400Hz.wav", "key_press": -1, "type": "PRE_RECALL_ALERT", "trial_type": "single-audio", "trial_index": 40, "time_elapsed": 269008, "internal_node_id": "0.0-31.0"}}, {"uniqueid": "MTK0349:36H9ULYP6312FE1OYOSVH7M55X0JFN", "current_trial": 41, "dateTime": 1510772782052, "trialdata": {"rt": [2087, 5507, 6986, 8283, 9846, 12902, 20002, 40453], "recwords": ["orange", "iceberg", "tart", "grave", "branch", "jury", "milk", ""], "type": "FREE_RECALL", "conditions": [18, 1200, "a", 18000], "trial": 0, "trial_type": "free-recall", "trial_index": 41, "time_elapsed": 329011, "internal_node_id": "0.0-32.0-0.0"}}, {"uniqueid": "MTK0349:36H9ULYP6312FE1OYOSVH7M55X0JFN", "current_trial": 42, "dateTime": 1510772786066, "trialdata": {"rt": 2013, "key_press": 71, "type": "INSTRUCTIONS", "trial_type": "text", "trial_index": 42, "time_elapsed": 333026, "internal_node_id": "0.0-33.0"}}, {"uniqueid": "MTK0349:36H9ULYP6312FE1OYOSVH7M55X0JFN", "current_trial": 43, "dateTime": 1510772806070, "trialdata": {"rt": [3321, 6536, 8804, 11556, 13584, 15380, 17164], "responses": ["19", "21", "15", "22", "12", "13", "7"], "num1": [8, 6, 5, 8, 5, 9, 2, 6], "num2": [7, 9, 6, 6, 1, 1, 1, 9], "num3": [4, 6, 4, 8, 6, 3, 4, 7], "type": "DISTRACTOR", "conditions": [18, 1200, "v", 18000], "trial": 1, "trial_type": "math-distractor", "trial_index": 43, "time_elapsed": 353030, "internal_node_id": "0.0-34.0"}}, {"uniqueid": "MTK0349:36H9ULYP6312FE1OYOSVH7M55X0JFN", "current_trial": 44, "dateTime": 1510772809072, "trialdata": {"rt": -1, "stimulus": "<p id=\"stim\">10</p>", "key_press": -1, "trial_type": "single-stim", "trial_index": 44, "time_elapsed": 356032, "internal_node_id": "0.0-35.0-0.0"}}, {"uniqueid": "MTK0349:36H9ULYP6312FE1OYOSVH7M55X0JFN", "current_trial": 45, "dateTime": 1510772810073, "trialdata": {"rt": -1, "stimulus": "<p id=\"stim\">9</p>", "key_press": -1, "trial_type": "single-stim", "trial_index": 45, "time_elapsed": 357033, "internal_node_id": "0.0-35.0-1.0"}}, {"uniqueid": "MTK0349:36H9ULYP6312FE1OYOSVH7M55X0JFN", "current_trial": 46, "dateTime": 1510772811075, "trialdata": {"rt": -1, "stimulus": "<p id=\"stim\">8</p>", "key_press": -1, "trial_type": "single-stim", "trial_index": 46, "time_elapsed": 358035, "internal_node_id": "0.0-35.0-2.0"}}, {"uniqueid": "MTK0349:36H9ULYP6312FE1OYOSVH7M55X0JFN", "current_trial": 47, "dateTime": 1510772812076, "trialdata": {"rt": -1, "stimulus": "<p id=\"stim\">7</p>", "key_press": -1, "trial_type": "single-stim", "trial_index": 47, "time_elapsed": 359036, "internal_node_id": "0.0-35.0-3.0"}}, {"uniqueid": "MTK0349:36H9ULYP6312FE1OYOSVH7M55X0JFN", "current_trial": 48, "dateTime": 1510772813077, "trialdata": {"rt": -1, "stimulus": "<p id=\"stim\">6</p>", "key_press": -1, "trial_type": "single-stim", "trial_index": 48, "time_elapsed": 360037, "internal_node_id": "0.0-35.0-4.0"}}, {"uniqueid": "MTK0349:36H9ULYP6312FE1OYOSVH7M55X0JFN", "current_trial": 49, "dateTime": 1510772814079, "trialdata": {"rt": -1, "stimulus": "<p id=\"stim\">5</p>", "key_press": -1, "trial_type": "single-stim", "trial_index": 49, "time_elapsed": 361039, "internal_node_id": "0.0-35.0-5.0"}}, {"uniqueid": "MTK0349:36H9ULYP6312FE1OYOSVH7M55X0JFN", "current_trial": 50, "dateTime": 1510772815080, "trialdata": {"rt": -1, "stimulus": "<p id=\"stim\">4</p>", "key_press": -1, "trial_type": "single-stim", "trial_index": 50, "time_elapsed": 362039, "internal_node_id": "0.0-35.0-6.0"}}, {"uniqueid": "MTK0349:36H9ULYP6312FE1OYOSVH7M55X0JFN", "current_trial": 51, "dateTime": 1510772816082, "trialdata": {"rt": -1, "stimulus": "<p id=\"stim\">3</p>", "key_press": -1, "trial_type": "single-stim", "trial_index": 51, "time_elapsed": 363041, "internal_node_id": "0.0-35.0-7.0"}}, {"uniqueid": "MTK0349:36H9ULYP6312FE1OYOSVH7M55X0JFN", "current_trial": 52, "dateTime": 1510772817083, "trialdata": {"rt": -1, "stimulus": "<p id=\"stim\">2</p>", "key_press": -1, "trial_type": "single-stim", "trial_index": 52, "time_elapsed": 364043, "internal_node_id": "0.0-35.0-8.0"}}, {"uniqueid": "MTK0349:36H9ULYP6312FE1OYOSVH7M55X0JFN", "current_trial": 53, "dateTime": 1510772818084, "trialdata": {"rt": -1, "stimulus": "<p id=\"stim\">1</p>", "key_press": -1, "trial_type": "single-stim", "trial_index": 53, "time_elapsed": 365044, "internal_node_id": "0.0-35.0-9.0"}}, {"uniqueid": "MTK0349:36H9ULYP6312FE1OYOSVH7M55X0JFN", "current_trial": 54, "dateTime": 1510772819586, "trialdata": {"rt": -1, "stimulus": "<p id=\"stim\">+</p>", "key_press": -1, "type": "FIXATION", "trial_type": "single-stim", "trial_index": 54, "time_elapsed": 366546, "internal_node_id": "0.0-36.0-0.0"}}, {"uniqueid": "MTK0349:36H9ULYP6312FE1OYOSVH7M55X0JFN", "current_trial": 55, "dateTime": 1510772820787, "trialdata": {"rt": -1, "stimulus": "<p id=\"stim\">GUARD</p>", "key_press": -1, "type": "PRES_VIS", "word": "guard", "wordID": 666, "conditions": [18, 1200, "v", 18000], "trial": 1, "serialpos": 0, "trial_type": "single-stim", "trial_index": 55, "time_elapsed": 367747, "internal_node_id": "0.0-37.0"}}, {"uniqueid": "MTK0349:36H9ULYP6312FE1OYOSVH7M55X0JFN", "current_trial": 56, "dateTime": 1510772822890, "trialdata": {"rt": -1, "stimulus": "<p id=\"stim\">JUGGLER</p>", "key_press": -1, "type": "PRES_VIS", "word": "juggler", "wordID": 762, "conditions": [18, 1200, "v", 18000], "trial": 1, "serialpos": 1, "trial_type": "single-stim", "trial_index": 56, "time_elapsed": 369850, "internal_node_id": "0.0-38.0"}}, {"uniqueid": "MTK0349:36H9ULYP6312FE1OYOSVH7M55X0JFN", "current_trial": 57, "dateTime": 1510772824934, "trialdata": {"rt": -1, "stimulus": "<p id=\"stim\">TERMITE</p>", "key_press": -1, "type": "PRES_VIS", "word": "termite", "wordID": 1450, "conditions": [18, 1200, "v", 18000], "trial": 1, "serialpos": 2, "trial_type": "single-stim", "trial_index": 57, "time_elapsed": 371893, "internal_node_id": "0.0-39.0"}}, {"uniqueid": "MTK0349:36H9ULYP6312FE1OYOSVH7M55X0JFN", "current_trial": 58, "dateTime": 1510772827061, "trialdata": {"rt": -1, "stimulus": "<p id=\"stim\">DAUGHTER</p>", "key_press": -1, "type": "PRES_VIS", "word": "daughter", "wordID": 441, "conditions": [18, 1200, "v", 18000], "trial": 1, "serialpos": 3, "trial_type": "single-stim", "trial_index": 58, "time_elapsed": 374021, "internal_node_id": "0.0-40.0"}}, {"uniqueid": "MTK0349:36H9ULYP6312FE1OYOSVH7M55X0JFN", "current_trial": 59, "dateTime": 1510772829318, "trialdata": {"rt": -1, "stimulus": "<p id=\"stim\">DUSTPAN</p>", "key_press": -1, "type": "PRES_VIS", "word": "dustpan", "wordID": 508, "conditions": [18, 1200, "v", 18000], "trial": 1, "serialpos": 4, "trial_type": "single-stim", "trial_index": 59, "time_elapsed": 376277, "internal_node_id": "0.0-41.0"}}, {"uniqueid": "MTK0349:36H9ULYP6312FE1OYOSVH7M55X0JFN", "current_trial": 60, "dateTime": 1510772831480, "trialdata": {"rt": -1, "stimulus": "<p id=\"stim\">MOP</p>", "key_press": -1, "type": "PRES_VIS", "word": "mop", "wordID": 915, "conditions": [18, 1200, "v", 18000], "trial": 1, "serialpos": 5, "trial_type": "single-stim", "trial_index": 60, "time_elapsed": 378440, "internal_node_id": "0.0-42.0"}}, {"uniqueid": "MTK0349:36H9ULYP6312FE1OYOSVH7M55X0JFN", "current_trial": 61, "dateTime": 1510772833523, "trialdata": {"rt": -1, "stimulus": "<p id=\"stim\">SALMON</p>", "key_press": -1, "type": "PRES_VIS", "word": "salmon", "wordID": 1226, "conditions": [18, 1200, "v", 18000], "trial": 1, "serialpos": 6, "trial_type": "single-stim", "trial_index": 61, "time_elapsed": 380482, "internal_node_id": "0.0-43.0"}}, {"uniqueid": "MTK0349:36H9ULYP6312FE1OYOSVH7M55X0JFN", "current_trial": 62, "dateTime": 1510772835893, "trialdata": {"rt": -1, "stimulus": "<p id=\"stim\">RAZOR</p>", "key_press": -1, "type": "PRES_VIS", "word": "razor", "wordID": 1170, "conditions": [18, 1200, "v", 18000], "trial": 1, "serialpos": 7, "trial_type": "single-stim", "trial_index": 62, "time_elapsed": 382853, "internal_node_id": "0.0-44.0"}}, {"uniqueid": "MTK0349:36H9ULYP6312FE1OYOSVH7M55X0JFN", "current_trial": 63, "dateTime": 1510772838294, "trialdata": {"rt": -1, "stimulus": "<p id=\"stim\">WORLD</p>", "key_press": -1, "type": "PRES_VIS", "word": "world", "wordID": 1621, "conditions": [18, 1200, "v", 18000], "trial": 1, "serialpos": 8, "trial_type": "single-stim", "trial_index": 63, "time_elapsed": 385254, "internal_node_id": "0.0-45.0"}}, {"uniqueid": "MTK0349:36H9ULYP6312FE1OYOSVH7M55X0JFN", "current_trial": 64, "dateTime": 1510772840430, "trialdata": {"rt": -1, "stimulus": "<p id=\"stim\">PREACHER</p>", "key_press": -1, "type": "PRES_VIS", "word": "preacher", "wordID": 1118, "conditions": [18, 1200, "v", 18000], "trial": 1, "serialpos": 9, "trial_type": "single-stim", "trial_index": 64, "time_elapsed": 387389, "internal_node_id": "0.0-46.0"}}, {"uniqueid": "MTK0349:36H9ULYP6312FE1OYOSVH7M55X0JFN", "current_trial": 65, "dateTime": 1510772842595, "trialdata": {"rt": -1, "stimulus": "<p id=\"stim\">PADDING</p>", "key_press": -1, "type": "PRES_VIS", "word": "padding", "wordID": 998, "conditions": [18, 1200, "v", 18000], "trial": 1, "serialpos": 10, "trial_type": "single-stim", "trial_index": 65, "time_elapsed": 389555, "internal_node_id": "0.0-47.0"}}, {"uniqueid": "MTK0349:36H9ULYP6312FE1OYOSVH7M55X0JFN", "current_trial": 66, "dateTime": 1510772844869, "trialdata": {"rt": -1, "stimulus": "<p id=\"stim\">YACHT</p>", "key_press": -1, "type": "PRES_VIS", "word": "yacht", "wordID": 1628, "conditions": [18, 1200, "v", 18000], "trial": 1, "serialpos": 11, "trial_type": "single-stim", "trial_index": 66, "time_elapsed": 391829, "internal_node_id": "0.0-48.0"}}, {"uniqueid": "MTK0349:36H9ULYP6312FE1OYOSVH7M55X0JFN", "current_trial": 67, "dateTime": 1510772846960, "trialdata": {"rt": -1, "stimulus": "<p id=\"stim\">PAPER</p>", "key_press": -1, "type": "PRES_VIS", "word": "paper", "wordID": 1010, "conditions": [18, 1200, "v", 18000], "trial": 1, "serialpos": 12, "trial_type": "single-stim", "trial_index": 67, "time_elapsed": 393919, "internal_node_id": "0.0-49.0"}}, {"uniqueid": "MTK0349:36H9ULYP6312FE1OYOSVH7M55X0JFN", "current_trial": 68, "dateTime": 1510772849253, "trialdata": {"rt": -1, "stimulus": "<p id=\"stim\">GUITAR</p>", "key_press": -1, "type": "PRES_VIS", "word": "guitar", "wordID": 669, "conditions": [18, 1200, "v", 18000], "trial": 1, "serialpos": 13, "trial_type": "single-stim", "trial_index": 68, "time_elapsed": 396208, "internal_node_id": "0.0-50.0"}}, {"uniqueid": "MTK0349:36H9ULYP6312FE1OYOSVH7M55X0JFN", "current_trial": 69, "dateTime": 1510772851500, "trialdata": {"rt": -1, "stimulus": "<p id=\"stim\">FREEZER</p>", "key_press": -1, "type": "PRES_VIS", "word": "freezer", "wordID": 603, "conditions": [18, 1200, "v", 18000], "trial": 1, "serialpos": 14, "trial_type": "single-stim", "trial_index": 69, "time_elapsed": 398460, "internal_node_id": "0.0-51.0"}}, {"uniqueid": "MTK0349:36H9ULYP6312FE1OYOSVH7M55X0JFN", "current_trial": 70, "dateTime": 1510772853711, "trialdata": {"rt": -1, "stimulus": "<p id=\"stim\">PLAID</p>", "key_press": -1, "type": "PRES_VIS", "word": "plaid", "wordID": 1079, "conditions": [18, 1200, "v", 18000], "trial": 1, "serialpos": 15, "trial_type": "single-stim", "trial_index": 70, "time_elapsed": 400671, "internal_node_id": "0.0-52.0"}}, {"uniqueid": "MTK0349:36H9ULYP6312FE1OYOSVH7M55X0JFN", "current_trial": 71, "dateTime": 1510772856005, "trialdata": {"rt": -1, "stimulus": "<p id=\"stim\">DENTIST</p>", "key_press": -1, "type": "PRES_VIS", "word": "dentist", "wordID": 446, "conditions": [18, 1200, "v", 18000], "trial": 1, "serialpos": 16, "trial_type": "single-stim", "trial_index": 71, "time_elapsed": 402960, "internal_node_id": "0.0-53.0"}}, {"uniqueid": "MTK0349:36H9ULYP6312FE1OYOSVH7M55X0JFN", "current_trial": 72, "dateTime": 1510772858235, "trialdata": {"rt": -1, "stimulus": "<p id=\"stim\">EXPERT</p>", "key_press": -1, "type": "PRES_VIS", "word": "expert", "wordID": 542, "conditions": [18, 1200, "v", 18000], "trial": 1, "serialpos": 17, "trial_type": "single-stim", "trial_index": 72, "time_elapsed": 405194, "internal_node_id": "0.0-54.0"}}, {"uniqueid": "MTK0349:36H9ULYP6312FE1OYOSVH7M55X0JFN", "current_trial": 73, "dateTime": 1510772860627, "trialdata": {"rt": -1, "stimulus": "", "key_press": -1, "type": "PRE_RECALL_DELAY", "trial_type": "single-stim", "trial_index": 73, "time_elapsed": 407586, "internal_node_id": "0.0-55.0-0.0"}}, {"uniqueid": "MTK0349:36H9ULYP6312FE1OYOSVH7M55X0JFN", "current_trial": 74, "dateTime": 1510772861128, "trialdata": {"rt": -1000, "stimulus": "/static/audio/400Hz.wav", "key_press": -1, "type": "PRE_RECALL_ALERT", "trial_type": "single-audio", "trial_index": 74, "time_elapsed": 408087, "internal_node_id": "0.0-56.0"}}, {"uniqueid": "MTK0349:36H9ULYP6312FE1OYOSVH7M55X0JFN", "current_trial": 75, "dateTime": 1510772921134, "trialdata": {"rt": [2560, 3895, 5508, 7976, 9136, 20591, 29075, 56029], "recwords": ["plaid", "expert", "dentist", "world", "guitar", "expert", "preacher", "juggler"], "type": "FREE_RECALL", "conditions": [18, 1200, "v", 18000], "trial": 1, "trial_type": "free-recall", "trial_index": 75, "time_elapsed": 468092, "internal_node_id": "0.0-57.0-0.0"}}, {"uniqueid": "MTK0349:36H9ULYP6312FE1OYOSVH7M55X0JFN", "current_trial": 76, "dateTime": 1510772926097, "trialdata": {"rt": 2957, "key_press": 72, "type": "INSTRUCTIONS", "trial_type": "text", "trial_index": 76, "time_elapsed": 473052, "internal_node_id": "0.0-58.0"}}, {"uniqueid": "MTK0349:36H9ULYP6312FE1OYOSVH7M55X0JFN", "current_trial": 77, "dateTime": 1510772939101, "trialdata": {"rt": [4667, 10490, 11846], "responses": ["22", "14", "6"], "num1": [7, 2, 2, 3], "num2": [6, 9, 2, 1], "num3": [9, 3, 2, 5], "type": "DISTRACTOR", "conditions": [24, 800, "a", 12000], "trial": 2, "trial_type": "math-distractor", "trial_index": 77, "time_elapsed": 486061, "internal_node_id": "0.0-59.0"}}, {"uniqueid": "MTK0349:36H9ULYP6312FE1OYOSVH7M55X0JFN", "current_trial": 78, "dateTime": 1510772942103, "trialdata": {"rt": -1, "stimulus": "<p id=\"stim\">10</p>", "key_press": -1, "trial_type": "single-stim", "trial_index": 78, "time_elapsed": 489063, "internal_node_id": "0.0-60.0-0.0"}}, {"uniqueid": "MTK0349:36H9ULYP6312FE1OYOSVH7M55X0JFN", "current_trial": 79, "dateTime": 1510772943104, "trialdata": {"rt": -1, "stimulus": "<p id=\"stim\">9</p>", "key_press": -1, "trial_type": "single-stim", "trial_index": 79, "time_elapsed": 490064, "internal_node_id": "0.0-60.0-1.0"}}, {"uniqueid": "MTK0349:36H9ULYP6312FE1OYOSVH7M55X0JFN", "current_trial": 80, "dateTime": 1510772944105, "trialdata": {"rt": -1, "stimulus": "<p id=\"stim\">8</p>", "key_press": -1, "trial_type": "single-stim", "trial_index": 80, "time_elapsed": 491065, "internal_node_id": "0.0-60.0-2.0"}}, {"uniqueid": "MTK0349:36H9ULYP6312FE1OYOSVH7M55X0JFN", "current_trial": 81, "dateTime": 1510772945106, "trialdata": {"rt": -1, "stimulus": "<p id=\"stim\">7</p>", "key_press": -1, "trial_type": "single-stim", "trial_index": 81, "time_elapsed": 492066, "internal_node_id": "0.0-60.0-3.0"}}, {"uniqueid": "MTK0349:36H9ULYP6312FE1OYOSVH7M55X0JFN", "current_trial": 82, "dateTime": 1510772946107, "trialdata": {"rt": -1, "stimulus": "<p id=\"stim\">6</p>", "key_press": -1, "trial_type": "single-stim", "trial_index": 82, "time_elapsed": 493067, "internal_node_id": "0.0-60.0-4.0"}}, {"uniqueid": "MTK0349:36H9ULYP6312FE1OYOSVH7M55X0JFN", "current_trial": 83, "dateTime": 1510772947108, "trialdata": {"rt": -1, "stimulus": "<p id=\"stim\">5</p>", "key_press": -1, "trial_type": "single-stim", "trial_index": 83, "time_elapsed": 494068, "internal_node_id": "0.0-60.0-5.0"}}, {"uniqueid": "MTK0349:36H9ULYP6312FE1OYOSVH7M55X0JFN", "current_trial": 84, "dateTime": 1510772948109, "trialdata": {"rt": -1, "stimulus": "<p id=\"stim\">4</p>", "key_press": -1, "trial_type": "single-stim", "trial_index": 84, "time_elapsed": 495069, "internal_node_id": "0.0-60.0-6.0"}}, {"uniqueid": "MTK0349:36H9ULYP6312FE1OYOSVH7M55X0JFN", "current_trial": 85, "dateTime": 1510772949109, "trialdata": {"rt": -1, "stimulus": "<p id=\"stim\">3</p>", "key_press": -1, "trial_type": "single-stim", "trial_index": 85, "time_elapsed": 496069, "internal_node_id": "0.0-60.0-7.0"}}, {"uniqueid": "MTK0349:36H9ULYP6312FE1OYOSVH7M55X0JFN", "current_trial": 86, "dateTime": 1510772950111, "trialdata": {"rt": -1, "stimulus": "<p id=\"stim\">2</p>", "key_press": -1, "trial_type": "single-stim", "trial_index": 86, "time_elapsed": 497071, "internal_node_id": "0.0-60.0-8.0"}}, {"uniqueid": "MTK0349:36H9ULYP6312FE1OYOSVH7M55X0JFN", "current_trial": 87, "dateTime": 1510772951113, "trialdata": {"rt": -1, "stimulus": "<p id=\"stim\">1</p>", "key_press": -1, "trial_type": "single-stim", "trial_index": 87, "time_elapsed": 498072, "internal_node_id": "0.0-60.0-9.0"}}, {"uniqueid": "MTK0349:36H9ULYP6312FE1OYOSVH7M55X0JFN", "current_trial": 88, "dateTime": 1510772952614, "trialdata": {"rt": -1, "stimulus": "<p id=\"stim\">+</p>", "key_press": -1, "type": "FIXATION", "trial_type": "single-stim", "trial_index": 88, "time_elapsed": 499574, "internal_node_id": "0.0-61.0-0.0"}}, {"uniqueid": "MTK0349:36H9ULYP6312FE1OYOSVH7M55X0JFN", "current_trial": 89, "dateTime": 1510772954391, "trialdata": {"rt": -1000, "stimulus": "/static/audio/wordpool/LEADER.wav", "key_press": -1, "type": "PRES_AUD", "word": "leader", "wordID": 806, "conditions": [24, 800, "a", 12000], "trial": 2, "serialpos": 0, "trial_type": "single-audio", "trial_index": 89, "time_elapsed": 501350, "internal_node_id": "0.0-62.0"}}, {"uniqueid": "MTK0349:36H9ULYP6312FE1OYOSVH7M55X0JFN", "current_trial": 90, "dateTime": 1510772956108, "trialdata": {"rt": -1000, "stimulus": "/static/audio/wordpool/RADISH.wav", "key_press": -1, "type": "PRES_AUD", "word": "radish", "wordID": 1157, "conditions": [24, 800, "a", 12000], "trial": 2, "serialpos": 1, "trial_type": "single-audio", "trial_index": 90, "time_elapsed": 503068, "internal_node_id": "0.0-63.0"}}, {"uniqueid": "MTK0349:36H9ULYP6312FE1OYOSVH7M55X0JFN", "current_trial": 91, "dateTime": 1510772957917, "trialdata": {"rt": -1000, "stimulus": "/static/audio/wordpool/HAND.wav", "key_press": -1, "type": "PRES_AUD", "word": "hand", "wordID": 682, "conditions": [24, 800, "a", 12000], "trial": 2, "serialpos": 2, "trial_type": "single-audio", "trial_index": 91, "time_elapsed": 504876, "internal_node_id": "0.0-64.0"}}, {"uniqueid": "MTK0349:36H9ULYP6312FE1OYOSVH7M55X0JFN", "current_trial": 92, "dateTime": 1510772959555, "trialdata": {"rt": -1000, "stimulus": "/static/audio/wordpool/HIKER.wav", "key_press": -1, "type": "PRES_AUD", "word": "hiker", "wordID": 707, "conditions": [24, 800, "a", 12000], "trial": 2, "serialpos": 3, "trial_type": "single-audio", "trial_index": 92, "time_elapsed": 506514, "internal_node_id": "0.0-65.0"}}, {"uniqueid": "MTK0349:36H9ULYP6312FE1OYOSVH7M55X0JFN", "current_trial": 93, "dateTime": 1510772961265, "trialdata": {"rt": -1000, "stimulus": "/static/audio/wordpool/CLIMBER.wav", "key_press": -1, "type": "PRES_AUD", "word": "climber", "wordID": 322, "conditions": [24, 800, "a", 12000], "trial": 2, "serialpos": 4, "trial_type": "single-audio", "trial_index": 93, "time_elapsed": 508225, "internal_node_id": "0.0-66.0"}}, {"uniqueid": "MTK0349:36H9ULYP6312FE1OYOSVH7M55X0JFN", "current_trial": 94, "dateTime": 1510772963217, "trialdata": {"rt": -1000, "stimulus": "/static/audio/wordpool/LETTUCE.wav", "key_press": -1, "type": "PRES_AUD", "word": "lettuce", "wordID": 813, "conditions": [24, 800, "a", 12000], "trial": 2, "serialpos": 5, "trial_type": "single-audio", "trial_index": 94, "time_elapsed": 510177, "internal_node_id": "0.0-67.0"}}, {"uniqueid": "MTK0349:36H9ULYP6312FE1OYOSVH7M55X0JFN", "current_trial": 95, "dateTime": 1510772964969, "trialdata": {"rt": -1000, "stimulus": "/static/audio/wordpool/BARREL.wav", "key_press": -1, "type": "PRES_AUD", "word": "barrel", "wordID": 90, "conditions": [24, 800, "a", 12000], "trial": 2, "serialpos": 6, "trial_type": "single-audio", "trial_index": 95, "time_elapsed": 511929, "internal_node_id": "0.0-68.0"}}, {"uniqueid": "MTK0349:36H9ULYP6312FE1OYOSVH7M55X0JFN", "current_trial": 96, "dateTime": 1510772966932, "trialdata": {"rt": -1000, "stimulus": "/static/audio/wordpool/CELLAR.wav", "key_press": -1, "type": "PRES_AUD", "word": "cellar", "wordID": 266, "conditions": [24, 800, "a", 12000], "trial": 2, "serialpos": 7, "trial_type": "single-audio", "trial_index": 96, "time_elapsed": 513892, "internal_node_id": "0.0-69.0"}}, {"uniqueid": "MTK0349:36H9ULYP6312FE1OYOSVH7M55X0JFN", "current_trial": 97, "dateTime": 1510772968605, "trialdata": {"rt": -1000, "stimulus": "/static/audio/wordpool/SCISSORS.wav", "key_press": -1, "type": "PRES_AUD", "word": "scissors", "wordID": 1249, "conditions": [24, 800, "a", 12000], "trial": 2, "serialpos": 8, "trial_type": "single-audio", "trial_index": 97, "time_elapsed": 515565, "internal_node_id": "0.0-70.0"}}, {"uniqueid": "MTK0349:36H9ULYP6312FE1OYOSVH7M55X0JFN", "current_trial": 98, "dateTime": 1510772970492, "trialdata": {"rt": -1000, "stimulus": "/static/audio/wordpool/SANDWICH.wav", "key_press": -1, "type": "PRES_AUD", "word": "sandwich", "wordID": 1231, "conditions": [24, 800, "a", 12000], "trial": 2, "serialpos": 9, "trial_type": "single-audio", "trial_index": 98, "time_elapsed": 517452, "internal_node_id": "0.0-71.0"}}, {"uniqueid": "MTK0349:36H9ULYP6312FE1OYOSVH7M55X0JFN", "current_trial": 99, "dateTime": 1510772972151, "trialdata": {"rt": -1000, "stimulus": "/static/audio/wordpool/AIRPLANE.wav", "key_press": -1, "type": "PRES_AUD", "word": "airplane", "wordID": 11, "conditions": [24, 800, "a", 12000], "trial": 2, "serialpos": 10, "trial_type": "single-audio", "trial_index": 99, "time_elapsed": 519111, "internal_node_id": "0.0-72.0"}}, {"uniqueid": "MTK0349:36H9ULYP6312FE1OYOSVH7M55X0JFN", "current_trial": 100, "dateTime": 1510772973844, "trialdata": {"rt": -1000, "stimulus": "/static/audio/wordpool/DASHBOARD.wav", "key_press": -1, "type": "PRES_AUD", "word": "dashboard", "wordID": 440, "conditions": [24, 800, "a", 12000], "trial": 2, "serialpos": 11, "trial_type": "single-audio", "trial_index": 100, "time_elapsed": 520804, "internal_node_id": "0.0-73.0"}}, {"uniqueid": "MTK0349:36H9ULYP6312FE1OYOSVH7M55X0JFN", "current_trial": 101, "dateTime": 1510772975603, "trialdata": {"rt": -1000, "stimulus": "/static/audio/wordpool/KITCHEN.wav", "key_press": -1, "type": "PRES_AUD", "word": "kitchen", "wordID": 777, "conditions": [24, 800, "a", 12000], "trial": 2, "serialpos": 12, "trial_type": "single-audio", "trial_index": 101, "time_elapsed": 522563, "internal_node_id": "0.0-74.0"}}, {"uniqueid": "MTK0349:36H9ULYP6312FE1OYOSVH7M55X0JFN", "current_trial": 102, "dateTime": 1510772977593, "trialdata": {"rt": -1000, "stimulus": "/static/audio/wordpool/FUNGUS.wav", "key_press": -1, "type": "PRES_AUD", "word": "fungus", "wordID": 613, "conditions": [24, 800, "a", 12000], "trial": 2, "serialpos": 13, "trial_type": "single-audio", "trial_index": 102, "time_elapsed": 524553, "internal_node_id": "0.0-75.0"}}, {"uniqueid": "MTK0349:36H9ULYP6312FE1OYOSVH7M55X0JFN", "current_trial": 103, "dateTime": 1510772979512, "trialdata": {"rt": -1000, "stimulus": "/static/audio/wordpool/COLLEGE.wav", "key_press": -1, "type": "PRES_AUD", "word": "college", "wordID": 345, "conditions": [24, 800, "a", 12000], "trial": 2, "serialpos": 14, "trial_type": "single-audio", "trial_index": 103, "time_elapsed": 526472, "internal_node_id": "0.0-76.0"}}, {"uniqueid": "MTK0349:36H9ULYP6312FE1OYOSVH7M55X0JFN", "current_trial": 104, "dateTime": 1510772981387, "trialdata": {"rt": -1000, "stimulus": "/static/audio/wordpool/STUDENT.wav", "key_press": -1, "type": "PRES_AUD", "word": "student", "wordID": 1394, "conditions": [24, 800, "a", 12000], "trial": 2, "serialpos": 15, "trial_type": "single-audio", "trial_index": 104, "time_elapsed": 528347, "internal_node_id": "0.0-77.0"}}, {"uniqueid": "MTK0349:36H9ULYP6312FE1OYOSVH7M55X0JFN", "current_trial": 105, "dateTime": 1510772983113, "trialdata": {"rt": -1000, "stimulus": "/static/audio/wordpool/COOK.wav", "key_press": -1, "type": "PRES_AUD", "word": "cook", "wordID": 371, "conditions": [24, 800, "a", 12000], "trial": 2, "serialpos": 16, "trial_type": "single-audio", "trial_index": 105, "time_elapsed": 530073, "internal_node_id": "0.0-78.0"}}, {"uniqueid": "MTK0349:36H9ULYP6312FE1OYOSVH7M55X0JFN", "current_trial": 106, "dateTime": 1510772985028, "trialdata": {"rt": -1000, "stimulus": "/static/audio/wordpool/SPOON.wav", "key_press": -1, "type": "PRES_AUD", "word": "spoon", "wordID": 1356, "conditions": [24, 800, "a", 12000], "trial": 2, "serialpos": 17, "trial_type": "single-audio", "trial_index": 106, "time_elapsed": 531987, "internal_node_id": "0.0-79.0"}}, {"uniqueid": "MTK0349:36H9ULYP6312FE1OYOSVH7M55X0JFN", "current_trial": 107, "dateTime": 1510772986941, "trialdata": {"rt": -1000, "stimulus": "/static/audio/wordpool/DOUGHNUT.wav", "key_press": -1, "type": "PRES_AUD", "word": "doughnut", "wordID": 489, "conditions": [24, 800, "a", 12000], "trial": 2, "serialpos": 18, "trial_type": "single-audio", "trial_index": 107, "time_elapsed": 533900, "internal_node_id": "0.0-80.0"}}, {"uniqueid": "MTK0349:36H9ULYP6312FE1OYOSVH7M55X0JFN", "current_trial": 108, "dateTime": 1510772988766, "trialdata": {"rt": -1000, "stimulus": "/static/audio/wordpool/BINDER.wav", "key_press": -1, "type": "PRES_AUD", "word": "binder", "wordID": 126, "conditions": [24, 800, "a", 12000], "trial": 2, "serialpos": 19, "trial_type": "single-audio", "trial_index": 108, "time_elapsed": 535726, "internal_node_id": "0.0-81.0"}}, {"uniqueid": "MTK0349:36H9ULYP6312FE1OYOSVH7M55X0JFN", "current_trial": 109, "dateTime": 1510772990533, "trialdata": {"rt": -1000, "stimulus": "/static/audio/wordpool/BRACES.wav", "key_press": -1, "type": "PRES_AUD", "word": "braces", "wordID": 163, "conditions": [24, 800, "a", 12000], "trial": 2, "serialpos": 20, "trial_type": "single-audio", "trial_index": 109, "time_elapsed": 537493, "internal_node_id": "0.0-82.0"}}, {"uniqueid": "MTK0349:36H9ULYP6312FE1OYOSVH7M55X0JFN", "current_trial": 110, "dateTime": 1510772992428, "trialdata": {"rt": -1000, "stimulus": "/static/audio/wordpool/OUTDOORS.wav", "key_press": -1, "type": "PRES_AUD", "word": "outdoors", "wordID": 986, "conditions": [24, 800, "a", 12000], "trial": 2, "serialpos": 21, "trial_type": "single-audio", "trial_index": 110, "time_elapsed": 539388, "internal_node_id": "0.0-83.0"}}, {"uniqueid": "MTK0349:36H9ULYP6312FE1OYOSVH7M55X0JFN", "current_trial": 111, "dateTime": 1510772994400, "trialdata": {"rt": -1000, "stimulus": "/static/audio/wordpool/FOX.wav", "key_press": -1, "type": "PRES_AUD", "word": "fox", "wordID": 597, "conditions": [24, 800, "a", 12000], "trial": 2, "serialpos": 22, "trial_type": "single-audio", "trial_index": 111, "time_elapsed": 541360, "internal_node_id": "0.0-84.0"}}, {"uniqueid": "MTK0349:36H9ULYP6312FE1OYOSVH7M55X0JFN", "current_trial": 112, "dateTime": 1510772996039, "trialdata": {"rt": -1000, "stimulus": "/static/audio/wordpool/STAR.wav", "key_press": -1, "type": "PRES_AUD", "word": "star", "wordID": 1372, "conditions": [24, 800, "a", 12000], "trial": 2, "serialpos": 23, "trial_type": "single-audio", "trial_index": 112, "time_elapsed": 542999, "internal_node_id": "0.0-85.0"}}, {"uniqueid": "MTK0349:36H9ULYP6312FE1OYOSVH7M55X0JFN", "current_trial": 113, "dateTime": 1510772997258, "trialdata": {"rt": -1, "stimulus": "", "key_press": -1, "type": "PRE_RECALL_DELAY", "trial_type": "single-stim", "trial_index": 113, "time_elapsed": 544218, "internal_node_id": "0.0-86.0-0.0"}}, {"uniqueid": "MTK0349:36H9ULYP6312FE1OYOSVH7M55X0JFN", "current_trial": 114, "dateTime": 1510772997761, "trialdata": {"rt": -1000, "stimulus": "/static/audio/400Hz.wav", "key_press": -1, "type": "PRE_RECALL_ALERT", "trial_type": "single-audio", "trial_index": 114, "time_elapsed": 544721, "internal_node_id": "0.0-87.0"}}, {"uniqueid": "MTK0349:36H9ULYP6312FE1OYOSVH7M55X0JFN", "current_trial": 115, "dateTime": 1510773057765, "trialdata": {"rt": [1869, 2902, 4093, 6789, 10113, 11237, 14697, 17929, 25505], "recwords": ["star", "fox", "brances", "outdoors", "sandwich", "donut", "spoon", "fox", "cellar"], "type": "FREE_RECALL", "conditions": [24, 800, "a", 12000], "trial": 2, "trial_type": "free-recall", "trial_index": 115, "time_elapsed": 604723, "internal_node_id": "0.0-88.0-0.0"}}, {"uniqueid": "MTK0349:36H9ULYP6312FE1OYOSVH7M55X0JFN", "current_trial": 116, "dateTime": 1510773064828, "trialdata": {"rt": 5063, "key_press": 70, "type": "INSTRUCTIONS", "trial_type": "text", "trial_index": 116, "time_elapsed": 611788, "internal_node_id": "0.0-89.0"}}, {"uniqueid": "MTK0349:36H9ULYP6312FE1OYOSVH7M55X0JFN", "current_trial": 117, "dateTime": 1510773090832, "trialdata": {"rt": [2365, 3813, 5793, 8082, 10297, 12425, 14237, 16348, 19148, 21093, 22672], "responses": ["16", "8", "19", "16", "11", "10", "16", "12", "13", "15", "13"], "num1": [7, 3, 8, 8, 3, 2, 6, 3, 3, 7, 4, 9], "num2": [3, 3, 7, 7, 2, 4, 6, 2, 5, 4, 8, 8], "num3": [6, 2, 4, 1, 6, 3, 4, 7, 5, 4, 1, 3], "type": "DISTRACTOR", "conditions": [24, 800, "v", 24000], "trial": 3, "trial_type": "math-distractor", "trial_index": 117, "time_elapsed": 637792, "internal_node_id": "0.0-90.0"}}, {"uniqueid": "MTK0349:36H9ULYP6312FE1OYOSVH7M55X0JFN", "current_trial": 118, "dateTime": 1510773093833, "trialdata": {"rt": -1, "stimulus": "<p id=\"stim\">10</p>", "key_press": -1, "trial_type": "single-stim", "trial_index": 118, "time_elapsed": 640793, "internal_node_id": "0.0-91.0-0.0"}}, {"uniqueid": "MTK0349:36H9ULYP6312FE1OYOSVH7M55X0JFN", "current_trial": 119, "dateTime": 1510773094834, "trialdata": {"rt": -1, "stimulus": "<p id=\"stim\">9</p>", "key_press": -1, "trial_type": "single-stim", "trial_index": 119, "time_elapsed": 641794, "internal_node_id": "0.0-91.0-1.0"}}, {"uniqueid": "MTK0349:36H9ULYP6312FE1OYOSVH7M55X0JFN", "current_trial": 120, "dateTime": 1510773095836, "trialdata": {"rt": -1, "stimulus": "<p id=\"stim\">8</p>", "key_press": -1, "trial_type": "single-stim", "trial_index": 120, "time_elapsed": 642795, "internal_node_id": "0.0-91.0-2.0"}}, {"uniqueid": "MTK0349:36H9ULYP6312FE1OYOSVH7M55X0JFN", "current_trial": 121, "dateTime": 1510773096837, "trialdata": {"rt": -1, "stimulus": "<p id=\"stim\">7</p>", "key_press": -1, "trial_type": "single-stim", "trial_index": 121, "time_elapsed": 643797, "internal_node_id": "0.0-91.0-3.0"}}, {"uniqueid": "MTK0349:36H9ULYP6312FE1OYOSVH7M55X0JFN", "current_trial": 122, "dateTime": 1510773097839, "trialdata": {"rt": -1, "stimulus": "<p id=\"stim\">6</p>", "key_press": -1, "trial_type": "single-stim", "trial_index": 122, "time_elapsed": 644799, "internal_node_id": "0.0-91.0-4.0"}}, {"uniqueid": "MTK0349:36H9ULYP6312FE1OYOSVH7M55X0JFN", "current_trial": 123, "dateTime": 1510773098840, "trialdata": {"rt": -1, "stimulus": "<p id=\"stim\">5</p>", "key_press": -1, "trial_type": "single-stim", "trial_index": 123, "time_elapsed": 645799, "internal_node_id": "0.0-91.0-5.0"}}, {"uniqueid": "MTK0349:36H9ULYP6312FE1OYOSVH7M55X0JFN", "current_trial": 124, "dateTime": 1510773099842, "trialdata": {"rt": -1, "stimulus": "<p id=\"stim\">4</p>", "key_press": -1, "trial_type": "single-stim", "trial_index": 124, "time_elapsed": 646801, "internal_node_id": "0.0-91.0-6.0"}}, {"uniqueid": "MTK0349:36H9ULYP6312FE1OYOSVH7M55X0JFN", "current_trial": 125, "dateTime": 1510773100843, "trialdata": {"rt": -1, "stimulus": "<p id=\"stim\">3</p>", "key_press": -1, "trial_type": "single-stim", "trial_index": 125, "time_elapsed": 647803, "internal_node_id": "0.0-91.0-7.0"}}, {"uniqueid": "MTK0349:36H9ULYP6312FE1OYOSVH7M55X0JFN", "current_trial": 126, "dateTime": 1510773101845, "trialdata": {"rt": -1, "stimulus": "<p id=\"stim\">2</p>", "key_press": -1, "trial_type": "single-stim", "trial_index": 126, "time_elapsed": 648805, "internal_node_id": "0.0-91.0-8.0"}}, {"uniqueid": "MTK0349:36H9ULYP6312FE1OYOSVH7M55X0JFN", "current_trial": 127, "dateTime": 1510773102847, "trialdata": {"rt": -1, "stimulus": "<p id=\"stim\">1</p>", "key_press": -1, "trial_type": "single-stim", "trial_index": 127, "time_elapsed": 649807, "internal_node_id": "0.0-91.0-9.0"}}, {"uniqueid": "MTK0349:36H9ULYP6312FE1OYOSVH7M55X0JFN", "current_trial": 128, "dateTime": 1510773104348, "trialdata": {"rt": -1, "stimulus": "<p id=\"stim\">+</p>", "key_press": -1, "type": "FIXATION", "trial_type": "single-stim", "trial_index": 128, "time_elapsed": 651308, "internal_node_id": "0.0-92.0-0.0"}}, {"uniqueid": "MTK0349:36H9ULYP6312FE1OYOSVH7M55X0JFN", "current_trial": 129, "dateTime": 1510773105150, "trialdata": {"rt": -1, "stimulus": "<p id=\"stim\">WAGON</p>", "key_press": -1, "type": "PRES_VIS", "word": "wagon", "wordID": 1577, "conditions": [24, 800, "v", 24000], "trial": 3, "serialpos": 0, "trial_type": "single-stim", "trial_index": 129, "time_elapsed": 652109, "internal_node_id": "0.0-93.0"}}, {"uniqueid": "MTK0349:36H9ULYP6312FE1OYOSVH7M55X0JFN", "current_trial": 130, "dateTime": 1510773106935, "trialdata": {"rt": -1, "stimulus": "<p id=\"stim\">FINGER</p>", "key_press": -1, "type": "PRES_VIS", "word": "finger", "wordID": 566, "conditions": [24, 800, "v", 24000], "trial": 3, "serialpos": 1, "trial_type": "single-stim", "trial_index": 130, "time_elapsed": 653894, "internal_node_id": "0.0-94.0"}}, {"uniqueid": "MTK0349:36H9ULYP6312FE1OYOSVH7M55X0JFN", "current_trial": 131, "dateTime": 1510773108889, "trialdata": {"rt": -1, "stimulus": "<p id=\"stim\">SPOOL</p>", "key_press": -1, "type": "PRES_VIS", "word": "spool", "wordID": 1355, "conditions": [24, 800, "v", 24000], "trial": 3, "serialpos": 2, "trial_type": "single-stim", "trial_index": 131, "time_elapsed": 655849, "internal_node_id": "0.0-95.0"}}, {"uniqueid": "MTK0349:36H9ULYP6312FE1OYOSVH7M55X0JFN", "current_trial": 132, "dateTime": 1510773110706, "trialdata": {"rt": -1, "stimulus": "<p id=\"stim\">FRECKLE</p>", "key_press": -1, "type": "PRES_VIS", "word": "freckle", "wordID": 601, "conditions": [24, 800, "v", 24000], "trial": 3, "serialpos": 3, "trial_type": "single-stim", "trial_index": 132, "time_elapsed": 657666, "internal_node_id": "0.0-96.0"}}, {"uniqueid": "MTK0349:36H9ULYP6312FE1OYOSVH7M55X0JFN", "current_trial": 133, "dateTime": 1510773112345, "trialdata": {"rt": -1, "stimulus": "<p id=\"stim\">ITEM</p>", "key_press": -1, "type": "PRES_VIS", "word": "item", "wordID": 745, "conditions": [24, 800, "v", 24000], "trial": 3, "serialpos": 4, "trial_type": "single-stim", "trial_index": 133, "time_elapsed": 659305, "internal_node_id": "0.0-97.0"}}, {"uniqueid": "MTK0349:36H9ULYP6312FE1OYOSVH7M55X0JFN", "current_trial": 134, "dateTime": 1510773114159, "trialdata": {"rt": -1, "stimulus": "<p id=\"stim\">BEAVER</p>", "key_press": -1, "type": "PRES_VIS", "word": "beaver", "wordID": 108, "conditions": [24, 800, "v", 24000], "trial": 3, "serialpos": 5, "trial_type": "single-stim", "trial_index": 134, "time_elapsed": 661119, "internal_node_id": "0.0-98.0"}}, {"uniqueid": "MTK0349:36H9ULYP6312FE1OYOSVH7M55X0JFN", "current_trial": 135, "dateTime": 1510773115992, "trialdata": {"rt": -1, "stimulus": "<p id=\"stim\">GYMNAST</p>", "key_press": -1, "type": "PRES_VIS", "word": "gymnast", "wordID": 674, "conditions": [24, 800, "v", 24000], "trial": 3, "serialpos": 6, "trial_type": "single-stim", "trial_index": 135, "time_elapsed": 662951, "internal_node_id": "0.0-99.0"}}, {"uniqueid": "MTK0349:36H9ULYP6312FE1OYOSVH7M55X0JFN", "current_trial": 136, "dateTime": 1510773117887, "trialdata": {"rt": -1, "stimulus": "<p id=\"stim\">JELLO</p>", "key_press": -1, "type": "PRES_VIS", "word": "jello", "wordID": 753, "conditions": [24, 800, "v", 24000], "trial": 3, "serialpos": 7, "trial_type": "single-stim", "trial_index": 136, "time_elapsed": 664847, "internal_node_id": "0.0-100.0"}}, {"uniqueid": "MTK0349:36H9ULYP6312FE1OYOSVH7M55X0JFN", "current_trial": 137, "dateTime": 1510773119568, "trialdata": {"rt": -1, "stimulus": "<p id=\"stim\">PUDDING</p>", "key_press": -1, "type": "PRES_VIS", "word": "pudding", "wordID": 1138, "conditions": [24, 800, "v", 24000], "trial": 3, "serialpos": 8, "trial_type": "single-stim", "trial_index": 137, "time_elapsed": 666528, "internal_node_id": "0.0-101.0"}}, {"uniqueid": "MTK0349:36H9ULYP6312FE1OYOSVH7M55X0JFN", "current_trial": 138, "dateTime": 1510773121359, "trialdata": {"rt": -1, "stimulus": "<p id=\"stim\">CUSTARD</p>", "key_press": -1, "type": "PRES_VIS", "word": "custard", "wordID": 428, "conditions": [24, 800, "v", 24000], "trial": 3, "serialpos": 9, "trial_type": "single-stim", "trial_index": 138, "time_elapsed": 668318, "internal_node_id": "0.0-102.0"}}, {"uniqueid": "MTK0349:36H9ULYP6312FE1OYOSVH7M55X0JFN", "current_trial": 139, "dateTime": 1510773123043, "trialdata": {"rt": -1, "stimulus": "<p id=\"stim\">PICNIC</p>", "key_press": -1, "type": "PRES_VIS", "word": "picnic", "wordID": 1059, "conditions": [24, 800, "v", 24000], "trial": 3, "serialpos": 10, "trial_type": "single-stim", "trial_index": 139, "time_elapsed": 670003, "internal_node_id": "0.0-103.0"}}, {"uniqueid": "MTK0349:36H9ULYP6312FE1OYOSVH7M55X0JFN", "current_trial": 140, "dateTime": 1510773124941, "trialdata": {"rt": -1, "stimulus": "<p id=\"stim\">DANCER</p>", "key_press": -1, "type": "PRES_VIS", "word": "dancer", "wordID": 436, "conditions": [24, 800, "v", 24000], "trial": 3, "serialpos": 11, "trial_type": "single-stim", "trial_index": 140, "time_elapsed": 671901, "internal_node_id": "0.0-104.0"}}, {"uniqueid": "MTK0349:36H9ULYP6312FE1OYOSVH7M55X0JFN", "current_trial": 141, "dateTime": 1510773126725, "trialdata": {"rt": -1, "stimulus": "<p id=\"stim\">GIRL</p>", "key_press": -1, "type": "PRES_VIS", "word": "girl", "wordID": 636, "conditions": [24, 800, "v", 24000], "trial": 3, "serialpos": 12, "trial_type": "single-stim", "trial_index": 141, "time_elapsed": 673685, "internal_node_id": "0.0-105.0"}}, {"uniqueid": "MTK0349:36H9ULYP6312FE1OYOSVH7M55X0JFN", "current_trial": 142, "dateTime": 1510773128575, "trialdata": {"rt": -1, "stimulus": "<p id=\"stim\">TABLE</p>", "key_press": -1, "type": "PRES_VIS", "word": "table", "wordID": 1425, "conditions": [24, 800, "v", 24000], "trial": 3, "serialpos": 13, "trial_type": "single-stim", "trial_index": 142, "time_elapsed": 675535, "internal_node_id": "0.0-106.0"}}, {"uniqueid": "MTK0349:36H9ULYP6312FE1OYOSVH7M55X0JFN", "current_trial": 143, "dateTime": 1510773130208, "trialdata": {"rt": -1, "stimulus": "<p id=\"stim\">MILDEW</p>", "key_press": -1, "type": "PRES_VIS", "word": "mildew", "wordID": 892, "conditions": [24, 800, "v", 24000], "trial": 3, "serialpos": 14, "trial_type": "single-stim", "trial_index": 143, "time_elapsed": 677168, "internal_node_id": "0.0-107.0"}}, {"uniqueid": "MTK0349:36H9ULYP6312FE1OYOSVH7M55X0JFN", "current_trial": 144, "dateTime": 1510773131825, "trialdata": {"rt": -1, "stimulus": "<p id=\"stim\">PRINCESS</p>", "key_press": -1, "type": "PRES_VIS", "word": "princess", "wordID": 1124, "conditions": [24, 800, "v", 24000], "trial": 3, "serialpos": 15, "trial_type": "single-stim", "trial_index": 144, "time_elapsed": 678784, "internal_node_id": "0.0-108.0"}}, {"uniqueid": "MTK0349:36H9ULYP6312FE1OYOSVH7M55X0JFN", "current_trial": 145, "dateTime": 1510773133542, "trialdata": {"rt": -1, "stimulus": "<p id=\"stim\">ACTOR</p>", "key_press": -1, "type": "PRES_VIS", "word": "actor", "wordID": 4, "conditions": [24, 800, "v", 24000], "trial": 3, "serialpos": 16, "trial_type": "single-stim", "trial_index": 145, "time_elapsed": 680502, "internal_node_id": "0.0-109.0"}}, {"uniqueid": "MTK0349:36H9ULYP6312FE1OYOSVH7M55X0JFN", "current_trial": 146, "dateTime": 1510773135304, "trialdata": {"rt": -1, "stimulus": "<p id=\"stim\">SPOUSE</p>", "key_press": -1, "type": "PRES_VIS", "word": "spouse", "wordID": 1357, "conditions": [24, 800, "v", 24000], "trial": 3, "serialpos": 17, "trial_type": "single-stim", "trial_index": 146, "time_elapsed": 682264, "internal_node_id": "0.0-110.0"}}, {"uniqueid": "MTK0349:36H9ULYP6312FE1OYOSVH7M55X0JFN", "current_trial": 147, "dateTime": 1510773137257, "trialdata": {"rt": -1, "stimulus": "<p id=\"stim\">SERVER</p>", "key_press": -1, "type": "PRES_VIS", "word": "server", "wordID": 1271, "conditions": [24, 800, "v", 24000], "trial": 3, "serialpos": 18, "trial_type": "single-stim", "trial_index": 147, "time_elapsed": 684217, "internal_node_id": "0.0-111.0"}}, {"uniqueid": "MTK0349:36H9ULYP6312FE1OYOSVH7M55X0JFN", "current_trial": 148, "dateTime": 1510773138911, "trialdata": {"rt": -1, "stimulus": "<p id=\"stim\">ATOM</p>", "key_press": -1, "type": "PRES_VIS", "word": "atom", "wordID": 54, "conditions": [24, 800, "v", 24000], "trial": 3, "serialpos": 19, "trial_type": "single-stim", "trial_index": 148, "time_elapsed": 685871, "internal_node_id": "0.0-112.0"}}, {"uniqueid": "MTK0349:36H9ULYP6312FE1OYOSVH7M55X0JFN", "current_trial": 149, "dateTime": 1510773140523, "trialdata": {"rt": -1, "stimulus": "<p id=\"stim\">PIMPLE</p>", "key_press": -1, "type": "PRES_VIS", "word": "pimple", "wordID": 1070, "conditions": [24, 800, "v", 24000], "trial": 3, "serialpos": 20, "trial_type": "single-stim", "trial_index": 149, "time_elapsed": 687483, "internal_node_id": "0.0-113.0"}}, {"uniqueid": "MTK0349:36H9ULYP6312FE1OYOSVH7M55X0JFN", "current_trial": 150, "dateTime": 1510773142441, "trialdata": {"rt": -1, "stimulus": "<p id=\"stim\">PEPPER</p>", "key_press": -1, "type": "PRES_VIS", "word": "pepper", "wordID": 1046, "conditions": [24, 800, "v", 24000], "trial": 3, "serialpos": 21, "trial_type": "single-stim", "trial_index": 150, "time_elapsed": 689401, "internal_node_id": "0.0-114.0"}}, {"uniqueid": "MTK0349:36H9ULYP6312FE1OYOSVH7M55X0JFN", "current_trial": 151, "dateTime": 1510773144424, "trialdata": {"rt": -1, "stimulus": "<p id=\"stim\">WOMAN</p>", "key_press": -1, "type": "PRES_VIS", "word": "woman", "wordID": 1619, "conditions": [24, 800, "v", 24000], "trial": 3, "serialpos": 22, "trial_type": "single-stim", "trial_index": 151, "time_elapsed": 691384, "internal_node_id": "0.0-115.0"}}, {"uniqueid": "MTK0349:36H9ULYP6312FE1OYOSVH7M55X0JFN", "current_trial": 152, "dateTime": 1510773146355, "trialdata": {"rt": -1, "stimulus": "<p id=\"stim\">VICTIM</p>", "key_press": -1, "type": "PRES_VIS", "word": "victim", "wordID": 1561, "conditions": [24, 800, "v", 24000], "trial": 3, "serialpos": 23, "trial_type": "single-stim", "trial_index": 152, "time_elapsed": 693315, "internal_node_id": "0.0-116.0"}}, {"uniqueid": "MTK0349:36H9ULYP6312FE1OYOSVH7M55X0JFN", "current_trial": 153, "dateTime": 1510773148566, "trialdata": {"rt": -1, "stimulus": "", "key_press": -1, "type": "PRE_RECALL_DELAY", "trial_type": "single-stim", "trial_index": 153, "time_elapsed": 695526, "internal_node_id": "0.0-117.0-0.0"}}, {"uniqueid": "MTK0349:36H9ULYP6312FE1OYOSVH7M55X0JFN", "current_trial": 154, "dateTime": 1510773149068, "trialdata": {"rt": -1000, "stimulus": "/static/audio/400Hz.wav", "key_press": -1, "type": "PRE_RECALL_ALERT", "trial_type": "single-audio", "trial_index": 154, "time_elapsed": 696028, "internal_node_id": "0.0-118.0"}}, {"uniqueid": "MTK0349:36H9ULYP6312FE1OYOSVH7M55X0JFN", "current_trial": 155, "dateTime": 1510773209071, "trialdata": {"rt": [3866, 6062, 7114, 9169, 13950, 15094, 17626, 19717], "recwords": ["victim", "skater", "girl", "mildew", "spouse", "actor", "beaver", "picnic"], "type": "FREE_RECALL", "conditions": [24, 800, "v", 24000], "trial": 3, "trial_type": "free-recall", "trial_index": 155, "time_elapsed": 756030, "internal_node_id": "0.0-119.0-0.0"}}, {"uniqueid": "MTK0349:36H9ULYP6312FE1OYOSVH7M55X0JFN", "current_trial": 156, "dateTime": 1510773214262, "trialdata": {"rt": 3188, "key_press": 70, "type": "INSTRUCTIONS", "trial_type": "text", "trial_index": 156, "time_elapsed": 761222, "internal_node_id": "0.0-120.0"}}, {"uniqueid": "MTK0349:36H9ULYP6312FE1OYOSVH7M55X0JFN", "current_trial": 157, "dateTime": 1510773240266, "trialdata": {"rt": [2022, 3766, 5429, 7046, 9769, 11617, 13111, 14474, 16690, 17906, 19466, 20834, 22491], "responses": ["16", "16", "27", "14", "20", "17", "8", "13", "13", "6", "13", "11", "17"], "num1": [2, 9, 9, 4, 8, 2, 1, 5, 4, 4, 4, 3, 2, 8], "num2": [8, 2, 9, 6, 3, 7, 1, 5, 5, 1, 3, 7, 8, 5], "num3": [6, 5, 9, 4, 9, 8, 6, 3, 4, 1, 6, 1, 7, 2], "type": "DISTRACTOR", "conditions": [24, 1600, "a", 24000], "trial": 4, "trial_type": "math-distractor", "trial_index": 157, "time_elapsed": 787226, "internal_node_id": "0.0-121.0"}}, {"uniqueid": "MTK0349:36H9ULYP6312FE1OYOSVH7M55X0JFN", "current_trial": 158, "dateTime": 1510773243268, "trialdata": {"rt": -1, "stimulus": "<p id=\"stim\">10</p>", "key_press": -1, "trial_type": "single-stim", "trial_index": 158, "time_elapsed": 790228, "internal_node_id": "0.0-122.0-0.0"}}, {"uniqueid": "MTK0349:36H9ULYP6312FE1OYOSVH7M55X0JFN", "current_trial": 159, "dateTime": 1510773244270, "trialdata": {"rt": -1, "stimulus": "<p id=\"stim\">9</p>", "key_press": -1, "trial_type": "single-stim", "trial_index": 159, "time_elapsed": 791230, "internal_node_id": "0.0-122.0-1.0"}}, {"uniqueid": "MTK0349:36H9ULYP6312FE1OYOSVH7M55X0JFN", "current_trial": 160, "dateTime": 1510773245271, "trialdata": {"rt": -1, "stimulus": "<p id=\"stim\">8</p>", "key_press": -1, "trial_type": "single-stim", "trial_index": 160, "time_elapsed": 792231, "internal_node_id": "0.0-122.0-2.0"}}, {"uniqueid": "MTK0349:36H9ULYP6312FE1OYOSVH7M55X0JFN", "current_trial": 161, "dateTime": 1510773246272, "trialdata": {"rt": -1, "stimulus": "<p id=\"stim\">7</p>", "key_press": -1, "trial_type": "single-stim", "trial_index": 161, "time_elapsed": 793232, "internal_node_id": "0.0-122.0-3.0"}}, {"uniqueid": "MTK0349:36H9ULYP6312FE1OYOSVH7M55X0JFN", "current_trial": 162, "dateTime": 1510773247274, "trialdata": {"rt": -1, "stimulus": "<p id=\"stim\">6</p>", "key_press": -1, "trial_type": "single-stim", "trial_index": 162, "time_elapsed": 794234, "internal_node_id": "0.0-122.0-4.0"}}, {"uniqueid": "MTK0349:36H9ULYP6312FE1OYOSVH7M55X0JFN", "current_trial": 163, "dateTime": 1510773248275, "trialdata": {"rt": -1, "stimulus": "<p id=\"stim\">5</p>", "key_press": -1, "trial_type": "single-stim", "trial_index": 163, "time_elapsed": 795235, "internal_node_id": "0.0-122.0-5.0"}}, {"uniqueid": "MTK0349:36H9ULYP6312FE1OYOSVH7M55X0JFN", "current_trial": 164, "dateTime": 1510773249276, "trialdata": {"rt": -1, "stimulus": "<p id=\"stim\">4</p>", "key_press": -1, "trial_type": "single-stim", "trial_index": 164, "time_elapsed": 796236, "internal_node_id": "0.0-122.0-6.0"}}, {"uniqueid": "MTK0349:36H9ULYP6312FE1OYOSVH7M55X0JFN", "current_trial": 165, "dateTime": 1510773250277, "trialdata": {"rt": -1, "stimulus": "<p id=\"stim\">3</p>", "key_press": -1, "trial_type": "single-stim", "trial_index": 165, "time_elapsed": 797237, "internal_node_id": "0.0-122.0-7.0"}}, {"uniqueid": "MTK0349:36H9ULYP6312FE1OYOSVH7M55X0JFN", "current_trial": 166, "dateTime": 1510773251278, "trialdata": {"rt": -1, "stimulus": "<p id=\"stim\">2</p>", "key_press": -1, "trial_type": "single-stim", "trial_index": 166, "time_elapsed": 798238, "internal_node_id": "0.0-122.0-8.0"}}, {"uniqueid": "MTK0349:36H9ULYP6312FE1OYOSVH7M55X0JFN", "current_trial": 167, "dateTime": 1510773252280, "trialdata": {"rt": -1, "stimulus": "<p id=\"stim\">1</p>", "key_press": -1, "trial_type": "single-stim", "trial_index": 167, "time_elapsed": 799239, "internal_node_id": "0.0-122.0-9.0"}}, {"uniqueid": "MTK0349:36H9ULYP6312FE1OYOSVH7M55X0JFN", "current_trial": 168, "dateTime": 1510773253781, "trialdata": {"rt": -1, "stimulus": "<p id=\"stim\">+</p>", "key_press": -1, "type": "FIXATION", "trial_type": "single-stim", "trial_index": 168, "time_elapsed": 800741, "internal_node_id": "0.0-123.0-0.0"}}, {"uniqueid": "MTK0349:36H9ULYP6312FE1OYOSVH7M55X0JFN", "current_trial": 169, "dateTime": 1510773256540, "trialdata": {"rt": -1000, "stimulus": "/static/audio/wordpool/GRAPE.wav", "key_press": -1, "type": "PRES_AUD", "word": "grape", "wordID": 653, "conditions": [24, 1600, "a", 24000], "trial": 4, "serialpos": 0, "trial_type": "single-audio", "trial_index": 169, "time_elapsed": 803500, "internal_node_id": "0.0-124.0"}}, {"uniqueid": "MTK0349:36H9ULYP6312FE1OYOSVH7M55X0JFN", "current_trial": 170, "dateTime": 1510773259331, "trialdata": {"rt": -1000, "stimulus": "/static/audio/wordpool/JOURNAL.wav", "key_press": -1, "type": "PRES_AUD", "word": "journal", "wordID": 759, "conditions": [24, 1600, "a", 24000], "trial": 4, "serialpos": 1, "trial_type": "single-audio", "trial_index": 170, "time_elapsed": 806291, "internal_node_id": "0.0-125.0"}}, {"uniqueid": "MTK0349:36H9ULYP6312FE1OYOSVH7M55X0JFN", "current_trial": 171, "dateTime": 1510773261812, "trialdata": {"rt": -1000, "stimulus": "/static/audio/wordpool/OYSTER.wav", "key_press": -1, "type": "PRES_AUD", "word": "oyster", "wordID": 994, "conditions": [24, 1600, "a", 24000], "trial": 4, "serialpos": 2, "trial_type": "single-audio", "trial_index": 171, "time_elapsed": 808772, "internal_node_id": "0.0-126.0"}}, {"uniqueid": "MTK0349:36H9ULYP6312FE1OYOSVH7M55X0JFN", "current_trial": 172, "dateTime": 1510773264406, "trialdata": {"rt": -1000, "stimulus": "/static/audio/wordpool/EYELASH.wav", "key_press": -1, "type": "PRES_AUD", "word": "eyelash", "wordID": 545, "conditions": [24, 1600, "a", 24000], "trial": 4, "serialpos": 3, "trial_type": "single-audio", "trial_index": 172, "time_elapsed": 811366, "internal_node_id": "0.0-127.0"}}, {"uniqueid": "MTK0349:36H9ULYP6312FE1OYOSVH7M55X0JFN", "current_trial": 173, "dateTime": 1510773266859, "trialdata": {"rt": -1000, "stimulus": "/static/audio/wordpool/RATTLE.wav", "key_press": -1, "type": "PRES_AUD", "word": "rattle", "wordID": 1169, "conditions": [24, 1600, "a", 24000], "trial": 4, "serialpos": 4, "trial_type": "single-audio", "trial_index": 173, "time_elapsed": 813819, "internal_node_id": "0.0-128.0"}}, {"uniqueid": "MTK0349:36H9ULYP6312FE1OYOSVH7M55X0JFN", "current_trial": 174, "dateTime": 1510773269273, "trialdata": {"rt": -1000, "stimulus": "/static/audio/wordpool/CIGAR.wav", "key_press": -1, "type": "PRES_AUD", "word": "cigar", "wordID": 307, "conditions": [24, 1600, "a", 24000], "trial": 4, "serialpos": 5, "trial_type": "single-audio", "trial_index": 174, "time_elapsed": 816233, "internal_node_id": "0.0-129.0"}}, {"uniqueid": "MTK0349:36H9ULYP6312FE1OYOSVH7M55X0JFN", "current_trial": 175, "dateTime": 1510773271894, "trialdata": {"rt": -1000, "stimulus": "/static/audio/wordpool/CHAMPAGNE.wav", "key_press": -1, "type": "PRES_AUD", "word": "champagne", "wordID": 277, "conditions": [24, 1600, "a", 24000], "trial": 4, "serialpos": 6, "trial_type": "single-audio", "trial_index": 175, "time_elapsed": 818854, "internal_node_id": "0.0-130.0"}}, {"uniqueid": "MTK0349:36H9ULYP6312FE1OYOSVH7M55X0JFN", "current_trial": 176, "dateTime": 1510773274599, "trialdata": {"rt": -1000, "stimulus": "/static/audio/wordpool/HONEY.wav", "key_press": -1, "type": "PRES_AUD", "word": "honey", "wordID": 712, "conditions": [24, 1600, "a", 24000], "trial": 4, "serialpos": 7, "trial_type": "single-audio", "trial_index": 176, "time_elapsed": 821559, "internal_node_id": "0.0-131.0"}}, {"uniqueid": "MTK0349:36H9ULYP6312FE1OYOSVH7M55X0JFN", "current_trial": 177, "dateTime": 1510773277221, "trialdata": {"rt": -1000, "stimulus": "/static/audio/wordpool/SHOULDER.wav", "key_press": -1, "type": "PRES_AUD", "word": "shoulder", "wordID": 1293, "conditions": [24, 1600, "a", 24000], "trial": 4, "serialpos": 8, "trial_type": "single-audio", "trial_index": 177, "time_elapsed": 824181, "internal_node_id": "0.0-132.0"}}, {"uniqueid": "MTK0349:36H9ULYP6312FE1OYOSVH7M55X0JFN", "current_trial": 178, "dateTime": 1510773279986, "trialdata": {"rt": -1000, "stimulus": "/static/audio/wordpool/ANKLE.wav", "key_press": -1, "type": "PRES_AUD", "word": "ankle", "wordID": 23, "conditions": [24, 1600, "a", 24000], "trial": 4, "serialpos": 9, "trial_type": "single-audio", "trial_index": 178, "time_elapsed": 826946, "internal_node_id": "0.0-133.0"}}, {"uniqueid": "MTK0349:36H9ULYP6312FE1OYOSVH7M55X0JFN", "current_trial": 179, "dateTime": 1510773282435, "trialdata": {"rt": -1000, "stimulus": "/static/audio/wordpool/FOREHEAD.wav", "key_press": -1, "type": "PRES_AUD", "word": "forehead", "wordID": 591, "conditions": [24, 1600, "a", 24000], "trial": 4, "serialpos": 10, "trial_type": "single-audio", "trial_index": 179, "time_elapsed": 829395, "internal_node_id": "0.0-134.0"}}, {"uniqueid": "MTK0349:36H9ULYP6312FE1OYOSVH7M55X0JFN", "current_trial": 180, "dateTime": 1510773285019, "trialdata": {"rt": -1000, "stimulus": "/static/audio/wordpool/BOX.wav", "key_press": -1, "type": "PRES_AUD", "word": "box", "wordID": 158, "conditions": [24, 1600, "a", 24000], "trial": 4, "serialpos": 11, "trial_type": "single-audio", "trial_index": 180, "time_elapsed": 831979, "internal_node_id": "0.0-135.0"}}, {"uniqueid": "MTK0349:36H9ULYP6312FE1OYOSVH7M55X0JFN", "current_trial": 181, "dateTime": 1510773287581, "trialdata": {"rt": -1000, "stimulus": "/static/audio/wordpool/CAFE.wav", "key_press": -1, "type": "PRES_AUD", "word": "cafe", "wordID": 215, "conditions": [24, 1600, "a", 24000], "trial": 4, "serialpos": 12, "trial_type": "single-audio", "trial_index": 181, "time_elapsed": 834541, "internal_node_id": "0.0-136.0"}}, {"uniqueid": "MTK0349:36H9ULYP6312FE1OYOSVH7M55X0JFN", "current_trial": 182, "dateTime": 1510773290125, "trialdata": {"rt": -1000, "stimulus": "/static/audio/wordpool/DINER.wav", "key_press": -1, "type": "PRES_AUD", "word": "diner", "wordID": 466, "conditions": [24, 1600, "a", 24000], "trial": 4, "serialpos": 13, "trial_type": "single-audio", "trial_index": 182, "time_elapsed": 837085, "internal_node_id": "0.0-137.0"}}, {"uniqueid": "MTK0349:36H9ULYP6312FE1OYOSVH7M55X0JFN", "current_trial": 183, "dateTime": 1510773292630, "trialdata": {"rt": -1000, "stimulus": "/static/audio/wordpool/MISSILE.wav", "key_press": -1, "type": "PRES_AUD", "word": "missile", "wordID": 899, "conditions": [24, 1600, "a", 24000], "trial": 4, "serialpos": 14, "trial_type": "single-audio", "trial_index": 183, "time_elapsed": 839590, "internal_node_id": "0.0-138.0"}}, {"uniqueid": "MTK0349:36H9ULYP6312FE1OYOSVH7M55X0JFN", "current_trial": 184, "dateTime": 1510773295340, "trialdata": {"rt": -1000, "stimulus": "/static/audio/wordpool/CRUTCH.wav", "key_press": -1, "type": "PRES_AUD", "word": "crutch", "wordID": 416, "conditions": [24, 1600, "a", 24000], "trial": 4, "serialpos": 15, "trial_type": "single-audio", "trial_index": 184, "time_elapsed": 842300, "internal_node_id": "0.0-139.0"}}, {"uniqueid": "MTK0349:36H9ULYP6312FE1OYOSVH7M55X0JFN", "current_trial": 185, "dateTime": 1510773298101, "trialdata": {"rt": -1000, "stimulus": "/static/audio/wordpool/CHEMIST.wav", "key_press": -1, "type": "PRES_AUD", "word": "chemist", "wordID": 291, "conditions": [24, 1600, "a", 24000], "trial": 4, "serialpos": 16, "trial_type": "single-audio", "trial_index": 185, "time_elapsed": 845061, "internal_node_id": "0.0-140.0"}}, {"uniqueid": "MTK0349:36H9ULYP6312FE1OYOSVH7M55X0JFN", "current_trial": 186, "dateTime": 1510773300571, "trialdata": {"rt": -1000, "stimulus": "/static/audio/wordpool/ROBBER.wav", "key_press": -1, "type": "PRES_AUD", "word": "robber", "wordID": 1196, "conditions": [24, 1600, "a", 24000], "trial": 4, "serialpos": 17, "trial_type": "single-audio", "trial_index": 186, "time_elapsed": 847531, "internal_node_id": "0.0-141.0"}}, {"uniqueid": "MTK0349:36H9ULYP6312FE1OYOSVH7M55X0JFN", "current_trial": 187, "dateTime": 1510773303001, "trialdata": {"rt": -1000, "stimulus": "/static/audio/wordpool/WIFE.wav", "key_press": -1, "type": "PRES_AUD", "word": "wife", "wordID": 1608, "conditions": [24, 1600, "a", 24000], "trial": 4, "serialpos": 18, "trial_type": "single-audio", "trial_index": 187, "time_elapsed": 849961, "internal_node_id": "0.0-142.0"}}, {"uniqueid": "MTK0349:36H9ULYP6312FE1OYOSVH7M55X0JFN", "current_trial": 188, "dateTime": 1510773305718, "trialdata": {"rt": -1000, "stimulus": "/static/audio/wordpool/SUITCASE.wav", "key_press": -1, "type": "PRES_AUD", "word": "suitcase", "wordID": 1402, "conditions": [24, 1600, "a", 24000], "trial": 4, "serialpos": 19, "trial_type": "single-audio", "trial_index": 188, "time_elapsed": 852678, "internal_node_id": "0.0-143.0"}}, {"uniqueid": "MTK0349:36H9ULYP6312FE1OYOSVH7M55X0JFN", "current_trial": 189, "dateTime": 1510773308479, "trialdata": {"rt": -1000, "stimulus": "/static/audio/wordpool/SKILLET.wav", "key_press": -1, "type": "PRES_AUD", "word": "skillet", "wordID": 1316, "conditions": [24, 1600, "a", 24000], "trial": 4, "serialpos": 20, "trial_type": "single-audio", "trial_index": 189, "time_elapsed": 855438, "internal_node_id": "0.0-144.0"}}, {"uniqueid": "MTK0349:36H9ULYP6312FE1OYOSVH7M55X0JFN", "current_trial": 190, "dateTime": 1510773311274, "trialdata": {"rt": -1000, "stimulus": "/static/audio/wordpool/BREAST.wav", "key_press": -1, "type": "PRES_AUD", "word": "breast", "wordID": 170, "conditions": [24, 1600, "a", 24000], "trial": 4, "serialpos": 21, "trial_type": "single-audio", "trial_index": 190, "time_elapsed": 858233, "internal_node_id": "0.0-145.0"}}, {"uniqueid": "MTK0349:36H9ULYP6312FE1OYOSVH7M55X0JFN", "current_trial": 191, "dateTime": 1510773313923, "trialdata": {"rt": -1000, "stimulus": "/static/audio/wordpool/TEACHER.wav", "key_press": -1, "type": "PRES_AUD", "word": "teacher", "wordID": 1439, "conditions": [24, 1600, "a", 24000], "trial": 4, "serialpos": 22, "trial_type": "single-audio", "trial_index": 191, "time_elapsed": 860883, "internal_node_id": "0.0-146.0"}}, {"uniqueid": "MTK0349:36H9ULYP6312FE1OYOSVH7M55X0JFN", "current_trial": 192, "dateTime": 1510773316355, "trialdata": {"rt": -1000, "stimulus": "/static/audio/wordpool/SUSPECT.wav", "key_press": -1, "type": "PRES_AUD", "word": "suspect", "wordID": 1414, "conditions": [24, 1600, "a", 24000], "trial": 4, "serialpos": 23, "trial_type": "single-audio", "trial_index": 192, "time_elapsed": 863315, "internal_node_id": "0.0-147.0"}}, {"uniqueid": "MTK0349:36H9ULYP6312FE1OYOSVH7M55X0JFN", "current_trial": 193, "dateTime": 1510773317672, "trialdata": {"rt": -1, "stimulus": "", "key_press": -1, "type": "PRE_RECALL_DELAY", "trial_type": "single-stim", "trial_index": 193, "time_elapsed": 864632, "internal_node_id": "0.0-148.0-0.0"}}, {"uniqueid": "MTK0349:36H9ULYP6312FE1OYOSVH7M55X0JFN", "current_trial": 194, "dateTime": 1510773318173, "trialdata": {"rt": -1000, "stimulus": "/static/audio/400Hz.wav", "key_press": -1, "type": "PRE_RECALL_ALERT", "trial_type": "single-audio", "trial_index": 194, "time_elapsed": 865133, "internal_node_id": "0.0-149.0"}}, {"uniqueid": "MTK0349:36H9ULYP6312FE1OYOSVH7M55X0JFN", "current_trial": 195, "dateTime": 1510773378182, "trialdata": {"rt": [2933, 4189, 5872, 7604, 9625, 10856, 15205, 21440, 37447], "recwords": ["suspect", "teacher", "suitcase", "skillet", "wife", "cigar", "breast", "missile", "oyster"], "type": "FREE_RECALL", "conditions": [24, 1600, "a", 24000], "trial": 4, "trial_type": "free-recall", "trial_index": 195, "time_elapsed": 925137, "internal_node_id": "0.0-150.0-0.0"}}, {"uniqueid": "MTK0349:36H9ULYP6312FE1OYOSVH7M55X0JFN", "current_trial": 196, "dateTime": 1510773432223, "trialdata": {"rt": 52040, "key_press": 74, "type": "INSTRUCTIONS", "trial_type": "text", "trial_index": 196, "time_elapsed": 979183, "internal_node_id": "0.0-151.0"}}, {"uniqueid": "MTK0349:36H9ULYP6312FE1OYOSVH7M55X0JFN", "current_trial": 197, "dateTime": 1510773446227, "trialdata": {"rt": [2830, 4637, 6297, 9617, 11657], "responses": ["16", "12", "12", "18", "19"], "num1": [7, 4, 3, 6, 7, 4], "num2": [4, 3, 2, 4, 8, 3], "num3": [5, 5, 7, 8, 4, 2], "type": "DISTRACTOR", "conditions": [24, 1600, "a", 12000], "trial": 5, "trial_type": "math-distractor", "trial_index": 197, "time_elapsed": 993187, "internal_node_id": "0.0-152.0"}}, {"uniqueid": "MTK0349:36H9ULYP6312FE1OYOSVH7M55X0JFN", "current_trial": 198, "dateTime": 1510773449228, "trialdata": {"rt": -1, "stimulus": "<p id=\"stim\">10</p>", "key_press": -1, "trial_type": "single-stim", "trial_index": 198, "time_elapsed": 996188, "internal_node_id": "0.0-153.0-0.0"}}, {"uniqueid": "MTK0349:36H9ULYP6312FE1OYOSVH7M55X0JFN", "current_trial": 199, "dateTime": 1510773450230, "trialdata": {"rt": -1, "stimulus": "<p id=\"stim\">9</p>", "key_press": -1, "trial_type": "single-stim", "trial_index": 199, "time_elapsed": 997190, "internal_node_id": "0.0-153.0-1.0"}}, {"uniqueid": "MTK0349:36H9ULYP6312FE1OYOSVH7M55X0JFN", "current_trial": 200, "dateTime": 1510773451232, "trialdata": {"rt": -1, "stimulus": "<p id=\"stim\">8</p>", "key_press": -1, "trial_type": "single-stim", "trial_index": 200, "time_elapsed": 998191, "internal_node_id": "0.0-153.0-2.0"}}, {"uniqueid": "MTK0349:36H9ULYP6312FE1OYOSVH7M55X0JFN", "current_trial": 201, "dateTime": 1510773452233, "trialdata": {"rt": -1, "stimulus": "<p id=\"stim\">7</p>", "key_press": -1, "trial_type": "single-stim", "trial_index": 201, "time_elapsed": 999193, "internal_node_id": "0.0-153.0-3.0"}}, {"uniqueid": "MTK0349:36H9ULYP6312FE1OYOSVH7M55X0JFN", "current_trial": 202, "dateTime": 1510773453234, "trialdata": {"rt": -1, "stimulus": "<p id=\"stim\">6</p>", "key_press": -1, "trial_type": "single-stim", "trial_index": 202, "time_elapsed": 1000194, "internal_node_id": "0.0-153.0-4.0"}}, {"uniqueid": "MTK0349:36H9ULYP6312FE1OYOSVH7M55X0JFN", "current_trial": 203, "dateTime": 1510773454237, "trialdata": {"rt": -1, "stimulus": "<p id=\"stim\">5</p>", "key_press": -1, "trial_type": "single-stim", "trial_index": 203, "time_elapsed": 1001196, "internal_node_id": "0.0-153.0-5.0"}}, {"uniqueid": "MTK0349:36H9ULYP6312FE1OYOSVH7M55X0JFN", "current_trial": 204, "dateTime": 1510773455238, "trialdata": {"rt": -1, "stimulus": "<p id=\"stim\">4</p>", "key_press": -1, "trial_type": "single-stim", "trial_index": 204, "time_elapsed": 1002198, "internal_node_id": "0.0-153.0-6.0"}}, {"uniqueid": "MTK0349:36H9ULYP6312FE1OYOSVH7M55X0JFN", "current_trial": 205, "dateTime": 1510773456240, "trialdata": {"rt": -1, "stimulus": "<p id=\"stim\">3</p>", "key_press": -1, "trial_type": "single-stim", "trial_index": 205, "time_elapsed": 1003200, "internal_node_id": "0.0-153.0-7.0"}}, {"uniqueid": "MTK0349:36H9ULYP6312FE1OYOSVH7M55X0JFN", "current_trial": 206, "dateTime": 1510773457241, "trialdata": {"rt": -1, "stimulus": "<p id=\"stim\">2</p>", "key_press": -1, "trial_type": "single-stim", "trial_index": 206, "time_elapsed": 1004201, "internal_node_id": "0.0-153.0-8.0"}}, {"uniqueid": "MTK0349:36H9ULYP6312FE1OYOSVH7M55X0JFN", "current_trial": 207, "dateTime": 1510773458243, "trialdata": {"rt": -1, "stimulus": "<p id=\"stim\">1</p>", "key_press": -1, "trial_type": "single-stim", "trial_index": 207, "time_elapsed": 1005202, "internal_node_id": "0.0-153.0-9.0"}}, {"uniqueid": "MTK0349:36H9ULYP6312FE1OYOSVH7M55X0JFN", "current_trial": 208, "dateTime": 1510773459743, "trialdata": {"rt": -1, "stimulus": "<p id=\"stim\">+</p>", "key_press": -1, "type": "FIXATION", "trial_type": "single-stim", "trial_index": 208, "time_elapsed": 1006703, "internal_node_id": "0.0-154.0-0.0"}}, {"uniqueid": "MTK0349:36H9ULYP6312FE1OYOSVH7M55X0JFN", "current_trial": 209, "dateTime": 1510773462240, "trialdata": {"rt": -1000, "stimulus": "/static/audio/wordpool/MUSTARD.wav", "key_press": -1, "type": "PRES_AUD", "word": "mustard", "wordID": 934, "conditions": [24, 1600, "a", 12000], "trial": 5, "serialpos": 0, "trial_type": "single-audio", "trial_index": 209, "time_elapsed": 1009200, "internal_node_id": "0.0-155.0"}}, {"uniqueid": "MTK0349:36H9ULYP6312FE1OYOSVH7M55X0JFN", "current_trial": 210, "dateTime": 1510773464785, "trialdata": {"rt": -1000, "stimulus": "/static/audio/wordpool/FRIEND.wav", "key_press": -1, "type": "PRES_AUD", "word": "friend", "wordID": 605, "conditions": [24, 1600, "a", 12000], "trial": 5, "serialpos": 1, "trial_type": "single-audio", "trial_index": 210, "time_elapsed": 1011744, "internal_node_id": "0.0-156.0"}}, {"uniqueid": "MTK0349:36H9ULYP6312FE1OYOSVH7M55X0JFN", "current_trial": 211, "dateTime": 1510773467402, "trialdata": {"rt": -1000, "stimulus": "/static/audio/wordpool/COUCH.wav", "key_press": -1, "type": "PRES_AUD", "word": "couch", "wordID": 385, "conditions": [24, 1600, "a", 12000], "trial": 5, "serialpos": 2, "trial_type": "single-audio", "trial_index": 211, "time_elapsed": 1014362, "internal_node_id": "0.0-157.0"}}, {"uniqueid": "MTK0349:36H9ULYP6312FE1OYOSVH7M55X0JFN", "current_trial": 212, "dateTime": 1510773469863, "trialdata": {"rt": -1000, "stimulus": "/static/audio/wordpool/VALLEY.wav", "key_press": -1, "type": "PRES_AUD", "word": "valley", "wordID": 1544, "conditions": [24, 1600, "a", 12000], "trial": 5, "serialpos": 3, "trial_type": "single-audio", "trial_index": 212, "time_elapsed": 1016823, "internal_node_id": "0.0-158.0"}}, {"uniqueid": "MTK0349:36H9ULYP6312FE1OYOSVH7M55X0JFN", "current_trial": 213, "dateTime": 1510773472588, "trialdata": {"rt": -1000, "stimulus": "/static/audio/wordpool/PLASTER.wav", "key_press": -1, "type": "PRES_AUD", "word": "plaster", "wordID": 1084, "conditions": [24, 1600, "a", 12000], "trial": 5, "serialpos": 4, "trial_type": "single-audio", "trial_index": 213, "time_elapsed": 1019548, "internal_node_id": "0.0-159.0"}}, {"uniqueid": "MTK0349:36H9ULYP6312FE1OYOSVH7M55X0JFN", "current_trial": 214, "dateTime": 1510773475173, "trialdata": {"rt": -1000, "stimulus": "/static/audio/wordpool/GROUND.wav", "key_press": -1, "type": "PRES_AUD", "word": "ground", "wordID": 665, "conditions": [24, 1600, "a", 12000], "trial": 5, "serialpos": 5, "trial_type": "single-audio", "trial_index": 214, "time_elapsed": 1022133, "internal_node_id": "0.0-160.0"}}, {"uniqueid": "MTK0349:36H9ULYP6312FE1OYOSVH7M55X0JFN", "current_trial": 215, "dateTime": 1510773477738, "trialdata": {"rt": -1000, "stimulus": "/static/audio/wordpool/FRAME.wav", "key_press": -1, "type": "PRES_AUD", "word": "frame", "wordID": 599, "conditions": [24, 1600, "a", 12000], "trial": 5, "serialpos": 6, "trial_type": "single-audio", "trial_index": 215, "time_elapsed": 1024695, "internal_node_id": "0.0-161.0"}}, {"uniqueid": "MTK0349:36H9ULYP6312FE1OYOSVH7M55X0JFN", "current_trial": 216, "dateTime": 1510773480189, "trialdata": {"rt": -1000, "stimulus": "/static/audio/wordpool/NIGHTGOWN.wav", "key_press": -1, "type": "PRES_AUD", "word": "nightgown", "wordID": 952, "conditions": [24, 1600, "a", 12000], "trial": 5, "serialpos": 7, "trial_type": "single-audio", "trial_index": 216, "time_elapsed": 1027149, "internal_node_id": "0.0-162.0"}}, {"uniqueid": "MTK0349:36H9ULYP6312FE1OYOSVH7M55X0JFN", "current_trial": 217, "dateTime": 1510773482598, "trialdata": {"rt": -1000, "stimulus": "/static/audio/wordpool/PLAZA.wav", "key_press": -1, "type": "PRES_AUD", "word": "plaza", "wordID": 1087, "conditions": [24, 1600, "a", 12000], "trial": 5, "serialpos": 8, "trial_type": "single-audio", "trial_index": 217, "time_elapsed": 1029558, "internal_node_id": "0.0-163.0"}}, {"uniqueid": "MTK0349:36H9ULYP6312FE1OYOSVH7M55X0JFN", "current_trial": 218, "dateTime": 1510773485272, "trialdata": {"rt": -1000, "stimulus": "/static/audio/wordpool/SIDEWALK.wav", "key_press": -1, "type": "PRES_AUD", "word": "sidewalk", "wordID": 1302, "conditions": [24, 1600, "a", 12000], "trial": 5, "serialpos": 9, "trial_type": "single-audio", "trial_index": 218, "time_elapsed": 1032232, "internal_node_id": "0.0-164.0"}}, {"uniqueid": "MTK0349:36H9ULYP6312FE1OYOSVH7M55X0JFN", "current_trial": 219, "dateTime": 1510773487870, "trialdata": {"rt": -1000, "stimulus": "/static/audio/wordpool/ACTRESS.wav", "key_press": -1, "type": "PRES_AUD", "word": "actress", "wordID": 5, "conditions": [24, 1600, "a", 12000], "trial": 5, "serialpos": 10, "trial_type": "single-audio", "trial_index": 219, "time_elapsed": 1034830, "internal_node_id": "0.0-165.0"}}, {"uniqueid": "MTK0349:36H9ULYP6312FE1OYOSVH7M55X0JFN", "current_trial": 220, "dateTime": 1510773490445, "trialdata": {"rt": -1000, "stimulus": "/static/audio/wordpool/MATTRESS.wav", "key_press": -1, "type": "PRES_AUD", "word": "mattress", "wordID": 878, "conditions": [24, 1600, "a", 12000], "trial": 5, "serialpos": 11, "trial_type": "single-audio", "trial_index": 220, "time_elapsed": 1037405, "internal_node_id": "0.0-166.0"}}, {"uniqueid": "MTK0349:36H9ULYP6312FE1OYOSVH7M55X0JFN", "current_trial": 221, "dateTime": 1510773493222, "trialdata": {"rt": -1000, "stimulus": "/static/audio/wordpool/DRESSER.wav", "key_press": -1, "type": "PRES_AUD", "word": "dresser", "wordID": 495, "conditions": [24, 1600, "a", 12000], "trial": 5, "serialpos": 12, "trial_type": "single-audio", "trial_index": 221, "time_elapsed": 1040182, "internal_node_id": "0.0-167.0"}}, {"uniqueid": "MTK0349:36H9ULYP6312FE1OYOSVH7M55X0JFN", "current_trial": 222, "dateTime": 1510773495817, "trialdata": {"rt": -1000, "stimulus": "/static/audio/wordpool/LADY.wav", "key_press": -1, "type": "PRES_AUD", "word": "lady", "wordID": 793, "conditions": [24, 1600, "a", 12000], "trial": 5, "serialpos": 13, "trial_type": "single-audio", "trial_index": 222, "time_elapsed": 1042777, "internal_node_id": "0.0-168.0"}}, {"uniqueid": "MTK0349:36H9ULYP6312FE1OYOSVH7M55X0JFN", "current_trial": 223, "dateTime": 1510773498319, "trialdata": {"rt": -1000, "stimulus": "/static/audio/wordpool/LIPSTICK.wav", "key_press": -1, "type": "PRES_AUD", "word": "lipstick", "wordID": 828, "conditions": [24, 1600, "a", 12000], "trial": 5, "serialpos": 14, "trial_type": "single-audio", "trial_index": 223, "time_elapsed": 1045279, "internal_node_id": "0.0-169.0"}}, {"uniqueid": "MTK0349:36H9ULYP6312FE1OYOSVH7M55X0JFN", "current_trial": 224, "dateTime": 1510773501048, "trialdata": {"rt": -1000, "stimulus": "/static/audio/wordpool/THREAD.wav", "key_press": -1, "type": "PRES_AUD", "word": "thread", "wordID": 1459, "conditions": [24, 1600, "a", 12000], "trial": 5, "serialpos": 15, "trial_type": "single-audio", "trial_index": 224, "time_elapsed": 1048008, "internal_node_id": "0.0-170.0"}}, {"uniqueid": "MTK0349:36H9ULYP6312FE1OYOSVH7M55X0JFN", "current_trial": 225, "dateTime": 1510773503496, "trialdata": {"rt": -1000, "stimulus": "/static/audio/wordpool/TUTU.wav", "key_press": -1, "type": "PRES_AUD", "word": "tutu", "wordID": 1523, "conditions": [24, 1600, "a", 12000], "trial": 5, "serialpos": 16, "trial_type": "single-audio", "trial_index": 225, "time_elapsed": 1050456, "internal_node_id": "0.0-171.0"}}, {"uniqueid": "MTK0349:36H9ULYP6312FE1OYOSVH7M55X0JFN", "current_trial": 226, "dateTime": 1510773506260, "trialdata": {"rt": -1000, "stimulus": "/static/audio/wordpool/HEDGE.wav", "key_press": -1, "type": "PRES_AUD", "word": "hedge", "wordID": 698, "conditions": [24, 1600, "a", 12000], "trial": 5, "serialpos": 17, "trial_type": "single-audio", "trial_index": 226, "time_elapsed": 1053220, "internal_node_id": "0.0-172.0"}}, {"uniqueid": "MTK0349:36H9ULYP6312FE1OYOSVH7M55X0JFN", "current_trial": 227, "dateTime": 1510773509015, "trialdata": {"rt": -1000, "stimulus": "/static/audio/wordpool/GARLIC.wav", "key_press": -1, "type": "PRES_AUD", "word": "garlic", "wordID": 623, "conditions": [24, 1600, "a", 12000], "trial": 5, "serialpos": 18, "trial_type": "single-audio", "trial_index": 227, "time_elapsed": 1055975, "internal_node_id": "0.0-173.0"}}, {"uniqueid": "MTK0349:36H9ULYP6312FE1OYOSVH7M55X0JFN", "current_trial": 228, "dateTime": 1510773511628, "trialdata": {"rt": -1000, "stimulus": "/static/audio/wordpool/TRACTOR.wav", "key_press": -1, "type": "PRES_AUD", "word": "tractor", "wordID": 1492, "conditions": [24, 1600, "a", 12000], "trial": 5, "serialpos": 19, "trial_type": "single-audio", "trial_index": 228, "time_elapsed": 1058588, "internal_node_id": "0.0-174.0"}}, {"uniqueid": "MTK0349:36H9ULYP6312FE1OYOSVH7M55X0JFN", "current_trial": 229, "dateTime": 1510773514395, "trialdata": {"rt": -1000, "stimulus": "/static/audio/wordpool/STATUE.wav", "key_press": -1, "type": "PRES_AUD", "word": "statue", "wordID": 1373, "conditions": [24, 1600, "a", 12000], "trial": 5, "serialpos": 20, "trial_type": "single-audio", "trial_index": 229, "time_elapsed": 1061355, "internal_node_id": "0.0-175.0"}}, {"uniqueid": "MTK0349:36H9ULYP6312FE1OYOSVH7M55X0JFN", "current_trial": 230, "dateTime": 1510773516810, "trialdata": {"rt": -1000, "stimulus": "/static/audio/wordpool/SCULPTURE.wav", "key_press": -1, "type": "PRES_AUD", "word": "sculpture", "wordID": 1257, "conditions": [24, 1600, "a", 12000], "trial": 5, "serialpos": 21, "trial_type": "single-audio", "trial_index": 230, "time_elapsed": 1063770, "internal_node_id": "0.0-176.0"}}, {"uniqueid": "MTK0349:36H9ULYP6312FE1OYOSVH7M55X0JFN", "current_trial": 231, "dateTime": 1510773519484, "trialdata": {"rt": -1000, "stimulus": "/static/audio/wordpool/COSTUME.wav", "key_press": -1, "type": "PRES_AUD", "word": "costume", "wordID": 382, "conditions": [24, 1600, "a", 12000], "trial": 5, "serialpos": 22, "trial_type": "single-audio", "trial_index": 231, "time_elapsed": 1066444, "internal_node_id": "0.0-177.0"}}, {"uniqueid": "MTK0349:36H9ULYP6312FE1OYOSVH7M55X0JFN", "current_trial": 232, "dateTime": 1510773521929, "trialdata": {"rt": -1000, "stimulus": "/static/audio/wordpool/TWEEZERS.wav", "key_press": -1, "type": "PRES_AUD", "word": "tweezers", "wordID": 1525, "conditions": [24, 1600, "a", 12000], "trial": 5, "serialpos": 23, "trial_type": "single-audio", "trial_index": 232, "time_elapsed": 1068889, "internal_node_id": "0.0-178.0"}}, {"uniqueid": "MTK0349:36H9ULYP6312FE1OYOSVH7M55X0JFN", "current_trial": 233, "dateTime": 1510773523210, "trialdata": {"rt": -1, "stimulus": "", "key_press": -1, "type": "PRE_RECALL_DELAY", "trial_type": "single-stim", "trial_index": 233, "time_elapsed": 1070169, "internal_node_id": "0.0-179.0-0.0"}}, {"uniqueid": "MTK0349:36H9ULYP6312FE1OYOSVH7M55X0JFN", "current_trial": 234, "dateTime": 1510773523711, "trialdata": {"rt": -1000, "stimulus": "/static/audio/400Hz.wav", "key_press": -1, "type": "PRE_RECALL_ALERT", "trial_type": "single-audio", "trial_index": 234, "time_elapsed": 1070671, "internal_node_id": "0.0-180.0"}}, {"uniqueid": "MTK0349:36H9ULYP6312FE1OYOSVH7M55X0JFN", "current_trial": 235, "dateTime": 1510773583719, "trialdata": {"rt": [3089, 4390, 6161, 9497, 11137, 16009, 16996, 21628, 22968, 31820], "recwords": ["tweezers", "statue", "costume", "hedge", "lady", "thread", "tutu", "frame", "valley", "plaster"], "type": "FREE_RECALL", "conditions": [24, 1600, "a", 12000], "trial": 5, "trial_type": "free-recall", "trial_index": 235, "time_elapsed": 1130675, "internal_node_id": "0.0-181.0-0.0"}}, {"uniqueid": "MTK0349:36H9ULYP6312FE1OYOSVH7M55X0JFN", "current_trial": 236, "dateTime": 1510773587664, "trialdata": {"rt": 1943, "key_press": 76, "type": "INSTRUCTIONS", "trial_type": "text", "trial_index": 236, "time_elapsed": 1134624, "internal_node_id": "0.0-182.0"}}, {"uniqueid": "MTK0349:36H9ULYP6312FE1OYOSVH7M55X0JFN", "current_trial": 237, "dateTime": 1510773613667, "trialdata": {"rt": [3518, 5457, 7586, 9285, 10790, 12297, 14478, 18985, 21017, 23729], "responses": ["16", "14", "16", "8", "7", "7", "12", "22", "18", "13"], "num1": [4, 8, 1, 3, 1, 1, 1, 7, 5, 5, 6], "num2": [9, 1, 9, 3, 3, 4, 9, 7, 9, 6, 3], "num3": [3, 5, 6, 2, 3, 2, 2, 8, 4, 2, 3], "type": "DISTRACTOR", "conditions": [24, 1600, "v", 24000], "trial": 6, "trial_type": "math-distractor", "trial_index": 237, "time_elapsed": 1160627, "internal_node_id": "0.0-183.0"}}, {"uniqueid": "MTK0349:36H9ULYP6312FE1OYOSVH7M55X0JFN", "current_trial": 238, "dateTime": 1510773616668, "trialdata": {"rt": -1, "stimulus": "<p id=\"stim\">10</p>", "key_press": -1, "trial_type": "single-stim", "trial_index": 238, "time_elapsed": 1163628, "internal_node_id": "0.0-184.0-0.0"}}, {"uniqueid": "MTK0349:36H9ULYP6312FE1OYOSVH7M55X0JFN", "current_trial": 239, "dateTime": 1510773617669, "trialdata": {"rt": -1, "stimulus": "<p id=\"stim\">9</p>", "key_press": -1, "trial_type": "single-stim", "trial_index": 239, "time_elapsed": 1164629, "internal_node_id": "0.0-184.0-1.0"}}, {"uniqueid": "MTK0349:36H9ULYP6312FE1OYOSVH7M55X0JFN", "current_trial": 240, "dateTime": 1510773618671, "trialdata": {"rt": -1, "stimulus": "<p id=\"stim\">8</p>", "key_press": -1, "trial_type": "single-stim", "trial_index": 240, "time_elapsed": 1165631, "internal_node_id": "0.0-184.0-2.0"}}, {"uniqueid": "MTK0349:36H9ULYP6312FE1OYOSVH7M55X0JFN", "current_trial": 241, "dateTime": 1510773619673, "trialdata": {"rt": -1, "stimulus": "<p id=\"stim\">7</p>", "key_press": -1, "trial_type": "single-stim", "trial_index": 241, "time_elapsed": 1166633, "internal_node_id": "0.0-184.0-3.0"}}, {"uniqueid": "MTK0349:36H9ULYP6312FE1OYOSVH7M55X0JFN", "current_trial": 242, "dateTime": 1510773620675, "trialdata": {"rt": -1, "stimulus": "<p id=\"stim\">6</p>", "key_press": -1, "trial_type": "single-stim", "trial_index": 242, "time_elapsed": 1167635, "internal_node_id": "0.0-184.0-4.0"}}, {"uniqueid": "MTK0349:36H9ULYP6312FE1OYOSVH7M55X0JFN", "current_trial": 243, "dateTime": 1510773621677, "trialdata": {"rt": -1, "stimulus": "<p id=\"stim\">5</p>", "key_press": -1, "trial_type": "single-stim", "trial_index": 243, "time_elapsed": 1168637, "internal_node_id": "0.0-184.0-5.0"}}, {"uniqueid": "MTK0349:36H9ULYP6312FE1OYOSVH7M55X0JFN", "current_trial": 244, "dateTime": 1510773622679, "trialdata": {"rt": -1, "stimulus": "<p id=\"stim\">4</p>", "key_press": -1, "trial_type": "single-stim", "trial_index": 244, "time_elapsed": 1169639, "internal_node_id": "0.0-184.0-6.0"}}, {"uniqueid": "MTK0349:36H9ULYP6312FE1OYOSVH7M55X0JFN", "current_trial": 245, "dateTime": 1510773623681, "trialdata": {"rt": -1, "stimulus": "<p id=\"stim\">3</p>", "key_press": -1, "trial_type": "single-stim", "trial_index": 245, "time_elapsed": 1170641, "internal_node_id": "0.0-184.0-7.0"}}, {"uniqueid": "MTK0349:36H9ULYP6312FE1OYOSVH7M55X0JFN", "current_trial": 246, "dateTime": 1510773624683, "trialdata": {"rt": -1, "stimulus": "<p id=\"stim\">2</p>", "key_press": -1, "trial_type": "single-stim", "trial_index": 246, "time_elapsed": 1171643, "internal_node_id": "0.0-184.0-8.0"}}, {"uniqueid": "MTK0349:36H9ULYP6312FE1OYOSVH7M55X0JFN", "current_trial": 247, "dateTime": 1510773625684, "trialdata": {"rt": -1, "stimulus": "<p id=\"stim\">1</p>", "key_press": -1, "trial_type": "single-stim", "trial_index": 247, "time_elapsed": 1172644, "internal_node_id": "0.0-184.0-9.0"}}, {"uniqueid": "MTK0349:36H9ULYP6312FE1OYOSVH7M55X0JFN", "current_trial": 248, "dateTime": 1510773627185, "trialdata": {"rt": -1, "stimulus": "<p id=\"stim\">+</p>", "key_press": -1, "type": "FIXATION", "trial_type": "single-stim", "trial_index": 248, "time_elapsed": 1174145, "internal_node_id": "0.0-185.0-0.0"}}, {"uniqueid": "MTK0349:36H9ULYP6312FE1OYOSVH7M55X0JFN", "current_trial": 249, "dateTime": 1510773628786, "trialdata": {"rt": -1, "stimulus": "<p id=\"stim\">PECAN</p>", "key_press": -1, "type": "PRES_VIS", "word": "pecan", "wordID": 1035, "conditions": [24, 1600, "v", 24000], "trial": 6, "serialpos": 0, "trial_type": "single-stim", "trial_index": 249, "time_elapsed": 1175746, "internal_node_id": "0.0-186.0"}}, {"uniqueid": "MTK0349:36H9ULYP6312FE1OYOSVH7M55X0JFN", "current_trial": 250, "dateTime": 1510773631326, "trialdata": {"rt": -1, "stimulus": "<p id=\"stim\">PASTA</p>", "key_press": -1, "type": "PRES_VIS", "word": "pasta", "wordID": 1020, "conditions": [24, 1600, "v", 24000], "trial": 6, "serialpos": 1, "trial_type": "single-stim", "trial_index": 250, "time_elapsed": 1178285, "internal_node_id": "0.0-187.0"}}, {"uniqueid": "MTK0349:36H9ULYP6312FE1OYOSVH7M55X0JFN", "current_trial": 251, "dateTime": 1510773634055, "trialdata": {"rt": -1, "stimulus": "<p id=\"stim\">DONOR</p>", "key_press": -1, "type": "PRES_VIS", "word": "donor", "wordID": 484, "conditions": [24, 1600, "v", 24000], "trial": 6, "serialpos": 2, "trial_type": "single-stim", "trial_index": 251, "time_elapsed": 1181015, "internal_node_id": "0.0-188.0"}}, {"uniqueid": "MTK0349:36H9ULYP6312FE1OYOSVH7M55X0JFN", "current_trial": 252, "dateTime": 1510773636780, "trialdata": {"rt": -1, "stimulus": "<p id=\"stim\">COD</p>", "key_press": -1, "type": "PRES_VIS", "word": "cod", "wordID": 339, "conditions": [24, 1600, "v", 24000], "trial": 6, "serialpos": 3, "trial_type": "single-stim", "trial_index": 252, "time_elapsed": 1183739, "internal_node_id": "0.0-189.0"}}, {"uniqueid": "MTK0349:36H9ULYP6312FE1OYOSVH7M55X0JFN", "current_trial": 253, "dateTime": 1510773639337, "trialdata": {"rt": -1, "stimulus": "<p id=\"stim\">CRAB</p>", "key_press": -1, "type": "PRES_VIS", "word": "crab", "wordID": 396, "conditions": [24, 1600, "v", 24000], "trial": 6, "serialpos": 4, "trial_type": "single-stim", "trial_index": 253, "time_elapsed": 1186297, "internal_node_id": "0.0-190.0"}}, {"uniqueid": "MTK0349:36H9ULYP6312FE1OYOSVH7M55X0JFN", "current_trial": 254, "dateTime": 1510773641813, "trialdata": {"rt": -1, "stimulus": "<p id=\"stim\">PIZZA</p>", "key_press": -1, "type": "PRES_VIS", "word": "pizza", "wordID": 1078, "conditions": [24, 1600, "v", 24000], "trial": 6, "serialpos": 5, "trial_type": "single-stim", "trial_index": 254, "time_elapsed": 1188772, "internal_node_id": "0.0-191.0"}}, {"uniqueid": "MTK0349:36H9ULYP6312FE1OYOSVH7M55X0JFN", "current_trial": 255, "dateTime": 1510773644296, "trialdata": {"rt": -1, "stimulus": "<p id=\"stim\">PILOT</p>", "key_press": -1, "type": "PRES_VIS", "word": "pilot", "wordID": 1069, "conditions": [24, 1600, "v", 24000], "trial": 6, "serialpos": 6, "trial_type": "single-stim", "trial_index": 255, "time_elapsed": 1191256, "internal_node_id": "0.0-192.0"}}, {"uniqueid": "MTK0349:36H9ULYP6312FE1OYOSVH7M55X0JFN", "current_trial": 256, "dateTime": 1510773646746, "trialdata": {"rt": -1, "stimulus": "<p id=\"stim\">PIGEON</p>", "key_press": -1, "type": "PRES_VIS", "word": "pigeon", "wordID": 1064, "conditions": [24, 1600, "v", 24000], "trial": 6, "serialpos": 7, "trial_type": "single-stim", "trial_index": 256, "time_elapsed": 1193706, "internal_node_id": "0.0-193.0"}}, {"uniqueid": "MTK0349:36H9ULYP6312FE1OYOSVH7M55X0JFN", "current_trial": 257, "dateTime": 1510773649314, "trialdata": {"rt": -1, "stimulus": "<p id=\"stim\">ICING</p>", "key_press": -1, "type": "PRES_VIS", "word": "icing", "wordID": 731, "conditions": [24, 1600, "v", 24000], "trial": 6, "serialpos": 8, "trial_type": "single-stim", "trial_index": 257, "time_elapsed": 1196274, "internal_node_id": "0.0-194.0"}}, {"uniqueid": "MTK0349:36H9ULYP6312FE1OYOSVH7M55X0JFN", "current_trial": 258, "dateTime": 1510773651826, "trialdata": {"rt": -1, "stimulus": "<p id=\"stim\">SWIMMER</p>", "key_press": -1, "type": "PRES_VIS", "word": "swimmer", "wordID": 1419, "conditions": [24, 1600, "v", 24000], "trial": 6, "serialpos": 9, "trial_type": "single-stim", "trial_index": 258, "time_elapsed": 1198785, "internal_node_id": "0.0-195.0"}}, {"uniqueid": "MTK0349:36H9ULYP6312FE1OYOSVH7M55X0JFN", "current_trial": 259, "dateTime": 1510773654440, "trialdata": {"rt": -1, "stimulus": "<p id=\"stim\">OZONE</p>", "key_press": -1, "type": "PRES_VIS", "word": "ozone", "wordID": 995, "conditions": [24, 1600, "v", 24000], "trial": 6, "serialpos": 10, "trial_type": "single-stim", "trial_index": 259, "time_elapsed": 1201400, "internal_node_id": "0.0-196.0"}}, {"uniqueid": "MTK0349:36H9ULYP6312FE1OYOSVH7M55X0JFN", "current_trial": 260, "dateTime": 1510773657189, "trialdata": {"rt": -1, "stimulus": "<p id=\"stim\">HEART</p>", "key_press": -1, "type": "PRES_VIS", "word": "heart", "wordID": 696, "conditions": [24, 1600, "v", 24000], "trial": 6, "serialpos": 11, "trial_type": "single-stim", "trial_index": 260, "time_elapsed": 1204149, "internal_node_id": "0.0-197.0"}}, {"uniqueid": "MTK0349:36H9ULYP6312FE1OYOSVH7M55X0JFN", "current_trial": 261, "dateTime": 1510773659695, "trialdata": {"rt": -1, "stimulus": "<p id=\"stim\">BURGLAR</p>", "key_press": -1, "type": "PRES_VIS", "word": "burglar", "wordID": 199, "conditions": [24, 1600, "v", 24000], "trial": 6, "serialpos": 12, "trial_type": "single-stim", "trial_index": 261, "time_elapsed": 1206655, "internal_node_id": "0.0-198.0"}}, {"uniqueid": "MTK0349:36H9ULYP6312FE1OYOSVH7M55X0JFN", "current_trial": 262, "dateTime": 1510773662174, "trialdata": {"rt": -1, "stimulus": "<p id=\"stim\">LAVA</p>", "key_press": -1, "type": "PRES_VIS", "word": "lava", "wordID": 803, "conditions": [24, 1600, "v", 24000], "trial": 6, "serialpos": 13, "trial_type": "single-stim", "trial_index": 262, "time_elapsed": 1209133, "internal_node_id": "0.0-199.0"}}, {"uniqueid": "MTK0349:36H9ULYP6312FE1OYOSVH7M55X0JFN", "current_trial": 263, "dateTime": 1510773664745, "trialdata": {"rt": -1, "stimulus": "<p id=\"stim\">PERFUME</p>", "key_press": -1, "type": "PRES_VIS", "word": "perfume", "wordID": 1048, "conditions": [24, 1600, "v", 24000], "trial": 6, "serialpos": 14, "trial_type": "single-stim", "trial_index": 263, "time_elapsed": 1211705, "internal_node_id": "0.0-200.0"}}, {"uniqueid": "MTK0349:36H9ULYP6312FE1OYOSVH7M55X0JFN", "current_trial": 264, "dateTime": 1510773667394, "trialdata": {"rt": -1, "stimulus": "<p id=\"stim\">FRAGRANCE</p>", "key_press": -1, "type": "PRES_VIS", "word": "fragrance", "wordID": 598, "conditions": [24, 1600, "v", 24000], "trial": 6, "serialpos": 15, "trial_type": "single-stim", "trial_index": 264, "time_elapsed": 1214354, "internal_node_id": "0.0-201.0"}}, {"uniqueid": "MTK0349:36H9ULYP6312FE1OYOSVH7M55X0JFN", "current_trial": 265, "dateTime": 1510773669801, "trialdata": {"rt": -1, "stimulus": "<p id=\"stim\">CRATER</p>", "key_press": -1, "type": "PRES_VIS", "word": "crater", "wordID": 399, "conditions": [24, 1600, "v", 24000], "trial": 6, "serialpos": 16, "trial_type": "single-stim", "trial_index": 265, "time_elapsed": 1216761, "internal_node_id": "0.0-202.0"}}, {"uniqueid": "MTK0349:36H9ULYP6312FE1OYOSVH7M55X0JFN", "current_trial": 266, "dateTime": 1510773672392, "trialdata": {"rt": -1, "stimulus": "<p id=\"stim\">PISTOL</p>", "key_press": -1, "type": "PRES_VIS", "word": "pistol", "wordID": 1074, "conditions": [24, 1600, "v", 24000], "tria