{"condition": 0, "counterbalance": 358, "assignmentId": "3U5JL4WY5LGTCI9OVBBDHCXTQ1M4XF", "workerId": "MTK0231", "hitId": "3ACRLU860NL24X5MPJQ6CHM874SBET", "currenttrial": 626, "bonus": 0, "data": [{"uniqueid": "MTK0231:3U5JL4WY5LGTCI9OVBBDHCXTQ1M4XF", "current_trial": 0, "dateTime": 1510673636121, "trialdata": {"rt": 242580, "key_press": 32, "type": "INSTRUCTIONS", "trial_type": "text", "trial_index": 0, "time_elapsed": 242585, "internal_node_id": "0.0-0.0"}}, {"uniqueid": "MTK0231:3U5JL4WY5LGTCI9OVBBDHCXTQ1M4XF", "current_trial": 1, "dateTime": 1510673651833, "trialdata": {"rt": 15709, "key_press": 32, "type": "INSTRUCTIONS", "trial_type": "text", "trial_index": 1, "time_elapsed": 258298, "internal_node_id": "0.0-1.0"}}, {"uniqueid": "MTK0231:3U5JL4WY5LGTCI9OVBBDHCXTQ1M4XF", "current_trial": 2, "dateTime": 1510673660696, "trialdata": {"rt": [8835], "responses": ["ocean"], "type": "AUDIO_TEST", "trial_type": "audio-test", "trial_index": 2, "time_elapsed": 267162, "internal_node_id": "0.0-2.0"}}, {"uniqueid": "MTK0231:3U5JL4WY5LGTCI9OVBBDHCXTQ1M4XF", "current_trial": 3, "dateTime": 1510673752260, "trialdata": {"rt": [12213, 57662, 91551], "responses": ["cristal", "pistal", "crystal"], "type": "AUDIO_TEST", "trial_type": "audio-test", "trial_index": 3, "time_elapsed": 358726, "internal_node_id": "0.0-3.0"}}, {"uniqueid": "MTK0231:3U5JL4WY5LGTCI9OVBBDHCXTQ1M4XF", "current_trial": 4, "dateTime": 1510673762025, "trialdata": {"rt": [9756], "responses": ["spice"], "type": "AUDIO_TEST", "trial_type": "audio-test", "trial_index": 4, "time_elapsed": 368491, "internal_node_id": "0.0-4.0"}}, {"uniqueid": "MTK0231:3U5JL4WY5LGTCI9OVBBDHCXTQ1M4XF", "current_trial": 5, "dateTime": 1510673796255, "trialdata": {"rt": 33469, "responses": "{\"Q0\":\"11:00pm\",\"Q1\":\"6:00am\",\"Q2\":\"5\"}", "type": "SLEEP_SURVEY", "trial_type": "survey-text", "trial_index": 5, "time_elapsed": 402721, "internal_node_id": "0.0-5.0"}}, {"uniqueid": "MTK0231:3U5JL4WY5LGTCI9OVBBDHCXTQ1M4XF", "current_trial": 6, "dateTime": 1510673835661, "trialdata": {"rt": 38403, "key_press": 32, "type": "INSTRUCTIONS", "trial_type": "text", "trial_index": 6, "time_elapsed": 442127, "internal_node_id": "0.0-6.0"}}, {"uniqueid": "MTK0231:3U5JL4WY5LGTCI9OVBBDHCXTQ1M4XF", "current_trial": 7, "dateTime": 1510673848900, "trialdata": {"rt": 12737, "key_press": 32, "type": "INSTRUCTIONS", "trial_type": "text", "trial_index": 7, "time_elapsed": 455366, "internal_node_id": "0.0-7.0"}}, {"uniqueid": "MTK0231:3U5JL4WY5LGTCI9OVBBDHCXTQ1M4XF", "current_trial": 8, "dateTime": 1510673851280, "trialdata": {"rt": 1878, "key_press": 32, "type": "INSTRUCTIONS", "trial_type": "text", "trial_index": 8, "time_elapsed": 457746, "internal_node_id": "0.0-8.0"}}, {"uniqueid": "MTK0231:3U5JL4WY5LGTCI9OVBBDHCXTQ1M4XF", "current_trial": 9, "dateTime": 1510673870297, "trialdata": {"rt": [3353, 5761, 8194, 11130, 13113, 15866, 17645], "responses": ["19", "13", "18", "13", "14", "12", "4"], "num1": [5, 4, 4, 3, 7, 5, 1, 5], "num2": [5, 8, 5, 4, 1, 2, 2, 8], "num3": [9, 1, 9, 6, 6, 5, 1, 8], "type": "DISTRACTOR", "conditions": [18, 1200, "v", 18000], "trial": 0, "trial_type": "math-distractor", "trial_index": 9, "time_elapsed": 476762, "internal_node_id": "0.0-9.0"}}, {"uniqueid": "MTK0231:3U5JL4WY5LGTCI9OVBBDHCXTQ1M4XF", "current_trial": 10, "dateTime": 1510673873301, "trialdata": {"rt": -1, "stimulus": "<p id=\"stim\">10</p>", "key_press": -1, "trial_type": "single-stim", "trial_index": 10, "time_elapsed": 479767, "internal_node_id": "0.0-10.0-0.0"}}, {"uniqueid": "MTK0231:3U5JL4WY5LGTCI9OVBBDHCXTQ1M4XF", "current_trial": 11, "dateTime": 1510673874304, "trialdata": {"rt": -1, "stimulus": "<p id=\"stim\">9</p>", "key_press": -1, "trial_type": "single-stim", "trial_index": 11, "time_elapsed": 480769, "internal_node_id": "0.0-10.0-1.0"}}, {"uniqueid": "MTK0231:3U5JL4WY5LGTCI9OVBBDHCXTQ1M4XF", "current_trial": 12, "dateTime": 1510673875305, "trialdata": {"rt": -1, "stimulus": "<p id=\"stim\">8</p>", "key_press": -1, "trial_type": "single-stim", "trial_index": 12, "time_elapsed": 481771, "internal_node_id": "0.0-10.0-2.0"}}, {"uniqueid": "MTK0231:3U5JL4WY5LGTCI9OVBBDHCXTQ1M4XF", "current_trial": 13, "dateTime": 1510673876307, "trialdata": {"rt": -1, "stimulus": "<p id=\"stim\">7</p>", "key_press": -1, "trial_type": "single-stim", "trial_index": 13, "time_elapsed": 482773, "internal_node_id": "0.0-10.0-3.0"}}, {"uniqueid": "MTK0231:3U5JL4WY5LGTCI9OVBBDHCXTQ1M4XF", "current_trial": 14, "dateTime": 1510673877308, "trialdata": {"rt": -1, "stimulus": "<p id=\"stim\">6</p>", "key_press": -1, "trial_type": "single-stim", "trial_index": 14, "time_elapsed": 483774, "internal_node_id": "0.0-10.0-4.0"}}, {"uniqueid": "MTK0231:3U5JL4WY5LGTCI9OVBBDHCXTQ1M4XF", "current_trial": 15, "dateTime": 1510673878309, "trialdata": {"rt": -1, "stimulus": "<p id=\"stim\">5</p>", "key_press": -1, "trial_type": "single-stim", "trial_index": 15, "time_elapsed": 484775, "internal_node_id": "0.0-10.0-5.0"}}, {"uniqueid": "MTK0231:3U5JL4WY5LGTCI9OVBBDHCXTQ1M4XF", "current_trial": 16, "dateTime": 1510673879311, "trialdata": {"rt": -1, "stimulus": "<p id=\"stim\">4</p>", "key_press": -1, "trial_type": "single-stim", "trial_index": 16, "time_elapsed": 485777, "internal_node_id": "0.0-10.0-6.0"}}, {"uniqueid": "MTK0231:3U5JL4WY5LGTCI9OVBBDHCXTQ1M4XF", "current_trial": 17, "dateTime": 1510673880312, "trialdata": {"rt": -1, "stimulus": "<p id=\"stim\">3</p>", "key_press": -1, "trial_type": "single-stim", "trial_index": 17, "time_elapsed": 486778, "internal_node_id": "0.0-10.0-7.0"}}, {"uniqueid": "MTK0231:3U5JL4WY5LGTCI9OVBBDHCXTQ1M4XF", "current_trial": 18, "dateTime": 1510673881316, "trialdata": {"rt": -1, "stimulus": "<p id=\"stim\">2</p>", "key_press": -1, "trial_type": "single-stim", "trial_index": 18, "time_elapsed": 487779, "internal_node_id": "0.0-10.0-8.0"}}, {"uniqueid": "MTK0231:3U5JL4WY5LGTCI9OVBBDHCXTQ1M4XF", "current_trial": 19, "dateTime": 1510673882318, "trialdata": {"rt": -1, "stimulus": "<p id=\"stim\">1</p>", "key_press": -1, "trial_type": "single-stim", "trial_index": 19, "time_elapsed": 488784, "internal_node_id": "0.0-10.0-9.0"}}, {"uniqueid": "MTK0231:3U5JL4WY5LGTCI9OVBBDHCXTQ1M4XF", "current_trial": 20, "dateTime": 1510673883820, "trialdata": {"rt": -1, "stimulus": "<p id=\"stim\">+</p>", "key_press": -1, "type": "FIXATION", "trial_type": "single-stim", "trial_index": 20, "time_elapsed": 490286, "internal_node_id": "0.0-11.0-0.0"}}, {"uniqueid": "MTK0231:3U5JL4WY5LGTCI9OVBBDHCXTQ1M4XF", "current_trial": 21, "dateTime": 1510673885022, "trialdata": {"rt": -1, "stimulus": "<p id=\"stim\">CANDY</p>", "key_press": -1, "type": "PRES_VIS", "word": "candy", "wordID": 229, "conditions": [18, 1200, "v", 18000], "trial": 0, "serialpos": 0, "trial_type": "single-stim", "trial_index": 21, "time_elapsed": 491488, "internal_node_id": "0.0-12.0"}}, {"uniqueid": "MTK0231:3U5JL4WY5LGTCI9OVBBDHCXTQ1M4XF", "current_trial": 22, "dateTime": 1510673887300, "trialdata": {"rt": -1, "stimulus": "<p id=\"stim\">ARMY</p>", "key_press": -1, "type": "PRES_VIS", "word": "army", "wordID": 38, "conditions": [18, 1200, "v", 18000], "trial": 0, "serialpos": 1, "trial_type": "single-stim", "trial_index": 22, "time_elapsed": 493766, "internal_node_id": "0.0-13.0"}}, {"uniqueid": "MTK0231:3U5JL4WY5LGTCI9OVBBDHCXTQ1M4XF", "current_trial": 23, "dateTime": 1510673889365, "trialdata": {"rt": -1, "stimulus": "<p id=\"stim\">RECORD</p>", "key_press": -1, "type": "PRES_VIS", "word": "record", "wordID": 1175, "conditions": [18, 1200, "v", 18000], "trial": 0, "serialpos": 2, "trial_type": "single-stim", "trial_index": 23, "time_elapsed": 495831, "internal_node_id": "0.0-14.0"}}, {"uniqueid": "MTK0231:3U5JL4WY5LGTCI9OVBBDHCXTQ1M4XF", "current_trial": 24, "dateTime": 1510673891675, "trialdata": {"rt": -1, "stimulus": "<p id=\"stim\">FARMER</p>", "key_press": -1, "type": "PRES_VIS", "word": "farmer", "wordID": 552, "conditions": [18, 1200, "v", 18000], "trial": 0, "serialpos": 3, "trial_type": "single-stim", "trial_index": 24, "time_elapsed": 498141, "internal_node_id": "0.0-15.0"}}, {"uniqueid": "MTK0231:3U5JL4WY5LGTCI9OVBBDHCXTQ1M4XF", "current_trial": 25, "dateTime": 1510673893805, "trialdata": {"rt": -1, "stimulus": "<p id=\"stim\">SIBLING</p>", "key_press": -1, "type": "PRES_VIS", "word": "sibling", "wordID": 1300, "conditions": [18, 1200, "v", 18000], "trial": 0, "serialpos": 4, "trial_type": "single-stim", "trial_index": 25, "time_elapsed": 500271, "internal_node_id": "0.0-16.0"}}, {"uniqueid": "MTK0231:3U5JL4WY5LGTCI9OVBBDHCXTQ1M4XF", "current_trial": 26, "dateTime": 1510673896147, "trialdata": {"rt": -1, "stimulus": "<p id=\"stim\">UNCLE</p>", "key_press": -1, "type": "PRES_VIS", "word": "uncle", "wordID": 1535, "conditions": [18, 1200, "v", 18000], "trial": 0, "serialpos": 5, "trial_type": "single-stim", "trial_index": 26, "time_elapsed": 502613, "internal_node_id": "0.0-17.0"}}, {"uniqueid": "MTK0231:3U5JL4WY5LGTCI9OVBBDHCXTQ1M4XF", "current_trial": 27, "dateTime": 1510673898254, "trialdata": {"rt": -1, "stimulus": "<p id=\"stim\">HAMPER</p>", "key_press": -1, "type": "PRES_VIS", "word": "hamper", "wordID": 681, "conditions": [18, 1200, "v", 18000], "trial": 0, "serialpos": 6, "trial_type": "single-stim", "trial_index": 27, "time_elapsed": 504720, "internal_node_id": "0.0-18.0"}}, {"uniqueid": "MTK0231:3U5JL4WY5LGTCI9OVBBDHCXTQ1M4XF", "current_trial": 28, "dateTime": 1510673900611, "trialdata": {"rt": -1, "stimulus": "<p id=\"stim\">PADDING</p>", "key_press": -1, "type": "PRES_VIS", "word": "padding", "wordID": 998, "conditions": [18, 1200, "v", 18000], "trial": 0, "serialpos": 7, "trial_type": "single-stim", "trial_index": 28, "time_elapsed": 507077, "internal_node_id": "0.0-19.0"}}, {"uniqueid": "MTK0231:3U5JL4WY5LGTCI9OVBBDHCXTQ1M4XF", "current_trial": 29, "dateTime": 1510673902637, "trialdata": {"rt": -1, "stimulus": "<p id=\"stim\">DONOR</p>", "key_press": -1, "type": "PRES_VIS", "word": "donor", "wordID": 484, "conditions": [18, 1200, "v", 18000], "trial": 0, "serialpos": 8, "trial_type": "single-stim", "trial_index": 29, "time_elapsed": 509103, "internal_node_id": "0.0-20.0"}}, {"uniqueid": "MTK0231:3U5JL4WY5LGTCI9OVBBDHCXTQ1M4XF", "current_trial": 30, "dateTime": 1510673904907, "trialdata": {"rt": -1, "stimulus": "<p id=\"stim\">NOTEBOOK</p>", "key_press": -1, "type": "PRES_VIS", "word": "notebook", "wordID": 958, "conditions": [18, 1200, "v", 18000], "trial": 0, "serialpos": 9, "trial_type": "single-stim", "trial_index": 30, "time_elapsed": 511373, "internal_node_id": "0.0-21.0"}}, {"uniqueid": "MTK0231:3U5JL4WY5LGTCI9OVBBDHCXTQ1M4XF", "current_trial": 31, "dateTime": 1510673907245, "trialdata": {"rt": -1, "stimulus": "<p id=\"stim\">SALMON</p>", "key_press": -1, "type": "PRES_VIS", "word": "salmon", "wordID": 1226, "conditions": [18, 1200, "v", 18000], "trial": 0, "serialpos": 10, "trial_type": "single-stim", "trial_index": 31, "time_elapsed": 513711, "internal_node_id": "0.0-22.0"}}, {"uniqueid": "MTK0231:3U5JL4WY5LGTCI9OVBBDHCXTQ1M4XF", "current_trial": 32, "dateTime": 1510673909264, "trialdata": {"rt": -1, "stimulus": "<p id=\"stim\">FOOT</p>", "key_press": -1, "type": "PRES_VIS", "word": "foot", "wordID": 589, "conditions": [18, 1200, "v", 18000], "trial": 0, "serialpos": 11, "trial_type": "single-stim", "trial_index": 32, "time_elapsed": 515730, "internal_node_id": "0.0-23.0"}}, {"uniqueid": "MTK0231:3U5JL4WY5LGTCI9OVBBDHCXTQ1M4XF", "current_trial": 33, "dateTime": 1510673911624, "trialdata": {"rt": -1, "stimulus": "<p id=\"stim\">BANK</p>", "key_press": -1, "type": "PRES_VIS", "word": "bank", "wordID": 82, "conditions": [18, 1200, "v", 18000], "trial": 0, "serialpos": 12, "trial_type": "single-stim", "trial_index": 33, "time_elapsed": 518090, "internal_node_id": "0.0-24.0"}}, {"uniqueid": "MTK0231:3U5JL4WY5LGTCI9OVBBDHCXTQ1M4XF", "current_trial": 34, "dateTime": 1510673913654, "trialdata": {"rt": -1, "stimulus": "<p id=\"stim\">VICTIM</p>", "key_press": -1, "type": "PRES_VIS", "word": "victim", "wordID": 1561, "conditions": [18, 1200, "v", 18000], "trial": 0, "serialpos": 13, "trial_type": "single-stim", "trial_index": 34, "time_elapsed": 520120, "internal_node_id": "0.0-25.0"}}, {"uniqueid": "MTK0231:3U5JL4WY5LGTCI9OVBBDHCXTQ1M4XF", "current_trial": 35, "dateTime": 1510673915663, "trialdata": {"rt": -1, "stimulus": "<p id=\"stim\">PIANO</p>", "key_press": -1, "type": "PRES_VIS", "word": "piano", "wordID": 1056, "conditions": [18, 1200, "v", 18000], "trial": 0, "serialpos": 14, "trial_type": "single-stim", "trial_index": 35, "time_elapsed": 522129, "internal_node_id": "0.0-26.0"}}, {"uniqueid": "MTK0231:3U5JL4WY5LGTCI9OVBBDHCXTQ1M4XF", "current_trial": 36, "dateTime": 1510673917680, "trialdata": {"rt": -1, "stimulus": "<p id=\"stim\">ROD</p>", "key_press": -1, "type": "PRES_VIS", "word": "rod", "wordID": 1202, "conditions": [18, 1200, "v", 18000], "trial": 0, "serialpos": 15, "trial_type": "single-stim", "trial_index": 36, "time_elapsed": 524146, "internal_node_id": "0.0-27.0"}}, {"uniqueid": "MTK0231:3U5JL4WY5LGTCI9OVBBDHCXTQ1M4XF", "current_trial": 37, "dateTime": 1510673920000, "trialdata": {"rt": -1, "stimulus": "<p id=\"stim\">CARROT</p>", "key_press": -1, "type": "PRES_VIS", "word": "carrot", "wordID": 248, "conditions": [18, 1200, "v", 18000], "trial": 0, "serialpos": 16, "trial_type": "single-stim", "trial_index": 37, "time_elapsed": 526466, "internal_node_id": "0.0-28.0"}}, {"uniqueid": "MTK0231:3U5JL4WY5LGTCI9OVBBDHCXTQ1M4XF", "current_trial": 38, "dateTime": 1510673922295, "trialdata": {"rt": -1, "stimulus": "<p id=\"stim\">CREVICE</p>", "key_press": -1, "type": "PRES_VIS", "word": "crevice", "wordID": 404, "conditions": [18, 1200, "v", 18000], "trial": 0, "serialpos": 17, "trial_type": "single-stim", "trial_index": 38, "time_elapsed": 528760, "internal_node_id": "0.0-29.0"}}, {"uniqueid": "MTK0231:3U5JL4WY5LGTCI9OVBBDHCXTQ1M4XF", "current_trial": 39, "dateTime": 1510673924542, "trialdata": {"rt": -1, "stimulus": "", "key_press": -1, "type": "PRE_RECALL_DELAY", "trial_type": "single-stim", "trial_index": 39, "time_elapsed": 531008, "internal_node_id": "0.0-30.0-0.0"}}, {"uniqueid": "MTK0231:3U5JL4WY5LGTCI9OVBBDHCXTQ1M4XF", "current_trial": 40, "dateTime": 1510673925046, "trialdata": {"rt": -1000, "stimulus": "/static/audio/400Hz.wav", "key_press": -1, "type": "PRE_RECALL_ALERT", "trial_type": "single-audio", "trial_index": 40, "time_elapsed": 531511, "internal_node_id": "0.0-31.0"}}, {"uniqueid": "MTK0231:3U5JL4WY5LGTCI9OVBBDHCXTQ1M4XF", "current_trial": 41, "dateTime": 1510673985059, "trialdata": {"rt": [4496, 7569, 11656, 14248, 18872, 23573, 25641, 28264, 29912, 32239, 34855, 39326, 42878, 47022, 51206, 57959], "recwords": ["candy", "army", "farmer", "hamper", "salmon", "notebook", "foot", "victom", "bank", "rod", "carrot", "sibbling", "padding", "piano", "record", "donor"], "type": "FREE_RECALL", "conditions": [18, 1200, "v", 18000], "trial": 0, "trial_type": "free-recall", "trial_index": 41, "time_elapsed": 591518, "internal_node_id": "0.0-32.0-0.0"}}, {"uniqueid": "MTK0231:3U5JL4WY5LGTCI9OVBBDHCXTQ1M4XF", "current_trial": 42, "dateTime": 1510673989289, "trialdata": {"rt": 2228, "key_press": 32, "type": "INSTRUCTIONS", "trial_type": "text", "trial_index": 42, "time_elapsed": 595755, "internal_node_id": "0.0-33.0"}}, {"uniqueid": "MTK0231:3U5JL4WY5LGTCI9OVBBDHCXTQ1M4XF", "current_trial": 43, "dateTime": 1510674009292, "trialdata": {"rt": [3734, 5933, 8636, 11620, 13319, 15396, 17020], "responses": ["17", "7", "20", "16", "16", "9", "9"], "num1": [5, 2, 6, 5, 7, 2, 1, 6], "num2": [4, 3, 5, 4, 1, 2, 2, 9], "num3": [8, 2, 7, 7, 8, 5, 7, 1], "type": "DISTRACTOR", "conditions": [18, 1200, "a", 18000], "trial": 1, "trial_type": "math-distractor", "trial_index": 43, "time_elapsed": 615758, "internal_node_id": "0.0-34.0"}}, {"uniqueid": "MTK0231:3U5JL4WY5LGTCI9OVBBDHCXTQ1M4XF", "current_trial": 44, "dateTime": 1510674012293, "trialdata": {"rt": -1, "stimulus": "<p id=\"stim\">10</p>", "key_press": -1, "trial_type": "single-stim", "trial_index": 44, "time_elapsed": 618759, "internal_node_id": "0.0-35.0-0.0"}}, {"uniqueid": "MTK0231:3U5JL4WY5LGTCI9OVBBDHCXTQ1M4XF", "current_trial": 45, "dateTime": 1510674013295, "trialdata": {"rt": -1, "stimulus": "<p id=\"stim\">9</p>", "key_press": -1, "trial_type": "single-stim", "trial_index": 45, "time_elapsed": 619761, "internal_node_id": "0.0-35.0-1.0"}}, {"uniqueid": "MTK0231:3U5JL4WY5LGTCI9OVBBDHCXTQ1M4XF", "current_trial": 46, "dateTime": 1510674014298, "trialdata": {"rt": -1, "stimulus": "<p id=\"stim\">8</p>", "key_press": -1, "trial_type": "single-stim", "trial_index": 46, "time_elapsed": 620763, "internal_node_id": "0.0-35.0-2.0"}}, {"uniqueid": "MTK0231:3U5JL4WY5LGTCI9OVBBDHCXTQ1M4XF", "current_trial": 47, "dateTime": 1510674015299, "trialdata": {"rt": -1, "stimulus": "<p id=\"stim\">7</p>", "key_press": -1, "trial_type": "single-stim", "trial_index": 47, "time_elapsed": 621765, "internal_node_id": "0.0-35.0-3.0"}}, {"uniqueid": "MTK0231:3U5JL4WY5LGTCI9OVBBDHCXTQ1M4XF", "current_trial": 48, "dateTime": 1510674016301, "trialdata": {"rt": -1, "stimulus": "<p id=\"stim\">6</p>", "key_press": -1, "trial_type": "single-stim", "trial_index": 48, "time_elapsed": 622767, "internal_node_id": "0.0-35.0-4.0"}}, {"uniqueid": "MTK0231:3U5JL4WY5LGTCI9OVBBDHCXTQ1M4XF", "current_trial": 49, "dateTime": 1510674017303, "trialdata": {"rt": -1, "stimulus": "<p id=\"stim\">5</p>", "key_press": -1, "trial_type": "single-stim", "trial_index": 49, "time_elapsed": 623769, "internal_node_id": "0.0-35.0-5.0"}}, {"uniqueid": "MTK0231:3U5JL4WY5LGTCI9OVBBDHCXTQ1M4XF", "current_trial": 50, "dateTime": 1510674018305, "trialdata": {"rt": -1, "stimulus": "<p id=\"stim\">4</p>", "key_press": -1, "trial_type": "single-stim", "trial_index": 50, "time_elapsed": 624771, "internal_node_id": "0.0-35.0-6.0"}}, {"uniqueid": "MTK0231:3U5JL4WY5LGTCI9OVBBDHCXTQ1M4XF", "current_trial": 51, "dateTime": 1510674019307, "trialdata": {"rt": -1, "stimulus": "<p id=\"stim\">3</p>", "key_press": -1, "trial_type": "single-stim", "trial_index": 51, "time_elapsed": 625773, "internal_node_id": "0.0-35.0-7.0"}}, {"uniqueid": "MTK0231:3U5JL4WY5LGTCI9OVBBDHCXTQ1M4XF", "current_trial": 52, "dateTime": 1510674020309, "trialdata": {"rt": -1, "stimulus": "<p id=\"stim\">2</p>", "key_press": -1, "trial_type": "single-stim", "trial_index": 52, "time_elapsed": 626775, "internal_node_id": "0.0-35.0-8.0"}}, {"uniqueid": "MTK0231:3U5JL4WY5LGTCI9OVBBDHCXTQ1M4XF", "current_trial": 53, "dateTime": 1510674021311, "trialdata": {"rt": -1, "stimulus": "<p id=\"stim\">1</p>", "key_press": -1, "trial_type": "single-stim", "trial_index": 53, "time_elapsed": 627777, "internal_node_id": "0.0-35.0-9.0"}}, {"uniqueid": "MTK0231:3U5JL4WY5LGTCI9OVBBDHCXTQ1M4XF", "current_trial": 54, "dateTime": 1510674022812, "trialdata": {"rt": -1, "stimulus": "<p id=\"stim\">+</p>", "key_press": -1, "type": "FIXATION", "trial_type": "single-stim", "trial_index": 54, "time_elapsed": 629278, "internal_node_id": "0.0-36.0-0.0"}}, {"uniqueid": "MTK0231:3U5JL4WY5LGTCI9OVBBDHCXTQ1M4XF", "current_trial": 55, "dateTime": 1510674025042, "trialdata": {"rt": -1000, "stimulus": "/static/audio/wordpool/CATCHER.wav", "key_press": -1, "type": "PRES_AUD", "word": "catcher", "wordID": 257, "conditions": [18, 1200, "a", 18000], "trial": 1, "serialpos": 0, "trial_type": "single-audio", "trial_index": 55, "time_elapsed": 631508, "internal_node_id": "0.0-37.0"}}, {"uniqueid": "MTK0231:3U5JL4WY5LGTCI9OVBBDHCXTQ1M4XF", "current_trial": 56, "dateTime": 1510674027152, "trialdata": {"rt": -1000, "stimulus": "/static/audio/wordpool/BLADE.wav", "key_press": -1, "type": "PRES_AUD", "word": "blade", "wordID": 133, "conditions": [18, 1200, "a", 18000], "trial": 1, "serialpos": 1, "trial_type": "single-audio", "trial_index": 56, "time_elapsed": 633618, "internal_node_id": "0.0-38.0"}}, {"uniqueid": "MTK0231:3U5JL4WY5LGTCI9OVBBDHCXTQ1M4XF", "current_trial": 57, "dateTime": 1510674029443, "trialdata": {"rt": -1000, "stimulus": "/static/audio/wordpool/MONSTER.wav", "key_press": -1, "type": "PRES_AUD", "word": "monster", "wordID": 911, "conditions": [18, 1200, "a", 18000], "trial": 1, "serialpos": 2, "trial_type": "single-audio", "trial_index": 57, "time_elapsed": 635908, "internal_node_id": "0.0-39.0"}}, {"uniqueid": "MTK0231:3U5JL4WY5LGTCI9OVBBDHCXTQ1M4XF", "current_trial": 58, "dateTime": 1510674031530, "trialdata": {"rt": -1000, "stimulus": "/static/audio/wordpool/GUITAR.wav", "key_press": -1, "type": "PRES_AUD", "word": "guitar", "wordID": 669, "conditions": [18, 1200, "a", 18000], "trial": 1, "serialpos": 3, "trial_type": "single-audio", "trial_index": 58, "time_elapsed": 637995, "internal_node_id": "0.0-40.0"}}, {"uniqueid": "MTK0231:3U5JL4WY5LGTCI9OVBBDHCXTQ1M4XF", "current_trial": 59, "dateTime": 1510674033607, "trialdata": {"rt": -1000, "stimulus": "/static/audio/wordpool/PLATE.wav", "key_press": -1, "type": "PRES_AUD", "word": "plate", "wordID": 1085, "conditions": [18, 1200, "a", 18000], "trial": 1, "serialpos": 4, "trial_type": "single-audio", "trial_index": 59, "time_elapsed": 640073, "internal_node_id": "0.0-41.0"}}, {"uniqueid": "MTK0231:3U5JL4WY5LGTCI9OVBBDHCXTQ1M4XF", "current_trial": 60, "dateTime": 1510674035995, "trialdata": {"rt": -1000, "stimulus": "/static/audio/wordpool/CAFE.wav", "key_press": -1, "type": "PRES_AUD", "word": "cafe", "wordID": 215, "conditions": [18, 1200, "a", 18000], "trial": 1, "serialpos": 5, "trial_type": "single-audio", "trial_index": 60, "time_elapsed": 642460, "internal_node_id": "0.0-42.0"}}, {"uniqueid": "MTK0231:3U5JL4WY5LGTCI9OVBBDHCXTQ1M4XF", "current_trial": 61, "dateTime": 1510674038021, "trialdata": {"rt": -1000, "stimulus": "/static/audio/wordpool/DRUG.wav", "key_press": -1, "type": "PRES_AUD", "word": "drug", "wordID": 500, "conditions": [18, 1200, "a", 18000], "trial": 1, "serialpos": 6, "trial_type": "single-audio", "trial_index": 61, "time_elapsed": 644486, "internal_node_id": "0.0-43.0"}}, {"uniqueid": "MTK0231:3U5JL4WY5LGTCI9OVBBDHCXTQ1M4XF", "current_trial": 62, "dateTime": 1510674040087, "trialdata": {"rt": -1000, "stimulus": "/static/audio/wordpool/LADY.wav", "key_press": -1, "type": "PRES_AUD", "word": "lady", "wordID": 793, "conditions": [18, 1200, "a", 18000], "trial": 1, "serialpos": 7, "trial_type": "single-audio", "trial_index": 62, "time_elapsed": 646553, "internal_node_id": "0.0-44.0"}}, {"uniqueid": "MTK0231:3U5JL4WY5LGTCI9OVBBDHCXTQ1M4XF", "current_trial": 63, "dateTime": 1510674042356, "trialdata": {"rt": -1000, "stimulus": "/static/audio/wordpool/CHEMIST.wav", "key_press": -1, "type": "PRES_AUD", "word": "chemist", "wordID": 291, "conditions": [18, 1200, "a", 18000], "trial": 1, "serialpos": 8, "trial_type": "single-audio", "trial_index": 63, "time_elapsed": 648821, "internal_node_id": "0.0-45.0"}}, {"uniqueid": "MTK0231:3U5JL4WY5LGTCI9OVBBDHCXTQ1M4XF", "current_trial": 64, "dateTime": 1510674044550, "trialdata": {"rt": -1000, "stimulus": "/static/audio/wordpool/TOURIST.wav", "key_press": -1, "type": "PRES_AUD", "word": "tourist", "wordID": 1487, "conditions": [18, 1200, "a", 18000], "trial": 1, "serialpos": 9, "trial_type": "single-audio", "trial_index": 64, "time_elapsed": 651015, "internal_node_id": "0.0-46.0"}}, {"uniqueid": "MTK0231:3U5JL4WY5LGTCI9OVBBDHCXTQ1M4XF", "current_trial": 65, "dateTime": 1510674046582, "trialdata": {"rt": -1000, "stimulus": "/static/audio/wordpool/LEG.wav", "key_press": -1, "type": "PRES_AUD", "word": "leg", "wordID": 808, "conditions": [18, 1200, "a", 18000], "trial": 1, "serialpos": 10, "trial_type": "single-audio", "trial_index": 65, "time_elapsed": 653047, "internal_node_id": "0.0-47.0"}}, {"uniqueid": "MTK0231:3U5JL4WY5LGTCI9OVBBDHCXTQ1M4XF", "current_trial": 66, "dateTime": 1510674048688, "trialdata": {"rt": -1000, "stimulus": "/static/audio/wordpool/STAR.wav", "key_press": -1, "type": "PRES_AUD", "word": "star", "wordID": 1372, "conditions": [18, 1200, "a", 18000], "trial": 1, "serialpos": 11, "trial_type": "single-audio", "trial_index": 66, "time_elapsed": 655153, "internal_node_id": "0.0-48.0"}}, {"uniqueid": "MTK0231:3U5JL4WY5LGTCI9OVBBDHCXTQ1M4XF", "current_trial": 67, "dateTime": 1510674050913, "trialdata": {"rt": -1000, "stimulus": "/static/audio/wordpool/COSTUME.wav", "key_press": -1, "type": "PRES_AUD", "word": "costume", "wordID": 382, "conditions": [18, 1200, "a", 18000], "trial": 1, "serialpos": 12, "trial_type": "single-audio", "trial_index": 67, "time_elapsed": 657378, "internal_node_id": "0.0-49.0"}}, {"uniqueid": "MTK0231:3U5JL4WY5LGTCI9OVBBDHCXTQ1M4XF", "current_trial": 68, "dateTime": 1510674052969, "trialdata": {"rt": -1000, "stimulus": "/static/audio/wordpool/PLAYGROUND.wav", "key_press": -1, "type": "PRES_AUD", "word": "playground", "wordID": 1086, "conditions": [18, 1200, "a", 18000], "trial": 1, "serialpos": 13, "trial_type": "single-audio", "trial_index": 68, "time_elapsed": 659429, "internal_node_id": "0.0-50.0"}}, {"uniqueid": "MTK0231:3U5JL4WY5LGTCI9OVBBDHCXTQ1M4XF", "current_trial": 69, "dateTime": 1510674055139, "trialdata": {"rt": -1000, "stimulus": "/static/audio/wordpool/PIGEON.wav", "key_press": -1, "type": "PRES_AUD", "word": "pigeon", "wordID": 1064, "conditions": [18, 1200, "a", 18000], "trial": 1, "serialpos": 14, "trial_type": "single-audio", "trial_index": 69, "time_elapsed": 661604, "internal_node_id": "0.0-51.0"}}, {"uniqueid": "MTK0231:3U5JL4WY5LGTCI9OVBBDHCXTQ1M4XF", "current_trial": 70, "dateTime": 1510674057376, "trialdata": {"rt": -1000, "stimulus": "/static/audio/wordpool/IGLOO.wav", "key_press": -1, "type": "PRES_AUD", "word": "igloo", "wordID": 733, "conditions": [18, 1200, "a", 18000], "trial": 1, "serialpos": 15, "trial_type": "single-audio", "trial_index": 70, "time_elapsed": 663841, "internal_node_id": "0.0-52.0"}}, {"uniqueid": "MTK0231:3U5JL4WY5LGTCI9OVBBDHCXTQ1M4XF", "current_trial": 71, "dateTime": 1510674059599, "trialdata": {"rt": -1000, "stimulus": "/static/audio/wordpool/CASHIER.wav", "key_press": -1, "type": "PRES_AUD", "word": "cashier", "wordID": 253, "conditions": [18, 1200, "a", 18000], "trial": 1, "serialpos": 16, "trial_type": "single-audio", "trial_index": 71, "time_elapsed": 666064, "internal_node_id": "0.0-53.0"}}, {"uniqueid": "MTK0231:3U5JL4WY5LGTCI9OVBBDHCXTQ1M4XF", "current_trial": 72, "dateTime": 1510674061734, "trialdata": {"rt": -1000, "stimulus": "/static/audio/wordpool/BUTCHER.wav", "key_press": -1, "type": "PRES_AUD", "word": "butcher", "wordID": 202, "conditions": [18, 1200, "a", 18000], "trial": 1, "serialpos": 17, "trial_type": "single-audio", "trial_index": 72, "time_elapsed": 668200, "internal_node_id": "0.0-54.0"}}, {"uniqueid": "MTK0231:3U5JL4WY5LGTCI9OVBBDHCXTQ1M4XF", "current_trial": 73, "dateTime": 1510674062975, "trialdata": {"rt": -1, "stimulus": "", "key_press": -1, "type": "PRE_RECALL_DELAY", "trial_type": "single-stim", "trial_index": 73, "time_elapsed": 669441, "internal_node_id": "0.0-55.0-0.0"}}, {"uniqueid": "MTK0231:3U5JL4WY5LGTCI9OVBBDHCXTQ1M4XF", "current_trial": 74, "dateTime": 1510674063477, "trialdata": {"rt": -1000, "stimulus": "/static/audio/400Hz.wav", "key_press": -1, "type": "PRE_RECALL_ALERT", "trial_type": "single-audio", "trial_index": 74, "time_elapsed": 669943, "internal_node_id": "0.0-56.0"}}, {"uniqueid": "MTK0231:3U5JL4WY5LGTCI9OVBBDHCXTQ1M4XF", "current_trial": 75, "dateTime": 1510674124372, "trialdata": {"rt": [4682, 6506, 9913, 14474, 18545, 23491, 25809, 27975, 31168, 34065, 36008, 40560, 49704], "recwords": ["monster", "drug", "eagle", "costume", "playground", "terrorist", "star", "lady", "guitar", "drug", "clay", "chemist", "costume"], "type": "FREE_RECALL", "conditions": [18, 1200, "a", 18000], "trial": 1, "trial_type": "free-recall", "trial_index": 75, "time_elapsed": 730832, "internal_node_id": "0.0-57.0-0.0"}}, {"uniqueid": "MTK0231:3U5JL4WY5LGTCI9OVBBDHCXTQ1M4XF", "current_trial": 76, "dateTime": 1510674227104, "trialdata": {"rt": 100721, "key_press": 32, "type": "INSTRUCTIONS", "trial_type": "text", "trial_index": 76, "time_elapsed": 833560, "internal_node_id": "0.0-58.0"}}, {"uniqueid": "MTK0231:3U5JL4WY5LGTCI9OVBBDHCXTQ1M4XF", "current_trial": 77, "dateTime": 1510674240106, "trialdata": {"rt": [3183, 5431, 7184, 9210, 11279], "responses": ["18", "11", "18", "11", "13"], "num1": [6, 4, 2, 2, 9, 7], "num2": [6, 1, 8, 7, 2, 2], "num3": [6, 6, 8, 2, 2, 1], "type": "DISTRACTOR", "conditions": [12, 1600, "a", 12000], "trial": 2, "trial_type": "math-distractor", "trial_index": 77, "time_elapsed": 846572, "internal_node_id": "0.0-59.0"}}, {"uniqueid": "MTK0231:3U5JL4WY5LGTCI9OVBBDHCXTQ1M4XF", "current_trial": 78, "dateTime": 1510674243107, "trialdata": {"rt": -1, "stimulus": "<p id=\"stim\">10</p>", "key_press": -1, "trial_type": "single-stim", "trial_index": 78, "time_elapsed": 849573, "internal_node_id": "0.0-60.0-0.0"}}, {"uniqueid": "MTK0231:3U5JL4WY5LGTCI9OVBBDHCXTQ1M4XF", "current_trial": 79, "dateTime": 1510674244108, "trialdata": {"rt": -1, "stimulus": "<p id=\"stim\">9</p>", "key_press": -1, "trial_type": "single-stim", "trial_index": 79, "time_elapsed": 850574, "internal_node_id": "0.0-60.0-1.0"}}, {"uniqueid": "MTK0231:3U5JL4WY5LGTCI9OVBBDHCXTQ1M4XF", "current_trial": 80, "dateTime": 1510674245109, "trialdata": {"rt": -1, "stimulus": "<p id=\"stim\">8</p>", "key_press": -1, "trial_type": "single-stim", "trial_index": 80, "time_elapsed": 851575, "internal_node_id": "0.0-60.0-2.0"}}, {"uniqueid": "MTK0231:3U5JL4WY5LGTCI9OVBBDHCXTQ1M4XF", "current_trial": 81, "dateTime": 1510674246112, "trialdata": {"rt": -1, "stimulus": "<p id=\"stim\">7</p>", "key_press": -1, "trial_type": "single-stim", "trial_index": 81, "time_elapsed": 852577, "internal_node_id": "0.0-60.0-3.0"}}, {"uniqueid": "MTK0231:3U5JL4WY5LGTCI9OVBBDHCXTQ1M4XF", "current_trial": 82, "dateTime": 1510674247117, "trialdata": {"rt": -1, "stimulus": "<p id=\"stim\">6</p>", "key_press": -1, "trial_type": "single-stim", "trial_index": 82, "time_elapsed": 853579, "internal_node_id": "0.0-60.0-4.0"}}, {"uniqueid": "MTK0231:3U5JL4WY5LGTCI9OVBBDHCXTQ1M4XF", "current_trial": 83, "dateTime": 1510674248119, "trialdata": {"rt": -1, "stimulus": "<p id=\"stim\">5</p>", "key_press": -1, "trial_type": "single-stim", "trial_index": 83, "time_elapsed": 854585, "internal_node_id": "0.0-60.0-5.0"}}, {"uniqueid": "MTK0231:3U5JL4WY5LGTCI9OVBBDHCXTQ1M4XF", "current_trial": 84, "dateTime": 1510674249122, "trialdata": {"rt": -1, "stimulus": "<p id=\"stim\">4</p>", "key_press": -1, "trial_type": "single-stim", "trial_index": 84, "time_elapsed": 855588, "internal_node_id": "0.0-60.0-6.0"}}, {"uniqueid": "MTK0231:3U5JL4WY5LGTCI9OVBBDHCXTQ1M4XF", "current_trial": 85, "dateTime": 1510674250123, "trialdata": {"rt": -1, "stimulus": "<p id=\"stim\">3</p>", "key_press": -1, "trial_type": "single-stim", "trial_index": 85, "time_elapsed": 856589, "internal_node_id": "0.0-60.0-7.0"}}, {"uniqueid": "MTK0231:3U5JL4WY5LGTCI9OVBBDHCXTQ1M4XF", "current_trial": 86, "dateTime": 1510674251124, "trialdata": {"rt": -1, "stimulus": "<p id=\"stim\">2</p>", "key_press": -1, "trial_type": "single-stim", "trial_index": 86, "time_elapsed": 857590, "internal_node_id": "0.0-60.0-8.0"}}, {"uniqueid": "MTK0231:3U5JL4WY5LGTCI9OVBBDHCXTQ1M4XF", "current_trial": 87, "dateTime": 1510674252126, "trialdata": {"rt": -1, "stimulus": "<p id=\"stim\">1</p>", "key_press": -1, "trial_type": "single-stim", "trial_index": 87, "time_elapsed": 858592, "internal_node_id": "0.0-60.0-9.0"}}, {"uniqueid": "MTK0231:3U5JL4WY5LGTCI9OVBBDHCXTQ1M4XF", "current_trial": 88, "dateTime": 1510674253628, "trialdata": {"rt": -1, "stimulus": "<p id=\"stim\">+</p>", "key_press": -1, "type": "FIXATION", "trial_type": "single-stim", "trial_index": 88, "time_elapsed": 860093, "internal_node_id": "0.0-61.0-0.0"}}, {"uniqueid": "MTK0231:3U5JL4WY5LGTCI9OVBBDHCXTQ1M4XF", "current_trial": 89, "dateTime": 1510674256394, "trialdata": {"rt": -1000, "stimulus": "/static/audio/wordpool/SKILLET.wav", "key_press": -1, "type": "PRES_AUD", "word": "skillet", "wordID": 1316, "conditions": [12, 1600, "a", 12000], "trial": 2, "serialpos": 0, "trial_type": "single-audio", "trial_index": 89, "time_elapsed": 862859, "internal_node_id": "0.0-62.0"}}, {"uniqueid": "MTK0231:3U5JL4WY5LGTCI9OVBBDHCXTQ1M4XF", "current_trial": 90, "dateTime": 1510674258951, "trialdata": {"rt": -1000, "stimulus": "/static/audio/wordpool/GIRL.wav", "key_press": -1, "type": "PRES_AUD", "word": "girl", "wordID": 636, "conditions": [12, 1600, "a", 12000], "trial": 2, "serialpos": 1, "trial_type": "single-audio", "trial_index": 90, "time_elapsed": 865416, "internal_node_id": "0.0-63.0"}}, {"uniqueid": "MTK0231:3U5JL4WY5LGTCI9OVBBDHCXTQ1M4XF", "current_trial": 91, "dateTime": 1510674261550, "trialdata": {"rt": -1000, "stimulus": "/static/audio/wordpool/LETTUCE.wav", "key_press": -1, "type": "PRES_AUD", "word": "lettuce", "wordID": 813, "conditions": [12, 1600, "a", 12000], "trial": 2, "serialpos": 2, "trial_type": "single-audio", "trial_index": 91, "time_elapsed": 868015, "internal_node_id": "0.0-64.0"}}, {"uniqueid": "MTK0231:3U5JL4WY5LGTCI9OVBBDHCXTQ1M4XF", "current_trial": 92, "dateTime": 1510674264042, "trialdata": {"rt": -1000, "stimulus": "/static/audio/wordpool/FOX.wav", "key_press": -1, "type": "PRES_AUD", "word": "fox", "wordID": 597, "conditions": [12, 1600, "a", 12000], "trial": 2, "serialpos": 3, "trial_type": "single-audio", "trial_index": 92, "time_elapsed": 870507, "internal_node_id": "0.0-65.0"}}, {"uniqueid": "MTK0231:3U5JL4WY5LGTCI9OVBBDHCXTQ1M4XF", "current_trial": 93, "dateTime": 1510674266641, "trialdata": {"rt": -1000, "stimulus": "/static/audio/wordpool/CHILD.wav", "key_press": -1, "type": "PRES_AUD", "word": "child", "wordID": 298, "conditions": [12, 1600, "a", 12000], "trial": 2, "serialpos": 4, "trial_type": "single-audio", "trial_index": 93, "time_elapsed": 873106, "internal_node_id": "0.0-66.0"}}, {"uniqueid": "MTK0231:3U5JL4WY5LGTCI9OVBBDHCXTQ1M4XF", "current_trial": 94, "dateTime": 1510674269294, "trialdata": {"rt": -1000, "stimulus": "/static/audio/wordpool/LIZARD.wav", "key_press": -1, "type": "PRES_AUD", "word": "lizard", "wordID": 833, "conditions": [12, 1600, "a", 12000], "trial": 2, "serialpos": 5, "trial_type": "single-audio", "trial_index": 94, "time_elapsed": 875759, "internal_node_id": "0.0-67.0"}}, {"uniqueid": "MTK0231:3U5JL4WY5LGTCI9OVBBDHCXTQ1M4XF", "current_trial": 95, "dateTime": 1510674271842, "trialdata": {"rt": -1000, "stimulus": "/static/audio/wordpool/SNAIL.wav", "key_press": -1, "type": "PRES_AUD", "word": "snail", "wordID": 1331, "conditions": [12, 1600, "a", 12000], "trial": 2, "serialpos": 6, "trial_type": "single-audio", "trial_index": 95, "time_elapsed": 878307, "internal_node_id": "0.0-68.0"}}, {"uniqueid": "MTK0231:3U5JL4WY5LGTCI9OVBBDHCXTQ1M4XF", "current_trial": 96, "dateTime": 1510674274298, "trialdata": {"rt": -1000, "stimulus": "/static/audio/wordpool/SPONGE.wav", "key_press": -1, "type": "PRES_AUD", "word": "sponge", "wordID": 1354, "conditions": [12, 1600, "a", 12000], "trial": 2, "serialpos": 7, "trial_type": "single-audio", "trial_index": 96, "time_elapsed": 880764, "internal_node_id": "0.0-69.0"}}, {"uniqueid": "MTK0231:3U5JL4WY5LGTCI9OVBBDHCXTQ1M4XF", "current_trial": 97, "dateTime": 1510674276961, "trialdata": {"rt": -1000, "stimulus": "/static/audio/wordpool/QUAIL.wav", "key_press": -1, "type": "PRES_AUD", "word": "quail", "wordID": 1146, "conditions": [12, 1600, "a", 12000], "trial": 2, "serialpos": 8, "trial_type": "single-audio", "trial_index": 97, "time_elapsed": 883426, "internal_node_id": "0.0-70.0"}}, {"uniqueid": "MTK0231:3U5JL4WY5LGTCI9OVBBDHCXTQ1M4XF", "current_trial": 98, "dateTime": 1510674279490, "trialdata": {"rt": -1000, "stimulus": "/static/audio/wordpool/COFFEE.wav", "key_press": -1, "type": "PRES_AUD", "word": "coffee", "wordID": 340, "conditions": [12, 1600, "a", 12000], "trial": 2, "serialpos": 9, "trial_type": "single-audio", "trial_index": 98, "time_elapsed": 885955, "internal_node_id": "0.0-71.0"}}, {"uniqueid": "MTK0231:3U5JL4WY5LGTCI9OVBBDHCXTQ1M4XF", "current_trial": 99, "dateTime": 1510674282249, "trialdata": {"rt": -1000, "stimulus": "/static/audio/wordpool/EMPIRE.wav", "key_press": -1, "type": "PRES_AUD", "word": "empire", "wordID": 529, "conditions": [12, 1600, "a", 12000], "trial": 2, "serialpos": 10, "trial_type": "single-audio", "trial_index": 99, "time_elapsed": 888714, "internal_node_id": "0.0-72.0"}}, {"uniqueid": "MTK0231:3U5JL4WY5LGTCI9OVBBDHCXTQ1M4XF", "current_trial": 100, "dateTime": 1510674284708, "trialdata": {"rt": -1000, "stimulus": "/static/audio/wordpool/PALACE.wav", "key_press": -1, "type": "PRES_AUD", "word": "palace", "wordID": 1005, "conditions": [12, 1600, "a", 12000], "trial": 2, "serialpos": 11, "trial_type": "single-audio", "trial_index": 100, "time_elapsed": 891173, "internal_node_id": "0.0-73.0"}}, {"uniqueid": "MTK0231:3U5JL4WY5LGTCI9OVBBDHCXTQ1M4XF", "current_trial": 101, "dateTime": 1510674286107, "trialdata": {"rt": -1, "stimulus": "", "key_press": -1, "type": "PRE_RECALL_DELAY", "trial_type": "single-stim", "trial_index": 101, "time_elapsed": 892573, "internal_node_id": "0.0-74.0-0.0"}}, {"uniqueid": "MTK0231:3U5JL4WY5LGTCI9OVBBDHCXTQ1M4XF", "current_trial": 102, "dateTime": 1510674286609, "trialdata": {"rt": -1000, "stimulus": "/static/audio/400Hz.wav", "key_press": -1, "type": "PRE_RECALL_ALERT", "trial_type": "single-audio", "trial_index": 102, "time_elapsed": 893075, "internal_node_id": "0.0-75.0"}}, {"uniqueid": "MTK0231:3U5JL4WY5LGTCI9OVBBDHCXTQ1M4XF", "current_trial": 103, "dateTime": 1510674346619, "trialdata": {"rt": [5616, 7464, 9282, 11600, 15207, 18008, 20232, 24256, 31126, 33274, 41502, 56881, 57038, 58550, 58701], "recwords": ["skilled", "girl", "fox", "snail", "coffee", "ampire", "child", "lizard", "sponch", "quill", "coffee", "", "", "", ""], "type": "FREE_RECALL", "conditions": [12, 1600, "a", 12000], "trial": 2, "trial_type": "free-recall", "trial_index": 103, "time_elapsed": 953080, "internal_node_id": "0.0-76.0-0.0"}}, {"uniqueid": "MTK0231:3U5JL4WY5LGTCI9OVBBDHCXTQ1M4XF", "current_trial": 104, "dateTime": 1510674350442, "trialdata": {"rt": 1821, "key_press": 32, "type": "INSTRUCTIONS", "trial_type": "text", "trial_index": 104, "time_elapsed": 956908, "internal_node_id": "0.0-77.0"}}, {"uniqueid": "MTK0231:3U5JL4WY5LGTCI9OVBBDHCXTQ1M4XF", "current_trial": 105, "dateTime": 1510674376447, "trialdata": {"rt": [2533, 4759, 7539, 10099, 12843, 14939, 16869, 19410, 21547, 23419], "responses": ["6", "13", "17", "7", "20", "18", "10", "9", "14", "19"], "num1": [1, 5, 8, 2, 9, 7, 1, 5, 8, 7, 3], "num2": [2, 3, 3, 2, 5, 6, 6, 1, 3, 5, 2], "num3": [3, 5, 6, 3, 6, 5, 3, 3, 3, 7, 6], "type": "DISTRACTOR", "conditions": [24, 800, "a", 24000], "trial": 3, "trial_type": "math-distractor", "trial_index": 105, "time_elapsed": 982913, "internal_node_id": "0.0-78.0"}}, {"uniqueid": "MTK0231:3U5JL4WY5LGTCI9OVBBDHCXTQ1M4XF", "current_trial": 106, "dateTime": 1510674379448, "trialdata": {"rt": -1, "stimulus": "<p id=\"stim\">10</p>", "key_press": -1, "trial_type": "single-stim", "trial_index": 106, "time_elapsed": 985914, "internal_node_id": "0.0-79.0-0.0"}}, {"uniqueid": "MTK0231:3U5JL4WY5LGTCI9OVBBDHCXTQ1M4XF", "current_trial": 107, "dateTime": 1510674380450, "trialdata": {"rt": -1, "stimulus": "<p id=\"stim\">9</p>", "key_press": -1, "trial_type": "single-stim", "trial_index": 107, "time_elapsed": 986916, "internal_node_id": "0.0-79.0-1.0"}}, {"uniqueid": "MTK0231:3U5JL4WY5LGTCI9OVBBDHCXTQ1M4XF", "current_trial": 108, "dateTime": 1510674381455, "trialdata": {"rt": -1, "stimulus": "<p id=\"stim\">8</p>", "key_press": -1, "trial_type": "single-stim", "trial_index": 108, "time_elapsed": 987918, "internal_node_id": "0.0-79.0-2.0"}}, {"uniqueid": "MTK0231:3U5JL4WY5LGTCI9OVBBDHCXTQ1M4XF", "current_trial": 109, "dateTime": 1510674382457, "trialdata": {"rt": -1, "stimulus": "<p id=\"stim\">7</p>", "key_press": -1, "trial_type": "single-stim", "trial_index": 109, "time_elapsed": 988923, "internal_node_id": "0.0-79.0-3.0"}}, {"uniqueid": "MTK0231:3U5JL4WY5LGTCI9OVBBDHCXTQ1M4XF", "current_trial": 110, "dateTime": 1510674383459, "trialdata": {"rt": -1, "stimulus": "<p id=\"stim\">6</p>", "key_press": -1, "trial_type": "single-stim", "trial_index": 110, "time_elapsed": 989925, "internal_node_id": "0.0-79.0-4.0"}}, {"uniqueid": "MTK0231:3U5JL4WY5LGTCI9OVBBDHCXTQ1M4XF", "current_trial": 111, "dateTime": 1510674384460, "trialdata": {"rt": -1, "stimulus": "<p id=\"stim\">5</p>", "key_press": -1, "trial_type": "single-stim", "trial_index": 111, "time_elapsed": 990926, "internal_node_id": "0.0-79.0-5.0"}}, {"uniqueid": "MTK0231:3U5JL4WY5LGTCI9OVBBDHCXTQ1M4XF", "current_trial": 112, "dateTime": 1510674385461, "trialdata": {"rt": -1, "stimulus": "<p id=\"stim\">4</p>", "key_press": -1, "trial_type": "single-stim", "trial_index": 112, "time_elapsed": 991927, "internal_node_id": "0.0-79.0-6.0"}}, {"uniqueid": "MTK0231:3U5JL4WY5LGTCI9OVBBDHCXTQ1M4XF", "current_trial": 113, "dateTime": 1510674386462, "trialdata": {"rt": -1, "stimulus": "<p id=\"stim\">3</p>", "key_press": -1, "trial_type": "single-stim", "trial_index": 113, "time_elapsed": 992928, "internal_node_id": "0.0-79.0-7.0"}}, {"uniqueid": "MTK0231:3U5JL4WY5LGTCI9OVBBDHCXTQ1M4XF", "current_trial": 114, "dateTime": 1510674387464, "trialdata": {"rt": -1, "stimulus": "<p id=\"stim\">2</p>", "key_press": -1, "trial_type": "single-stim", "trial_index": 114, "time_elapsed": 993930, "internal_node_id": "0.0-79.0-8.0"}}, {"uniqueid": "MTK0231:3U5JL4WY5LGTCI9OVBBDHCXTQ1M4XF", "current_trial": 115, "dateTime": 1510674388466, "trialdata": {"rt": -1, "stimulus": "<p id=\"stim\">1</p>", "key_press": -1, "trial_type": "single-stim", "trial_index": 115, "time_elapsed": 994932, "internal_node_id": "0.0-79.0-9.0"}}, {"uniqueid": "MTK0231:3U5JL4WY5LGTCI9OVBBDHCXTQ1M4XF", "current_trial": 116, "dateTime": 1510674389967, "trialdata": {"rt": -1, "stimulus": "<p id=\"stim\">+</p>", "key_press": -1, "type": "FIXATION", "trial_type": "single-stim", "trial_index": 116, "time_elapsed": 996433, "internal_node_id": "0.0-80.0-0.0"}}, {"uniqueid": "MTK0231:3U5JL4WY5LGTCI9OVBBDHCXTQ1M4XF", "current_trial": 117, "dateTime": 1510674391734, "trialdata": {"rt": -1000, "stimulus": "/static/audio/wordpool/RIVER.wav", "key_press": -1, "type": "PRES_AUD", "word": "river", "wordID": 1193, "conditions": [24, 800, "a", 24000], "trial": 3, "serialpos": 0, "trial_type": "single-audio", "trial_index": 117, "time_elapsed": 998199, "internal_node_id": "0.0-81.0"}}, {"uniqueid": "MTK0231:3U5JL4WY5LGTCI9OVBBDHCXTQ1M4XF", "current_trial": 118, "dateTime": 1510674393704, "trialdata": {"rt": -1000, "stimulus": "/static/audio/wordpool/BANQUET.wav", "key_press": -1, "type": "PRES_AUD", "word": "banquet", "wordID": 85, "conditions": [24, 800, "a", 24000], "trial": 3, "serialpos": 1, "trial_type": "single-audio", "trial_index": 118, "time_elapsed": 1000169, "internal_node_id": "0.0-82.0"}}, {"uniqueid": "MTK0231:3U5JL4WY5LGTCI9OVBBDHCXTQ1M4XF", "current_trial": 119, "dateTime": 1510674395340, "trialdata": {"rt": -1000, "stimulus": "/static/audio/wordpool/SUPPER.wav", "key_press": -1, "type": "PRES_AUD", "word": "supper", "wordID": 1410, "conditions": [24, 800, "a", 24000], "trial": 3, "serialpos": 2, "trial_type": "single-audio", "trial_index": 119, "time_elapsed": 1001805, "internal_node_id": "0.0-83.0"}}, {"uniqueid": "MTK0231:3U5JL4WY5LGTCI9OVBBDHCXTQ1M4XF", "current_trial": 120, "dateTime": 1510674397098, "trialdata": {"rt": -1000, "stimulus": "/static/audio/wordpool/TERMITE.wav", "key_press": -1, "type": "PRES_AUD", "word": "termite", "wordID": 1450, "conditions": [24, 800, "a", 24000], "trial": 3, "serialpos": 3, "trial_type": "single-audio", "trial_index": 120, "time_elapsed": 1003563, "internal_node_id": "0.0-84.0"}}, {"uniqueid": "MTK0231:3U5JL4WY5LGTCI9OVBBDHCXTQ1M4XF", "current_trial": 121, "dateTime": 1510674398880, "trialdata": {"rt": -1000, "stimulus": "/static/audio/wordpool/CLOCK.wav", "key_press": -1, "type": "PRES_AUD", "word": "clock", "wordID": 324, "conditions": [24, 800, "a", 24000], "trial": 3, "serialpos": 4, "trial_type": "single-audio", "trial_index": 121, "time_elapsed": 1005345, "internal_node_id": "0.0-85.0"}}, {"uniqueid": "MTK0231:3U5JL4WY5LGTCI9OVBBDHCXTQ1M4XF", "current_trial": 122, "dateTime": 1510674400736, "trialdata": {"rt": -1000, "stimulus": "/static/audio/wordpool/SPOON.wav", "key_press": -1, "type": "PRES_AUD", "word": "spoon", "wordID": 1356, "conditions": [24, 800, "a", 24000], "trial": 3, "serialpos": 5, "trial_type": "single-audio", "trial_index": 122, "time_elapsed": 1007201, "internal_node_id": "0.0-86.0"}}, {"uniqueid": "MTK0231:3U5JL4WY5LGTCI9OVBBDHCXTQ1M4XF", "current_trial": 123, "dateTime": 1510674402612, "trialdata": {"rt": -1000, "stimulus": "/static/audio/wordpool/SLUG.wav", "key_press": -1, "type": "PRES_AUD", "word": "slug", "wordID": 1328, "conditions": [24, 800, "a", 24000], "trial": 3, "serialpos": 6, "trial_type": "single-audio", "trial_index": 123, "time_elapsed": 1009077, "internal_node_id": "0.0-87.0"}}, {"uniqueid": "MTK0231:3U5JL4WY5LGTCI9OVBBDHCXTQ1M4XF", "current_trial": 124, "dateTime": 1510674404578, "trialdata": {"rt": -1000, "stimulus": "/static/audio/wordpool/DRESSER.wav", "key_press": -1, "type": "PRES_AUD", "word": "dresser", "wordID": 495, "conditions": [24, 800, "a", 24000], "trial": 3, "serialpos": 7, "trial_type": "single-audio", "trial_index": 124, "time_elapsed": 1011043, "internal_node_id": "0.0-88.0"}}, {"uniqueid": "MTK0231:3U5JL4WY5LGTCI9OVBBDHCXTQ1M4XF", "current_trial": 125, "dateTime": 1510674406330, "trialdata": {"rt": -1000, "stimulus": "/static/audio/wordpool/ACTOR.wav", "key_press": -1, "type": "PRES_AUD", "word": "actor", "wordID": 4, "conditions": [24, 800, "a", 24000], "trial": 3, "serialpos": 8, "trial_type": "single-audio", "trial_index": 125, "time_elapsed": 1012795, "internal_node_id": "0.0-89.0"}}, {"uniqueid": "MTK0231:3U5JL4WY5LGTCI9OVBBDHCXTQ1M4XF", "current_trial": 126, "dateTime": 1510674408319, "trialdata": {"rt": -1000, "stimulus": "/static/audio/wordpool/TRUCK.wav", "key_press": -1, "type": "PRES_AUD", "word": "truck", "wordID": 1511, "conditions": [24, 800, "a", 24000], "trial": 3, "serialpos": 9, "trial_type": "single-audio", "trial_index": 126, "time_elapsed": 1014784, "internal_node_id": "0.0-90.0"}}, {"uniqueid": "MTK0231:3U5JL4WY5LGTCI9OVBBDHCXTQ1M4XF", "current_trial": 127, "dateTime": 1510674410092, "trialdata": {"rt": -1000, "stimulus": "/static/audio/wordpool/ULCER.wav", "key_press": -1, "type": "PRES_AUD", "word": "ulcer", "wordID": 1532, "conditions": [24, 800, "a", 24000], "trial": 3, "serialpos": 10, "trial_type": "single-audio", "trial_index": 127, "time_elapsed": 1016557, "internal_node_id": "0.0-91.0"}}, {"uniqueid": "MTK0231:3U5JL4WY5LGTCI9OVBBDHCXTQ1M4XF", "current_trial": 128, "dateTime": 1510674412020, "trialdata": {"rt": -1000, "stimulus": "/static/audio/wordpool/FUNGUS.wav", "key_press": -1, "type": "PRES_AUD", "word": "fungus", "wordID": 613, "conditions": [24, 800, "a", 24000], "trial": 3, "serialpos": 11, "trial_type": "single-audio", "trial_index": 128, "time_elapsed": 1018486, "internal_node_id": "0.0-92.0"}}, {"uniqueid": "MTK0231:3U5JL4WY5LGTCI9OVBBDHCXTQ1M4XF", "current_trial": 129, "dateTime": 1510674413733, "trialdata": {"rt": -1000, "stimulus": "/static/audio/wordpool/GLASS.wav", "key_press": -1, "type": "PRES_AUD", "word": "glass", "wordID": 638, "conditions": [24, 800, "a", 24000], "trial": 3, "serialpos": 12, "trial_type": "single-audio", "trial_index": 129, "time_elapsed": 1020198, "internal_node_id": "0.0-93.0"}}, {"uniqueid": "MTK0231:3U5JL4WY5LGTCI9OVBBDHCXTQ1M4XF", "current_trial": 130, "dateTime": 1510674415396, "trialdata": {"rt": -1000, "stimulus": "/static/audio/wordpool/BOYFRIEND.wav", "key_press": -1, "type": "PRES_AUD", "word": "boyfriend", "wordID": 161, "conditions": [24, 800, "a", 24000], "trial": 3, "serialpos": 13, "trial_type": "single-audio", "trial_index": 130, "time_elapsed": 1021862, "internal_node_id": "0.0-94.0"}}, {"uniqueid": "MTK0231:3U5JL4WY5LGTCI9OVBBDHCXTQ1M4XF", "current_trial": 131, "dateTime": 1510674417071, "trialdata": {"rt": -1000, "stimulus": "/static/audio/wordpool/CRATER.wav", "key_press": -1, "type": "PRES_AUD", "word": "crater", "wordID": 399, "conditions": [24, 800, "a", 24000], "trial": 3, "serialpos": 14, "trial_type": "single-audio", "trial_index": 131, "time_elapsed": 1023537, "internal_node_id": "0.0-95.0"}}, {"uniqueid": "MTK0231:3U5JL4WY5LGTCI9OVBBDHCXTQ1M4XF", "current_trial": 132, "dateTime": 1510674418990, "trialdata": {"rt": -1000, "stimulus": "/static/audio/wordpool/MISSILE.wav", "key_press": -1, "type": "PRES_AUD", "word": "missile", "wordID": 899, "conditions": [24, 800, "a", 24000], "trial": 3, "serialpos": 15, "trial_type": "single-audio", "trial_index": 132, "time_elapsed": 1025456, "internal_node_id": "0.0-96.0"}}, {"uniqueid": "MTK0231:3U5JL4WY5LGTCI9OVBBDHCXTQ1M4XF", "current_trial": 133, "dateTime": 1510674420969, "trialdata": {"rt": -1000, "stimulus": "/static/audio/wordpool/HEART.wav", "key_press": -1, "type": "PRES_AUD", "word": "heart", "wordID": 696, "conditions": [24, 800, "a", 24000], "trial": 3, "serialpos": 16, "trial_type": "single-audio", "trial_index": 133, "time_elapsed": 1027434, "internal_node_id": "0.0-97.0"}}, {"uniqueid": "MTK0231:3U5JL4WY5LGTCI9OVBBDHCXTQ1M4XF", "current_trial": 134, "dateTime": 1510674422969, "trialdata": {"rt": -1000, "stimulus": "/static/audio/wordpool/KEEPER.wav", "key_press": -1, "type": "PRES_AUD", "word": "keeper", "wordID": 768, "conditions": [24, 800, "a", 24000], "trial": 3, "serialpos": 17, "trial_type": "single-audio", "trial_index": 134, "time_elapsed": 1029434, "internal_node_id": "0.0-98.0"}}, {"uniqueid": "MTK0231:3U5JL4WY5LGTCI9OVBBDHCXTQ1M4XF", "current_trial": 135, "dateTime": 1510674424824, "trialdata": {"rt": -1000, "stimulus": "/static/audio/wordpool/COOK.wav", "key_press": -1, "type": "PRES_AUD", "word": "cook", "wordID": 371, "conditions": [24, 800, "a", 24000], "trial": 3, "serialpos": 18, "trial_type": "single-audio", "trial_index": 135, "time_elapsed": 1031289, "internal_node_id": "0.0-99.0"}}, {"uniqueid": "MTK0231:3U5JL4WY5LGTCI9OVBBDHCXTQ1M4XF", "current_trial": 136, "dateTime": 1510674426680, "trialdata": {"rt": -1000, "stimulus": "/static/audio/wordpool/WRIST.wav", "key_press": -1, "type": "PRES_AUD", "word": "wrist", "wordID": 1625, "conditions": [24, 800, "a", 24000], "trial": 3, "serialpos": 19, "trial_type": "single-audio", "trial_index": 136, "time_elapsed": 1033145, "internal_node_id": "0.0-100.0"}}, {"uniqueid": "MTK0231:3U5JL4WY5LGTCI9OVBBDHCXTQ1M4XF", "current_trial": 137, "dateTime": 1510674428547, "trialdata": {"rt": -1000, "stimulus": "/static/audio/wordpool/ELBOW.wav", "key_press": -1, "type": "PRES_AUD", "word": "elbow", "wordID": 519, "conditions": [24, 800, "a", 24000], "trial": 3, "serialpos": 20, "trial_type": "single-audio", "trial_index": 137, "time_elapsed": 1035012, "internal_node_id": "0.0-101.0"}}, {"uniqueid": "MTK0231:3U5JL4WY5LGTCI9OVBBDHCXTQ1M4XF", "current_trial": 138, "dateTime": 1510674430458, "trialdata": {"rt": -1000, "stimulus": "/static/audio/wordpool/LAVA.wav", "key_press": -1, "type": "PRES_AUD", "word": "lava", "wordID": 803, "conditions": [24, 800, "a", 24000], "trial": 3, "serialpos": 21, "trial_type": "single-audio", "trial_index": 138, "time_elapsed": 1036923, "internal_node_id": "0.0-102.0"}}, {"uniqueid": "MTK0231:3U5JL4WY5LGTCI9OVBBDHCXTQ1M4XF", "current_trial": 139, "dateTime": 1510674432241, "trialdata": {"rt": -1000, "stimulus": "/static/audio/wordpool/SCARF.wav", "key_press": -1, "type": "PRES_AUD", "word": "scarf", "wordID": 1245, "conditions": [24, 800, "a", 24000], "trial": 3, "serialpos": 22, "trial_type": "single-audio", "trial_index": 139, "time_elapsed": 1038706, "internal_node_id": "0.0-103.0"}}, {"uniqueid": "MTK0231:3U5JL4WY5LGTCI9OVBBDHCXTQ1M4XF", "current_trial": 140, "dateTime": 1510674433939, "trialdata": {"rt": -1000, "stimulus": "/static/audio/wordpool/PEACH.wav", "key_press": -1, "type": "PRES_AUD", "word": "peach", "wordID": 1030, "conditions": [24, 800, "a", 24000], "trial": 3, "serialpos": 23, "trial_type": "single-audio", "trial_index": 140, "time_elapsed": 1040405, "internal_node_id": "0.0-104.0"}}, {"uniqueid": "MTK0231:3U5JL4WY5LGTCI9OVBBDHCXTQ1M4XF", "current_trial": 141, "dateTime": 1510674435296, "trialdata": {"rt": -1, "stimulus": "", "key_press": -1, "type": "PRE_RECALL_DELAY", "trial_type": "single-stim", "trial_index": 141, "time_elapsed": 1041762, "internal_node_id": "0.0-105.0-0.0"}}, {"uniqueid": "MTK0231:3U5JL4WY5LGTCI9OVBBDHCXTQ1M4XF", "current_trial": 142, "dateTime": 1510674435798, "trialdata": {"rt": -1000, "stimulus": "/static/audio/400Hz.wav", "key_press": -1, "type": "PRE_RECALL_ALERT", "trial_type": "single-audio", "trial_index": 142, "time_elapsed": 1042264, "internal_node_id": "0.0-106.0"}}, {"uniqueid": "MTK0231:3U5JL4WY5LGTCI9OVBBDHCXTQ1M4XF", "current_trial": 143, "dateTime": 1510674495810, "trialdata": {"rt": [4306, 6673, 8914, 11490, 13818, 17433, 20049, 24041, 27345, 30849, 33817, 36008, 37737, 41320, 45016], "recwords": ["river", "clock", "scarf", "elbow", "spoon", "actor", "truck", "boyfriend", "fungus", "missile", "glass", "wrist", "cook", "keeper", "heart"], "type": "FREE_RECALL", "conditions": [24, 800, "a", 24000], "trial": 3, "trial_type": "free-recall", "trial_index": 143, "time_elapsed": 1102269, "internal_node_id": "0.0-107.0-0.0"}}, {"uniqueid": "MTK0231:3U5JL4WY5LGTCI9OVBBDHCXTQ1M4XF", "current_trial": 144, "dateTime": 1510674501644, "trialdata": {"rt": 3833, "key_press": 32, "type": "INSTRUCTIONS", "trial_type": "text", "trial_index": 144, "time_elapsed": 1108110, "internal_node_id": "0.0-108.0"}}, {"uniqueid": "MTK0231:3U5JL4WY5LGTCI9OVBBDHCXTQ1M4XF", "current_trial": 145, "dateTime": 1510674515648, "trialdata": {"rt": [3187, 5384, 8759, 11048], "responses": ["20", "16", "24", "11"], "num1": [9, 3, 9, 2, 2], "num2": [7, 9, 8, 2, 7], "num3": [4, 4, 7, 7, 4], "type": "DISTRACTOR", "conditions": [24, 800, "a", 12000], "trial": 4, "trial_type": "math-distractor", "trial_index": 145, "time_elapsed": 1122114, "internal_node_id": "0.0-109.0"}}, {"uniqueid": "MTK0231:3U5JL4WY5LGTCI9OVBBDHCXTQ1M4XF", "current_trial": 146, "dateTime": 1510674518649, "trialdata": {"rt": -1, "stimulus": "<p id=\"stim\">10</p>", "key_press": -1, "trial_type": "single-stim", "trial_index": 146, "time_elapsed": 1125115, "internal_node_id": "0.0-110.0-0.0"}}, {"uniqueid": "MTK0231:3U5JL4WY5LGTCI9OVBBDHCXTQ1M4XF", "current_trial": 147, "dateTime": 1510674519650, "trialdata": {"rt": -1, "stimulus": "<p id=\"stim\">9</p>", "key_press": -1, "trial_type": "single-stim", "trial_index": 147, "time_elapsed": 1126116, "internal_node_id": "0.0-110.0-1.0"}}, {"uniqueid": "MTK0231:3U5JL4WY5LGTCI9OVBBDHCXTQ1M4XF", "current_trial": 148, "dateTime": 1510674520651, "trialdata": {"rt": -1, "stimulus": "<p id=\"stim\">8</p>", "key_press": -1, "trial_type": "single-stim", "trial_index": 148, "time_elapsed": 1127117, "internal_node_id": "0.0-110.0-2.0"}}, {"uniqueid": "MTK0231:3U5JL4WY5LGTCI9OVBBDHCXTQ1M4XF", "current_trial": 149, "dateTime": 1510674521652, "trialdata": {"rt": -1, "stimulus": "<p id=\"stim\">7</p>", "key_press": -1, "trial_type": "single-stim", "trial_index": 149, "time_elapsed": 1128118, "internal_node_id": "0.0-110.0-3.0"}}, {"uniqueid": "MTK0231:3U5JL4WY5LGTCI9OVBBDHCXTQ1M4XF", "current_trial": 150, "dateTime": 1510674522653, "trialdata": {"rt": -1, "stimulus": "<p id=\"stim\">6</p>", "key_press": -1, "trial_type": "single-stim", "trial_index": 150, "time_elapsed": 1129119, "internal_node_id": "0.0-110.0-4.0"}}, {"uniqueid": "MTK0231:3U5JL4WY5LGTCI9OVBBDHCXTQ1M4XF", "current_trial": 151, "dateTime": 1510674523654, "trialdata": {"rt": -1, "stimulus": "<p id=\"stim\">5</p>", "key_press": -1, "trial_type": "single-stim", "trial_index": 151, "time_elapsed": 1130120, "internal_node_id": "0.0-110.0-5.0"}}, {"uniqueid": "MTK0231:3U5JL4WY5LGTCI9OVBBDHCXTQ1M4XF", "current_trial": 152, "dateTime": 1510674524655, "trialdata": {"rt": -1, "stimulus": "<p id=\"stim\">4</p>", "key_press": -1, "trial_type": "single-stim", "trial_index": 152, "time_elapsed": 1131121, "internal_node_id": "0.0-110.0-6.0"}}, {"uniqueid": "MTK0231:3U5JL4WY5LGTCI9OVBBDHCXTQ1M4XF", "current_trial": 153, "dateTime": 1510674525657, "trialdata": {"rt": -1, "stimulus": "<p id=\"stim\">3</p>", "key_press": -1, "trial_type": "single-stim", "trial_index": 153, "time_elapsed": 1132123, "internal_node_id": "0.0-110.0-7.0"}}, {"uniqueid": "MTK0231:3U5JL4WY5LGTCI9OVBBDHCXTQ1M4XF", "current_trial": 154, "dateTime": 1510674526659, "trialdata": {"rt": -1, "stimulus": "<p id=\"stim\">2</p>", "key_press": -1, "trial_type": "single-stim", "trial_index": 154, "time_elapsed": 1133125, "internal_node_id": "0.0-110.0-8.0"}}, {"uniqueid": "MTK0231:3U5JL4WY5LGTCI9OVBBDHCXTQ1M4XF", "current_trial": 155, "dateTime": 1510674527661, "trialdata": {"rt": -1, "stimulus": "<p id=\"stim\">1</p>", "key_press": -1, "trial_type": "single-stim", "trial_index": 155, "time_elapsed": 1134127, "internal_node_id": "0.0-110.0-9.0"}}, {"uniqueid": "MTK0231:3U5JL4WY5LGTCI9OVBBDHCXTQ1M4XF", "current_trial": 156, "dateTime": 1510674529162, "trialdata": {"rt": -1, "stimulus": "<p id=\"stim\">+</p>", "key_press": -1, "type": "FIXATION", "trial_type": "single-stim", "trial_index": 156, "time_elapsed": 1135628, "internal_node_id": "0.0-111.0-0.0"}}, {"uniqueid": "MTK0231:3U5JL4WY5LGTCI9OVBBDHCXTQ1M4XF", "current_trial": 157, "dateTime": 1510674530950, "trialdata": {"rt": -1000, "stimulus": "/static/audio/wordpool/HOUND.wav", "key_press": -1, "type": "PRES_AUD", "word": "hound", "wordID": 723, "conditions": [24, 800, "a", 12000], "trial": 4, "serialpos": 0, "trial_type": "single-audio", "trial_index": 157, "time_elapsed": 1137415, "internal_node_id": "0.0-112.0"}}, {"uniqueid": "MTK0231:3U5JL4WY5LGTCI9OVBBDHCXTQ1M4XF", "current_trial": 158, "dateTime": 1510674532729, "trialdata": {"rt": -1000, "stimulus": "/static/audio/wordpool/BUG.wav", "key_press": -1, "type": "PRES_AUD", "word": "bug", "wordID": 186, "conditions": [24, 800, "a", 12000], "trial": 4, "serialpos": 1, "trial_type": "single-audio", "trial_index": 158, "time_elapsed": 1139194, "internal_node_id": "0.0-113.0"}}, {"uniqueid": "MTK0231:3U5JL4WY5LGTCI9OVBBDHCXTQ1M4XF", "current_trial": 159, "dateTime": 1510674534392, "trialdata": {"rt": -1000, "stimulus": "/static/audio/wordpool/BROTHER.wav", "key_press": -1, "type": "PRES_AUD", "word": "brother", "wordID": 178, "conditions": [24, 800, "a", 12000], "trial": 4, "serialpos": 2, "trial_type": "single-audio", "trial_index": 159, "time_elapsed": 1140857, "internal_node_id": "0.0-114.0"}}, {"uniqueid": "MTK0231:3U5JL4WY5LGTCI9OVBBDHCXTQ1M4XF", "current_trial": 160, "dateTime": 1510674536276, "trialdata": {"rt": -1000, "stimulus": "/static/audio/wordpool/SCARECROW.wav", "key_press": -1, "type": "PRES_AUD", "word": "scarecrow", "wordID": 1244, "conditions": [24, 800, "a", 12000], "trial": 4, "serialpos": 3, "trial_type": "single-audio", "trial_index": 160, "time_elapsed": 1142741, "internal_node_id": "0.0-115.0"}}, {"uniqueid": "MTK0231:3U5JL4WY5LGTCI9OVBBDHCXTQ1M4XF", "current_trial": 161, "dateTime": 1510674538030, "trialdata": {"rt": -1000, "stimulus": "/static/audio/wordpool/BLACKBOARD.wav", "key_press": -1, "type": "PRES_AUD", "word": "blackboard", "wordID": 132, "conditions": [24, 800, "a", 12000], "trial": 4, "serialpos": 4, "trial_type": "single-audio", "trial_index": 161, "time_elapsed": 1144495, "internal_node_id": "0.0-116.0"}}, {"uniqueid": "MTK0231:3U5JL4WY5LGTCI9OVBBDHCXTQ1M4XF", "current_trial": 162, "dateTime": 1510674539791, "trialdata": {"rt": -1000, "stimulus": "/static/audio/wordpool/MESSAGE.wav", "key_press": -1, "type": "PRES_AUD", "word": "message", "wordID": 887, "conditions": [24, 800, "a", 12000], "trial": 4, "serialpos": 5, "trial_type": "single-audio", "trial_index": 162, "time_elapsed": 1146256, "internal_node_id": "0.0-117.0"}}, {"uniqueid": "MTK0231:3U5JL4WY5LGTCI9OVBBDHCXTQ1M4XF", "current_trial": 163, "dateTime": 1510674541573, "trialdata": {"rt": -1000, "stimulus": "/static/audio/wordpool/SHERIFF.wav", "key_press": -1, "type": "PRES_AUD", "word": "sheriff", "wordID": 1283, "conditions": [24, 800, "a", 12000], "trial": 4, "serialpos": 6, "trial_type": "single-audio", "trial_index": 163, "time_elapsed": 1148038, "internal_node_id": "0.0-118.0"}}, {"uniqueid": "MTK0231:3U5JL4WY5LGTCI9OVBBDHCXTQ1M4XF", "current_trial": 164, "dateTime": 1510674543562, "trialdata": {"rt": -1000, "stimulus": "/static/audio/wordpool/BACON.wav", "key_press": -1, "type": "PRES_AUD", "word": "bacon", "wordID": 66, "conditions": [24, 800, "a", 12000], "trial": 4, "serialpos": 7, "trial_type": "single-audio", "trial_index": 164, "time_elapsed": 1150028, "internal_node_id": "0.0-119.0"}}, {"uniqueid": "MTK0231:3U5JL4WY5LGTCI9OVBBDHCXTQ1M4XF", "current_trial": 165, "dateTime": 1510674545210, "trialdata": {"rt": -1000, "stimulus": "/static/audio/wordpool/SAUSAGE.wav", "key_press": -1, "type": "PRES_AUD", "word": "sausage", "wordID": 1237, "conditions": [24, 800, "a", 12000], "trial": 4, "serialpos": 8, "trial_type": "single-audio", "trial_index": 165, "time_elapsed": 1151675, "internal_node_id": "0.0-120.0"}}, {"uniqueid": "MTK0231:3U5JL4WY5LGTCI9OVBBDHCXTQ1M4XF", "current_trial": 166, "dateTime": 1510674546889, "trialdata": {"rt": -1000, "stimulus": "/static/audio/wordpool/MONEY.wav", "key_press": -1, "type": "PRES_AUD", "word": "money", "wordID": 907, "conditions": [24, 800, "a", 12000], "trial": 4, "serialpos": 9, "trial_type": "single-audio", "trial_index": 166, "time_elapsed": 1153354, "internal_node_id": "0.0-121.0"}}, {"uniqueid": "MTK0231:3U5JL4WY5LGTCI9OVBBDHCXTQ1M4XF", "current_trial": 167, "dateTime": 1510674548600, "trialdata": {"rt": -1000, "stimulus": "/static/audio/wordpool/VIRUS.wav", "key_press": -1, "type": "PRES_AUD", "word": "virus", "wordID": 1571, "conditions": [24, 800, "a", 12000], "trial": 4, "serialpos": 10, "trial_type": "single-audio", "trial_index": 167, "time_elapsed": 1155065, "internal_node_id": "0.0-122.0"}}, {"uniqueid": "MTK0231:3U5JL4WY5LGTCI9OVBBDHCXTQ1M4XF", "current_trial": 168, "dateTime": 1510674550288, "trialdata": {"rt": -1000, "stimulus": "/static/audio/wordpool/BUNNY.wav", "key_press": -1, "type": "PRES_AUD", "word": "bunny", "wordID": 197, "conditions": [24, 800, "a", 12000], "trial": 4, "serialpos": 11, "trial_type": "single-audio", "trial_index": 168, "time_elapsed": 1156753, "internal_node_id": "0.0-123.0"}}, {"uniqueid": "MTK0231:3U5JL4WY5LGTCI9OVBBDHCXTQ1M4XF", "current_trial": 169, "dateTime": 1510674552275, "trialdata": {"rt": -1000, "stimulus": "/static/audio/wordpool/DRINK.wav", "key_press": -1, "type": "PRES_AUD", "word": "drink", "wordID": 497, "conditions": [24, 800, "a", 12000], "trial": 4, "serialpos": 12, "trial_type": "single-audio", "trial_index": 169, "time_elapsed": 1158741, "internal_node_id": "0.0-124.0"}}, {"uniqueid": "MTK0231:3U5JL4WY5LGTCI9OVBBDHCXTQ1M4XF", "current_trial": 170, "dateTime": 1510674554221, "trialdata": {"rt": -1000, "stimulus": "/static/audio/wordpool/DRAWING.wav", "key_press": -1, "type": "PRES_AUD", "word": "drawing", "wordID": 493, "conditions": [24, 800, "a", 12000], "trial": 4, "serialpos": 13, "trial_type": "single-audio", "trial_index": 170, "time_elapsed": 1160686, "internal_node_id": "0.0-125.0"}}, {"uniqueid": "MTK0231:3U5JL4WY5LGTCI9OVBBDHCXTQ1M4XF", "current_trial": 171, "dateTime": 1510674556151, "trialdata": {"rt": -1000, "stimulus": "/static/audio/wordpool/LOVER.wav", "key_press": -1, "type": "PRES_AUD", "word": "lover", "wordID": 845, "conditions": [24, 800, "a", 12000], "trial": 4, "serialpos": 14, "trial_type": "single-audio", "trial_index": 171, "time_elapsed": 1162617, "internal_node_id": "0.0-126.0"}}, {"uniqueid": "MTK0231:3U5JL4WY5LGTCI9OVBBDHCXTQ1M4XF", "current_trial": 172, "dateTime": 1510674557783, "trialdata": {"rt": -1000, "stimulus": "/static/audio/wordpool/TUTU.wav", "key_press": -1, "type": "PRES_AUD", "word": "tutu", "wordID": 1523, "conditions": [24, 800, "a", 12000], "trial": 4, "serialpos": 15, "trial_type": "single-audio", "trial_index": 172, "time_elapsed": 1164249, "internal_node_id": "0.0-127.0"}}, {"uniqueid": "MTK0231:3U5JL4WY5LGTCI9OVBBDHCXTQ1M4XF", "current_trial": 173, "dateTime": 1510674559663, "trialdata": {"rt": -1000, "stimulus": "/static/audio/wordpool/SHARK.wav", "key_press": -1, "type": "PRES_AUD", "word": "shark", "wordID": 1274, "conditions": [24, 800, "a", 12000], "trial": 4, "serialpos": 16, "trial_type": "single-audio", "trial_index": 173, "time_elapsed": 1166129, "internal_node_id": "0.0-128.0"}}, {"uniqueid": "MTK0231:3U5JL4WY5LGTCI9OVBBDHCXTQ1M4XF", "current_trial": 174, "dateTime": 1510674561662, "trialdata": {"rt": -1000, "stimulus": "/static/audio/wordpool/BODY.wav", "key_press": -1, "type": "PRES_AUD", "word": "body", "wordID": 144, "conditions": [24, 800, "a", 12000], "trial": 4, "serialpos": 17, "trial_type": "single-audio", "trial_index": 174, "time_elapsed": 1168128, "internal_node_id": "0.0-129.0"}}, {"uniqueid": "MTK0231:3U5JL4WY5LGTCI9OVBBDHCXTQ1M4XF", "current_trial": 175, "dateTime": 1510674563550, "trialdata": {"rt": -1000, "stimulus": "/static/audio/wordpool/TABLET.wav", "key_press": -1, "type": "PRES_AUD", "word": "tablet", "wordID": 1426, "conditions": [24, 800, "a", 12000], "trial": 4, "serialpos": 18, "trial_type": "single-audio", "trial_index": 175, "time_elapsed": 1170015, "internal_node_id": "0.0-130.0"}}, {"uniqueid": "MTK0231:3U5JL4WY5LGTCI9OVBBDHCXTQ1M4XF", "current_trial": 176, "dateTime": 1510674565292, "trialdata": {"rt": -1000, "stimulus": "/static/audio/wordpool/MUFFIN.wav", "key_press": -1, "type": "PRES_AUD", "word": "muffin", "wordID": 928, "conditions": [24, 800, "a", 12000], "trial": 4, "serialpos": 19, "trial_type": "single-audio", "trial_index": 176, "time_elapsed": 1171757, "internal_node_id": "0.0-131.0"}}, {"uniqueid": "MTK0231:3U5JL4WY5LGTCI9OVBBDHCXTQ1M4XF", "current_trial": 177, "dateTime": 1510674567068, "trialdata": {"rt": -1000, "stimulus": "/static/audio/wordpool/ORCHID.wav", "key_press": -1, "type": "PRES_AUD", "word": "orchid", "wordID": 981, "conditions": [24, 800, "a", 12000], "trial": 4, "serialpos": 20, "trial_type": "single-audio", "trial_index": 177, "time_elapsed": 1173534, "internal_node_id": "0.0-132.0"}}, {"uniqueid": "MTK0231:3U5JL4WY5LGTCI9OVBBDHCXTQ1M4XF", "current_trial": 178, "dateTime": 1510674568713, "trialdata": {"rt": -1000, "stimulus": "/static/audio/wordpool/DOLPHIN.wav", "key_press": -1, "type": "PRES_AUD", "word": "dolphin", "wordID": 482, "conditions": [24, 800, "a", 12000], "trial": 4, "serialpos": 21, "trial_type": "single-audio", "trial_index": 178, "time_elapsed": 1175179, "internal_node_id": "0.0-133.0"}}, {"uniqueid": "MTK0231:3U5JL4WY5LGTCI9OVBBDHCXTQ1M4XF", "current_trial": 179, "dateTime": 1510674570366, "trialdata": {"rt": -1000, "stimulus": "/static/audio/wordpool/DENIM.wav", "key_press": -1, "type": "PRES_AUD", "word": "denim", "wordID": 445, "conditions": [24, 800, "a", 12000], "trial": 4, "serialpos": 22, "trial_type": "single-audio", "trial_index": 179, "time_elapsed": 1176831, "internal_node_id": "0.0-134.0"}}, {"uniqueid": "MTK0231:3U5JL4WY5LGTCI9OVBBDHCXTQ1M4XF", "current_trial": 180, "dateTime": 1510674572313, "trialdata": {"rt": -1000, "stimulus": "/static/audio/wordpool/DRESS.wav", "key_press": -1, "type": "PRES_AUD", "word": "dress", "wordID": 494, "conditions": [24, 800, "a", 12000], "trial": 4, "serialpos": 23, "trial_type": "single-audio", "trial_index": 180, "time_elapsed": 1178779, "internal_node_id": "0.0-135.0"}}, {"uniqueid": "MTK0231:3U5JL4WY5LGTCI9OVBBDHCXTQ1M4XF", "current_trial": 181, "dateTime": 1510674573692, "trialdata": {"rt": -1, "stimulus": "", "key_press": -1, "type": "PRE_RECALL_DELAY", "trial_type": "single-stim", "trial_index": 181, "time_elapsed": 1180158, "internal_node_id": "0.0-136.0-0.0"}}, {"uniqueid": "MTK0231:3U5JL4WY5LGTCI9OVBBDHCXTQ1M4XF", "current_trial": 182, "dateTime": 1510674574194, "trialdata": {"rt": -1000, "stimulus": "/static/audio/400Hz.wav", "key_press": -1, "type": "PRE_RECALL_ALERT", "trial_type": "single-audio", "trial_index": 182, "time_elapsed": 1180660, "internal_node_id": "0.0-137.0"}}, {"uniqueid": "MTK0231:3U5JL4WY5LGTCI9OVBBDHCXTQ1M4XF", "current_trial": 183, "dateTime": 1510674634207, "trialdata": {"rt": [4373, 6918, 12094, 21062, 26477, 29005, 30829, 33572, 36643, 38668, 41323, 45599, 48972, 51548], "recwords": ["denim", "dress", "brother", "blackboard", "message", "begin", "virus", "shark", "muffin", "towel", "drink", "money", "dolphin", "dress"], "type": "FREE_RECALL", "conditions": [24, 800, "a", 12000], "trial": 4, "trial_type": "free-recall", "trial_index": 183, "time_elapsed": 1240665, "internal_node_id": "0.0-138.0-0.0"}}, {"uniqueid": "MTK0231:3U5JL4WY5LGTCI9OVBBDHCXTQ1M4XF", "current_trial": 184, "dateTime": 1510674646059, "trialdata": {"rt": 9851, "key_press": 32, "type": "INSTRUCTIONS", "trial_type": "text", "trial_index": 184, "time_elapsed": 1252525, "internal_node_id": "0.0-139.0"}}, {"uniqueid": "MTK0231:3U5JL4WY5LGTCI9OVBBDHCXTQ1M4XF", "current_trial": 185, "dateTime": 1510674672063, "trialdata": {"rt": [2448, 4192, 6649, 11409, 13376, 17647, 19599, 21295], "responses": ["10", "11", "13", "15", "12", "17", "14", "13"], "num1": [5, 4, 5, 7, 2, 3, 8, 8, 7], "num2": [2, 4, 7, 3, 4, 5, 3, 1, 9], "num3": [3, 3, 1, 5, 6, 9, 3, 4, 7], "type": "DISTRACTOR", "conditions": [24, 1600, "a", 24000], "trial": 5, "trial_type": "math-distractor", "trial_index": 185, "time_elapsed": 1278529, "internal_node_id": "0.0-140.0"}}, {"uniqueid": "MTK0231:3U5JL4WY5LGTCI9OVBBDHCXTQ1M4XF", "current_trial": 186, "dateTime": 1510674675064, "trialdata": {"rt": -1, "stimulus": "<p id=\"stim\">10</p>", "key_press": -1, "trial_type": "single-stim", "trial_index": 186, "time_elapsed": 1281530, "internal_node_id": "0.0-141.0-0.0"}}, {"uniqueid": "MTK0231:3U5JL4WY5LGTCI9OVBBDHCXTQ1M4XF", "current_trial": 187, "dateTime": 1510674676065, "trialdata": {"rt": -1, "stimulus": "<p id=\"stim\">9</p>", "key_press": -1, "trial_type": "single-stim", "trial_index": 187, "time_elapsed": 1282531, "internal_node_id": "0.0-141.0-1.0"}}, {"uniqueid": "MTK0231:3U5JL4WY5LGTCI9OVBBDHCXTQ1M4XF", "current_trial": 188, "dateTime": 1510674677067, "trialdata": {"rt": -1, "stimulus": "<p id=\"stim\">8</p>", "key_press": -1, "trial_type": "single-stim", "trial_index": 188, "time_elapsed": 1283533, "internal_node_id": "0.0-141.0-2.0"}}, {"uniqueid": "MTK0231:3U5JL4WY5LGTCI9OVBBDHCXTQ1M4XF", "current_trial": 189, "dateTime": 1510674678069, "trialdata": {"rt": -1, "stimulus": "<p id=\"stim\">7</p>", "key_press": -1, "trial_type": "single-stim", "trial_index": 189, "time_elapsed": 1284535, "internal_node_id": "0.0-141.0-3.0"}}, {"uniqueid": "MTK0231:3U5JL4WY5LGTCI9OVBBDHCXTQ1M4XF", "current_trial": 190, "dateTime": 1510674679071, "trialdata": {"rt": -1, "stimulus": "<p id=\"stim\">6</p>", "key_press": -1, "trial_type": "single-stim", "trial_index": 190, "time_elapsed": 1285537, "internal_node_id": "0.0-141.0-4.0"}}, {"uniqueid": "MTK0231:3U5JL4WY5LGTCI9OVBBDHCXTQ1M4XF", "current_trial": 191, "dateTime": 1510674680072, "trialdata": {"rt": -1, "stimulus": "<p id=\"stim\">5</p>", "key_press": -1, "trial_type": "single-stim", "trial_index": 191, "time_elapsed": 1286538, "internal_node_id": "0.0-141.0-5.0"}}, {"uniqueid": "MTK0231:3U5JL4WY5LGTCI9OVBBDHCXTQ1M4XF", "current_trial": 192, "dateTime": 1510674681073, "trialdata": {"rt": -1, "stimulus": "<p id=\"stim\">4</p>", "key_press": -1, "trial_type": "single-stim", "trial_index": 192, "time_elapsed": 1287539, "internal_node_id": "0.0-141.0-6.0"}}, {"uniqueid": "MTK0231:3U5JL4WY5LGTCI9OVBBDHCXTQ1M4XF", "current_trial": 193, "dateTime": 1510674682075, "trialdata": {"rt": -1, "stimulus": "<p id=\"stim\">3</p>", "key_press": -1, "trial_type": "single-stim", "trial_index": 193, "time_elapsed": 1288541, "internal_node_id": "0.0-141.0-7.0"}}, {"uniqueid": "MTK0231:3U5JL4WY5LGTCI9OVBBDHCXTQ1M4XF", "current_trial": 194, "dateTime": 1510674683077, "trialdata": {"rt": -1, "stimulus": "<p id=\"stim\">2</p>", "key_press": -1, "trial_type": "single-stim", "trial_index": 194, "time_elapsed": 1289543, "internal_node_id": "0.0-141.0-8.0"}}, {"uniqueid": "MTK0231:3U5JL4WY5LGTCI9OVBBDHCXTQ1M4XF", "current_trial": 195, "dateTime": 1510674684078, "trialdata": {"rt": -1, "stimulus": "<p id=\"stim\">1</p>", "key_press": -1, "trial_type": "single-stim", "trial_index": 195, "time_elapsed": 1290544, "internal_node_id": "0.0-141.0-9.0"}}, {"uniqueid": "MTK0231:3U5JL4WY5LGTCI9OVBBDHCXTQ1M4XF", "current_trial": 196, "dateTime": 1510674685580, "trialdata": {"rt": -1, "stimulus": "<p id=\"stim\">+</p>", "key_press": -1, "type": "FIXATION", "trial_type": "single-stim", "trial_index": 196, "time_elapsed": 1292046, "internal_node_id": "0.0-142.0-0.0"}}, {"uniqueid": "MTK0231:3U5JL4WY5LGTCI9OVBBDHCXTQ1M4XF", "current_trial": 197, "dateTime": 1510674688168, "trialdata": {"rt": -1000, "stimulus": "/static/audio/wordpool/RADISH.wav", "key_press": -1, "type": "PRES_AUD", "word": "radish", "wordID": 1157, "conditions": [24, 1600, "a", 24000], "trial": 5, "serialpos": 0, "trial_type": "single-audio", "trial_index": 197, "time_elapsed": 1294634, "internal_node_id": "0.0-143.0"}}, {"uniqueid": "MTK0231:3U5JL4WY5LGTCI9OVBBDHCXTQ1M4XF", "current_trial": 198, "dateTime": 1510674690798, "trialdata": {"rt": -1000, "stimulus": "/static/audio/wordpool/MOP.wav", "key_press": -1, "type": "PRES_AUD", "word": "mop", "wordID": 915, "conditions": [24, 1600, "a", 24000], "trial": 5, "serialpos": 1, "trial_type": "single-audio", "trial_index": 198, "time_elapsed": 1297263, "internal_node_id": "0.0-144.0"}}, {"uniqueid": "MTK0231:3U5JL4WY5LGTCI9OVBBDHCXTQ1M4XF", "current_trial": 199, "dateTime": 1510674693337, "trialdata": {"rt": -1000, "stimulus": "/static/audio/wordpool/JUDGE.wav", "key_press": -1, "type": "PRES_AUD", "word": "judge", "wordID": 760, "conditions": [24, 1600, "a", 24000], "trial": 5, "serialpos": 2, "trial_type": "single-audio", "trial_index": 199, "time_elapsed": 1299802, "internal_node_id": "0.0-145.0"}}, {"uniqueid": "MTK0231:3U5JL4WY5LGTCI9OVBBDHCXTQ1M4XF", "current_trial": 200, "dateTime": 1510674695851, "trialdata": {"rt": -1000, "stimulus": "/static/audio/wordpool/BANKER.wav", "key_press": -1, "type": "PRES_AUD", "word": "banker", "wordID": 83, "conditions": [24, 1600, "a", 24000], "trial": 5, "serialpos": 3, "trial_type": "single-audio", "trial_index": 200, "time_elapsed": 1302317, "internal_node_id": "0.0-146.0"}}, {"uniqueid": "MTK0231:3U5JL4WY5LGTCI9OVBBDHCXTQ1M4XF", "current_trial": 201, "dateTime": 1510674698513, "trialdata": {"rt": -1000, "stimulus": "/static/audio/wordpool/PECAN.wav", "key_press": -1, "type": "PRES_AUD", "word": "pecan", "wordID": 1035, "conditions": [24, 1600, "a", 24000], "trial": 5, "serialpos": 4, "trial_type": "single-audio", "trial_index": 201, "time_elapsed": 1304979, "internal_node_id": "0.0-147.0"}}, {"uniqueid": "MTK0231:3U5JL4WY5LGTCI9OVBBDHCXTQ1M4XF", "current_trial": 202, "dateTime": 1510674701265, "trialdata": {"rt": -1000, "stimulus": "/static/audio/wordpool/CREATURE.wav", "key_press": -1, "type": "PRES_AUD", "word": "creature", "wordID": 402, "conditions": [24, 1600, "a", 24000], "trial": 5, "serialpos": 5, "trial_type": "single-audio", "trial_index": 202, "time_elapsed": 1307730, "internal_node_id": "0.0-148.0"}}, {"uniqueid": "MTK0231:3U5JL4WY5LGTCI9OVBBDHCXTQ1M4XF", "current_trial": 203, "dateTime": 1510674703842, "trialdata": {"rt": -1000, "stimulus": "/static/audio/wordpool/DRAGON.wav", "key_press": -1, "type": "PRES_AUD", "word": "dragon", "wordID": 491, "conditions": [24, 1600, "a", 24000], "trial": 5, "serialpos": 6, "trial_type": "single-audio", "trial_index": 203, "time_elapsed": 1310307, "internal_node_id": "0.0-149.0"}}, {"uniqueid": "MTK0231:3U5JL4WY5LGTCI9OVBBDHCXTQ1M4XF", "current_trial": 204, "dateTime": 1510674706603, "trialdata": {"rt": -1000, "stimulus": "/static/audio/wordpool/CHIPMUNK.wav", "key_press": -1, "type": "PRES_AUD", "word": "chipmunk", "wordID": 303, "conditions": [24, 1600, "a", 24000], "trial": 5, "serialpos": 7, "trial_type": "single-audio", "trial_index": 204, "time_elapsed": 1313068, "internal_node_id": "0.0-150.0"}}, {"uniqueid": "MTK0231:3U5JL4WY5LGTCI9OVBBDHCXTQ1M4XF", "current_trial": 205, "dateTime": 1510674709250, "trialdata": {"rt": -1000, "stimulus": "/static/audio/wordpool/CATTLE.wav", "key_press": -1, "type": "PRES_AUD", "word": "cattle", "wordID": 260, "conditions": [24, 1600, "a", 24000], "trial": 5, "serialpos": 8, "trial_type": "single-audio", "trial_index": 205, "time_elapsed": 1315715, "internal_node_id": "0.0-151.0"}}, {"uniqueid": "MTK0231:3U5JL4WY5LGTCI9OVBBDHCXTQ1M4XF", "current_trial": 206, "dateTime": 1510674711682, "trialdata": {"rt": -1000, "stimulus": "/static/audio/wordpool/BRANCH.wav", "key_press": -1, "type": "PRES_AUD", "word": "branch", "wordID": 167, "conditions": [24, 1600, "a", 24000], "trial": 5, "serialpos": 9, "trial_type": "single-audio", "trial_index": 206, "time_elapsed": 1318147, "internal_node_id": "0.0-152.0"}}, {"uniqueid": "MTK0231:3U5JL4WY5LGTCI9OVBBDHCXTQ1M4XF", "current_trial": 207, "dateTime": 1510674714481, "trialdata": {"rt": -1000, "stimulus": "/static/audio/wordpool/VELVET.wav", "key_press": -1, "type": "PRES_AUD", "word": "velvet", "wordID": 1554, "conditions": [24, 1600, "a", 24000], "trial": 5, "serialpos": 10, "trial_type": "single-audio", "trial_index": 207, "time_elapsed": 1320946, "internal_node_id": "0.0-153.0"}}, {"uniqueid": "MTK0231:3U5JL4WY5LGTCI9OVBBDHCXTQ1M4XF", "current_trial": 208, "dateTime": 1510674716945, "trialdata": {"rt": -1000, "stimulus": "/static/audio/wordpool/TURNIP.wav", "key_press": -1, "type": "PRES_AUD", "word": "turnip", "wordID": 1520, "conditions": [24, 1600, "a", 24000], "trial": 5, "serialpos": 11, "trial_type": "single-audio", "trial_index": 208, "time_elapsed": 1323410, "internal_node_id": "0.0-154.0"}}, {"uniqueid": "MTK0231:3U5JL4WY5LGTCI9OVBBDHCXTQ1M4XF", "current_trial": 209, "dateTime": 1510674719603, "trialdata": {"rt": -1000, "stimulus": "/static/audio/wordpool/MAILBOX.wav", "key_press": -1, "type": "PRES_AUD", "word": "mailbox", "wordID": 856, "conditions": [24, 1600, "a", 24000], "trial": 5, "serialpos": 12, "trial_type": "single-audio", "trial_index": 209, "time_elapsed": 1326069, "internal_node_id": "0.0-155.0"}}, {"uniqueid": "MTK0231:3U5JL4WY5LGTCI9OVBBDHCXTQ1M4XF", "current_trial": 210, "dateTime": 1510674722263, "trialdata": {"rt": -1000, "stimulus": "/static/audio/wordpool/GUARD.wav", "key_press": -1, "type": "PRES_AUD", "word": "guard", "wordID": 666, "conditions": [24, 1600, "a", 24000], "trial": 5, "serialpos": 13, "trial_type": "single-audio", "trial_index": 210, "time_elapsed": 1328728, "internal_node_id": "0.0-156.0"}}, {"uniqueid": "MTK0231:3U5JL4WY5LGTCI9OVBBDHCXTQ1M4XF", "current_trial": 211, "dateTime": 1510674724742, "trialdata": {"rt": -1000, "stimulus": "/static/audio/wordpool/CASHEW.wav", "key_press": -1, "type": "PRES_AUD", "word": "cashew", "wordID": 252, "conditions": [24, 1600, "a", 24000], "trial": 5, "serialpos": 14, "trial_type": "single-audio", "trial_index": 211, "time_elapsed": 1331207, "internal_node_id": "0.0-157.0"}}, {"uniqueid": "MTK0231:3U5JL4WY5LGTCI9OVBBDHCXTQ1M4XF", "current_trial": 212, "dateTime": 1510674727420, "trialdata": {"rt": -1000, "stimulus": "/static/audio/wordpool/PLAZA.wav", "key_press": -1, "type": "PRES_AUD", "word": "plaza", "wordID": 1087, "conditions": [24, 1600, "a", 24000], "trial": 5, "serialpos": 15, "trial_type": "single-audio", "trial_index": 212, "time_elapsed": 1333885, "internal_node_id": "0.0-158.0"}}, {"uniqueid": "MTK0231:3U5JL4WY5LGTCI9OVBBDHCXTQ1M4XF", "current_trial": 213, "dateTime": 1510674729831, "trialdata": {"rt": -1000, "stimulus": "/static/audio/wordpool/PRIMATE.wav", "key_press": -1, "type": "PRES_AUD", "word": "primate", "wordID": 1122, "conditions": [24, 1600, "a", 24000], "trial": 5, "serialpos": 16, "trial_type": "single-audio", "trial_index": 213, "time_elapsed": 1336296, "internal_node_id": "0.0-159.0"}}, {"uniqueid": "MTK0231:3U5JL4WY5LGTCI9OVBBDHCXTQ1M4XF", "current_trial": 214, "dateTime": 1510674732279, "trialdata": {"rt": -1000, "stimulus": "/static/audio/wordpool/SCULPTURE.wav", "key_press": -1, "type": "PRES_AUD", "word": "sculpture", "wordID": 1257, "conditions": [24, 1600, "a", 24000], "trial": 5, "serialpos": 17, "trial_type": "single-audio", "trial_index": 214, "time_elapsed": 1338744, "internal_node_id": "0.0-160.0"}}, {"uniqueid": "MTK0231:3U5JL4WY5LGTCI9OVBBDHCXTQ1M4XF", "current_trial": 215, "dateTime": 1510674734748, "trialdata": {"rt": -1000, "stimulus": "/static/audio/wordpool/ROBBER.wav", "key_press": -1, "type": "PRES_AUD", "word": "robber", "wordID": 1196, "conditions": [24, 1600, "a", 24000], "trial": 5, "serialpos": 18, "trial_type": "single-audio", "trial_index": 215, "time_elapsed": 1341213, "internal_node_id": "0.0-161.0"}}, {"uniqueid": "MTK0231:3U5JL4WY5LGTCI9OVBBDHCXTQ1M4XF", "current_trial": 216, "dateTime": 1510674737306, "trialdata": {"rt": -1000, "stimulus": "/static/audio/wordpool/TYPIST.wav", "key_press": -1, "type": "PRES_AUD", "word": "typist", "wordID": 1531, "conditions": [24, 1600, "a", 24000], "trial": 5, "serialpos": 19, "trial_type": "single-audio", "trial_index": 216, "time_elapsed": 1343771, "internal_node_id": "0.0-162.0"}}, {"uniqueid": "MTK0231:3U5JL4WY5LGTCI9OVBBDHCXTQ1M4XF", "current_trial": 217, "dateTime": 1510674739982, "trialdata": {"rt": -1000, "stimulus": "/static/audio/wordpool/FIREPLACE.wav", "key_press": -1, "type": "PRES_AUD", "word": "fireplace", "wordID": 569, "conditions": [24, 1600, "a", 24000], "trial": 5, "serialpos": 20, "trial_type": "single-audio", "trial_index": 217, "time_elapsed": 1346447, "internal_node_id": "0.0-163.0"}}, {"uniqueid": "MTK0231:3U5JL4WY5LGTCI9OVBBDHCXTQ1M4XF", "current_trial": 218, "dateTime": 1510674742478, "trialdata": {"rt": -1000, "stimulus": "/static/audio/wordpool/STOVE.wav", "key_press": -1, "type": "PRES_AUD", "word": "stove", "wordID": 1387, "conditions": [24, 1600, "a", 24000], "trial": 5, "serialpos": 21, "trial_type": "single-audio", "trial_index": 218, "time_elapsed": 1348944, "internal_node_id": "0.0-164.0"}}, {"uniqueid": "MTK0231:3U5JL4WY5LGTCI9OVBBDHCXTQ1M4XF", "current_trial": 219, "dateTime": 1510674745198, "trialdata": {"rt": -1000, "stimulus": "/static/audio/wordpool/OX.wav", "key_press": -1, "type": "PRES_AUD", "word": "ox", "wordID": 993, "conditions": [24, 1600, "a", 24000], "trial": 5, "serialpos": 22, "trial_type": "single-audio", "trial_index": 219, "time_elapsed": 1351663, "internal_node_id": "0.0-165.0"}}, {"uniqueid": "MTK0231:3U5JL4WY5LGTCI9OVBBDHCXTQ1M4XF", "current_trial": 220, "dateTime": 1510674747703, "trialdata": {"rt": -1000, "stimulus": "/static/audio/wordpool/MAILMAN.wav", "key_press": -1, "type": "PRES_AUD", "word": "mailman", "wordID": 857, "conditions": [24, 1600, "a", 24000], "trial": 5, "serialpos": 23, "trial_type": "single-audio", "trial_index": 220, "time_elapsed": 1354169, "internal_node_id": "0.0-166.0"}}, {"uniqueid": "MTK0231:3U5JL4WY5LGTCI9OVBBDHCXTQ1M4XF", "current_trial": 221, "dateTime": 1510674748983, "trialdata": {"rt": -1, "stimulus": "", "key_press": -1, "type": "PRE_RECALL_DELAY", "trial_type": "single-stim", "trial_index": 221, "time_elapsed": 1355449, "internal_node_id": "0.0-167.0-0.0"}}, {"uniqueid": "MTK0231:3U5JL4WY5LGTCI9OVBBDHCXTQ1M4XF", "current_trial": 222, "dateTime": 1510674749485, "trialdata": {"rt": -1000, "stimulus": "/static/audio/400Hz.wav", "key_press": -1, "type": "PRE_RECALL_ALERT", "trial_type": "single-audio", "trial_index": 222, "time_elapsed": 1355951, "internal_node_id": "0.0-168.0"}}, {"uniqueid": "MTK0231:3U5JL4WY5LGTCI9OVBBDHCXTQ1M4XF", "current_trial": 223, "dateTime": 1510674809494, "trialdata": {"rt": [5647, 9383, 10927, 12304, 16183, 18752, 20208, 23087, 25951, 28954, 33895, 37374, 47046, 51413, 55037, 57458], "recwords": ["painter", "mailbox", "mail", "man", "poney", "cashew", "god", "cattle", "dragon", "passot", "sculpture", "dragon", "typist", "fireplace", "stone", "axe"], "type": "FREE_RECALL", "conditions": [24, 1600, "a", 24000], "trial": 5, "trial_type": "free-recall", "trial_index": 223, "time_elapsed": 1415956, "internal_node_id": "0.0-169.0-0.0"}}, {"uniqueid": "MTK0231:3U5JL4WY5LGTCI9OVBBDHCXTQ1M4XF", "current_trial": 224, "dateTime": 1510674815598, "trialdata": {"rt": 4102, "key_press": 32, "type": "INSTRUCTIONS", "trial_type": "text", "trial_index": 224, "time_elapsed": 1422064, "internal_node_id": "0.0-170.0"}}, {"uniqueid": "MTK0231:3U5JL4WY5LGTCI9OVBBDHCXTQ1M4XF", "current_trial": 225, "dateTime": 1510674829601, "trialdata": {"rt": [4300, 7892, 9811], "responses": ["16", "16", "16"], "num1": [8, 9, 2, 8], "num2": [1, 5, 6, 9], "num3": [7, 2, 8, 8], "type": "DISTRACTOR", "conditions": [24, 1600, "v", 12000], "trial": 6, "trial_type": "math-distractor", "trial_index": 225, "time_elapsed": 1436066, "internal_node_id": "0.0-171.0"}}, {"uniqueid": "MTK0231:3U5JL4WY5LGTCI9OVBBDHCXTQ1M4XF", "current_trial": 226, "dateTime": 1510674832602, "trialdata": {"rt": -1, "stimulus": "<p id=\"stim\">10</p>", "key_press": -1, "trial_type": "single-stim", "trial_index": 226, "time_elapsed": 1439068, "internal_node_id": "0.0-172.0-0.0"}}, {"uniqueid": "MTK0231:3U5JL4WY5LGTCI9OVBBDHCXTQ1M4XF", "current_trial": 227, "dateTime": 1510674833604, "trialdata": {"rt": -1, "stimulus": "<p id=\"stim\">9</p>", "key_press": -1, "trial_type": "single-stim", "trial_index": 227, "time_elapsed": 1440070, "internal_node_id": "0.0-172.0-1.0"}}, {"uniqueid": "MTK0231:3U5JL4WY5LGTCI9OVBBDHCXTQ1M4XF", "current_trial": 228, "dateTime": 1510674834606, "trialdata": {"rt": -1, "stimulus": "<p id=\"stim\">8</p>", "key_press": -1, "trial_type": "single-stim", "trial_index": 228, "time_elapsed": 1441072, "internal_node_id": "0.0-172.0-2.0"}}, {"uniqueid": "MTK0231:3U5JL4WY5LGTCI9OVBBDHCXTQ1M4XF", "current_trial": 229, "dateTime": 1510674835608, "trialdata": {"rt": -1, "stimulus": "<p id=\"stim\">7</p>", "key_press": -1, "trial_type": "single-stim", "trial_index": 229, "time_elapsed": 1442074, "internal_node_id": "0.0-172.0-3.0"}}, {"uniqueid": "MTK0231:3U5JL4WY5LGTCI9OVBBDHCXTQ1M4XF", "current_trial": 230, "dateTime": 1510674836610, "trialdata": {"rt": -1, "stimulus": "<p id=\"stim\">6</p>", "key_press": -1, "trial_type": "single-stim", "trial_index": 230, "time_elapsed": 1443076, "internal_node_id": "0.0-172.0-4.0"}}, {"uniqueid": "MTK0231:3U5JL4WY5LGTCI9OVBBDHCXTQ1M4XF", "current_trial": 231, "dateTime": 1510674837616, "trialdata": {"rt": -1, "stimulus": "<p id=\"stim\">5</p>", "key_press": -1, "trial_type": "single-stim", "trial_index": 231, "time_elapsed": 1444078, "internal_node_id": "0.0-172.0-5.0"}}, {"uniqueid": "MTK0231:3U5JL4WY5LGTCI9OVBBDHCXTQ1M4XF", "current_trial": 232, "dateTime": 1510674838617, "trialdata": {"rt": -1, "stimulus": "<p id=\"stim\">4</p>", "key_press": -1, "trial_type": "single-stim", "trial_index": 232, "time_elapsed": 1445083, "internal_node_id": "0.0-172.0-6.0"}}, {"uniqueid": "MTK0231:3U5JL4WY5LGTCI9OVBBDHCXTQ1M4XF", "current_trial": 233, "dateTime": 1510674839619, "trialdata": {"rt": -1, "stimulus": "<p id=\"stim\">3</p>", "key_press": -1, "trial_type": "single-stim", "trial_index": 233, "time_elapsed": 1446085, "internal_node_id": "0.0-172.0-7.0"}}, {"uniqueid": "MTK0231:3U5JL4WY5LGTCI9OVBBDHCXTQ1M4XF", "current_trial": 234, "dateTime": 1510674840621, "trialdata": {"rt": -1, "stimulus": "<p id=\"stim\">2</p>", "key_press": -1, "trial_type": "single-stim", "trial_index": 234, "time_elapsed": 1447087, "internal_node_id": "0.0-172.0-8.0"}}, {"uniqueid": "MTK0231:3U5JL4WY5LGTCI9OVBBDHCXTQ1M4XF", "current_trial": 235, "dateTime": 1510674841623, "trialdata": {"rt": -1, "stimulus": "<p id=\"stim\">1</p>", "key_press": -1, "trial_type": "single-stim", "trial_index": 235, "time_elapsed": 1448089, "internal_node_id": "0.0-172.0-9.0"}}, {"uniqueid": "MTK0231:3U5JL4WY5LGTCI9OVBBDHCXTQ1M4XF", "current_trial": 236, "dateTime": 1510674843125, "trialdata": {"rt": -1, "stimulus": "<p id=\"stim\">+</p>", "key_press": -1, "type": "FIXATION", "trial_type": "single-stim", "trial_index": 236, "time_elapsed": 1449591, "internal_node_id": "0.0-173.0-0.0"}}, {"uniqueid": "MTK0231:3U5JL4WY5LGTCI9OVBBDHCXTQ1M4XF", "current_trial": 237, "dateTime": 1510674844728, "trialdata": {"rt": -1, "stimulus": "<p id=\"stim\">GAZELLE</p>", "key_press": -1, "type": "PRES_VIS", "word": "gazelle", "wordID": 627, "conditions": [24, 1600, "v", 12000], "trial": 6, "serialpos": 0, "trial_type": "single-stim", "trial_index": 237, "time_elapsed": 1451194, "internal_node_id": "0.0-174.0"}}, {"uniqueid": "MTK0231:3U5JL4WY5LGTCI9OVBBDHCXTQ1M4XF", "current_trial": 238, "dateTime": 1510674847284, "trialdata": {"rt": -1, "stimulus": "<p id=\"stim\">JUNGLE</p>", "key_press": -1, "type": "PRES_VIS", "word": "jungle", "wordID": 763, "conditions": [24, 1600, "v", 12000], "trial": 6, "serialpos": 1, "trial_type": "single-stim", "trial_index": 238, "time_elapsed": 1453750, "internal_node_id": "0.0-175.0"}}, {"uniqueid": "MTK0231:3U5JL4WY5LGTCI9OVBBDHCXTQ1M4XF", "current_trial": 239, "dateTime": 1510674849753, "trialdata": {"rt": -1, "stimulus": "<p id=\"stim\">GYMNAST</p>", "key_press": -1, "type": "PRES_VIS", "word": "gymnast", "wordID": 674, "conditions": [24, 1600, "v", 12000], "trial": 6, "serialpos": 2, "trial_type": "single-stim", "trial_index": 239, "time_elapsed": 1456219, "internal_node_id": "0.0-176.0"}}, {"uniqueid": "MTK0231:3U5JL4WY5LGTCI9OVBBDHCXTQ1M4XF", "current_trial": 240, "dateTime": 1510674852162, "trialdata": {"rt": -1, "stimulus": "<p id=\"stim\">PIGMENT</p>", "key_press": -1, "type": "PRES_VIS", "word": "pigment", "wordID": 1065, "conditions": [24, 1600, "v", 12000], "trial": 6, "serialpos": 3, "trial_type": "single-stim", "trial_index": 240, "time_elapsed": 1458628, "internal_node_id": "0.0-177.0"}}, {"uniqueid": "MTK0231:3U5JL4WY5LGTCI9OVBBDHCXTQ1M4XF", "current_trial": 241, "dateTime": 1510674854638, "trialdata": {"rt": -1, "stimulus": "<p id=\"stim\">PUDDING</p>", "key_press": -1, "type": "PRES_VIS", "word": "pudding", "wordID": 1138, "conditions": [24, 1600, "v", 12000], "trial": 6, "serialpos": 4, "trial_type": "single-stim", "trial_index": 241, "time_elapsed": 1461104, "internal_node_id": "0.0-178.0"}}, {"uniqueid": "MTK0231:3U5JL4WY5LGTCI9OVBBDHCXTQ1M4XF", "current_trial": 242, "dateTime": 1510674857325, "trialdata": {"rt": -1, "stimulus": "<p id=\"stim\">LASER</p>", "key_press": -1, "type": "PRES_VIS", "word": "laser", "wordID": 800, "conditions": [24, 1600, "v", 12000], "trial": 6, "serialpos": 5, "trial_type": "single-stim", "trial_index": 242, "time_elapsed": 1463791, "internal_node_id": "0.0-179.0"}}, {"uniqueid": "MTK0231:3U5JL4WY5LGTCI9OVBBDHCXTQ1M4XF", "current_trial": 243, "dateTime": 1510674859931, "trialdata": {"rt": -1, "stimulus": "<p id=\"stim\">MARKER</p>", "key_press": -1, "type": "PRES_VIS", "word": "marker", "wordID": 869, "conditions": [24, 1600, "v", 12000], "trial": 6, "serialpos": 6, "trial_type": "single-stim", "trial_index": 243, "time_elapsed": 1466397, "internal_node_id": "0.0-180.0"}}, {"uniqueid": "MTK0231:3U5JL4WY5LGTCI9OVBBDHCXTQ1M4XF", "current_trial": 244, "dateTime": 1510674862486, "trialdata": {"rt": -1, "stimulus": "<p id=\"stim\">NECKLACE</p>", "key_press": -1, "type": "PRES_VIS", "word": "necklace", "wordID": 939, "conditions": [24, 1600, "v", 12000], "trial": 6, "serialpos": 7, "trial_type": "single-stim", "trial_index": 244, "time_elapsed": 1468952, "internal_node_id": "0.0-181.0"}}, {"uniqueid": "MTK0231:3U5JL4WY5LGTCI9OVBBDHCXTQ1M4XF", "current_trial": 245, "dateTime": 1510674865070, "trialdata": {"rt": -1, "stimulus": "<p id=\"stim\">FLOWER</p>", "key_press": -1, "type": "PRES_VIS", "word": "flower", "wordID": 583, "conditions": [24, 1600, "v", 12000], "trial": 6, "serialpos": 8, "trial_type": "single-stim", "trial_index": 245, "time_elapsed": 1471536, "internal_node_id": "0.0-182.0"}}, {"uniqueid": "MTK0231:3U5JL4WY5LGTCI9OVBBDHCXTQ1M4XF", "current_trial": 246, "dateTime": 1510674867639, "trialdata": {"rt": -1, "stimulus": "<p id=\"stim\">DAISY</p>", "key_press": -1, "type": "PRES_VIS", "word": "daisy", "wordID": 434, "conditions": [24, 1600, "v", 12000], "trial": 6, "serialpos": 9, "trial_type": "single-stim", "trial_index": 246, "time_elapsed": 1474105, "internal_node_id": "0.0-183.0"}}, {"uniqueid": "MTK0231:3U5JL4WY5LGTCI9OVBBDHCXTQ1M4XF", "current_trial": 247, "dateTime": 1510674870152, "trialdata": {"rt": -1, "stimulus": "<p id=\"stim\">DANCER</p>", "key_press": -1, "type": "PRES_VIS", "word": "dancer", "wordID": 436, "conditions": [24, 1600, "v", 12000], "trial": 6, "serialpos": 10, "trial_type": "single-stim", "trial_index": 247, "time_elapsed": 1476618, "internal_node_id": "0.0-184.0"}}, {"uniqueid": "MTK0231:3U5JL4WY5LGTCI9OVBBDHCXTQ1M4XF", "current_trial": 248, "dateTime": 1510674872629, "trialdata": {"rt": -1, "stimulus": "<p id=\"stim\">SKETCH</p>", "key_press": -1, "type": "PRES_VIS", "word": "sketch", "wordID": 1314, "conditions": [24, 1600, "v", 12000], "trial": 6, "serialpos": 11, "trial_type": "single-stim", "trial_index": 248, "time_elapsed": 1479095, "internal_node_id": "0.0-185.0"}}, {"uniqueid": "MTK0231:3U5JL4WY5LGTCI9OVBBDHCXTQ1M4XF", "current_trial": 249, "dateTime": 1510674875198, "trialdata": {"rt": -1, "stimulus": "<p id=\"stim\">BRANDY</p>", "key_press": -1, "type": "PRES_VIS", "word": "brandy", "wordID": 168, "conditions": [24, 1600, "v", 12000], "trial": 6, "serialpos": 12, "trial_type": "single-stim", "trial_index": 249, "time_elapsed": 1481664, "internal_node_id": "0.0-186.0"}}, {"uniqueid": "MTK0231:3U5JL4WY5LGTCI9OVBBDHCXTQ1M4XF", "current_trial": 250, "dateTime": 1510674877926, "trialdata": {"rt": -1, "stimulus": "<p id=\"stim\">TRACTOR</p>", "key_press": -1, "type": "PRES_VIS", "word": "tractor", "wordID": 1492, "conditions": [24, 1600, "v", 12000], "trial": 6, "serialpos": 13, "trial_type": "single-stim", "trial_index": 250, "time_elapsed": 1484392, "internal_node_id": "0.0-187.0"}}, {"uniqueid": "MTK0231:3U5JL4WY5LGTCI9OVBBDHCXTQ1M4XF", "current_trial": 251, "dateTime": 1510674880599, "trialdata": {"rt": -1, "stimulus": "<p id=\"stim\">PLASTER</p>", "key_press": -1, "type": "PRES_VIS", "word": "plaster", "wordID": 1084, "conditions": [24, 1600, "v", 12000], "trial": 6, "serialpos": 14, "trial_type": "single-stim", "trial_index": 251, "time_elapsed": 1487065, "internal_node_id": "0.0-188.0"}}, {"uniqueid": "MTK0231:3U5JL4WY5LGTCI9OVBBDHCXTQ1M4XF", "current_trial": 252, "dateTime": 1510674883136, "trialdata": {"rt": -1, "stimulus": "<p id=\"stim\">LIPSTICK</p>", "key_press": -1, "type": "PRES_VIS", "word": "lipstick", "wordID": 828, "conditions": [24, 1600, "v", 12000], "trial": 6, "serialpos": 15, "trial_type": "single-stim", "trial_index": 252, "time_elapsed": 1489602, "internal_node_id": "0.0-189.0"}}, {"uniqueid": "MTK0231:3U5JL4WY5LGTCI9OVBBDHCXTQ1M4XF", "current_trial": 253, "dateTime": 1510674885675, "trialdata": {"rt": -1, "stimulus": "<p id=\"stim\">PROTON</p>", "key_press": -1, "type": "PRES_VIS", "word": "proton", "wordID": 1131, "conditions": [24, 1600, "v", 12000], "trial": 6, "serialpos": 16, "trial_type": "single-stim", "trial_index": 253, "time_elapsed": 1492141, "internal_node_id": "0.0-190.0"}}, {"uniqueid": "MTK0231:3U5JL4WY5LGTCI9OVBBDHCXTQ1M4XF", "current_trial": 254, "dateTime": 1510674888294, "trialdata": {"rt": -1, "stimulus": "<p id=\"stim\">KITCHEN</p>", "key_press": -1, "type": "PRES_VIS", "word": "kitchen", "wordID": 777, "conditions": [24, 1600, "v", 12000], "trial": 6, "serialpos": 17, "trial_type": "single-stim", "trial_index": 254, "time_elapsed": 1494760, "internal_node_id": "0.0-191.0"}}, {"uniqueid": "MTK0231:3U5JL4WY5LGTCI9OVBBDHCXTQ1M4XF", "current_trial": 255, "dateTime": 1510674891004, "trialdata": {"rt": -1, "stimulus": "<p id=\"stim\">VIKING</p>", "key_press": -1, "type": "PRES_VIS", "word": "viking", "wordID": 1564, "conditions": [24, 1600, "v", 12000], "trial": 6, "serialpos": 18, "trial_type": "single-stim", "trial_index": 255, "time_elapsed": 1497470, "internal_node_id": "0.0-192.0"}}, {"uniqueid": "MTK0231:3U5JL4WY5LGTCI9OVBBDHCXTQ1M4XF", "current_trial": 256, "dateTime": 1510674893568, "trialdata": {"rt": -1, "stimulus": "<p id=\"stim\">OUTLAW</p>", "key_press": -1, "type": "PRES_VIS", "word": "outlaw", "wordID": 988, "conditions": [24, 1600, "v", 12000], "trial": 6, "serialpos": 19, "trial_type": "single-stim", "trial_index": 256, "time_elapsed": 1500033, "internal_node_id": "0.0-193.0"}}, {"uniqueid": "MTK0231:3U5JL4WY5LGTCI9OVBBDHCXTQ1M4XF", "current_trial": 257, "dateTime": 1510674896242, "trialdata": {"rt": -1, "stimulus": "<p id=\"stim\">WAGON</p>", "key_press": -1, "type": "PRES_VIS", "word": "wagon", "wordID": 1577, "conditions": [24, 1600, "v", 12000], "trial": 6, "serialpos": 20, "trial_type": "single-stim", "trial_index": 257, "time_elapsed": 1502708, "internal_node_id": "0.0-194.0"}}, {"uniqueid": "MTK0231:3U5JL4WY5LGTCI9OVBBDHCXTQ1M4XF", "current_trial": 258, "dateTime": 1510674898998, "trialdata": {"rt": -1, "stimulus": "<p id=\"stim\">ICING</p>", "key_press": -1, "type": "PRES_VIS", "word": "icing", "wordID": 731, "conditions": [24, 1600, "v", 12000], "trial": 6, "serialpos": 21, "trial_type": "single-stim", "trial_index": 258, "time_elapsed": 1505464, "internal_node_id": "0.0-195.0"}}, {"uniqueid": "MTK0231:3U5JL4WY5LGTCI9OVBBDHCXTQ1M4XF", "current_trial": 259, "dateTime": 1510674901558, "trialdata": {"rt": -1, "stimulus": "<p id=\"stim\">BLOUSE</p>", "key_press": -1, "type": "PRES_VIS", "word": "blouse", "wordID": 138, "conditions": [24, 1600, "v", 12000], "trial": 6, "serialpos": 22, "trial_type": "single-stim", "trial_index": 259, "time_elapsed": 1508024, "internal_node_id": "0.0-196.0"}}, {"uniqueid": "MTK0231:3U5JL4WY5LGTCI9OVBBDHCXTQ1M4XF", "current_trial": 260, "dateTime": 1510674904285, "trialdata": {"rt": -1, "stimulus": "<p id=\"stim\">WARDROBE</p>", "key_press": -1, "type": "PRES_VIS", "word": "wardrobe", "wordID": 1586, "conditions": [24, 1600, "v", 12000], "trial": 6, "serialpos": 23, "trial_type": "single-stim", "trial_index": 260, "time_elapsed": 1510751, "internal_node_id": "0.0-197.0"}}, {"uniqueid": "MTK0231:3U5JL4WY5LGTCI9OVBBDHCXTQ1M4XF", "current_trial": 261, "dateTime": 1510674906516, "trialdata": {"rt": -1, "stimulus": "", "key_press": -1, "type": "PRE_RECALL_DELAY", "trial_type": "single-stim", "trial_index": 261, "time_elapsed": 1512982, "internal_node_id": "0.0-198.0-0.0"}}, {"uniqueid": "MTK0231:3U5JL4WY5LGTCI9OVBBDHCXTQ1M4XF", "current_trial": 262, "dateTime": 1510674907018, "trialdata": {"rt": -1000, "stimulus": "/static/audio/400Hz.wav", "key_press": -1, "type": "PRE_RECALL_ALERT", "trial_type": "single-audio", "trial_index": 262, "time_elapsed": 1513484, "internal_node_id": "0.0-199.0"}}, {"uniqueid": "MTK0231:3U5JL4WY5LGTCI9OVBBDHCXTQ1M4XF", "current_trial": 263, "dateTime": 1510674967035, "trialdata": {"rt": [5577, 7786, 10618, 15329, 20121, 23472, 26921, 29968, 35650, 38063, 40559, 42896, 45567, 49279, 54455, 59822], "recwords": ["pudding", "flower", "sketch", "brandy", "plaster", "tractor", "kitchen", "viking", "wagon", "icing", "blouse", "daily", "laser", "jungle", "marker", "necklace"], "type": "FREE_RECALL", "conditions": [24, 1600, "v", 12000], "trial": 6, "trial_type": "free-recall", "trial_index": 263, "time_elapsed": 1573490, "internal_node_id": "0.0-200.0-0.0"}}, {"uniqueid": "MTK0231:3U5JL4WY5LGTCI9OVBBDHCXTQ1M4XF", "current_trial": 264, "dateTime": 1510674969277, "trialdata": {"rt": 240, "key_press": 68, "type": "INSTRUCTIONS", "trial_type": "text", "trial_index": 264, "time_elapsed": 1575742, "internal_node_id": "0.0-201.0"}}, {"uniqueid": "MTK0231:3U5JL4WY5LGTCI9OVBBDHCXTQ1M4XF", "current_trial": 265, "dateTime": 1510674995281, "trialdata": {"rt": [5836, 8284, 10043, 12443, 14822, 17030, 19447, 21075, 22994], "responses": ["22", "16", "13", "14", "15", "11", "19", "1