{"condition": 0, "counterbalance": 159, "assignmentId": "34HJIJKLP6318T4TVWAVTR08B224VP", "workerId": "MTK0436", "hitId": "3QO7EE372OUR10VRYAL66YBMQAHBQC", "currenttrial": 626, "bonus": 0, "data": [{"uniqueid": "MTK0436:34HJIJKLP6318T4TVWAVTR08B224VP", "current_trial": 0, "dateTime": 1510870910873, "trialdata": {"rt": 6308, "key_press": 32, "type": "INSTRUCTIONS", "trial_type": "text", "trial_index": 0, "time_elapsed": 6310, "internal_node_id": "0.0-0.0"}}, {"uniqueid": "MTK0436:34HJIJKLP6318T4TVWAVTR08B224VP", "current_trial": 1, "dateTime": 1510870918570, "trialdata": {"rt": 7696, "key_press": 32, "type": "INSTRUCTIONS", "trial_type": "text", "trial_index": 1, "time_elapsed": 14008, "internal_node_id": "0.0-1.0"}}, {"uniqueid": "MTK0436:34HJIJKLP6318T4TVWAVTR08B224VP", "current_trial": 2, "dateTime": 1510870928555, "trialdata": {"rt": [9970], "responses": ["ocean"], "type": "AUDIO_TEST", "trial_type": "audio-test", "trial_index": 2, "time_elapsed": 23993, "internal_node_id": "0.0-2.0"}}, {"uniqueid": "MTK0436:34HJIJKLP6318T4TVWAVTR08B224VP", "current_trial": 3, "dateTime": 1510870934690, "trialdata": {"rt": [6131], "responses": ["crystal"], "type": "AUDIO_TEST", "trial_type": "audio-test", "trial_index": 3, "time_elapsed": 30128, "internal_node_id": "0.0-3.0"}}, {"uniqueid": "MTK0436:34HJIJKLP6318T4TVWAVTR08B224VP", "current_trial": 4, "dateTime": 1510870939258, "trialdata": {"rt": [4564], "responses": ["spice"], "type": "AUDIO_TEST", "trial_type": "audio-test", "trial_index": 4, "time_elapsed": 34696, "internal_node_id": "0.0-4.0"}}, {"uniqueid": "MTK0436:34HJIJKLP6318T4TVWAVTR08B224VP", "current_trial": 5, "dateTime": 1510870966815, "trialdata": {"rt": 26802, "responses": "{\"Q0\":\"1:45am\",\"Q1\":\"10:30am\",\"Q2\":\"5\"}", "type": "SLEEP_SURVEY", "trial_type": "survey-text", "trial_index": 5, "time_elapsed": 62253, "internal_node_id": "0.0-5.0"}}, {"uniqueid": "MTK0436:34HJIJKLP6318T4TVWAVTR08B224VP", "current_trial": 6, "dateTime": 1510870997359, "trialdata": {"rt": 29543, "key_press": 13, "type": "INSTRUCTIONS", "trial_type": "text", "trial_index": 6, "time_elapsed": 92797, "internal_node_id": "0.0-6.0"}}, {"uniqueid": "MTK0436:34HJIJKLP6318T4TVWAVTR08B224VP", "current_trial": 7, "dateTime": 1510871016600, "trialdata": {"rt": 18737, "key_press": 13, "type": "INSTRUCTIONS", "trial_type": "text", "trial_index": 7, "time_elapsed": 112038, "internal_node_id": "0.0-7.0"}}, {"uniqueid": "MTK0436:34HJIJKLP6318T4TVWAVTR08B224VP", "current_trial": 8, "dateTime": 1510871027845, "trialdata": {"rt": 10742, "key_press": 32, "type": "INSTRUCTIONS", "trial_type": "text", "trial_index": 8, "time_elapsed": 123283, "internal_node_id": "0.0-8.0"}}, {"uniqueid": "MTK0436:34HJIJKLP6318T4TVWAVTR08B224VP", "current_trial": 9, "dateTime": 1510871046854, "trialdata": {"rt": [6199, 9414, 11510, 12958, 17301], "responses": ["20", "12", "10", "3", "14"], "num1": [5, 8, 6, 1, 1, 5], "num2": [7, 1, 2, 1, 8, 4], "num3": [8, 3, 2, 1, 5, 3], "type": "DISTRACTOR", "conditions": [18, 1200, "v", 18000], "trial": 0, "trial_type": "math-distractor", "trial_index": 9, "time_elapsed": 142292, "internal_node_id": "0.0-9.0"}}, {"uniqueid": "MTK0436:34HJIJKLP6318T4TVWAVTR08B224VP", "current_trial": 10, "dateTime": 1510871049860, "trialdata": {"rt": -1, "stimulus": "<p id=\"stim\">10</p>", "key_press": -1, "trial_type": "single-stim", "trial_index": 10, "time_elapsed": 145298, "internal_node_id": "0.0-10.0-0.0"}}, {"uniqueid": "MTK0436:34HJIJKLP6318T4TVWAVTR08B224VP", "current_trial": 11, "dateTime": 1510871050864, "trialdata": {"rt": -1, "stimulus": "<p id=\"stim\">9</p>", "key_press": -1, "trial_type": "single-stim", "trial_index": 11, "time_elapsed": 146302, "internal_node_id": "0.0-10.0-1.0"}}, {"uniqueid": "MTK0436:34HJIJKLP6318T4TVWAVTR08B224VP", "current_trial": 12, "dateTime": 1510871051868, "trialdata": {"rt": -1, "stimulus": "<p id=\"stim\">8</p>", "key_press": -1, "trial_type": "single-stim", "trial_index": 12, "time_elapsed": 147306, "internal_node_id": "0.0-10.0-2.0"}}, {"uniqueid": "MTK0436:34HJIJKLP6318T4TVWAVTR08B224VP", "current_trial": 13, "dateTime": 1510871052872, "trialdata": {"rt": -1, "stimulus": "<p id=\"stim\">7</p>", "key_press": -1, "trial_type": "single-stim", "trial_index": 13, "time_elapsed": 148310, "internal_node_id": "0.0-10.0-3.0"}}, {"uniqueid": "MTK0436:34HJIJKLP6318T4TVWAVTR08B224VP", "current_trial": 14, "dateTime": 1510871053876, "trialdata": {"rt": -1, "stimulus": "<p id=\"stim\">6</p>", "key_press": -1, "trial_type": "single-stim", "trial_index": 14, "time_elapsed": 149314, "internal_node_id": "0.0-10.0-4.0"}}, {"uniqueid": "MTK0436:34HJIJKLP6318T4TVWAVTR08B224VP", "current_trial": 15, "dateTime": 1510871054880, "trialdata": {"rt": -1, "stimulus": "<p id=\"stim\">5</p>", "key_press": -1, "trial_type": "single-stim", "trial_index": 15, "time_elapsed": 150318, "internal_node_id": "0.0-10.0-5.0"}}, {"uniqueid": "MTK0436:34HJIJKLP6318T4TVWAVTR08B224VP", "current_trial": 16, "dateTime": 1510871055884, "trialdata": {"rt": -1, "stimulus": "<p id=\"stim\">4</p>", "key_press": -1, "trial_type": "single-stim", "trial_index": 16, "time_elapsed": 151322, "internal_node_id": "0.0-10.0-6.0"}}, {"uniqueid": "MTK0436:34HJIJKLP6318T4TVWAVTR08B224VP", "current_trial": 17, "dateTime": 1510871056888, "trialdata": {"rt": -1, "stimulus": "<p id=\"stim\">3</p>", "key_press": -1, "trial_type": "single-stim", "trial_index": 17, "time_elapsed": 152326, "internal_node_id": "0.0-10.0-7.0"}}, {"uniqueid": "MTK0436:34HJIJKLP6318T4TVWAVTR08B224VP", "current_trial": 18, "dateTime": 1510871057893, "trialdata": {"rt": -1, "stimulus": "<p id=\"stim\">2</p>", "key_press": -1, "trial_type": "single-stim", "trial_index": 18, "time_elapsed": 153331, "internal_node_id": "0.0-10.0-8.0"}}, {"uniqueid": "MTK0436:34HJIJKLP6318T4TVWAVTR08B224VP", "current_trial": 19, "dateTime": 1510871058896, "trialdata": {"rt": -1, "stimulus": "<p id=\"stim\">1</p>", "key_press": -1, "trial_type": "single-stim", "trial_index": 19, "time_elapsed": 154334, "internal_node_id": "0.0-10.0-9.0"}}, {"uniqueid": "MTK0436:34HJIJKLP6318T4TVWAVTR08B224VP", "current_trial": 20, "dateTime": 1510871060400, "trialdata": {"rt": -1, "stimulus": "<p id=\"stim\">+</p>", "key_press": -1, "type": "FIXATION", "trial_type": "single-stim", "trial_index": 20, "time_elapsed": 155838, "internal_node_id": "0.0-11.0-0.0"}}, {"uniqueid": "MTK0436:34HJIJKLP6318T4TVWAVTR08B224VP", "current_trial": 21, "dateTime": 1510871061601, "trialdata": {"rt": -1, "stimulus": "<p id=\"stim\">BRIEFCASE</p>", "key_press": -1, "type": "PRES_VIS", "word": "briefcase", "wordID": 174, "conditions": [18, 1200, "v", 18000], "trial": 0, "serialpos": 0, "trial_type": "single-stim", "trial_index": 21, "time_elapsed": 157039, "internal_node_id": "0.0-12.0"}}, {"uniqueid": "MTK0436:34HJIJKLP6318T4TVWAVTR08B224VP", "current_trial": 22, "dateTime": 1510871063865, "trialdata": {"rt": -1, "stimulus": "<p id=\"stim\">CLAMP</p>", "key_press": -1, "type": "PRES_VIS", "word": "clamp", "wordID": 315, "conditions": [18, 1200, "v", 18000], "trial": 0, "serialpos": 1, "trial_type": "single-stim", "trial_index": 22, "time_elapsed": 159302, "internal_node_id": "0.0-13.0"}}, {"uniqueid": "MTK0436:34HJIJKLP6318T4TVWAVTR08B224VP", "current_trial": 23, "dateTime": 1510871065989, "trialdata": {"rt": -1, "stimulus": "<p id=\"stim\">GYMNAST</p>", "key_press": -1, "type": "PRES_VIS", "word": "gymnast", "wordID": 674, "conditions": [18, 1200, "v", 18000], "trial": 0, "serialpos": 2, "trial_type": "single-stim", "trial_index": 23, "time_elapsed": 161427, "internal_node_id": "0.0-14.0"}}, {"uniqueid": "MTK0436:34HJIJKLP6318T4TVWAVTR08B224VP", "current_trial": 24, "dateTime": 1510871068217, "trialdata": {"rt": -1, "stimulus": "<p id=\"stim\">TAXI</p>", "key_press": -1, "type": "PRES_VIS", "word": "taxi", "wordID": 1437, "conditions": [18, 1200, "v", 18000], "trial": 0, "serialpos": 3, "trial_type": "single-stim", "trial_index": 24, "time_elapsed": 163655, "internal_node_id": "0.0-15.0"}}, {"uniqueid": "MTK0436:34HJIJKLP6318T4TVWAVTR08B224VP", "current_trial": 25, "dateTime": 1510871070263, "trialdata": {"rt": -1, "stimulus": "<p id=\"stim\">MOTEL</p>", "key_press": -1, "type": "PRES_VIS", "word": "motel", "wordID": 918, "conditions": [18, 1200, "v", 18000], "trial": 0, "serialpos": 4, "trial_type": "single-stim", "trial_index": 25, "time_elapsed": 165701, "internal_node_id": "0.0-16.0"}}, {"uniqueid": "MTK0436:34HJIJKLP6318T4TVWAVTR08B224VP", "current_trial": 26, "dateTime": 1510871072290, "trialdata": {"rt": -1, "stimulus": "<p id=\"stim\">MAMMAL</p>", "key_press": -1, "type": "PRES_VIS", "word": "mammal", "wordID": 860, "conditions": [18, 1200, "v", 18000], "trial": 0, "serialpos": 5, "trial_type": "single-stim", "trial_index": 26, "time_elapsed": 167727, "internal_node_id": "0.0-17.0"}}, {"uniqueid": "MTK0436:34HJIJKLP6318T4TVWAVTR08B224VP", "current_trial": 27, "dateTime": 1510871074335, "trialdata": {"rt": -1, "stimulus": "<p id=\"stim\">DORM</p>", "key_press": -1, "type": "PRES_VIS", "word": "dorm", "wordID": 487, "conditions": [18, 1200, "v", 18000], "trial": 0, "serialpos": 6, "trial_type": "single-stim", "trial_index": 27, "time_elapsed": 169773, "internal_node_id": "0.0-18.0"}}, {"uniqueid": "MTK0436:34HJIJKLP6318T4TVWAVTR08B224VP", "current_trial": 28, "dateTime": 1510871076557, "trialdata": {"rt": -1, "stimulus": "<p id=\"stim\">PIGMENT</p>", "key_press": -1, "type": "PRES_VIS", "word": "pigment", "wordID": 1065, "conditions": [18, 1200, "v", 18000], "trial": 0, "serialpos": 7, "trial_type": "single-stim", "trial_index": 28, "time_elapsed": 171995, "internal_node_id": "0.0-19.0"}}, {"uniqueid": "MTK0436:34HJIJKLP6318T4TVWAVTR08B224VP", "current_trial": 29, "dateTime": 1510871078827, "trialdata": {"rt": -1, "stimulus": "<p id=\"stim\">BOUQUET</p>", "key_press": -1, "type": "PRES_VIS", "word": "bouquet", "wordID": 156, "conditions": [18, 1200, "v", 18000], "trial": 0, "serialpos": 8, "trial_type": "single-stim", "trial_index": 29, "time_elapsed": 174265, "internal_node_id": "0.0-20.0"}}, {"uniqueid": "MTK0436:34HJIJKLP6318T4TVWAVTR08B224VP", "current_trial": 30, "dateTime": 1510871080916, "trialdata": {"rt": -1, "stimulus": "<p id=\"stim\">FIREMAN</p>", "key_press": -1, "type": "PRES_VIS", "word": "fireman", "wordID": 568, "conditions": [18, 1200, "v", 18000], "trial": 0, "serialpos": 9, "trial_type": "single-stim", "trial_index": 30, "time_elapsed": 176354, "internal_node_id": "0.0-21.0"}}, {"uniqueid": "MTK0436:34HJIJKLP6318T4TVWAVTR08B224VP", "current_trial": 31, "dateTime": 1510871083254, "trialdata": {"rt": -1, "stimulus": "<p id=\"stim\">RIVER</p>", "key_press": -1, "type": "PRES_VIS", "word": "river", "wordID": 1193, "conditions": [18, 1200, "v", 18000], "trial": 0, "serialpos": 10, "trial_type": "single-stim", "trial_index": 31, "time_elapsed": 178692, "internal_node_id": "0.0-22.0"}}, {"uniqueid": "MTK0436:34HJIJKLP6318T4TVWAVTR08B224VP", "current_trial": 32, "dateTime": 1510871085281, "trialdata": {"rt": -1, "stimulus": "<p id=\"stim\">GARBAGE</p>", "key_press": -1, "type": "PRES_VIS", "word": "garbage", "wordID": 621, "conditions": [18, 1200, "v", 18000], "trial": 0, "serialpos": 11, "trial_type": "single-stim", "trial_index": 32, "time_elapsed": 180719, "internal_node_id": "0.0-23.0"}}, {"uniqueid": "MTK0436:34HJIJKLP6318T4TVWAVTR08B224VP", "current_trial": 33, "dateTime": 1510871087312, "trialdata": {"rt": -1, "stimulus": "<p id=\"stim\">SHARK</p>", "key_press": -1, "type": "PRES_VIS", "word": "shark", "wordID": 1274, "conditions": [18, 1200, "v", 18000], "trial": 0, "serialpos": 12, "trial_type": "single-stim", "trial_index": 33, "time_elapsed": 182750, "internal_node_id": "0.0-24.0"}}, {"uniqueid": "MTK0436:34HJIJKLP6318T4TVWAVTR08B224VP", "current_trial": 34, "dateTime": 1510871089430, "trialdata": {"rt": -1, "stimulus": "<p id=\"stim\">PUDDING</p>", "key_press": -1, "type": "PRES_VIS", "word": "pudding", "wordID": 1138, "conditions": [18, 1200, "v", 18000], "trial": 0, "serialpos": 13, "trial_type": "single-stim", "trial_index": 34, "time_elapsed": 184868, "internal_node_id": "0.0-25.0"}}, {"uniqueid": "MTK0436:34HJIJKLP6318T4TVWAVTR08B224VP", "current_trial": 35, "dateTime": 1510871091833, "trialdata": {"rt": -1, "stimulus": "<p id=\"stim\">PAPER</p>", "key_press": -1, "type": "PRES_VIS", "word": "paper", "wordID": 1010, "conditions": [18, 1200, "v", 18000], "trial": 0, "serialpos": 14, "trial_type": "single-stim", "trial_index": 35, "time_elapsed": 187271, "internal_node_id": "0.0-26.0"}}, {"uniqueid": "MTK0436:34HJIJKLP6318T4TVWAVTR08B224VP", "current_trial": 36, "dateTime": 1510871093946, "trialdata": {"rt": -1, "stimulus": "<p id=\"stim\">ROOSTER</p>", "key_press": -1, "type": "PRES_VIS", "word": "rooster", "wordID": 1208, "conditions": [18, 1200, "v", 18000], "trial": 0, "serialpos": 15, "trial_type": "single-stim", "trial_index": 36, "time_elapsed": 189384, "internal_node_id": "0.0-27.0"}}, {"uniqueid": "MTK0436:34HJIJKLP6318T4TVWAVTR08B224VP", "current_trial": 37, "dateTime": 1510871096053, "trialdata": {"rt": -1, "stimulus": "<p id=\"stim\">PLUTO</p>", "key_press": -1, "type": "PRES_VIS", "word": "pluto", "wordID": 1091, "conditions": [18, 1200, "v", 18000], "trial": 0, "serialpos": 16, "trial_type": "single-stim", "trial_index": 37, "time_elapsed": 191491, "internal_node_id": "0.0-28.0"}}, {"uniqueid": "MTK0436:34HJIJKLP6318T4TVWAVTR08B224VP", "current_trial": 38, "dateTime": 1510871098066, "trialdata": {"rt": -1, "stimulus": "<p id=\"stim\">CHIPMUNK</p>", "key_press": -1, "type": "PRES_VIS", "word": "chipmunk", "wordID": 303, "conditions": [18, 1200, "v", 18000], "trial": 0, "serialpos": 17, "trial_type": "single-stim", "trial_index": 38, "time_elapsed": 193504, "internal_node_id": "0.0-29.0"}}, {"uniqueid": "MTK0436:34HJIJKLP6318T4TVWAVTR08B224VP", "current_trial": 39, "dateTime": 1510871100295, "trialdata": {"rt": -1, "stimulus": "", "key_press": -1, "type": "PRE_RECALL_DELAY", "trial_type": "single-stim", "trial_index": 39, "time_elapsed": 195733, "internal_node_id": "0.0-30.0-0.0"}}, {"uniqueid": "MTK0436:34HJIJKLP6318T4TVWAVTR08B224VP", "current_trial": 40, "dateTime": 1510871100798, "trialdata": {"rt": -1000, "stimulus": "/static/audio/400Hz.wav", "key_press": -1, "type": "PRE_RECALL_ALERT", "trial_type": "single-audio", "trial_index": 40, "time_elapsed": 196236, "internal_node_id": "0.0-31.0"}}, {"uniqueid": "MTK0436:34HJIJKLP6318T4TVWAVTR08B224VP", "current_trial": 41, "dateTime": 1510871160801, "trialdata": {"rt": [2142, 3998, 5350, 7774, 11278, 13414, 20707, 32237, 32740, 32827, 32914, 33001, 50222, 50742, 50894, 51150, 51302, 51478, 51582, 51726, 51814, 51918, 52062, 52158, 52286, 52374, 52501, 52582, 52710, 52790, 52910, 52998, 53118, 53214, 53334, 53398, 53542, 53574], "recwords": ["gymnast", "garbage", "clamp", "briefcase", "monkey", "", "wedding", "", "", "", "", "", "", "", "", "", "", "", "", "", "", "", "", "", "", "", "", "", "", "", "", "", "", "", "", "", "", ""], "type": "FREE_RECALL", "conditions": [18, 1200, "v", 18000], "trial": 0, "trial_type": "free-recall", "trial_index": 41, "time_elapsed": 256237, "internal_node_id": "0.0-32.0-0.0"}}, {"uniqueid": "MTK0436:34HJIJKLP6318T4TVWAVTR08B224VP", "current_trial": 42, "dateTime": 1510871164423, "trialdata": {"rt": 1616, "key_press": 76, "type": "INSTRUCTIONS", "trial_type": "text", "trial_index": 42, "time_elapsed": 259861, "internal_node_id": "0.0-33.0"}}, {"uniqueid": "MTK0436:34HJIJKLP6318T4TVWAVTR08B224VP", "current_trial": 43, "dateTime": 1510871184432, "trialdata": {"rt": [4862, 6638, 10714, 17608], "responses": ["16", "17", "18", "19"], "num1": [8, 1, 1, 6, 5], "num2": [7, 8, 7, 8, 8], "num3": [1, 8, 9, 7, 5], "type": "DISTRACTOR", "conditions": [18, 1200, "a", 18000], "trial": 1, "trial_type": "math-distractor", "trial_index": 43, "time_elapsed": 279870, "internal_node_id": "0.0-34.0"}}, {"uniqueid": "MTK0436:34HJIJKLP6318T4TVWAVTR08B224VP", "current_trial": 44, "dateTime": 1510871187438, "trialdata": {"rt": -1, "stimulus": "<p id=\"stim\">10</p>", "key_press": -1, "trial_type": "single-stim", "trial_index": 44, "time_elapsed": 282876, "internal_node_id": "0.0-35.0-0.0"}}, {"uniqueid": "MTK0436:34HJIJKLP6318T4TVWAVTR08B224VP", "current_trial": 45, "dateTime": 1510871188442, "trialdata": {"rt": -1, "stimulus": "<p id=\"stim\">9</p>", "key_press": -1, "trial_type": "single-stim", "trial_index": 45, "time_elapsed": 283880, "internal_node_id": "0.0-35.0-1.0"}}, {"uniqueid": "MTK0436:34HJIJKLP6318T4TVWAVTR08B224VP", "current_trial": 46, "dateTime": 1510871189446, "trialdata": {"rt": -1, "stimulus": "<p id=\"stim\">8</p>", "key_press": -1, "trial_type": "single-stim", "trial_index": 46, "time_elapsed": 284884, "internal_node_id": "0.0-35.0-2.0"}}, {"uniqueid": "MTK0436:34HJIJKLP6318T4TVWAVTR08B224VP", "current_trial": 47, "dateTime": 1510871190450, "trialdata": {"rt": -1, "stimulus": "<p id=\"stim\">7</p>", "key_press": -1, "trial_type": "single-stim", "trial_index": 47, "time_elapsed": 285888, "internal_node_id": "0.0-35.0-3.0"}}, {"uniqueid": "MTK0436:34HJIJKLP6318T4TVWAVTR08B224VP", "current_trial": 48, "dateTime": 1510871191454, "trialdata": {"rt": -1, "stimulus": "<p id=\"stim\">6</p>", "key_press": -1, "trial_type": "single-stim", "trial_index": 48, "time_elapsed": 286892, "internal_node_id": "0.0-35.0-4.0"}}, {"uniqueid": "MTK0436:34HJIJKLP6318T4TVWAVTR08B224VP", "current_trial": 49, "dateTime": 1510871192458, "trialdata": {"rt": -1, "stimulus": "<p id=\"stim\">5</p>", "key_press": -1, "trial_type": "single-stim", "trial_index": 49, "time_elapsed": 287896, "internal_node_id": "0.0-35.0-5.0"}}, {"uniqueid": "MTK0436:34HJIJKLP6318T4TVWAVTR08B224VP", "current_trial": 50, "dateTime": 1510871193462, "trialdata": {"rt": -1, "stimulus": "<p id=\"stim\">4</p>", "key_press": -1, "trial_type": "single-stim", "trial_index": 50, "time_elapsed": 288900, "internal_node_id": "0.0-35.0-6.0"}}, {"uniqueid": "MTK0436:34HJIJKLP6318T4TVWAVTR08B224VP", "current_trial": 51, "dateTime": 1510871194466, "trialdata": {"rt": -1, "stimulus": "<p id=\"stim\">3</p>", "key_press": -1, "trial_type": "single-stim", "trial_index": 51, "time_elapsed": 289904, "internal_node_id": "0.0-35.0-7.0"}}, {"uniqueid": "MTK0436:34HJIJKLP6318T4TVWAVTR08B224VP", "current_trial": 52, "dateTime": 1510871195471, "trialdata": {"rt": -1, "stimulus": "<p id=\"stim\">2</p>", "key_press": -1, "trial_type": "single-stim", "trial_index": 52, "time_elapsed": 290908, "internal_node_id": "0.0-35.0-8.0"}}, {"uniqueid": "MTK0436:34HJIJKLP6318T4TVWAVTR08B224VP", "current_trial": 53, "dateTime": 1510871196475, "trialdata": {"rt": -1, "stimulus": "<p id=\"stim\">1</p>", "key_press": -1, "trial_type": "single-stim", "trial_index": 53, "time_elapsed": 291912, "internal_node_id": "0.0-35.0-9.0"}}, {"uniqueid": "MTK0436:34HJIJKLP6318T4TVWAVTR08B224VP", "current_trial": 54, "dateTime": 1510871197978, "trialdata": {"rt": -1, "stimulus": "<p id=\"stim\">+</p>", "key_press": -1, "type": "FIXATION", "trial_type": "single-stim", "trial_index": 54, "time_elapsed": 293416, "internal_node_id": "0.0-36.0-0.0"}}, {"uniqueid": "MTK0436:34HJIJKLP6318T4TVWAVTR08B224VP", "current_trial": 55, "dateTime": 1510871200053, "trialdata": {"rt": -1000, "stimulus": "/static/audio/wordpool/CAPTIVE.wav", "key_press": -1, "type": "PRES_AUD", "word": "captive", "wordID": 239, "conditions": [18, 1200, "a", 18000], "trial": 1, "serialpos": 0, "trial_type": "single-audio", "trial_index": 55, "time_elapsed": 295491, "internal_node_id": "0.0-37.0"}}, {"uniqueid": "MTK0436:34HJIJKLP6318T4TVWAVTR08B224VP", "current_trial": 56, "dateTime": 1510871202305, "trialdata": {"rt": -1000, "stimulus": "/static/audio/wordpool/PICNIC.wav", "key_press": -1, "type": "PRES_AUD", "word": "picnic", "wordID": 1059, "conditions": [18, 1200, "a", 18000], "trial": 1, "serialpos": 1, "trial_type": "single-audio", "trial_index": 56, "time_elapsed": 297743, "internal_node_id": "0.0-38.0"}}, {"uniqueid": "MTK0436:34HJIJKLP6318T4TVWAVTR08B224VP", "current_trial": 57, "dateTime": 1510871204691, "trialdata": {"rt": -1000, "stimulus": "/static/audio/wordpool/YACHT.wav", "key_press": -1, "type": "PRES_AUD", "word": "yacht", "wordID": 1628, "conditions": [18, 1200, "a", 18000], "trial": 1, "serialpos": 2, "trial_type": "single-audio", "trial_index": 57, "time_elapsed": 300129, "internal_node_id": "0.0-39.0"}}, {"uniqueid": "MTK0436:34HJIJKLP6318T4TVWAVTR08B224VP", "current_trial": 58, "dateTime": 1510871207019, "trialdata": {"rt": -1000, "stimulus": "/static/audio/wordpool/AIRPLANE.wav", "key_press": -1, "type": "PRES_AUD", "word": "airplane", "wordID": 11, "conditions": [18, 1200, "a", 18000], "trial": 1, "serialpos": 3, "trial_type": "single-audio", "trial_index": 58, "time_elapsed": 302457, "internal_node_id": "0.0-40.0"}}, {"uniqueid": "MTK0436:34HJIJKLP6318T4TVWAVTR08B224VP", "current_trial": 59, "dateTime": 1510871209347, "trialdata": {"rt": -1000, "stimulus": "/static/audio/wordpool/KLEENEX.wav", "key_press": -1, "type": "PRES_AUD", "word": "kleenex", "wordID": 781, "conditions": [18, 1200, "a", 18000], "trial": 1, "serialpos": 4, "trial_type": "single-audio", "trial_index": 59, "time_elapsed": 304785, "internal_node_id": "0.0-41.0"}}, {"uniqueid": "MTK0436:34HJIJKLP6318T4TVWAVTR08B224VP", "current_trial": 60, "dateTime": 1510871211489, "trialdata": {"rt": -1000, "stimulus": "/static/audio/wordpool/PASSAGE.wav", "key_press": -1, "type": "PRES_AUD", "word": "passage", "wordID": 1018, "conditions": [18, 1200, "a", 18000], "trial": 1, "serialpos": 5, "trial_type": "single-audio", "trial_index": 60, "time_elapsed": 306926, "internal_node_id": "0.0-42.0"}}, {"uniqueid": "MTK0436:34HJIJKLP6318T4TVWAVTR08B224VP", "current_trial": 61, "dateTime": 1510871213735, "trialdata": {"rt": -1000, "stimulus": "/static/audio/wordpool/RECORD.wav", "key_press": -1, "type": "PRES_AUD", "word": "record", "wordID": 1175, "conditions": [18, 1200, "a", 18000], "trial": 1, "serialpos": 6, "trial_type": "single-audio", "trial_index": 61, "time_elapsed": 309173, "internal_node_id": "0.0-43.0"}}, {"uniqueid": "MTK0436:34HJIJKLP6318T4TVWAVTR08B224VP", "current_trial": 62, "dateTime": 1510871215923, "trialdata": {"rt": -1000, "stimulus": "/static/audio/wordpool/WITNESS.wav", "key_press": -1, "type": "PRES_AUD", "word": "witness", "wordID": 1617, "conditions": [18, 1200, "a", 18000], "trial": 1, "serialpos": 7, "trial_type": "single-audio", "trial_index": 62, "time_elapsed": 311361, "internal_node_id": "0.0-44.0"}}, {"uniqueid": "MTK0436:34HJIJKLP6318T4TVWAVTR08B224VP", "current_trial": 63, "dateTime": 1510871218240, "trialdata": {"rt": -1000, "stimulus": "/static/audio/wordpool/JUNGLE.wav", "key_press": -1, "type": "PRES_AUD", "word": "jungle", "wordID": 763, "conditions": [18, 1200, "a", 18000], "trial": 1, "serialpos": 8, "trial_type": "single-audio", "trial_index": 63, "time_elapsed": 313678, "internal_node_id": "0.0-45.0"}}, {"uniqueid": "MTK0436:34HJIJKLP6318T4TVWAVTR08B224VP", "current_trial": 64, "dateTime": 1510871220434, "trialdata": {"rt": -1000, "stimulus": "/static/audio/wordpool/CASHIER.wav", "key_press": -1, "type": "PRES_AUD", "word": "cashier", "wordID": 253, "conditions": [18, 1200, "a", 18000], "trial": 1, "serialpos": 9, "trial_type": "single-audio", "trial_index": 64, "time_elapsed": 315872, "internal_node_id": "0.0-46.0"}}, {"uniqueid": "MTK0436:34HJIJKLP6318T4TVWAVTR08B224VP", "current_trial": 65, "dateTime": 1510871222436, "trialdata": {"rt": -1000, "stimulus": "/static/audio/wordpool/BASEMENT.wav", "key_press": -1, "type": "PRES_AUD", "word": "basement", "wordID": 93, "conditions": [18, 1200, "a", 18000], "trial": 1, "serialpos": 10, "trial_type": "single-audio", "trial_index": 65, "time_elapsed": 317874, "internal_node_id": "0.0-47.0"}}, {"uniqueid": "MTK0436:34HJIJKLP6318T4TVWAVTR08B224VP", "current_trial": 66, "dateTime": 1510871224521, "trialdata": {"rt": -1000, "stimulus": "/static/audio/wordpool/FRAME.wav", "key_press": -1, "type": "PRES_AUD", "word": "frame", "wordID": 599, "conditions": [18, 1200, "a", 18000], "trial": 1, "serialpos": 11, "trial_type": "single-audio", "trial_index": 66, "time_elapsed": 319958, "internal_node_id": "0.0-48.0"}}, {"uniqueid": "MTK0436:34HJIJKLP6318T4TVWAVTR08B224VP", "current_trial": 67, "dateTime": 1510871226599, "trialdata": {"rt": -1000, "stimulus": "/static/audio/wordpool/VALVE.wav", "key_press": -1, "type": "PRES_AUD", "word": "valve", "wordID": 1545, "conditions": [18, 1200, "a", 18000], "trial": 1, "serialpos": 12, "trial_type": "single-audio", "trial_index": 67, "time_elapsed": 322037, "internal_node_id": "0.0-49.0"}}, {"uniqueid": "MTK0436:34HJIJKLP6318T4TVWAVTR08B224VP", "current_trial": 68, "dateTime": 1510871228631, "trialdata": {"rt": -1000, "stimulus": "/static/audio/wordpool/KETCHUP.wav", "key_press": -1, "type": "PRES_AUD", "word": "ketchup", "wordID": 770, "conditions": [18, 1200, "a", 18000], "trial": 1, "serialpos": 13, "trial_type": "single-audio", "trial_index": 68, "time_elapsed": 324068, "internal_node_id": "0.0-50.0"}}, {"uniqueid": "MTK0436:34HJIJKLP6318T4TVWAVTR08B224VP", "current_trial": 69, "dateTime": 1510871230941, "trialdata": {"rt": -1000, "stimulus": "/static/audio/wordpool/TRANSPLANT.wav", "key_press": -1, "type": "PRES_AUD", "word": "transplant", "wordID": 1495, "conditions": [18, 1200, "a", 18000], "trial": 1, "serialpos": 14, "trial_type": "single-audio", "trial_index": 69, "time_elapsed": 326378, "internal_node_id": "0.0-51.0"}}, {"uniqueid": "MTK0436:34HJIJKLP6318T4TVWAVTR08B224VP", "current_trial": 70, "dateTime": 1510871233338, "trialdata": {"rt": -1000, "stimulus": "/static/audio/wordpool/OMELET.wav", "key_press": -1, "type": "PRES_AUD", "word": "omelet", "wordID": 975, "conditions": [18, 1200, "a", 18000], "trial": 1, "serialpos": 15, "trial_type": "single-audio", "trial_index": 70, "time_elapsed": 328776, "internal_node_id": "0.0-52.0"}}, {"uniqueid": "MTK0436:34HJIJKLP6318T4TVWAVTR08B224VP", "current_trial": 71, "dateTime": 1510871235445, "trialdata": {"rt": -1000, "stimulus": "/static/audio/wordpool/MASK.wav", "key_press": -1, "type": "PRES_AUD", "word": "mask", "wordID": 875, "conditions": [18, 1200, "a", 18000], "trial": 1, "serialpos": 16, "trial_type": "single-audio", "trial_index": 71, "time_elapsed": 330883, "internal_node_id": "0.0-53.0"}}, {"uniqueid": "MTK0436:34HJIJKLP6318T4TVWAVTR08B224VP", "current_trial": 72, "dateTime": 1510871237622, "trialdata": {"rt": -1000, "stimulus": "/static/audio/wordpool/STREAM.wav", "key_press": -1, "type": "PRES_AUD", "word": "stream", "wordID": 1391, "conditions": [18, 1200, "a", 18000], "trial": 1, "serialpos": 17, "trial_type": "single-audio", "trial_index": 72, "time_elapsed": 333060, "internal_node_id": "0.0-54.0"}}, {"uniqueid": "MTK0436:34HJIJKLP6318T4TVWAVTR08B224VP", "current_trial": 73, "dateTime": 1510871238853, "trialdata": {"rt": -1, "stimulus": "", "key_press": -1, "type": "PRE_RECALL_DELAY", "trial_type": "single-stim", "trial_index": 73, "time_elapsed": 334290, "internal_node_id": "0.0-55.0-0.0"}}, {"uniqueid": "MTK0436:34HJIJKLP6318T4TVWAVTR08B224VP", "current_trial": 74, "dateTime": 1510871239354, "trialdata": {"rt": -1000, "stimulus": "/static/audio/400Hz.wav", "key_press": -1, "type": "PRE_RECALL_ALERT", "trial_type": "single-audio", "trial_index": 74, "time_elapsed": 334792, "internal_node_id": "0.0-56.0"}}, {"uniqueid": "MTK0436:34HJIJKLP6318T4TVWAVTR08B224VP", "current_trial": 75, "dateTime": 1510871299379, "trialdata": {"rt": [1879, 3655, 6327, 7671, 9415, 12791], "recwords": ["stream", "omellete", "mask", "pickup", "river", "clamp"], "type": "FREE_RECALL", "conditions": [18, 1200, "a", 18000], "trial": 1, "trial_type": "free-recall", "trial_index": 75, "time_elapsed": 394815, "internal_node_id": "0.0-57.0-0.0"}}, {"uniqueid": "MTK0436:34HJIJKLP6318T4TVWAVTR08B224VP", "current_trial": 76, "dateTime": 1510871313202, "trialdata": {"rt": 11738, "key_press": 32, "type": "INSTRUCTIONS", "trial_type": "text", "trial_index": 76, "time_elapsed": 408635, "internal_node_id": "0.0-58.0"}}, {"uniqueid": "MTK0436:34HJIJKLP6318T4TVWAVTR08B224VP", "current_trial": 77, "dateTime": 1510871326210, "trialdata": {"rt": [5222, 6950, 11435], "responses": ["25", "10", "18"], "num1": [9, 1, 4, 3], "num2": [8, 1, 8, 1], "num3": [8, 8, 7, 6], "type": "DISTRACTOR", "conditions": [24, 1600, "a", 12000], "trial": 2, "trial_type": "math-distractor", "trial_index": 77, "time_elapsed": 421648, "internal_node_id": "0.0-59.0"}}, {"uniqueid": "MTK0436:34HJIJKLP6318T4TVWAVTR08B224VP", "current_trial": 78, "dateTime": 1510871329219, "trialdata": {"rt": -1, "stimulus": "<p id=\"stim\">10</p>", "key_press": -1, "trial_type": "single-stim", "trial_index": 78, "time_elapsed": 424656, "internal_node_id": "0.0-60.0-0.0"}}, {"uniqueid": "MTK0436:34HJIJKLP6318T4TVWAVTR08B224VP", "current_trial": 79, "dateTime": 1510871330223, "trialdata": {"rt": -1, "stimulus": "<p id=\"stim\">9</p>", "key_press": -1, "trial_type": "single-stim", "trial_index": 79, "time_elapsed": 425661, "internal_node_id": "0.0-60.0-1.0"}}, {"uniqueid": "MTK0436:34HJIJKLP6318T4TVWAVTR08B224VP", "current_trial": 80, "dateTime": 1510871331227, "trialdata": {"rt": -1, "stimulus": "<p id=\"stim\">8</p>", "key_press": -1, "trial_type": "single-stim", "trial_index": 80, "time_elapsed": 426665, "internal_node_id": "0.0-60.0-2.0"}}, {"uniqueid": "MTK0436:34HJIJKLP6318T4TVWAVTR08B224VP", "current_trial": 81, "dateTime": 1510871332231, "trialdata": {"rt": -1, "stimulus": "<p id=\"stim\">7</p>", "key_press": -1, "trial_type": "single-stim", "trial_index": 81, "time_elapsed": 427669, "internal_node_id": "0.0-60.0-3.0"}}, {"uniqueid": "MTK0436:34HJIJKLP6318T4TVWAVTR08B224VP", "current_trial": 82, "dateTime": 1510871333235, "trialdata": {"rt": -1, "stimulus": "<p id=\"stim\">6</p>", "key_press": -1, "trial_type": "single-stim", "trial_index": 82, "time_elapsed": 428673, "internal_node_id": "0.0-60.0-4.0"}}, {"uniqueid": "MTK0436:34HJIJKLP6318T4TVWAVTR08B224VP", "current_trial": 83, "dateTime": 1510871334239, "trialdata": {"rt": -1, "stimulus": "<p id=\"stim\">5</p>", "key_press": -1, "trial_type": "single-stim", "trial_index": 83, "time_elapsed": 429677, "internal_node_id": "0.0-60.0-5.0"}}, {"uniqueid": "MTK0436:34HJIJKLP6318T4TVWAVTR08B224VP", "current_trial": 84, "dateTime": 1510871335243, "trialdata": {"rt": -1, "stimulus": "<p id=\"stim\">4</p>", "key_press": -1, "trial_type": "single-stim", "trial_index": 84, "time_elapsed": 430681, "internal_node_id": "0.0-60.0-6.0"}}, {"uniqueid": "MTK0436:34HJIJKLP6318T4TVWAVTR08B224VP", "current_trial": 85, "dateTime": 1510871336247, "trialdata": {"rt": -1, "stimulus": "<p id=\"stim\">3</p>", "key_press": -1, "trial_type": "single-stim", "trial_index": 85, "time_elapsed": 431685, "internal_node_id": "0.0-60.0-7.0"}}, {"uniqueid": "MTK0436:34HJIJKLP6318T4TVWAVTR08B224VP", "current_trial": 86, "dateTime": 1510871337250, "trialdata": {"rt": -1, "stimulus": "<p id=\"stim\">2</p>", "key_press": -1, "trial_type": "single-stim", "trial_index": 86, "time_elapsed": 432688, "internal_node_id": "0.0-60.0-8.0"}}, {"uniqueid": "MTK0436:34HJIJKLP6318T4TVWAVTR08B224VP", "current_trial": 87, "dateTime": 1510871338255, "trialdata": {"rt": -1, "stimulus": "<p id=\"stim\">1</p>", "key_press": -1, "trial_type": "single-stim", "trial_index": 87, "time_elapsed": 433693, "internal_node_id": "0.0-60.0-9.0"}}, {"uniqueid": "MTK0436:34HJIJKLP6318T4TVWAVTR08B224VP", "current_trial": 88, "dateTime": 1510871339758, "trialdata": {"rt": -1, "stimulus": "<p id=\"stim\">+</p>", "key_press": -1, "type": "FIXATION", "trial_type": "single-stim", "trial_index": 88, "time_elapsed": 435196, "internal_node_id": "0.0-61.0-0.0"}}, {"uniqueid": "MTK0436:34HJIJKLP6318T4TVWAVTR08B224VP", "current_trial": 89, "dateTime": 1510871342480, "trialdata": {"rt": -1000, "stimulus": "/static/audio/wordpool/SCARECROW.wav", "key_press": -1, "type": "PRES_AUD", "word": "scarecrow", "wordID": 1244, "conditions": [24, 1600, "a", 12000], "trial": 2, "serialpos": 0, "trial_type": "single-audio", "trial_index": 89, "time_elapsed": 437918, "internal_node_id": "0.0-62.0"}}, {"uniqueid": "MTK0436:34HJIJKLP6318T4TVWAVTR08B224VP", "current_trial": 90, "dateTime": 1510871344960, "trialdata": {"rt": -1000, "stimulus": "/static/audio/wordpool/BULLET.wav", "key_press": -1, "type": "PRES_AUD", "word": "bullet", "wordID": 193, "conditions": [24, 1600, "a", 12000], "trial": 2, "serialpos": 1, "trial_type": "single-audio", "trial_index": 90, "time_elapsed": 440397, "internal_node_id": "0.0-63.0"}}, {"uniqueid": "MTK0436:34HJIJKLP6318T4TVWAVTR08B224VP", "current_trial": 91, "dateTime": 1510871347466, "trialdata": {"rt": -1000, "stimulus": "/static/audio/wordpool/CHAMPAGNE.wav", "key_press": -1, "type": "PRES_AUD", "word": "champagne", "wordID": 277, "conditions": [24, 1600, "a", 12000], "trial": 2, "serialpos": 2, "trial_type": "single-audio", "trial_index": 91, "time_elapsed": 442904, "internal_node_id": "0.0-64.0"}}, {"uniqueid": "MTK0436:34HJIJKLP6318T4TVWAVTR08B224VP", "current_trial": 92, "dateTime": 1510871350223, "trialdata": {"rt": -1000, "stimulus": "/static/audio/wordpool/ORCHID.wav", "key_press": -1, "type": "PRES_AUD", "word": "orchid", "wordID": 981, "conditions": [24, 1600, "a", 12000], "trial": 2, "serialpos": 3, "trial_type": "single-audio", "trial_index": 92, "time_elapsed": 445661, "internal_node_id": "0.0-65.0"}}, {"uniqueid": "MTK0436:34HJIJKLP6318T4TVWAVTR08B224VP", "current_trial": 93, "dateTime": 1510871352691, "trialdata": {"rt": -1000, "stimulus": "/static/audio/wordpool/GARDEN.wav", "key_press": -1, "type": "PRES_AUD", "word": "garden", "wordID": 622, "conditions": [24, 1600, "a", 12000], "trial": 2, "serialpos": 4, "trial_type": "single-audio", "trial_index": 93, "time_elapsed": 448128, "internal_node_id": "0.0-66.0"}}, {"uniqueid": "MTK0436:34HJIJKLP6318T4TVWAVTR08B224VP", "current_trial": 94, "dateTime": 1510871355459, "trialdata": {"rt": -1000, "stimulus": "/static/audio/wordpool/HIGHWAY.wav", "key_press": -1, "type": "PRES_AUD", "word": "highway", "wordID": 706, "conditions": [24, 1600, "a", 12000], "trial": 2, "serialpos": 5, "trial_type": "single-audio", "trial_index": 94, "time_elapsed": 450897, "internal_node_id": "0.0-67.0"}}, {"uniqueid": "MTK0436:34HJIJKLP6318T4TVWAVTR08B224VP", "current_trial": 95, "dateTime": 1510871358223, "trialdata": {"rt": -1000, "stimulus": "/static/audio/wordpool/CABIN.wav", "key_press": -1, "type": "PRES_AUD", "word": "cabin", "wordID": 210, "conditions": [24, 1600, "a", 12000], "trial": 2, "serialpos": 6, "trial_type": "single-audio", "trial_index": 95, "time_elapsed": 453660, "internal_node_id": "0.0-68.0"}}, {"uniqueid": "MTK0436:34HJIJKLP6318T4TVWAVTR08B224VP", "current_trial": 96, "dateTime": 1510871360718, "trialdata": {"rt": -1000, "stimulus": "/static/audio/wordpool/ISLAND.wav", "key_press": -1, "type": "PRES_AUD", "word": "island", "wordID": 744, "conditions": [24, 1600, "a", 12000], "trial": 2, "serialpos": 7, "trial_type": "single-audio", "trial_index": 96, "time_elapsed": 456156, "internal_node_id": "0.0-69.0"}}, {"uniqueid": "MTK0436:34HJIJKLP6318T4TVWAVTR08B224VP", "current_trial": 97, "dateTime": 1510871363186, "trialdata": {"rt": -1000, "stimulus": "/static/audio/wordpool/GRAPE.wav", "key_press": -1, "type": "PRES_AUD", "word": "grape", "wordID": 653, "conditions": [24, 1600, "a", 12000], "trial": 2, "serialpos": 8, "trial_type": "single-audio", "trial_index": 97, "time_elapsed": 458623, "internal_node_id": "0.0-70.0"}}, {"uniqueid": "MTK0436:34HJIJKLP6318T4TVWAVTR08B224VP", "current_trial": 98, "dateTime": 1510871365752, "trialdata": {"rt": -1000, "stimulus": "/static/audio/wordpool/HUMAN.wav", "key_press": -1, "type": "PRES_AUD", "word": "human", "wordID": 725, "conditions": [24, 1600, "a", 12000], "trial": 2, "serialpos": 9, "trial_type": "single-audio", "trial_index": 98, "time_elapsed": 461189, "internal_node_id": "0.0-71.0"}}, {"uniqueid": "MTK0436:34HJIJKLP6318T4TVWAVTR08B224VP", "current_trial": 99, "dateTime": 1510871368369, "trialdata": {"rt": -1000, "stimulus": "/static/audio/wordpool/HEDGE.wav", "key_press": -1, "type": "PRES_AUD", "word": "hedge", "wordID": 698, "conditions": [24, 1600, "a", 12000], "trial": 2, "serialpos": 10, "trial_type": "single-audio", "trial_index": 99, "time_elapsed": 463807, "internal_node_id": "0.0-72.0"}}, {"uniqueid": "MTK0436:34HJIJKLP6318T4TVWAVTR08B224VP", "current_trial": 100, "dateTime": 1510871371057, "trialdata": {"rt": -1000, "stimulus": "/static/audio/wordpool/COSTUME.wav", "key_press": -1, "type": "PRES_AUD", "word": "costume", "wordID": 382, "conditions": [24, 1600, "a", 12000], "trial": 2, "serialpos": 11, "trial_type": "single-audio", "trial_index": 100, "time_elapsed": 466494, "internal_node_id": "0.0-73.0"}}, {"uniqueid": "MTK0436:34HJIJKLP6318T4TVWAVTR08B224VP", "current_trial": 101, "dateTime": 1510871373617, "trialdata": {"rt": -1000, "stimulus": "/static/audio/wordpool/MUFFIN.wav", "key_press": -1, "type": "PRES_AUD", "word": "muffin", "wordID": 928, "conditions": [24, 1600, "a", 12000], "trial": 2, "serialpos": 12, "trial_type": "single-audio", "trial_index": 101, "time_elapsed": 469055, "internal_node_id": "0.0-74.0"}}, {"uniqueid": "MTK0436:34HJIJKLP6318T4TVWAVTR08B224VP", "current_trial": 102, "dateTime": 1510871376053, "trialdata": {"rt": -1000, "stimulus": "/static/audio/wordpool/TROMBONE.wav", "key_press": -1, "type": "PRES_AUD", "word": "trombone", "wordID": 1507, "conditions": [24, 1600, "a", 12000], "trial": 2, "serialpos": 13, "trial_type": "single-audio", "trial_index": 102, "time_elapsed": 471491, "internal_node_id": "0.0-75.0"}}, {"uniqueid": "MTK0436:34HJIJKLP6318T4TVWAVTR08B224VP", "current_trial": 103, "dateTime": 1510871378702, "trialdata": {"rt": -1000, "stimulus": "/static/audio/wordpool/HEADBAND.wav", "key_press": -1, "type": "PRES_AUD", "word": "headband", "wordID": 695, "conditions": [24, 1600, "a", 12000], "trial": 2, "serialpos": 14, "trial_type": "single-audio", "trial_index": 103, "time_elapsed": 474140, "internal_node_id": "0.0-76.0"}}, {"uniqueid": "MTK0436:34HJIJKLP6318T4TVWAVTR08B224VP", "current_trial": 104, "dateTime": 1510871381279, "trialdata": {"rt": -1000, "stimulus": "/static/audio/wordpool/DANCER.wav", "key_press": -1, "type": "PRES_AUD", "word": "dancer", "wordID": 436, "conditions": [24, 1600, "a", 12000], "trial": 2, "serialpos": 15, "trial_type": "single-audio", "trial_index": 104, "time_elapsed": 476717, "internal_node_id": "0.0-77.0"}}, {"uniqueid": "MTK0436:34HJIJKLP6318T4TVWAVTR08B224VP", "current_trial": 105, "dateTime": 1510871383851, "trialdata": {"rt": -1000, "stimulus": "/static/audio/wordpool/NIGHTGOWN.wav", "key_press": -1, "type": "PRES_AUD", "word": "nightgown", "wordID": 952, "conditions": [24, 1600, "a", 12000], "trial": 2, "serialpos": 16, "trial_type": "single-audio", "trial_index": 105, "time_elapsed": 479289, "internal_node_id": "0.0-78.0"}}, {"uniqueid": "MTK0436:34HJIJKLP6318T4TVWAVTR08B224VP", "current_trial": 106, "dateTime": 1510871386463, "trialdata": {"rt": -1000, "stimulus": "/static/audio/wordpool/PLIERS.wav", "key_press": -1, "type": "PRES_AUD", "word": "pliers", "wordID": 1088, "conditions": [24, 1600, "a", 12000], "trial": 2, "serialpos": 17, "trial_type": "single-audio", "trial_index": 106, "time_elapsed": 481901, "internal_node_id": "0.0-79.0"}}, {"uniqueid": "MTK0436:34HJIJKLP6318T4TVWAVTR08B224VP", "current_trial": 107, "dateTime": 1510871389168, "trialdata": {"rt": -1000, "stimulus": "/static/audio/wordpool/TWEEZERS.wav", "key_press": -1, "type": "PRES_AUD", "word": "tweezers", "wordID": 1525, "conditions": [24, 1600, "a", 12000], "trial": 2, "serialpos": 18, "trial_type": "single-audio", "trial_index": 107, "time_elapsed": 484606, "internal_node_id": "0.0-80.0"}}, {"uniqueid": "MTK0436:34HJIJKLP6318T4TVWAVTR08B224VP", "current_trial": 108, "dateTime": 1510871391891, "trialdata": {"rt": -1000, "stimulus": "/static/audio/wordpool/LAVA.wav", "key_press": -1, "type": "PRES_AUD", "word": "lava", "wordID": 803, "conditions": [24, 1600, "a", 12000], "trial": 2, "serialpos": 19, "trial_type": "single-audio", "trial_index": 108, "time_elapsed": 487329, "internal_node_id": "0.0-81.0"}}, {"uniqueid": "MTK0436:34HJIJKLP6318T4TVWAVTR08B224VP", "current_trial": 109, "dateTime": 1510871394394, "trialdata": {"rt": -1000, "stimulus": "/static/audio/wordpool/DOUGHNUT.wav", "key_press": -1, "type": "PRES_AUD", "word": "doughnut", "wordID": 489, "conditions": [24, 1600, "a", 12000], "trial": 2, "serialpos": 20, "trial_type": "single-audio", "trial_index": 109, "time_elapsed": 489832, "internal_node_id": "0.0-82.0"}}, {"uniqueid": "MTK0436:34HJIJKLP6318T4TVWAVTR08B224VP", "current_trial": 110, "dateTime": 1510871397015, "trialdata": {"rt": -1000, "stimulus": "/static/audio/wordpool/FRANCE.wav", "key_press": -1, "type": "PRES_AUD", "word": "france", "wordID": 600, "conditions": [24, 1600, "a", 12000], "trial": 2, "serialpos": 21, "trial_type": "single-audio", "trial_index": 110, "time_elapsed": 492453, "internal_node_id": "0.0-83.0"}}, {"uniqueid": "MTK0436:34HJIJKLP6318T4TVWAVTR08B224VP", "current_trial": 111, "dateTime": 1510871399547, "trialdata": {"rt": -1000, "stimulus": "/static/audio/wordpool/DIVER.wav", "key_press": -1, "type": "PRES_AUD", "word": "diver", "wordID": 475, "conditions": [24, 1600, "a", 12000], "trial": 2, "serialpos": 22, "trial_type": "single-audio", "trial_index": 111, "time_elapsed": 494985, "internal_node_id": "0.0-84.0"}}, {"uniqueid": "MTK0436:34HJIJKLP6318T4TVWAVTR08B224VP", "current_trial": 112, "dateTime": 1510871402217, "trialdata": {"rt": -1000, "stimulus": "/static/audio/wordpool/PLAYGROUND.wav", "key_press": -1, "type": "PRES_AUD", "word": "playground", "wordID": 1086, "conditions": [24, 1600, "a", 12000], "trial": 2, "serialpos": 23, "trial_type": "single-audio", "trial_index": 112, "time_elapsed": 497655, "internal_node_id": "0.0-85.0"}}, {"uniqueid": "MTK0436:34HJIJKLP6318T4TVWAVTR08B224VP", "current_trial": 113, "dateTime": 1510871403500, "trialdata": {"rt": -1, "stimulus": "", "key_press": -1, "type": "PRE_RECALL_DELAY", "trial_type": "single-stim", "trial_index": 113, "time_elapsed": 498938, "internal_node_id": "0.0-86.0-0.0"}}, {"uniqueid": "MTK0436:34HJIJKLP6318T4TVWAVTR08B224VP", "current_trial": 114, "dateTime": 1510871404002, "trialdata": {"rt": -1000, "stimulus": "/static/audio/400Hz.wav", "key_press": -1, "type": "PRE_RECALL_ALERT", "trial_type": "single-audio", "trial_index": 114, "time_elapsed": 499439, "internal_node_id": "0.0-87.0"}}, {"uniqueid": "MTK0436:34HJIJKLP6318T4TVWAVTR08B224VP", "current_trial": 115, "dateTime": 1510871464007, "trialdata": {"rt": [2354, 3699, 6419, 8379, 10875, 12386, 14954, 19970, 22131, 25266], "recwords": ["playground", "pliers", "tweezers", "doughnut", "orchid", "yacht", "bullet", "stairway", "clouds", "mask"], "type": "FREE_RECALL", "conditions": [24, 1600, "a", 12000], "trial": 2, "trial_type": "free-recall", "trial_index": 115, "time_elapsed": 559444, "internal_node_id": "0.0-88.0-0.0"}}, {"uniqueid": "MTK0436:34HJIJKLP6318T4TVWAVTR08B224VP", "current_trial": 116, "dateTime": 1510871468066, "trialdata": {"rt": 2053, "key_press": 32, "type": "INSTRUCTIONS", "trial_type": "text", "trial_index": 116, "time_elapsed": 563504, "internal_node_id": "0.0-89.0"}}, {"uniqueid": "MTK0436:34HJIJKLP6318T4TVWAVTR08B224VP", "current_trial": 117, "dateTime": 1510871494075, "trialdata": {"rt": [3258, 5618, 8346, 11298, 13658, 17311, 20279, 23199], "responses": ["21", "13", "15", "14", "11", "20", "16", "10"], "num1": [5, 3, 2, 5, 6, 5, 5, 4, 6], "num2": [8, 2, 8, 8, 1, 9, 1, 1, 3], "num3": [8, 8, 5, 1, 4, 6, 9, 5, 5], "type": "DISTRACTOR", "conditions": [24, 1600, "a", 24000], "trial": 3, "trial_type": "math-distractor", "trial_index": 117, "time_elapsed": 589513, "internal_node_id": "0.0-90.0"}}, {"uniqueid": "MTK0436:34HJIJKLP6318T4TVWAVTR08B224VP", "current_trial": 118, "dateTime": 1510871497081, "trialdata": {"rt": -1, "stimulus": "<p id=\"stim\">10</p>", "key_press": -1, "trial_type": "single-stim", "trial_index": 118, "time_elapsed": 592519, "internal_node_id": "0.0-91.0-0.0"}}, {"uniqueid": "MTK0436:34HJIJKLP6318T4TVWAVTR08B224VP", "current_trial": 119, "dateTime": 1510871498085, "trialdata": {"rt": -1, "stimulus": "<p id=\"stim\">9</p>", "key_press": -1, "trial_type": "single-stim", "trial_index": 119, "time_elapsed": 593523, "internal_node_id": "0.0-91.0-1.0"}}, {"uniqueid": "MTK0436:34HJIJKLP6318T4TVWAVTR08B224VP", "current_trial": 120, "dateTime": 1510871499089, "trialdata": {"rt": -1, "stimulus": "<p id=\"stim\">8</p>", "key_press": -1, "trial_type": "single-stim", "trial_index": 120, "time_elapsed": 594527, "internal_node_id": "0.0-91.0-2.0"}}, {"uniqueid": "MTK0436:34HJIJKLP6318T4TVWAVTR08B224VP", "current_trial": 121, "dateTime": 1510871500093, "trialdata": {"rt": -1, "stimulus": "<p id=\"stim\">7</p>", "key_press": -1, "trial_type": "single-stim", "trial_index": 121, "time_elapsed": 595531, "internal_node_id": "0.0-91.0-3.0"}}, {"uniqueid": "MTK0436:34HJIJKLP6318T4TVWAVTR08B224VP", "current_trial": 122, "dateTime": 1510871501097, "trialdata": {"rt": -1, "stimulus": "<p id=\"stim\">6</p>", "key_press": -1, "trial_type": "single-stim", "trial_index": 122, "time_elapsed": 596535, "internal_node_id": "0.0-91.0-4.0"}}, {"uniqueid": "MTK0436:34HJIJKLP6318T4TVWAVTR08B224VP", "current_trial": 123, "dateTime": 1510871502101, "trialdata": {"rt": -1, "stimulus": "<p id=\"stim\">5</p>", "key_press": -1, "trial_type": "single-stim", "trial_index": 123, "time_elapsed": 597539, "internal_node_id": "0.0-91.0-5.0"}}, {"uniqueid": "MTK0436:34HJIJKLP6318T4TVWAVTR08B224VP", "current_trial": 124, "dateTime": 1510871503106, "trialdata": {"rt": -1, "stimulus": "<p id=\"stim\">4</p>", "key_press": -1, "trial_type": "single-stim", "trial_index": 124, "time_elapsed": 598543, "internal_node_id": "0.0-91.0-6.0"}}, {"uniqueid": "MTK0436:34HJIJKLP6318T4TVWAVTR08B224VP", "current_trial": 125, "dateTime": 1510871504110, "trialdata": {"rt": -1, "stimulus": "<p id=\"stim\">3</p>", "key_press": -1, "trial_type": "single-stim", "trial_index": 125, "time_elapsed": 599548, "internal_node_id": "0.0-91.0-7.0"}}, {"uniqueid": "MTK0436:34HJIJKLP6318T4TVWAVTR08B224VP", "current_trial": 126, "dateTime": 1510871505114, "trialdata": {"rt": -1, "stimulus": "<p id=\"stim\">2</p>", "key_press": -1, "trial_type": "single-stim", "trial_index": 126, "time_elapsed": 600552, "internal_node_id": "0.0-91.0-8.0"}}, {"uniqueid": "MTK0436:34HJIJKLP6318T4TVWAVTR08B224VP", "current_trial": 127, "dateTime": 1510871506118, "trialdata": {"rt": -1, "stimulus": "<p id=\"stim\">1</p>", "key_press": -1, "trial_type": "single-stim", "trial_index": 127, "time_elapsed": 601556, "internal_node_id": "0.0-91.0-9.0"}}, {"uniqueid": "MTK0436:34HJIJKLP6318T4TVWAVTR08B224VP", "current_trial": 128, "dateTime": 1510871507621, "trialdata": {"rt": -1, "stimulus": "<p id=\"stim\">+</p>", "key_press": -1, "type": "FIXATION", "trial_type": "single-stim", "trial_index": 128, "time_elapsed": 603059, "internal_node_id": "0.0-92.0-0.0"}}, {"uniqueid": "MTK0436:34HJIJKLP6318T4TVWAVTR08B224VP", "current_trial": 129, "dateTime": 1510871510057, "trialdata": {"rt": -1000, "stimulus": "/static/audio/wordpool/HIKER.wav", "key_press": -1, "type": "PRES_AUD", "word": "hiker", "wordID": 707, "conditions": [24, 1600, "a", 24000], "trial": 3, "serialpos": 0, "trial_type": "single-audio", "trial_index": 129, "time_elapsed": 605494, "internal_node_id": "0.0-93.0"}}, {"uniqueid": "MTK0436:34HJIJKLP6318T4TVWAVTR08B224VP", "current_trial": 130, "dateTime": 1510871512620, "trialdata": {"rt": -1000, "stimulus": "/static/audio/wordpool/SUMMIT.wav", "key_press": -1, "type": "PRES_AUD", "word": "summit", "wordID": 1404, "conditions": [24, 1600, "a", 24000], "trial": 3, "serialpos": 1, "trial_type": "single-audio", "trial_index": 130, "time_elapsed": 608058, "internal_node_id": "0.0-94.0"}}, {"uniqueid": "MTK0436:34HJIJKLP6318T4TVWAVTR08B224VP", "current_trial": 131, "dateTime": 1510871515368, "trialdata": {"rt": -1000, "stimulus": "/static/audio/wordpool/SNAKE.wav", "key_press": -1, "type": "PRES_AUD", "word": "snake", "wordID": 1332, "conditions": [24, 1600, "a", 24000], "trial": 3, "serialpos": 2, "trial_type": "single-audio", "trial_index": 131, "time_elapsed": 610806, "internal_node_id": "0.0-95.0"}}, {"uniqueid": "MTK0436:34HJIJKLP6318T4TVWAVTR08B224VP", "current_trial": 132, "dateTime": 1510871517957, "trialdata": {"rt": -1000, "stimulus": "/static/audio/wordpool/DRESSER.wav", "key_press": -1, "type": "PRES_AUD", "word": "dresser", "wordID": 495, "conditions": [24, 1600, "a", 24000], "trial": 3, "serialpos": 3, "trial_type": "single-audio", "trial_index": 132, "time_elapsed": 613395, "internal_node_id": "0.0-96.0"}}, {"uniqueid": "MTK0436:34HJIJKLP6318T4TVWAVTR08B224VP", "current_trial": 133, "dateTime": 1510871520627, "trialdata": {"rt": -1000, "stimulus": "/static/audio/wordpool/CONTRACT.wav", "key_press": -1, "type": "PRES_AUD", "word": "contract", "wordID": 367, "conditions": [24, 1600, "a", 24000], "trial": 3, "serialpos": 4, "trial_type": "single-audio", "trial_index": 133, "time_elapsed": 616065, "internal_node_id": "0.0-97.0"}}, {"uniqueid": "MTK0436:34HJIJKLP6318T4TVWAVTR08B224VP", "current_trial": 134, "dateTime": 1510871523193, "trialdata": {"rt": -1000, "stimulus": "/static/audio/wordpool/COBRA.wav", "key_press": -1, "type": "PRES_AUD", "word": "cobra", "wordID": 335, "conditions": [24, 1600, "a", 24000], "trial": 3, "serialpos": 5, "trial_type": "single-audio", "trial_index": 134, "time_elapsed": 618631, "internal_node_id": "0.0-98.0"}}, {"uniqueid": "MTK0436:34HJIJKLP6318T4TVWAVTR08B224VP", "current_trial": 135, "dateTime": 1510871525953, "trialdata": {"rt": -1000, "stimulus": "/static/audio/wordpool/LOVER.wav", "key_press": -1, "type": "PRES_AUD", "word": "lover", "wordID": 845, "conditions": [24, 1600, "a", 24000], "trial": 3, "serialpos": 6, "trial_type": "single-audio", "trial_index": 135, "time_elapsed": 621391, "internal_node_id": "0.0-99.0"}}, {"uniqueid": "MTK0436:34HJIJKLP6318T4TVWAVTR08B224VP", "current_trial": 136, "dateTime": 1510871528731, "trialdata": {"rt": -1000, "stimulus": "/static/audio/wordpool/BOYFRIEND.wav", "key_press": -1, "type": "PRES_AUD", "word": "boyfriend", "wordID": 161, "conditions": [24, 1600, "a", 24000], "trial": 3, "serialpos": 7, "trial_type": "single-audio", "trial_index": 136, "time_elapsed": 624169, "internal_node_id": "0.0-100.0"}}, {"uniqueid": "MTK0436:34HJIJKLP6318T4TVWAVTR08B224VP", "current_trial": 137, "dateTime": 1510871531145, "trialdata": {"rt": -1000, "stimulus": "/static/audio/wordpool/UNCLE.wav", "key_press": -1, "type": "PRES_AUD", "word": "uncle", "wordID": 1535, "conditions": [24, 1600, "a", 24000], "trial": 3, "serialpos": 8, "trial_type": "single-audio", "trial_index": 137, "time_elapsed": 626583, "internal_node_id": "0.0-101.0"}}, {"uniqueid": "MTK0436:34HJIJKLP6318T4TVWAVTR08B224VP", "current_trial": 138, "dateTime": 1510871533775, "trialdata": {"rt": -1000, "stimulus": "/static/audio/wordpool/POSSUM.wav", "key_press": -1, "type": "PRES_AUD", "word": "possum", "wordID": 1111, "conditions": [24, 1600, "a", 24000], "trial": 3, "serialpos": 9, "trial_type": "single-audio", "trial_index": 138, "time_elapsed": 629213, "internal_node_id": "0.0-102.0"}}, {"uniqueid": "MTK0436:34HJIJKLP6318T4TVWAVTR08B224VP", "current_trial": 139, "dateTime": 1510871536295, "trialdata": {"rt": -1000, "stimulus": "/static/audio/wordpool/WAITER.wav", "key_press": -1, "type": "PRES_AUD", "word": "waiter", "wordID": 1579, "conditions": [24, 1600, "a", 24000], "trial": 3, "serialpos": 10, "trial_type": "single-audio", "trial_index": 139, "time_elapsed": 631732, "internal_node_id": "0.0-103.0"}}, {"uniqueid": "MTK0436:34HJIJKLP6318T4TVWAVTR08B224VP", "current_trial": 140, "dateTime": 1510871538843, "trialdata": {"rt": -1000, "stimulus": "/static/audio/wordpool/PENGUIN.wav", "key_press": -1, "type": "PRES_AUD", "word": "penguin", "wordID": 1043, "conditions": [24, 1600, "a", 24000], "trial": 3, "serialpos": 11, "trial_type": "single-audio", "trial_index": 140, "time_elapsed": 634281, "internal_node_id": "0.0-104.0"}}, {"uniqueid": "MTK0436:34HJIJKLP6318T4TVWAVTR08B224VP", "current_trial": 141, "dateTime": 1510871541522, "trialdata": {"rt": -1000, "stimulus": "/static/audio/wordpool/PUDDLE.wav", "key_press": -1, "type": "PRES_AUD", "word": "puddle", "wordID": 1139, "conditions": [24, 1600, "a", 24000], "trial": 3, "serialpos": 12, "trial_type": "single-audio", "trial_index": 141, "time_elapsed": 636960, "internal_node_id": "0.0-105.0"}}, {"uniqueid": "MTK0436:34HJIJKLP6318T4TVWAVTR08B224VP", "current_trial": 142, "dateTime": 1510871544069, "trialdata": {"rt": -1000, "stimulus": "/static/audio/wordpool/WAGON.wav", "key_press": -1, "type": "PRES_AUD", "word": "wagon", "wordID": 1577, "conditions": [24, 1600, "a", 24000], "trial": 3, "serialpos": 13, "trial_type": "single-audio", "trial_index": 142, "time_elapsed": 639507, "internal_node_id": "0.0-106.0"}}, {"uniqueid": "MTK0436:34HJIJKLP6318T4TVWAVTR08B224VP", "current_trial": 143, "dateTime": 1510871546545, "trialdata": {"rt": -1000, "stimulus": "/static/audio/wordpool/QUEEN.wav", "key_press": -1, "type": "PRES_AUD", "word": "queen", "wordID": 1148, "conditions": [24, 1600, "a", 24000], "trial": 3, "serialpos": 14, "trial_type": "single-audio", "trial_index": 143, "time_elapsed": 641983, "internal_node_id": "0.0-107.0"}}, {"uniqueid": "MTK0436:34HJIJKLP6318T4TVWAVTR08B224VP", "current_trial": 144, "dateTime": 1510871549088, "trialdata": {"rt": -1000, "stimulus": "/static/audio/wordpool/LILY.wav", "key_press": -1, "type": "PRES_AUD", "word": "lily", "wordID": 820, "conditions": [24, 1600, "a", 24000], "trial": 3, "serialpos": 15, "trial_type": "single-audio", "trial_index": 144, "time_elapsed": 644526, "internal_node_id": "0.0-108.0"}}, {"uniqueid": "MTK0436:34HJIJKLP6318T4TVWAVTR08B224VP", "current_trial": 145, "dateTime": 1510871551689, "trialdata": {"rt": -1000, "stimulus": "/static/audio/wordpool/POLICE.wav", "key_press": -1, "type": "PRES_AUD", "word": "police", "wordID": 1097, "conditions": [24, 1600, "a", 24000], "trial": 3, "serialpos": 16, "trial_type": "single-audio", "trial_index": 145, "time_elapsed": 647127, "internal_node_id": "0.0-109.0"}}, {"uniqueid": "MTK0436:34HJIJKLP6318T4TVWAVTR08B224VP", "current_trial": 146, "dateTime": 1510871554184, "trialdata": {"rt": -1000, "stimulus": "/static/audio/wordpool/WAITRESS.wav", "key_press": -1, "type": "PRES_AUD", "word": "waitress", "wordID": 1580, "conditions": [24, 1600, "a", 24000], "trial": 3, "serialpos": 17, "trial_type": "single-audio", "trial_index": 146, "time_elapsed": 649622, "internal_node_id": "0.0-110.0"}}, {"uniqueid": "MTK0436:34HJIJKLP6318T4TVWAVTR08B224VP", "current_trial": 147, "dateTime": 1510871556675, "trialdata": {"rt": -1000, "stimulus": "/static/audio/wordpool/DINER.wav", "key_press": -1, "type": "PRES_AUD", "word": "diner", "wordID": 466, "conditions": [24, 1600, "a", 24000], "trial": 3, "serialpos": 18, "trial_type": "single-audio", "trial_index": 147, "time_elapsed": 652113, "internal_node_id": "0.0-111.0"}}, {"uniqueid": "MTK0436:34HJIJKLP6318T4TVWAVTR08B224VP", "current_trial": 148, "dateTime": 1510871559329, "trialdata": {"rt": -1000, "stimulus": "/static/audio/wordpool/BOX.wav", "key_press": -1, "type": "PRES_AUD", "word": "box", "wordID": 158, "conditions": [24, 1600, "a", 24000], "trial": 3, "serialpos": 19, "trial_type": "single-audio", "trial_index": 148, "time_elapsed": 654766, "internal_node_id": "0.0-112.0"}}, {"uniqueid": "MTK0436:34HJIJKLP6318T4TVWAVTR08B224VP", "current_trial": 149, "dateTime": 1510871562010, "trialdata": {"rt": -1000, "stimulus": "/static/audio/wordpool/TRACTOR.wav", "key_press": -1, "type": "PRES_AUD", "word": "tractor", "wordID": 1492, "conditions": [24, 1600, "a", 24000], "trial": 3, "serialpos": 20, "trial_type": "single-audio", "trial_index": 149, "time_elapsed": 657447, "internal_node_id": "0.0-113.0"}}, {"uniqueid": "MTK0436:34HJIJKLP6318T4TVWAVTR08B224VP", "current_trial": 150, "dateTime": 1510871564535, "trialdata": {"rt": -1000, "stimulus": "/static/audio/wordpool/ATLAS.wav", "key_press": -1, "type": "PRES_AUD", "word": "atlas", "wordID": 52, "conditions": [24, 1600, "a", 24000], "trial": 3, "serialpos": 21, "trial_type": "single-audio", "trial_index": 150, "time_elapsed": 659973, "internal_node_id": "0.0-114.0"}}, {"uniqueid": "MTK0436:34HJIJKLP6318T4TVWAVTR08B224VP", "current_trial": 151, "dateTime": 1510871567095, "trialdata": {"rt": -1000, "stimulus": "/static/audio/wordpool/DAUGHTER.wav", "key_press": -1, "type": "PRES_AUD", "word": "daughter", "wordID": 441, "conditions": [24, 1600, "a", 24000], "trial": 3, "serialpos": 22, "trial_type": "single-audio", "trial_index": 151, "time_elapsed": 662533, "internal_node_id": "0.0-115.0"}}, {"uniqueid": "MTK0436:34HJIJKLP6318T4TVWAVTR08B224VP", "current_trial": 152, "dateTime": 1510871569550, "trialdata": {"rt": -1000, "stimulus": "/static/audio/wordpool/BEAVER.wav", "key_press": -1, "type": "PRES_AUD", "word": "beaver", "wordID": 108, "conditions": [24, 1600, "a", 24000], "trial": 3, "serialpos": 23, "trial_type": "single-audio", "trial_index": 152, "time_elapsed": 664988, "internal_node_id": "0.0-116.0"}}, {"uniqueid": "MTK0436:34HJIJKLP6318T4TVWAVTR08B224VP", "current_trial": 153, "dateTime": 1510871570816, "trialdata": {"rt": -1, "stimulus": "", "key_press": -1, "type": "PRE_RECALL_DELAY", "trial_type": "single-stim", "trial_index": 153, "time_elapsed": 666254, "internal_node_id": "0.0-117.0-0.0"}}, {"uniqueid": "MTK0436:34HJIJKLP6318T4TVWAVTR08B224VP", "current_trial": 154, "dateTime": 1510871571317, "trialdata": {"rt": -1000, "stimulus": "/static/audio/400Hz.wav", "key_press": -1, "type": "PRE_RECALL_ALERT", "trial_type": "single-audio", "trial_index": 154, "time_elapsed": 666755, "internal_node_id": "0.0-118.0"}}, {"uniqueid": "MTK0436:34HJIJKLP6318T4TVWAVTR08B224VP", "current_trial": 155, "dateTime": 1510871631323, "trialdata": {"rt": [1889, 4577, 6160, 7249, 8825, 9697, 16746, 20939, 25483, 29799], "recwords": ["beaver", "tractor", "daughter", "hiker", "dresser", "snake", "mountain", "crevas", "farmer", "otter"], "type": "FREE_RECALL", "conditions": [24, 1600, "a", 24000], "trial": 3, "trial_type": "free-recall", "trial_index": 155, "time_elapsed": 726759, "internal_node_id": "0.0-119.0-0.0"}}, {"uniqueid": "MTK0436:34HJIJKLP6318T4TVWAVTR08B224VP", "current_trial": 156, "dateTime": 1510871635889, "trialdata": {"rt": 2560, "key_press": 78, "type": "INSTRUCTIONS", "trial_type": "text", "trial_index": 156, "time_elapsed": 731327, "internal_node_id": "0.0-120.0"}}, {"uniqueid": "MTK0436:34HJIJKLP6318T4TVWAVTR08B224VP", "current_trial": 157, "dateTime": 1510871661896, "trialdata": {"rt": [2783, 7032, 10607, 13143, 18003, 19979, 21875], "responses": ["12", "16", "14", "13", "23", "10", "10"], "num1": [5, 3, 8, 6, 9, 3, 6, 4], "num2": [4, 5, 5, 3, 6, 2, 1, 6], "num3": [3, 8, 1, 4, 8, 5, 3, 6], "type": "DISTRACTOR", "conditions": [12, 800, "v", 24000], "trial": 4, "trial_type": "math-distractor", "trial_index": 157, "time_elapsed": 757334, "internal_node_id": "0.0-121.0"}}, {"uniqueid": "MTK0436:34HJIJKLP6318T4TVWAVTR08B224VP", "current_trial": 158, "dateTime": 1510871664902, "trialdata": {"rt": -1, "stimulus": "<p id=\"stim\">10</p>", "key_press": -1, "trial_type": "single-stim", "trial_index": 158, "time_elapsed": 760340, "internal_node_id": "0.0-122.0-0.0"}}, {"uniqueid": "MTK0436:34HJIJKLP6318T4TVWAVTR08B224VP", "current_trial": 159, "dateTime": 1510871665907, "trialdata": {"rt": -1, "stimulus": "<p id=\"stim\">9</p>", "key_press": -1, "trial_type": "single-stim", "trial_index": 159, "time_elapsed": 761345, "internal_node_id": "0.0-122.0-1.0"}}, {"uniqueid": "MTK0436:34HJIJKLP6318T4TVWAVTR08B224VP", "current_trial": 160, "dateTime": 1510871666910, "trialdata": {"rt": -1, "stimulus": "<p id=\"stim\">8</p>", "key_press": -1, "trial_type": "single-stim", "trial_index": 160, "time_elapsed": 762348, "internal_node_id": "0.0-122.0-2.0"}}, {"uniqueid": "MTK0436:34HJIJKLP6318T4TVWAVTR08B224VP", "current_trial": 161, "dateTime": 1510871667914, "trialdata": {"rt": -1, "stimulus": "<p id=\"stim\">7</p>", "key_press": -1, "trial_type": "single-stim", "trial_index": 161, "time_elapsed": 763352, "internal_node_id": "0.0-122.0-3.0"}}, {"uniqueid": "MTK0436:34HJIJKLP6318T4TVWAVTR08B224VP", "current_trial": 162, "dateTime": 1510871668918, "trialdata": {"rt": -1, "stimulus": "<p id=\"stim\">6</p>", "key_press": -1, "trial_type": "single-stim", "trial_index": 162, "time_elapsed": 764356, "internal_node_id": "0.0-122.0-4.0"}}, {"uniqueid": "MTK0436:34HJIJKLP6318T4TVWAVTR08B224VP", "current_trial": 163, "dateTime": 1510871669922, "trialdata": {"rt": -1, "stimulus": "<p id=\"stim\">5</p>", "key_press": -1, "trial_type": "single-stim", "trial_index": 163, "time_elapsed": 765360, "internal_node_id": "0.0-122.0-5.0"}}, {"uniqueid": "MTK0436:34HJIJKLP6318T4TVWAVTR08B224VP", "current_trial": 164, "dateTime": 1510871670926, "trialdata": {"rt": -1, "stimulus": "<p id=\"stim\">4</p>", "key_press": -1, "trial_type": "single-stim", "trial_index": 164, "time_elapsed": 766364, "internal_node_id": "0.0-122.0-6.0"}}, {"uniqueid": "MTK0436:34HJIJKLP6318T4TVWAVTR08B224VP", "current_trial": 165, "dateTime": 1510871671930, "trialdata": {"rt": -1, "stimulus": "<p id=\"stim\">3</p>", "key_press": -1, "trial_type": "single-stim", "trial_index": 165, "time_elapsed": 767368, "internal_node_id": "0.0-122.0-7.0"}}, {"uniqueid": "MTK0436:34HJIJKLP6318T4TVWAVTR08B224VP", "current_trial": 166, "dateTime": 1510871672934, "trialdata": {"rt": -1, "stimulus": "<p id=\"stim\">2</p>", "key_press": -1, "trial_type": "single-stim", "trial_index": 166, "time_elapsed": 768372, "internal_node_id": "0.0-122.0-8.0"}}, {"uniqueid": "MTK0436:34HJIJKLP6318T4TVWAVTR08B224VP", "current_trial": 167, "dateTime": 1510871673938, "trialdata": {"rt": -1, "stimulus": "<p id=\"stim\">1</p>", "key_press": -1, "trial_type": "single-stim", "trial_index": 167, "time_elapsed": 769376, "internal_node_id": "0.0-122.0-9.0"}}, {"uniqueid": "MTK0436:34HJIJKLP6318T4TVWAVTR08B224VP", "current_trial": 168, "dateTime": 1510871675442, "trialdata": {"rt": -1, "stimulus": "<p id=\"stim\">+</p>", "key_press": -1, "type": "FIXATION", "trial_type": "single-stim", "trial_index": 168, "time_elapsed": 770879, "internal_node_id": "0.0-123.0-0.0"}}, {"uniqueid": "MTK0436:34HJIJKLP6318T4TVWAVTR08B224VP", "current_trial": 169, "dateTime": 1510871676243, "trialdata": {"rt": -1, "stimulus": "<p id=\"stim\">JURY</p>", "key_press": -1, "type": "PRES_VIS", "word": "jury", "wordID": 765, "conditions": [12, 800, "v", 24000], "trial": 4, "serialpos": 0, "trial_type": "single-stim", "trial_index": 169, "time_elapsed": 771680, "internal_node_id": "0.0-124.0"}}, {"uniqueid": "MTK0436:34HJIJKLP6318T4TVWAVTR08B224VP", "current_trial": 170, "dateTime": 1510871678072, "trialdata": {"rt": -1, "stimulus": "<p id=\"stim\">FIREPLACE</p>", "key_press": -1, "type": "PRES_VIS", "word": "fireplace", "wordID": 569, "conditions": [12, 800, "v", 24000], "trial": 4, "serialpos": 1, "trial_type": "single-stim", "trial_index": 170, "time_elapsed": 773509, "internal_node_id": "0.0-125.0"}}, {"uniqueid": "MTK0436:34HJIJKLP6318T4TVWAVTR08B224VP", "current_trial": 171, "dateTime": 1510871679905, "trialdata": {"rt": -1, "stimulus": "<p id=\"stim\">KITCHEN</p>", "key_press": -1, "type": "PRES_VIS", "word": "kitchen", "wordID": 777, "conditions": [12, 800, "v", 24000], "trial": 4, "serialpos": 2, "trial_type": "single-stim", "trial_index": 171, "time_elapsed": 775343, "internal_node_id": "0.0-126.0"}}, {"uniqueid": "MTK0436:34HJIJKLP6318T4TVWAVTR08B224VP", "current_trial": 172, "dateTime": 1510871681512, "trialdata": {"rt": -1, "stimulus": "<p id=\"stim\">SPOON</p>", "key_press": -1, "type": "PRES_VIS", "word": "spoon", "wordID": 1356, "conditions": [12, 800, "v", 24000], "trial": 4, "serialpos": 3, "trial_type": "single-stim", "trial_index": 172, "time_elapsed": 776950, "internal_node_id": "0.0-127.0"}}, {"uniqueid": "MTK0436:34HJIJKLP6318T4TVWAVTR08B224VP", "current_trial": 173, "dateTime": 1510871683376, "trialdata": {"rt": -1, "stimulus": "<p id=\"stim\">MAILBOX</p>", "key_press": -1, "type": "PRES_VIS", "word": "mailbox", "wordID": 856, "conditions": [12, 800, "v", 24000], "trial": 4, "serialpos": 4, "trial_type": "single-stim", "trial_index": 173, "time_elapsed": 778813, "internal_node_id": "0.0-128.0"}}, {"uniqueid": "MTK0436:34HJIJKLP6318T4TVWAVTR08B224VP", "current_trial": 174, "dateTime": 1510871685024, "trialdata": {"rt": -1, "stimulus": "<p id=\"stim\">CREVICE</p>", "key_press": -1, "type": "PRES_VIS", "word": "crevice", "wordID": 404, "conditions": [12, 800, "v", 24000], "trial": 4, "serialpos": 5, "trial_type": "single-stim", "trial_index": 174, "time_elapsed": 780462, "internal_node_id": "0.0-129.0"}}, {"uniqueid": "MTK0436:34HJIJKLP6318T4TVWAVTR08B224VP", "current_trial": 175, "dateTime": 1510871686840, "trialdata": {"rt": -1, "stimulus": "<p id=\"stim\">PEPPER</p>", "key_press": -1, "type": "PRES_VIS", "word": "pepper", "wordID": 1046, "conditions": [12, 800, "v", 24000], "trial": 4, "serialpos": 6, "trial_type": "single-stim", "trial_index": 175, "time_elapsed": 782278, "internal_node_id": "0.0-130.0"}}, {"uniqueid": "MTK0436:34HJIJKLP6318T4TVWAVTR08B224VP", "current_trial": 176, "dateTime": 1510871688611, "trialdata": {"rt": -1, "stimulus": "<p id=\"stim\">BELLY</p>", "key_press": -1, "type": "PRES_VIS", "word": "belly", "wordID": 118, "conditions": [12, 800, "v", 24000], "trial": 4, "serialpos": 7, "trial_type": "single-stim", "trial_index": 176, "time_elapsed": 784048, "internal_node_id": "0.0-131.0"}}, {"uniqueid": "MTK0436:34HJIJKLP6318T4TVWAVTR08B224VP", "current_trial": 177, "dateTime": 1510871690397, "trialdata": {"rt": -1, "stimulus": "<p id=\"stim\">EMPIRE</p>", "key_press": -1, "type": "PRES_VIS", "word": "empire", "wordID": 529, "conditions": [12, 800, "v", 24000], "trial": 4, "serialpos": 8, "trial_type": "single-stim", "trial_index": 177, "time_elapsed": 785835, "internal_node_id": "0.0-132.0"}}, {"uniqueid": "MTK0436:34HJIJKLP6318T4TVWAVTR08B224VP", "current_trial": 178, "dateTime": 1510871692168, "trialdata": {"rt": -1, "stimulus": "<p id=\"stim\">MAILMAN</p>", "key_press": -1, "type": "PRES_VIS", "word": "mailman", "wordID": 857, "conditions": [12, 800, "v", 24000], "trial": 4, "serialpos": 9, "trial_type": "single-stim", "trial_index": 178, "time_elapsed": 787606, "internal_node_id": "0.0-133.0"}}, {"uniqueid": "MTK0436:34HJIJKLP6318T4TVWAVTR08B224VP", "current_trial": 179, "dateTime": 1510871693886, "trialdata": {"rt": -1, "stimulus": "<p id=\"stim\">RABBIT</p>", "key_press": -1, "type": "PRES_VIS", "word": "rabbit", "wordID": 1151, "conditions": [12, 800, "v", 24000], "trial": 4, "serialpos": 10, "trial_type": "single-stim", "trial_index": 179, "time_elapsed": 789324, "internal_node_id": "0.0-134.0"}}, {"uniqueid": "MTK0436:34HJIJKLP6318T4TVWAVTR08B224VP", "current_trial": 180, "dateTime": 1510871695581, "trialdata": {"rt": -1, "stimulus": "<p id=\"stim\">HOOK</p>", "key_press": -1, "type": "PRES_VIS", "word": "hook", "wordID": 714, "conditions": [12, 800, "v", 24000], "trial": 4, "serialpos": 11, "trial_type": "single-stim", "trial_index": 180, "time_elapsed": 791019, "internal_node_id": "0.0-135.0"}}, {"uniqueid": "MTK0436:34HJIJKLP6318T4TVWAVTR08B224VP", "current_trial": 181, "dateTime": 1510871697827, "trialdata": {"rt": -1, "stimulus": "", "key_press": -1, "type": "PRE_RECALL_DELAY", "trial_type": "single-stim", "trial_index": 181, "time_elapsed": 793265, "internal_node_id": "0.0-136.0-0.0"}}, {"uniqueid": "MTK0436:34HJIJKLP6318T4TVWAVTR08B224VP", "current_trial": 182, "dateTime": 1510871698328, "trialdata": {"rt": -1000, "stimulus": "/static/audio/400Hz.wav", "key_press": -1, "type": "PRE_RECALL_ALERT", "trial_type": "single-audio", "trial_index": 182, "time_elapsed": 793766, "internal_node_id": "0.0-137.0"}}, {"uniqueid": "MTK0436:34HJIJKLP6318T4TVWAVTR08B224VP", "current_trial": 183, "dateTime": 1510871758332, "trialdata": {"rt": [1598, 2622, 4302, 5758, 7046, 8486, 10702], "recwords": ["rabbit", "hook", "fireplace", "kitchen", "spoon", "mailbox", "crevice"], "type": "FREE_RECALL", "conditions": [12, 800, "v", 24000], "trial": 4, "trial_type": "free-recall", "trial_index": 183, "time_elapsed": 853768, "internal_node_id": "0.0-138.0-0.0"}}, {"uniqueid": "MTK0436:34HJIJKLP6318T4TVWAVTR08B224VP", "current_trial": 184, "dateTime": 1510871765549, "trialdata": {"rt": 5211, "key_press": 74, "type": "INSTRUCTIONS", "trial_type": "text", "trial_index": 184, "time_elapsed": 860987, "internal_node_id": "0.0-139.0"}}, {"uniqueid": "MTK0436:34HJIJKLP6318T4TVWAVTR08B224VP", "current_trial": 185, "dateTime": 1510871779555, "trialdata": {"rt": [1454, 5810, 9946], "responses": ["4", "21", "21"], "num1": [2, 7, 9, 3], "num2": [1, 4, 8, 1], "num3": [1, 6, 4, 8], "type": "DISTRACTOR", "conditions": [12, 800, "a", 12000], "trial": 5, "trial_type": "math-distractor", "trial_index": 185, "time_elapsed": 874993, "internal_node_id": "0.0-140.0"}}, {"uniqueid": "MTK0436:34HJIJKLP6318T4TVWAVTR08B224VP", "current_trial": 186, "dateTime": 1510871782561, "trialdata": {"rt": -1, "stimulus": "<p id=\"stim\">10</p>", "key_press": -1, "trial_type": "single-stim", "trial_index": 186, "time_elapsed": 877999, "internal_node_id": "0.0-141.0-0.0"}}, {"uniqueid": "MTK0436:34HJIJKLP6318T4TVWAVTR08B224VP", "current_trial": 187, "dateTime": 1510871783565, "trialdata": {"rt": -1, "stimulus": "<p id=\"stim\">9</p>", "key_press": -1, "trial_type": "single-stim", "trial_index": 187, "time_elapsed": 879003, "internal_node_id": "0.0-141.0-1.0"}}, {"uniqueid": "MTK0436:34HJIJKLP6318T4TVWAVTR08B224VP", "current_trial": 188, "dateTime": 1510871784569, "trialdata": {"rt": -1, "stimulus": "<p id=\"stim\">8</p>", "key_press": -1, "trial_type": "single-stim", "trial_index": 188, "time_elapsed": 880007, "internal_node_id": "0.0-141.0-2.0"}}, {"uniqueid": "MTK0436:34HJIJKLP6318T4TVWAVTR08B224VP", "current_trial": 189, "dateTime": 1510871785573, "trialdata": {"rt": -1, "stimulus": "<p id=\"stim\">7</p>", "key_press": -1, "trial_type": "single-stim", "trial_index": 189, "time_elapsed": 881011, "internal_node_id": "0.0-141.0-3.0"}}, {"uniqueid": "MTK0436:34HJIJKLP6318T4TVWAVTR08B224VP", "current_trial": 190, "dateTime": 1510871786577, "trialdata": {"rt": -1, "stimulus": "<p id=\"stim\">6</p>", "key_press": -1, "trial_type": "single-stim", "trial_index": 190, "time_elapsed": 882015, "internal_node_id": "0.0-141.0-4.0"}}, {"uniqueid": "MTK0436:34HJIJKLP6318T4TVWAVTR08B224VP", "current_trial": 191, "dateTime": 1510871787581, "trialdata": {"rt": -1, "stimulus": "<p id=\"stim\">5</p>", "key_press": -1, "trial_type": "single-stim", "trial_index": 191, "time_elapsed": 883019, "internal_node_id": "0.0-141.0-5.0"}}, {"uniqueid": "MTK0436:34HJIJKLP6318T4TVWAVTR08B224VP", "current_trial": 192, "dateTime": 1510871788585, "trialdata": {"rt": -1, "stimulus": "<p id=\"stim\">4</p>", "key_press": -1, "trial_type": "single-stim", "trial_index": 192, "time_elapsed": 884023, "internal_node_id": "0.0-141.0-6.0"}}, {"uniqueid": "MTK0436:34HJIJKLP6318T4TVWAVTR08B224VP", "current_trial": 193, "dateTime": 1510871789589, "trialdata": {"rt": -1, "stimulus": "<p id=\"stim\">3</p>", "key_press": -1, "trial_type": "single-stim", "trial_index": 193, "time_elapsed": 885027, "internal_node_id": "0.0-141.0-7.0"}}, {"uniqueid": "MTK0436:34HJIJKLP6318T4TVWAVTR08B224VP", "current_trial": 194, "dateTime": 1510871790593, "trialdata": {"rt": -1, "stimulus": "<p id=\"stim\">2</p>", "key_press": -1, "trial_type": "single-stim", "trial_index": 194, "time_elapsed": 886031, "internal_node_id": "0.0-141.0-8.0"}}, {"uniqueid": "MTK0436:34HJIJKLP6318T4TVWAVTR08B224VP", "current_trial": 195, "dateTime": 1510871791599, "trialdata": {"rt": -1, "stimulus": "<p id=\"stim\">1</p>", "key_press": -1, "trial_type": "single-stim", "trial_index": 195, "time_elapsed": 887035, "internal_node_id": "0.0-141.0-9.0"}}, {"uniqueid": "MTK0436:34HJIJKLP6318T4TVWAVTR08B224VP", "current_trial": 196, "dateTime": 1510871793101, "trialdata": {"rt": -1, "stimulus": "<p id=\"stim\">+</p>", "key_press": -1, "type": "FIXATION", "trial_type": "single-stim", "trial_index": 196, "time_elapsed": 888539, "internal_node_id": "0.0-142.0-0.0"}}, {"uniqueid": "MTK0436:34HJIJKLP6318T4TVWAVTR08B224VP", "current_trial": 197, "dateTime": 1510871794769, "trialdata": {"rt": -1000, "stimulus": "/static/audio/wordpool/TORTOISE.wav", "key_press": -1, "type": "PRES_AUD", "word": "tortoise", "wordID": 1485, "conditions": [12, 800, "a", 12000], "trial": 5, "serialpos": 0, "trial_type": "single-audio", "trial_index": 197, "time_elapsed": 890207, "internal_node_id": "0.0-143.0"}}, {"uniqueid": "MTK0436:34HJIJKLP6318T4TVWAVTR08B224VP", "current_trial": 198, "dateTime": 1510871796737, "trialdata": {"rt": -1000, "stimulus": "/static/audio/wordpool/BUGGY.wav", "key_press": -1, "type": "PRES_AUD", "word": "buggy", "wordID": 187, "conditions": [12, 800, "a", 12000], "trial": 5, "serialpos": 1, "trial_type": "single-audio", "trial_index": 198, "time_elapsed": 892175, "internal_node_id": "0.0-144.0"}}, {"uniqueid": "MTK0436:34HJIJKLP6318T4TVWAVTR08B224VP", "current_trial": 199, "dateTime": 1510871798577, "trialdata": {"rt": -1000, "stimulus": "/static/audio/wordpool/SCALLOP.wav", "key_press": -1, "type": "PRES_AUD", "word": "scallop", "wordID": 1241, "conditions": [12, 800, "a", 12000], "trial": 5, "serialpos": 2, "trial_type": "single-audio", "trial_index": 199, "time_elapsed": 894015, "internal_node_id": "0.0-145.0"}}, {"uniqueid": "MTK0436:34HJIJKLP6318T4TVWAVTR08B224VP", "current_trial": 200, "dateTime": 1510871800287, "trialdata": {"rt": -1000, "stimulus": "/static/audio/wordpool/SALMON.wav", "key_press": -1, "type": "PRES_AUD", "word": "salmon", "wordID": 1226, "conditions": [12, 800, "a", 12000], "trial": 5, "serialpos": 3, "trial_type": "single-audio", "trial_index": 200, "time_elapsed": 895725, "internal_node_id": "0.0-146.0"}}, {"uniqueid": "MTK0436:34HJIJKLP6318T4TVWAVTR08B224VP", "current_trial": 201, "dateTime": 1510871802019, "trialdata": {"rt": -1000, "stimulus": "/static/audio/wordpool/POET.wav", "key_press": -1, "type": "PRES_AUD", "word": "poet", "wordID": 1094, "conditions": [12, 800, "a", 12000], "trial": 5, "serialpos": 4, "trial_type": "single-audio", "trial_index": 201, "time_elapsed": 897457, "internal_node_id": "0.0-147.0"}}, {"uniqueid": "MTK0436:34HJIJKLP6318T4TVWAVTR08B224VP", "current_trial": 202, "dateTime": 1510871803794, "trialdata": {"rt": -1000, "stimulus": "/static/audio/wordpool/SKILLET.wav", "key_press": -1, "type": "PRES_AUD", "word": "skillet", "wordID": 1316, "conditions": [12, 800, "a", 12000], "trial": 5, "serialpos": 5, "trial_type": "single-audio", "trial_index": 202, "time_elapsed": 899232, "internal_node_id": "0.0-148.0"}}, {"uniqueid": "MTK0436:34HJIJKLP6318T4TVWAVTR08B224VP", "current_trial": 203, "dateTime": 1510871805548, "trialdata": {"rt": -1000, "stimulus": "/static/audio/wordpool/PASTRY.wav", "key_press": -1, "type": "PRES_AUD", "word": "pastry", "wordID": 1021, "conditions": [12, 800, "a", 12000], "trial": 5, "serialpos": 6, "trial_type": "single-audio", "trial_index": 203, "time_elapsed": 900986, "internal_node_id": "0.0-149.0"}}, {"uniqueid": "MTK0436:34HJIJKLP6318T4TVWAVTR08B224VP", "current_trial": 204, "dateTime": 1510871807342, "trialdata": {"rt": -1000, "stimulus": "/static/audio/wordpool/BUREAU.wav", "key_press": -1, "type": "PRES_AUD", "word": "bureau", "wordID": 198, "conditions": [12, 800, "a", 12000], "trial": 5, "serialpos": 7, "trial_type": "single-audio", "trial_index": 204, "time_elapsed": 902780, "internal_node_id": "0.0-150.0"}}, {"uniqueid": "MTK0436:34HJIJKLP6318T4TVWAVTR08B224VP", "current_trial": 205, "dateTime": 1510871809212, "trialdata": {"rt": -1000, "stimulus": "/static/audio/wordpool/SNAIL.wav", "key_press": -1, "type": "PRES_AUD", "word": "snail", "wordID": 1331, "conditions": [12, 800, "a", 12000], "trial": 5, "serialpos": 8, "trial_type": "single-audio", "trial_index": 205, "time_elapsed": 904650, "internal_node_id": "0.0-151.0"}}, {"uniqueid": "MTK0436:34HJIJKLP6318T4TVWAVTR08B224VP", "current_trial": 206, "dateTime": 1510871810959, "trialdata": {"rt": -1000, "stimulus": "/static/audio/wordpool/CRAYON.wav", "key_press": -1, "type": "PRES_AUD", "word": "crayon", "wordID": 400, "conditions": [12, 800, "a", 12000], "trial": 5, "serialpos": 9, "trial_type": "single-audio", "trial_index": 206, "time_elapsed": 906396, "internal_node_id": "0.0-152.0"}}, {"uniqueid": "MTK0436:34HJIJKLP6318T4TVWAVTR08B224VP", "current_trial": 207, "dateTime": 1510871812880, "trialdata": {"rt": -1000, "stimulus": "/static/audio/wordpool/FUNGUS.wav", "key_press": -1, "type": "PRES_AUD", "word": "fungus", "wordID": 613, "conditions": [12, 800, "a", 12000], "trial": 5, "serialpos": 10, "trial_type": "single-audio", "trial_index": 207, "time_elapsed": 908318, "internal_node_id": "0.0-153.0"}}, {"uniqueid": "MTK0436:34HJIJKLP6318T4TVWAVTR08B224VP", "current_trial": 208, "dateTime": 1510871814755, "trialdata": {"rt": -1000, "stimulus": "/static/audio/wordpool/SLIME.wav", "key_press": -1, "type": "PRES_AUD", "word": "slime", "wordID": 1326, "conditions": [12, 800, "a", 12000], "trial": 5, "serialpos": 11, "trial_type": "single-audio", "trial_index": 208, "time_elapsed": 910193, "internal_node_id": "0.0-154.0"}}, {"uniqueid": "MTK0436:34HJIJKLP6318T4TVWAVTR08B224VP", "current_trial": 209, "dateTime": 1510871816067, "trialdata": {"rt": -1, "stimulus": "", "key_press": -1, "type": "PRE_RECALL_DELAY", "trial_type": "single-stim", "trial_index": 209, "time_elapsed": 911505, "internal_node_id": "0.0-155.0-0.0"}}, {"uniqueid": "MTK0436:34HJIJKLP6318T4TVWAVTR08B224VP", "current_trial": 210, "dateTime": 1510871816568, "trialdata": {"rt": -1000, "stimulus": "/static/audio/400Hz.wav", "key_press": -1, "type": "PRE_RECALL_ALERT", "trial_type": "single-audio", "trial_index": 210, "time_elapsed": 912006, "internal_node_id": "0.0-156.0"}}, {"uniqueid": "MTK0436:34HJIJKLP6318T4TVWAVTR08B224VP", "current_trial": 211, "dateTime": 1510871876575, "trialdata": {"rt": [2315, 3603, 4875, 7091, 8379], "recwords": ["slime", "fungus", "buggee", "tortoise", "snail"], "type": "FREE_RECALL", "conditions": [12, 800, "a", 12000], "trial": 5, "trial_type": "free-recall", "trial_index": 211, "time_elapsed": 972010, "internal_node_id": "0.0-157.0-0.0"}}, {"uniqueid": "MTK0436:34HJIJKLP6318T4TVWAVTR08B224VP", "current_trial": 212, "dateTime": 1510871878911, "trialdata": {"rt": 330, "key_press": 72, "type": "INSTRUCTIONS", "trial_type": "text", "trial_index": 212, "time_elapsed": 974348, "internal_node_id": "0.0-158.0"}}, {"uniqueid": "MTK0436:34HJIJKLP6318T4TVWAVTR08B224VP", "current_trial": 213, "dateTime": 1510871892917, "trialdata": {"rt": [2384, 4576, 7256, 9160], "responses": ["14", "12", "15", "5"], "num1": [9, 2, 8, 1, 5], "num2": [3, 8, 6, 1, 8], "num3": [2, 2, 1, 3, 4], "type": "DISTRACTOR", "conditions": [12, 1600, "a", 12000], "trial": 6, "trial_type": "math-distractor", "trial_index": 213, "time_elapsed": 988354, "internal_node_id": "0.0-159.0"}}, {"uniqueid": "MTK0436:34HJIJKLP6318T4TVWAVTR08B224VP", "current_trial": 214, "dateTime": 1510871895922, "trialdata": {"rt": -1, "stimulus": "<p id=\"stim\">10</p>", "key_press": -1, "trial_type": "single-stim", "trial_index": 214, "time_elapsed": 991360, "internal_node_id": "0.0-160.0-0.0"}}, {"uniqueid": "MTK0436:34HJIJKLP6318T4TVWAVTR08B224VP", "current_trial": 215, "dateTime": 1510871896926, "trialdata": {"rt": -1, "stimulus": "<p id=\"stim\">9</p>", "key_press": -1, "trial_type": "single-stim", "trial_index": 215, "time_elapsed": 992364, "internal_node_id": "0.0-160.0-1.0"}}, {"uniqueid": "MTK0436:34HJIJKLP6318T4TVWAVTR08B224VP", "current_trial": 216, "dateTime": 1510871897930, "trialdata": {"rt": -1, "stimulus": "<p id=\"stim\">8</p>", "key_press": -1, "trial_type": "single-stim", "trial_index": 216, "time_elapsed": 993368, "internal_node_id": "0.0-160.0-2.0"}}, {"uniqueid": "MTK0436:34HJIJKLP6318T4TVWAVTR08B224VP", "current_trial": 217, "dateTime": 1510871898934, "trialdata": {"rt": -1, "stimulus": "<p id=\"stim\">7</p>", "key_press": -1, "trial_type": "single-stim", "trial_index": 217, "time_elapsed": 994372, "internal_node_id": "0.0-160.0-3.0"}}, {"uniqueid": "MTK0436:34HJIJKLP6318T4TVWAVTR08B224VP", "current_trial": 218, "dateTime": 1510871899938, "trialdata": {"rt": -1, "stimulus": "<p id=\"stim\">6</p>", "key_press": -1, "trial_type": "single-stim", "trial_index": 218, "time_elapsed": 995376, "internal_node_id": "0.0-160.0-4.0"}}, {"uniqueid": "MTK0436:34HJIJKLP6318T4TVWAVTR08B224VP", "current_trial": 219, "dateTime": 1510871900942, "trialdata": {"rt": -1, "stimulus": "<p id=\"stim\">5</p>", "key_press": -1, "trial_type": "single-stim", "trial_index": 219, "time_elapsed": 996380, "internal_node_id": "0.0-160.0-5.0"}}, {"uniqueid": "MTK0436:34HJIJKLP6318T4TVWAVTR08B224VP", "current_trial": 220, "dateTime": 1510871901946, "trialdata": {"rt": -1, "stimulus": "<p id=\"stim\">4</p>", "key_press": -1, "trial_type": "single-stim", "trial_index": 220, "time_elapsed": 997384, "internal_node_id": "0.0-160.0-6.0"}}, {"uniqueid": "MTK0436:34HJIJKLP6318T4TVWAVTR08B224VP", "current_trial": 221, "dateTime": 1510871902951, "trialdata": {"rt": -1, "stimulus": "<p id=\"stim\">3</p>", "key_press": -1, "trial_type": "single-stim", "trial_index": 221, "time_elapsed": 998388, "internal_node_id": "0.0-160.0-7.0"}}, {"uniqueid": "MTK0436:34HJIJKLP6318T4TVWAVTR08B224VP", "current_trial": 222, "dateTime": 1510871903955, "trialdata": {"rt": -1, "stimulus": "<p id=\"stim\">2</p>", "key_press": -1, "trial_type": "single-stim", "trial_index": 222, "time_elapsed": 999392, "internal_node_id": "0.0-160.0-8.0"}}, {"uniqueid": "MTK0436:34HJIJKLP6318T4TVWAVTR08B224VP", "current_trial": 223, "dateTime": 1510871904959, "trialdata": {"rt": -1, "stimulus": "<p id=\"stim\">1</p>", "key_press": -1, "trial_type": "single-stim", "trial_index": 223, "time_elapsed": 1000396, "internal_node_id": "0.0-160.0-9.0"}}, {"uniqueid": "MTK0436:34HJIJKLP6318T4TVWAVTR08B224VP", "current_trial": 224, "dateTime": 1510871906462, "trialdata": {"rt": -1, "stimulus": "<p id=\"stim\">+</p>", "key_press": -1, "type": "FIXATION", "trial_type": "single-stim", "trial_index": 224, "time_elapsed": 1001900, "internal_node_id": "0.0-161.0-0.0"}}, {"uniqueid": "MTK0436:34HJIJKLP6318T4TVWAVTR08B224VP", "current_trial": 225, "dateTime": 1510871909158, "trialdata": {"rt": -1000, "stimulus": "/static/audio/wordpool/FIDDLE.wav", "key_press": -1, "type": "PRES_AUD", "word": "fiddle", "wordID": 560, "conditions": [12, 1600, "a", 12000], "trial": 6, "serialpos": 0, "trial_type": "single-audio", "trial_index": 225, "time_elapsed": 1004596, "internal_node_id": "0.0-162.0"}}, {"uniqueid": "MTK0436:34HJIJKLP6318T4TVWAVTR08B224VP", "current_trial": 226, "dateTime": 1510871911909, "trialdata": {"rt": -1000, "stimulus": "/static/audio/wordpool/DRAGON.wav", "key_press": -1, "type": "PRES_AUD", "word": "dragon", "wordID": 491, "conditions": [12, 1600, "a", 12000], "trial": 6, "serialpos": 1, "trial_type": "single-audio", "trial_index": 226, "time_elapsed": 1007347, "internal_node_id": "0.0-163.0"}}, {"uniqueid": "MTK0436:34HJIJKLP6318T4TVWAVTR08B224VP", "current_trial": 227, "dateTime": 1510871914564, "trialdata": {"rt": -1000, "stimulus": "/static/audio/wordpool/TOASTER.wav", "key_press": -1, "type": "PRES_AUD", "word": "toaster", "wordID": 1471, "conditions": [12, 1600, "a", 12000], "trial": 6, "serialpos": 2, "trial_type": "single-audio", "trial_index": 227, "time_elapsed": 1010002, "internal_node_id": "0.0-164.0"}}, {"uniqueid": "MTK0436:34HJIJKLP6318T4TVWAVTR08B224VP", "current_trial": 228, "dateTime": 1510871917076, "trialdata": {"rt": -1000, "stimulus": "/static/audio/wordpool/ELBOW.wav", "key_press": -1, "type": "PRES_AUD", "word": "elbow", "wordID": 519, "conditions": [12, 1600, "a", 12000], "trial": 6, "serialpos": 3, "trial_type": "single-audio", "trial_index": 228, "time_elapsed": 1012513, "internal_node_id": "0.0-165.0"}}, {"uniqueid": "MTK0436:34HJIJKLP6318T4TVWAVTR08B224VP", "current_trial": 229, "dateTime": 1510871919804, "trialdata": {"rt": -1000, "stimulus": "/static/audio/wordpool/CLAM.wav", "key_press": -1, "type": "PRES_AUD", "word": "clam", "wordID": 314, "conditions": [12, 1600, "a", 12000], "trial": 6, "serialpos": 4, "trial_type": "single-audio", "trial_index": 229, "time_elapsed": 1015242, "internal_node_id": "0.0-166.0"}}, {"uniqueid": "MTK0436:34HJIJKLP6318T4TVWAVTR08B224VP", "current_trial": 230, "dateTime": 1510871922457, "trialdata": {"rt": -1000, "stimulus": "/static/audio/wordpool/SEAFOOD.wav", "key_press": -1, "type": "PRES_AUD", "word": "seafood", "wordID": 1259, "conditions": [12, 1600, "a", 12000], "trial": 6, "serialpos": 5, "trial_type": "single-audio", "trial_index": 230, "time_elapsed": 1017895, "internal_node_id": "0.0-167.0"}}, {"uniqueid": "MTK0436:34HJIJKLP6318T4TVWAVTR08B224VP", "current_trial": 231, "dateTime": 1510871924877, "trialdata": {"rt": -1000, "stimulus": "/static/audio/wordpool/LIZARD.wav", "key_press": -1, "type": "PRES_AUD", "word": "lizard", "wordID": 833, "conditions": [12, 1600, "a", 12000], "trial": 6, "serialpos": 6, "trial_type": "single-audio", "trial_index": 231, "time_elapsed": 1020315, "internal_node_id": "0.0-168.0"}}, {"uniqueid": "MTK0436:34HJIJKLP6318T4TVWAVTR08B224VP", "current_trial": 232, "dateTime": 1510871927605, "trialdata": {"rt": -1000, "stimulus": "/static/audio/wordpool/PARROT.wav", "key_press": -1, "type": "PRES_AUD", "word": "parrot", "wordID": 1014, "conditions": [12, 1600, "a", 12000], "trial": 6, "serialpos": 7, "trial_type": "single-audio", "trial_index": 232, "time_elapsed": 1023043, "internal_node_id": "0.0-169.0"}}, {"uniqueid": "MTK0436:34HJIJKLP6318T4TVWAVTR08B224VP", "current_trial": 233, "dateTime": 1510871930194, "trialdata": {"rt": -1000, "stimulus": "/static/audio/wordpool/SUITCASE.wav", "key_press": -1, "type": "PRES_AUD", "word": "suitcase", "wordID": 1402, "conditions": [12, 1600, "a", 12000], "trial": 6, "serialpos": 8, "trial_type": "single-audio", "trial_index": 233, "time_elapsed": 1025632, "internal_node_id": "0.0-170.0"}}, {"uniqueid": "MTK0436:34HJIJKLP6318T4TVWAVTR08B224VP", "current_trial": 234, "dateTime": 1510871932969, "trialdata": {"rt": -1000, "stimulus": "/static/audio/wordpool/BLADE.wav", "key_press": -1, "type": "PRES_AUD", "word": "blade", "wordID": 133, "conditions": [12, 1600, "a", 12000], "trial": 6, "serialpos": 9, "trial_type": "single-audio", "trial_index": 234, "time_elapsed": 1028407, "internal_node_id": "0.0-171.0"}}, {"uniqueid": "MTK0436:34HJIJKLP6318T4TVWAVTR08B224VP", "current_trial": 235, "dateTime": 1510871935494, "trialdata": {"rt": -1000, "stimulus": "/static/audio/wordpool/KIDNEY.wav", "key_press": -1, "type": "PRES_AUD", "word": "kidney", "wordID": 775, "conditions": [12, 1600, "a", 12000], "trial": 6, "serialpos": 10, "trial_type": "single-audio", "trial_index": 235, "time_elapsed": 1030932, "internal_node_id": "0.0-172.0"}}, {"uniqueid": "MTK0436:34HJIJKLP6318T4TVWAVTR08B224VP", "current_trial": 236, "dateTime": 1510871938019, "trialdata": {"rt": -1000, "stimulus": "/static/audio/wordpool/LUGGAGE.wav", "key_press": -1, "type": "PRES_AUD", "word": "luggage", "wordID": 846, "conditions": [12, 1600, "a", 12000], "trial": 6, "serialpos": 11, "trial_type": "single-audio", "trial_index": 236, "time_elapsed": 1033457, "internal_node_id": "0.0-173.0"}}, {"uniqueid": "MTK0436:34HJIJKLP6318T4TVWAVTR08B224VP", "current_trial": 237, "dateTime": 1510871939277, "trialdata": {"rt": -1, "stimulus": "", "key_press": -1, "type": "PRE_RECALL_DELAY", "trial_type": "single-stim", "trial_index": 237, "time_elapsed": 1034715, "internal_node_id": "0.0-174.0-0.0"}}, {"uniqueid": "MTK0436:34HJIJKLP6318T4TVWAVTR08B224VP", "current_trial": 238, "dateTime": 1510871939778, "trialdata": {"rt": -1000, "stimulus": "/static/audio/400Hz.wav", "key_press": -1, "type": "PRE_RECALL_ALERT", "trial_type": "single-audio", "trial_index": 238, "time_elapsed": 1035216, "internal_node_id": "0.0-175.0"}}, {"uniqueid": "MTK0436:34HJIJKLP6318T4TVWAVTR08B224VP", "current_trial": 239, "dateTime": 1510871999785, "trialdata": {"rt": [2284, 4156, 5572, 6668, 8971, 36868, 37588, 37908], "recwords": ["suitcase", "kidney", "luggage", "blade", "vampire", "", "", ""], "type": "FREE_RECALL", "conditions": [12, 1600, "a", 12000], "trial": 6, "trial_type": "free-recall", "trial_index": 239, "time_elapsed": 1095220, "internal_node_id": "0.0-176.0-0.0"}}, {"uniqueid": "MTK0436:34HJIJKLP6318T4TVWAVTR08B224VP", "current_trial": 240, "dateTime": 1510872003145, "trialdata": {"rt": 1359, "key_press": 74, "type": "INSTRUCTIONS", "trial_type": "text", "trial_index": 240, "time_elapsed": 1098583, "internal_node_id": "0.0-177.0"}}, {"uniqueid": "MTK0436:34HJIJKLP6318T4TVWAVTR08B224VP", "current_trial": 241, "dateTime": 1510872017149, "trialdata": {"rt": [3421, 4965, 6733, 9253], "responses": ["14", "9", "7", "15"], "num1": [3, 1, 3, 3, 7], "num2": [2, 7, 2, 4, 9], "num3": [9, 1, 2, 8, 1], "type": "DISTRACTOR", "conditions": [12, 800, "v", 12000], "trial": 7, "trial_type": "math-distractor", "trial_index": 241, "time_elapsed": 1112587, "internal_node_id": "0.0-178.0"}}, {"uniqueid": "MTK0436:34HJIJKLP6318T4TVWAVTR08B224VP", "current_trial": 242, "dateTime": 1510872020155, "trialdata": {"rt": -1, "stimulus": "<p id=\"stim\">10</p>", "key_press": -1, "trial_type": "single-stim", "trial_index": 242, "time_elapsed": 1115593, "internal_node_id": "0.0-179.0-0.0"}}, {"uniqueid": "MTK0436:34HJIJKLP6318T4TVWAVTR08B224VP", "current_trial": 243, "dateTime": 1510872021160, "trialdata": {"rt": -1, "stimulus": "<p id=\"stim\">9</p>", "key_press": -1, "trial_type": "single-stim", "trial_index": 243, "time_elapsed": 1116597, "internal_node_id": "0.0-179.0-1.0"}}, {"uniqueid": "MTK0436:34HJIJKLP6318T4TVWAVTR08B224VP", "current_trial": 244, "dateTime": 1510872022164, "trialdata": {"rt": -1, "stimulus": "<p id=\"stim\">8</p>", "key_press": -1, "trial_type": "single-stim", "trial_index": 244, "time_elapsed": 1117602, "internal_node_id": "0.0-179.0-2.0"}}, {"uniqueid": "MTK0436:34HJIJKLP6318T4TVWAVTR08B224VP", "current_trial": 245, "dateTime": 1510872023168, "trialdata": {"rt": -1, "stimulus": "<p id=\"stim\">7</p>", "key_press": -1, "trial_type": "single-stim", "trial_index": 245, "time_elapsed": 1118606, "internal_node_id": "0.0-179.0-3.0"}}, {"uniqueid": "MTK0436:34HJIJKLP6318T4TVWAVTR08B224VP", "current_trial": 246, "dateTime": 1510872024172, "trialdata": {"rt": -1, "stimulus": "<p id=\"stim\">6</p>", "key_press": -1, "trial_type": "single-stim", "trial_index": 246, "time_elapsed": 1119610, "internal_node_id": "0.0-179.0-4.0"}}, {"uniqueid": "MTK0436:34HJIJKLP6318T4TVWAVTR08B224VP", "current_trial": 247, "dateTime": 1510872025176, "trialdata": {"rt": -1, "stimulus": "<p id=\"stim\">5</p>", "key_press": -1, "trial_type": "single-stim", "trial_index": 247, "time_elapsed": 1120614, "internal_node_id": "0.0-179.0-5.0"}}, {"uniqueid": "MTK0436:34HJIJKLP6318T4TVWAVTR08B224VP", "current_trial": 248, "dateTime": 1510872026180, "trialdata": {"rt": -1, "stimulus": "<p id=\"stim\">4</p>", "key_press": -1, "trial_type": "single-stim", "trial_index": 248, "time_elapsed": 1121618, "internal_node_id": "0.0-179.0-6.0"}}, {"uniqueid": "MTK0436:34HJIJKLP6318T4TVWAVTR08B224VP", "current_trial": 249, "dateTime": 1510872027184, "trialdata": {"rt": -1, "stimulus": "<p id=\"stim\">3</p>", "key_press": -1, "trial_type": "single-stim", "trial_index": 249, "time_elapsed": 1122622, "internal_node_id": "0.0-179.0-7.0"}}, {"uniqueid": "MTK0436:34HJIJKLP6318T4TVWAVTR08B224VP", "current_trial": 250, "dateTime": 1510872028188, "trialdata": {"rt": -1, "stimulus": "<p id=\"stim\">2</p>", "key_press": -1, "trial_type": "single-stim", "trial_index": 250, "time_elapsed": 1123626, "internal_node_id": "0.0-179.0-8.0"}}, {"uniqueid": "MTK0436:34HJIJKLP6318T4TVWAVTR08B224VP", "current_trial": 251, "dateTime": 1510872029192, "trialdata": {"rt": -1, "stimulus": "<p id=\"stim\">1</p>", "key_press": -1, "trial_type": "single-stim", "trial_index": 251, "time_elapsed": 1124630, "internal_node_id": "0.0-179.0-9.0"}}, {"uniqueid": "MTK0436:34HJIJKLP6318T4TVWAVTR08B224VP", "current_trial": 252, "dateTime": 1510872030695, "trialdata": {"rt": -1, "stimulus": "<p id=\"stim\">+</p>", "key_press": -1, "type": "FIXATION", "trial_type": "single-stim", "trial_index": 252, "time_elapsed": 1126133, "internal_node_id": "0.0-180.0-0.0"}}, {"uniqueid": "MTK0436:34HJIJKLP6318T4TVWAVTR08B224VP", "current_trial": 253, "dateTime": 1510872031496, "trialdata": {"rt": -1, "stimulus": "<p id=\"stim\">WHISTLE</p>", "key_press": -1, "type": "PRES_VIS", "word": "whistle", "wordID": 1605, "conditions": [12, 800, "v", 12000], "trial": 7, "serialpos": 0, "trial_type": "single-stim", "trial_index": 253, "time_elapsed": 1126934, "internal_node_id": "0.0-181.0"}}, {"uniqueid": "MTK0436:34HJIJKLP6318T4TVWAVTR08B224VP", "current_trial": 254, "dateTime": 1510872033261, "trialdata": {"rt": -1, "stimulus": "<p id=\"stim\">TUBA</p>", "key_press": -1, "type": "PRES_VIS", "word": "tuba", "wordID": 1514, "conditions": [12, 800, "v", 12000], "trial": 7, "serialpos": 1, "trial_type": "single-stim", "trial_index": 254, "time_elapsed": 1128699, "internal_node_id": "0.0-182.0"}}, {"uniqueid": "MTK0436:34HJIJKLP6318T4TVWAVTR08B224VP", "current_trial": 255, "dateTime": 1510872034897, "trialdata": {"rt": -1, "stimulus": "<p id=\"stim\">HATCHET</p>", "key_press": -1, "type": "PRES_VIS", "word": "hatchet", "wordID": 690, "conditions": [12, 800, "v", 12000], "trial": 7, "serialpos": 2, "trial_type": "single-stim", "trial_index": 255, "time_elapsed": 1130335, "internal_node_id": "0.0-183.0"}}, {"uniqueid": "MTK0436:34HJIJKLP6318T4TVWAVTR08B224VP", "current_trial": 256, "dateTime": 1510872036795, "trialdata": {"rt": -1, "stimulus": "<p id=\"stim\">CRAB</p>", "key_press": -1, "type": "PRES_VIS", "word": "crab", "wordID": 396, "conditions": [12, 800, "v", 12000], "trial": 7, "serialpos": 3, "trial_type": "single-stim", "trial_index": 256, "time_elapsed": 1132233, "internal_node_id": "0.0-184.0"}}, {"uniqueid": "MTK0436:34HJIJKLP6318T4TVWAVTR08B224VP", "current_trial": 257, "dateTime": 1510872038618, "trialdata": {"rt": -1, "stimulus": "<p id=\"stim\">BRICK</p>", "key_press": -1, "type": "PRES_VIS", "word": "brick", "wordID": 171, "conditions": [12, 800, "v", 12000], "trial": 7, "serialpos": 4, "trial_type": "single-stim", "trial_index": 257, "time_elapsed": 1134055, "internal_node_id": "0.0-185.0"}}, {"uniqueid": "MTK0436:34HJIJKLP6318T4TVWAVTR08B224VP", "current_trial": 258, "dateTime": 1510872040539, "trialdata": {"rt": -1, "stimulus": "<p id=\"stim\">SHORTCAKE</p>", "key_press": -1, "type": "PRES_VIS", "word": "shortcake", "wordID": 1291, "conditions": [12, 800, "v", 12000], "trial": 7, "serialpos": 5, "trial_type": "single-stim", "trial_index": 258, "time_elapsed": 1135977, "internal_node_id": "0.0-186.0"}}, {"uniqueid": "MTK0436:34HJIJKLP6318T4TVWAVTR08B224VP", "current_trial": 259, "dateTime": 1510872042303, "trialdata": {"rt": -1, "stimulus": "<p id=\"stim\">BACKBONE</p>", "key_press": -1, "type": "PRES_VIS", "word": "backbone", "wordID": 65, "conditions": [12, 800, "v", 12000], "trial": 7, "serialpos": 6, "trial_type": "single-stim", "trial_index": 259, "time_elapsed": 1137741, "internal_node_id": "0.0-187.0"}}, {"uniqueid": "MTK0436:34HJIJKLP6318T4TVWAVTR08B224VP", "current_trial": 260, "dateTime": 1510872043928, "trialdata": {"rt": -1, "stimulus": "<p id=\"stim\">RUG</p>", "key_press": -1, "type": "PRES_VIS", "word": "rug", "wordID": 1214, "conditions": [12, 800, "v", 12000], "trial": 7, "serialpos": 7, "trial_type": "single-stim", "trial_index": 260, "time_elapsed": 1139366, "internal_node_id": "0.0-188.0"}}, {"uniqueid": "MTK0436:34HJIJKLP6318T4TVWAVTR08B224VP", "current_trial": 261, "dateTime": 1510872045588, "trialdata": {"rt": -1, "stimulus": "<p id=\"stim\">VICTIM</p>", "key_press": -1, "type": "PRES_VIS", "word": "victim", "wordID": 1561, "conditions": [12, 800, "v", 12000], "trial": 7, "serialpos": 8, "trial_type": "single-stim", "trial_index": 261, "time_elapsed": 1141026, "internal_node_id": "0.0-189.0"}}, {"uniqueid": "MTK0436:34HJIJKLP6318T4TVWAVTR08B224VP", "current_trial": 262, "dateTime": 1510872047312, "trialdata": {"rt": -1, "stimulus": "<p id=\"stim\">VELVET</p>", "key_press": -1, "type": "PRES_VIS", "word": "velvet", "wordID": 1554, "conditions": [12, 800, "v", 12000], "trial": 7, "serialpos": 9, "trial_type": "single-stim", "trial_index": 262, "time_elapsed": 1142750, "internal_node_id": "0.0-190.0"}}, {"uniqueid": "MTK0436:34HJIJKLP6318T4TVWAVTR08B224VP", "current_trial": 263, "dateTime": 1510872048926, "trialdata": {"rt": -1, "stimulus": "<p id=\"stim\">PLAID</p>", "key_press": -1, "type": "PRES_VIS", "word": "plaid", "wordID": 1079, "conditions": [12, 800, "v", 12000], "trial": 7, "serialpos": 10, "trial_type": "single-stim", "trial_index": 263, "time_elapsed": 1144363, "internal_node_id": "0.0-191.0"}}, {"uniqueid": "MTK0436:34HJIJKLP6318T4TVWAVTR08B224VP", "current_trial": 264, "dateTime": 1510872050887, "trialdata": {"rt": -1, "stimulus": "<p id=\"stim\">TILE</p>", "key_press": -1, "type": "PRES_VIS", "word": "tile", "wordID": 1467, "conditions": [12, 800, "v", 12000], "trial": 7, "serialpos": 11, "trial_type": "single-stim", "trial_index": 264, "time_elapsed": 1146325, "internal_node_id": "0.0-192.0"}}, {"uniqueid": "MTK0436:34HJIJKLP6318T4TVWAVTR08B224VP", "current_trial": 265, "dateTime": 1510872053052, "trialdata": {"rt": -1, "stimulus": "", "key_press": -1, "type": "PRE_RECALL_DELAY", "trial_type": "single-stim", "trial_index": 265, "time_elapsed": 1148490, "internal_node_id": "0.0-193.0-0.0"}}, {"uniqueid": "MTK0436:34HJIJKLP6318T4TVWAVTR08B224VP", "current_trial": 266, "dateTime": 1510872053554, "trialdata": {"rt": -1000, "stimulus": "/static/audio/400Hz.wav", "key_press": -1, "type": "PRE_RECALL_ALERT", "trial_type": "single-audio", "trial_index": 266, "time_elapsed": 1148991, "internal_node_id": "0.0-194.0"}}, {"uniqueid": "MTK0436:34HJIJKLP6318T4TVWAVTR08B224VP", "current_trial": 267, "dateTime": 1510872113558, "trialdata": {"rt": [1954, 5994, 7266, 14974], "recwords": ["plaid", "squid", "velvet", "hammer"], "type": "FREE_RECALL", "conditions": [12, 800, "v", 12000], "trial": 7, "trial_type": "free-recall", "trial_index": 267, "time_elapsed": 1208993, "internal_node_id": "0.0-195.0-0.0"}}, {"uniqueid": "MTK0436:34HJIJKLP6318T4TVWAVTR08B224VP", "current_trial": 268, "dateTime": 1510872117152, "trialdata": {"rt": 1590, "key_press": 77, "type": "INSTRUCTIONS", "trial_type": "text", "trial_index": 268, "time_elapsed": 1212590, "internal_node_id": "0.0-196.0"}}, {"uniqueid": "MTK0436:34HJIJKLP6318T4TVWAVTR08B224VP", "current_trial": 269, "dateTime": 1510872143160, "trialdata": {"rt": [2681, 5473, 8385, 11649, 13280, 19114, 22634], "responses": ["15", "16", "14", "16", "15", "24", "12"], "num1": [4, 6, 4, 6, 7, 7, 1, 8], "num2": [8, 4, 6, 8, 1, 9, 4, 6], "num3": [3, 6, 4, 4, 7, 6, 7, 3], "type": "DISTRACTOR", "conditions": [12, 1600, "v", 24000], "trial": 8, "trial_type": "math-distractor", "trial_index": 269, "time_elapsed": 1238598, "internal_node_id": "0.0-197.0"}}, {"uniqueid": "MTK0436:34HJIJKLP6318T4TVWAVTR08B224VP", "current_trial": 270, "dateTime": 1510872146166, "trialdata": {"rt": -1, "stimulus": "<p id=\"stim\">10</p>", "key_press": -1, "trial_type": "single-stim", "trial_index": 270, "time_elapsed": 1241604, "internal_node_id": "0.0-198.0-0.0"}}, {"uniqueid": "MTK0436:34HJIJKLP6318T4TVWAVTR08B224VP", "current_trial": 271, "dateTime": 1510872147170, "trialdata": {"rt": -1, "stimulus": "<p id=\"stim\">9</p>", "key_press": -1, "trial_type": "single-stim", "trial_index": 271, "time_elapsed": 1242608, "internal_node_id": "0.0-198.0-1.0"}}, {"uniqueid": "MTK0436:34HJIJKLP6318T4TVWAVTR08B224VP", "cu