{"condition": 0, "counterbalance": 229, "assignmentId": "3LYA37P8IRU7DHVQB76BZWVX5W9BKD", "workerId": "MTK0419", "hitId": "30IRMPJWDZQS64ELH2NZAR4H9QRRKC", "currenttrial": 626, "bonus": 0, "data": [{"uniqueid": "MTK0419:3LYA37P8IRU7DHVQB76BZWVX5W9BKD", "current_trial": 0, "dateTime": 1510864291951, "trialdata": {"rt": 2116, "key_press": 32, "type": "INSTRUCTIONS", "trial_type": "text", "trial_index": 0, "time_elapsed": 2120, "internal_node_id": "0.0-0.0"}}, {"uniqueid": "MTK0419:3LYA37P8IRU7DHVQB76BZWVX5W9BKD", "current_trial": 1, "dateTime": 1510864301870, "trialdata": {"rt": 9917, "key_press": 32, "type": "INSTRUCTIONS", "trial_type": "text", "trial_index": 1, "time_elapsed": 12039, "internal_node_id": "0.0-1.0"}}, {"uniqueid": "MTK0419:3LYA37P8IRU7DHVQB76BZWVX5W9BKD", "current_trial": 2, "dateTime": 1510864307574, "trialdata": {"rt": [5697], "responses": ["ocean"], "type": "AUDIO_TEST", "trial_type": "audio-test", "trial_index": 2, "time_elapsed": 17743, "internal_node_id": "0.0-2.0"}}, {"uniqueid": "MTK0419:3LYA37P8IRU7DHVQB76BZWVX5W9BKD", "current_trial": 3, "dateTime": 1510864311398, "trialdata": {"rt": [3819], "responses": ["crystal"], "type": "AUDIO_TEST", "trial_type": "audio-test", "trial_index": 3, "time_elapsed": 21567, "internal_node_id": "0.0-3.0"}}, {"uniqueid": "MTK0419:3LYA37P8IRU7DHVQB76BZWVX5W9BKD", "current_trial": 4, "dateTime": 1510864317861, "trialdata": {"rt": [445, 6460], "responses": ["", "spice"], "type": "AUDIO_TEST", "trial_type": "audio-test", "trial_index": 4, "time_elapsed": 28030, "internal_node_id": "0.0-4.0"}}, {"uniqueid": "MTK0419:3LYA37P8IRU7DHVQB76BZWVX5W9BKD", "current_trial": 5, "dateTime": 1510864336922, "trialdata": {"rt": 18305, "responses": "{\"Q0\":\"2 am\",\"Q1\":\"9 am\",\"Q2\":\"4\"}", "type": "SLEEP_SURVEY", "trial_type": "survey-text", "trial_index": 5, "time_elapsed": 47091, "internal_node_id": "0.0-5.0"}}, {"uniqueid": "MTK0419:3LYA37P8IRU7DHVQB76BZWVX5W9BKD", "current_trial": 6, "dateTime": 1510864377941, "trialdata": {"rt": 40016, "key_press": 32, "type": "INSTRUCTIONS", "trial_type": "text", "trial_index": 6, "time_elapsed": 88110, "internal_node_id": "0.0-6.0"}}, {"uniqueid": "MTK0419:3LYA37P8IRU7DHVQB76BZWVX5W9BKD", "current_trial": 7, "dateTime": 1510864384317, "trialdata": {"rt": 5874, "key_press": 32, "type": "INSTRUCTIONS", "trial_type": "text", "trial_index": 7, "time_elapsed": 94486, "internal_node_id": "0.0-7.0"}}, {"uniqueid": "MTK0419:3LYA37P8IRU7DHVQB76BZWVX5W9BKD", "current_trial": 8, "dateTime": 1510864386988, "trialdata": {"rt": 2169, "key_press": 32, "type": "INSTRUCTIONS", "trial_type": "text", "trial_index": 8, "time_elapsed": 97157, "internal_node_id": "0.0-8.0"}}, {"uniqueid": "MTK0419:3LYA37P8IRU7DHVQB76BZWVX5W9BKD", "current_trial": 9, "dateTime": 1510864405999, "trialdata": {"rt": [2511, 6279, 9207, 10959, 12615, 15112, 16455], "responses": ["15", "14", "25", "16", "17", "19", "9"], "num1": [3, 7, 8, 8, 2, 5, 1, 1], "num2": [5, 6, 9, 2, 9, 6, 1, 5], "num3": [7, 1, 7, 6, 6, 8, 7, 8], "type": "DISTRACTOR", "conditions": [18, 1200, "a", 18000], "trial": 0, "trial_type": "math-distractor", "trial_index": 9, "time_elapsed": 116168, "internal_node_id": "0.0-9.0"}}, {"uniqueid": "MTK0419:3LYA37P8IRU7DHVQB76BZWVX5W9BKD", "current_trial": 10, "dateTime": 1510864409003, "trialdata": {"rt": -1, "stimulus": "<p id=\"stim\">10</p>", "key_press": -1, "trial_type": "single-stim", "trial_index": 10, "time_elapsed": 119172, "internal_node_id": "0.0-10.0-0.0"}}, {"uniqueid": "MTK0419:3LYA37P8IRU7DHVQB76BZWVX5W9BKD", "current_trial": 11, "dateTime": 1510864410006, "trialdata": {"rt": -1, "stimulus": "<p id=\"stim\">9</p>", "key_press": -1, "trial_type": "single-stim", "trial_index": 11, "time_elapsed": 120175, "internal_node_id": "0.0-10.0-1.0"}}, {"uniqueid": "MTK0419:3LYA37P8IRU7DHVQB76BZWVX5W9BKD", "current_trial": 12, "dateTime": 1510864411009, "trialdata": {"rt": -1, "stimulus": "<p id=\"stim\">8</p>", "key_press": -1, "trial_type": "single-stim", "trial_index": 12, "time_elapsed": 121178, "internal_node_id": "0.0-10.0-2.0"}}, {"uniqueid": "MTK0419:3LYA37P8IRU7DHVQB76BZWVX5W9BKD", "current_trial": 13, "dateTime": 1510864412014, "trialdata": {"rt": -1, "stimulus": "<p id=\"stim\">7</p>", "key_press": -1, "trial_type": "single-stim", "trial_index": 13, "time_elapsed": 122183, "internal_node_id": "0.0-10.0-3.0"}}, {"uniqueid": "MTK0419:3LYA37P8IRU7DHVQB76BZWVX5W9BKD", "current_trial": 14, "dateTime": 1510864413019, "trialdata": {"rt": -1, "stimulus": "<p id=\"stim\">6</p>", "key_press": -1, "trial_type": "single-stim", "trial_index": 14, "time_elapsed": 123188, "internal_node_id": "0.0-10.0-4.0"}}, {"uniqueid": "MTK0419:3LYA37P8IRU7DHVQB76BZWVX5W9BKD", "current_trial": 15, "dateTime": 1510864414021, "trialdata": {"rt": -1, "stimulus": "<p id=\"stim\">5</p>", "key_press": -1, "trial_type": "single-stim", "trial_index": 15, "time_elapsed": 124189, "internal_node_id": "0.0-10.0-5.0"}}, {"uniqueid": "MTK0419:3LYA37P8IRU7DHVQB76BZWVX5W9BKD", "current_trial": 16, "dateTime": 1510864415023, "trialdata": {"rt": -1, "stimulus": "<p id=\"stim\">4</p>", "key_press": -1, "trial_type": "single-stim", "trial_index": 16, "time_elapsed": 125192, "internal_node_id": "0.0-10.0-6.0"}}, {"uniqueid": "MTK0419:3LYA37P8IRU7DHVQB76BZWVX5W9BKD", "current_trial": 17, "dateTime": 1510864416026, "trialdata": {"rt": -1, "stimulus": "<p id=\"stim\">3</p>", "key_press": -1, "trial_type": "single-stim", "trial_index": 17, "time_elapsed": 126195, "internal_node_id": "0.0-10.0-7.0"}}, {"uniqueid": "MTK0419:3LYA37P8IRU7DHVQB76BZWVX5W9BKD", "current_trial": 18, "dateTime": 1510864417029, "trialdata": {"rt": -1, "stimulus": "<p id=\"stim\">2</p>", "key_press": -1, "trial_type": "single-stim", "trial_index": 18, "time_elapsed": 127198, "internal_node_id": "0.0-10.0-8.0"}}, {"uniqueid": "MTK0419:3LYA37P8IRU7DHVQB76BZWVX5W9BKD", "current_trial": 19, "dateTime": 1510864418036, "trialdata": {"rt": -1, "stimulus": "<p id=\"stim\">1</p>", "key_press": -1, "trial_type": "single-stim", "trial_index": 19, "time_elapsed": 128205, "internal_node_id": "0.0-10.0-9.0"}}, {"uniqueid": "MTK0419:3LYA37P8IRU7DHVQB76BZWVX5W9BKD", "current_trial": 20, "dateTime": 1510864419538, "trialdata": {"rt": -1, "stimulus": "<p id=\"stim\">+</p>", "key_press": -1, "type": "FIXATION", "trial_type": "single-stim", "trial_index": 20, "time_elapsed": 129707, "internal_node_id": "0.0-11.0-0.0"}}, {"uniqueid": "MTK0419:3LYA37P8IRU7DHVQB76BZWVX5W9BKD", "current_trial": 21, "dateTime": 1510864421572, "trialdata": {"rt": -1000, "stimulus": "/static/audio/wordpool/LION.wav", "key_press": -1, "type": "PRES_AUD", "word": "lion", "wordID": 826, "conditions": [18, 1200, "a", 18000], "trial": 0, "serialpos": 0, "trial_type": "single-audio", "trial_index": 21, "time_elapsed": 131740, "internal_node_id": "0.0-12.0"}}, {"uniqueid": "MTK0419:3LYA37P8IRU7DHVQB76BZWVX5W9BKD", "current_trial": 22, "dateTime": 1510864423842, "trialdata": {"rt": -1000, "stimulus": "/static/audio/wordpool/ONION.wav", "key_press": -1, "type": "PRES_AUD", "word": "onion", "wordID": 976, "conditions": [18, 1200, "a", 18000], "trial": 0, "serialpos": 1, "trial_type": "single-audio", "trial_index": 22, "time_elapsed": 134011, "internal_node_id": "0.0-13.0"}}, {"uniqueid": "MTK0419:3LYA37P8IRU7DHVQB76BZWVX5W9BKD", "current_trial": 23, "dateTime": 1510864426152, "trialdata": {"rt": -1000, "stimulus": "/static/audio/wordpool/WHISKERS.wav", "key_press": -1, "type": "PRES_AUD", "word": "whiskers", "wordID": 1604, "conditions": [18, 1200, "a", 18000], "trial": 0, "serialpos": 2, "trial_type": "single-audio", "trial_index": 23, "time_elapsed": 136321, "internal_node_id": "0.0-14.0"}}, {"uniqueid": "MTK0419:3LYA37P8IRU7DHVQB76BZWVX5W9BKD", "current_trial": 24, "dateTime": 1510864428181, "trialdata": {"rt": -1000, "stimulus": "/static/audio/wordpool/TURKEY.wav", "key_press": -1, "type": "PRES_AUD", "word": "turkey", "wordID": 1519, "conditions": [18, 1200, "a", 18000], "trial": 0, "serialpos": 3, "trial_type": "single-audio", "trial_index": 24, "time_elapsed": 138350, "internal_node_id": "0.0-15.0"}}, {"uniqueid": "MTK0419:3LYA37P8IRU7DHVQB76BZWVX5W9BKD", "current_trial": 25, "dateTime": 1510864430273, "trialdata": {"rt": -1000, "stimulus": "/static/audio/wordpool/PLATE.wav", "key_press": -1, "type": "PRES_AUD", "word": "plate", "wordID": 1085, "conditions": [18, 1200, "a", 18000], "trial": 0, "serialpos": 4, "trial_type": "single-audio", "trial_index": 25, "time_elapsed": 140441, "internal_node_id": "0.0-16.0"}}, {"uniqueid": "MTK0419:3LYA37P8IRU7DHVQB76BZWVX5W9BKD", "current_trial": 26, "dateTime": 1510864432350, "trialdata": {"rt": -1000, "stimulus": "/static/audio/wordpool/SHOULDER.wav", "key_press": -1, "type": "PRES_AUD", "word": "shoulder", "wordID": 1293, "conditions": [18, 1200, "a", 18000], "trial": 0, "serialpos": 5, "trial_type": "single-audio", "trial_index": 26, "time_elapsed": 142519, "internal_node_id": "0.0-17.0"}}, {"uniqueid": "MTK0419:3LYA37P8IRU7DHVQB76BZWVX5W9BKD", "current_trial": 27, "dateTime": 1510864434733, "trialdata": {"rt": -1000, "stimulus": "/static/audio/wordpool/HONEY.wav", "key_press": -1, "type": "PRES_AUD", "word": "honey", "wordID": 712, "conditions": [18, 1200, "a", 18000], "trial": 0, "serialpos": 6, "trial_type": "single-audio", "trial_index": 27, "time_elapsed": 144902, "internal_node_id": "0.0-18.0"}}, {"uniqueid": "MTK0419:3LYA37P8IRU7DHVQB76BZWVX5W9BKD", "current_trial": 28, "dateTime": 1510864436938, "trialdata": {"rt": -1000, "stimulus": "/static/audio/wordpool/DRIVER.wav", "key_press": -1, "type": "PRES_AUD", "word": "driver", "wordID": 498, "conditions": [18, 1200, "a", 18000], "trial": 0, "serialpos": 7, "trial_type": "single-audio", "trial_index": 28, "time_elapsed": 147107, "internal_node_id": "0.0-19.0"}}, {"uniqueid": "MTK0419:3LYA37P8IRU7DHVQB76BZWVX5W9BKD", "current_trial": 29, "dateTime": 1510864438961, "trialdata": {"rt": -1000, "stimulus": "/static/audio/wordpool/SKETCH.wav", "key_press": -1, "type": "PRES_AUD", "word": "sketch", "wordID": 1314, "conditions": [18, 1200, "a", 18000], "trial": 0, "serialpos": 8, "trial_type": "single-audio", "trial_index": 29, "time_elapsed": 149129, "internal_node_id": "0.0-20.0"}}, {"uniqueid": "MTK0419:3LYA37P8IRU7DHVQB76BZWVX5W9BKD", "current_trial": 30, "dateTime": 1510864441094, "trialdata": {"rt": -1000, "stimulus": "/static/audio/wordpool/TOASTER.wav", "key_press": -1, "type": "PRES_AUD", "word": "toaster", "wordID": 1471, "conditions": [18, 1200, "a", 18000], "trial": 0, "serialpos": 9, "trial_type": "single-audio", "trial_index": 30, "time_elapsed": 151262, "internal_node_id": "0.0-21.0"}}, {"uniqueid": "MTK0419:3LYA37P8IRU7DHVQB76BZWVX5W9BKD", "current_trial": 31, "dateTime": 1510864443451, "trialdata": {"rt": -1000, "stimulus": "/static/audio/wordpool/BALLOON.wav", "key_press": -1, "type": "PRES_AUD", "word": "balloon", "wordID": 74, "conditions": [18, 1200, "a", 18000], "trial": 0, "serialpos": 10, "trial_type": "single-audio", "trial_index": 31, "time_elapsed": 153620, "internal_node_id": "0.0-22.0"}}, {"uniqueid": "MTK0419:3LYA37P8IRU7DHVQB76BZWVX5W9BKD", "current_trial": 32, "dateTime": 1510864445813, "trialdata": {"rt": -1000, "stimulus": "/static/audio/wordpool/BUCKET.wav", "key_press": -1, "type": "PRES_AUD", "word": "bucket", "wordID": 183, "conditions": [18, 1200, "a", 18000], "trial": 0, "serialpos": 11, "trial_type": "single-audio", "trial_index": 32, "time_elapsed": 155982, "internal_node_id": "0.0-23.0"}}, {"uniqueid": "MTK0419:3LYA37P8IRU7DHVQB76BZWVX5W9BKD", "current_trial": 33, "dateTime": 1510864447981, "trialdata": {"rt": -1000, "stimulus": "/static/audio/wordpool/MARSH.wav", "key_press": -1, "type": "PRES_AUD", "word": "marsh", "wordID": 873, "conditions": [18, 1200, "a", 18000], "trial": 0, "serialpos": 12, "trial_type": "single-audio", "trial_index": 33, "time_elapsed": 158150, "internal_node_id": "0.0-24.0"}}, {"uniqueid": "MTK0419:3LYA37P8IRU7DHVQB76BZWVX5W9BKD", "current_trial": 34, "dateTime": 1510864450118, "trialdata": {"rt": -1000, "stimulus": "/static/audio/wordpool/PLUTO.wav", "key_press": -1, "type": "PRES_AUD", "word": "pluto", "wordID": 1091, "conditions": [18, 1200, "a", 18000], "trial": 0, "serialpos": 13, "trial_type": "single-audio", "trial_index": 34, "time_elapsed": 160287, "internal_node_id": "0.0-25.0"}}, {"uniqueid": "MTK0419:3LYA37P8IRU7DHVQB76BZWVX5W9BKD", "current_trial": 35, "dateTime": 1510864452284, "trialdata": {"rt": -1000, "stimulus": "/static/audio/wordpool/SUNRISE.wav", "key_press": -1, "type": "PRES_AUD", "word": "sunrise", "wordID": 1406, "conditions": [18, 1200, "a", 18000], "trial": 0, "serialpos": 14, "trial_type": "single-audio", "trial_index": 35, "time_elapsed": 162453, "internal_node_id": "0.0-26.0"}}, {"uniqueid": "MTK0419:3LYA37P8IRU7DHVQB76BZWVX5W9BKD", "current_trial": 36, "dateTime": 1510864454589, "trialdata": {"rt": -1000, "stimulus": "/static/audio/wordpool/CLAM.wav", "key_press": -1, "type": "PRES_AUD", "word": "clam", "wordID": 314, "conditions": [18, 1200, "a", 18000], "trial": 0, "serialpos": 15, "trial_type": "single-audio", "trial_index": 36, "time_elapsed": 164758, "internal_node_id": "0.0-27.0"}}, {"uniqueid": "MTK0419:3LYA37P8IRU7DHVQB76BZWVX5W9BKD", "current_trial": 37, "dateTime": 1510864456697, "trialdata": {"rt": -1000, "stimulus": "/static/audio/wordpool/MAMMAL.wav", "key_press": -1, "type": "PRES_AUD", "word": "mammal", "wordID": 860, "conditions": [18, 1200, "a", 18000], "trial": 0, "serialpos": 16, "trial_type": "single-audio", "trial_index": 37, "time_elapsed": 166866, "internal_node_id": "0.0-28.0"}}, {"uniqueid": "MTK0419:3LYA37P8IRU7DHVQB76BZWVX5W9BKD", "current_trial": 38, "dateTime": 1510864458720, "trialdata": {"rt": -1000, "stimulus": "/static/audio/wordpool/MAILMAN.wav", "key_press": -1, "type": "PRES_AUD", "word": "mailman", "wordID": 857, "conditions": [18, 1200, "a", 18000], "trial": 0, "serialpos": 17, "trial_type": "single-audio", "trial_index": 38, "time_elapsed": 168889, "internal_node_id": "0.0-29.0"}}, {"uniqueid": "MTK0419:3LYA37P8IRU7DHVQB76BZWVX5W9BKD", "current_trial": 39, "dateTime": 1510864459968, "trialdata": {"rt": -1, "stimulus": "", "key_press": -1, "type": "PRE_RECALL_DELAY", "trial_type": "single-stim", "trial_index": 39, "time_elapsed": 170137, "internal_node_id": "0.0-30.0-0.0"}}, {"uniqueid": "MTK0419:3LYA37P8IRU7DHVQB76BZWVX5W9BKD", "current_trial": 40, "dateTime": 1510864460470, "trialdata": {"rt": -1000, "stimulus": "/static/audio/400Hz.wav", "key_press": -1, "type": "PRE_RECALL_ALERT", "trial_type": "single-audio", "trial_index": 40, "time_elapsed": 170639, "internal_node_id": "0.0-31.0"}}, {"uniqueid": "MTK0419:3LYA37P8IRU7DHVQB76BZWVX5W9BKD", "current_trial": 41, "dateTime": 1510864520479, "trialdata": {"rt": [4242, 6091, 7348, 8406, 11138, 12866, 14782, 16586, 16995, 18506, 21642, 44955], "recwords": ["clam", "mailman", "sketch", "whisker", "lion", "onion", "toaster", "sunrise", "", "pluto", "mammal", "clam"], "type": "FREE_RECALL", "conditions": [18, 1200, "a", 18000], "trial": 0, "trial_type": "free-recall", "trial_index": 41, "time_elapsed": 230645, "internal_node_id": "0.0-32.0-0.0"}}, {"uniqueid": "MTK0419:3LYA37P8IRU7DHVQB76BZWVX5W9BKD", "current_trial": 42, "dateTime": 1510864524268, "trialdata": {"rt": 1787, "key_press": 13, "type": "INSTRUCTIONS", "trial_type": "text", "trial_index": 42, "time_elapsed": 234437, "internal_node_id": "0.0-33.0"}}, {"uniqueid": "MTK0419:3LYA37P8IRU7DHVQB76BZWVX5W9BKD", "current_trial": 43, "dateTime": 1510864544276, "trialdata": {"rt": [3244, 5220, 7108, 8435, 9779, 11548, 12843, 14460, 16628], "responses": ["9", "16", "10", "18", "12", "15", "14", "16", "8"], "num1": [1, 7, 2, 1, 2, 6, 5, 6, 3, 8], "num2": [5, 4, 2, 9, 5, 2, 4, 2, 2, 1], "num3": [3, 5, 6, 8, 5, 7, 5, 8, 3, 9], "type": "DISTRACTOR", "conditions": [18, 1200, "v", 18000], "trial": 1, "trial_type": "math-distractor", "trial_index": 43, "time_elapsed": 254445, "internal_node_id": "0.0-34.0"}}, {"uniqueid": "MTK0419:3LYA37P8IRU7DHVQB76BZWVX5W9BKD", "current_trial": 44, "dateTime": 1510864547292, "trialdata": {"rt": -1, "stimulus": "<p id=\"stim\">10</p>", "key_press": -1, "trial_type": "single-stim", "trial_index": 44, "time_elapsed": 257460, "internal_node_id": "0.0-35.0-0.0"}}, {"uniqueid": "MTK0419:3LYA37P8IRU7DHVQB76BZWVX5W9BKD", "current_trial": 45, "dateTime": 1510864548297, "trialdata": {"rt": -1, "stimulus": "<p id=\"stim\">9</p>", "key_press": -1, "trial_type": "single-stim", "trial_index": 45, "time_elapsed": 258466, "internal_node_id": "0.0-35.0-1.0"}}, {"uniqueid": "MTK0419:3LYA37P8IRU7DHVQB76BZWVX5W9BKD", "current_trial": 46, "dateTime": 1510864549301, "trialdata": {"rt": -1, "stimulus": "<p id=\"stim\">8</p>", "key_press": -1, "trial_type": "single-stim", "trial_index": 46, "time_elapsed": 259469, "internal_node_id": "0.0-35.0-2.0"}}, {"uniqueid": "MTK0419:3LYA37P8IRU7DHVQB76BZWVX5W9BKD", "current_trial": 47, "dateTime": 1510864550303, "trialdata": {"rt": -1, "stimulus": "<p id=\"stim\">7</p>", "key_press": -1, "trial_type": "single-stim", "trial_index": 47, "time_elapsed": 260472, "internal_node_id": "0.0-35.0-3.0"}}, {"uniqueid": "MTK0419:3LYA37P8IRU7DHVQB76BZWVX5W9BKD", "current_trial": 48, "dateTime": 1510864551307, "trialdata": {"rt": -1, "stimulus": "<p id=\"stim\">6</p>", "key_press": -1, "trial_type": "single-stim", "trial_index": 48, "time_elapsed": 261476, "internal_node_id": "0.0-35.0-4.0"}}, {"uniqueid": "MTK0419:3LYA37P8IRU7DHVQB76BZWVX5W9BKD", "current_trial": 49, "dateTime": 1510864552310, "trialdata": {"rt": -1, "stimulus": "<p id=\"stim\">5</p>", "key_press": -1, "trial_type": "single-stim", "trial_index": 49, "time_elapsed": 262478, "internal_node_id": "0.0-35.0-5.0"}}, {"uniqueid": "MTK0419:3LYA37P8IRU7DHVQB76BZWVX5W9BKD", "current_trial": 50, "dateTime": 1510864553312, "trialdata": {"rt": -1, "stimulus": "<p id=\"stim\">4</p>", "key_press": -1, "trial_type": "single-stim", "trial_index": 50, "time_elapsed": 263481, "internal_node_id": "0.0-35.0-6.0"}}, {"uniqueid": "MTK0419:3LYA37P8IRU7DHVQB76BZWVX5W9BKD", "current_trial": 51, "dateTime": 1510864554314, "trialdata": {"rt": -1, "stimulus": "<p id=\"stim\">3</p>", "key_press": -1, "trial_type": "single-stim", "trial_index": 51, "time_elapsed": 264483, "internal_node_id": "0.0-35.0-7.0"}}, {"uniqueid": "MTK0419:3LYA37P8IRU7DHVQB76BZWVX5W9BKD", "current_trial": 52, "dateTime": 1510864555317, "trialdata": {"rt": -1, "stimulus": "<p id=\"stim\">2</p>", "key_press": -1, "trial_type": "single-stim", "trial_index": 52, "time_elapsed": 265485, "internal_node_id": "0.0-35.0-8.0"}}, {"uniqueid": "MTK0419:3LYA37P8IRU7DHVQB76BZWVX5W9BKD", "current_trial": 53, "dateTime": 1510864556319, "trialdata": {"rt": -1, "stimulus": "<p id=\"stim\">1</p>", "key_press": -1, "trial_type": "single-stim", "trial_index": 53, "time_elapsed": 266488, "internal_node_id": "0.0-35.0-9.0"}}, {"uniqueid": "MTK0419:3LYA37P8IRU7DHVQB76BZWVX5W9BKD", "current_trial": 54, "dateTime": 1510864557822, "trialdata": {"rt": -1, "stimulus": "<p id=\"stim\">+</p>", "key_press": -1, "type": "FIXATION", "trial_type": "single-stim", "trial_index": 54, "time_elapsed": 267991, "internal_node_id": "0.0-36.0-0.0"}}, {"uniqueid": "MTK0419:3LYA37P8IRU7DHVQB76BZWVX5W9BKD", "current_trial": 55, "dateTime": 1510864559024, "trialdata": {"rt": -1, "stimulus": "<p id=\"stim\">RIFLE</p>", "key_press": -1, "type": "PRES_VIS", "word": "rifle", "wordID": 1191, "conditions": [18, 1200, "v", 18000], "trial": 1, "serialpos": 0, "trial_type": "single-stim", "trial_index": 55, "time_elapsed": 269193, "internal_node_id": "0.0-37.0"}}, {"uniqueid": "MTK0419:3LYA37P8IRU7DHVQB76BZWVX5W9BKD", "current_trial": 56, "dateTime": 1510864561173, "trialdata": {"rt": -1, "stimulus": "<p id=\"stim\">EXPERT</p>", "key_press": -1, "type": "PRES_VIS", "word": "expert", "wordID": 542, "conditions": [18, 1200, "v", 18000], "trial": 1, "serialpos": 1, "trial_type": "single-stim", "trial_index": 56, "time_elapsed": 271342, "internal_node_id": "0.0-38.0"}}, {"uniqueid": "MTK0419:3LYA37P8IRU7DHVQB76BZWVX5W9BKD", "current_trial": 57, "dateTime": 1510864563241, "trialdata": {"rt": -1, "stimulus": "<p id=\"stim\">REBEL</p>", "key_press": -1, "type": "PRES_VIS", "word": "rebel", "wordID": 1171, "conditions": [18, 1200, "v", 18000], "trial": 1, "serialpos": 2, "trial_type": "single-stim", "trial_index": 57, "time_elapsed": 273410, "internal_node_id": "0.0-39.0"}}, {"uniqueid": "MTK0419:3LYA37P8IRU7DHVQB76BZWVX5W9BKD", "current_trial": 58, "dateTime": 1510864565484, "trialdata": {"rt": -1, "stimulus": "<p id=\"stim\">STAR</p>", "key_press": -1, "type": "PRES_VIS", "word": "star", "wordID": 1372, "conditions": [18, 1200, "v", 18000], "trial": 1, "serialpos": 3, "trial_type": "single-stim", "trial_index": 58, "time_elapsed": 275653, "internal_node_id": "0.0-40.0"}}, {"uniqueid": "MTK0419:3LYA37P8IRU7DHVQB76BZWVX5W9BKD", "current_trial": 59, "dateTime": 1510864567836, "trialdata": {"rt": -1, "stimulus": "<p id=\"stim\">LUGGAGE</p>", "key_press": -1, "type": "PRES_VIS", "word": "luggage", "wordID": 846, "conditions": [18, 1200, "v", 18000], "trial": 1, "serialpos": 4, "trial_type": "single-stim", "trial_index": 59, "time_elapsed": 278005, "internal_node_id": "0.0-41.0"}}, {"uniqueid": "MTK0419:3LYA37P8IRU7DHVQB76BZWVX5W9BKD", "current_trial": 60, "dateTime": 1510864570024, "trialdata": {"rt": -1, "stimulus": "<p id=\"stim\">HELMET</p>", "key_press": -1, "type": "PRES_VIS", "word": "helmet", "wordID": 701, "conditions": [18, 1200, "v", 18000], "trial": 1, "serialpos": 5, "trial_type": "single-stim", "trial_index": 60, "time_elapsed": 280192, "internal_node_id": "0.0-42.0"}}, {"uniqueid": "MTK0419:3LYA37P8IRU7DHVQB76BZWVX5W9BKD", "current_trial": 61, "dateTime": 1510864572150, "trialdata": {"rt": -1, "stimulus": "<p id=\"stim\">JURY</p>", "key_press": -1, "type": "PRES_VIS", "word": "jury", "wordID": 765, "conditions": [18, 1200, "v", 18000], "trial": 1, "serialpos": 6, "trial_type": "single-stim", "trial_index": 61, "time_elapsed": 282319, "internal_node_id": "0.0-43.0"}}, {"uniqueid": "MTK0419:3LYA37P8IRU7DHVQB76BZWVX5W9BKD", "current_trial": 62, "dateTime": 1510864574288, "trialdata": {"rt": -1, "stimulus": "<p id=\"stim\">CABIN</p>", "key_press": -1, "type": "PRES_VIS", "word": "cabin", "wordID": 210, "conditions": [18, 1200, "v", 18000], "trial": 1, "serialpos": 7, "trial_type": "single-stim", "trial_index": 62, "time_elapsed": 284457, "internal_node_id": "0.0-44.0"}}, {"uniqueid": "MTK0419:3LYA37P8IRU7DHVQB76BZWVX5W9BKD", "current_trial": 63, "dateTime": 1510864576581, "trialdata": {"rt": -1, "stimulus": "<p id=\"stim\">BURGLAR</p>", "key_press": -1, "type": "PRES_VIS", "word": "burglar", "wordID": 199, "conditions": [18, 1200, "v", 18000], "trial": 1, "serialpos": 8, "trial_type": "single-stim", "trial_index": 63, "time_elapsed": 286750, "internal_node_id": "0.0-45.0"}}, {"uniqueid": "MTK0419:3LYA37P8IRU7DHVQB76BZWVX5W9BKD", "current_trial": 64, "dateTime": 1510864578920, "trialdata": {"rt": -1, "stimulus": "<p id=\"stim\">HEDGE</p>", "key_press": -1, "type": "PRES_VIS", "word": "hedge", "wordID": 698, "conditions": [18, 1200, "v", 18000], "trial": 1, "serialpos": 9, "trial_type": "single-stim", "trial_index": 64, "time_elapsed": 289086, "internal_node_id": "0.0-46.0"}}, {"uniqueid": "MTK0419:3LYA37P8IRU7DHVQB76BZWVX5W9BKD", "current_trial": 65, "dateTime": 1510864581062, "trialdata": {"rt": -1, "stimulus": "<p id=\"stim\">HOUND</p>", "key_press": -1, "type": "PRES_VIS", "word": "hound", "wordID": 723, "conditions": [18, 1200, "v", 18000], "trial": 1, "serialpos": 10, "trial_type": "single-stim", "trial_index": 65, "time_elapsed": 291231, "internal_node_id": "0.0-47.0"}}, {"uniqueid": "MTK0419:3LYA37P8IRU7DHVQB76BZWVX5W9BKD", "current_trial": 66, "dateTime": 1510864583193, "trialdata": {"rt": -1, "stimulus": "<p id=\"stim\">SPOUSE</p>", "key_press": -1, "type": "PRES_VIS", "word": "spouse", "wordID": 1357, "conditions": [18, 1200, "v", 18000], "trial": 1, "serialpos": 11, "trial_type": "single-stim", "trial_index": 66, "time_elapsed": 293362, "internal_node_id": "0.0-48.0"}}, {"uniqueid": "MTK0419:3LYA37P8IRU7DHVQB76BZWVX5W9BKD", "current_trial": 67, "dateTime": 1510864585218, "trialdata": {"rt": -1, "stimulus": "<p id=\"stim\">TRANSPLANT</p>", "key_press": -1, "type": "PRES_VIS", "word": "transplant", "wordID": 1495, "conditions": [18, 1200, "v", 18000], "trial": 1, "serialpos": 12, "trial_type": "single-stim", "trial_index": 67, "time_elapsed": 295387, "internal_node_id": "0.0-49.0"}}, {"uniqueid": "MTK0419:3LYA37P8IRU7DHVQB76BZWVX5W9BKD", "current_trial": 68, "dateTime": 1510864587252, "trialdata": {"rt": -1, "stimulus": "<p id=\"stim\">SHORTCAKE</p>", "key_press": -1, "type": "PRES_VIS", "word": "shortcake", "wordID": 1291, "conditions": [18, 1200, "v", 18000], "trial": 1, "serialpos": 13, "trial_type": "single-stim", "trial_index": 68, "time_elapsed": 297419, "internal_node_id": "0.0-50.0"}}, {"uniqueid": "MTK0419:3LYA37P8IRU7DHVQB76BZWVX5W9BKD", "current_trial": 69, "dateTime": 1510864589587, "trialdata": {"rt": -1, "stimulus": "<p id=\"stim\">BUREAU</p>", "key_press": -1, "type": "PRES_VIS", "word": "bureau", "wordID": 198, "conditions": [18, 1200, "v", 18000], "trial": 1, "serialpos": 14, "trial_type": "single-stim", "trial_index": 69, "time_elapsed": 299756, "internal_node_id": "0.0-51.0"}}, {"uniqueid": "MTK0419:3LYA37P8IRU7DHVQB76BZWVX5W9BKD", "current_trial": 70, "dateTime": 1510864591837, "trialdata": {"rt": -1, "stimulus": "<p id=\"stim\">BARREL</p>", "key_press": -1, "type": "PRES_VIS", "word": "barrel", "wordID": 90, "conditions": [18, 1200, "v", 18000], "trial": 1, "serialpos": 15, "trial_type": "single-stim", "trial_index": 70, "time_elapsed": 302005, "internal_node_id": "0.0-52.0"}}, {"uniqueid": "MTK0419:3LYA37P8IRU7DHVQB76BZWVX5W9BKD", "current_trial": 71, "dateTime": 1510864594060, "trialdata": {"rt": -1, "stimulus": "<p id=\"stim\">LASER</p>", "key_press": -1, "type": "PRES_VIS", "word": "laser", "wordID": 800, "conditions": [18, 1200, "v", 18000], "trial": 1, "serialpos": 16, "trial_type": "single-stim", "trial_index": 71, "time_elapsed": 304229, "internal_node_id": "0.0-53.0"}}, {"uniqueid": "MTK0419:3LYA37P8IRU7DHVQB76BZWVX5W9BKD", "current_trial": 72, "dateTime": 1510864596193, "trialdata": {"rt": -1, "stimulus": "<p id=\"stim\">AWARD</p>", "key_press": -1, "type": "PRES_VIS", "word": "award", "wordID": 62, "conditions": [18, 1200, "v", 18000], "trial": 1, "serialpos": 17, "trial_type": "single-stim", "trial_index": 72, "time_elapsed": 306361, "internal_node_id": "0.0-54.0"}}, {"uniqueid": "MTK0419:3LYA37P8IRU7DHVQB76BZWVX5W9BKD", "current_trial": 73, "dateTime": 1510864598368, "trialdata": {"rt": -1, "stimulus": "", "key_press": -1, "type": "PRE_RECALL_DELAY", "trial_type": "single-stim", "trial_index": 73, "time_elapsed": 308537, "internal_node_id": "0.0-55.0-0.0"}}, {"uniqueid": "MTK0419:3LYA37P8IRU7DHVQB76BZWVX5W9BKD", "current_trial": 74, "dateTime": 1510864598870, "trialdata": {"rt": -1000, "stimulus": "/static/audio/400Hz.wav", "key_press": -1, "type": "PRE_RECALL_ALERT", "trial_type": "single-audio", "trial_index": 74, "time_elapsed": 309039, "internal_node_id": "0.0-56.0"}}, {"uniqueid": "MTK0419:3LYA37P8IRU7DHVQB76BZWVX5W9BKD", "current_trial": 75, "dateTime": 1510864658883, "trialdata": {"rt": [1748, 3180, 4236, 14427, 33236, 34236], "recwords": ["rebel", "laser", "award", "bureau", "rifle", "expert"], "type": "FREE_RECALL", "conditions": [18, 1200, "v", 18000], "trial": 1, "trial_type": "free-recall", "trial_index": 75, "time_elapsed": 369045, "internal_node_id": "0.0-57.0-0.0"}}, {"uniqueid": "MTK0419:3LYA37P8IRU7DHVQB76BZWVX5W9BKD", "current_trial": 76, "dateTime": 1510864792014, "trialdata": {"rt": 131124, "key_press": 32, "type": "INSTRUCTIONS", "trial_type": "text", "trial_index": 76, "time_elapsed": 502179, "internal_node_id": "0.0-58.0"}}, {"uniqueid": "MTK0419:3LYA37P8IRU7DHVQB76BZWVX5W9BKD", "current_trial": 77, "dateTime": 1510864817020, "trialdata": {"rt": [1737, 3273, 4617, 5801, 8466, 9961, 12153, 14059, 15801, 19714, 21017, 22697], "responses": ["17", "12", "13", "7", "22", "16", "16", "11", "17", "22", "7", "21"], "num1": [7, 2, 3, 3, 9, 6, 4, 5, 8, 7, 2, 8, 3], "num2": [8, 7, 6, 1, 5, 2, 7, 2, 4, 7, 4, 7, 3], "num3": [2, 3, 4, 3, 8, 8, 5, 4, 5, 8, 1, 6, 7], "type": "DISTRACTOR", "conditions": [24, 800, "v", 24000], "trial": 2, "trial_type": "math-distractor", "trial_index": 77, "time_elapsed": 527189, "internal_node_id": "0.0-59.0"}}, {"uniqueid": "MTK0419:3LYA37P8IRU7DHVQB76BZWVX5W9BKD", "current_trial": 78, "dateTime": 1510864820023, "trialdata": {"rt": -1, "stimulus": "<p id=\"stim\">10</p>", "key_press": -1, "trial_type": "single-stim", "trial_index": 78, "time_elapsed": 530192, "internal_node_id": "0.0-60.0-0.0"}}, {"uniqueid": "MTK0419:3LYA37P8IRU7DHVQB76BZWVX5W9BKD", "current_trial": 79, "dateTime": 1510864821026, "trialdata": {"rt": -1, "stimulus": "<p id=\"stim\">9</p>", "key_press": -1, "trial_type": "single-stim", "trial_index": 79, "time_elapsed": 531194, "internal_node_id": "0.0-60.0-1.0"}}, {"uniqueid": "MTK0419:3LYA37P8IRU7DHVQB76BZWVX5W9BKD", "current_trial": 80, "dateTime": 1510864822029, "trialdata": {"rt": -1, "stimulus": "<p id=\"stim\">8</p>", "key_press": -1, "trial_type": "single-stim", "trial_index": 80, "time_elapsed": 532198, "internal_node_id": "0.0-60.0-2.0"}}, {"uniqueid": "MTK0419:3LYA37P8IRU7DHVQB76BZWVX5W9BKD", "current_trial": 81, "dateTime": 1510864823032, "trialdata": {"rt": -1, "stimulus": "<p id=\"stim\">7</p>", "key_press": -1, "trial_type": "single-stim", "trial_index": 81, "time_elapsed": 533201, "internal_node_id": "0.0-60.0-3.0"}}, {"uniqueid": "MTK0419:3LYA37P8IRU7DHVQB76BZWVX5W9BKD", "current_trial": 82, "dateTime": 1510864824039, "trialdata": {"rt": -1, "stimulus": "<p id=\"stim\">6</p>", "key_press": -1, "trial_type": "single-stim", "trial_index": 82, "time_elapsed": 534208, "internal_node_id": "0.0-60.0-4.0"}}, {"uniqueid": "MTK0419:3LYA37P8IRU7DHVQB76BZWVX5W9BKD", "current_trial": 83, "dateTime": 1510864825042, "trialdata": {"rt": -1, "stimulus": "<p id=\"stim\">5</p>", "key_press": -1, "trial_type": "single-stim", "trial_index": 83, "time_elapsed": 535211, "internal_node_id": "0.0-60.0-5.0"}}, {"uniqueid": "MTK0419:3LYA37P8IRU7DHVQB76BZWVX5W9BKD", "current_trial": 84, "dateTime": 1510864826046, "trialdata": {"rt": -1, "stimulus": "<p id=\"stim\">4</p>", "key_press": -1, "trial_type": "single-stim", "trial_index": 84, "time_elapsed": 536214, "internal_node_id": "0.0-60.0-6.0"}}, {"uniqueid": "MTK0419:3LYA37P8IRU7DHVQB76BZWVX5W9BKD", "current_trial": 85, "dateTime": 1510864827048, "trialdata": {"rt": -1, "stimulus": "<p id=\"stim\">3</p>", "key_press": -1, "trial_type": "single-stim", "trial_index": 85, "time_elapsed": 537217, "internal_node_id": "0.0-60.0-7.0"}}, {"uniqueid": "MTK0419:3LYA37P8IRU7DHVQB76BZWVX5W9BKD", "current_trial": 86, "dateTime": 1510864828053, "trialdata": {"rt": -1, "stimulus": "<p id=\"stim\">2</p>", "key_press": -1, "trial_type": "single-stim", "trial_index": 86, "time_elapsed": 538222, "internal_node_id": "0.0-60.0-8.0"}}, {"uniqueid": "MTK0419:3LYA37P8IRU7DHVQB76BZWVX5W9BKD", "current_trial": 87, "dateTime": 1510864829060, "trialdata": {"rt": -1, "stimulus": "<p id=\"stim\">1</p>", "key_press": -1, "trial_type": "single-stim", "trial_index": 87, "time_elapsed": 539228, "internal_node_id": "0.0-60.0-9.0"}}, {"uniqueid": "MTK0419:3LYA37P8IRU7DHVQB76BZWVX5W9BKD", "current_trial": 88, "dateTime": 1510864830562, "trialdata": {"rt": -1, "stimulus": "<p id=\"stim\">+</p>", "key_press": -1, "type": "FIXATION", "trial_type": "single-stim", "trial_index": 88, "time_elapsed": 540731, "internal_node_id": "0.0-61.0-0.0"}}, {"uniqueid": "MTK0419:3LYA37P8IRU7DHVQB76BZWVX5W9BKD", "current_trial": 89, "dateTime": 1510864831364, "trialdata": {"rt": -1, "stimulus": "<p id=\"stim\">MACHINE</p>", "key_press": -1, "type": "PRES_VIS", "word": "machine", "wordID": 851, "conditions": [24, 800, "v", 24000], "trial": 2, "serialpos": 0, "trial_type": "single-stim", "trial_index": 89, "time_elapsed": 541533, "internal_node_id": "0.0-62.0"}}, {"uniqueid": "MTK0419:3LYA37P8IRU7DHVQB76BZWVX5W9BKD", "current_trial": 90, "dateTime": 1510864833052, "trialdata": {"rt": -1, "stimulus": "<p id=\"stim\">APRON</p>", "key_press": -1, "type": "PRES_VIS", "word": "apron", "wordID": 34, "conditions": [24, 800, "v", 24000], "trial": 2, "serialpos": 1, "trial_type": "single-stim", "trial_index": 90, "time_elapsed": 543221, "internal_node_id": "0.0-63.0"}}, {"uniqueid": "MTK0419:3LYA37P8IRU7DHVQB76BZWVX5W9BKD", "current_trial": 91, "dateTime": 1510864834756, "trialdata": {"rt": -1, "stimulus": "<p id=\"stim\">PLASTER</p>", "key_press": -1, "type": "PRES_VIS", "word": "plaster", "wordID": 1084, "conditions": [24, 800, "v", 24000], "trial": 2, "serialpos": 2, "trial_type": "single-stim", "trial_index": 91, "time_elapsed": 544925, "internal_node_id": "0.0-64.0"}}, {"uniqueid": "MTK0419:3LYA37P8IRU7DHVQB76BZWVX5W9BKD", "current_trial": 92, "dateTime": 1510864836692, "trialdata": {"rt": -1, "stimulus": "<p id=\"stim\">NURSE</p>", "key_press": -1, "type": "PRES_VIS", "word": "nurse", "wordID": 962, "conditions": [24, 800, "v", 24000], "trial": 2, "serialpos": 3, "trial_type": "single-stim", "trial_index": 92, "time_elapsed": 546861, "internal_node_id": "0.0-65.0"}}, {"uniqueid": "MTK0419:3LYA37P8IRU7DHVQB76BZWVX5W9BKD", "current_trial": 93, "dateTime": 1510864838576, "trialdata": {"rt": -1, "stimulus": "<p id=\"stim\">JAPAN</p>", "key_press": -1, "type": "PRES_VIS", "word": "japan", "wordID": 748, "conditions": [24, 800, "v", 24000], "trial": 2, "serialpos": 4, "trial_type": "single-stim", "trial_index": 93, "time_elapsed": 548745, "internal_node_id": "0.0-66.0"}}, {"uniqueid": "MTK0419:3LYA37P8IRU7DHVQB76BZWVX5W9BKD", "current_trial": 94, "dateTime": 1510864840408, "trialdata": {"rt": -1, "stimulus": "<p id=\"stim\">LADY</p>", "key_press": -1, "type": "PRES_VIS", "word": "lady", "wordID": 793, "conditions": [24, 800, "v", 24000], "trial": 2, "serialpos": 5, "trial_type": "single-stim", "trial_index": 94, "time_elapsed": 550577, "internal_node_id": "0.0-67.0"}}, {"uniqueid": "MTK0419:3LYA37P8IRU7DHVQB76BZWVX5W9BKD", "current_trial": 95, "dateTime": 1510864842222, "trialdata": {"rt": -1, "stimulus": "<p id=\"stim\">CLOCK</p>", "key_press": -1, "type": "PRES_VIS", "word": "clock", "wordID": 324, "conditions": [24, 800, "v", 24000], "trial": 2, "serialpos": 6, "trial_type": "single-stim", "trial_index": 95, "time_elapsed": 552391, "internal_node_id": "0.0-68.0"}}, {"uniqueid": "MTK0419:3LYA37P8IRU7DHVQB76BZWVX5W9BKD", "current_trial": 96, "dateTime": 1510864843938, "trialdata": {"rt": -1, "stimulus": "<p id=\"stim\">SERVER</p>", "key_press": -1, "type": "PRES_VIS", "word": "server", "wordID": 1271, "conditions": [24, 800, "v", 24000], "trial": 2, "serialpos": 7, "trial_type": "single-stim", "trial_index": 96, "time_elapsed": 554107, "internal_node_id": "0.0-69.0"}}, {"uniqueid": "MTK0419:3LYA37P8IRU7DHVQB76BZWVX5W9BKD", "current_trial": 97, "dateTime": 1510864845607, "trialdata": {"rt": -1, "stimulus": "<p id=\"stim\">PATIENT</p>", "key_press": -1, "type": "PRES_VIS", "word": "patient", "wordID": 1023, "conditions": [24, 800, "v", 24000], "trial": 2, "serialpos": 8, "trial_type": "single-stim", "trial_index": 97, "time_elapsed": 555776, "internal_node_id": "0.0-70.0"}}, {"uniqueid": "MTK0419:3LYA37P8IRU7DHVQB76BZWVX5W9BKD", "current_trial": 98, "dateTime": 1510864847353, "trialdata": {"rt": -1, "stimulus": "<p id=\"stim\">CLIMBER</p>", "key_press": -1, "type": "PRES_VIS", "word": "climber", "wordID": 322, "conditions": [24, 800, "v", 24000], "trial": 2, "serialpos": 9, "trial_type": "single-stim", "trial_index": 98, "time_elapsed": 557522, "internal_node_id": "0.0-71.0"}}, {"uniqueid": "MTK0419:3LYA37P8IRU7DHVQB76BZWVX5W9BKD", "current_trial": 99, "dateTime": 1510864849267, "trialdata": {"rt": -1, "stimulus": "<p id=\"stim\">DONKEY</p>", "key_press": -1, "type": "PRES_VIS", "word": "donkey", "wordID": 483, "conditions": [24, 800, "v", 24000], "trial": 2, "serialpos": 10, "trial_type": "single-stim", "trial_index": 99, "time_elapsed": 559436, "internal_node_id": "0.0-72.0"}}, {"uniqueid": "MTK0419:3LYA37P8IRU7DHVQB76BZWVX5W9BKD", "current_trial": 100, "dateTime": 1510864851076, "trialdata": {"rt": -1, "stimulus": "<p id=\"stim\">CAMEL</p>", "key_press": -1, "type": "PRES_VIS", "word": "camel", "wordID": 222, "conditions": [24, 800, "v", 24000], "trial": 2, "serialpos": 11, "trial_type": "single-stim", "trial_index": 100, "time_elapsed": 561245, "internal_node_id": "0.0-73.0"}}, {"uniqueid": "MTK0419:3LYA37P8IRU7DHVQB76BZWVX5W9BKD", "current_trial": 101, "dateTime": 1510864852871, "trialdata": {"rt": -1, "stimulus": "<p id=\"stim\">FRUIT</p>", "key_press": -1, "type": "PRES_VIS", "word": "fruit", "wordID": 609, "conditions": [24, 800, "v", 24000], "trial": 2, "serialpos": 12, "trial_type": "single-stim", "trial_index": 101, "time_elapsed": 563040, "internal_node_id": "0.0-74.0"}}, {"uniqueid": "MTK0419:3LYA37P8IRU7DHVQB76BZWVX5W9BKD", "current_trial": 102, "dateTime": 1510864854650, "trialdata": {"rt": -1, "stimulus": "<p id=\"stim\">CAFE</p>", "key_press": -1, "type": "PRES_VIS", "word": "cafe", "wordID": 215, "conditions": [24, 800, "v", 24000], "trial": 2, "serialpos": 13, "trial_type": "single-stim", "trial_index": 102, "time_elapsed": 564819, "internal_node_id": "0.0-75.0"}}, {"uniqueid": "MTK0419:3LYA37P8IRU7DHVQB76BZWVX5W9BKD", "current_trial": 103, "dateTime": 1510864856386, "trialdata": {"rt": -1, "stimulus": "<p id=\"stim\">PERCH</p>", "key_press": -1, "type": "PRES_VIS", "word": "perch", "wordID": 1047, "conditions": [24, 800, "v", 24000], "trial": 2, "serialpos": 14, "trial_type": "single-stim", "trial_index": 103, "time_elapsed": 566555, "internal_node_id": "0.0-76.0"}}, {"uniqueid": "MTK0419:3LYA37P8IRU7DHVQB76BZWVX5W9BKD", "current_trial": 104, "dateTime": 1510864858059, "trialdata": {"rt": -1, "stimulus": "<p id=\"stim\">SALT</p>", "key_press": -1, "type": "PRES_VIS", "word": "salt", "wordID": 1228, "conditions": [24, 800, "v", 24000], "trial": 2, "serialpos": 15, "trial_type": "single-stim", "trial_index": 104, "time_elapsed": 568228, "internal_node_id": "0.0-77.0"}}, {"uniqueid": "MTK0419:3LYA37P8IRU7DHVQB76BZWVX5W9BKD", "current_trial": 105, "dateTime": 1510864859847, "trialdata": {"rt": -1, "stimulus": "<p id=\"stim\">JELLY</p>", "key_press": -1, "type": "PRES_VIS", "word": "jelly", "wordID": 754, "conditions": [24, 800, "v", 24000], "trial": 2, "serialpos": 16, "trial_type": "single-stim", "trial_index": 105, "time_elapsed": 570015, "internal_node_id": "0.0-78.0"}}, {"uniqueid": "MTK0419:3LYA37P8IRU7DHVQB76BZWVX5W9BKD", "current_trial": 106, "dateTime": 1510864861509, "trialdata": {"rt": -1, "stimulus": "<p id=\"stim\">BANKER</p>", "key_press": -1, "type": "PRES_VIS", "word": "banker", "wordID": 83, "conditions": [24, 800, "v", 24000], "trial": 2, "serialpos": 17, "trial_type": "single-stim", "trial_index": 106, "time_elapsed": 571678, "internal_node_id": "0.0-79.0"}}, {"uniqueid": "MTK0419:3LYA37P8IRU7DHVQB76BZWVX5W9BKD", "current_trial": 107, "dateTime": 1510864863279, "trialdata": {"rt": -1, "stimulus": "<p id=\"stim\">BANK</p>", "key_press": -1, "type": "PRES_VIS", "word": "bank", "wordID": 82, "conditions": [24, 800, "v", 24000], "trial": 2, "serialpos": 18, "trial_type": "single-stim", "trial_index": 107, "time_elapsed": 573448, "internal_node_id": "0.0-80.0"}}, {"uniqueid": "MTK0419:3LYA37P8IRU7DHVQB76BZWVX5W9BKD", "current_trial": 108, "dateTime": 1510864864951, "trialdata": {"rt": -1, "stimulus": "<p id=\"stim\">HAND</p>", "key_press": -1, "type": "PRES_VIS", "word": "hand", "wordID": 682, "conditions": [24, 800, "v", 24000], "trial": 2, "serialpos": 19, "trial_type": "single-stim", "trial_index": 108, "time_elapsed": 575120, "internal_node_id": "0.0-81.0"}}, {"uniqueid": "MTK0419:3LYA37P8IRU7DHVQB76BZWVX5W9BKD", "current_trial": 109, "dateTime": 1510864866707, "trialdata": {"rt": -1, "stimulus": "<p id=\"stim\">FLESH</p>", "key_press": -1, "type": "PRES_VIS", "word": "flesh", "wordID": 578, "conditions": [24, 800, "v", 24000], "trial": 2, "serialpos": 20, "trial_type": "single-stim", "trial_index": 109, "time_elapsed": 576876, "internal_node_id": "0.0-82.0"}}, {"uniqueid": "MTK0419:3LYA37P8IRU7DHVQB76BZWVX5W9BKD", "current_trial": 110, "dateTime": 1510864868670, "trialdata": {"rt": -1, "stimulus": "<p id=\"stim\">JELLO</p>", "key_press": -1, "type": "PRES_VIS", "word": "jello", "wordID": 753, "conditions": [24, 800, "v", 24000], "trial": 2, "serialpos": 21, "trial_type": "single-stim", "trial_index": 110, "time_elapsed": 578839, "internal_node_id": "0.0-83.0"}}, {"uniqueid": "MTK0419:3LYA37P8IRU7DHVQB76BZWVX5W9BKD", "current_trial": 111, "dateTime": 1510864870581, "trialdata": {"rt": -1, "stimulus": "<p id=\"stim\">ANTLER</p>", "key_press": -1, "type": "PRES_VIS", "word": "antler", "wordID": 28, "conditions": [24, 800, "v", 24000], "trial": 2, "serialpos": 22, "trial_type": "single-stim", "trial_index": 111, "time_elapsed": 580750, "internal_node_id": "0.0-84.0"}}, {"uniqueid": "MTK0419:3LYA37P8IRU7DHVQB76BZWVX5W9BKD", "current_trial": 112, "dateTime": 1510864872252, "trialdata": {"rt": -1, "stimulus": "<p id=\"stim\">BRIEFCASE</p>", "key_press": -1, "type": "PRES_VIS", "word": "briefcase", "wordID": 174, "conditions": [24, 800, "v", 24000], "trial": 2, "serialpos": 23, "trial_type": "single-stim", "trial_index": 112, "time_elapsed": 582421, "internal_node_id": "0.0-85.0"}}, {"uniqueid": "MTK0419:3LYA37P8IRU7DHVQB76BZWVX5W9BKD", "current_trial": 113, "dateTime": 1510864874594, "trialdata": {"rt": -1, "stimulus": "", "key_press": -1, "type": "PRE_RECALL_DELAY", "trial_type": "single-stim", "trial_index": 113, "time_elapsed": 584763, "internal_node_id": "0.0-86.0-0.0"}}, {"uniqueid": "MTK0419:3LYA37P8IRU7DHVQB76BZWVX5W9BKD", "current_trial": 114, "dateTime": 1510864875097, "trialdata": {"rt": -1000, "stimulus": "/static/audio/400Hz.wav", "key_press": -1, "type": "PRE_RECALL_ALERT", "trial_type": "single-audio", "trial_index": 114, "time_elapsed": 585266, "internal_node_id": "0.0-87.0"}}, {"uniqueid": "MTK0419:3LYA37P8IRU7DHVQB76BZWVX5W9BKD", "current_trial": 115, "dateTime": 1510864935101, "trialdata": {"rt": [1578, 4369, 5513, 6201, 7785, 11001, 11722], "recwords": ["antler", "briefcase", "perch", "salt", "jelly", "nurse", "lady"], "type": "FREE_RECALL", "conditions": [24, 800, "v", 24000], "trial": 2, "trial_type": "free-recall", "trial_index": 115, "time_elapsed": 645267, "internal_node_id": "0.0-88.0-0.0"}}, {"uniqueid": "MTK0419:3LYA37P8IRU7DHVQB76BZWVX5W9BKD", "current_trial": 116, "dateTime": 1510864940170, "trialdata": {"rt": 3068, "key_press": 13, "type": "INSTRUCTIONS", "trial_type": "text", "trial_index": 116, "time_elapsed": 650339, "internal_node_id": "0.0-89.0"}}, {"uniqueid": "MTK0419:3LYA37P8IRU7DHVQB76BZWVX5W9BKD", "current_trial": 117, "dateTime": 1510864966182, "trialdata": {"rt": [1808, 4016, 6248, 7344, 9105, 10175, 12368, 15208, 17424, 19040, 20448, 21519, 23080], "responses": ["17", "22", "18", "12", "16", "14", "21", "13", "18", "15", "19", "5", "10"], "num1": [6, 8, 5, 5, 4, 4, 8, 6, 7, 5, 9, 3, 7, 7], "num2": [9, 9, 9, 5, 8, 5, 4, 3, 2, 2, 7, 1, 2, 7], "num3": [2, 5, 4, 2, 4, 5, 9, 4, 9, 8, 3, 1, 1, 1], "type": "DISTRACTOR", "conditions": [24, 1600, "v", 24000], "trial": 3, "trial_type": "math-distractor", "trial_index": 117, "time_elapsed": 676351, "internal_node_id": "0.0-90.0"}}, {"uniqueid": "MTK0419:3LYA37P8IRU7DHVQB76BZWVX5W9BKD", "current_trial": 118, "dateTime": 1510864969186, "trialdata": {"rt": -1, "stimulus": "<p id=\"stim\">10</p>", "key_press": -1, "trial_type": "single-stim", "trial_index": 118, "time_elapsed": 679355, "internal_node_id": "0.0-91.0-0.0"}}, {"uniqueid": "MTK0419:3LYA37P8IRU7DHVQB76BZWVX5W9BKD", "current_trial": 119, "dateTime": 1510864970188, "trialdata": {"rt": -1, "stimulus": "<p id=\"stim\">9</p>", "key_press": -1, "trial_type": "single-stim", "trial_index": 119, "time_elapsed": 680357, "internal_node_id": "0.0-91.0-1.0"}}, {"uniqueid": "MTK0419:3LYA37P8IRU7DHVQB76BZWVX5W9BKD", "current_trial": 120, "dateTime": 1510864971192, "trialdata": {"rt": -1, "stimulus": "<p id=\"stim\">8</p>", "key_press": -1, "trial_type": "single-stim", "trial_index": 120, "time_elapsed": 681361, "internal_node_id": "0.0-91.0-2.0"}}, {"uniqueid": "MTK0419:3LYA37P8IRU7DHVQB76BZWVX5W9BKD", "current_trial": 121, "dateTime": 1510864972194, "trialdata": {"rt": -1, "stimulus": "<p id=\"stim\">7</p>", "key_press": -1, "trial_type": "single-stim", "trial_index": 121, "time_elapsed": 682363, "internal_node_id": "0.0-91.0-3.0"}}, {"uniqueid": "MTK0419:3LYA37P8IRU7DHVQB76BZWVX5W9BKD", "current_trial": 122, "dateTime": 1510864973197, "trialdata": {"rt": -1, "stimulus": "<p id=\"stim\">6</p>", "key_press": -1, "trial_type": "single-stim", "trial_index": 122, "time_elapsed": 683366, "internal_node_id": "0.0-91.0-4.0"}}, {"uniqueid": "MTK0419:3LYA37P8IRU7DHVQB76BZWVX5W9BKD", "current_trial": 123, "dateTime": 1510864974201, "trialdata": {"rt": -1, "stimulus": "<p id=\"stim\">5</p>", "key_press": -1, "trial_type": "single-stim", "trial_index": 123, "time_elapsed": 684370, "internal_node_id": "0.0-91.0-5.0"}}, {"uniqueid": "MTK0419:3LYA37P8IRU7DHVQB76BZWVX5W9BKD", "current_trial": 124, "dateTime": 1510864975203, "trialdata": {"rt": -1, "stimulus": "<p id=\"stim\">4</p>", "key_press": -1, "trial_type": "single-stim", "trial_index": 124, "time_elapsed": 685372, "internal_node_id": "0.0-91.0-6.0"}}, {"uniqueid": "MTK0419:3LYA37P8IRU7DHVQB76BZWVX5W9BKD", "current_trial": 125, "dateTime": 1510864976206, "trialdata": {"rt": -1, "stimulus": "<p id=\"stim\">3</p>", "key_press": -1, "trial_type": "single-stim", "trial_index": 125, "time_elapsed": 686375, "internal_node_id": "0.0-91.0-7.0"}}, {"uniqueid": "MTK0419:3LYA37P8IRU7DHVQB76BZWVX5W9BKD", "current_trial": 126, "dateTime": 1510864977208, "trialdata": {"rt": -1, "stimulus": "<p id=\"stim\">2</p>", "key_press": -1, "trial_type": "single-stim", "trial_index": 126, "time_elapsed": 687377, "internal_node_id": "0.0-91.0-8.0"}}, {"uniqueid": "MTK0419:3LYA37P8IRU7DHVQB76BZWVX5W9BKD", "current_trial": 127, "dateTime": 1510864978210, "trialdata": {"rt": -1, "stimulus": "<p id=\"stim\">1</p>", "key_press": -1, "trial_type": "single-stim", "trial_index": 127, "time_elapsed": 688379, "internal_node_id": "0.0-91.0-9.0"}}, {"uniqueid": "MTK0419:3LYA37P8IRU7DHVQB76BZWVX5W9BKD", "current_trial": 128, "dateTime": 1510864979713, "trialdata": {"rt": -1, "stimulus": "<p id=\"stim\">+</p>", "key_press": -1, "type": "FIXATION", "trial_type": "single-stim", "trial_index": 128, "time_elapsed": 689882, "internal_node_id": "0.0-92.0-0.0"}}, {"uniqueid": "MTK0419:3LYA37P8IRU7DHVQB76BZWVX5W9BKD", "current_trial": 129, "dateTime": 1510864981315, "trialdata": {"rt": -1, "stimulus": "<p id=\"stim\">ELBOW</p>", "key_press": -1, "type": "PRES_VIS", "word": "elbow", "wordID": 519, "conditions": [24, 1600, "v", 24000], "trial": 3, "serialpos": 0, "trial_type": "single-stim", "trial_index": 129, "time_elapsed": 691484, "internal_node_id": "0.0-93.0"}}, {"uniqueid": "MTK0419:3LYA37P8IRU7DHVQB76BZWVX5W9BKD", "current_trial": 130, "dateTime": 1510864984103, "trialdata": {"rt": -1, "stimulus": "<p id=\"stim\">NOVEL</p>", "key_press": -1, "type": "PRES_VIS", "word": "novel", "wordID": 959, "conditions": [24, 1600, "v", 24000], "trial": 3, "serialpos": 1, "trial_type": "single-stim", "trial_index": 130, "time_elapsed": 694272, "internal_node_id": "0.0-94.0"}}, {"uniqueid": "MTK0419:3LYA37P8IRU7DHVQB76BZWVX5W9BKD", "current_trial": 131, "dateTime": 1510864986836, "trialdata": {"rt": -1, "stimulus": "<p id=\"stim\">GALLON</p>", "key_press": -1, "type": "PRES_VIS", "word": "gallon", "wordID": 617, "conditions": [24, 1600, "v", 24000], "trial": 3, "serialpos": 2, "trial_type": "single-stim", "trial_index": 131, "time_elapsed": 697005, "internal_node_id": "0.0-95.0"}}, {"uniqueid": "MTK0419:3LYA37P8IRU7DHVQB76BZWVX5W9BKD", "current_trial": 132, "dateTime": 1510864989457, "trialdata": {"rt": -1, "stimulus": "<p id=\"stim\">GAZELLE</p>", "key_press": -1, "type": "PRES_VIS", "word": "gazelle", "wordID": 627, "conditions": [24, 1600, "v", 24000], "trial": 3, "serialpos": 3, "trial_type": "single-stim", "trial_index": 132, "time_elapsed": 699626, "internal_node_id": "0.0-96.0"}}, {"uniqueid": "MTK0419:3LYA37P8IRU7DHVQB76BZWVX5W9BKD", "current_trial": 133, "dateTime": 1510864991992, "trialdata": {"rt": -1, "stimulus": "<p id=\"stim\">ANKLE</p>", "key_press": -1, "type": "PRES_VIS", "word": "ankle", "wordID": 23, "conditions": [24, 1600, "v", 24000], "trial": 3, "serialpos": 4, "trial_type": "single-stim", "trial_index": 133, "time_elapsed": 702161, "internal_node_id": "0.0-97.0"}}, {"uniqueid": "MTK0419:3LYA37P8IRU7DHVQB76BZWVX5W9BKD", "current_trial": 134, "dateTime": 1510864994432, "trialdata": {"rt": -1, "stimulus": "<p id=\"stim\">KNAPSACK</p>", "key_press": -1, "type": "PRES_VIS", "word": "knapsack", "wordID": 782, "conditions": [24, 1600, "v", 24000], "trial": 3, "serialpos": 5, "trial_type": "single-stim", "trial_index": 134, "time_elapsed": 704601, "internal_node_id": "0.0-98.0"}}, {"uniqueid": "MTK0419:3LYA37P8IRU7DHVQB76BZWVX5W9BKD", "current_trial": 135, "dateTime": 1510864997177, "trialdata": {"rt": -1, "stimulus": "<p id=\"stim\">CRIB</p>", "key_press": -1, "type": "PRES_VIS", "word": "crib", "wordID": 406, "conditions": [24, 1600, "v", 24000], "trial": 3, "serialpos": 6, "trial_type": "single-stim", "trial_index": 135, "time_elapsed": 707346, "internal_node_id": "0.0-99.0"}}, {"uniqueid": "MTK0419:3LYA37P8IRU7DHVQB76BZWVX5W9BKD", "current_trial": 136, "dateTime": 1510864999616, "trialdata": {"rt": -1, "stimulus": "<p id=\"stim\">TREAT</p>", "key_press": -1, "type": "PRES_VIS", "word": "treat", "wordID": 1500, "conditions": [24, 1600, "v", 24000], "trial": 3, "serialpos": 7, "trial_type": "single-stim", "trial_index": 136, "time_elapsed": 709785, "internal_node_id": "0.0-100.0"}}, {"uniqueid": "MTK0419:3LYA37P8IRU7DHVQB76BZWVX5W9BKD", "current_trial": 137, "dateTime": 1510865002387, "trialdata": {"rt": -1, "stimulus": "<p id=\"stim\">DORM</p>", "key_press": -1, "type": "PRES_VIS", "word": "dorm", "wordID": 487, "conditions": [24, 1600, "v", 24000], "trial": 3, "serialpos": 8, "trial_type": "single-stim", "trial_index": 137, "time_elapsed": 712556, "internal_node_id": "0.0-101.0"}}, {"uniqueid": "MTK0419:3LYA37P8IRU7DHVQB76BZWVX5W9BKD", "current_trial": 138, "dateTime": 1510865004917, "trialdata": {"rt": -1, "stimulus": "<p id=\"stim\">STUDENT</p>", "key_press": -1, "type": "PRES_VIS", "word": "student", "wordID": 1394, "conditions": [24, 1600, "v", 24000], "trial": 3, "serialpos": 9, "trial_type": "single-stim", "trial_index": 138, "time_elapsed": 715085, "internal_node_id": "0.0-102.0"}}, {"uniqueid": "MTK0419:3LYA37P8IRU7DHVQB76BZWVX5W9BKD", "current_trial": 139, "dateTime": 1510865007501, "trialdata": {"rt": -1, "stimulus": "<p id=\"stim\">FLIPPER</p>", "key_press": -1, "type": "PRES_VIS", "word": "flipper", "wordID": 579, "conditions": [24, 1600, "v", 24000], "trial": 3, "serialpos": 10, "trial_type": "single-stim", "trial_index": 139, "time_elapsed": 717670, "internal_node_id": "0.0-103.0"}}, {"uniqueid": "MTK0419:3LYA37P8IRU7DHVQB76BZWVX5W9BKD", "current_trial": 140, "dateTime": 1510865010031, "trialdata": {"rt": -1, "stimulus": "<p id=\"stim\">ICING</p>", "key_press": -1, "type": "PRES_VIS", "word": "icing", "wordID": 731, "conditions": [24, 1600, "v", 24000], "trial": 3, "serialpos": 11, "trial_type": "single-stim", "trial_index": 140, "time_elapsed": 720200, "internal_node_id": "0.0-104.0"}}, {"uniqueid": "MTK0419:3LYA37P8IRU7DHVQB76BZWVX5W9BKD", "current_trial": 141, "dateTime": 1510865012690, "trialdata": {"rt": -1, "stimulus": "<p id=\"stim\">CREATURE</p>", "key_press": -1, "type": "PRES_VIS", "word": "creature", "wordID": 402, "conditions": [24, 1600, "v", 24000], "trial": 3, "serialpos": 12, "trial_type": "single-stim", "trial_index": 141, "time_elapsed": 722859, "internal_node_id": "0.0-105.0"}}, {"uniqueid": "MTK0419:3LYA37P8IRU7DHVQB76BZWVX5W9BKD", "current_trial": 142, "dateTime": 1510865015159, "trialdata": {"rt": -1, "stimulus": "<p id=\"stim\">PARTNER</p>", "key_press": -1, "type": "PRES_VIS", "word": "partner", "wordID": 1016, "conditions": [24, 1600, "v", 24000], "trial": 3, "serialpos": 13, "trial_type": "single-stim", "trial_index": 142, "time_elapsed": 725328, "internal_node_id": "0.0-106.0"}}, {"uniqueid": "MTK0419:3LYA37P8IRU7DHVQB76BZWVX5W9BKD", "current_trial": 143, "dateTime": 1510865017602, "trialdata": {"rt": -1, "stimulus": "<p id=\"stim\">DENTIST</p>", "key_press": -1, "type": "PRES_VIS", "word": "dentist", "wordID": 446, "conditions": [24, 1600, "v", 24000], "trial": 3, "serialpos": 14, "trial_type": "single-stim", "trial_index": 143, "time_elapsed": 727771, "internal_node_id": "0.0-107.0"}}, {"uniqueid": "MTK0419:3LYA37P8IRU7DHVQB76BZWVX5W9BKD", "current_trial": 144, "dateTime": 1510865020169, "trialdata": {"rt": -1, "stimulus": "<p id=\"stim\">PALACE</p>", "key_press": -1, "type": "PRES_VIS", "word": "palace", "wordID": 1005, "conditions": [24, 1600, "v", 24000], "trial": 3, "serialpos": 15, "trial_type": "single-stim", "trial_index": 144, "time_elapsed": 730337, "internal_node_id": "0.0-108.0"}}, {"uniqueid": "MTK0419:3LYA37P8IRU7DHVQB76BZWVX5W9BKD", "current_trial": 145, "dateTime": 1510865022752, "trialdata": {"rt": -1, "stimulus": "<p id=\"stim\">HEADBAND</p>", "key_press": -1, "type": "PRES_VIS", "word": "headband", "wordID": 695, "conditions": [24, 1600, "v", 24000], "trial": 3, "serialpos": 16, "trial_type": "single-stim", "trial_index": 145, "time_elapsed": 732921, "internal_node_id": "0.0-109.0"}}, {"uniqueid": "MTK0419:3LYA37P8IRU7DHVQB76BZWVX5W9BKD", "current_trial": 146, "dateTime": 1510865025398, "trialdata": {"rt": -1, "stimulus": "<p id=\"stim\">COUSIN</p>", "key_press": -1, "type": "PRES_VIS", "word": "cousin", "wordID": 391, "conditions": [24, 1600, "v", 24000], "trial": 3, "serialpos": 17, "trial_type": "single-stim", "trial_index": 146, "time_elapsed": 735567, "internal_node_id": "0.0-110.0"}}, {"uniqueid": "MTK0419:3LYA37P8IRU7DHVQB76BZWVX5W9BKD", "current_trial": 147, "dateTime": 1510865027984, "trialdata": {"rt": -1, "stimulus": "<p id=\"stim\">PEACH</p>", "key_press": -1, "type": "PRES_VIS", "word": "peach", "wordID": 1030, "conditions": [24, 1600, "v", 24000], "trial": 3, "serialpos": 18, "trial_type": "single-stim", "trial_index": 147, "time_elapsed": 738152, "internal_node_id": "0.0-111.0"}}, {"uniqueid": "MTK0419:3LYA37P8IRU7DHVQB76BZWVX5W9BKD", "current_trial": 148, "dateTime": 1510865030648, "trialdata": {"rt": -1, "stimulus": "<p id=\"stim\">STICKER</p>", "key_press": -1, "type": "PRES_VIS", "word": "sticker", "wordID": 1381, "conditions": [24, 1600, "v", 24000], "trial": 3, "serialpos": 19, "trial_type": "single-stim", "trial_index": 148, "time_elapsed": 740817, "internal_node_id": "0.0-112.0"}}, {"uniqueid": "MTK0419:3LYA37P8IRU7DHVQB76BZWVX5W9BKD", "current_trial": 149, "dateTime": 1510865033218, "trialdata": {"rt": -1, "stimulus": "<p id=\"stim\">WAGON</p>", "key_press": -1, "type": "PRES_VIS", "word": "wagon", "wordID": 1577, "conditions": [24, 1600, "v", 24000], "trial": 3, "serialpos": 20, "trial_type": "single-stim", "trial_index": 149, "time_elapsed": 743387, "internal_node_id": "0.0-113.0"}}, {"uniqueid": "MTK0419:3LYA37P8IRU7DHVQB76BZWVX5W9BKD", "current_trial": 150, "dateTime": 1510865035777, "trialdata": {"rt": -1, "stimulus": "<p id=\"stim\">COUNTY</p>", "key_press": -1, "type": "PRES_VIS", "word": "county", "wordID": 388, "conditions": [24, 1600, "v", 24000], "trial": 3, "serialpos": 21, "trial_type": "single-stim", "trial_index": 150, "time_elapsed": 745946, "internal_node_id": "0.0-114.0"}}, {"uniqueid": "MTK0419:3LYA37P8IRU7DHVQB76BZWVX5W9BKD", "current_trial": 151, "dateTime": 1510865038274, "trialdata": {"rt": -1, "stimulus": "<p id=\"stim\">SHERIFF</p>", "key_press": -1, "type": "PRES_VIS", "word": "sheriff", "wordID": 1283, "conditions": [24, 1600, "v", 24000], "trial": 3, "serialpos": 22, "trial_type": "single-stim", "trial_index": 151, "time_elapsed": 748443, "internal_node_id": "0.0-115.0"}}, {"uniqueid": "MTK0419:3LYA37P8IRU7DHVQB76BZWVX5W9BKD", "current_trial": 152, "dateTime": 1510865040999, "trialdata": {"rt": -1, "stimulus": "<p id=\"stim\">BEAST</p>", "key_press": -1, "type": "PRES_VIS", "word": "beast", "wordID": 107, "conditions": [24, 1600, "v", 24000], "trial": 3, "serialpos": 23, "trial_type": "single-stim", "trial_index": 152, "time_elapsed": 751168, "internal_node_id": "0.0-116.0"}}, {"uniqueid": "MTK0419:3LYA37P8IRU7DHVQB76BZWVX5W9BKD", "current_trial": 153, "dateTime": 1510865043429, "trialdata": {"rt": -1, "stimulus": "", "key_press": -1, "type": "PRE_RECALL_DELAY", "trial_type": "single-stim", "trial_index": 153, "time_elapsed": 753598, "internal_node_id": "0.0-117.0-0.0"}}, {"uniqueid": "MTK0419:3LYA37P8IRU7DHVQB76BZWVX5W9BKD", "current_trial": 154, "dateTime": 1510865043941, "trialdata": {"rt": -1000, "stimulus": "/static/audio/400Hz.wav", "key_press": -1, "type": "PRE_RECALL_ALERT", "trial_type": "single-audio", "trial_index": 154, "time_elapsed": 754109, "internal_node_id": "0.0-118.0"}}, {"uniqueid": "MTK0419:3LYA37P8IRU7DHVQB76BZWVX5W9BKD", "current_trial": 155, "dateTime": 1510865103954, "trialdata": {"rt": [1761, 3032, 4409, 5801, 7105, 8425, 11337, 19177, 42928], "recwords": ["beast", "sticker", "peach", "student", "dorm", "elbow", "gazelle", "ankle", "headband"], "type": "FREE_RECALL", "conditions": [24, 1600, "v", 24000], "trial": 3, "trial_type": "free-recall", "trial_index": 155, "time_elapsed": 814117, "internal_node_id": "0.0-119.0-0.0"}}, {"uniqueid": "MTK0419:3LYA37P8IRU7DHVQB76BZWVX5W9BKD", "current_trial": 156, "dateTime": 1510865108748, "trialdata": {"rt": 2789, "key_press": 32, "type": "INSTRUCTIONS", "trial_type": "text", "trial_index": 156, "time_elapsed": 818916, "internal_node_id": "0.0-120.0"}}, {"uniqueid": "MTK0419:3LYA37P8IRU7DHVQB76BZWVX5W9BKD", "current_trial": 157, "dateTime": 1510865134758, "trialdata": {"rt": [1445, 2917, 5693, 7678, 9805, 11965, 13782, 15445, 17702, 19406, 20710, 23653], "responses": ["10", "10", "23", "7", "15", "19", "13", "4", "16", "18", "8", "24"], "num1": [5, 4, 8, 2, 9, 6, 3, 1, 7, 3, 2, 8, 9], "num2": [1, 5, 6, 3, 5, 8, 3, 2, 7, 9, 5, 8, 8], "num3": [4, 1, 9, 2, 1, 5, 7, 1, 2, 6, 1, 6, 6], "type": "DISTRACTOR", "conditions": [24, 800, "a", 24000], "trial": 4, "trial_type": "math-distractor", "trial_index": 157, "time_elapsed": 844926, "internal_node_id": "0.0-121.0"}}, {"uniqueid": "MTK0419:3LYA37P8IRU7DHVQB76BZWVX5W9BKD", "current_trial": 158, "dateTime": 1510865137763, "trialdata": {"rt": -1, "stimulus": "<p id=\"stim\">10</p>", "key_press": -1, "trial_type": "single-stim", "trial_index": 158, "time_elapsed": 847932, "internal_node_id": "0.0-122.0-0.0"}}, {"uniqueid": "MTK0419:3LYA37P8IRU7DHVQB76BZWVX5W9BKD", "current_trial": 159, "dateTime": 1510865138765, "trialdata": {"rt": -1, "stimulus": "<p id=\"stim\">9</p>", "key_press": -1, "trial_type": "single-stim", "trial_index": 159, "time_elapsed": 848934, "internal_node_id": "0.0-122.0-1.0"}}, {"uniqueid": "MTK0419:3LYA37P8IRU7DHVQB76BZWVX5W9BKD", "current_trial": 160, "dateTime": 1510865139767, "trialdata": {"rt": -1, "stimulus": "<p id=\"stim\">8</p>", "key_press": -1, "trial_type": "single-stim", "trial_index": 160, "time_elapsed": 849936, "internal_node_id": "0.0-122.0-2.0"}}, {"uniqueid": "MTK0419:3LYA37P8IRU7DHVQB76BZWVX5W9BKD", "current_trial": 161, "dateTime": 1510865140770, "trialdata": {"rt": -1, "stimulus": "<p id=\"stim\">7</p>", "key_press": -1, "trial_type": "single-stim", "trial_index": 161, "time_elapsed": 850939, "internal_node_id": "0.0-122.0-3.0"}}, {"uniqueid": "MTK0419:3LYA37P8IRU7DHVQB76BZWVX5W9BKD", "current_trial": 162, "dateTime": 1510865141771, "trialdata": {"rt": -1, "stimulus": "<p id=\"stim\">6</p>", "key_press": -1, "trial_type": "single-stim", "trial_index": 162, "time_elapsed": 851940, "internal_node_id": "0.0-122.0-4.0"}}, {"uniqueid": "MTK0419:3LYA37P8IRU7DHVQB76BZWVX5W9BKD", "current_trial": 163, "dateTime": 1510865142789, "trialdata": {"rt": -1, "stimulus": "<p id=\"stim\">5</p>", "key_press": -1, "trial_type": "single-stim", "trial_index": 163, "time_elapsed": 852958, "internal_node_id": "0.0-122.0-5.0"}}, {"uniqueid": "MTK0419:3LYA37P8IRU7DHVQB76BZWVX5W9BKD", "current_trial": 164, "dateTime": 1510865143790, "trialdata": {"rt": -1, "stimulus": "<p id=\"stim\">4</p>", "key_press": -1, "trial_type": "single-stim", "trial_index": 164, "time_elapsed": 853959, "internal_node_id": "0.0-122.0-6.0"}}, {"uniqueid": "MTK0419:3LYA37P8IRU7DHVQB76BZWVX5W9BKD", "current_trial": 165, "dateTime": 1510865144794, "trialdata": {"rt": -1, "stimulus": "<p id=\"stim\">3</p>", "key_press": -1, "trial_type": "single-stim", "trial_index": 165, "time_elapsed": 854963, "internal_node_id": "0.0-122.0-7.0"}}, {"uniqueid": "MTK0419:3LYA37P8IRU7DHVQB76BZWVX5W9BKD", "current_trial": 166, "dateTime": 1510865145797, "trialdata": {"rt": -1, "stimulus": "<p id=\"stim\">2</p>", "key_press": -1, "trial_type": "single-stim", "trial_index": 166, "time_elapsed": 855966, "internal_node_id": "0.0-122.0-8.0"}}, {"uniqueid": "MTK0419:3LYA37P8IRU7DHVQB76BZWVX5W9BKD", "current_trial": 167, "dateTime": 1510865146800, "trialdata": {"rt": -1, "stimulus": "<p id=\"stim\">1</p>", "key_press": -1, "trial_type": "single-stim", "trial_index": 167, "time_elapsed": 856969, "internal_node_id": "0.0-122.0-9.0"}}, {"uniqueid": "MTK0419:3LYA37P8IRU7DHVQB76BZWVX5W9BKD", "current_trial": 168, "dateTime": 1510865148303, "trialdata": {"rt": -1, "stimulus": "<p id=\"stim\">+</p>", "key_press": -1, "type": "FIXATION", "trial_type": "single-stim", "trial_index": 168, "time_elapsed": 858472, "internal_node_id": "0.0-123.0-0.0"}}, {"uniqueid": "MTK0419:3LYA37P8IRU7DHVQB76BZWVX5W9BKD", "current_trial": 169, "dateTime": 1510865150178, "trialdata": {"rt": -1000, "stimulus": "/static/audio/wordpool/COUNTRY.wav", "key_press": -1, "type": "PRES_AUD", "word": "country", "wordID": 387, "conditions": [24, 800, "a", 24000], "trial": 4, "serialpos": 0, "trial_type": "single-audio", "trial_index": 169, "time_elapsed": 860347, "internal_node_id": "0.0-124.0"}}, {"uniqueid": "MTK0419:3LYA37P8IRU7DHVQB76BZWVX5W9BKD", "current_trial": 170, "dateTime": 1510865151855, "trialdata": {"rt": -1000, "stimulus": "/static/audio/wordpool/GOBLIN.wav", "key_press": -1, "type": "PRES_AUD", "word": "goblin", "wordID": 644, "conditions": [24, 800, "a", 24000], "trial": 4, "serialpos": 1, "trial_type": "single-audio", "trial_index": 170, "time_elapsed": 862024, "internal_node_id": "0.0-125.0"}}, {"uniqueid": "MTK0419:3LYA37P8IRU7DHVQB76BZWVX5W9BKD", "current_trial": 171, "dateTime": 1510865153781, "trialdata": {"rt": -1000, "stimulus": "/static/audio/wordpool/BLACKBOARD.wav", "key_press": -1, "type": "PRES_AUD", "word": "blackboard", "wordID": 132, "conditions": [24, 800, "a", 24000], "trial": 4, "serialpos": 2, "trial_type": "single-audio", "trial_index": 171, "time_elapsed": 863950, "internal_node_id": "0.0-126.0"}}, {"uniqueid": "MTK0419:3LYA37P8IRU7DHVQB76BZWVX5W9BKD", "current_trial": 172, "dateTime": 1510865155534, "trialdata": {"rt": -1000, "stimulus": "/static/audio/wordpool/MARKET.wav", "key_press": -1, "type": "PRES_AUD", "word": "market", "wordID": 870, "conditions": [24, 800, "a", 24000], "trial": 4, "serialpos": 3, "trial_type": "single-audio", "trial_index": 172, "time_elapsed": 865702, "internal_node_id": "0.0-127.0"}}, {"uniqueid": "MTK0419:3LYA37P8IRU7DHVQB76BZWVX5W9BKD", "current_trial": 173, "dateTime": 1510865157186, "trialdata": {"rt": -1000, "stimulus": "/static/audio/wordpool/RIVER.wav", "key_press": -1, "type": "PRES_AUD", "word": "river", "wordID": 1193, "conditions": [24, 800, "a", 24000], "trial": 4, "serialpos": 4, "trial_type": "single-audio", "trial_index": 173, "time_elapsed": 867355, "internal_node_id": "0.0-128.0"}}, {"uniqueid": "MTK0419:3LYA37P8IRU7DHVQB76BZWVX5W9BKD", "current_trial": 174, "dateTime": 1510865158908, "trialdata": {"rt": -1000, "stimulus": "/static/audio/wordpool/BROOK.wav", "key_press": -1, "type": "PRES_AUD", "word": "brook", "wordID": 176, "conditions": [24, 800, "a", 24000], "trial": 4, "serialpos": 5, "trial_type": "single-audio", "trial_index": 174, "time_elapsed": 869077, "internal_node_id": "0.0-129.0"}}, {"uniqueid": "MTK0419:3LYA37P8IRU7DHVQB76BZWVX5W9BKD", "current_trial": 175, "dateTime": 1510865160567, "trialdata": {"rt": -1000, "stimulus": "/static/audio/wordpool/FOX.wav", "key_press": -1, "type": "PRES_AUD", "word": "fox", "wordID": 597, "conditions": [24, 800, "a", 24000], "trial": 4, "serialpos": 6, "trial_type": "single-audio", "trial_index": 175, "time_elapsed": 870735, "internal_node_id": "0.0-130.0"}}, {"uniqueid": "MTK0419:3LYA37P8IRU7DHVQB76BZWVX5W9BKD", "current_trial": 176, "dateTime": 1510865162344, "trialdata": {"rt": -1000, "stimulus": "/static/audio/wordpool/ATLAS.wav", "key_press": -1, "type": "PRES_AUD", "word": "atlas", "wordID": 52, "conditions": [24, 800, "a", 24000], "trial": 4, "serialpos": 7, "trial_type": "single-audio", "trial_index": 176, "time_elapsed": 872512, "internal_node_id": "0.0-131.0"}}, {"uniqueid": "MTK0419:3LYA37P8IRU7DHVQB76BZWVX5W9BKD", "current_trial": 177, "dateTime": 1510865163946, "trialdata": {"rt": -1000, "stimulus": "/static/audio/wordpool/PARENT.wav", "key_press": -1, "type": "PRES_AUD", "word": "parent", "wordID": 1012, "conditions": [24, 800, "a", 24000], "trial": 4, "serialpos": 8, "trial_type": "single-audio", "trial_index": 177, "time_elapsed": 874114, "internal_node_id": "0.0-132.0"}}, {"uniqueid": "MTK0419:3LYA37P8IRU7DHVQB76BZWVX5W9BKD", "current_trial": 178, "dateTime": 1510865165779, "trialdata": {"rt": -1000, "stimulus": "/static/audio/wordpool/SISTER.wav", "key_press": -1, "type": "PRES_AUD", "word": "sister", "wordID": 1311, "conditions": [24, 800, "a", 24000], "trial": 4, "serialpos": 9, "trial_type": "single-audio", "trial_index": 178, "time_elapsed": 875948, "internal_node_id": "0.0-133.0"}}, {"uniqueid": "MTK0419:3LYA37P8IRU7DHVQB76BZWVX5W9BKD", "current_trial": 179, "dateTime": 1510865167421, "trialdata": {"rt": -1000, "stimulus": "/static/audio/wordpool/DINER.wav", "key_press": -1, "type": "PRES_AUD", "word": "diner", "wordID": 466, "conditions": [24, 800, "a", 24000], "trial": 4, "serialpos": 10, "trial_type": "single-audio", "trial_index": 179, "time_elapsed": 877590, "internal_node_id": "0.0-134.0"}}, {"uniqueid": "MTK0419:3LYA37P8IRU7DHVQB76BZWVX5W9BKD", "current_trial": 180, "dateTime": 1510865169160, "trialdata": {"rt": -1000, "stimulus": "/static/audio/wordpool/PIGEON.wav", "key_press": -1, "type": "PRES_AUD", "word": "pigeon", "wordID": 1064, "conditions": [24, 800, "a", 24000], "trial": 4, "serialpos": 11, "trial_type": "single-audio", "trial_index": 180, "time_elapsed": 879329, "internal_node_id": "0.0-135.0"}}, {"uniqueid": "MTK0419:3LYA37P8IRU7DHVQB76BZWVX5W9BKD", "current_trial": 181, "dateTime": 1510865170971, "trialdata": {"rt": -1000, "stimulus": "/static/audio/wordpool/BUG.wav", "key_press": -1, "type": "PRES_AUD", "word": "bug", "wordID": 186, "conditions": [24, 800, "a", 24000], "trial": 4, "serialpos": 12, "trial_type": "single-audio", "trial_index": 181, "time_elapsed": 881139, "internal_node_id": "0.0-136.0"}}, {"uniqueid": "MTK0419:3LYA37P8IRU7DHVQB76BZWVX5W9BKD", "current_trial": 182, "dateTime": 1510865172753, "trialdata": {"rt": -1000, "stimulus": "/static/audio/wordpool/SILK.wav", "key_press": -1, "type": "PRES_AUD", "word": "silk", "wordID": 1306, "conditions": [24, 800, "a", 24000], "trial": 4, "serialpos": 13, "trial_type": "single-audio", "trial_index": 182, "time_elapsed": 882922, "internal_node_id": "0.0-137.0"}}, {"uniqueid": "MTK0419:3LYA37P8IRU7DHVQB76BZWVX5W9BKD", "current_trial": 183, "dateTime": 1510865174674, "trialdata": {"rt": -1000, "stimulus": "/static/audio/wordpool/WASP.wav", "key_press": -1, "type": "PRES_AUD", "word": "wasp", "wordID": 1592, "conditions": [24, 800, "a", 24000], "trial": 4, "serialpos": 14, "trial_type": "single-audio", "trial_index": 183, "time_elapsed": 884843, "internal_node_id": "0.0-138.0"}}, {"uniqueid": "MTK0419:3LYA37P8IRU7DHVQB76BZWVX5W9BKD", "current_trial": 184, "dateTime": 1510865176498, "trialdata": {"rt": -1000, "stimulus": "/static/audio/wordpool/CHEST.wav", "key_press": -1, "type": "PRES_AUD", "word": "chest", "wordID": 294, "conditions": [24, 800, "a", 24000], "trial": 4, "serialpos": 15, "trial_type": "single-audio", "trial_index": 184, "time_elapsed": 886666, "internal_node_id": "0.0-139.0"}}, {"uniqueid": "MTK0419:3LYA37P8IRU7DHVQB76BZWVX5W9BKD", "current_trial": 185, "dateTime": 1510865178348, "trialdata": {"rt": -1000, "stimulus": "/static/audio/wordpool/PICTURE.wav", "key_press": -1, "type": "PRES_AUD", "word": "picture", "wordID": 1060, "conditions": [24, 800, "a", 24000], "trial": 4, "serialpos": 16, "trial_type": "single-audio", "trial_index": 185, "time_elapsed": 888517, "internal_node_id": "0.0-140.0"}}, {"uniqueid": "MTK0419:3LYA37P8IRU7DHVQB76BZWVX5W9BKD", "current_trial": 186, "dateTime": 1510865180129, "trialdata": {"rt": -1000, "stimulus": "/static/audio/wordpool/EUROPE.wav", "key_press": -1, "type": "PRES_AUD", "word": "europe", "wordID": 540, "conditions": [24, 800, "a", 24000], "trial": 4, "serialpos": 17, "trial_type": "single-audio", "trial_index": 186, "time_elapsed": 890298, "internal_node_id": "0.0-141.0"}}, {"uniqueid": "MTK0419:3LYA37P8IRU7DHVQB76BZWVX5W9BKD", "current_trial": 187, "dateTime": 1510865182077, "trialdata": {"rt": -1000, "stimulus": "/static/audio/wordpool/ASIA.wav", "key_press": -1, "type": "PRES_AUD", "word": "asia", "wordID": 45, "conditions": [24, 800, "a", 24000], "trial": 4, "serialpos": 18, "trial_type": "single-audio", "trial_index": 187, "time_elapsed": 892246, "internal_node_id": "0.0-142.0"}}, {"uniqueid": "MTK0419:3LYA37P8IRU7DHVQB76BZWVX5W9BKD", "current_trial": 188, "dateTime": 1510865183898, "trialdata": {"rt": -1000, "stimulus": "/static/audio/wordpool/PAPER.wav", "key_press": -1, "type": "PRES_AUD", "word": "paper", "wordID": 1010, "conditions": [24, 800, "a", 24000], "trial": 4, "serialpos": 19, "trial_type": "single-audio", "trial_index": 188, "time_elapsed": 894067, "internal_node_id": "0.0-143.0"}}, {"uniqueid": "MTK0419:3LYA37P8IRU7DHVQB76BZWVX5W9BKD", "current_trial": 189, "dateTime": 1510865185559, "trialdata": {"rt": -1000, "stimulus": "/static/audio/wordpool/COSTUME.wav", "key_press": -1, "type": "PRES_AUD", "word": "costume", "wordID": 382, "conditions": [24, 800, "a", 24000], "trial": 4, "serialpos": 20, "trial_type": "single-audio", "trial_index": 189, "time_elapsed": 895728, "internal_node_id": "0.0-144.0"}}, {"uniqueid": "MTK0419:3LYA37P8IRU7DHVQB76BZWVX5W9BKD", "current_trial": 190, "dateTime": 1510865187371, "trialdata": {"rt": -1000, "stimulus": "/static/audio/wordpool/HOOK.wav", "key_press": -1, "type": "PRES_AUD", "word": "hook", "wordID": 714, "conditions": [24, 800, "a", 24000], "trial": 4, "serialpos": 21, "trial_type": "single-audio", "trial_index": 190, "time_elapsed": 897540, "internal_node_id": "0.0-145.0"}}, {"uniqueid": "MTK0419:3LYA37P8IRU7DHVQB76BZWVX5W9BKD", "current_trial": 191, "dateTime": 1510865189299, "trialdata": {"rt": -1000, "stimulus": "/static/audio/wordpool/VELVET.wav", "key_press": -1, "type": "PRES_AUD", "word": "velvet", "wordID": 1554, "conditions": [24, 800, "a", 24000], "trial": 4, "serialpos": 22, "trial_type": "single-audio", "trial_index": 191, "time_elapsed": 899468, "internal_node_id": "0.0-146.0"}}, {"uniqueid": "MTK0419:3LYA37P8IRU7DHVQB76BZWVX5W9BKD", "current_trial": 192, "dateTime": 1510865191088, "trialdata": {"rt": -1000, "stimulus": "/static/audio/wordpool/HUSBAND.wav", "key_press": -1, "type": "PRES_AUD", "word": "husband", "wordID": 727, "conditions": [24, 800, "a", 24000], "trial": 4, "serialpos": 23, "trial_type": "single-audio", "trial_index": 192, "time_elapsed": 901257, "internal_node_id": "0.0-147.0"}}, {"uniqueid": "MTK0419:3LYA37P8IRU7DHVQB76BZWVX5W9BKD", "current_trial": 193, "dateTime": 1510865192362, "trialdata": {"rt": -1, "stimulus": "", "key_press": -1, "type": "PRE_RECALL_DELAY", "trial_type": "single-stim", "trial_index": 193, "time_elapsed": 902531, "internal_node_id": "0.0-148.0-0.0"}}, {"uniqueid": "MTK0419:3LYA37P8IRU7DHVQB76BZWVX5W9BKD", "current_trial": 194, "dateTime": 1510865192864, "trialdata": {"rt": -1000, "stimulus": "/static/audio/400Hz.wav", "key_press": -1, "type": "PRE_RECALL_ALERT", "trial_type": "single-audio", "trial_index": 194, "time_elapsed": 903033, "internal_node_id": "0.0-149.0"}}, {"uniqueid": "MTK0419:3LYA37P8IRU7DHVQB76BZWVX5W9BKD", "current_trial": 195, "dateTime": 1510865252870, "trialdata": {"rt": [1824, 4104, 4880, 5621, 7216, 12289], "recwords": ["velvet", "husband", "cook", "asia", "sister", "country"], "type": "FREE_RECALL", "conditions": [24, 800, "a", 24000], "trial": 4, "trial_type": "free-recall", "trial_index": 195, "time_elapsed": 963036, "internal_node_id": "0.0-150.0-0.0"}}, {"uniqueid": "MTK0419:3LYA37P8IRU7DHVQB76BZWVX5W9BKD", "current_trial": 196, "dateTime": 1510865256347, "trialdata": {"rt": 1475, "key_press": 13, "type": "INSTRUCTIONS", "trial_type": "text", "trial_index": 196, "time_elapsed": 966516, "internal_node_id": "0.0-151.0"}}, {"uniqueid": "MTK0419:3LYA37P8IRU7DHVQB76BZWVX5W9BKD", "current_trial": 197, "dateTime": 1510865270350, "trialdata": {"rt": [1437, 3253, 4613, 7477, 8997, 10261, 11733], "responses": ["14", "16", "14", "24", "13", "12", "8"], "num1": [6, 7, 6, 9, 5, 2, 3, 4], "num2": [4, 1, 6, 8, 1, 1, 3, 8], "num3": [4, 8, 2, 7, 7, 9, 2, 7], "type": "DISTRACTOR", "conditions": [12, 800, "a", 12000], "trial": 5, "trial_type": "math-distractor", "trial_index": 197, "time_elapsed": 980519, "internal_node_id": "0.0-152.0"}}, {"uniqueid": "MTK0419:3LYA37P8IRU7DHVQB76BZWVX5W9BKD", "current_trial": 198, "dateTime": 1510865273352, "trialdata": {"rt": -1, "stimulus": "<p id=\"stim\">10</p>", "key_press": -1, "trial_type": "single-stim", "trial_index": 198, "time_elapsed": 983521, "internal_node_id": "0.0-153.0-0.0"}}, {"uniqueid": "MTK0419:3LYA37P8IRU7DHVQB76BZWVX5W9BKD", "current_trial": 199, "dateTime": 1510865274355, "trialdata": {"rt": -1, "stimulus": "<p id=\"stim\">9</p>", "key_press": -1, "trial_type": "single-stim", "trial_index": 199, "time_elapsed": 984524, "internal_node_id": "0.0-153.0-1.0"}}, {"uniqueid": "MTK0419:3LYA37P8IRU7DHVQB76BZWVX5W9BKD", "current_trial": 200, "dateTime": 1510865275358, "trialdata": {"rt": -1, "stimulus": "<p id=\"stim\">8</p>", "key_press": -1, "trial_type": "single-stim", "trial_index": 200, "time_elapsed": 985527, "internal_node_id": "0.0-153.0-2.0"}}, {"uniqueid": "MTK0419:3LYA37P8IRU7DHVQB76BZWVX5W9BKD", "current_trial": 201, "dateTime": 1510865276360, "trialdata": {"rt": -1, "stimulus": "<p id=\"stim\">7</p>", "key_press": -1, "trial_type": "single-stim", "trial_index": 201, "time_elapsed": 986529, "internal_node_id": "0.0-153.0-3.0"}}, {"uniqueid": "MTK0419:3LYA37P8IRU7DHVQB76BZWVX5W9BKD", "current_trial": 202, "dateTime": 1510865277362, "trialdata": {"rt": -1, "stimulus": "<p id=\"stim\">6</p>", "key_press": -1, "trial_type": "single-stim", "trial_index": 202, "time_elapsed": 987531, "internal_node_id": "0.0-153.0-4.0"}}, {"uniqueid": "MTK0419:3LYA37P8IRU7DHVQB76BZWVX5W9BKD", "current_trial": 203, "dateTime": 1510865278363, "trialdata": {"rt": -1, "stimulus": "<p id=\"stim\">5</p>", "key_press": -1, "trial_type": "single-stim", "trial_index": 203, "time_elapsed": 988532, "internal_node_id": "0.0-153.0-5.0"}}, {"uniqueid": "MTK0419:3LYA37P8IRU7DHVQB76BZWVX5W9BKD", "current_trial": 204, "dateTime": 1510865279367, "trialdata": {"rt": -1, "stimulus": "<p id=\"stim\">4</p>", "key_press": -1, "trial_type": "single-stim", "trial_index": 204, "time_elapsed": 989536, "internal_node_id": "0.0-153.0-6.0"}}, {"uniqueid": "MTK0419:3LYA37P8IRU7DHVQB76BZWVX5W9BKD", "current_trial": 205, "dateTime": 1510865280374, "trialdata": {"rt": -1, "stimulus": "<p id=\"stim\">3</p>", "key_press": -1, "trial_type": "single-stim", "trial_index": 205, "time_elapsed": 990542, "internal_node_id": "0.0-153.0-7.0"}}, {"uniqueid": "MTK0419:3LYA37P8IRU7DHVQB76BZWVX5W9BKD", "current_trial": 206, "dateTime": 1510865281380, "trialdata": {"rt": -1, "stimulus": "<p id=\"stim\">2</p>", "key_press": -1, "trial_type": "single-stim", "trial_index": 206, "time_elapsed": 991549, "internal_node_id": "0.0-153.0-8.0"}}, {"uniqueid": "MTK0419:3LYA37P8IRU7DHVQB76BZWVX5W9BKD", "current_trial": 207, "dateTime": 1510865282383, "trialdata": {"rt": -1, "stimulus": "<p id=\"stim\">1</p>", "key_press": -1, "trial_type": "single-stim", "trial_index": 207, "time_elapsed": 992552, "internal_node_id": "0.0-153.0-9.0"}}, {"uniqueid": "MTK0419:3LYA37P8IRU7DHVQB76BZWVX5W9BKD", "current_trial": 208, "dateTime": 1510865283885, "trialdata": {"rt": -1, "stimulus": "<p id=\"stim\">+</p>", "key_press": -1, "type": "FIXATION", "trial_type": "single-stim", "trial_index": 208, "time_elapsed": 994054, "internal_node_id": "0.0-154.0-0.0"}}, {"uniqueid": "MTK0419:3LYA37P8IRU7DHVQB76BZWVX5W9BKD", "current_trial": 209, "dateTime": 1510865285666, "trialdata": {"rt": -1000, "stimulus": "/static/audio/wordpool/NEUTRON.wav", "key_press": -1, "type": "PRES_AUD", "word": "neutron", "wordID": 946, "conditions": [12, 800, "a", 12000], "trial": 5, "serialpos": 0, "trial_type": "single-audio", "trial_index": 209, "time_elapsed": 995834, "internal_node_id": "0.0-155.0"}}, {"uniqueid": "MTK0419:3LYA37P8IRU7DHVQB76BZWVX5W9BKD", "current_trial": 210, "dateTime": 1510865287396, "trialdata": {"rt": -1000, "stimulus": "/static/audio/wordpool/WIDOW.wav", "key_press": -1, "type": "PRES_AUD", "word": "widow", "wordID": 1607, "conditions": [12, 800, "a", 12000], "trial": 5, "serialpos": 1, "trial_type": "single-audio", "trial_index": 210, "time_elapsed": 997564, "internal_node_id": "0.0-156.0"}}, {"uniqueid": "MTK0419:3LYA37P8IRU7DHVQB76BZWVX5W9BKD", "current_trial": 211, "dateTime": 1510865289167, "trialdata": {"rt": -1000, "stimulus": "/static/audio/wordpool/TRUCK.wav", "key_press": -1, "type": "PRES_AUD", "word": "truck", "wordID": 1511, "conditions": [12, 800, "a", 12000], "trial": 5, "serialpos": 2, "trial_type": "single-audio", "trial_index": 211, "time_elapsed": 999336, "internal_node_id": "0.0-157.0"}}, {"uniqueid": "MTK0419:3LYA37P8IRU7DHVQB76BZWVX5W9BKD", "current_trial": 212, "dateTime": 1510865290792, "trialdata": {"rt": -1000, "stimulus": "/static/audio/wordpool/BUGGY.wav", "key_press": -1, "type": "PRES_AUD", "word": "buggy", "wordID": 187, "conditions": [12, 800, "a", 12000], "trial": 5, "serialpos": 3, "trial_type": "single-audio", "trial_index": 212, "time_elapsed": 1000961, "internal_node_id": "0.0-158.0"}}, {"uniqueid": "MTK0419:3LYA37P8IRU7DHVQB76BZWVX5W9BKD", "current_trial": 213, "dateTime": 1510865292464, "trialdata": {"rt": -1000, "stimulus": "/static/audio/wordpool/STATUE.wav", "key_press": -1, "type": "PRES_AUD", "word": "statue", "wordID": 1373, "conditions": [12, 800, "a", 12000], "trial": 5, "serialpos": 4, "trial_type": "single-audio", "trial_index": 213, "time_elapsed": 1002632, "internal_node_id": "0.0-159.0"}}, {"uniqueid": "MTK0419:3LYA37P8IRU7DHVQB76BZWVX5W9BKD", "current_trial": 214, "dateTime": 1510865294210, "trialdata": {"rt": -1000, "stimulus": "/static/audio/wordpool/SERVANT.wav", "key_press": -1, "type": "PRES_AUD", "word": "servant", "wordID": 1270, "conditions": [12, 800, "a", 12000], "trial": 5, "serialpos": 5, "trial_type": "single-audio", "trial_index": 214, "time_elapsed": 1004379, "internal_node_id": "0.0-160.0"}}, {"uniqueid": "MTK0419:3LYA37P8IRU7DHVQB76BZWVX5W9BKD", "current_trial": 215, "dateTime": 1510865296005, "trialdata": {"rt": -1000, "stimulus": "/static/audio/wordpool/SCRIBBLE.wav", "key_press": -1, "type": "PRES_AUD", "word": "scribble", "wordID": 1255, "conditions": [12, 800, "a", 12000], "trial": 5, "serialpos": 6, "trial_type": "single-audio", "trial_index": 215, "time_elapsed": 1006174, "internal_node_id": "0.0-161.0"}}, {"uniqueid": "MTK0419:3LYA37P8IRU7DHVQB76BZWVX5W9BKD", "current_trial": 216, "dateTime": 1510865297681, "trialdata": {"rt": -1000, "stimulus": "/static/audio/wordpool/CONTRACT.wav", "key_press": -1, "type": "PRES_AUD", "word": "contract", "wordID": 367, "conditions": [12, 800, "a", 12000], "trial": 5, "serialpos": 7, "trial_type": "single-audio", "trial_index": 216, "time_elapsed": 1007850, "internal_node_id": "0.0-162.0"}}, {"uniqueid": "MTK0419:3LYA37P8IRU7DHVQB76BZWVX5W9BKD", "current_trial": 217, "dateTime": 1510865299564, "trialdata": {"rt": -1000, "stimulus": "/static/audio/wordpool/TOMBSTONE.wav", "key_press": -1, "type": "PRES_AUD", "word": "tombstone", "wordID": 1477, "conditions": [12, 800, "a", 12000], "trial": 5, "serialpos": 8, "trial_type": "single-audio", "trial_index": 217, "time_elapsed": 1009733, "internal_node_id": "0.0-163.0"}}, {"uniqueid": "MTK0419:3LYA37P8IRU7DHVQB76BZWVX5W9BKD", "current_trial": 218, "dateTime": 1510865301517, "trialdata": {"rt": -1000, "stimulus": "/static/audio/wordpool/FRECKLE.wav", "key_press": -1, "type": "PRES_AUD", "word": "freckle", "wordID": 601, "conditions": [12, 800, "a", 12000], "trial": 5, "serialpos": 9, "trial_type": "single-audio", "trial_index": 218, "time_elapsed": 1011685, "internal_node_id": "0.0-164.0"}}, {"uniqueid": "MTK0419:3LYA37P8IRU7DHVQB76BZWVX5W9BKD", "current_trial": 219, "dateTime": 1510865303129, "trialdata": {"rt": -1000, "stimulus": "/static/audio/wordpool/PIMPLE.wav", "key_press": -1, "type": "PRES_AUD", "word": "pimple", "wordID": 1070, "conditions": [12, 800, "a", 12000], "trial": 5, "serialpos": 10, "trial_type": "single-audio", "trial_index": 219, "time_elapsed": 1013298, "internal_node_id": "0.0-165.0"}}, {"uniqueid": "MTK0419:3LYA37P8IRU7DHVQB76BZWVX5W9BKD", "current_trial": 220, "dateTime": 1510865304828, "trialdata": {"rt": -1000, "stimulus": "/static/audio/wordpool/NECKLACE.wav", "key_press": -1, "type": "PRES_AUD", "word": "necklace", "wordID": 939, "conditions": [12, 800, "a", 12000], "trial": 5, "serialpos": 11, "trial_type": "single-audio", "trial_index": 220, "time_elapsed": 1014996, "internal_node_id": "0.0-166.0"}}, {"uniqueid": "MTK0419:3LYA37P8IRU7DHVQB76BZWVX5W9BKD", "current_trial": 221, "dateTime": 1510865306110, "trialdata": {"rt": -1, "stimulus": "", "key_press": -1, "type": "PRE_RECALL_DELAY", "trial_type": "single-stim", "trial_index": 221, "time_elapsed": 1016279, "internal_node_id": "0.0-167.0-0.0"}}, {"uniqueid": "MTK0419:3LYA37P8IRU7DHVQB76BZWVX5W9BKD", "current_trial": 222, "dateTime": 1510865306613, "trialdata": {"rt": -1000, "stimulus": "/static/audio/400Hz.wav", "key_press": -1, "type": "PRE_RECALL_ALERT", "trial_type": "single-audio", "trial_index": 222, "time_elapsed": 1016782, "internal_node_id": "0.0-168.0"}}, {"uniqueid": "MTK0419:3LYA37P8IRU7DHVQB76BZWVX5W9BKD", "current_trial": 223, "dateTime": 1510865366619, "trialdata": {"rt": [1762, 3089, 4289, 4937, 12866], "recwords": ["freckly", "pimple", "necklace", "truck", "buggy"], "type": "FREE_RECALL", "conditions": [12, 800, "a", 12000], "trial": 5, "trial_type": "free-recall", "trial_index": 223, "time_elapsed": 1076786, "internal_node_id": "0.0-169.0-0.0"}}, {"uniqueid": "MTK0419:3LYA37P8IRU7DHVQB76BZWVX5W9BKD", "current_trial": 224, "dateTime": 1510865370201, "trialdata": {"rt": 1580, "key_press": 13, "type": "INSTRUCTIONS", "trial_type": "text", "trial_index": 224, "time_elapsed": 1080370, "internal_node_id": "0.0-170.0"}}, {"uniqueid": "MTK0419:3LYA37P8IRU7DHVQB76BZWVX5W9BKD", "current_trial": 225, "dateTime": 1510865384207, "trialdata": {"rt": [2557, 4140, 6725, 8477, 9861, 11525], "responses": ["14", "19", "8", "16", "12", "9"], "num1": [5, 8, 1, 5, 4, 5, 2], "num2": [7, 4, 3, 8, 6, 1, 1], "num3": [2, 7, 4, 3, 2, 3, 1], "type": "DISTRACTOR", "conditions": [24, 1600, "a", 12000], "trial": 6, "trial_type": "math-distractor", "trial_index": 225, "time_elapsed": 1094375, "internal_node_id": "0.0-171.0"}}, {"uniqueid": "MTK0419:3LYA37P8IRU7DHVQB76BZWVX5W9BKD", "current_trial": 226, "dateTime": 1510865387210, "trialdata": {"rt": -1, "stimulus": "<p id=\"stim\">10</p>", "key_press": -1, "trial_type": "single-stim", "trial_index": 226, "time_elapsed": 1097379, "internal_node_id": "0.0-172.0-0.0"}}, {"uniqueid": "MTK0419:3LYA37P8IRU7DHVQB76BZWVX5W9BKD", "current_trial": 227, "dateTime": 1510865388213, "trialdata": {"rt": -1, "stimulus": "<p id=\"stim\">9</p>", "key_press": -1, "trial_type": "single-stim", "trial_index": 227, "time_elapsed": 1098382, "internal_node_id": "0.0-172.0-1.0"}}, {"uniqueid": "MTK0419:3LYA37P8IRU7DHVQB76BZWVX5W9BKD", "current_trial": 228, "dateTime": 1510865389216, "trialdata": {"rt": -1, "stimulus": "<p id=\"stim\">8</p>", "key_press": -1, "trial_type": "single-stim", "trial_index": 228, "time_elapsed": 1099385, "internal_node_id": "0.0-172.0-2.0"}}, {"uniqueid": "MTK0419:3LYA37P8IRU7DHVQB76BZWVX5W9BKD", "current_trial": 229, "dateTime": 1510865390220, "trialdata": {"rt": -1, "stimulus": "<p id=\"stim\">7</p>", "key_press": -1, "trial_type": "single-stim", "trial_index": 229, "time_elapsed": 1100389, "internal_node_id": "0.0-172.0-3.0"}}, {"uniqueid": "MTK0419:3LYA37P8IRU7DHVQB76BZWVX5W9BKD", "current_trial": 230, "dateTime": 1510865391227, "trialdata": {"rt": -1, "stimulus": "<p id=\"stim\">6</p>", "key_press": -1, "trial_type": "single-stim", "trial_index": 230, "time_elapsed": 1101396, "internal_node_id": "0.0-172.0-4.0"}}, {"uniqueid": "MTK0419:3LYA37P8IRU7DHVQB76BZWVX5W9BKD", "current_trial": 231, "dateTime": 1510865392229, "trialdata": {"rt": -1, "stimulus": "<p id=\"stim\">5</p>", "key_press": -1, "trial_type": "single-stim", "trial_index": 231, "time_elapsed": 1102398, "internal_node_id": "0.0-172.0-5.0"}}, {"uniqueid": "MTK0419:3LYA37P8IRU7DHVQB76BZWVX5W9BKD", "current_trial": 232, "dateTime": 1510865393233, "trialdata": {"rt": -1, "stimulus": "<p id=\"stim\">4</p>", "key_press": -1, "trial_type": "single-stim", "trial_index": 232, "time_elapsed": 1103402, "internal_node_id": "0.0-172.0-6.0"}}, {"uniqueid": "MTK0419:3LYA37P8IRU7DHVQB76BZWVX5W9BKD", "current_trial": 233, "dateTime": 1510865394238, "trialdata": {"rt": -1, "stimulus": "<p id=\"stim\">3</p>", "key_press": -1, "trial_type": "single-stim", "trial_index": 233, "time_elapsed": 1104406, "internal_node_id": "0.0-172.0-7.0"}}, {"uniqueid": "MTK0419:3LYA37P8IRU7DHVQB76BZWVX5W9BKD", "current_trial": 234, "dateTime": 1510865395242, "trialdata": {"rt": -1, "stimulus": "<p id=\"stim\">2</p>", "key_press": -1, "trial_type": "single-stim", "trial_index": 234, "time_elapsed": 1105411, "internal_node_id": "0.0-172.0-8.0"}}, {"uniqueid": "MTK0419:3LYA37P8IRU7DHVQB76BZWVX5W9BKD", "current_trial": 235, "dateTime": 1510865396244, "trialdata": {"rt": -1, "stimulus": "<p id=\"stim\">1</p>", "key_press": -1, "trial_type": "single-stim", "trial_index": 235, "time_elapsed": 1106413, "internal_node_id": "0.0-172.0-9.0"}}, {"uniqueid": "MTK0419:3LYA37P8IRU7DHVQB76BZWVX5W9BKD", "current_trial": 236, "dateTime": 1510865397746, "trialdata": {"rt": -1, "stimulus": "<p id=\"stim\">+</p>", "key_press": -1, "type": "FIXATION", "trial_type": "single-stim", "trial_index": 236, "time_elapsed": 1107915, "internal_node_id": "0.0-173.0-0.0"}}, {"uniqueid": "MTK0419:3LYA37P8IRU7DHVQB76BZWVX5W9BKD", "current_trial": 237, "dateTime": 1510865400306, "trialdata": {"rt": -1000, "stimulus": "/static/audio/wordpool/PROTON.wav", "key_press": -1, "type": "PRES_AUD", "word": "proton", "wordID": 1131, "conditions": [24, 1600, "a", 12000], "trial": 6, "serialpos": 0, "trial_type": "single-audio", "trial_index": 237, "time_elapsed": 1110473, "internal_node_id": "0.0-174.0"}}, {"uniqueid": "MTK0419:3LYA37P8IRU7DHVQB76BZWVX5W9BKD", "current_trial": 238, "dateTime": 1510865403026, "trialdata": {"rt": -1000, "stimulus": "/static/audio/wordpool/DRILL.wav", "key_press": -1, "type": "PRES_AUD", "word": "drill", "wordID": 496, "conditions": [24, 1600, "a", 12000], "trial": 6, "serialpos": 1, "trial_type": "single-audio", "trial_index": 238, "time_elapsed": 1113195, "internal_node_id": "0.0-175.0"}}, {"uniqueid": "MTK0419:3LYA37P8IRU7DHVQB76BZWVX5W9BKD", "current_trial": 239, "dateTime": 1510865405605, "trialdata": {"rt": -1000, "stimulus": "/static/audio/wordpool/PENGUIN.wav", "key_press": -1, "type": "PRES_AUD", "word": "penguin", "wordID": 1043, "conditions": [24, 1600, "a", 12000], "trial": 6, "serialpos": 2, "trial_type": "single-audio", "trial_index": 239, "time_elapsed": 1115774, "internal_node_id": "0.0-176.0"}}, {"uniqueid": "MTK0419:3LYA37P8IRU7DHVQB76BZWVX5W9BKD", "current_trial": 240, "dateTime": 1510865408155, "trialdata": {"rt": -1000, "stimulus": "/static/audio/wordpool/FOOTBALL.wav", "key_press": -1, "type": "PRES_AUD", "word": "football", "wordID": 590, "conditions": [24, 1600, "a", 12000], "trial": 6, "serialpos": 3, "trial_type": "single-audio", "trial_index": 240, "time_elapsed": 1118324, "internal_node_id": "0.0-177.0"}}, {"uniqueid": "MTK0419:3LYA37P8IRU7DHVQB76BZWVX5W9BKD", "current_trial": 241, "dateTime": 1510865410788, "trialdata": {"rt": -1000, "stimulus": "/static/audio/wordpool/CUSTARD.wav", "key_press": -1, "type": "PRES_AUD", "word": "custard", "wordID": 428, "conditions": [24, 1600, "a", 12000], "trial": 6, "serialpos": 4, "trial_type": "single-audio", "trial_index": 241, "time_elapsed": 1120955, "internal_node_id": "0.0-178.0"}}, {"uniqueid": "MTK0419:3LYA37P8IRU7DHVQB76BZWVX5W9BKD", "current_trial": 242, "dateTime": 1510865413275, "trialdata": {"rt": -1000, "stimulus": "/static/audio/wordpool/CABBAGE.wav", "key_press": -1, "type": "PRES_AUD", "word": "cabbage", "wordID": 209, "conditions": [24, 1600, "a", 12000], "trial": 6, "serialpos": 5, "trial_type": "single-audio", "trial_index": 242, "time_elapsed": 1123444, "internal_node_id": "0.0-179.0"}}, {"uniqueid": "MTK0419:3LYA37P8IRU7DHVQB76BZWVX5W9BKD", "current_trial": 243, "dateTime": 1510865416049, "trialdata": {"rt": -1000, "stimulus": "/static/audio/wordpool/GARLIC.wav", "key_press": -1, "type": "PRES_AUD", "word": "garlic", "wordID": 623, "conditions": [24, 1600, "a", 12000], "trial": 6, "serialpos": 6, "trial_type": "single-audio", "trial_index": 243, "time_elapsed": 1126218, "internal_node_id": "0.0-180.0"}}, {"uniqueid": "MTK0419:3LYA37P8IRU7DHVQB76BZWVX5W9BKD", "current_trial": 244, "dateTime": 1510865418748, "trialdata": {"rt": -1000, "stimulus": "/static/audio/wordpool/PORK.wav", "key_press": -1, "type": "PRES_AUD", "word": "pork", "wordID": 1107, "conditions": [24, 1600, "a", 12000], "trial": 6, "serialpos": 7, "trial_type": "single-audio", "trial_index": 244, "time_elapsed": 1128917, "internal_node_id": "0.0-181.0"}}, {"uniqueid": "MTK0419:3LYA37P8IRU7DHVQB76BZWVX5W9BKD", "current_trial": 245, "dateTime": 1510865421287, "trialdata": {"rt": -1000, "stimulus": "/static/audio/wordpool/MUFFIN.wav", "key_press": -1, "type": "PRES_AUD", "word": "muffin", "wordID": 928, "conditions": [24, 1600, "a", 12000], "trial": 6, "serialpos": 8, "trial_type": "single-audio", "trial_index": 245, "time_elapsed": 1131456, "internal_node_id": "0.0-182.0"}}, {"uniqueid": "MTK0419:3LYA37P8IRU7DHVQB76BZWVX5W9BKD", "current_trial": 246, "dateTime": 1510865423965, "trialdata": {"rt": -1000, "stimulus": "/static/audio/wordpool/SHOVEL.wav", "key_press": -1, "type": "PRES_AUD", "word": "shovel", "wordID": 1294, "conditions": [24, 1600, "a", 12000], "trial": 6, "serialpos": 9, "trial_type": "single-audio", "trial_index": 246, "time_elapsed": 1134134, "internal_node_id": "0.0-183.0"}}, {"uniqueid": "MTK0419:3LYA37P8IRU7DHVQB76BZWVX5W9BKD", "current_trial": 247, "dateTime": 1510865426588, "trialdata": {"rt": -1000, "stimulus": "/static/audio/wordpool/ZIPPER.wav", "key_press": -1, "type": "PRES_AUD", "word": "zipper", "wordID": 1635, "conditions": [24, 1600, "a", 12000], "trial": 6, "serialpos": 10, "trial_type": "single-audio", "trial_index": 247, "time_elapsed": 1136757, "internal_node_id": "0.0-184.0"}}, {"uniqueid": "MTK0419:3LYA37P8IRU7DHVQB76BZWVX5W9BKD", "current_trial": 248, "dateTime": 1510865429107, "trialdata": {"rt": -1000, "stimulus": "/static/audio/wordpool/MISTER.wav", "key_press": -1, "type": "PRES_AUD", "word": "mister", "wordID": 900, "conditions": [24, 1600, "a", 12000], "trial": 6, "serialpos": 11, "trial_type": "single-audio", "trial_index": 248, "time_elapsed": 1139276, "internal_node_id": "0.0-185.0"}}, {"uniqueid": "MTK0419:3LYA37P8IRU7DHVQB76BZWVX5W9BKD", "current_trial": 249, "dateTime": 1510865431653, "trialdata": {"rt": -1000, "stimulus": "/static/audio/wordpool/GLOVE.wav", "key_press": -1, "type": "PRES_AUD", "word": "glove", "wordID": 641, "conditions": [24, 1600, "a", 12000], "trial": 6, "serialpos": 12, "trial_type": "single-audio", "trial_index": 249, "time_elapsed": 1141822, "internal_node_id": "0.0-186.0"}}, {"uniqueid": "MTK0419:3LYA37P8IRU7DHVQB76BZWVX5W9BKD", "current_trial": 250, "dateTime": 1510865434415, "trialdata": {"rt": -1000, "stimulus": "/static/audio/wordpool/DRESS.wav", "key_press": -1, "type": "PRES_AUD", "word": "dress", "wordID": 494, "conditions": [24, 1600, "a", 12000], "trial": 6, "serialpos": 13, "trial_type": "single-audio", "trial_index": 250, "time_elapsed": 1144584, "internal_node_id": "0.0-187.0"}}, {"uniqueid": "MTK0419:3LYA37P8IRU7DHVQB76BZWVX5W9BKD", "current_trial": 251, "dateTime": 1510865437093, "trialdata": {"rt": -1000, "stimulus": "/static/audio/wordpool/RADISH.wav", "key_press": -1, "type": "PRES_AUD", "word": "radish", "wordID": 1157, "conditions": [24, 1600, "a", 12000], "trial": 6, "serialpos": 14, "trial_type": "single-audio", "trial_index": 251, "time_elapsed": 1147262, "internal_node_id": "0.0-188.0"}}, {"uniqueid": "MTK0419:3LYA37P8IRU7DHVQB76BZWVX5W9BKD", "current_trial": 252, "dateTime": 1510865439803, "trialdata": {"rt": -1000, "stimulus": "/static/audio/wordpool/FUNGUS.wav", "key_press": -1, "type": "PRES_AUD", "word": "fungus", "wordID": 613, "conditions": [24, 1600, "a", 12000], "trial": 6, "serialpos": 15, "trial_type": "single-audio", "trial_index": 252, "time_elapsed": 1149972, "internal_node_id": "0.0-189.0"}}, {"uniqueid": "MTK0419:3LYA37P8IRU7DHVQB76BZWVX5W9BKD", "current_trial": 253, "dateTime": 1510865442556, "trialdata": {"rt": -1000, "stimulus": "/static/audio/wordpool/FLASHLIGHT.wav", "key_press": -1, "type": "PRES_AUD", "word": "flashlight", "wordID": 574, "conditions": [24, 1600, "a", 12000], "trial": 6, "serialpos": 16, "trial_type": "single-audio", "trial_index": 253, "time_elapsed": 1152724, "internal_node_id": "0.0-190.0"}}, {"uniqueid": "MTK0419:3LYA37P8IRU7DHVQB76BZWVX5W9BKD", "current_trial": 254, "dateTime": 1510865445159, "trialdata": {"rt": -1000, "stimulus": "/static/audio/wordpool/LAPEL.wav", "key_press": -1, "type": "PRES_AUD", "word": "lapel", "wordID": 799, "conditions": [24, 1600, "a", 12000], "trial": 6, "serialpos": 17, "trial_type": "single-audio", "trial_index": 254, "time_elapsed": 1155328, "internal_node_id": "0.0-191.0"}}, {"uniqueid": "MTK0419:3LYA37P8IRU7DHVQB76BZWVX5W9BKD", "current_trial": 255, "dateTime": 1510865447756, "trialdata": {"rt": -1000, "stimulus": "/static/audio/wordpool/HEART.wav", "key_press": -1, "type": "PRES_AUD", "word": "heart", "wordID": 696, "conditions": [24, 1600, "a", 12000], "trial": 6, "serialpos": 18, "trial_type": "single-audio", "trial_index": 255, "time_elapsed": 1157925, "internal_node_id": "0.0-192.0"}}, {"uniqueid": "MTK0419:3LYA37P8IRU7DHVQB76BZWVX5W9BKD", "current_trial": 256, "dateTime": 1510865450315, "trialdata": {"rt": -1000, "stimulus": "/static/audio/wordpool/PARSLEY.wav", "key_press": -1, "type": "PRES_AUD", "word": "parsley", "wordID": 1015, "conditions": [24, 1600, "a", 12000], "trial": 6, "serialpos": 19, "trial_type": "single-audio", "trial_index": 256, "time_elapsed": 1160484, "internal_node_id": "0.0-193.0"}}, {"uniqueid": "MTK0419:3LYA37P8IRU7DHVQB76BZWVX5W9BKD", "current_trial": 257, "dateTime": 1510865453027, "trialdata": {"rt": -1000, "stimulus": "/static/audio/wordpool/FARMER.wav", "key_press": -1, "type": "PRES_AUD", "word": "farmer", "wordID": 552, "conditions": [24, 1600, "a", 12000], "trial": 6, "serialpos": 20, "trial_type": "single-audio", "trial_index": 257, "time_elapsed": 1163196, "internal_node_id": "0.0-194.0"}}, {"uniqueid": "MTK0419:3LYA37P8IRU7DHVQB76BZWVX5W9BKD", "current_trial": 258, "dateTime": 1510865455431, "trialdata": {"rt": -1000, "stimulus": "/static/audio/wordpool/SURVEY.wav", "key_press": -1, "type": "PRES_AUD", "word": "survey", "wordID": 1413, "conditions": [24, 1600, "a", 12000], "trial": 6, "serialpos": 21, "trial_type": "single-audio", "trial_index": 258, "time_elapsed": 1165599, "internal_node_id": "0.0-195.0"}}, {"uniqueid": "MTK0419:3LYA37P8IRU7DHVQB76BZWVX5W9BKD", "current_trial": 259, "dateTime": 1510865458136, "trialdata": {"rt": -1000, "stimulus": "/static/audio/wordpool/REPORT.wav", "key_press": -1, "type": "PRES_AUD", "word": "report", "wordID": 1183, "conditions": [24, 1600, "a", 12000], "trial": 6, "serialpos": 22, "trial_type": "single-audio", "trial_index": 259, "time_elapsed": 1168305, "internal_node_id": "0.0-196.0"}}, {"uniqueid": "MTK0419:3LYA37P8IRU7DHVQB76BZWVX5W9BKD", "current_trial": 260, "dateTime": 1510865460786, "trialdata": {"rt": -1000, "stimulus": "/static/audio/wordpool/INMATE.wav", "key_press": -1, "type": "PRES_AUD", "word": "inmate", "wordID": 737, "conditions": [24, 1600, "a", 12000], "trial": 6, "serialpos": 23, "trial_type": "single-audio", "trial_index": 260, "time_elapsed": 1170955, "internal_node_id": "0.0-197.0"}}, {"uniqueid": "MTK0419:3LYA37P8IRU7DHVQB76BZWVX5W9BKD", "current_trial": 261, "dateTime": 1510865462173, "trialdata": {"rt": -1, "stimulus": "", "key_press": -1, "type": "PRE_RECALL_DELAY", "trial_type": "single-stim", "trial_index": 261, "time_elapsed": 1172342, "internal_node_id": "0.0-198.0-0.0"}}, {"uniqueid": "MTK0419:3LYA37P8IRU7DHVQB76BZWVX5W9BKD", "current_trial": 262, "dateTime": 1510865462676, "trialdata": {"rt": -1000, "stimulus": "/static/audio/400Hz.wav", "key_press": -1, "type": "PRE_RECALL_ALERT", "trial_type": "single-audio", "trial_index": 262, "time_elapsed": 1172845, "internal_node_id": "0.0-199.0"}}, {"uniqueid": "MTK0419:3LYA37P8IRU7DHVQB76BZWVX5W9BKD", "current_trial": 263, "dateTime": 1510865522704, "trialdata": {"rt": [2148, 3668, 4492, 5563, 7459, 31522, 35226], "recwords": ["proton", "inmate", "report", "servant", "farmer", "football", "glove"], "type": "FREE_RECALL", "conditions": [24, 1600, "a", 12000], "trial": 6, "trial_type": "free-recall", "trial_index": 263, "time_elapsed": 1232865, "internal_node_id": "0.0-200.0-0.0"}}, {"uniqueid": "MTK0419:3LYA37P8IRU7DHVQB76BZWVX5W9BKD", "current_trial": 264, "dateTime": 1510865529570, "trialdata": {"rt": 4862, "key_press": 13, "type": "INSTRUCTIONS", "trial_type": "text", "trial_index": 264, "time_elapsed": 1239739, "internal_node_id": "0.0-201.0"}}, {"uniqueid": "MTK0419:3LYA37P8IRU7DHVQB76BZWVX5W9BKD", "current_trial": 265, "dateTime": 1510865543576, "trialdata": {"rt": [2316, 4924, 6580, 7676, 9284, 11148], "responses": ["12", "13", "19", "16", "15", "17"], "num1": [5, 4, 5, 5, 1, 5, 2], "num2": [2, 7, 6, 6, 5, 9, 3], "num3": [5, 2, 8, 5, 9, 3, 5], "type": "DISTRACTOR", "conditions": [12, 800, "v", 12000], "trial": 7, "trial_type": "math-distractor", "trial_index": 265, "time_elapsed": 1253745, "internal_node_id": "0.0-202.0"}}, {"uniqueid": "MTK0419:3LYA37P8IRU7DHVQB76BZWVX5W9BKD", "current_trial": 266, "dateTime": 1510865546582, "trialdata": {"rt": -1, "stimulus": "<p id=\"stim\">10</p>", "key_press": -1, "trial_type": "single-stim", "trial_index": 266, "time_elapsed": 1256751, "internal_node_id": "0.0-203.0-0.0"}}, {"uniqueid": "MTK0419:3LYA37P8IRU7DHVQB76BZWVX5W9BKD", "current_trial": 267, "dateTime": 1510865547585, "trialdata": {"rt": -1, "stimulus": "<p id=\"stim\">9</p>", "key_press": -1, "trial_type": "single-stim", "trial_index": 267, "time_elapsed": 1257754, "internal_node_id": "0.0-203.0-1.0"}}, {"uniqueid":