{"condition": 0, "counterbalance": 33, "assignmentId": "3AWETUDC93ZCPK8IHI128YNN3KXZI0", "workerId": "MTK0298", "hitId": "3ZCC2DXSD7BWNAFOZCGKRVCPAPQYYL", "currenttrial": 626, "bonus": 0, "data": [{"uniqueid": "MTK0298:3AWETUDC93ZCPK8IHI128YNN3KXZI0", "current_trial": 0, "dateTime": 1510699623171, "trialdata": {"rt": 2472, "key_press": 84, "type": "INSTRUCTIONS", "trial_type": "text", "trial_index": 0, "time_elapsed": 2474, "internal_node_id": "0.0-0.0"}}, {"uniqueid": "MTK0298:3AWETUDC93ZCPK8IHI128YNN3KXZI0", "current_trial": 1, "dateTime": 1510699634648, "trialdata": {"rt": 11475, "key_press": 84, "type": "INSTRUCTIONS", "trial_type": "text", "trial_index": 1, "time_elapsed": 13953, "internal_node_id": "0.0-1.0"}}, {"uniqueid": "MTK0298:3AWETUDC93ZCPK8IHI128YNN3KXZI0", "current_trial": 2, "dateTime": 1510699653569, "trialdata": {"rt": [18878], "responses": ["ocean"], "type": "AUDIO_TEST", "trial_type": "audio-test", "trial_index": 2, "time_elapsed": 32873, "internal_node_id": "0.0-2.0"}}, {"uniqueid": "MTK0298:3AWETUDC93ZCPK8IHI128YNN3KXZI0", "current_trial": 3, "dateTime": 1510699696489, "trialdata": {"rt": [42913], "responses": ["crystal"], "type": "AUDIO_TEST", "trial_type": "audio-test", "trial_index": 3, "time_elapsed": 75794, "internal_node_id": "0.0-3.0"}}, {"uniqueid": "MTK0298:3AWETUDC93ZCPK8IHI128YNN3KXZI0", "current_trial": 4, "dateTime": 1510699707792, "trialdata": {"rt": [11296], "responses": ["spice"], "type": "AUDIO_TEST", "trial_type": "audio-test", "trial_index": 4, "time_elapsed": 87097, "internal_node_id": "0.0-4.0"}}, {"uniqueid": "MTK0298:3AWETUDC93ZCPK8IHI128YNN3KXZI0", "current_trial": 5, "dateTime": 1510699734107, "trialdata": {"rt": 25561, "responses": "{\"Q0\":\"11:30\",\"Q1\":\"6:30\",\"Q2\":\"4\"}", "type": "SLEEP_SURVEY", "trial_type": "survey-text", "trial_index": 5, "time_elapsed": 113412, "internal_node_id": "0.0-5.0"}}, {"uniqueid": "MTK0298:3AWETUDC93ZCPK8IHI128YNN3KXZI0", "current_trial": 6, "dateTime": 1510699759752, "trialdata": {"rt": 24642, "key_press": 69, "type": "INSTRUCTIONS", "trial_type": "text", "trial_index": 6, "time_elapsed": 139057, "internal_node_id": "0.0-6.0"}}, {"uniqueid": "MTK0298:3AWETUDC93ZCPK8IHI128YNN3KXZI0", "current_trial": 7, "dateTime": 1510699768992, "trialdata": {"rt": 8738, "key_press": 69, "type": "INSTRUCTIONS", "trial_type": "text", "trial_index": 7, "time_elapsed": 148296, "internal_node_id": "0.0-7.0"}}, {"uniqueid": "MTK0298:3AWETUDC93ZCPK8IHI128YNN3KXZI0", "current_trial": 8, "dateTime": 1510699777175, "trialdata": {"rt": 7681, "key_press": 69, "type": "INSTRUCTIONS", "trial_type": "text", "trial_index": 8, "time_elapsed": 156480, "internal_node_id": "0.0-8.0"}}, {"uniqueid": "MTK0298:3AWETUDC93ZCPK8IHI128YNN3KXZI0", "current_trial": 9, "dateTime": 1510699796218, "trialdata": {"rt": [4575, 7662, 13606, 16822], "responses": ["15", "9", "18", "14"], "num1": [8, 2, 3, 1, 3], "num2": [2, 1, 8, 5, 8], "num3": [5, 6, 7, 8, 8], "type": "DISTRACTOR", "conditions": [18, 1200, "a", 18000], "trial": 0, "trial_type": "math-distractor", "trial_index": 9, "time_elapsed": 175522, "internal_node_id": "0.0-9.0"}}, {"uniqueid": "MTK0298:3AWETUDC93ZCPK8IHI128YNN3KXZI0", "current_trial": 10, "dateTime": 1510699799219, "trialdata": {"rt": -1, "stimulus": "<p id=\"stim\">10</p>", "key_press": -1, "trial_type": "single-stim", "trial_index": 10, "time_elapsed": 178524, "internal_node_id": "0.0-10.0-0.0"}}, {"uniqueid": "MTK0298:3AWETUDC93ZCPK8IHI128YNN3KXZI0", "current_trial": 11, "dateTime": 1510699800221, "trialdata": {"rt": -1, "stimulus": "<p id=\"stim\">9</p>", "key_press": -1, "trial_type": "single-stim", "trial_index": 11, "time_elapsed": 179526, "internal_node_id": "0.0-10.0-1.0"}}, {"uniqueid": "MTK0298:3AWETUDC93ZCPK8IHI128YNN3KXZI0", "current_trial": 12, "dateTime": 1510699801222, "trialdata": {"rt": -1, "stimulus": "<p id=\"stim\">8</p>", "key_press": -1, "trial_type": "single-stim", "trial_index": 12, "time_elapsed": 180527, "internal_node_id": "0.0-10.0-2.0"}}, {"uniqueid": "MTK0298:3AWETUDC93ZCPK8IHI128YNN3KXZI0", "current_trial": 13, "dateTime": 1510699802223, "trialdata": {"rt": -1, "stimulus": "<p id=\"stim\">7</p>", "key_press": -1, "trial_type": "single-stim", "trial_index": 13, "time_elapsed": 181528, "internal_node_id": "0.0-10.0-3.0"}}, {"uniqueid": "MTK0298:3AWETUDC93ZCPK8IHI128YNN3KXZI0", "current_trial": 14, "dateTime": 1510699803225, "trialdata": {"rt": -1, "stimulus": "<p id=\"stim\">6</p>", "key_press": -1, "trial_type": "single-stim", "trial_index": 14, "time_elapsed": 182530, "internal_node_id": "0.0-10.0-4.0"}}, {"uniqueid": "MTK0298:3AWETUDC93ZCPK8IHI128YNN3KXZI0", "current_trial": 15, "dateTime": 1510699804227, "trialdata": {"rt": -1, "stimulus": "<p id=\"stim\">5</p>", "key_press": -1, "trial_type": "single-stim", "trial_index": 15, "time_elapsed": 183532, "internal_node_id": "0.0-10.0-5.0"}}, {"uniqueid": "MTK0298:3AWETUDC93ZCPK8IHI128YNN3KXZI0", "current_trial": 16, "dateTime": 1510699805228, "trialdata": {"rt": -1, "stimulus": "<p id=\"stim\">4</p>", "key_press": -1, "trial_type": "single-stim", "trial_index": 16, "time_elapsed": 184533, "internal_node_id": "0.0-10.0-6.0"}}, {"uniqueid": "MTK0298:3AWETUDC93ZCPK8IHI128YNN3KXZI0", "current_trial": 17, "dateTime": 1510699806229, "trialdata": {"rt": -1, "stimulus": "<p id=\"stim\">3</p>", "key_press": -1, "trial_type": "single-stim", "trial_index": 17, "time_elapsed": 185534, "internal_node_id": "0.0-10.0-7.0"}}, {"uniqueid": "MTK0298:3AWETUDC93ZCPK8IHI128YNN3KXZI0", "current_trial": 18, "dateTime": 1510699807230, "trialdata": {"rt": -1, "stimulus": "<p id=\"stim\">2</p>", "key_press": -1, "trial_type": "single-stim", "trial_index": 18, "time_elapsed": 186535, "internal_node_id": "0.0-10.0-8.0"}}, {"uniqueid": "MTK0298:3AWETUDC93ZCPK8IHI128YNN3KXZI0", "current_trial": 19, "dateTime": 1510699808231, "trialdata": {"rt": -1, "stimulus": "<p id=\"stim\">1</p>", "key_press": -1, "trial_type": "single-stim", "trial_index": 19, "time_elapsed": 187536, "internal_node_id": "0.0-10.0-9.0"}}, {"uniqueid": "MTK0298:3AWETUDC93ZCPK8IHI128YNN3KXZI0", "current_trial": 20, "dateTime": 1510699809733, "trialdata": {"rt": -1, "stimulus": "<p id=\"stim\">+</p>", "key_press": -1, "type": "FIXATION", "trial_type": "single-stim", "trial_index": 20, "time_elapsed": 189038, "internal_node_id": "0.0-11.0-0.0"}}, {"uniqueid": "MTK0298:3AWETUDC93ZCPK8IHI128YNN3KXZI0", "current_trial": 21, "dateTime": 1510699812060, "trialdata": {"rt": -1000, "stimulus": "/static/audio/wordpool/CARRIAGE.wav", "key_press": -1, "type": "PRES_AUD", "word": "carriage", "wordID": 247, "conditions": [18, 1200, "a", 18000], "trial": 0, "serialpos": 0, "trial_type": "single-audio", "trial_index": 21, "time_elapsed": 191365, "internal_node_id": "0.0-12.0"}}, {"uniqueid": "MTK0298:3AWETUDC93ZCPK8IHI128YNN3KXZI0", "current_trial": 22, "dateTime": 1510699814447, "trialdata": {"rt": -1000, "stimulus": "/static/audio/wordpool/PASSAGE.wav", "key_press": -1, "type": "PRES_AUD", "word": "passage", "wordID": 1018, "conditions": [18, 1200, "a", 18000], "trial": 0, "serialpos": 1, "trial_type": "single-audio", "trial_index": 22, "time_elapsed": 193751, "internal_node_id": "0.0-13.0"}}, {"uniqueid": "MTK0298:3AWETUDC93ZCPK8IHI128YNN3KXZI0", "current_trial": 23, "dateTime": 1510699816508, "trialdata": {"rt": -1000, "stimulus": "/static/audio/wordpool/SCALPEL.wav", "key_press": -1, "type": "PRES_AUD", "word": "scalpel", "wordID": 1242, "conditions": [18, 1200, "a", 18000], "trial": 0, "serialpos": 2, "trial_type": "single-audio", "trial_index": 23, "time_elapsed": 195813, "internal_node_id": "0.0-14.0"}}, {"uniqueid": "MTK0298:3AWETUDC93ZCPK8IHI128YNN3KXZI0", "current_trial": 24, "dateTime": 1510699818799, "trialdata": {"rt": -1000, "stimulus": "/static/audio/wordpool/MARROW.wav", "key_press": -1, "type": "PRES_AUD", "word": "marrow", "wordID": 871, "conditions": [18, 1200, "a", 18000], "trial": 0, "serialpos": 3, "trial_type": "single-audio", "trial_index": 24, "time_elapsed": 198104, "internal_node_id": "0.0-15.0"}}, {"uniqueid": "MTK0298:3AWETUDC93ZCPK8IHI128YNN3KXZI0", "current_trial": 25, "dateTime": 1510699821060, "trialdata": {"rt": -1000, "stimulus": "/static/audio/wordpool/SLIDE.wav", "key_press": -1, "type": "PRES_AUD", "word": "slide", "wordID": 1325, "conditions": [18, 1200, "a", 18000], "trial": 0, "serialpos": 4, "trial_type": "single-audio", "trial_index": 25, "time_elapsed": 200364, "internal_node_id": "0.0-16.0"}}, {"uniqueid": "MTK0298:3AWETUDC93ZCPK8IHI128YNN3KXZI0", "current_trial": 26, "dateTime": 1510699823231, "trialdata": {"rt": -1000, "stimulus": "/static/audio/wordpool/BALLOON.wav", "key_press": -1, "type": "PRES_AUD", "word": "balloon", "wordID": 74, "conditions": [18, 1200, "a", 18000], "trial": 0, "serialpos": 5, "trial_type": "single-audio", "trial_index": 26, "time_elapsed": 202536, "internal_node_id": "0.0-17.0"}}, {"uniqueid": "MTK0298:3AWETUDC93ZCPK8IHI128YNN3KXZI0", "current_trial": 27, "dateTime": 1510699825443, "trialdata": {"rt": -1000, "stimulus": "/static/audio/wordpool/FRANCE.wav", "key_press": -1, "type": "PRES_AUD", "word": "france", "wordID": 600, "conditions": [18, 1200, "a", 18000], "trial": 0, "serialpos": 6, "trial_type": "single-audio", "trial_index": 27, "time_elapsed": 204748, "internal_node_id": "0.0-18.0"}}, {"uniqueid": "MTK0298:3AWETUDC93ZCPK8IHI128YNN3KXZI0", "current_trial": 28, "dateTime": 1510699827491, "trialdata": {"rt": -1000, "stimulus": "/static/audio/wordpool/GUARD.wav", "key_press": -1, "type": "PRES_AUD", "word": "guard", "wordID": 666, "conditions": [18, 1200, "a", 18000], "trial": 0, "serialpos": 7, "trial_type": "single-audio", "trial_index": 28, "time_elapsed": 206796, "internal_node_id": "0.0-19.0"}}, {"uniqueid": "MTK0298:3AWETUDC93ZCPK8IHI128YNN3KXZI0", "current_trial": 29, "dateTime": 1510699829506, "trialdata": {"rt": -1000, "stimulus": "/static/audio/wordpool/CRAB.wav", "key_press": -1, "type": "PRES_AUD", "word": "crab", "wordID": 396, "conditions": [18, 1200, "a", 18000], "trial": 0, "serialpos": 8, "trial_type": "single-audio", "trial_index": 29, "time_elapsed": 208810, "internal_node_id": "0.0-20.0"}}, {"uniqueid": "MTK0298:3AWETUDC93ZCPK8IHI128YNN3KXZI0", "current_trial": 30, "dateTime": 1510699831659, "trialdata": {"rt": -1000, "stimulus": "/static/audio/wordpool/SHIRT.wav", "key_press": -1, "type": "PRES_AUD", "word": "shirt", "wordID": 1286, "conditions": [18, 1200, "a", 18000], "trial": 0, "serialpos": 9, "trial_type": "single-audio", "trial_index": 30, "time_elapsed": 210964, "internal_node_id": "0.0-21.0"}}, {"uniqueid": "MTK0298:3AWETUDC93ZCPK8IHI128YNN3KXZI0", "current_trial": 31, "dateTime": 1510699834013, "trialdata": {"rt": -1000, "stimulus": "/static/audio/wordpool/JUGGLER.wav", "key_press": -1, "type": "PRES_AUD", "word": "juggler", "wordID": 762, "conditions": [18, 1200, "a", 18000], "trial": 0, "serialpos": 10, "trial_type": "single-audio", "trial_index": 31, "time_elapsed": 213318, "internal_node_id": "0.0-22.0"}}, {"uniqueid": "MTK0298:3AWETUDC93ZCPK8IHI128YNN3KXZI0", "current_trial": 32, "dateTime": 1510699836261, "trialdata": {"rt": -1000, "stimulus": "/static/audio/wordpool/AGENT.wav", "key_press": -1, "type": "PRES_AUD", "word": "agent", "wordID": 9, "conditions": [18, 1200, "a", 18000], "trial": 0, "serialpos": 11, "trial_type": "single-audio", "trial_index": 32, "time_elapsed": 215566, "internal_node_id": "0.0-23.0"}}, {"uniqueid": "MTK0298:3AWETUDC93ZCPK8IHI128YNN3KXZI0", "current_trial": 33, "dateTime": 1510699838339, "trialdata": {"rt": -1000, "stimulus": "/static/audio/wordpool/GRAVE.wav", "key_press": -1, "type": "PRES_AUD", "word": "grave", "wordID": 657, "conditions": [18, 1200, "a", 18000], "trial": 0, "serialpos": 12, "trial_type": "single-audio", "trial_index": 33, "time_elapsed": 217643, "internal_node_id": "0.0-24.0"}}, {"uniqueid": "MTK0298:3AWETUDC93ZCPK8IHI128YNN3KXZI0", "current_trial": 34, "dateTime": 1510699840476, "trialdata": {"rt": -1000, "stimulus": "/static/audio/wordpool/NIGHTGOWN.wav", "key_press": -1, "type": "PRES_AUD", "word": "nightgown", "wordID": 952, "conditions": [18, 1200, "a", 18000], "trial": 0, "serialpos": 13, "trial_type": "single-audio", "trial_index": 34, "time_elapsed": 219781, "internal_node_id": "0.0-25.0"}}, {"uniqueid": "MTK0298:3AWETUDC93ZCPK8IHI128YNN3KXZI0", "current_trial": 35, "dateTime": 1510699842692, "trialdata": {"rt": -1000, "stimulus": "/static/audio/wordpool/TRUCK.wav", "key_press": -1, "type": "PRES_AUD", "word": "truck", "wordID": 1511, "conditions": [18, 1200, "a", 18000], "trial": 0, "serialpos": 14, "trial_type": "single-audio", "trial_index": 35, "time_elapsed": 221996, "internal_node_id": "0.0-26.0"}}, {"uniqueid": "MTK0298:3AWETUDC93ZCPK8IHI128YNN3KXZI0", "current_trial": 36, "dateTime": 1510699844967, "trialdata": {"rt": -1000, "stimulus": "/static/audio/wordpool/BASEMENT.wav", "key_press": -1, "type": "PRES_AUD", "word": "basement", "wordID": 93, "conditions": [18, 1200, "a", 18000], "trial": 0, "serialpos": 15, "trial_type": "single-audio", "trial_index": 36, "time_elapsed": 224271, "internal_node_id": "0.0-27.0"}}, {"uniqueid": "MTK0298:3AWETUDC93ZCPK8IHI128YNN3KXZI0", "current_trial": 37, "dateTime": 1510699847091, "trialdata": {"rt": -1000, "stimulus": "/static/audio/wordpool/RABBIT.wav", "key_press": -1, "type": "PRES_AUD", "word": "rabbit", "wordID": 1151, "conditions": [18, 1200, "a", 18000], "trial": 0, "serialpos": 16, "trial_type": "single-audio", "trial_index": 37, "time_elapsed": 226396, "internal_node_id": "0.0-28.0"}}, {"uniqueid": "MTK0298:3AWETUDC93ZCPK8IHI128YNN3KXZI0", "current_trial": 38, "dateTime": 1510699849476, "trialdata": {"rt": -1000, "stimulus": "/static/audio/wordpool/XEROX.wav", "key_press": -1, "type": "PRES_AUD", "word": "xerox", "wordID": 1627, "conditions": [18, 1200, "a", 18000], "trial": 0, "serialpos": 17, "trial_type": "single-audio", "trial_index": 38, "time_elapsed": 228780, "internal_node_id": "0.0-29.0"}}, {"uniqueid": "MTK0298:3AWETUDC93ZCPK8IHI128YNN3KXZI0", "current_trial": 39, "dateTime": 1510699850845, "trialdata": {"rt": -1, "stimulus": "", "key_press": -1, "type": "PRE_RECALL_DELAY", "trial_type": "single-stim", "trial_index": 39, "time_elapsed": 230150, "internal_node_id": "0.0-30.0-0.0"}}, {"uniqueid": "MTK0298:3AWETUDC93ZCPK8IHI128YNN3KXZI0", "current_trial": 40, "dateTime": 1510699851351, "trialdata": {"rt": -1000, "stimulus": "/static/audio/400Hz.wav", "key_press": -1, "type": "PRE_RECALL_ALERT", "trial_type": "single-audio", "trial_index": 40, "time_elapsed": 230656, "internal_node_id": "0.0-31.0"}}, {"uniqueid": "MTK0298:3AWETUDC93ZCPK8IHI128YNN3KXZI0", "current_trial": 41, "dateTime": 1510699911360, "trialdata": {"rt": [3492, 5357, 7773, 14077, 17677, 21469, 26541, 32069, 43812], "recwords": ["carriage", "basement", "rabbit", "xerox", "carriage", "zero", "basement", "", "nightgown"], "type": "FREE_RECALL", "conditions": [18, 1200, "a", 18000], "trial": 0, "trial_type": "free-recall", "trial_index": 41, "time_elapsed": 290661, "internal_node_id": "0.0-32.0-0.0"}}, {"uniqueid": "MTK0298:3AWETUDC93ZCPK8IHI128YNN3KXZI0", "current_trial": 42, "dateTime": 1510699915896, "trialdata": {"rt": 2534, "key_press": 69, "type": "INSTRUCTIONS", "trial_type": "text", "trial_index": 42, "time_elapsed": 295201, "internal_node_id": "0.0-33.0"}}, {"uniqueid": "MTK0298:3AWETUDC93ZCPK8IHI128YNN3KXZI0", "current_trial": 43, "dateTime": 1510699935899, "trialdata": {"rt": [6124, 9980, 12460, 15292, 17789], "responses": ["20", "18", "13", "11", "15"], "num1": [9, 9, 8, 1, 8, 3], "num2": [3, 6, 2, 3, 2, 2], "num3": [8, 3, 3, 7, 5, 8], "type": "DISTRACTOR", "conditions": [18, 1200, "v", 18000], "trial": 1, "trial_type": "math-distractor", "trial_index": 43, "time_elapsed": 315204, "internal_node_id": "0.0-34.0"}}, {"uniqueid": "MTK0298:3AWETUDC93ZCPK8IHI128YNN3KXZI0", "current_trial": 44, "dateTime": 1510699938901, "trialdata": {"rt": -1, "stimulus": "<p id=\"stim\">10</p>", "key_press": -1, "trial_type": "single-stim", "trial_index": 44, "time_elapsed": 318205, "internal_node_id": "0.0-35.0-0.0"}}, {"uniqueid": "MTK0298:3AWETUDC93ZCPK8IHI128YNN3KXZI0", "current_trial": 45, "dateTime": 1510699939903, "trialdata": {"rt": -1, "stimulus": "<p id=\"stim\">9</p>", "key_press": -1, "trial_type": "single-stim", "trial_index": 45, "time_elapsed": 319208, "internal_node_id": "0.0-35.0-1.0"}}, {"uniqueid": "MTK0298:3AWETUDC93ZCPK8IHI128YNN3KXZI0", "current_trial": 46, "dateTime": 1510699940905, "trialdata": {"rt": -1, "stimulus": "<p id=\"stim\">8</p>", "key_press": -1, "trial_type": "single-stim", "trial_index": 46, "time_elapsed": 320210, "internal_node_id": "0.0-35.0-2.0"}}, {"uniqueid": "MTK0298:3AWETUDC93ZCPK8IHI128YNN3KXZI0", "current_trial": 47, "dateTime": 1510699941906, "trialdata": {"rt": -1, "stimulus": "<p id=\"stim\">7</p>", "key_press": -1, "trial_type": "single-stim", "trial_index": 47, "time_elapsed": 321211, "internal_node_id": "0.0-35.0-3.0"}}, {"uniqueid": "MTK0298:3AWETUDC93ZCPK8IHI128YNN3KXZI0", "current_trial": 48, "dateTime": 1510699942907, "trialdata": {"rt": -1, "stimulus": "<p id=\"stim\">6</p>", "key_press": -1, "trial_type": "single-stim", "trial_index": 48, "time_elapsed": 322211, "internal_node_id": "0.0-35.0-4.0"}}, {"uniqueid": "MTK0298:3AWETUDC93ZCPK8IHI128YNN3KXZI0", "current_trial": 49, "dateTime": 1510699943909, "trialdata": {"rt": -1, "stimulus": "<p id=\"stim\">5</p>", "key_press": -1, "trial_type": "single-stim", "trial_index": 49, "time_elapsed": 323214, "internal_node_id": "0.0-35.0-5.0"}}, {"uniqueid": "MTK0298:3AWETUDC93ZCPK8IHI128YNN3KXZI0", "current_trial": 50, "dateTime": 1510699944910, "trialdata": {"rt": -1, "stimulus": "<p id=\"stim\">4</p>", "key_press": -1, "trial_type": "single-stim", "trial_index": 50, "time_elapsed": 324214, "internal_node_id": "0.0-35.0-6.0"}}, {"uniqueid": "MTK0298:3AWETUDC93ZCPK8IHI128YNN3KXZI0", "current_trial": 51, "dateTime": 1510699945911, "trialdata": {"rt": -1, "stimulus": "<p id=\"stim\">3</p>", "key_press": -1, "trial_type": "single-stim", "trial_index": 51, "time_elapsed": 325215, "internal_node_id": "0.0-35.0-7.0"}}, {"uniqueid": "MTK0298:3AWETUDC93ZCPK8IHI128YNN3KXZI0", "current_trial": 52, "dateTime": 1510699946912, "trialdata": {"rt": -1, "stimulus": "<p id=\"stim\">2</p>", "key_press": -1, "trial_type": "single-stim", "trial_index": 52, "time_elapsed": 326217, "internal_node_id": "0.0-35.0-8.0"}}, {"uniqueid": "MTK0298:3AWETUDC93ZCPK8IHI128YNN3KXZI0", "current_trial": 53, "dateTime": 1510699947913, "trialdata": {"rt": -1, "stimulus": "<p id=\"stim\">1</p>", "key_press": -1, "trial_type": "single-stim", "trial_index": 53, "time_elapsed": 327217, "internal_node_id": "0.0-35.0-9.0"}}, {"uniqueid": "MTK0298:3AWETUDC93ZCPK8IHI128YNN3KXZI0", "current_trial": 54, "dateTime": 1510699949414, "trialdata": {"rt": -1, "stimulus": "<p id=\"stim\">+</p>", "key_press": -1, "type": "FIXATION", "trial_type": "single-stim", "trial_index": 54, "time_elapsed": 328718, "internal_node_id": "0.0-36.0-0.0"}}, {"uniqueid": "MTK0298:3AWETUDC93ZCPK8IHI128YNN3KXZI0", "current_trial": 55, "dateTime": 1510699950615, "trialdata": {"rt": -1, "stimulus": "<p id=\"stim\">STREAM</p>", "key_press": -1, "type": "PRES_VIS", "word": "stream", "wordID": 1391, "conditions": [18, 1200, "v", 18000], "trial": 1, "serialpos": 0, "trial_type": "single-stim", "trial_index": 55, "time_elapsed": 329920, "internal_node_id": "0.0-37.0"}}, {"uniqueid": "MTK0298:3AWETUDC93ZCPK8IHI128YNN3KXZI0", "current_trial": 56, "dateTime": 1510699952820, "trialdata": {"rt": -1, "stimulus": "<p id=\"stim\">CHIPMUNK</p>", "key_press": -1, "type": "PRES_VIS", "word": "chipmunk", "wordID": 303, "conditions": [18, 1200, "v", 18000], "trial": 1, "serialpos": 1, "trial_type": "single-stim", "trial_index": 56, "time_elapsed": 332125, "internal_node_id": "0.0-38.0"}}, {"uniqueid": "MTK0298:3AWETUDC93ZCPK8IHI128YNN3KXZI0", "current_trial": 57, "dateTime": 1510699954925, "trialdata": {"rt": -1, "stimulus": "<p id=\"stim\">COCKTAIL</p>", "key_press": -1, "type": "PRES_VIS", "word": "cocktail", "wordID": 337, "conditions": [18, 1200, "v", 18000], "trial": 1, "serialpos": 2, "trial_type": "single-stim", "trial_index": 57, "time_elapsed": 334230, "internal_node_id": "0.0-39.0"}}, {"uniqueid": "MTK0298:3AWETUDC93ZCPK8IHI128YNN3KXZI0", "current_trial": 58, "dateTime": 1510699956973, "trialdata": {"rt": -1, "stimulus": "<p id=\"stim\">ACTRESS</p>", "key_press": -1, "type": "PRES_VIS", "word": "actress", "wordID": 5, "conditions": [18, 1200, "v", 18000], "trial": 1, "serialpos": 3, "trial_type": "single-stim", "trial_index": 58, "time_elapsed": 336278, "internal_node_id": "0.0-40.0"}}, {"uniqueid": "MTK0298:3AWETUDC93ZCPK8IHI128YNN3KXZI0", "current_trial": 59, "dateTime": 1510699959059, "trialdata": {"rt": -1, "stimulus": "<p id=\"stim\">PORK</p>", "key_press": -1, "type": "PRES_VIS", "word": "pork", "wordID": 1107, "conditions": [18, 1200, "v", 18000], "trial": 1, "serialpos": 4, "trial_type": "single-stim", "trial_index": 59, "time_elapsed": 338364, "internal_node_id": "0.0-41.0"}}, {"uniqueid": "MTK0298:3AWETUDC93ZCPK8IHI128YNN3KXZI0", "current_trial": 60, "dateTime": 1510699961191, "trialdata": {"rt": -1, "stimulus": "<p id=\"stim\">WORLD</p>", "key_press": -1, "type": "PRES_VIS", "word": "world", "wordID": 1621, "conditions": [18, 1200, "v", 18000], "trial": 1, "serialpos": 5, "trial_type": "single-stim", "trial_index": 60, "time_elapsed": 340496, "internal_node_id": "0.0-42.0"}}, {"uniqueid": "MTK0298:3AWETUDC93ZCPK8IHI128YNN3KXZI0", "current_trial": 61, "dateTime": 1510699963295, "trialdata": {"rt": -1, "stimulus": "<p id=\"stim\">BOUQUET</p>", "key_press": -1, "type": "PRES_VIS", "word": "bouquet", "wordID": 156, "conditions": [18, 1200, "v", 18000], "trial": 1, "serialpos": 6, "trial_type": "single-stim", "trial_index": 61, "time_elapsed": 342599, "internal_node_id": "0.0-43.0"}}, {"uniqueid": "MTK0298:3AWETUDC93ZCPK8IHI128YNN3KXZI0", "current_trial": 62, "dateTime": 1510699965629, "trialdata": {"rt": -1, "stimulus": "<p id=\"stim\">SADDLE</p>", "key_press": -1, "type": "PRES_VIS", "word": "saddle", "wordID": 1220, "conditions": [18, 1200, "v", 18000], "trial": 1, "serialpos": 7, "trial_type": "single-stim", "trial_index": 62, "time_elapsed": 344934, "internal_node_id": "0.0-44.0"}}, {"uniqueid": "MTK0298:3AWETUDC93ZCPK8IHI128YNN3KXZI0", "current_trial": 63, "dateTime": 1510699967666, "trialdata": {"rt": -1, "stimulus": "<p id=\"stim\">NEUTRON</p>", "key_press": -1, "type": "PRES_VIS", "word": "neutron", "wordID": 946, "conditions": [18, 1200, "v", 18000], "trial": 1, "serialpos": 8, "trial_type": "single-stim", "trial_index": 63, "time_elapsed": 346971, "internal_node_id": "0.0-45.0"}}, {"uniqueid": "MTK0298:3AWETUDC93ZCPK8IHI128YNN3KXZI0", "current_trial": 64, "dateTime": 1510699969831, "trialdata": {"rt": -1, "stimulus": "<p id=\"stim\">ROBBER</p>", "key_press": -1, "type": "PRES_VIS", "word": "robber", "wordID": 1196, "conditions": [18, 1200, "v", 18000], "trial": 1, "serialpos": 9, "trial_type": "single-stim", "trial_index": 64, "time_elapsed": 349136, "internal_node_id": "0.0-46.0"}}, {"uniqueid": "MTK0298:3AWETUDC93ZCPK8IHI128YNN3KXZI0", "current_trial": 65, "dateTime": 1510699971836, "trialdata": {"rt": -1, "stimulus": "<p id=\"stim\">PUPPY</p>", "key_press": -1, "type": "PRES_VIS", "word": "puppy", "wordID": 1143, "conditions": [18, 1200, "v", 18000], "trial": 1, "serialpos": 10, "trial_type": "single-stim", "trial_index": 65, "time_elapsed": 351141, "internal_node_id": "0.0-47.0"}}, {"uniqueid": "MTK0298:3AWETUDC93ZCPK8IHI128YNN3KXZI0", "current_trial": 66, "dateTime": 1510699973885, "trialdata": {"rt": -1, "stimulus": "<p id=\"stim\">OYSTER</p>", "key_press": -1, "type": "PRES_VIS", "word": "oyster", "wordID": 994, "conditions": [18, 1200, "v", 18000], "trial": 1, "serialpos": 11, "trial_type": "single-stim", "trial_index": 66, "time_elapsed": 353190, "internal_node_id": "0.0-48.0"}}, {"uniqueid": "MTK0298:3AWETUDC93ZCPK8IHI128YNN3KXZI0", "current_trial": 67, "dateTime": 1510699976115, "trialdata": {"rt": -1, "stimulus": "<p id=\"stim\">POWDER</p>", "key_press": -1, "type": "PRES_VIS", "word": "powder", "wordID": 1116, "conditions": [18, 1200, "v", 18000], "trial": 1, "serialpos": 12, "trial_type": "single-stim", "trial_index": 67, "time_elapsed": 355420, "internal_node_id": "0.0-49.0"}}, {"uniqueid": "MTK0298:3AWETUDC93ZCPK8IHI128YNN3KXZI0", "current_trial": 68, "dateTime": 1510699978230, "trialdata": {"rt": -1, "stimulus": "<p id=\"stim\">MARSH</p>", "key_press": -1, "type": "PRES_VIS", "word": "marsh", "wordID": 873, "conditions": [18, 1200, "v", 18000], "trial": 1, "serialpos": 13, "trial_type": "single-stim", "trial_index": 68, "time_elapsed": 357532, "internal_node_id": "0.0-50.0"}}, {"uniqueid": "MTK0298:3AWETUDC93ZCPK8IHI128YNN3KXZI0", "current_trial": 69, "dateTime": 1510699980381, "trialdata": {"rt": -1, "stimulus": "<p id=\"stim\">TUBA</p>", "key_press": -1, "type": "PRES_VIS", "word": "tuba", "wordID": 1514, "conditions": [18, 1200, "v", 18000], "trial": 1, "serialpos": 14, "trial_type": "single-stim", "trial_index": 69, "time_elapsed": 359686, "internal_node_id": "0.0-51.0"}}, {"uniqueid": "MTK0298:3AWETUDC93ZCPK8IHI128YNN3KXZI0", "current_trial": 70, "dateTime": 1510699982683, "trialdata": {"rt": -1, "stimulus": "<p id=\"stim\">WARDROBE</p>", "key_press": -1, "type": "PRES_VIS", "word": "wardrobe", "wordID": 1586, "conditions": [18, 1200, "v", 18000], "trial": 1, "serialpos": 15, "trial_type": "single-stim", "trial_index": 70, "time_elapsed": 361988, "internal_node_id": "0.0-52.0"}}, {"uniqueid": "MTK0298:3AWETUDC93ZCPK8IHI128YNN3KXZI0", "current_trial": 71, "dateTime": 1510699984998, "trialdata": {"rt": -1, "stimulus": "<p id=\"stim\">FIREPLACE</p>", "key_press": -1, "type": "PRES_VIS", "word": "fireplace", "wordID": 569, "conditions": [18, 1200, "v", 18000], "trial": 1, "serialpos": 16, "trial_type": "single-stim", "trial_index": 71, "time_elapsed": 364303, "internal_node_id": "0.0-53.0"}}, {"uniqueid": "MTK0298:3AWETUDC93ZCPK8IHI128YNN3KXZI0", "current_trial": 72, "dateTime": 1510699987230, "trialdata": {"rt": -1, "stimulus": "<p id=\"stim\">MAPLE</p>", "key_press": -1, "type": "PRES_VIS", "word": "maple", "wordID": 865, "conditions": [18, 1200, "v", 18000], "trial": 1, "serialpos": 17, "trial_type": "single-stim", "trial_index": 72, "time_elapsed": 366535, "internal_node_id": "0.0-54.0"}}, {"uniqueid": "MTK0298:3AWETUDC93ZCPK8IHI128YNN3KXZI0", "current_trial": 73, "dateTime": 1510699989751, "trialdata": {"rt": -1, "stimulus": "", "key_press": -1, "type": "PRE_RECALL_DELAY", "trial_type": "single-stim", "trial_index": 73, "time_elapsed": 369055, "internal_node_id": "0.0-55.0-0.0"}}, {"uniqueid": "MTK0298:3AWETUDC93ZCPK8IHI128YNN3KXZI0", "current_trial": 74, "dateTime": 1510699990256, "trialdata": {"rt": -1000, "stimulus": "/static/audio/400Hz.wav", "key_press": -1, "type": "PRE_RECALL_ALERT", "trial_type": "single-audio", "trial_index": 74, "time_elapsed": 369561, "internal_node_id": "0.0-56.0"}}, {"uniqueid": "MTK0298:3AWETUDC93ZCPK8IHI128YNN3KXZI0", "current_trial": 75, "dateTime": 1510700050264, "trialdata": {"rt": [3029, 4740, 8685, 11237, 15389, 30093, 31420], "recwords": ["stream", "practice", "pork", "doorbell", "tuba", "stream", ""], "type": "FREE_RECALL", "conditions": [18, 1200, "v", 18000], "trial": 1, "trial_type": "free-recall", "trial_index": 75, "time_elapsed": 429565, "internal_node_id": "0.0-57.0-0.0"}}, {"uniqueid": "MTK0298:3AWETUDC93ZCPK8IHI128YNN3KXZI0", "current_trial": 76, "dateTime": 1510700054734, "trialdata": {"rt": 2463, "key_press": 69, "type": "INSTRUCTIONS", "trial_type": "text", "trial_index": 76, "time_elapsed": 434032, "internal_node_id": "0.0-58.0"}}, {"uniqueid": "MTK0298:3AWETUDC93ZCPK8IHI128YNN3KXZI0", "current_trial": 77, "dateTime": 1510700079738, "trialdata": {"rt": [6493, 14101, 16541, 18485, 21894], "responses": ["13", "22", "8", "9", "5"], "num1": [3, 6, 3, 1, 2, 9], "num2": [1, 7, 4, 5, 1, 6], "num3": [9, 9, 1, 3, 2, 2], "type": "DISTRACTOR", "conditions": [24, 800, "v", 24000], "trial": 2, "trial_type": "math-distractor", "trial_index": 77, "time_elapsed": 459043, "internal_node_id": "0.0-59.0"}}, {"uniqueid": "MTK0298:3AWETUDC93ZCPK8IHI128YNN3KXZI0", "current_trial": 78, "dateTime": 1510700082740, "trialdata": {"rt": -1, "stimulus": "<p id=\"stim\">10</p>", "key_press": -1, "trial_type": "single-stim", "trial_index": 78, "time_elapsed": 462045, "internal_node_id": "0.0-60.0-0.0"}}, {"uniqueid": "MTK0298:3AWETUDC93ZCPK8IHI128YNN3KXZI0", "current_trial": 79, "dateTime": 1510700083742, "trialdata": {"rt": -1, "stimulus": "<p id=\"stim\">9</p>", "key_press": -1, "trial_type": "single-stim", "trial_index": 79, "time_elapsed": 463046, "internal_node_id": "0.0-60.0-1.0"}}, {"uniqueid": "MTK0298:3AWETUDC93ZCPK8IHI128YNN3KXZI0", "current_trial": 80, "dateTime": 1510700084744, "trialdata": {"rt": -1, "stimulus": "<p id=\"stim\">8</p>", "key_press": -1, "trial_type": "single-stim", "trial_index": 80, "time_elapsed": 464048, "internal_node_id": "0.0-60.0-2.0"}}, {"uniqueid": "MTK0298:3AWETUDC93ZCPK8IHI128YNN3KXZI0", "current_trial": 81, "dateTime": 1510700085746, "trialdata": {"rt": -1, "stimulus": "<p id=\"stim\">7</p>", "key_press": -1, "trial_type": "single-stim", "trial_index": 81, "time_elapsed": 465051, "internal_node_id": "0.0-60.0-3.0"}}, {"uniqueid": "MTK0298:3AWETUDC93ZCPK8IHI128YNN3KXZI0", "current_trial": 82, "dateTime": 1510700086747, "trialdata": {"rt": -1, "stimulus": "<p id=\"stim\">6</p>", "key_press": -1, "trial_type": "single-stim", "trial_index": 82, "time_elapsed": 466051, "internal_node_id": "0.0-60.0-4.0"}}, {"uniqueid": "MTK0298:3AWETUDC93ZCPK8IHI128YNN3KXZI0", "current_trial": 83, "dateTime": 1510700087748, "trialdata": {"rt": -1, "stimulus": "<p id=\"stim\">5</p>", "key_press": -1, "trial_type": "single-stim", "trial_index": 83, "time_elapsed": 467053, "internal_node_id": "0.0-60.0-5.0"}}, {"uniqueid": "MTK0298:3AWETUDC93ZCPK8IHI128YNN3KXZI0", "current_trial": 84, "dateTime": 1510700088750, "trialdata": {"rt": -1, "stimulus": "<p id=\"stim\">4</p>", "key_press": -1, "trial_type": "single-stim", "trial_index": 84, "time_elapsed": 468055, "internal_node_id": "0.0-60.0-6.0"}}, {"uniqueid": "MTK0298:3AWETUDC93ZCPK8IHI128YNN3KXZI0", "current_trial": 85, "dateTime": 1510700089752, "trialdata": {"rt": -1, "stimulus": "<p id=\"stim\">3</p>", "key_press": -1, "trial_type": "single-stim", "trial_index": 85, "time_elapsed": 469057, "internal_node_id": "0.0-60.0-7.0"}}, {"uniqueid": "MTK0298:3AWETUDC93ZCPK8IHI128YNN3KXZI0", "current_trial": 86, "dateTime": 1510700090754, "trialdata": {"rt": -1, "stimulus": "<p id=\"stim\">2</p>", "key_press": -1, "trial_type": "single-stim", "trial_index": 86, "time_elapsed": 470059, "internal_node_id": "0.0-60.0-8.0"}}, {"uniqueid": "MTK0298:3AWETUDC93ZCPK8IHI128YNN3KXZI0", "current_trial": 87, "dateTime": 1510700091755, "trialdata": {"rt": -1, "stimulus": "<p id=\"stim\">1</p>", "key_press": -1, "trial_type": "single-stim", "trial_index": 87, "time_elapsed": 471059, "internal_node_id": "0.0-60.0-9.0"}}, {"uniqueid": "MTK0298:3AWETUDC93ZCPK8IHI128YNN3KXZI0", "current_trial": 88, "dateTime": 1510700093257, "trialdata": {"rt": -1, "stimulus": "<p id=\"stim\">+</p>", "key_press": -1, "type": "FIXATION", "trial_type": "single-stim", "trial_index": 88, "time_elapsed": 472562, "internal_node_id": "0.0-61.0-0.0"}}, {"uniqueid": "MTK0298:3AWETUDC93ZCPK8IHI128YNN3KXZI0", "current_trial": 89, "dateTime": 1510700094058, "trialdata": {"rt": -1, "stimulus": "<p id=\"stim\">BEAKER</p>", "key_press": -1, "type": "PRES_VIS", "word": "beaker", "wordID": 103, "conditions": [24, 800, "v", 24000], "trial": 2, "serialpos": 0, "trial_type": "single-stim", "trial_index": 89, "time_elapsed": 473362, "internal_node_id": "0.0-62.0"}}, {"uniqueid": "MTK0298:3AWETUDC93ZCPK8IHI128YNN3KXZI0", "current_trial": 90, "dateTime": 1510700095783, "trialdata": {"rt": -1, "stimulus": "<p id=\"stim\">STATUE</p>", "key_press": -1, "type": "PRES_VIS", "word": "statue", "wordID": 1373, "conditions": [24, 800, "v", 24000], "trial": 2, "serialpos": 1, "trial_type": "single-stim", "trial_index": 90, "time_elapsed": 475087, "internal_node_id": "0.0-63.0"}}, {"uniqueid": "MTK0298:3AWETUDC93ZCPK8IHI128YNN3KXZI0", "current_trial": 91, "dateTime": 1510700097450, "trialdata": {"rt": -1, "stimulus": "<p id=\"stim\">PEACH</p>", "key_press": -1, "type": "PRES_VIS", "word": "peach", "wordID": 1030, "conditions": [24, 800, "v", 24000], "trial": 2, "serialpos": 2, "trial_type": "single-stim", "trial_index": 91, "time_elapsed": 476755, "internal_node_id": "0.0-64.0"}}, {"uniqueid": "MTK0298:3AWETUDC93ZCPK8IHI128YNN3KXZI0", "current_trial": 92, "dateTime": 1510700099074, "trialdata": {"rt": -1, "stimulus": "<p id=\"stim\">FLASK</p>", "key_press": -1, "type": "PRES_VIS", "word": "flask", "wordID": 575, "conditions": [24, 800, "v", 24000], "trial": 2, "serialpos": 3, "trial_type": "single-stim", "trial_index": 92, "time_elapsed": 478378, "internal_node_id": "0.0-65.0"}}, {"uniqueid": "MTK0298:3AWETUDC93ZCPK8IHI128YNN3KXZI0", "current_trial": 93, "dateTime": 1510700100895, "trialdata": {"rt": -1, "stimulus": "<p id=\"stim\">TOMBSTONE</p>", "key_press": -1, "type": "PRES_VIS", "word": "tombstone", "wordID": 1477, "conditions": [24, 800, "v", 24000], "trial": 2, "serialpos": 4, "trial_type": "single-stim", "trial_index": 93, "time_elapsed": 480200, "internal_node_id": "0.0-66.0"}}, {"uniqueid": "MTK0298:3AWETUDC93ZCPK8IHI128YNN3KXZI0", "current_trial": 94, "dateTime": 1510700102887, "trialdata": {"rt": -1, "stimulus": "<p id=\"stim\">CASKET</p>", "key_press": -1, "type": "PRES_VIS", "word": "casket", "wordID": 254, "conditions": [24, 800, "v", 24000], "trial": 2, "serialpos": 5, "trial_type": "single-stim", "trial_index": 94, "time_elapsed": 482192, "internal_node_id": "0.0-67.0"}}, {"uniqueid": "MTK0298:3AWETUDC93ZCPK8IHI128YNN3KXZI0", "current_trial": 95, "dateTime": 1510700104801, "trialdata": {"rt": -1, "stimulus": "<p id=\"stim\">ICING</p>", "key_press": -1, "type": "PRES_VIS", "word": "icing", "wordID": 731, "conditions": [24, 800, "v", 24000], "trial": 2, "serialpos": 6, "trial_type": "single-stim", "trial_index": 95, "time_elapsed": 484106, "internal_node_id": "0.0-68.0"}}, {"uniqueid": "MTK0298:3AWETUDC93ZCPK8IHI128YNN3KXZI0", "current_trial": 96, "dateTime": 1510700106408, "trialdata": {"rt": -1, "stimulus": "<p id=\"stim\">YARN</p>", "key_press": -1, "type": "PRES_VIS", "word": "yarn", "wordID": 1630, "conditions": [24, 800, "v", 24000], "trial": 2, "serialpos": 7, "trial_type": "single-stim", "trial_index": 96, "time_elapsed": 485713, "internal_node_id": "0.0-69.0"}}, {"uniqueid": "MTK0298:3AWETUDC93ZCPK8IHI128YNN3KXZI0", "current_trial": 97, "dateTime": 1510700108173, "trialdata": {"rt": -1, "stimulus": "<p id=\"stim\">DRILL</p>", "key_press": -1, "type": "PRES_VIS", "word": "drill", "wordID": 496, "conditions": [24, 800, "v", 24000], "trial": 2, "serialpos": 8, "trial_type": "single-stim", "trial_index": 97, "time_elapsed": 487477, "internal_node_id": "0.0-70.0"}}, {"uniqueid": "MTK0298:3AWETUDC93ZCPK8IHI128YNN3KXZI0", "current_trial": 98, "dateTime": 1510700109793, "trialdata": {"rt": -1, "stimulus": "<p id=\"stim\">TUNNEL</p>", "key_press": -1, "type": "PRES_VIS", "word": "tunnel", "wordID": 1518, "conditions": [24, 800, "v", 24000], "trial": 2, "serialpos": 9, "trial_type": "single-stim", "trial_index": 98, "time_elapsed": 489098, "internal_node_id": "0.0-71.0"}}, {"uniqueid": "MTK0298:3AWETUDC93ZCPK8IHI128YNN3KXZI0", "current_trial": 99, "dateTime": 1510700111422, "trialdata": {"rt": -1, "stimulus": "<p id=\"stim\">FRAGRANCE</p>", "key_press": -1, "type": "PRES_VIS", "word": "fragrance", "wordID": 598, "conditions": [24, 800, "v", 24000], "trial": 2, "serialpos": 10, "trial_type": "single-stim", "trial_index": 99, "time_elapsed": 490727, "internal_node_id": "0.0-72.0"}}, {"uniqueid": "MTK0298:3AWETUDC93ZCPK8IHI128YNN3KXZI0", "current_trial": 100, "dateTime": 1510700113044, "trialdata": {"rt": -1, "stimulus": "<p id=\"stim\">CHAMPAGNE</p>", "key_press": -1, "type": "PRES_VIS", "word": "champagne", "wordID": 277, "conditions": [24, 800, "v", 24000], "trial": 2, "serialpos": 11, "trial_type": "single-stim", "trial_index": 100, "time_elapsed": 492349, "internal_node_id": "0.0-73.0"}}, {"uniqueid": "MTK0298:3AWETUDC93ZCPK8IHI128YNN3KXZI0", "current_trial": 101, "dateTime": 1510700114936, "trialdata": {"rt": -1, "stimulus": "<p id=\"stim\">BINDER</p>", "key_press": -1, "type": "PRES_VIS", "word": "binder", "wordID": 126, "conditions": [24, 800, "v", 24000], "trial": 2, "serialpos": 12, "trial_type": "single-stim", "trial_index": 101, "time_elapsed": 494241, "internal_node_id": "0.0-74.0"}}, {"uniqueid": "MTK0298:3AWETUDC93ZCPK8IHI128YNN3KXZI0", "current_trial": 102, "dateTime": 1510700116730, "trialdata": {"rt": -1, "stimulus": "<p id=\"stim\">CROWN</p>", "key_press": -1, "type": "PRES_VIS", "word": "crown", "wordID": 414, "conditions": [24, 800, "v", 24000], "trial": 2, "serialpos": 13, "trial_type": "single-stim", "trial_index": 102, "time_elapsed": 496034, "internal_node_id": "0.0-75.0"}}, {"uniqueid": "MTK0298:3AWETUDC93ZCPK8IHI128YNN3KXZI0", "current_trial": 103, "dateTime": 1510700118667, "trialdata": {"rt": -1, "stimulus": "<p id=\"stim\">FARMER</p>", "key_press": -1, "type": "PRES_VIS", "word": "farmer", "wordID": 552, "conditions": [24, 800, "v", 24000], "trial": 2, "serialpos": 14, "trial_type": "single-stim", "trial_index": 103, "time_elapsed": 497971, "internal_node_id": "0.0-76.0"}}, {"uniqueid": "MTK0298:3AWETUDC93ZCPK8IHI128YNN3KXZI0", "current_trial": 104, "dateTime": 1510700120472, "trialdata": {"rt": -1, "stimulus": "<p id=\"stim\">SPARROW</p>", "key_press": -1, "type": "PRES_VIS", "word": "sparrow", "wordID": 1346, "conditions": [24, 800, "v", 24000], "trial": 2, "serialpos": 15, "trial_type": "single-stim", "trial_index": 104, "time_elapsed": 499777, "internal_node_id": "0.0-77.0"}}, {"uniqueid": "MTK0298:3AWETUDC93ZCPK8IHI128YNN3KXZI0", "current_trial": 105, "dateTime": 1510700122427, "trialdata": {"rt": -1, "stimulus": "<p id=\"stim\">APPLE</p>", "key_press": -1, "type": "PRES_VIS", "word": "apple", "wordID": 32, "conditions": [24, 800, "v", 24000], "trial": 2, "serialpos": 16, "trial_type": "single-stim", "trial_index": 105, "time_elapsed": 501732, "internal_node_id": "0.0-78.0"}}, {"uniqueid": "MTK0298:3AWETUDC93ZCPK8IHI128YNN3KXZI0", "current_trial": 106, "dateTime": 1510700124105, "trialdata": {"rt": -1, "stimulus": "<p id=\"stim\">ORCHID</p>", "key_press": -1, "type": "PRES_VIS", "word": "orchid", "wordID": 981, "conditions": [24, 800, "v", 24000], "trial": 2, "serialpos": 17, "trial_type": "single-stim", "trial_index": 106, "time_elapsed": 503410, "internal_node_id": "0.0-79.0"}}, {"uniqueid": "MTK0298:3AWETUDC93ZCPK8IHI128YNN3KXZI0", "current_trial": 107, "dateTime": 1510700125986, "trialdata": {"rt": -1, "stimulus": "<p id=\"stim\">COSTUME</p>", "key_press": -1, "type": "PRES_VIS", "word": "costume", "wordID": 382, "conditions": [24, 800, "v", 24000], "trial": 2, "serialpos": 18, "trial_type": "single-stim", "trial_index": 107, "time_elapsed": 505290, "internal_node_id": "0.0-80.0"}}, {"uniqueid": "MTK0298:3AWETUDC93ZCPK8IHI128YNN3KXZI0", "current_trial": 108, "dateTime": 1510700127912, "trialdata": {"rt": -1, "stimulus": "<p id=\"stim\">CRIB</p>", "key_press": -1, "type": "PRES_VIS", "word": "crib", "wordID": 406, "conditions": [24, 800, "v", 24000], "trial": 2, "serialpos": 19, "trial_type": "single-stim", "trial_index": 108, "time_elapsed": 507216, "internal_node_id": "0.0-81.0"}}, {"uniqueid": "MTK0298:3AWETUDC93ZCPK8IHI128YNN3KXZI0", "current_trial": 109, "dateTime": 1510700129618, "trialdata": {"rt": -1, "stimulus": "<p id=\"stim\">RATTLE</p>", "key_press": -1, "type": "PRES_VIS", "word": "rattle", "wordID": 1169, "conditions": [24, 800, "v", 24000], "trial": 2, "serialpos": 20, "trial_type": "single-stim", "trial_index": 109, "time_elapsed": 508923, "internal_node_id": "0.0-82.0"}}, {"uniqueid": "MTK0298:3AWETUDC93ZCPK8IHI128YNN3KXZI0", "current_trial": 110, "dateTime": 1510700131491, "trialdata": {"rt": -1, "stimulus": "<p id=\"stim\">ONION</p>", "key_press": -1, "type": "PRES_VIS", "word": "onion", "wordID": 976, "conditions": [24, 800, "v", 24000], "trial": 2, "serialpos": 21, "trial_type": "single-stim", "trial_index": 110, "time_elapsed": 510796, "internal_node_id": "0.0-83.0"}}, {"uniqueid": "MTK0298:3AWETUDC93ZCPK8IHI128YNN3KXZI0", "current_trial": 111, "dateTime": 1510700133186, "trialdata": {"rt": -1, "stimulus": "<p id=\"stim\">POCKET</p>", "key_press": -1, "type": "PRES_VIS", "word": "pocket", "wordID": 1092, "conditions": [24, 800, "v", 24000], "trial": 2, "serialpos": 22, "trial_type": "single-stim", "trial_index": 111, "time_elapsed": 512491, "internal_node_id": "0.0-84.0"}}, {"uniqueid": "MTK0298:3AWETUDC93ZCPK8IHI128YNN3KXZI0", "current_trial": 112, "dateTime": 1510700134859, "trialdata": {"rt": -1, "stimulus": "<p id=\"stim\">BRIEFCASE</p>", "key_press": -1, "type": "PRES_VIS", "word": "briefcase", "wordID": 174, "conditions": [24, 800, "v", 24000], "trial": 2, "serialpos": 23, "trial_type": "single-stim", "trial_index": 112, "time_elapsed": 514164, "internal_node_id": "0.0-85.0"}}, {"uniqueid": "MTK0298:3AWETUDC93ZCPK8IHI128YNN3KXZI0", "current_trial": 113, "dateTime": 1510700137161, "trialdata": {"rt": -1, "stimulus": "", "key_press": -1, "type": "PRE_RECALL_DELAY", "trial_type": "single-stim", "trial_index": 113, "time_elapsed": 516466, "internal_node_id": "0.0-86.0-0.0"}}, {"uniqueid": "MTK0298:3AWETUDC93ZCPK8IHI128YNN3KXZI0", "current_trial": 114, "dateTime": 1510700137667, "trialdata": {"rt": -1000, "stimulus": "/static/audio/400Hz.wav", "key_press": -1, "type": "PRE_RECALL_ALERT", "trial_type": "single-audio", "trial_index": 114, "time_elapsed": 516972, "internal_node_id": "0.0-87.0"}}, {"uniqueid": "MTK0298:3AWETUDC93ZCPK8IHI128YNN3KXZI0", "current_trial": 115, "dateTime": 1510700197676, "trialdata": {"rt": [2866, 4329, 6058, 9378, 13025, 17505, 58490], "recwords": ["onion", "pocket", "briefcase", "rattle", "champange", "crown", ""], "type": "FREE_RECALL", "conditions": [24, 800, "v", 24000], "trial": 2, "trial_type": "free-recall", "trial_index": 115, "time_elapsed": 576977, "internal_node_id": "0.0-88.0-0.0"}}, {"uniqueid": "MTK0298:3AWETUDC93ZCPK8IHI128YNN3KXZI0", "current_trial": 116, "dateTime": 1510700201944, "trialdata": {"rt": 2267, "key_press": 87, "type": "INSTRUCTIONS", "trial_type": "text", "trial_index": 116, "time_elapsed": 581248, "internal_node_id": "0.0-89.0"}}, {"uniqueid": "MTK0298:3AWETUDC93ZCPK8IHI128YNN3KXZI0", "current_trial": 117, "dateTime": 1510700215947, "trialdata": {"rt": [3669, 5629, 7702, 9501], "responses": ["20", "20", "143", "17"], "num1": [5, 8, 4, 3, 6], "num2": [9, 6, 6, 7, 5], "num3": [6, 6, 4, 7, 7], "type": "DISTRACTOR", "conditions": [24, 1600, "a", 12000], "trial": 3, "trial_type": "math-distractor", "trial_index": 117, "time_elapsed": 595252, "internal_node_id": "0.0-90.0"}}, {"uniqueid": "MTK0298:3AWETUDC93ZCPK8IHI128YNN3KXZI0", "current_trial": 118, "dateTime": 1510700218948, "trialdata": {"rt": -1, "stimulus": "<p id=\"stim\">10</p>", "key_press": -1, "trial_type": "single-stim", "trial_index": 118, "time_elapsed": 598252, "internal_node_id": "0.0-91.0-0.0"}}, {"uniqueid": "MTK0298:3AWETUDC93ZCPK8IHI128YNN3KXZI0", "current_trial": 119, "dateTime": 1510700219950, "trialdata": {"rt": -1, "stimulus": "<p id=\"stim\">9</p>", "key_press": -1, "trial_type": "single-stim", "trial_index": 119, "time_elapsed": 599254, "internal_node_id": "0.0-91.0-1.0"}}, {"uniqueid": "MTK0298:3AWETUDC93ZCPK8IHI128YNN3KXZI0", "current_trial": 120, "dateTime": 1510700220951, "trialdata": {"rt": -1, "stimulus": "<p id=\"stim\">8</p>", "key_press": -1, "trial_type": "single-stim", "trial_index": 120, "time_elapsed": 600255, "internal_node_id": "0.0-91.0-2.0"}}, {"uniqueid": "MTK0298:3AWETUDC93ZCPK8IHI128YNN3KXZI0", "current_trial": 121, "dateTime": 1510700221953, "trialdata": {"rt": -1, "stimulus": "<p id=\"stim\">7</p>", "key_press": -1, "trial_type": "single-stim", "trial_index": 121, "time_elapsed": 601258, "internal_node_id": "0.0-91.0-3.0"}}, {"uniqueid": "MTK0298:3AWETUDC93ZCPK8IHI128YNN3KXZI0", "current_trial": 122, "dateTime": 1510700222954, "trialdata": {"rt": -1, "stimulus": "<p id=\"stim\">6</p>", "key_press": -1, "trial_type": "single-stim", "trial_index": 122, "time_elapsed": 602258, "internal_node_id": "0.0-91.0-4.0"}}, {"uniqueid": "MTK0298:3AWETUDC93ZCPK8IHI128YNN3KXZI0", "current_trial": 123, "dateTime": 1510700223955, "trialdata": {"rt": -1, "stimulus": "<p id=\"stim\">5</p>", "key_press": -1, "trial_type": "single-stim", "trial_index": 123, "time_elapsed": 603260, "internal_node_id": "0.0-91.0-5.0"}}, {"uniqueid": "MTK0298:3AWETUDC93ZCPK8IHI128YNN3KXZI0", "current_trial": 124, "dateTime": 1510700224956, "trialdata": {"rt": -1, "stimulus": "<p id=\"stim\">4</p>", "key_press": -1, "trial_type": "single-stim", "trial_index": 124, "time_elapsed": 604261, "internal_node_id": "0.0-91.0-6.0"}}, {"uniqueid": "MTK0298:3AWETUDC93ZCPK8IHI128YNN3KXZI0", "current_trial": 125, "dateTime": 1510700225958, "trialdata": {"rt": -1, "stimulus": "<p id=\"stim\">3</p>", "key_press": -1, "trial_type": "single-stim", "trial_index": 125, "time_elapsed": 605262, "internal_node_id": "0.0-91.0-7.0"}}, {"uniqueid": "MTK0298:3AWETUDC93ZCPK8IHI128YNN3KXZI0", "current_trial": 126, "dateTime": 1510700226960, "trialdata": {"rt": -1, "stimulus": "<p id=\"stim\">2</p>", "key_press": -1, "trial_type": "single-stim", "trial_index": 126, "time_elapsed": 606265, "internal_node_id": "0.0-91.0-8.0"}}, {"uniqueid": "MTK0298:3AWETUDC93ZCPK8IHI128YNN3KXZI0", "current_trial": 127, "dateTime": 1510700227961, "trialdata": {"rt": -1, "stimulus": "<p id=\"stim\">1</p>", "key_press": -1, "trial_type": "single-stim", "trial_index": 127, "time_elapsed": 607265, "internal_node_id": "0.0-91.0-9.0"}}, {"uniqueid": "MTK0298:3AWETUDC93ZCPK8IHI128YNN3KXZI0", "current_trial": 128, "dateTime": 1510700229462, "trialdata": {"rt": -1, "stimulus": "<p id=\"stim\">+</p>", "key_press": -1, "type": "FIXATION", "trial_type": "single-stim", "trial_index": 128, "time_elapsed": 608766, "internal_node_id": "0.0-92.0-0.0"}}, {"uniqueid": "MTK0298:3AWETUDC93ZCPK8IHI128YNN3KXZI0", "current_trial": 129, "dateTime": 1510700232263, "trialdata": {"rt": -1000, "stimulus": "/static/audio/wordpool/PERCH.wav", "key_press": -1, "type": "PRES_AUD", "word": "perch", "wordID": 1047, "conditions": [24, 1600, "a", 12000], "trial": 3, "serialpos": 0, "trial_type": "single-audio", "trial_index": 129, "time_elapsed": 611567, "internal_node_id": "0.0-93.0"}}, {"uniqueid": "MTK0298:3AWETUDC93ZCPK8IHI128YNN3KXZI0", "current_trial": 130, "dateTime": 1510700234766, "trialdata": {"rt": -1000, "stimulus": "/static/audio/wordpool/SODA.wav", "key_press": -1, "type": "PRES_AUD", "word": "soda", "wordID": 1340, "conditions": [24, 1600, "a", 12000], "trial": 3, "serialpos": 1, "trial_type": "single-audio", "trial_index": 130, "time_elapsed": 614071, "internal_node_id": "0.0-94.0"}}, {"uniqueid": "MTK0298:3AWETUDC93ZCPK8IHI128YNN3KXZI0", "current_trial": 131, "dateTime": 1510700237556, "trialdata": {"rt": -1000, "stimulus": "/static/audio/wordpool/COFFEE.wav", "key_press": -1, "type": "PRES_AUD", "word": "coffee", "wordID": 340, "conditions": [24, 1600, "a", 12000], "trial": 3, "serialpos": 2, "trial_type": "single-audio", "trial_index": 131, "time_elapsed": 616861, "internal_node_id": "0.0-95.0"}}, {"uniqueid": "MTK0298:3AWETUDC93ZCPK8IHI128YNN3KXZI0", "current_trial": 132, "dateTime": 1510700240261, "trialdata": {"rt": -1000, "stimulus": "/static/audio/wordpool/BUG.wav", "key_press": -1, "type": "PRES_AUD", "word": "bug", "wordID": 186, "conditions": [24, 1600, "a", 12000], "trial": 3, "serialpos": 3, "trial_type": "single-audio", "trial_index": 132, "time_elapsed": 619565, "internal_node_id": "0.0-96.0"}}, {"uniqueid": "MTK0298:3AWETUDC93ZCPK8IHI128YNN3KXZI0", "current_trial": 133, "dateTime": 1510700242844, "trialdata": {"rt": -1000, "stimulus": "/static/audio/wordpool/REPORT.wav", "key_press": -1, "type": "PRES_AUD", "word": "report", "wordID": 1183, "conditions": [24, 1600, "a", 12000], "trial": 3, "serialpos": 4, "trial_type": "single-audio", "trial_index": 133, "time_elapsed": 622149, "internal_node_id": "0.0-97.0"}}, {"uniqueid": "MTK0298:3AWETUDC93ZCPK8IHI128YNN3KXZI0", "current_trial": 134, "dateTime": 1510700245508, "trialdata": {"rt": -1000, "stimulus": "/static/audio/wordpool/COUCH.wav", "key_press": -1, "type": "PRES_AUD", "word": "couch", "wordID": 385, "conditions": [24, 1600, "a", 12000], "trial": 3, "serialpos": 5, "trial_type": "single-audio", "trial_index": 134, "time_elapsed": 624813, "internal_node_id": "0.0-98.0"}}, {"uniqueid": "MTK0298:3AWETUDC93ZCPK8IHI128YNN3KXZI0", "current_trial": 135, "dateTime": 1510700248181, "trialdata": {"rt": -1000, "stimulus": "/static/audio/wordpool/PRINCESS.wav", "key_press": -1, "type": "PRES_AUD", "word": "princess", "wordID": 1124, "conditions": [24, 1600, "a", 12000], "trial": 3, "serialpos": 6, "trial_type": "single-audio", "trial_index": 135, "time_elapsed": 627485, "internal_node_id": "0.0-99.0"}}, {"uniqueid": "MTK0298:3AWETUDC93ZCPK8IHI128YNN3KXZI0", "current_trial": 136, "dateTime": 1510700250725, "trialdata": {"rt": -1000, "stimulus": "/static/audio/wordpool/NURSE.wav", "key_press": -1, "type": "PRES_AUD", "word": "nurse", "wordID": 962, "conditions": [24, 1600, "a", 12000], "trial": 3, "serialpos": 7, "trial_type": "single-audio", "trial_index": 136, "time_elapsed": 630030, "internal_node_id": "0.0-100.0"}}, {"uniqueid": "MTK0298:3AWETUDC93ZCPK8IHI128YNN3KXZI0", "current_trial": 137, "dateTime": 1510700253224, "trialdata": {"rt": -1000, "stimulus": "/static/audio/wordpool/FOOT.wav", "key_press": -1, "type": "PRES_AUD", "word": "foot", "wordID": 589, "conditions": [24, 1600, "a", 12000], "trial": 3, "serialpos": 8, "trial_type": "single-audio", "trial_index": 137, "time_elapsed": 632529, "internal_node_id": "0.0-101.0"}}, {"uniqueid": "MTK0298:3AWETUDC93ZCPK8IHI128YNN3KXZI0", "current_trial": 138, "dateTime": 1510700255844, "trialdata": {"rt": -1000, "stimulus": "/static/audio/wordpool/HUMAN.wav", "key_press": -1, "type": "PRES_AUD", "word": "human", "wordID": 725, "conditions": [24, 1600, "a", 12000], "trial": 3, "serialpos": 9, "trial_type": "single-audio", "trial_index": 138, "time_elapsed": 635149, "internal_node_id": "0.0-102.0"}}, {"uniqueid": "MTK0298:3AWETUDC93ZCPK8IHI128YNN3KXZI0", "current_trial": 139, "dateTime": 1510700258414, "trialdata": {"rt": -1000, "stimulus": "/static/audio/wordpool/MATTRESS.wav", "key_press": -1, "type": "PRES_AUD", "word": "mattress", "wordID": 878, "conditions": [24, 1600, "a", 12000], "trial": 3, "serialpos": 10, "trial_type": "single-audio", "trial_index": 139, "time_elapsed": 637719, "internal_node_id": "0.0-103.0"}}, {"uniqueid": "MTK0298:3AWETUDC93ZCPK8IHI128YNN3KXZI0", "current_trial": 140, "dateTime": 1510700261180, "trialdata": {"rt": -1000, "stimulus": "/static/audio/wordpool/DORM.wav", "key_press": -1, "type": "PRES_AUD", "word": "dorm", "wordID": 487, "conditions": [24, 1600, "a", 12000], "trial": 3, "serialpos": 11, "trial_type": "single-audio", "trial_index": 140, "time_elapsed": 640485, "internal_node_id": "0.0-104.0"}}, {"uniqueid": "MTK0298:3AWETUDC93ZCPK8IHI128YNN3KXZI0", "current_trial": 141, "dateTime": 1510700263981, "trialdata": {"rt": -1000, "stimulus": "/static/audio/wordpool/BULLET.wav", "key_press": -1, "type": "PRES_AUD", "word": "bullet", "wordID": 193, "conditions": [24, 1600, "a", 12000], "trial": 3, "serialpos": 12, "trial_type": "single-audio", "trial_index": 141, "time_elapsed": 643286, "internal_node_id": "0.0-105.0"}}, {"uniqueid": "MTK0298:3AWETUDC93ZCPK8IHI128YNN3KXZI0", "current_trial": 142, "dateTime": 1510700266550, "trialdata": {"rt": -1000, "stimulus": "/static/audio/wordpool/JELLY.wav", "key_press": -1, "type": "PRES_AUD", "word": "jelly", "wordID": 754, "conditions": [24, 1600, "a", 12000], "trial": 3, "serialpos": 13, "trial_type": "single-audio", "trial_index": 142, "time_elapsed": 645855, "internal_node_id": "0.0-106.0"}}, {"uniqueid": "MTK0298:3AWETUDC93ZCPK8IHI128YNN3KXZI0", "current_trial": 143, "dateTime": 1510700269047, "trialdata": {"rt": -1000, "stimulus": "/static/audio/wordpool/TRENCH.wav", "key_press": -1, "type": "PRES_AUD", "word": "trench", "wordID": 1502, "conditions": [24, 1600, "a", 12000], "trial": 3, "serialpos": 14, "trial_type": "single-audio", "trial_index": 143, "time_elapsed": 648351, "internal_node_id": "0.0-107.0"}}, {"uniqueid": "MTK0298:3AWETUDC93ZCPK8IHI128YNN3KXZI0", "current_trial": 144, "dateTime": 1510700271583, "trialdata": {"rt": -1000, "stimulus": "/static/audio/wordpool/PROTON.wav", "key_press": -1, "type": "PRES_AUD", "word": "proton", "wordID": 1131, "conditions": [24, 1600, "a", 12000], "trial": 3, "serialpos": 15, "trial_type": "single-audio", "trial_index": 144, "time_elapsed": 650887, "internal_node_id": "0.0-108.0"}}, {"uniqueid": "MTK0298:3AWETUDC93ZCPK8IHI128YNN3KXZI0", "current_trial": 145, "dateTime": 1510700274059, "trialdata": {"rt": -1000, "stimulus": "/static/audio/wordpool/PICNIC.wav", "key_press": -1, "type": "PRES_AUD", "word": "picnic", "wordID": 1059, "conditions": [24, 1600, "a", 12000], "trial": 3, "serialpos": 16, "trial_type": "single-audio", "trial_index": 145, "time_elapsed": 653364, "internal_node_id": "0.0-109.0"}}, {"uniqueid": "MTK0298:3AWETUDC93ZCPK8IHI128YNN3KXZI0", "current_trial": 146, "dateTime": 1510700276536, "trialdata": {"rt": -1000, "stimulus": "/static/audio/wordpool/IGLOO.wav", "key_press": -1, "type": "PRES_AUD", "word": "igloo", "wordID": 733, "conditions": [24, 1600, "a", 12000], "trial": 3, "serialpos": 17, "trial_type": "single-audio", "trial_index": 146, "time_elapsed": 655841, "internal_node_id": "0.0-110.0"}}, {"uniqueid": "MTK0298:3AWETUDC93ZCPK8IHI128YNN3KXZI0", "current_trial": 147, "dateTime": 1510700279059, "trialdata": {"rt": -1000, "stimulus": "/static/audio/wordpool/JELLO.wav", "key_press": -1, "type": "PRES_AUD", "word": "jello", "wordID": 753, "conditions": [24, 1600, "a", 12000], "trial": 3, "serialpos": 18, "trial_type": "single-audio", "trial_index": 147, "time_elapsed": 658364, "internal_node_id": "0.0-111.0"}}, {"uniqueid": "MTK0298:3AWETUDC93ZCPK8IHI128YNN3KXZI0", "current_trial": 148, "dateTime": 1510700281581, "trialdata": {"rt": -1000, "stimulus": "/static/audio/wordpool/VALVE.wav", "key_press": -1, "type": "PRES_AUD", "word": "valve", "wordID": 1545, "conditions": [24, 1600, "a", 12000], "trial": 3, "serialpos": 19, "trial_type": "single-audio", "trial_index": 148, "time_elapsed": 660886, "internal_node_id": "0.0-112.0"}}, {"uniqueid": "MTK0298:3AWETUDC93ZCPK8IHI128YNN3KXZI0", "current_trial": 149, "dateTime": 1510700283994, "trialdata": {"rt": -1000, "stimulus": "/static/audio/wordpool/KNIFE.wav", "key_press": -1, "type": "PRES_AUD", "word": "knife", "wordID": 784, "conditions": [24, 1600, "a", 12000], "trial": 3, "serialpos": 20, "trial_type": "single-audio", "trial_index": 149, "time_elapsed": 663299, "internal_node_id": "0.0-113.0"}}, {"uniqueid": "MTK0298:3AWETUDC93ZCPK8IHI128YNN3KXZI0", "current_trial": 150, "dateTime": 1510700286536, "trialdata": {"rt": -1000, "stimulus": "/static/audio/wordpool/BLADE.wav", "key_press": -1, "type": "PRES_AUD", "word": "blade", "wordID": 133, "conditions": [24, 1600, "a", 12000], "trial": 3, "serialpos": 21, "trial_type": "single-audio", "trial_index": 150, "time_elapsed": 665840, "internal_node_id": "0.0-114.0"}}, {"uniqueid": "MTK0298:3AWETUDC93ZCPK8IHI128YNN3KXZI0", "current_trial": 151, "dateTime": 1510700289323, "trialdata": {"rt": -1000, "stimulus": "/static/audio/wordpool/SALAD.wav", "key_press": -1, "type": "PRES_AUD", "word": "salad", "wordID": 1223, "conditions": [24, 1600, "a", 12000], "trial": 3, "serialpos": 22, "trial_type": "single-audio", "trial_index": 151, "time_elapsed": 668627, "internal_node_id": "0.0-115.0"}}, {"uniqueid": "MTK0298:3AWETUDC93ZCPK8IHI128YNN3KXZI0", "current_trial": 152, "dateTime": 1510700291995, "trialdata": {"rt": -1000, "stimulus": "/static/audio/wordpool/SHOULDER.wav", "key_press": -1, "type": "PRES_AUD", "word": "shoulder", "wordID": 1293, "conditions": [24, 1600, "a", 12000], "trial": 3, "serialpos": 23, "trial_type": "single-audio", "trial_index": 152, "time_elapsed": 671300, "internal_node_id": "0.0-116.0"}}, {"uniqueid": "MTK0298:3AWETUDC93ZCPK8IHI128YNN3KXZI0", "current_trial": 153, "dateTime": 1510700293322, "trialdata": {"rt": -1, "stimulus": "", "key_press": -1, "type": "PRE_RECALL_DELAY", "trial_type": "single-stim", "trial_index": 153, "time_elapsed": 672626, "internal_node_id": "0.0-117.0-0.0"}}, {"uniqueid": "MTK0298:3AWETUDC93ZCPK8IHI128YNN3KXZI0", "current_trial": 154, "dateTime": 1510700293828, "trialdata": {"rt": -1000, "stimulus": "/static/audio/400Hz.wav", "key_press": -1, "type": "PRE_RECALL_ALERT", "trial_type": "single-audio", "trial_index": 154, "time_elapsed": 673132, "internal_node_id": "0.0-118.0"}}, {"uniqueid": "MTK0298:3AWETUDC93ZCPK8IHI128YNN3KXZI0", "current_trial": 155, "dateTime": 1510700353836, "trialdata": {"rt": [2986, 4122, 6090, 8274, 11066, 18978, 22922, 26986, 36979], "recwords": ["knife", "blade", "igloo", "jello", "picnic", "salad", "bowl", "proton", ""], "type": "FREE_RECALL", "conditions": [24, 1600, "a", 12000], "trial": 3, "trial_type": "free-recall", "trial_index": 155, "time_elapsed": 733136, "internal_node_id": "0.0-119.0-0.0"}}, {"uniqueid": "MTK0298:3AWETUDC93ZCPK8IHI128YNN3KXZI0", "current_trial": 156, "dateTime": 1510700357480, "trialdata": {"rt": 1642, "key_press": 69, "type": "INSTRUCTIONS", "trial_type": "text", "trial_index": 156, "time_elapsed": 736785, "internal_node_id": "0.0-120.0"}}, {"uniqueid": "MTK0298:3AWETUDC93ZCPK8IHI128YNN3KXZI0", "current_trial": 157, "dateTime": 1510700371484, "trialdata": {"rt": [2676, 4940, 8108, 10651], "responses": ["17", "8", "19", "15"], "num1": [7, 2, 4, 8, 4], "num2": [3, 3, 8, 5, 2], "num3": [7, 3, 7, 2, 4], "type": "DISTRACTOR", "conditions": [12, 800, "v", 12000], "trial": 4, "trial_type": "math-distractor", "trial_index": 157, "time_elapsed": 750789, "internal_node_id": "0.0-121.0"}}, {"uniqueid": "MTK0298:3AWETUDC93ZCPK8IHI128YNN3KXZI0", "current_trial": 158, "dateTime": 1510700374486, "trialdata": {"rt": -1, "stimulus": "<p id=\"stim\">10</p>", "key_press": -1, "trial_type": "single-stim", "trial_index": 158, "time_elapsed": 753791, "internal_node_id": "0.0-122.0-0.0"}}, {"uniqueid": "MTK0298:3AWETUDC93ZCPK8IHI128YNN3KXZI0", "current_trial": 159, "dateTime": 1510700375488, "trialdata": {"rt": -1, "stimulus": "<p id=\"stim\">9</p>", "key_press": -1, "trial_type": "single-stim", "trial_index": 159, "time_elapsed": 754793, "internal_node_id": "0.0-122.0-1.0"}}, {"uniqueid": "MTK0298:3AWETUDC93ZCPK8IHI128YNN3KXZI0", "current_trial": 160, "dateTime": 1510700376490, "trialdata": {"rt": -1, "stimulus": "<p id=\"stim\">8</p>", "key_press": -1, "trial_type": "single-stim", "trial_index": 160, "time_elapsed": 755795, "internal_node_id": "0.0-122.0-2.0"}}, {"uniqueid": "MTK0298:3AWETUDC93ZCPK8IHI128YNN3KXZI0", "current_trial": 161, "dateTime": 1510700377491, "trialdata": {"rt": -1, "stimulus": "<p id=\"stim\">7</p>", "key_press": -1, "trial_type": "single-stim", "trial_index": 161, "time_elapsed": 756796, "internal_node_id": "0.0-122.0-3.0"}}, {"uniqueid": "MTK0298:3AWETUDC93ZCPK8IHI128YNN3KXZI0", "current_trial": 162, "dateTime": 1510700378492, "trialdata": {"rt": -1, "stimulus": "<p id=\"stim\">6</p>", "key_press": -1, "trial_type": "single-stim", "trial_index": 162, "time_elapsed": 757797, "internal_node_id": "0.0-122.0-4.0"}}, {"uniqueid": "MTK0298:3AWETUDC93ZCPK8IHI128YNN3KXZI0", "current_trial": 163, "dateTime": 1510700379494, "trialdata": {"rt": -1, "stimulus": "<p id=\"stim\">5</p>", "key_press": -1, "trial_type": "single-stim", "trial_index": 163, "time_elapsed": 758799, "internal_node_id": "0.0-122.0-5.0"}}, {"uniqueid": "MTK0298:3AWETUDC93ZCPK8IHI128YNN3KXZI0", "current_trial": 164, "dateTime": 1510700380496, "trialdata": {"rt": -1, "stimulus": "<p id=\"stim\">4</p>", "key_press": -1, "trial_type": "single-stim", "trial_index": 164, "time_elapsed": 759800, "internal_node_id": "0.0-122.0-6.0"}}, {"uniqueid": "MTK0298:3AWETUDC93ZCPK8IHI128YNN3KXZI0", "current_trial": 165, "dateTime": 1510700381498, "trialdata": {"rt": -1, "stimulus": "<p id=\"stim\">3</p>", "key_press": -1, "trial_type": "single-stim", "trial_index": 165, "time_elapsed": 760803, "internal_node_id": "0.0-122.0-7.0"}}, {"uniqueid": "MTK0298:3AWETUDC93ZCPK8IHI128YNN3KXZI0", "current_trial": 166, "dateTime": 1510700382500, "trialdata": {"rt": -1, "stimulus": "<p id=\"stim\">2</p>", "key_press": -1, "trial_type": "single-stim", "trial_index": 166, "time_elapsed": 761804, "internal_node_id": "0.0-122.0-8.0"}}, {"uniqueid": "MTK0298:3AWETUDC93ZCPK8IHI128YNN3KXZI0", "current_trial": 167, "dateTime": 1510700383502, "trialdata": {"rt": -1, "stimulus": "<p id=\"stim\">1</p>", "key_press": -1, "trial_type": "single-stim", "trial_index": 167, "time_elapsed": 762807, "internal_node_id": "0.0-122.0-9.0"}}, {"uniqueid": "MTK0298:3AWETUDC93ZCPK8IHI128YNN3KXZI0", "current_trial": 168, "dateTime": 1510700385003, "trialdata": {"rt": -1, "stimulus": "<p id=\"stim\">+</p>", "key_press": -1, "type": "FIXATION", "trial_type": "single-stim", "trial_index": 168, "time_elapsed": 764308, "internal_node_id": "0.0-123.0-0.0"}}, {"uniqueid": "MTK0298:3AWETUDC93ZCPK8IHI128YNN3KXZI0", "current_trial": 169, "dateTime": 1510700385804, "trialdata": {"rt": -1, "stimulus": "<p id=\"stim\">SPHINX</p>", "key_press": -1, "type": "PRES_VIS", "word": "sphinx", "wordID": 1348, "conditions": [12, 800, "v", 12000], "trial": 4, "serialpos": 0, "trial_type": "single-stim", "trial_index": 169, "time_elapsed": 765109, "internal_node_id": "0.0-124.0"}}, {"uniqueid": "MTK0298:3AWETUDC93ZCPK8IHI128YNN3KXZI0", "current_trial": 170, "dateTime": 1510700387446, "trialdata": {"rt": -1, "stimulus": "<p id=\"stim\">PLUTO</p>", "key_press": -1, "type": "PRES_VIS", "word": "pluto", "wordID": 1091, "conditions": [12, 800, "v", 12000], "trial": 4, "serialpos": 1, "trial_type": "single-stim", "trial_index": 170, "time_elapsed": 766751, "internal_node_id": "0.0-125.0"}}, {"uniqueid": "MTK0298:3AWETUDC93ZCPK8IHI128YNN3KXZI0", "current_trial": 171, "dateTime": 1510700389193, "trialdata": {"rt": -1, "stimulus": "<p id=\"stim\">MILDEW</p>", "key_press": -1, "type": "PRES_VIS", "word": "mildew", "wordID": 892, "conditions": [12, 800, "v", 12000], "trial": 4, "serialpos": 2, "trial_type": "single-stim", "trial_index": 171, "time_elapsed": 768498, "internal_node_id": "0.0-126.0"}}, {"uniqueid": "MTK0298:3AWETUDC93ZCPK8IHI128YNN3KXZI0", "current_trial": 172, "dateTime": 1510700391011, "trialdata": {"rt": -1, "stimulus": "<p id=\"stim\">FUNGUS</p>", "key_press": -1, "type": "PRES_VIS", "word": "fungus", "wordID": 613, "conditions": [12, 800, "v", 12000], "trial": 4, "serialpos": 3, "trial_type": "single-stim", "trial_index": 172, "time_elapsed": 770316, "internal_node_id": "0.0-127.0"}}, {"uniqueid": "MTK0298:3AWETUDC93ZCPK8IHI128YNN3KXZI0", "current_trial": 173, "dateTime": 1510700392683, "trialdata": {"rt": -1, "stimulus": "<p id=\"stim\">TURNIP</p>", "key_press": -1, "type": "PRES_VIS", "word": "turnip", "wordID": 1520, "conditions": [12, 800, "v", 12000], "trial": 4, "serialpos": 4, "trial_type": "single-stim", "trial_index": 173, "time_elapsed": 771987, "internal_node_id": "0.0-128.0"}}, {"uniqueid": "MTK0298:3AWETUDC93ZCPK8IHI128YNN3KXZI0", "current_trial": 174, "dateTime": 1510700394358, "trialdata": {"rt": -1, "stimulus": "<p id=\"stim\">BARREL</p>", "key_press": -1, "type": "PRES_VIS", "word": "barrel", "wordID": 90, "conditions": [12, 800, "v", 12000], "trial": 4, "serialpos": 5, "trial_type": "single-stim", "trial_index": 174, "time_elapsed": 773663, "internal_node_id": "0.0-129.0"}}, {"uniqueid": "MTK0298:3AWETUDC93ZCPK8IHI128YNN3KXZI0", "current_trial": 175, "dateTime": 1510700396001, "trialdata": {"rt": -1, "stimulus": "<p id=\"stim\">CABBAGE</p>", "key_press": -1, "type": "PRES_VIS", "word": "cabbage", "wordID": 209, "conditions": [12, 800, "v", 12000], "trial": 4, "serialpos": 6, "trial_type": "single-stim", "trial_index": 175, "time_elapsed": 775305, "internal_node_id": "0.0-130.0"}}, {"uniqueid": "MTK0298:3AWETUDC93ZCPK8IHI128YNN3KXZI0", "current_trial": 176, "dateTime": 1510700397692, "trialdata": {"rt": -1, "stimulus": "<p id=\"stim\">ATLAS</p>", "key_press": -1, "type": "PRES_VIS", "word": "atlas", "wordID": 52, "conditions": [12, 800, "v", 12000], "trial": 4, "serialpos": 7, "trial_type": "single-stim", "trial_index": 176, "time_elapsed": 776997, "internal_node_id": "0.0-131.0"}}, {"uniqueid": "MTK0298:3AWETUDC93ZCPK8IHI128YNN3KXZI0", "current_trial": 177, "dateTime": 1510700399477, "trialdata": {"rt": -1, "stimulus": "<p id=\"stim\">PRIMATE</p>", "key_press": -1, "type": "PRES_VIS", "word": "primate", "wordID": 1122, "conditions": [12, 800, "v", 12000], "trial": 4, "serialpos": 8, "trial_type": "single-stim", "trial_index": 177, "time_elapsed": 778782, "internal_node_id": "0.0-132.0"}}, {"uniqueid": "MTK0298:3AWETUDC93ZCPK8IHI128YNN3KXZI0", "current_trial": 178, "dateTime": 1510700401366, "trialdata": {"rt": -1, "stimulus": "<p id=\"stim\">WASP</p>", "key_press": -1, "type": "PRES_VIS", "word": "wasp", "wordID": 1592, "conditions": [12, 800, "v", 12000], "trial": 4, "serialpos": 9, "trial_type": "single-stim", "trial_index": 178, "time_elapsed": 780671, "internal_node_id": "0.0-133.0"}}, {"uniqueid": "MTK0298:3AWETUDC93ZCPK8IHI128YNN3KXZI0", "current_trial": 179, "dateTime": 1510700403162, "trialdata": {"rt": -1, "stimulus": "<p id=\"stim\">ROOSTER</p>", "key_press": -1, "type": "PRES_VIS", "word": "rooster", "wordID": 1208, "conditions": [12, 800, "v", 12000], "trial": 4, "serialpos": 10, "trial_type": "single-stim", "trial_index": 179, "time_elapsed": 782467, "internal_node_id": "0.0-134.0"}}, {"uniqueid": "MTK0298:3AWETUDC93ZCPK8IHI128YNN3KXZI0", "current_trial": 180, "dateTime": 1510700404790, "trialdata": {"rt": -1, "stimulus": "<p id=\"stim\">GALLON</p>", "key_press": -1, "type": "PRES_VIS", "word": "gallon", "wordID": 617, "conditions": [12, 800, "v", 12000], "trial": 4, "serialpos": 11, "trial_type": "single-stim", "trial_index": 180, "time_elapsed": 784094, "internal_node_id": "0.0-135.0"}}, {"uniqueid": "MTK0298:3AWETUDC93ZCPK8IHI128YNN3KXZI0", "current_trial": 181, "dateTime": 1510700406868, "trialdata": {"rt": -1, "stimulus": "", "key_press": -1, "type": "PRE_RECALL_DELAY", "trial_type": "single-stim", "trial_index": 181, "time_elapsed": 786173, "internal_node_id": "0.0-136.0-0.0"}}, {"uniqueid": "MTK0298:3AWETUDC93ZCPK8IHI128YNN3KXZI0", "current_trial": 182, "dateTime": 1510700407375, "trialdata": {"rt": -1000, "stimulus": "/static/audio/400Hz.wav", "key_press": -1, "type": "PRE_RECALL_ALERT", "trial_type": "single-audio", "trial_index": 182, "time_elapsed": 786680, "internal_node_id": "0.0-137.0"}}, {"uniqueid": "MTK0298:3AWETUDC93ZCPK8IHI128YNN3KXZI0", "current_trial": 183, "dateTime": 1510700467384, "trialdata": {"rt": [5558, 6670, 8126, 10718, 12222, 16902], "recwords": ["rooster", "gallon", "primate", "wasp", "average", "cabbage"], "type": "FREE_RECALL", "conditions": [12, 800, "v", 12000], "trial": 4, "trial_type": "free-recall", "trial_index": 183, "time_elapsed": 846684, "internal_node_id": "0.0-138.0-0.0"}}, {"uniqueid": "MTK0298:3AWETUDC93ZCPK8IHI128YNN3KXZI0", "current_trial": 184, "dateTime": 1510700471784, "trialdata": {"rt": 2398, "key_press": 69, "type": "INSTRUCTIONS", "trial_type": "text", "trial_index": 184, "time_elapsed": 851089, "internal_node_id": "0.0-139.0"}}, {"uniqueid": "MTK0298:3AWETUDC93ZCPK8IHI128YNN3KXZI0", "current_trial": 185, "dateTime": 1510700485789, "trialdata": {"rt": [3083, 4538, 6931, 9155, 11947], "responses": ["21", "6", "15", "133", "9"], "num1": [5, 2, 4, 5, 2, 7], "num2": [9, 2, 8, 6, 5, 4], "num3": [7, 2, 3, 2, 2, 7], "type": "DISTRACTOR", "conditions": [12, 800, "a", 12000], "trial": 5, "trial_type": "math-distractor", "trial_index": 185, "time_elapsed": 865094, "internal_node_id": "0.0-140.0"}}, {"uniqueid": "MTK0298:3AWETUDC93ZCPK8IHI128YNN3KXZI0", "current_trial": 186, "dateTime": 1510700488790, "trialdata": {"rt": -1, "stimulus": "<p id=\"stim\">10</p>", "key_press": -1, "trial_type": "single-stim", "trial_index": 186, "time_elapsed": 868095, "internal_node_id": "0.0-141.0-0.0"}}, {"uniqueid": "MTK0298:3AWETUDC93ZCPK8IHI128YNN3KXZI0", "current_trial": 187, "dateTime": 1510700489792, "trialdata": {"rt": -1, "stimulus": "<p id=\"stim\">9</p>", "key_press": -1, "trial_type": "single-stim", "trial_index": 187, "time_elapsed": 869096, "internal_node_id": "0.0-141.0-1.0"}}, {"uniqueid": "MTK0298:3AWETUDC93ZCPK8IHI128YNN3KXZI0", "current_trial": 188, "dateTime": 1510700490793, "trialdata": {"rt": -1, "stimulus": "<p id=\"stim\">8</p>", "key_press": -1, "trial_type": "single-stim", "trial_index": 188, "time_elapsed": 870097, "internal_node_id": "0.0-141.0-2.0"}}, {"uniqueid": "MTK0298:3AWETUDC93ZCPK8IHI128YNN3KXZI0", "current_trial": 189, "dateTime": 1510700491794, "trialdata": {"rt": -1, "stimulus": "<p id=\"stim\">7</p>", "key_press": -1, "trial_type": "single-stim", "trial_index": 189, "time_elapsed": 871098, "internal_node_id": "0.0-141.0-3.0"}}, {"uniqueid": "MTK0298:3AWETUDC93ZCPK8IHI128YNN3KXZI0", "current_trial": 190, "dateTime": 1510700492795, "trialdata": {"rt": -1, "stimulus": "<p id=\"stim\">6</p>", "key_press": -1, "trial_type": "single-stim", "trial_index": 190, "time_elapsed": 872100, "internal_node_id": "0.0-141.0-4.0"}}, {"uniqueid": "MTK0298:3AWETUDC93ZCPK8IHI128YNN3KXZI0", "current_trial": 191, "dateTime": 1510700493797, "trialdata": {"rt": -1, "stimulus": "<p id=\"stim\">5</p>", "key_press": -1, "trial_type": "single-stim", "trial_index": 191, "time_elapsed": 873101, "internal_node_id": "0.0-141.0-5.0"}}, {"uniqueid": "MTK0298:3AWETUDC93ZCPK8IHI128YNN3KXZI0", "current_trial": 192, "dateTime": 1510700494799, "trialdata": {"rt": -1, "stimulus": "<p id=\"stim\">4</p>", "key_press": -1, "trial_type": "single-stim", "trial_index": 192, "time_elapsed": 874104, "internal_node_id": "0.0-141.0-6.0"}}, {"uniqueid": "MTK0298:3AWETUDC93ZCPK8IHI128YNN3KXZI0", "current_trial": 193, "dateTime": 1510700495800, "trialdata": {"rt": -1, "stimulus": "<p id=\"stim\">3</p>", "key_press": -1, "trial_type": "single-stim", "trial_index": 193, "time_elapsed": 875104, "internal_node_id": "0.0-141.0-7.0"}}, {"uniqueid": "MTK0298:3AWETUDC93ZCPK8IHI128YNN3KXZI0", "current_trial": 194, "dateTime": 1510700496801, "trialdata": {"rt": -1, "stimulus": "<p id=\"stim\">2</p>", "key_press": -1, "trial_type": "single-stim", "trial_index": 194, "time_elapsed": 876106, "internal_node_id": "0.0-141.0-8.0"}}, {"uniqueid": "MTK0298:3AWETUDC93ZCPK8IHI128YNN3KXZI0", "current_trial": 195, "dateTime": 1510700497802, "trialdata": {"rt": -1, "stimulus": "<p id=\"stim\">1</p>", "key_press": -1, "trial_type": "single-stim", "trial_index": 195, "time_elapsed": 877106, "internal_node_id": "0.0-141.0-9.0"}}, {"uniqueid": "MTK0298:3AWETUDC93ZCPK8IHI128YNN3KXZI0", "current_trial": 196, "dateTime": 1510700499304, "trialdata": {"rt": -1, "stimulus": "<p id=\"stim\">+</p>", "key_press": -1, "type": "FIXATION", "trial_type": "single-stim", "trial_index": 196, "time_elapsed": 878609, "internal_node_id": "0.0-142.0-0.0"}}, {"uniqueid": "MTK0298:3AWETUDC93ZCPK8IHI128YNN3KXZI0", "current_trial": 197, "dateTime": 1510700501229, "trialdata": {"rt": -1000, "stimulus": "/static/audio/wordpool/VELVET.wav", "key_press": -1, "type": "PRES_AUD", "word": "velvet", "wordID": 1554, "conditions": [12, 800, "a", 12000], "trial": 5, "serialpos": 0, "trial_type": "single-audio", "trial_index": 197, "time_elapsed": 880533, "internal_node_id": "0.0-143.0"}}, {"uniqueid": "MTK0298:3AWETUDC93ZCPK8IHI128YNN3KXZI0", "current_trial": 198, "dateTime": 1510700502941, "trialdata": {"rt": -1000, "stimulus": "/static/audio/wordpool/WAITRESS.wav", "key_press": -1, "type": "PRES_AUD", "word": "waitress", "wordID": 1580, "conditions": [12, 800, "a", 12000], "trial": 5, "serialpos": 1, "trial_type": "single-audio", "trial_index": 198, "time_elapsed": 882245, "internal_node_id": "0.0-144.0"}}, {"uniqueid": "MTK0298:3AWETUDC93ZCPK8IHI128YNN3KXZI0", "current_trial": 199, "dateTime": 1510700504805, "trialdata": {"rt": -1000, "stimulus": "/static/audio/wordpool/ULCER.wav", "key_press": -1, "type": "PRES_AUD", "word": "ulcer", "wordID": 1532, "conditions": [12, 800, "a", 12000], "trial": 5, "serialpos": 2, "trial_type": "single-audio", "trial_index": 199, "time_elapsed": 884110, "internal_node_id": "0.0-145.0"}}, {"uniqueid": "MTK0298:3AWETUDC93ZCPK8IHI128YNN3KXZI0", "current_trial": 200, "dateTime": 1510700506513, "trialdata": {"rt": -1000, "stimulus": "/static/audio/wordpool/RECORD.wav", "key_press": -1, "type": "PRES_AUD", "word": "record", "wordID": 1175, "conditions": [12, 800, "a", 12000], "trial": 5, "serialpos": 3, "trial_type": "single-audio", "trial_index": 200, "time_elapsed": 885818, "internal_node_id": "0.0-146.0"}}, {"uniqueid": "MTK0298:3AWETUDC93ZCPK8IHI128YNN3KXZI0", "current_trial": 201, "dateTime": 1510700508357, "trialdata": {"rt": -1000, "stimulus": "/static/audio/wordpool/SHELF.wav", "key_press": -1, "type": "PRES_AUD", "word": "shelf", "wordID": 1279, "conditions": [12, 800, "a", 12000], "trial": 5, "serialpos": 4, "trial_type": "single-audio", "trial_index": 201, "time_elapsed": 887662, "internal_node_id": "0.0-147.0"}}, {"uniqueid": "MTK0298:3AWETUDC93ZCPK8IHI128YNN3KXZI0", "current_trial": 202, "dateTime": 1510700510106, "trialdata": {"rt": -1000, "stimulus": "/static/audio/wordpool/BLOUSE.wav", "key_press": -1, "type": "PRES_AUD", "word": "blouse", "wordID": 138, "conditions": [12, 800, "a", 12000], "trial": 5, "serialpos": 5, "trial_type": "single-audio", "trial_index": 202, "time_elapsed": 889410, "internal_node_id": "0.0-148.0"}}, {"uniqueid": "MTK0298:3AWETUDC93ZCPK8IHI128YNN3KXZI0", "current_trial": 203, "dateTime": 1510700512079, "trialdata": {"rt": -1000, "stimulus": "/static/audio/wordpool/SUITCASE.wav", "key_press": -1, "type": "PRES_AUD", "word": "suitcase", "wordID": 1402, "conditions": [12, 800, "a", 12000], "trial": 5, "serialpos": 6, "trial_type": "single-audio", "trial_index": 203, "time_elapsed": 891384, "internal_node_id": "0.0-149.0"}}, {"uniqueid": "MTK0298:3AWETUDC93ZCPK8IHI128YNN3KXZI0", "current_trial": 204, "dateTime": 1510700514020, "trialdata": {"rt": -1000, "stimulus": "/static/audio/wordpool/DIVER.wav", "key_press": -1, "type": "PRES_AUD", "word": "diver", "wordID": 475, "conditions": [12, 800, "a", 12000], "trial": 5, "serialpos": 7, "trial_type": "single-audio", "trial_index": 204, "time_elapsed": 893324, "internal_node_id": "0.0-150.0"}}, {"uniqueid": "MTK0298:3AWETUDC93ZCPK8IHI128YNN3KXZI0", "current_trial": 205, "dateTime": 1510700515819, "trialdata": {"rt": -1000, "stimulus": "/static/audio/wordpool/SWIMMER.wav", "key_press": -1, "type": "PRES_AUD", "word": "swimmer", "wordID": 1419, "conditions": [12, 800, "a", 12000], "trial": 5, "serialpos": 8, "trial_type": "single-audio", "trial_index": 205, "time_elapsed": 895124, "internal_node_id": "0.0-151.0"}}, {"uniqueid": "MTK0298:3AWETUDC93ZCPK8IHI128YNN3KXZI0", "current_trial": 206, "dateTime": 1510700517467, "trialdata": {"rt": -1000, "stimulus": "/static/audio/wordpool/FLESH.wav", "key_press": -1, "type": "PRES_AUD", "word": "flesh", "wordID": 578, "conditions": [12, 800, "a", 12000], "trial": 5, "serialpos": 9, "trial_type": "single-audio", "trial_index": 206, "time_elapsed": 896772, "internal_node_id": "0.0-152.0"}}, {"uniqueid": "MTK0298:3AWETUDC93ZCPK8IHI128YNN3KXZI0", "current_trial": 207, "dateTime": 1510700519211, "trialdata": {"rt": -1000, "stimulus": "/static/audio/wordpool/CASHIER.wav", "key_press": -1, "type": "PRES_AUD", "word": "cashier", "wordID": 253, "conditions": [12, 800, "a", 12000], "trial": 5, "serialpos": 10, "trial_type": "single-audio", "trial_index": 207, "time_elapsed": 898515, "internal_node_id": "0.0-153.0"}}, {"uniqueid": "MTK0298:3AWETUDC93ZCPK8IHI128YNN3KXZI0", "current_trial": 208, "dateTime": 1510700520912, "trialdata": {"rt": -1000, "stimulus": "/static/audio/wordpool/GARLIC.wav", "key_press": -1, "type": "PRES_AUD", "word": "garlic", "wordID": 623, "conditions": [12, 800, "a", 12000], "trial": 5, "serialpos": 11, "trial_type": "single-audio", "trial_index": 208, "time_elapsed": 900216, "internal_node_id": "0.0-154.0"}}, {"uniqueid": "MTK0298:3AWETUDC93ZCPK8IHI128YNN3KXZI0", "current_trial": 209, "dateTime": 1510700522260, "trialdata": {"rt": -1, "stimulus": "", "key_press": -1, "type": "PRE_RECALL_DELAY", "trial_type": "single-stim", "trial_index": 209, "time_elapsed": 901565, "internal_node_id": "0.0-155.0-0.0"}}, {"uniqueid": "MTK0298:3AWETUDC93ZCPK8IHI128YNN3KXZI0", "current_trial": 210, "dateTime": 1510700522762, "trialdata": {"rt": -1000, "stimulus": "/static/audio/400Hz.wav", "key_press": -1, "type": "PRE_RECALL_ALERT", "trial_type": "single-audio", "trial_index": 210, "time_elapsed": 902067, "internal_node_id": "0.0-156.0"}}, {"uniqueid": "MTK0298:3AWETUDC93ZCPK8IHI128YNN3KXZI0", "current_trial": 211, "dateTime": 1510700582770, "trialdata": {"rt": [3188, 5564, 6988, 8372, 9476, 54476], "recwords": ["suitcase", "diver", "swimmer", "cashier", "garlic", ""], "type": "FREE_RECALL", "conditions": [12, 800, "a", 12000], "trial": 5, "trial_type": "free-recall", "trial_index": 211, "time_elapsed": 962069, "internal_node_id": "0.0-157.0-0.0"}}, {"uniqueid": "MTK0298:3AWETUDC93ZCPK8IHI128YNN3KXZI0", "current_trial": 212, "dateTime": 1510700586920, "trialdata": {"rt": 2149, "key_press": 81, "type": "INSTRUCTIONS", "trial_type": "text", "trial_index": 212, "time_elapsed": 966225, "internal_node_id": "0.0-158.0"}}, {"uniqueid": "MTK0298:3AWETUDC93ZCPK8IHI128YNN3KXZI0", "current_trial": 213, "dateTime": 1510700612923, "trialdata": {"rt": [3404, 5309, 7437, 12549, 14341, 16685, 18597, 21068, 23541], "responses": ["13", "16", "19", "14", "11", "13", "4", "10", "11"], "num1": [1, 6, 9, 3, 3, 3, 2, 3, 6, 2], "num2": [7, 3, 2, 3, 1, 6, 1, 2, 3, 6], "num3": [5, 7, 8, 8, 7, 4, 1, 5, 2, 8], "type": "DISTRACTOR", "conditions": [24, 1600, "a", 24000], "trial": 6, "trial_type": "math-distractor", "trial_index": 213, "time_elapsed": 992228, "internal_node_id": "0.0-159.0"}}, {"uniqueid": "MTK0298:3AWETUDC93ZCPK8IHI128YNN3KXZI0", "current_trial": 214, "dateTime": 1510700615926, "trialdata": {"rt": -1, "stimulus": "<p id=\"stim\">10</p>", "key_press": -1, "trial_type": "single-stim", "trial_index": 214, "time_elapsed": 995231, "internal_node_id": "0.0-160.0-0.0"}}, {"uniqueid": "MTK0298:3AWETUDC93ZCPK8IHI128YNN3KXZI0", "current_trial": 215, "dateTime": 1510700616928, "trialdata": {"rt": -1, "stimulus": "<p id=\"stim\">9</p>", "key_press": -1, "trial_type": "single-stim", "trial_index": 215, "time_elapsed": 996233, "internal_node_id": "0.0-160.0-1.0"}}, {"uniqueid": "MTK0298:3AWETUDC93ZCPK8IHI128YNN3KXZI0", "current_trial": 216, "dateTime": 1510700617930, "trialdata": {"rt": -1, "stimulus": "<p id=\"stim\">8</p>", "key_press": -1, "trial_type": "single-stim", "trial_index": 216, "time_elapsed": 997235, "internal_node_id": "0.0-160.0-2.0"}}, {"uniqueid": "MTK0298:3AWETUDC93ZCPK8IHI128YNN3KXZI0", "current_trial": 217, "dateTime": 1510700618931, "trialdata": {"rt": -1, "stimulus": "<p id=\"stim\">7</p>", "key_press": -1, "trial_type": "single-stim", "trial_index": 217, "time_elapsed": 998236, "internal_node_id": "0.0-160.0-3.0"}}, {"uniqueid": "MTK0298:3AWETUDC93ZCPK8IHI128YNN3KXZI0", "current_trial": 218, "dateTime": 1510700619932, "trialdata": {"rt": -1, "stimulus": "<p id=\"stim\">6</p>", "key_press": -1, "trial_type": "single-stim", "trial_index": 218, "time_elapsed": 999237, "internal_node_id": "0.0-160.0-4.0"}}, {"uniqueid": "MTK0298:3AWETUDC93ZCPK8IHI128YNN3KXZI0", "current_trial": 219, "dateTime": 1510700620933, "trialdata": {"rt": -1, "stimulus": "<p id=\"stim\">5</p>", "key_press": -1, "trial_type": "single-stim", "trial_index": 219, "time_elapsed": 1000238, "internal_node_id": "0.0-160.0-5.0"}}, {"uniqueid": "MTK0298:3AWETUDC93ZCPK8IHI128YNN3KXZI0", "current_trial": 220, "dateTime": 1510700621935, "trialdata": {"rt": -1, "stimulus": "<p id=\"stim\">4</p>", "key_press": -1, "trial_type": "single-stim", "trial_index": 220, "time_elapsed": 1001240, "internal_node_id": "0.0-160.0-6.0"}}, {"uniqueid": "MTK0298:3AWETUDC93ZCPK8IHI128YNN3KXZI0", "current_trial": 221, "dateTime": 1510700622937, "trialdata": {"rt": -1, "stimulus": "<p id=\"stim\">3</p>", "key_press": -1, "trial_type": "single-stim", "trial_index": 221, "time_elapsed": 1002242, "internal_node_id": "0.0-160.0-7.0"}}, {"uniqueid": "MTK0298:3AWETUDC93ZCPK8IHI128YNN3KXZI0", "current_trial": 222, "dateTime": 1510700623938, "trialdata": {"rt": -1, "stimulus": "<p id=\"stim\">2</p>", "key_press": -1, "trial_type": "single-stim", "trial_index": 222, "time_elapsed": 1003243, "internal_node_id": "0.0-160.0-8.0"}}, {"uniqueid": "MTK0298:3AWETUDC93ZCPK8IHI128YNN3KXZI0", "current_trial": 223, "dateTime": 1510700624939, "trialdata": {"rt": -1, "stimulus": "<p id=\"stim\">1</p>", "key_press": -1, "trial_type": "single-stim", "trial_index": 223, "time_elapsed": 1004244, "internal_node_id": "0.0-160.0-9.0"}}, {"uniqueid": "MTK0298:3AWETUDC93ZCPK8IHI128YNN3KXZI0", "current_trial": 224, "dateTime": 1510700626440, "trialdata": {"rt": -1, "stimulus": "<p id=\"stim\">+</p>", "key_press": -1, "type": "FIXATION", "trial_type": "single-stim", "trial_index": 224, "time_elapsed": 1005744, "internal_node_id": "0.0-161.0-0.0"}}, {"uniqueid": "MTK0298:3AWETUDC93ZCPK8IHI128YNN3KXZI0", "current_trial": 225, "dateTime": 1510700629065, "trialdata": {"rt": -1000, "stimulus": "/static/audio/wordpool/GIRL.wav", "key_press": -1, "type": "PRES_AUD", "word": "girl", "wordID": 636, "conditions": [24, 1600, "a", 24000], "trial": 6, "serialpos": 0, "trial_type": "single-audio", "trial_index": 225, "time_elapsed": 1008370, "internal_node_id": "0.0-162.0"}}, {"uniqueid": "MTK0298:3AWETUDC93ZCPK8IHI128YNN3KXZI0", "current_trial": 226, "dateTime": 1510700631874, "trialdata": {"rt": -1000, "stimulus": "/static/audio/wordpool/INFANT.wav", "key_press": -1, "type": "PRES_AUD", "word": "infant", "wordID": 736, "conditions": [24, 1600, "a", 24000], "trial": 6, "serialpos": 1, "trial_type": "single-audio", "trial_index": 226, "time_elapsed": 1011179, "internal_node_id": "0.0-163.0"}}, {"uniqueid": "MTK0298:3AWETUDC93ZCPK8IHI128YNN3KXZI0", "current_trial": 227, "dateTime": 1510700634546, "trialdata": {"rt": -1000, "stimulus": "/static/audio/wordpool/POSSUM.wav", "key_press": -1, "type": "PRES_AUD", "word": "possum", "wordID": 1111, "conditions": [24, 1600, "a", 24000], "trial": 6, "serialpos": 2, "trial_type": "single-audio", "trial_index": 227, "time_elapsed": 1013851, "internal_node_id": "0.0-164.0"}}, {"uniqueid": "MTK0298:3AWETUDC93ZCPK8IHI128YNN3KXZI0", "current_trial": 228, "dateTime": 1510700637126, "trialdata": {"rt": -1000, "stimulus": "/static/audio/wordpool/SKIRT.wav", "key_press": -1, "type": "PRES_AUD", "word": "skirt", "wordID": 1318, "conditions": [24, 1600, "a", 24000], "trial": 6, "serialpos": 3, "trial_type": "single-audio", "trial_index": 228, "time_elapsed": 1016429, "internal_node_id": "0.0-165.0"}}, {"uniqueid": "MTK0298:3AWETUDC93ZCPK8IHI128YNN3KXZI0", "current_trial": 229, "dateTime": 1510700639537, "trialdata": {"rt": -1000, "stimulus": "/static/audio/wordpool/PATIENT.wav", "key_press": -1, "type": "PRES_AUD", "word": "patient", "wordID": 1023, "conditions": [24, 1600, "a", 24000], "trial": 6, "serialpos": 4, "trial_type": "single-audio", "trial_index": 229, "time_elapsed": 1018841, "internal_node_id": "0.0-166.0"}}, {"uniqueid": "MTK0298:3AWETUDC93ZCPK8IHI128YNN3KXZI0", "current_trial": 230, "dateTime": 1510700642149, "trialdata": {"rt": -1000, "stimulus": "/static/audio/wordpool/BADGE.wav", "key_press": -1, "type": "PRES_AUD", "word": "badge", "wordID": 67, "conditions": [24, 1600, "a", 24000], "trial": 6, "serialpos": 5, "trial_type": "single-audio", "trial_index": 230, "time_elapsed": 1021454, "internal_node_id": "0.0-167.0"}}, {"uniqueid": "MTK0298:3AWETUDC93ZCPK8IHI128YNN3KXZI0", "current_trial": 231, "dateTime": 1510700644646, "trialdata": {"rt": -1000, "stimulus": "/static/audio/wordpool/POISON.wav", "key_press": -1, "type": "PRES_AUD", "word": "poison", "wordID": 1095, "conditions": [24, 1600, "a", 24000], "trial": 6, "serialpos": 6, "trial_type": "single-audio", "trial_index": 231, "time_elapsed": 1023950, "internal_node_id": "0.0-168.0"}}, {"uniqueid": "MTK0298:3AWETUDC93ZCPK8IHI128YNN3KXZI0", "current_trial": 232, "dateTime": 1510700647340, "trialdata": {"rt": -1000, "stimulus": "/static/audio/wordpool/ROBIN.wav", "key_press": -1, "type": "PRES_AUD", "word": "robin", "wordID": 1198, "conditions": [24, 1600, "a", 24000], "trial": 6, "serialpos": 7, "trial_type": "single-audio", "trial_index": 232, "time_elapsed": 1026644, "internal_node_id": "0.0-169.0"}}, {"uniqueid": "MTK0298:3AWETUDC93ZCPK8IHI128YNN3KXZI0", "current_trial": 233, "dateTime": 1510700649829, "trialdata": {"rt": -1000, "stimulus": "/static/audio/wordpool/CIGAR.wav", "key_press": -1, "type": "PRES_AUD", "word": "cigar", "wordID": 307, "conditions": [24, 1600, "a", 24000], "trial": 6, "serialpos": 8, "trial_type": "single-audio", "trial_index": 233, "time_elapsed": 1029133, "internal_node_id": "0.0-170.0"}}, {"uniqueid": "MTK0298:3AWETUDC93ZCPK8IHI128YNN3KXZI0", "current_trial": 234, "dateTime": 1510700652586, "trialdata": {"rt": -1000, "stimulus": "/static/audio/wordpool/TURKEY.wav", "key_press": -1, "type": "PRES_AUD", "word": "turkey", "wordID": 1519, "conditions": [24, 1600, "a", 24000], "trial": 6, "serialpos": 9, "trial_type": "single-audio", "trial_index": 234, "time_elapsed": 1031891, "internal_node_id": "0.0-171.0"}}, {"uniqueid": "MTK0298:3AWETUDC93ZCPK8IHI128YNN3KXZI0", "current_trial": 235, "dateTime": 1510700655060, "trialdata": {"rt": -1000, "stimulus": "/static/audio/wordpool/QUAIL.wav", "key_press": -1, "type": "PRES_AUD", "word": "quail", "wordID": 1146, "conditions": [24, 1600, "a", 24000], "trial": 6, "serialpos": 10, "trial_type": "single-audio", "trial_index": 235, "time_elapsed": 1034364, "internal_node_id": "0.0-172.0"}}, {"uniqueid": "MTK0298:3AWETUDC93ZCPK8IHI128YNN3KXZI0", "current_trial": 236, "dateTime": 1510700657760, "trialdata": {"rt": -1000, "stimulus": "/static/audio/wordpool/STICKER.wav", "key_press": -1, "type": "PRES_AUD", "word": "sticker", "wordID": 1381, "conditions": [24, 1600, "a", 24000], "trial": 6, "serialpos": 11, "trial_type": "single-audio", "trial_index": 236, "time_elapsed": 1037065, "internal_node_id": "0.0-173.0"}}, {"uniqueid": "MTK0298:3AWETUDC93ZCPK8IHI128YNN3KXZI0", "current_trial": 237, "dateTime": 1510700660355, "trialdata": {"rt": -1000, "stimulus": "/static/audio/wordpool/POET.wav", "key_press": -1, "type": "PRES_AUD", "word": "poet", "wordID": 1094, "conditions": [24, 1600, "a", 24000], "trial": 6, "serialpos": 12, "trial_type": "single-audio", "trial_index": 237, "time_elapsed": 1039660, "internal_node_id": "0.0-174.0"}}, {"uniqueid": "MTK0298:3AWETUDC93ZCPK8IHI128YNN3KXZI0", "current_trial": 238, "dateTime": 1510700662781, "trialdata": {"rt": -1000, "stimulus": "/static/audio/wordpool/DANCER.wav", "key_press": -1, "type": "PRES_AUD", "word": "dancer", "wordID": 436, "conditions": [24, 1600, "a", 24000], "trial": 6, "serialpos": 13, "trial_type": "single-audio", "trial_index": 238, "time_elapsed": 1042086, "internal_node_id": "0.0-175.0"}}, {"uniqueid": "MTK0298:3AWETUDC93ZCPK8IHI128YNN3KXZI0", "current_trial": 239, "dateTime": 1510700665206, "trialdata": {"rt": -1000, "stimulus": "/static/audio/wordpool/GYMNAST.wav", "key_press": -1, "type": "PRES_AUD", "word": "gymnast", "wordID": 674, "conditions": [24, 1600, "a", 24000], "trial": 6, "serialpos": 14, "trial_type": "single-audio", "trial_index": 239, "time_elapsed": 1044511, "internal_node_id": "0.0-176.0"}}, {"uniqueid": "MTK0298:3AWETUDC93ZCPK8IHI128YNN3KXZI0", "current_trial": 240, "dateTime": 1510700667906, "trialdata": {"rt": -1000, "stimulus": "/static/audio/wordpool/DUSTPAN.wav", "key_press": -1, "type": "PRES_AUD", "word": "dustpan", "wordID": 508, "conditions": [24, 1600, "a", 24000], "trial": 6, "serialpos": 15, "trial_type": "single-audio", "trial_index": 240, "time_elapsed": 1047211, "internal_node_id": "0.0-177.0"}}, {"uniqueid": "MTK0298:3AWETUDC93ZCPK8IHI128YNN3KXZI0", "current_trial": 241, "dateTime": 1510700670645, "trialdata": {"rt": -1000, "stimulus": "/static/audio/wordpool/PATROL.wav", "key_press": -1, "type": "PRES_AUD", "word": "patrol", "wordID": 1026, "conditions": [24, 1600, "a", 24000], "trial": 6, "serialpos": 16, "trial_type": "single-audio", "trial_index": 241, "time_elapsed": 1049950, "internal_node_id": "0.0-178.0"}}, {"uniqueid": "MTK0298:3AWETUDC93ZCPK8IHI128YNN3KXZI0", "current_trial": 242, "dateTime": 1510700673415, "trialdata": {"rt": -1000, "stimulus": "/static/audio/wordpool/CRUTCH.wav", "key_press": -1, "type": "PRES_AUD", "word": "crutch", "wordID": 416, "conditions": [24, 1600, "a", 24000], "trial": 6, "serialpos": 17, "trial_type": "single-audio", "trial_index": 242, "time_elapsed": 1052720, "internal_node_id": "0.0-179.0"}}, {"uniqueid": "MTK0298:3AWETUDC93ZCPK8IHI128YNN3KXZI0", "current_trial": 243, "dateTime": 1510700676181, "trialdata": {"rt": -1000, "stimulus": "/static/audio/wordpool/VIKING.wav", "key_press": -1, "type": "PRES_AUD", "word": "viking", "wordID": 1564, "conditions": [24, 1600, "a", 24000], "trial": 6, "serialpos": 18, "trial_type": "single-audio", "trial_index": 243, "time_elapsed": 1055486, "internal_node_id": "0.0-180.0"}}, {"uniqueid": "MTK0298:3AWETUDC93ZCPK8IHI128YNN3KXZI0", "current_trial": 244, "dateTime": 1510700678800, "trialdata": {"rt": -1000, "stimulus": "/static/audio/wordpool/VAGRANT.wav", "key_press": -1, "type": "PRES_AUD", "word": "vagrant", "wordID": 1543, "conditions": [24, 1600, "a", 24000], "trial": 6, "serialpos": 19, "trial_type": "single-audio", "trial_index": 244, "time_elapsed": 1058105, "internal_node_id": "0.0-181.0"}}, {"uniqueid": "MTK0298:3AWETUDC93ZCPK8IHI128YNN3KXZI0", "current_trial": 245, "dateTime": 1510700681398, "trialdata": {"rt": -1000, "stimulus": "/static/audio/wordpool/OINTMENT.wav", "key_press": -1, "type": "PRES_AUD", "word": "ointment", "wordID": 973, "conditions": [24, 1600, "a", 24000], "trial": 6, "serialpos": 20, "trial_type": "single-audio", "trial_index": 245, "time_elapsed": 1060703, "internal_node_id": "0.0-182.0"}}, {"uniqueid": "MTK0298:3AWETUDC93ZCPK8IHI128YNN3KXZI0", "current_trial": 246, "dateTime": 1510700683983, "trialdata": {"rt": -1000, "stimulus": "/static/audio/wordpool/HAND.wav", "key_press": -1, "type": "PRES_AUD", "word": "hand", "wordID": 682, "conditions": [24, 1600, "a", 24000], "trial": 6, "serialpos": 21, "trial_type": "single-audio", "trial_index": 246, "time_elapsed": 1063287, "internal_node_id": "0.0-183.0"}}, {"uniqueid": "MTK0298:3AWETUDC93ZCPK8IHI128YNN3KXZI0", "current_trial": 247, "dateTime": 1510700686567, "trialdata": {"rt": -1000, "stimulus": "/static/audio/wordpool/POLICE.wav", "key_press": -1, "type": "PRES_AUD", "word": "police", "wordID": 1097, "conditions": [24, 1600, "a", 24000], "trial": 6, "serialpos": 22, "trial_type": "single-audio", "trial_index": 247, "time_elapsed": 1065872, "internal_node_id": "0.0-184.0"}}, {"uniqueid": "MTK0298:3AWETUDC93ZCPK8IHI128YNN3KXZI0", "current_trial": 248, "dateTime": 1510700689043, "trialdata": {"rt": -1000, "stimulus": "/static/audio/wordpool/THREAD.wav", "key_press": -1, "type": "PRES_AUD", "word": "thread", "wordID": 1459, "conditions": [24, 1600, "a", 24000], "trial": 6, "serialpos": 23, "trial_type": "single-audio", "trial_index": 248, "time_elapsed": 1068348, "internal_node_id": "0.0-185.0"}}, {"uniqueid": "MTK0298:3AWETUDC93ZCPK8IHI128YNN3KXZI0", "current_trial": 249, "dateTime": 1510700690323, "trialdata": {"rt": -1, "stimulus": "", "key_press": -1, "type": "PRE_RECALL_DELAY", "trial_type": "single-stim", "trial_index": 249, "time_elapsed": 1069627, "internal_node_id": "0.0-186.0-0.0"}}, {"uniqueid": "MTK0298:3AWETUDC93ZCPK8IHI128YNN3KXZI0", "current_trial": 250, "dateTime": 1510700690825, "trialdata": {"rt": -1000, "stimulus": "/static/audio/400Hz.wav", "key_press": -1, "type": "PRE_RECALL_ALERT", "trial_type": "single-audio", "trial_index": 250, "time_elapsed": 1070130, "internal_node_id": "0.0-187.0"}}, {"uniqueid": "MTK0298:3AWETUDC93ZCPK8IHI128YNN3KXZI0", "current_trial": 251, "dateTime": 1510700750834, "trialdata": {"rt": [2708, 5660, 6916, 8395, 9748, 11324, 12812, 15244, 21956, 53964], "recwords": ["ointment", "police", "thread", "vagrant", "patient", "badge", "turkey", "quail", "viking", ""], "type": "FREE_RECALL", "conditions": [24, 1600, "a", 24000], "trial": 6, "trial_type": "free-recall", "trial_index": 251, "time_elapsed": 1130133, "internal_node_id": "0.0-188.0-0.0"}}, {"uniqueid": "MTK0298:3AWETUDC93ZCPK8IHI128YNN3KXZI0", "current_trial": 252, "dateTime": 1510700754376, "trialdata": {"rt": 1540, "key_press": 84, "type": "INSTRUCTIONS", "trial_type": "text", "trial_index": 252, "time_elapsed": 1133680, "internal_node_id": "0.0-189.0"}}, {"uniqueid": "MTK0298:3AWETUDC93ZCPK8IHI128YNN3KXZI0", "current_trial": 253, "dateTime": 1510700768380, "trialdata": {"rt": [2948, 5491, 7596], "responses": ["19", "11", "13"], "num1": [2, 2, 2, 6], "num2": [9, 5, 8, 8], "num3": [8, 4, 3, 6], "type": "DISTRACTOR", "conditions": [24, 800, "v", 12000], "trial": 7, "trial_type": "math-distractor", "trial_index": 253, "time_elapsed": 1147685, "internal_node_id": "0.0-190.0"}}, {"uniqueid": "MTK0298:3AWETUDC93ZCPK8IHI128YNN3KXZI0", "current_trial": 254, "dateTime": 1510700771382, "trialdata": {"rt": -1, "stimulus": "<p id=\"stim\">10</p>", "key_press": -1, "trial_type": "single-stim", "trial_index": 254, "time_elapsed": 1150687, "internal_node_id": "0.0-191.0-0.0"}}, {"uniqueid": "MTK0298:3AWETUDC93ZCPK8IHI128YNN3KXZI0", "current_trial": 255, "dateTime": 1510700772384, "trialdata": {"rt": -1, "stimulus": "<p id=\"stim\">9</p>", "key_press": -1, "trial_type": "single-stim", "trial_index": 255, "time_elapsed": 1151689, "internal_node_id": "0.0-191.0-1.0"}}, {"uniqueid": "MTK0298:3AWETUDC93ZCPK8IHI128YNN3KXZI0", "current_trial": 256, "dateTime": 1510700773385, "trialdata": {"rt": -1, "stimulus": "<p id=\"stim\">8</p>", "key_press": -1, "trial_type": "single-stim", "trial_index": 256, "time_elapsed": 1152690, "internal_node_id": "0.0-191.0-2.0"}}, {"uniqueid": "MTK0298:3AWETUDC93ZCPK8IHI128YNN3KXZI0", "current_trial": 257, "dateTime": 1510700774386, "trialdata": {"rt": -1, "stimulus": "<p id=\"stim\">7</p>", "key_press": -1, "trial_type": "single-stim", "trial_index": 257, "time_elapsed": 1153691, "internal_node_id": "0.0-191.0-3.0"}}, {"uniqueid": "MTK0298:3AWETUDC93ZCPK8IHI128YNN3KXZI0", "current_trial": 258, "dateTime": 1510700775387, "trialdata": {"rt": -1, "stimulus": "<p id=\"stim\">6</p>", "key_press": -1, "trial_type": "single-stim", "trial_index": 258, "time_elapsed": 1154692, "internal_node_id": "0.0-191.0-4.0"}}, {"uniqueid": "MTK0298:3AWETUDC93ZCPK8IHI128YNN3KXZI0", "current_trial": 259, "dateTime": 1510700776389, "trialdata": {"rt": -1, "stimulus": "<p id=\"stim\">5</p>", "key_press": -1, "trial_type": "single-stim", "trial_index": 259, "time_elapsed": 1155694, "internal_node_id": "0.0-191.0-5.0"}}, {"uniqueid": "MTK0298:3AWETUDC93ZCPK8IHI128YNN3KXZI0", "current_trial": 260, "dateTime": 1510700777390, "trialdata": {"rt": -1, "stimulus": "<p id=\"stim\">4</p>", "key_press": -1, "trial_type": "single-stim", "trial_index": 260, "time_elapsed": 1156695, "internal_node_id": "0.0-191.0-6.0"}}, {"uniqueid": "MTK0298:3AWETUDC93ZCPK8IHI128YNN3KXZI0", "current_trial": 261, "dateTime": 1510700778392, "trialdata": {"rt": -1, "stimulus": "<p id=\"stim\">3</p>", "key_press": -1, "trial_type": "single-stim", "trial_index": 261, "time_elapsed": 1157696, "internal_node_id": "0.0-191.0-7.0"}}, {"uniqueid": "MTK0298:3AWETUDC93ZCPK8IHI128YNN3KXZI0", "current_trial": 262, "dateTime": 1510700779394, "trialdata": {"rt": -1, "stimulus": "<p id=\"stim\">2</p>", "key_press": -1, "trial_type": "single-stim", "trial_index": 262, "time_elapsed": 1158699, "internal_node_id": "0.0-191.0-8.0"}}, {"uniqueid": "MTK0298:3AWETUDC93ZCPK8IHI128YNN3KXZI0", "current_trial": 263, "dateTime": 1510700780395, "trialdata": {"rt": -1, "stimulus": "<p id=\"stim\">1</p>", "key_press": -1, "trial_type": "single-stim", "trial_index": 263, "time_elapsed": 1159699, "internal_node_id": "0.0-191.0-9.0"}}, {"uniqueid": "MTK0298:3AWETUDC93ZCPK8IHI128YNN3KXZI0", "current_trial": 264, "dateTime": 1510700781896, "trialdata": {"rt": -1, "stimulus": "<p id=\"stim\">+</p>", "key_press": -1, "type": "FIXATION", "trial_type": "single-stim", "trial_index": 264, "time_elapsed": 1161201, "internal_node_id": "0.0-192.0-0.0"}}, {"uniqueid": "MTK0298:3AWETUDC93ZCPK8IHI128YNN3KXZI0", "current_trial": 265, "dateTime": 1510700782698, "trialdata": {"rt": -1, "stimulus": "<p id=\"stim\">EYELASH</p>", "key_press": -1, "type": "PRES_VIS", "word": "eyelash", "wordID": 545, "conditions": [24, 800, "v", 12000], "trial": 7, "serialpos": 0, "trial_type": "single-stim", "trial_index": 265, "time_elapsed": 1162003, "internal_node_id": "0.0-193.0"}}, {"uniqueid": "MTK0298:3AWETUDC93ZCPK8IHI128YNN3KXZI0", "current_trial": 266, "dateTime": 1510700784306, "trialdata": {"rt": -1, "stimulus": "<p id=\"stim\">DRAGON</p>", "key_press": -1, "type": "PRES_VIS", "word": "dragon", "wordID": 491, "conditions": [24, 800, "v", 12000], "trial": 7, "serialpos": 1, "trial_type": "single-stim", "trial_index": 266, "time_elapsed": 1163611, "internal_node_id": "0.0-194.0"}}, {"uniqueid": "MTK0298:3AWETUDC93ZCPK8IHI128YNN3KXZI0", "current_trial": 267, "dateTime": 1510700786011, "trialdata": {"rt": -1, "stimulus": "<p id=\"stim\">SOFTBALL</p>", "key_press": -1, "type": "PRES_VIS", "word": "softball", "wordID": 1342, "conditions": [24, 800, "v", 12000], "trial": 7, "serialpos": 2, "trial_type": "single-stim", "trial_index": 267, "time_elapsed": 1165316, "internal_node_id": "0.0-195.0"}}, {"uniqueid": "MTK0298:3AWETUDC93ZCPK8IHI128YNN3KXZI0", "current_trial": 268, "dateTime": 1510700787784, "trialdata": {"rt": -1, "stimulus": "<p id=\"stim\">WIFE</p>", "key_press": -1, "type": "PRES_VIS", "word": "wife", "wordID": 1608, "conditions": [24, 800, "v", 12000], "trial": 7, "serialpos": 3, "trial_type": "single-stim", "trial_index": 268, "time_elapsed": 1167089, "internal_node_id": "0.0-196.0"}}, {"uniqueid": "MTK0298:3AWETUDC93ZCPK8IHI128YNN3KXZI0", "current_trial": 269, "dateTime": 1510700789699, "trialdata": {"rt": -1, "stimulus": "<p id=\"stim\">FRECKLE</p>", "key_press": -1, "type": "PRES_VIS", "word": "freckle", "wordID": 601, "conditions": [24, 800, "v", 12000], "trial": 7, "serialpos": 4, "trial_type": "single-stim", "trial_index": 269, "time_elapsed": 1169004, "internal_node_id": "0.0-197.0"}}, {"uniqueid": "MTK0298:3AWETUDC93ZCPK8IHI128YNN3KXZI0", "current_trial": 270, "dateTime": 1510700791375, "trialdata": {"rt": -1, "stimulus": "<p id=\"stim\">SCRIBBLE</p>", "key_press": -1, "type": "PRES_VIS", "word": "scribble", "wordID": 1255, "conditions": [24, 800, "v", 12000], "trial": 7, "serialpos": 5, "trial_type": "single-stim", "trial_index": 270, "time_elapsed": 1170679, "internal_node_id": "0.0-198.0"}}, {"uniqueid": "MTK0298:3AWETUDC93ZCPK8IHI128YNN3KXZI0", "current_trial": 271, "dateTime": 1510700793218, "trialdata": {"rt": -1, "stimulus": "<p id=\"stim\">SPOON</p>", "key_press": -1, "type": "PRES_VIS", "word": "spoon", "wordID": 1356, "conditions": [24, 800, "v", 12000], "trial": 7, "serialpos": 6, "trial_type": "single-stim", "trial_index": 271, "time_elapsed": 1172523, "internal_node_id": "0.0-199.0"}}, {"uniqueid": "MTK0298:3AWETUDC93ZCPK8IHI128YNN3KXZI0", "current_trial"