{"condition": 0, "counterbalance": 625, "assignmentId": "384PI804XT84HD5OI0IO61QOTMN0ST", "workerId": "MTK0045", "hitId": "3S1WOPCJFG08MG3YDB3NA55LEPNJE3", "currenttrial": 625, "bonus": 0, "data": [{"uniqueid": "MTK0045:384PI804XT84HD5OI0IO61QOTMN0ST", "current_trial": 0, "dateTime": 1509049538486, "trialdata": {"rt": 2238, "key_press": 32, "type": "INSTRUCTIONS", "trial_type": "text", "trial_index": 0, "time_elapsed": 2253, "internal_node_id": "0.0-0.0"}}, {"uniqueid": "MTK0045:384PI804XT84HD5OI0IO61QOTMN0ST", "current_trial": 1, "dateTime": 1509049851888, "trialdata": {"rt": 313396, "key_press": 32, "type": "INSTRUCTIONS", "trial_type": "text", "trial_index": 1, "time_elapsed": 315664, "internal_node_id": "0.0-1.0"}}, {"uniqueid": "MTK0045:384PI804XT84HD5OI0IO61QOTMN0ST", "current_trial": 2, "dateTime": 1509049866806, "trialdata": {"rt": [14894], "responses": ["ocean"], "type": "AUDIO_TEST", "trial_type": "audio-test", "trial_index": 2, "time_elapsed": 330582, "internal_node_id": "0.0-2.0"}}, {"uniqueid": "MTK0045:384PI804XT84HD5OI0IO61QOTMN0ST", "current_trial": 3, "dateTime": 1509049878569, "trialdata": {"rt": [11751], "responses": ["crystal"], "type": "AUDIO_TEST", "trial_type": "audio-test", "trial_index": 3, "time_elapsed": 342345, "internal_node_id": "0.0-3.0"}}, {"uniqueid": "MTK0045:384PI804XT84HD5OI0IO61QOTMN0ST", "current_trial": 4, "dateTime": 1509049887146, "trialdata": {"rt": [8564], "responses": ["spice"], "type": "AUDIO_TEST", "trial_type": "audio-test", "trial_index": 4, "time_elapsed": 350922, "internal_node_id": "0.0-4.0"}}, {"uniqueid": "MTK0045:384PI804XT84HD5OI0IO61QOTMN0ST", "current_trial": 5, "dateTime": 1509049893218, "trialdata": {"rt": 5319, "key_press": 32, "type": "INSTRUCTIONS", "trial_type": "text", "trial_index": 5, "time_elapsed": 356994, "internal_node_id": "0.0-5.0"}}, {"uniqueid": "MTK0045:384PI804XT84HD5OI0IO61QOTMN0ST", "current_trial": 6, "dateTime": 1509050009724, "trialdata": {"rt": 116501, "key_press": 32, "type": "INSTRUCTIONS", "trial_type": "text", "trial_index": 6, "time_elapsed": 473499, "internal_node_id": "0.0-6.0"}}, {"uniqueid": "MTK0045:384PI804XT84HD5OI0IO61QOTMN0ST", "current_trial": 7, "dateTime": 1509050024889, "trialdata": {"rt": 15160, "key_press": 32, "type": "INSTRUCTIONS", "trial_type": "text", "trial_index": 7, "time_elapsed": 488664, "internal_node_id": "0.0-7.0"}}, {"uniqueid": "MTK0045:384PI804XT84HD5OI0IO61QOTMN0ST", "current_trial": 8, "dateTime": 1509050035092, "trialdata": {"rt": 10197, "key_press": 32, "type": "INSTRUCTIONS", "trial_type": "text", "trial_index": 8, "time_elapsed": 498868, "internal_node_id": "0.0-8.0"}}, {"uniqueid": "MTK0045:384PI804XT84HD5OI0IO61QOTMN0ST", "current_trial": 9, "dateTime": 1509050054132, "trialdata": {"rt": [4490, 8157, 12595, 16672], "responses": ["18", "16", "14", "16"], "num1": [1, 5, 2, 4, 3], "num2": [9, 7, 9, 7, 3], "num3": [8, 4, 3, 5, 8], "type": "DISTRACTOR", "conditions": [18, 1200, "a", 18000], "trial": 0, "trial_type": "math-distractor", "trial_index": 9, "time_elapsed": 517907, "internal_node_id": "0.0-9.0"}}, {"uniqueid": "MTK0045:384PI804XT84HD5OI0IO61QOTMN0ST", "current_trial": 10, "dateTime": 1509050057148, "trialdata": {"rt": -1, "stimulus": "<p id=\"stim\">10</p>", "key_press": -1, "trial_type": "single-stim", "trial_index": 10, "time_elapsed": 520923, "internal_node_id": "0.0-10.0-0.0"}}, {"uniqueid": "MTK0045:384PI804XT84HD5OI0IO61QOTMN0ST", "current_trial": 11, "dateTime": 1509050058160, "trialdata": {"rt": -1, "stimulus": "<p id=\"stim\">9</p>", "key_press": -1, "trial_type": "single-stim", "trial_index": 11, "time_elapsed": 521936, "internal_node_id": "0.0-10.0-1.0"}}, {"uniqueid": "MTK0045:384PI804XT84HD5OI0IO61QOTMN0ST", "current_trial": 12, "dateTime": 1509050059172, "trialdata": {"rt": -1, "stimulus": "<p id=\"stim\">8</p>", "key_press": -1, "trial_type": "single-stim", "trial_index": 12, "time_elapsed": 522948, "internal_node_id": "0.0-10.0-2.0"}}, {"uniqueid": "MTK0045:384PI804XT84HD5OI0IO61QOTMN0ST", "current_trial": 13, "dateTime": 1509050060179, "trialdata": {"rt": -1, "stimulus": "<p id=\"stim\">7</p>", "key_press": -1, "trial_type": "single-stim", "trial_index": 13, "time_elapsed": 523954, "internal_node_id": "0.0-10.0-3.0"}}, {"uniqueid": "MTK0045:384PI804XT84HD5OI0IO61QOTMN0ST", "current_trial": 14, "dateTime": 1509050061183, "trialdata": {"rt": -1, "stimulus": "<p id=\"stim\">6</p>", "key_press": -1, "trial_type": "single-stim", "trial_index": 14, "time_elapsed": 524958, "internal_node_id": "0.0-10.0-4.0"}}, {"uniqueid": "MTK0045:384PI804XT84HD5OI0IO61QOTMN0ST", "current_trial": 15, "dateTime": 1509050062194, "trialdata": {"rt": -1, "stimulus": "<p id=\"stim\">5</p>", "key_press": -1, "trial_type": "single-stim", "trial_index": 15, "time_elapsed": 525969, "internal_node_id": "0.0-10.0-5.0"}}, {"uniqueid": "MTK0045:384PI804XT84HD5OI0IO61QOTMN0ST", "current_trial": 16, "dateTime": 1509050063200, "trialdata": {"rt": -1, "stimulus": "<p id=\"stim\">4</p>", "key_press": -1, "trial_type": "single-stim", "trial_index": 16, "time_elapsed": 526975, "internal_node_id": "0.0-10.0-6.0"}}, {"uniqueid": "MTK0045:384PI804XT84HD5OI0IO61QOTMN0ST", "current_trial": 17, "dateTime": 1509050064204, "trialdata": {"rt": -1, "stimulus": "<p id=\"stim\">3</p>", "key_press": -1, "trial_type": "single-stim", "trial_index": 17, "time_elapsed": 527979, "internal_node_id": "0.0-10.0-7.0"}}, {"uniqueid": "MTK0045:384PI804XT84HD5OI0IO61QOTMN0ST", "current_trial": 18, "dateTime": 1509050065209, "trialdata": {"rt": -1, "stimulus": "<p id=\"stim\">2</p>", "key_press": -1, "trial_type": "single-stim", "trial_index": 18, "time_elapsed": 528985, "internal_node_id": "0.0-10.0-8.0"}}, {"uniqueid": "MTK0045:384PI804XT84HD5OI0IO61QOTMN0ST", "current_trial": 19, "dateTime": 1509050066215, "trialdata": {"rt": -1, "stimulus": "<p id=\"stim\">1</p>", "key_press": -1, "trial_type": "single-stim", "trial_index": 19, "time_elapsed": 529990, "internal_node_id": "0.0-10.0-9.0"}}, {"uniqueid": "MTK0045:384PI804XT84HD5OI0IO61QOTMN0ST", "current_trial": 20, "dateTime": 1509050067722, "trialdata": {"rt": -1, "stimulus": "<p id=\"stim\">+</p>", "key_press": -1, "type": "FIXATION", "trial_type": "single-stim", "trial_index": 20, "time_elapsed": 531497, "internal_node_id": "0.0-11.0-0.0"}}, {"uniqueid": "MTK0045:384PI804XT84HD5OI0IO61QOTMN0ST", "current_trial": 21, "dateTime": 1509050069936, "trialdata": {"rt": -1000, "stimulus": "/static/audio/wordpool/PEBBLE.wav", "key_press": -1, "type": "PRES_AUD", "word": "pebble", "wordID": 1034, "conditions": [18, 1200, "a", 18000], "trial": 0, "serialpos": 0, "trial_type": "single-audio", "trial_index": 21, "time_elapsed": 533711, "internal_node_id": "0.0-12.0"}}, {"uniqueid": "MTK0045:384PI804XT84HD5OI0IO61QOTMN0ST", "current_trial": 22, "dateTime": 1509050072062, "trialdata": {"rt": -1000, "stimulus": "/static/audio/wordpool/SLIME.wav", "key_press": -1, "type": "PRES_AUD", "word": "slime", "wordID": 1326, "conditions": [18, 1200, "a", 18000], "trial": 0, "serialpos": 1, "trial_type": "single-audio", "trial_index": 22, "time_elapsed": 535838, "internal_node_id": "0.0-13.0"}}, {"uniqueid": "MTK0045:384PI804XT84HD5OI0IO61QOTMN0ST", "current_trial": 23, "dateTime": 1509050074396, "trialdata": {"rt": -1000, "stimulus": "/static/audio/wordpool/SEAGULL.wav", "key_press": -1, "type": "PRES_AUD", "word": "seagull", "wordID": 1260, "conditions": [18, 1200, "a", 18000], "trial": 0, "serialpos": 2, "trial_type": "single-audio", "trial_index": 23, "time_elapsed": 538171, "internal_node_id": "0.0-14.0"}}, {"uniqueid": "MTK0045:384PI804XT84HD5OI0IO61QOTMN0ST", "current_trial": 24, "dateTime": 1509050076555, "trialdata": {"rt": -1000, "stimulus": "/static/audio/wordpool/FOX.wav", "key_press": -1, "type": "PRES_AUD", "word": "fox", "wordID": 597, "conditions": [18, 1200, "a", 18000], "trial": 0, "serialpos": 3, "trial_type": "single-audio", "trial_index": 24, "time_elapsed": 540331, "internal_node_id": "0.0-15.0"}}, {"uniqueid": "MTK0045:384PI804XT84HD5OI0IO61QOTMN0ST", "current_trial": 25, "dateTime": 1509050078704, "trialdata": {"rt": -1000, "stimulus": "/static/audio/wordpool/TOASTER.wav", "key_press": -1, "type": "PRES_AUD", "word": "toaster", "wordID": 1471, "conditions": [18, 1200, "a", 18000], "trial": 0, "serialpos": 4, "trial_type": "single-audio", "trial_index": 25, "time_elapsed": 542479, "internal_node_id": "0.0-16.0"}}, {"uniqueid": "MTK0045:384PI804XT84HD5OI0IO61QOTMN0ST", "current_trial": 26, "dateTime": 1509050080904, "trialdata": {"rt": -1000, "stimulus": "/static/audio/wordpool/BUGGY.wav", "key_press": -1, "type": "PRES_AUD", "word": "buggy", "wordID": 187, "conditions": [18, 1200, "a", 18000], "trial": 0, "serialpos": 5, "trial_type": "single-audio", "trial_index": 26, "time_elapsed": 544679, "internal_node_id": "0.0-17.0"}}, {"uniqueid": "MTK0045:384PI804XT84HD5OI0IO61QOTMN0ST", "current_trial": 27, "dateTime": 1509050082995, "trialdata": {"rt": -1000, "stimulus": "/static/audio/wordpool/COLLEGE.wav", "key_press": -1, "type": "PRES_AUD", "word": "college", "wordID": 345, "conditions": [18, 1200, "a", 18000], "trial": 0, "serialpos": 6, "trial_type": "single-audio", "trial_index": 27, "time_elapsed": 546771, "internal_node_id": "0.0-18.0"}}, {"uniqueid": "MTK0045:384PI804XT84HD5OI0IO61QOTMN0ST", "current_trial": 28, "dateTime": 1509050085190, "trialdata": {"rt": -1000, "stimulus": "/static/audio/wordpool/THREAD.wav", "key_press": -1, "type": "PRES_AUD", "word": "thread", "wordID": 1459, "conditions": [18, 1200, "a", 18000], "trial": 0, "serialpos": 7, "trial_type": "single-audio", "trial_index": 28, "time_elapsed": 548966, "internal_node_id": "0.0-19.0"}}, {"uniqueid": "MTK0045:384PI804XT84HD5OI0IO61QOTMN0ST", "current_trial": 29, "dateTime": 1509050087311, "trialdata": {"rt": -1000, "stimulus": "/static/audio/wordpool/SALMON.wav", "key_press": -1, "type": "PRES_AUD", "word": "salmon", "wordID": 1226, "conditions": [18, 1200, "a", 18000], "trial": 0, "serialpos": 8, "trial_type": "single-audio", "trial_index": 29, "time_elapsed": 551084, "internal_node_id": "0.0-20.0"}}, {"uniqueid": "MTK0045:384PI804XT84HD5OI0IO61QOTMN0ST", "current_trial": 30, "dateTime": 1509050089556, "trialdata": {"rt": -1000, "stimulus": "/static/audio/wordpool/COCKTAIL.wav", "key_press": -1, "type": "PRES_AUD", "word": "cocktail", "wordID": 337, "conditions": [18, 1200, "a", 18000], "trial": 0, "serialpos": 9, "trial_type": "single-audio", "trial_index": 30, "time_elapsed": 553332, "internal_node_id": "0.0-21.0"}}, {"uniqueid": "MTK0045:384PI804XT84HD5OI0IO61QOTMN0ST", "current_trial": 31, "dateTime": 1509050091874, "trialdata": {"rt": -1000, "stimulus": "/static/audio/wordpool/SWITCH.wav", "key_press": -1, "type": "PRES_AUD", "word": "switch", "wordID": 1421, "conditions": [18, 1200, "a", 18000], "trial": 0, "serialpos": 10, "trial_type": "single-audio", "trial_index": 31, "time_elapsed": 555650, "internal_node_id": "0.0-22.0"}}, {"uniqueid": "MTK0045:384PI804XT84HD5OI0IO61QOTMN0ST", "current_trial": 32, "dateTime": 1509050094171, "trialdata": {"rt": -1000, "stimulus": "/static/audio/wordpool/LAVA.wav", "key_press": -1, "type": "PRES_AUD", "word": "lava", "wordID": 803, "conditions": [18, 1200, "a", 18000], "trial": 0, "serialpos": 11, "trial_type": "single-audio", "trial_index": 32, "time_elapsed": 557947, "internal_node_id": "0.0-23.0"}}, {"uniqueid": "MTK0045:384PI804XT84HD5OI0IO61QOTMN0ST", "current_trial": 33, "dateTime": 1509050096505, "trialdata": {"rt": -1000, "stimulus": "/static/audio/wordpool/COUCH.wav", "key_press": -1, "type": "PRES_AUD", "word": "couch", "wordID": 385, "conditions": [18, 1200, "a", 18000], "trial": 0, "serialpos": 12, "trial_type": "single-audio", "trial_index": 33, "time_elapsed": 560281, "internal_node_id": "0.0-24.0"}}, {"uniqueid": "MTK0045:384PI804XT84HD5OI0IO61QOTMN0ST", "current_trial": 34, "dateTime": 1509050098692, "trialdata": {"rt": -1000, "stimulus": "/static/audio/wordpool/BUCKET.wav", "key_press": -1, "type": "PRES_AUD", "word": "bucket", "wordID": 183, "conditions": [18, 1200, "a", 18000], "trial": 0, "serialpos": 13, "trial_type": "single-audio", "trial_index": 34, "time_elapsed": 562467, "internal_node_id": "0.0-25.0"}}, {"uniqueid": "MTK0045:384PI804XT84HD5OI0IO61QOTMN0ST", "current_trial": 35, "dateTime": 1509050100921, "trialdata": {"rt": -1000, "stimulus": "/static/audio/wordpool/GARDEN.wav", "key_press": -1, "type": "PRES_AUD", "word": "garden", "wordID": 622, "conditions": [18, 1200, "a", 18000], "trial": 0, "serialpos": 14, "trial_type": "single-audio", "trial_index": 35, "time_elapsed": 564694, "internal_node_id": "0.0-26.0"}}, {"uniqueid": "MTK0045:384PI804XT84HD5OI0IO61QOTMN0ST", "current_trial": 36, "dateTime": 1509050103092, "trialdata": {"rt": -1000, "stimulus": "/static/audio/wordpool/SIDEWALK.wav", "key_press": -1, "type": "PRES_AUD", "word": "sidewalk", "wordID": 1302, "conditions": [18, 1200, "a", 18000], "trial": 0, "serialpos": 15, "trial_type": "single-audio", "trial_index": 36, "time_elapsed": 566868, "internal_node_id": "0.0-27.0"}}, {"uniqueid": "MTK0045:384PI804XT84HD5OI0IO61QOTMN0ST", "current_trial": 37, "dateTime": 1509050105227, "trialdata": {"rt": -1000, "stimulus": "/static/audio/wordpool/RAFT.wav", "key_press": -1, "type": "PRES_AUD", "word": "raft", "wordID": 1158, "conditions": [18, 1200, "a", 18000], "trial": 0, "serialpos": 16, "trial_type": "single-audio", "trial_index": 37, "time_elapsed": 569003, "internal_node_id": "0.0-28.0"}}, {"uniqueid": "MTK0045:384PI804XT84HD5OI0IO61QOTMN0ST", "current_trial": 38, "dateTime": 1509050107435, "trialdata": {"rt": -1000, "stimulus": "/static/audio/wordpool/SHOVEL.wav", "key_press": -1, "type": "PRES_AUD", "word": "shovel", "wordID": 1294, "conditions": [18, 1200, "a", 18000], "trial": 0, "serialpos": 17, "trial_type": "single-audio", "trial_index": 38, "time_elapsed": 571211, "internal_node_id": "0.0-29.0"}}, {"uniqueid": "MTK0045:384PI804XT84HD5OI0IO61QOTMN0ST", "current_trial": 39, "dateTime": 1509050108652, "trialdata": {"rt": -1, "stimulus": "", "key_press": -1, "type": "PRE_RECALL_DELAY", "trial_type": "single-stim", "trial_index": 39, "time_elapsed": 572428, "internal_node_id": "0.0-30.0-0.0"}}, {"uniqueid": "MTK0045:384PI804XT84HD5OI0IO61QOTMN0ST", "current_trial": 40, "dateTime": 1509050109156, "trialdata": {"rt": -1000, "stimulus": "/static/audio/400Hz.wav", "key_press": -1, "type": "PRE_RECALL_ALERT", "trial_type": "single-audio", "trial_index": 40, "time_elapsed": 572932, "internal_node_id": "0.0-31.0"}}, {"uniqueid": "MTK0045:384PI804XT84HD5OI0IO61QOTMN0ST", "current_trial": 41, "dateTime": 1509050169177, "trialdata": {"rt": [7469, 14653, 20235, 24935, 30116, 35507, 39315, 43504, 49665, 53410], "recwords": ["shovel", "cocktail", "sidewalk", "couch", "switch", "salmon", "bug", "fox", "garden", "sidewalk"], "type": "FREE_RECALL", "conditions": [18, 1200, "a", 18000], "trial": 0, "trial_type": "free-recall", "trial_index": 41, "time_elapsed": 632952, "internal_node_id": "0.0-32.0-0.0"}}, {"uniqueid": "MTK0045:384PI804XT84HD5OI0IO61QOTMN0ST", "current_trial": 42, "dateTime": 1509050173799, "trialdata": {"rt": 2617, "key_press": 78, "type": "INSTRUCTIONS", "trial_type": "text", "trial_index": 42, "time_elapsed": 637575, "internal_node_id": "0.0-33.0"}}, {"uniqueid": "MTK0045:384PI804XT84HD5OI0IO61QOTMN0ST", "current_trial": 43, "dateTime": 1509050193813, "trialdata": {"rt": [2656, 5337, 7941, 10740, 12955, 14841, 17304], "responses": ["11", "13", "10", "17", "20", "7", "6"], "num1": [3, 3, 5, 3, 9, 3, 1, 7], "num2": [3, 9, 3, 8, 9, 1, 4, 7], "num3": [5, 1, 2, 6, 2, 3, 1, 7], "type": "DISTRACTOR", "conditions": [18, 1200, "v", 18000], "trial": 1, "trial_type": "math-distractor", "trial_index": 43, "time_elapsed": 657588, "internal_node_id": "0.0-34.0"}}, {"uniqueid": "MTK0045:384PI804XT84HD5OI0IO61QOTMN0ST", "current_trial": 44, "dateTime": 1509050196822, "trialdata": {"rt": -1, "stimulus": "<p id=\"stim\">10</p>", "key_press": -1, "trial_type": "single-stim", "trial_index": 44, "time_elapsed": 660598, "internal_node_id": "0.0-35.0-0.0"}}, {"uniqueid": "MTK0045:384PI804XT84HD5OI0IO61QOTMN0ST", "current_trial": 45, "dateTime": 1509050197828, "trialdata": {"rt": -1, "stimulus": "<p id=\"stim\">9</p>", "key_press": -1, "trial_type": "single-stim", "trial_index": 45, "time_elapsed": 661603, "internal_node_id": "0.0-35.0-1.0"}}, {"uniqueid": "MTK0045:384PI804XT84HD5OI0IO61QOTMN0ST", "current_trial": 46, "dateTime": 1509050198834, "trialdata": {"rt": -1, "stimulus": "<p id=\"stim\">8</p>", "key_press": -1, "trial_type": "single-stim", "trial_index": 46, "time_elapsed": 662609, "internal_node_id": "0.0-35.0-2.0"}}, {"uniqueid": "MTK0045:384PI804XT84HD5OI0IO61QOTMN0ST", "current_trial": 47, "dateTime": 1509050199840, "trialdata": {"rt": -1, "stimulus": "<p id=\"stim\">7</p>", "key_press": -1, "trial_type": "single-stim", "trial_index": 47, "time_elapsed": 663615, "internal_node_id": "0.0-35.0-3.0"}}, {"uniqueid": "MTK0045:384PI804XT84HD5OI0IO61QOTMN0ST", "current_trial": 48, "dateTime": 1509050200846, "trialdata": {"rt": -1, "stimulus": "<p id=\"stim\">6</p>", "key_press": -1, "trial_type": "single-stim", "trial_index": 48, "time_elapsed": 664621, "internal_node_id": "0.0-35.0-4.0"}}, {"uniqueid": "MTK0045:384PI804XT84HD5OI0IO61QOTMN0ST", "current_trial": 49, "dateTime": 1509050201852, "trialdata": {"rt": -1, "stimulus": "<p id=\"stim\">5</p>", "key_press": -1, "trial_type": "single-stim", "trial_index": 49, "time_elapsed": 665627, "internal_node_id": "0.0-35.0-5.0"}}, {"uniqueid": "MTK0045:384PI804XT84HD5OI0IO61QOTMN0ST", "current_trial": 50, "dateTime": 1509050202858, "trialdata": {"rt": -1, "stimulus": "<p id=\"stim\">4</p>", "key_press": -1, "trial_type": "single-stim", "trial_index": 50, "time_elapsed": 666633, "internal_node_id": "0.0-35.0-6.0"}}, {"uniqueid": "MTK0045:384PI804XT84HD5OI0IO61QOTMN0ST", "current_trial": 51, "dateTime": 1509050203867, "trialdata": {"rt": -1, "stimulus": "<p id=\"stim\">3</p>", "key_press": -1, "trial_type": "single-stim", "trial_index": 51, "time_elapsed": 667642, "internal_node_id": "0.0-35.0-7.0"}}, {"uniqueid": "MTK0045:384PI804XT84HD5OI0IO61QOTMN0ST", "current_trial": 52, "dateTime": 1509050204874, "trialdata": {"rt": -1, "stimulus": "<p id=\"stim\">2</p>", "key_press": -1, "trial_type": "single-stim", "trial_index": 52, "time_elapsed": 668650, "internal_node_id": "0.0-35.0-8.0"}}, {"uniqueid": "MTK0045:384PI804XT84HD5OI0IO61QOTMN0ST", "current_trial": 53, "dateTime": 1509050205881, "trialdata": {"rt": -1, "stimulus": "<p id=\"stim\">1</p>", "key_press": -1, "trial_type": "single-stim", "trial_index": 53, "time_elapsed": 669656, "internal_node_id": "0.0-35.0-9.0"}}, {"uniqueid": "MTK0045:384PI804XT84HD5OI0IO61QOTMN0ST", "current_trial": 54, "dateTime": 1509050207387, "trialdata": {"rt": -1, "stimulus": "<p id=\"stim\">+</p>", "key_press": -1, "type": "FIXATION", "trial_type": "single-stim", "trial_index": 54, "time_elapsed": 671162, "internal_node_id": "0.0-36.0-0.0"}}, {"uniqueid": "MTK0045:384PI804XT84HD5OI0IO61QOTMN0ST", "current_trial": 55, "dateTime": 1509050208592, "trialdata": {"rt": -1, "stimulus": "<p id=\"stim\">FRAGRANCE</p>", "key_press": -1, "type": "PRES_VIS", "word": "fragrance", "wordID": 598, "conditions": [18, 1200, "v", 18000], "trial": 1, "serialpos": 0, "trial_type": "single-stim", "trial_index": 55, "time_elapsed": 672368, "internal_node_id": "0.0-37.0"}}, {"uniqueid": "MTK0045:384PI804XT84HD5OI0IO61QOTMN0ST", "current_trial": 56, "dateTime": 1509050210656, "trialdata": {"rt": -1, "stimulus": "<p id=\"stim\">MOTEL</p>", "key_press": -1, "type": "PRES_VIS", "word": "motel", "wordID": 918, "conditions": [18, 1200, "v", 18000], "trial": 1, "serialpos": 1, "trial_type": "single-stim", "trial_index": 56, "time_elapsed": 674431, "internal_node_id": "0.0-38.0"}}, {"uniqueid": "MTK0045:384PI804XT84HD5OI0IO61QOTMN0ST", "current_trial": 57, "dateTime": 1509050212806, "trialdata": {"rt": -1, "stimulus": "<p id=\"stim\">TROUT</p>", "key_press": -1, "type": "PRES_VIS", "word": "trout", "wordID": 1510, "conditions": [18, 1200, "v", 18000], "trial": 1, "serialpos": 2, "trial_type": "single-stim", "trial_index": 57, "time_elapsed": 676582, "internal_node_id": "0.0-39.0"}}, {"uniqueid": "MTK0045:384PI804XT84HD5OI0IO61QOTMN0ST", "current_trial": 58, "dateTime": 1509050214878, "trialdata": {"rt": -1, "stimulus": "<p id=\"stim\">CLAM</p>", "key_press": -1, "type": "PRES_VIS", "word": "clam", "wordID": 314, "conditions": [18, 1200, "v", 18000], "trial": 1, "serialpos": 3, "trial_type": "single-stim", "trial_index": 58, "time_elapsed": 678654, "internal_node_id": "0.0-40.0"}}, {"uniqueid": "MTK0045:384PI804XT84HD5OI0IO61QOTMN0ST", "current_trial": 59, "dateTime": 1509050217068, "trialdata": {"rt": -1, "stimulus": "<p id=\"stim\">BABY</p>", "key_press": -1, "type": "PRES_VIS", "word": "baby", "wordID": 63, "conditions": [18, 1200, "v", 18000], "trial": 1, "serialpos": 4, "trial_type": "single-stim", "trial_index": 59, "time_elapsed": 680843, "internal_node_id": "0.0-41.0"}}, {"uniqueid": "MTK0045:384PI804XT84HD5OI0IO61QOTMN0ST", "current_trial": 60, "dateTime": 1509050219375, "trialdata": {"rt": -1, "stimulus": "<p id=\"stim\">MATCH</p>", "key_press": -1, "type": "PRES_VIS", "word": "match", "wordID": 877, "conditions": [18, 1200, "v", 18000], "trial": 1, "serialpos": 5, "trial_type": "single-stim", "trial_index": 60, "time_elapsed": 683151, "internal_node_id": "0.0-42.0"}}, {"uniqueid": "MTK0045:384PI804XT84HD5OI0IO61QOTMN0ST", "current_trial": 61, "dateTime": 1509050221772, "trialdata": {"rt": -1, "stimulus": "<p id=\"stim\">NECKLACE</p>", "key_press": -1, "type": "PRES_VIS", "word": "necklace", "wordID": 939, "conditions": [18, 1200, "v", 18000], "trial": 1, "serialpos": 6, "trial_type": "single-stim", "trial_index": 61, "time_elapsed": 685548, "internal_node_id": "0.0-43.0"}}, {"uniqueid": "MTK0045:384PI804XT84HD5OI0IO61QOTMN0ST", "current_trial": 62, "dateTime": 1509050223823, "trialdata": {"rt": -1, "stimulus": "<p id=\"stim\">ZIPPER</p>", "key_press": -1, "type": "PRES_VIS", "word": "zipper", "wordID": 1635, "conditions": [18, 1200, "v", 18000], "trial": 1, "serialpos": 7, "trial_type": "single-stim", "trial_index": 62, "time_elapsed": 687598, "internal_node_id": "0.0-44.0"}}, {"uniqueid": "MTK0045:384PI804XT84HD5OI0IO61QOTMN0ST", "current_trial": 63, "dateTime": 1509050226127, "trialdata": {"rt": -1, "stimulus": "<p id=\"stim\">LUGGAGE</p>", "key_press": -1, "type": "PRES_VIS", "word": "luggage", "wordID": 846, "conditions": [18, 1200, "v", 18000], "trial": 1, "serialpos": 8, "trial_type": "single-stim", "trial_index": 63, "time_elapsed": 689902, "internal_node_id": "0.0-45.0"}}, {"uniqueid": "MTK0045:384PI804XT84HD5OI0IO61QOTMN0ST", "current_trial": 64, "dateTime": 1509050228258, "trialdata": {"rt": -1, "stimulus": "<p id=\"stim\">BRACES</p>", "key_press": -1, "type": "PRES_VIS", "word": "braces", "wordID": 163, "conditions": [18, 1200, "v", 18000], "trial": 1, "serialpos": 9, "trial_type": "single-stim", "trial_index": 64, "time_elapsed": 692033, "internal_node_id": "0.0-46.0"}}, {"uniqueid": "MTK0045:384PI804XT84HD5OI0IO61QOTMN0ST", "current_trial": 65, "dateTime": 1509050230650, "trialdata": {"rt": -1, "stimulus": "<p id=\"stim\">TRENCH</p>", "key_press": -1, "type": "PRES_VIS", "word": "trench", "wordID": 1502, "conditions": [18, 1200, "v", 18000], "trial": 1, "serialpos": 10, "trial_type": "single-stim", "trial_index": 65, "time_elapsed": 694425, "internal_node_id": "0.0-47.0"}}, {"uniqueid": "MTK0045:384PI804XT84HD5OI0IO61QOTMN0ST", "current_trial": 66, "dateTime": 1509050232823, "trialdata": {"rt": -1, "stimulus": "<p id=\"stim\">DRUG</p>", "key_press": -1, "type": "PRES_VIS", "word": "drug", "wordID": 500, "conditions": [18, 1200, "v", 18000], "trial": 1, "serialpos": 11, "trial_type": "single-stim", "trial_index": 66, "time_elapsed": 696598, "internal_node_id": "0.0-48.0"}}, {"uniqueid": "MTK0045:384PI804XT84HD5OI0IO61QOTMN0ST", "current_trial": 67, "dateTime": 1509050235118, "trialdata": {"rt": -1, "stimulus": "<p id=\"stim\">WITNESS</p>", "key_press": -1, "type": "PRES_VIS", "word": "witness", "wordID": 1617, "conditions": [18, 1200, "v", 18000], "trial": 1, "serialpos": 12, "trial_type": "single-stim", "trial_index": 67, "time_elapsed": 698893, "internal_node_id": "0.0-49.0"}}, {"uniqueid": "MTK0045:384PI804XT84HD5OI0IO61QOTMN0ST", "current_trial": 68, "dateTime": 1509050237255, "trialdata": {"rt": -1, "stimulus": "<p id=\"stim\">DANCER</p>", "key_press": -1, "type": "PRES_VIS", "word": "dancer", "wordID": 436, "conditions": [18, 1200, "v", 18000], "trial": 1, "serialpos": 13, "trial_type": "single-stim", "trial_index": 68, "time_elapsed": 701016, "internal_node_id": "0.0-50.0"}}, {"uniqueid": "MTK0045:384PI804XT84HD5OI0IO61QOTMN0ST", "current_trial": 69, "dateTime": 1509050239358, "trialdata": {"rt": -1, "stimulus": "<p id=\"stim\">TURTLE</p>", "key_press": -1, "type": "PRES_VIS", "word": "turtle", "wordID": 1521, "conditions": [18, 1200, "v", 18000], "trial": 1, "serialpos": 14, "trial_type": "single-stim", "trial_index": 69, "time_elapsed": 703133, "internal_node_id": "0.0-51.0"}}, {"uniqueid": "MTK0045:384PI804XT84HD5OI0IO61QOTMN0ST", "current_trial": 70, "dateTime": 1509050241384, "trialdata": {"rt": -1, "stimulus": "<p id=\"stim\">BLADE</p>", "key_press": -1, "type": "PRES_VIS", "word": "blade", "wordID": 133, "conditions": [18, 1200, "v", 18000], "trial": 1, "serialpos": 15, "trial_type": "single-stim", "trial_index": 70, "time_elapsed": 705160, "internal_node_id": "0.0-52.0"}}, {"uniqueid": "MTK0045:384PI804XT84HD5OI0IO61QOTMN0ST", "current_trial": 71, "dateTime": 1509050243414, "trialdata": {"rt": -1, "stimulus": "<p id=\"stim\">FOREST</p>", "key_press": -1, "type": "PRES_VIS", "word": "forest", "wordID": 592, "conditions": [18, 1200, "v", 18000], "trial": 1, "serialpos": 16, "trial_type": "single-stim", "trial_index": 71, "time_elapsed": 707189, "internal_node_id": "0.0-53.0"}}, {"uniqueid": "MTK0045:384PI804XT84HD5OI0IO61QOTMN0ST", "current_trial": 72, "dateTime": 1509050245634, "trialdata": {"rt": -1, "stimulus": "<p id=\"stim\">CRIB</p>", "key_press": -1, "type": "PRES_VIS", "word": "crib", "wordID": 406, "conditions": [18, 1200, "v", 18000], "trial": 1, "serialpos": 17, "trial_type": "single-stim", "trial_index": 72, "time_elapsed": 709410, "internal_node_id": "0.0-54.0"}}, {"uniqueid": "MTK0045:384PI804XT84HD5OI0IO61QOTMN0ST", "current_trial": 73, "dateTime": 1509050247873, "trialdata": {"rt": -1, "stimulus": "", "key_press": -1, "type": "PRE_RECALL_DELAY", "trial_type": "single-stim", "trial_index": 73, "time_elapsed": 711649, "internal_node_id": "0.0-55.0-0.0"}}, {"uniqueid": "MTK0045:384PI804XT84HD5OI0IO61QOTMN0ST", "current_trial": 74, "dateTime": 1509050248383, "trialdata": {"rt": -1000, "stimulus": "/static/audio/400Hz.wav", "key_press": -1, "type": "PRE_RECALL_ALERT", "trial_type": "single-audio", "trial_index": 74, "time_elapsed": 712159, "internal_node_id": "0.0-56.0"}}, {"uniqueid": "MTK0045:384PI804XT84HD5OI0IO61QOTMN0ST", "current_trial": 75, "dateTime": 1509050308433, "trialdata": {"rt": [4072, 7322, 12275, 17797, 23575, 27170, 31789, 37724, 49672], "recwords": ["crib", "forest", "luggage", "fragrance", "zipper", "motel", "baby", "brace", "zipper"], "type": "FREE_RECALL", "conditions": [18, 1200, "v", 18000], "trial": 1, "trial_type": "free-recall", "trial_index": 75, "time_elapsed": 772208, "internal_node_id": "0.0-57.0-0.0"}}, {"uniqueid": "MTK0045:384PI804XT84HD5OI0IO61QOTMN0ST", "current_trial": 76, "dateTime": 1509050364203, "trialdata": {"rt": 53766, "key_press": 32, "type": "INSTRUCTIONS", "trial_type": "text", "trial_index": 76, "time_elapsed": 827979, "internal_node_id": "0.0-58.0"}}, {"uniqueid": "MTK0045:384PI804XT84HD5OI0IO61QOTMN0ST", "current_trial": 77, "dateTime": 1509050377219, "trialdata": {"rt": [3228, 5467, 10813], "responses": ["19", "22", "15+"], "num1": [6, 4, 6, 8], "num2": [6, 9, 6, 6], "num3": [7, 9, 3, 7], "type": "DISTRACTOR", "conditions": [24, 1600, "a", 12000], "trial": 2, "trial_type": "math-distractor", "trial_index": 77, "time_elapsed": 840995, "internal_node_id": "0.0-59.0"}}, {"uniqueid": "MTK0045:384PI804XT84HD5OI0IO61QOTMN0ST", "current_trial": 78, "dateTime": 1509050380226, "trialdata": {"rt": -1, "stimulus": "<p id=\"stim\">10</p>", "key_press": -1, "trial_type": "single-stim", "trial_index": 78, "time_elapsed": 844001, "internal_node_id": "0.0-60.0-0.0"}}, {"uniqueid": "MTK0045:384PI804XT84HD5OI0IO61QOTMN0ST", "current_trial": 79, "dateTime": 1509050381231, "trialdata": {"rt": -1, "stimulus": "<p id=\"stim\">9</p>", "key_press": -1, "trial_type": "single-stim", "trial_index": 79, "time_elapsed": 845007, "internal_node_id": "0.0-60.0-1.0"}}, {"uniqueid": "MTK0045:384PI804XT84HD5OI0IO61QOTMN0ST", "current_trial": 80, "dateTime": 1509050382238, "trialdata": {"rt": -1, "stimulus": "<p id=\"stim\">8</p>", "key_press": -1, "trial_type": "single-stim", "trial_index": 80, "time_elapsed": 846014, "internal_node_id": "0.0-60.0-2.0"}}, {"uniqueid": "MTK0045:384PI804XT84HD5OI0IO61QOTMN0ST", "current_trial": 81, "dateTime": 1509050383244, "trialdata": {"rt": -1, "stimulus": "<p id=\"stim\">7</p>", "key_press": -1, "trial_type": "single-stim", "trial_index": 81, "time_elapsed": 847020, "internal_node_id": "0.0-60.0-3.0"}}, {"uniqueid": "MTK0045:384PI804XT84HD5OI0IO61QOTMN0ST", "current_trial": 82, "dateTime": 1509050384249, "trialdata": {"rt": -1, "stimulus": "<p id=\"stim\">6</p>", "key_press": -1, "trial_type": "single-stim", "trial_index": 82, "time_elapsed": 848025, "internal_node_id": "0.0-60.0-4.0"}}, {"uniqueid": "MTK0045:384PI804XT84HD5OI0IO61QOTMN0ST", "current_trial": 83, "dateTime": 1509050385255, "trialdata": {"rt": -1, "stimulus": "<p id=\"stim\">5</p>", "key_press": -1, "trial_type": "single-stim", "trial_index": 83, "time_elapsed": 849031, "internal_node_id": "0.0-60.0-5.0"}}, {"uniqueid": "MTK0045:384PI804XT84HD5OI0IO61QOTMN0ST", "current_trial": 84, "dateTime": 1509050386261, "trialdata": {"rt": -1, "stimulus": "<p id=\"stim\">4</p>", "key_press": -1, "trial_type": "single-stim", "trial_index": 84, "time_elapsed": 850037, "internal_node_id": "0.0-60.0-6.0"}}, {"uniqueid": "MTK0045:384PI804XT84HD5OI0IO61QOTMN0ST", "current_trial": 85, "dateTime": 1509050387266, "trialdata": {"rt": -1, "stimulus": "<p id=\"stim\">3</p>", "key_press": -1, "trial_type": "single-stim", "trial_index": 85, "time_elapsed": 851041, "internal_node_id": "0.0-60.0-7.0"}}, {"uniqueid": "MTK0045:384PI804XT84HD5OI0IO61QOTMN0ST", "current_trial": 86, "dateTime": 1509050388271, "trialdata": {"rt": -1, "stimulus": "<p id=\"stim\">2</p>", "key_press": -1, "trial_type": "single-stim", "trial_index": 86, "time_elapsed": 852046, "internal_node_id": "0.0-60.0-8.0"}}, {"uniqueid": "MTK0045:384PI804XT84HD5OI0IO61QOTMN0ST", "current_trial": 87, "dateTime": 1509050389279, "trialdata": {"rt": -1, "stimulus": "<p id=\"stim\">1</p>", "key_press": -1, "trial_type": "single-stim", "trial_index": 87, "time_elapsed": 853054, "internal_node_id": "0.0-60.0-9.0"}}, {"uniqueid": "MTK0045:384PI804XT84HD5OI0IO61QOTMN0ST", "current_trial": 88, "dateTime": 1509050390785, "trialdata": {"rt": -1, "stimulus": "<p id=\"stim\">+</p>", "key_press": -1, "type": "FIXATION", "trial_type": "single-stim", "trial_index": 88, "time_elapsed": 854561, "internal_node_id": "0.0-61.0-0.0"}}, {"uniqueid": "MTK0045:384PI804XT84HD5OI0IO61QOTMN0ST", "current_trial": 89, "dateTime": 1509050393405, "trialdata": {"rt": -1000, "stimulus": "/static/audio/wordpool/PECAN.wav", "key_press": -1, "type": "PRES_AUD", "word": "pecan", "wordID": 1035, "conditions": [24, 1600, "a", 12000], "trial": 2, "serialpos": 0, "trial_type": "single-audio", "trial_index": 89, "time_elapsed": 857181, "internal_node_id": "0.0-62.0"}}, {"uniqueid": "MTK0045:384PI804XT84HD5OI0IO61QOTMN0ST", "current_trial": 90, "dateTime": 1509050396097, "trialdata": {"rt": -1000, "stimulus": "/static/audio/wordpool/BRIEFCASE.wav", "key_press": -1, "type": "PRES_AUD", "word": "briefcase", "wordID": 174, "conditions": [24, 1600, "a", 12000], "trial": 2, "serialpos": 1, "trial_type": "single-audio", "trial_index": 90, "time_elapsed": 859873, "internal_node_id": "0.0-63.0"}}, {"uniqueid": "MTK0045:384PI804XT84HD5OI0IO61QOTMN0ST", "current_trial": 91, "dateTime": 1509050398597, "trialdata": {"rt": -1000, "stimulus": "/static/audio/wordpool/MAILMAN.wav", "key_press": -1, "type": "PRES_AUD", "word": "mailman", "wordID": 857, "conditions": [24, 1600, "a", 12000], "trial": 2, "serialpos": 2, "trial_type": "single-audio", "trial_index": 91, "time_elapsed": 862368, "internal_node_id": "0.0-64.0"}}, {"uniqueid": "MTK0045:384PI804XT84HD5OI0IO61QOTMN0ST", "current_trial": 92, "dateTime": 1509050401313, "trialdata": {"rt": -1000, "stimulus": "/static/audio/wordpool/BLOUSE.wav", "key_press": -1, "type": "PRES_AUD", "word": "blouse", "wordID": 138, "conditions": [24, 1600, "a", 12000], "trial": 2, "serialpos": 3, "trial_type": "single-audio", "trial_index": 92, "time_elapsed": 865088, "internal_node_id": "0.0-65.0"}}, {"uniqueid": "MTK0045:384PI804XT84HD5OI0IO61QOTMN0ST", "current_trial": 93, "dateTime": 1509050404081, "trialdata": {"rt": -1000, "stimulus": "/static/audio/wordpool/CIGAR.wav", "key_press": -1, "type": "PRES_AUD", "word": "cigar", "wordID": 307, "conditions": [24, 1600, "a", 12000], "trial": 2, "serialpos": 4, "trial_type": "single-audio", "trial_index": 93, "time_elapsed": 867857, "internal_node_id": "0.0-66.0"}}, {"uniqueid": "MTK0045:384PI804XT84HD5OI0IO61QOTMN0ST", "current_trial": 94, "dateTime": 1509050406511, "trialdata": {"rt": -1000, "stimulus": "/static/audio/wordpool/RECEIPT.wav", "key_press": -1, "type": "PRES_AUD", "word": "receipt", "wordID": 1172, "conditions": [24, 1600, "a", 12000], "trial": 2, "serialpos": 5, "trial_type": "single-audio", "trial_index": 94, "time_elapsed": 870287, "internal_node_id": "0.0-67.0"}}, {"uniqueid": "MTK0045:384PI804XT84HD5OI0IO61QOTMN0ST", "current_trial": 95, "dateTime": 1509050409125, "trialdata": {"rt": -1000, "stimulus": "/static/audio/wordpool/GRAVE.wav", "key_press": -1, "type": "PRES_AUD", "word": "grave", "wordID": 657, "conditions": [24, 1600, "a", 12000], "trial": 2, "serialpos": 6, "trial_type": "single-audio", "trial_index": 95, "time_elapsed": 872901, "internal_node_id": "0.0-68.0"}}, {"uniqueid": "MTK0045:384PI804XT84HD5OI0IO61QOTMN0ST", "current_trial": 96, "dateTime": 1509050411690, "trialdata": {"rt": -1000, "stimulus": "/static/audio/wordpool/SHIRT.wav", "key_press": -1, "type": "PRES_AUD", "word": "shirt", "wordID": 1286, "conditions": [24, 1600, "a", 12000], "trial": 2, "serialpos": 7, "trial_type": "single-audio", "trial_index": 96, "time_elapsed": 875465, "internal_node_id": "0.0-69.0"}}, {"uniqueid": "MTK0045:384PI804XT84HD5OI0IO61QOTMN0ST", "current_trial": 97, "dateTime": 1509050414335, "trialdata": {"rt": -1000, "stimulus": "/static/audio/wordpool/FINGER.wav", "key_press": -1, "type": "PRES_AUD", "word": "finger", "wordID": 566, "conditions": [24, 1600, "a", 12000], "trial": 2, "serialpos": 8, "trial_type": "single-audio", "trial_index": 97, "time_elapsed": 878109, "internal_node_id": "0.0-70.0"}}, {"uniqueid": "MTK0045:384PI804XT84HD5OI0IO61QOTMN0ST", "current_trial": 98, "dateTime": 1509050416854, "trialdata": {"rt": -1000, "stimulus": "/static/audio/wordpool/UNCLE.wav", "key_press": -1, "type": "PRES_AUD", "word": "uncle", "wordID": 1535, "conditions": [24, 1600, "a", 12000], "trial": 2, "serialpos": 9, "trial_type": "single-audio", "trial_index": 98, "time_elapsed": 880629, "internal_node_id": "0.0-71.0"}}, {"uniqueid": "MTK0045:384PI804XT84HD5OI0IO61QOTMN0ST", "current_trial": 99, "dateTime": 1509050419359, "trialdata": {"rt": -1000, "stimulus": "/static/audio/wordpool/WIDOW.wav", "key_press": -1, "type": "PRES_AUD", "word": "widow", "wordID": 1607, "conditions": [24, 1600, "a", 12000], "trial": 2, "serialpos": 10, "trial_type": "single-audio", "trial_index": 99, "time_elapsed": 883135, "internal_node_id": "0.0-72.0"}}, {"uniqueid": "MTK0045:384PI804XT84HD5OI0IO61QOTMN0ST", "current_trial": 100, "dateTime": 1509050421933, "trialdata": {"rt": -1000, "stimulus": "/static/audio/wordpool/WARDROBE.wav", "key_press": -1, "type": "PRES_AUD", "word": "wardrobe", "wordID": 1586, "conditions": [24, 1600, "a", 12000], "trial": 2, "serialpos": 11, "trial_type": "single-audio", "trial_index": 100, "time_elapsed": 885709, "internal_node_id": "0.0-73.0"}}, {"uniqueid": "MTK0045:384PI804XT84HD5OI0IO61QOTMN0ST", "current_trial": 101, "dateTime": 1509050424611, "trialdata": {"rt": -1000, "stimulus": "/static/audio/wordpool/FUNGUS.wav", "key_press": -1, "type": "PRES_AUD", "word": "fungus", "wordID": 613, "conditions": [24, 1600, "a", 12000], "trial": 2, "serialpos": 12, "trial_type": "single-audio", "trial_index": 101, "time_elapsed": 888387, "internal_node_id": "0.0-74.0"}}, {"uniqueid": "MTK0045:384PI804XT84HD5OI0IO61QOTMN0ST", "current_trial": 102, "dateTime": 1509050427108, "trialdata": {"rt": -1000, "stimulus": "/static/audio/wordpool/MILDEW.wav", "key_press": -1, "type": "PRES_AUD", "word": "mildew", "wordID": 892, "conditions": [24, 1600, "a", 12000], "trial": 2, "serialpos": 13, "trial_type": "single-audio", "trial_index": 102, "time_elapsed": 890884, "internal_node_id": "0.0-75.0"}}, {"uniqueid": "MTK0045:384PI804XT84HD5OI0IO61QOTMN0ST", "current_trial": 103, "dateTime": 1509050429557, "trialdata": {"rt": -1000, "stimulus": "/static/audio/wordpool/SPOON.wav", "key_press": -1, "type": "PRES_AUD", "word": "spoon", "wordID": 1356, "conditions": [24, 1600, "a", 12000], "trial": 2, "serialpos": 14, "trial_type": "single-audio", "trial_index": 103, "time_elapsed": 893332, "internal_node_id": "0.0-76.0"}}, {"uniqueid": "MTK0045:384PI804XT84HD5OI0IO61QOTMN0ST", "current_trial": 104, "dateTime": 1509050432263, "trialdata": {"rt": -1000, "stimulus": "/static/audio/wordpool/BLENDER.wav", "key_press": -1, "type": "PRES_AUD", "word": "blender", "wordID": 135, "conditions": [24, 1600, "a", 12000], "trial": 2, "serialpos": 15, "trial_type": "single-audio", "trial_index": 104, "time_elapsed": 896038, "internal_node_id": "0.0-77.0"}}, {"uniqueid": "MTK0045:384PI804XT84HD5OI0IO61QOTMN0ST", "current_trial": 105, "dateTime": 1509050435071, "trialdata": {"rt": -1000, "stimulus": "/static/audio/wordpool/GAVEL.wav", "key_press": -1, "type": "PRES_AUD", "word": "gavel", "wordID": 626, "conditions": [24, 1600, "a", 12000], "trial": 2, "serialpos": 16, "trial_type": "single-audio", "trial_index": 105, "time_elapsed": 898846, "internal_node_id": "0.0-78.0"}}, {"uniqueid": "MTK0045:384PI804XT84HD5OI0IO61QOTMN0ST", "current_trial": 106, "dateTime": 1509050437707, "trialdata": {"rt": -1000, "stimulus": "/static/audio/wordpool/LAKE.wav", "key_press": -1, "type": "PRES_AUD", "word": "lake", "wordID": 795, "conditions": [24, 1600, "a", 12000], "trial": 2, "serialpos": 17, "trial_type": "single-audio", "trial_index": 106, "time_elapsed": 901482, "internal_node_id": "0.0-79.0"}}, {"uniqueid": "MTK0045:384PI804XT84HD5OI0IO61QOTMN0ST", "current_trial": 107, "dateTime": 1509050440348, "trialdata": {"rt": -1000, "stimulus": "/static/audio/wordpool/POSSUM.wav", "key_press": -1, "type": "PRES_AUD", "word": "possum", "wordID": 1111, "conditions": [24, 1600, "a", 12000], "trial": 2, "serialpos": 18, "trial_type": "single-audio", "trial_index": 107, "time_elapsed": 904124, "internal_node_id": "0.0-80.0"}}, {"uniqueid": "MTK0045:384PI804XT84HD5OI0IO61QOTMN0ST", "current_trial": 108, "dateTime": 1509050442945, "trialdata": {"rt": -1000, "stimulus": "/static/audio/wordpool/ICEBERG.wav", "key_press": -1, "type": "PRES_AUD", "word": "iceberg", "wordID": 730, "conditions": [24, 1600, "a", 12000], "trial": 2, "serialpos": 19, "trial_type": "single-audio", "trial_index": 108, "time_elapsed": 906720, "internal_node_id": "0.0-81.0"}}, {"uniqueid": "MTK0045:384PI804XT84HD5OI0IO61QOTMN0ST", "current_trial": 109, "dateTime": 1509050445581, "trialdata": {"rt": -1000, "stimulus": "/static/audio/wordpool/TERMITE.wav", "key_press": -1, "type": "PRES_AUD", "word": "termite", "wordID": 1450, "conditions": [24, 1600, "a", 12000], "trial": 2, "serialpos": 20, "trial_type": "single-audio", "trial_index": 109, "time_elapsed": 909356, "internal_node_id": "0.0-82.0"}}, {"uniqueid": "MTK0045:384PI804XT84HD5OI0IO61QOTMN0ST", "current_trial": 110, "dateTime": 1509050448190, "trialdata": {"rt": -1000, "stimulus": "/static/audio/wordpool/LAGOON.wav", "key_press": -1, "type": "PRES_AUD", "word": "lagoon", "wordID": 794, "conditions": [24, 1600, "a", 12000], "trial": 2, "serialpos": 21, "trial_type": "single-audio", "trial_index": 110, "time_elapsed": 911966, "internal_node_id": "0.0-83.0"}}, {"uniqueid": "MTK0045:384PI804XT84HD5OI0IO61QOTMN0ST", "current_trial": 111, "dateTime": 1509050450678, "trialdata": {"rt": -1000, "stimulus": "/static/audio/wordpool/SAUSAGE.wav", "key_press": -1, "type": "PRES_AUD", "word": "sausage", "wordID": 1237, "conditions": [24, 1600, "a", 12000], "trial": 2, "serialpos": 22, "trial_type": "single-audio", "trial_index": 111, "time_elapsed": 914453, "internal_node_id": "0.0-84.0"}}, {"uniqueid": "MTK0045:384PI804XT84HD5OI0IO61QOTMN0ST", "current_trial": 112, "dateTime": 1509050453468, "trialdata": {"rt": -1000, "stimulus": "/static/audio/wordpool/POWDER.wav", "key_press": -1, "type": "PRES_AUD", "word": "powder", "wordID": 1116, "conditions": [24, 1600, "a", 12000], "trial": 2, "serialpos": 23, "trial_type": "single-audio", "trial_index": 112, "time_elapsed": 917244, "internal_node_id": "0.0-85.0"}}, {"uniqueid": "MTK0045:384PI804XT84HD5OI0IO61QOTMN0ST", "current_trial": 113, "dateTime": 1509050454802, "trialdata": {"rt": -1, "stimulus": "", "key_press": -1, "type": "PRE_RECALL_DELAY", "trial_type": "single-stim", "trial_index": 113, "time_elapsed": 918577, "internal_node_id": "0.0-86.0-0.0"}}, {"uniqueid": "MTK0045:384PI804XT84HD5OI0IO61QOTMN0ST", "current_trial": 114, "dateTime": 1509050455305, "trialdata": {"rt": -1000, "stimulus": "/static/audio/400Hz.wav", "key_press": -1, "type": "PRE_RECALL_ALERT", "trial_type": "single-audio", "trial_index": 114, "time_elapsed": 919081, "internal_node_id": "0.0-87.0"}}, {"uniqueid": "MTK0045:384PI804XT84HD5OI0IO61QOTMN0ST", "current_trial": 115, "dateTime": 1509050515315, "trialdata": {"rt": [4750, 8194, 11279, 15567, 20983, 24409, 29782, 35581, 39242, 43256, 49895, 54534], "recwords": ["powder", "sausage", "lagoon", "briefcase", "blunder", "grave", "spoon", "mailman", "possum", "iceberg", "fungus", "pecan"], "type": "FREE_RECALL", "conditions": [24, 1600, "a", 12000], "trial": 2, "trial_type": "free-recall", "trial_index": 115, "time_elapsed": 979090, "internal_node_id": "0.0-88.0-0.0"}}, {"uniqueid": "MTK0045:384PI804XT84HD5OI0IO61QOTMN0ST", "current_trial": 116, "dateTime": 1509050521376, "trialdata": {"rt": 4055, "key_press": 32, "type": "INSTRUCTIONS", "trial_type": "text", "trial_index": 116, "time_elapsed": 985151, "internal_node_id": "0.0-89.0"}}, {"uniqueid": "MTK0045:384PI804XT84HD5OI0IO61QOTMN0ST", "current_trial": 117, "dateTime": 1509050547394, "trialdata": {"rt": [2346, 6258, 9192, 12277, 14940, 17818, 21174, 23549], "responses": ["16", "20", "21", "15", "17", "8", "15", "18"], "num1": [7, 4, 5, 1, 6, 2, 4, 4, 9], "num2": [1, 7, 9, 8, 3, 1, 9, 5, 1], "num3": [8, 9, 7, 6, 8, 5, 2, 9, 8], "type": "DISTRACTOR", "conditions": [24, 800, "v", 24000], "trial": 3, "trial_type": "math-distractor", "trial_index": 117, "time_elapsed": 1011170, "internal_node_id": "0.0-90.0"}}, {"uniqueid": "MTK0045:384PI804XT84HD5OI0IO61QOTMN0ST", "current_trial": 118, "dateTime": 1509050550420, "trialdata": {"rt": -1, "stimulus": "<p id=\"stim\">10</p>", "key_press": -1, "trial_type": "single-stim", "trial_index": 118, "time_elapsed": 1014195, "internal_node_id": "0.0-91.0-0.0"}}, {"uniqueid": "MTK0045:384PI804XT84HD5OI0IO61QOTMN0ST", "current_trial": 119, "dateTime": 1509050551426, "trialdata": {"rt": -1, "stimulus": "<p id=\"stim\">9</p>", "key_press": -1, "trial_type": "single-stim", "trial_index": 119, "time_elapsed": 1015201, "internal_node_id": "0.0-91.0-1.0"}}, {"uniqueid": "MTK0045:384PI804XT84HD5OI0IO61QOTMN0ST", "current_trial": 120, "dateTime": 1509050552439, "trialdata": {"rt": -1, "stimulus": "<p id=\"stim\">8</p>", "key_press": -1, "trial_type": "single-stim", "trial_index": 120, "time_elapsed": 1016215, "internal_node_id": "0.0-91.0-2.0"}}, {"uniqueid": "MTK0045:384PI804XT84HD5OI0IO61QOTMN0ST", "current_trial": 121, "dateTime": 1509050553456, "trialdata": {"rt": -1, "stimulus": "<p id=\"stim\">7</p>", "key_press": -1, "trial_type": "single-stim", "trial_index": 121, "time_elapsed": 1017231, "internal_node_id": "0.0-91.0-3.0"}}, {"uniqueid": "MTK0045:384PI804XT84HD5OI0IO61QOTMN0ST", "current_trial": 122, "dateTime": 1509050554459, "trialdata": {"rt": -1, "stimulus": "<p id=\"stim\">6</p>", "key_press": -1, "trial_type": "single-stim", "trial_index": 122, "time_elapsed": 1018235, "internal_node_id": "0.0-91.0-4.0"}}, {"uniqueid": "MTK0045:384PI804XT84HD5OI0IO61QOTMN0ST", "current_trial": 123, "dateTime": 1509050555462, "trialdata": {"rt": -1, "stimulus": "<p id=\"stim\">5</p>", "key_press": -1, "trial_type": "single-stim", "trial_index": 123, "time_elapsed": 1019238, "internal_node_id": "0.0-91.0-5.0"}}, {"uniqueid": "MTK0045:384PI804XT84HD5OI0IO61QOTMN0ST", "current_trial": 124, "dateTime": 1509050556465, "trialdata": {"rt": -1, "stimulus": "<p id=\"stim\">4</p>", "key_press": -1, "trial_type": "single-stim", "trial_index": 124, "time_elapsed": 1020241, "internal_node_id": "0.0-91.0-6.0"}}, {"uniqueid": "MTK0045:384PI804XT84HD5OI0IO61QOTMN0ST", "current_trial": 125, "dateTime": 1509050557472, "trialdata": {"rt": -1, "stimulus": "<p id=\"stim\">3</p>", "key_press": -1, "trial_type": "single-stim", "trial_index": 125, "time_elapsed": 1021248, "internal_node_id": "0.0-91.0-7.0"}}, {"uniqueid": "MTK0045:384PI804XT84HD5OI0IO61QOTMN0ST", "current_trial": 126, "dateTime": 1509050558476, "trialdata": {"rt": -1, "stimulus": "<p id=\"stim\">2</p>", "key_press": -1, "trial_type": "single-stim", "trial_index": 126, "time_elapsed": 1022251, "internal_node_id": "0.0-91.0-8.0"}}, {"uniqueid": "MTK0045:384PI804XT84HD5OI0IO61QOTMN0ST", "current_trial": 127, "dateTime": 1509050559481, "trialdata": {"rt": -1, "stimulus": "<p id=\"stim\">1</p>", "key_press": -1, "trial_type": "single-stim", "trial_index": 127, "time_elapsed": 1023256, "internal_node_id": "0.0-91.0-9.0"}}, {"uniqueid": "MTK0045:384PI804XT84HD5OI0IO61QOTMN0ST", "current_trial": 128, "dateTime": 1509050560987, "trialdata": {"rt": -1, "stimulus": "<p id=\"stim\">+</p>", "key_press": -1, "type": "FIXATION", "trial_type": "single-stim", "trial_index": 128, "time_elapsed": 1024763, "internal_node_id": "0.0-92.0-0.0"}}, {"uniqueid": "MTK0045:384PI804XT84HD5OI0IO61QOTMN0ST", "current_trial": 129, "dateTime": 1509050561792, "trialdata": {"rt": -1, "stimulus": "<p id=\"stim\">CRUTCH</p>", "key_press": -1, "type": "PRES_VIS", "word": "crutch", "wordID": 416, "conditions": [24, 800, "v", 24000], "trial": 3, "serialpos": 0, "trial_type": "single-stim", "trial_index": 129, "time_elapsed": 1025567, "internal_node_id": "0.0-93.0"}}, {"uniqueid": "MTK0045:384PI804XT84HD5OI0IO61QOTMN0ST", "current_trial": 130, "dateTime": 1509050563671, "trialdata": {"rt": -1, "stimulus": "<p id=\"stim\">PRIMATE</p>", "key_press": -1, "type": "PRES_VIS", "word": "primate", "wordID": 1122, "conditions": [24, 800, "v", 24000], "trial": 3, "serialpos": 1, "trial_type": "single-stim", "trial_index": 130, "time_elapsed": 1027447, "internal_node_id": "0.0-94.0"}}, {"uniqueid": "MTK0045:384PI804XT84HD5OI0IO61QOTMN0ST", "current_trial": 131, "dateTime": 1509050565530, "trialdata": {"rt": -1, "stimulus": "<p id=\"stim\">HUMAN</p>", "key_press": -1, "type": "PRES_VIS", "word": "human", "wordID": 725, "conditions": [24, 800, "v", 24000], "trial": 3, "serialpos": 2, "trial_type": "single-stim", "trial_index": 131, "time_elapsed": 1029306, "internal_node_id": "0.0-95.0"}}, {"uniqueid": "MTK0045:384PI804XT84HD5OI0IO61QOTMN0ST", "current_trial": 132, "dateTime": 1509050567310, "trialdata": {"rt": -1, "stimulus": "<p id=\"stim\">FLASK</p>", "key_press": -1, "type": "PRES_VIS", "word": "flask", "wordID": 575, "conditions": [24, 800, "v", 24000], "trial": 3, "serialpos": 3, "trial_type": "single-stim", "trial_index": 132, "time_elapsed": 1031085, "internal_node_id": "0.0-96.0"}}, {"uniqueid": "MTK0045:384PI804XT84HD5OI0IO61QOTMN0ST", "current_trial": 133, "dateTime": 1509050568926, "trialdata": {"rt": -1, "stimulus": "<p id=\"stim\">BEAKER</p>", "key_press": -1, "type": "PRES_VIS", "word": "beaker", "wordID": 103, "conditions": [24, 800, "v", 24000], "trial": 3, "serialpos": 4, "trial_type": "single-stim", "trial_index": 133, "time_elapsed": 1032701, "internal_node_id": "0.0-97.0"}}, {"uniqueid": "MTK0045:384PI804XT84HD5OI0IO61QOTMN0ST", "current_trial": 134, "dateTime": 1509050570586, "trialdata": {"rt": -1, "stimulus": "<p id=\"stim\">SALAD</p>", "key_press": -1, "type": "PRES_VIS", "word": "salad", "wordID": 1223, "conditions": [24, 800, "v", 24000], "trial": 3, "serialpos": 5, "trial_type": "single-stim", "trial_index": 134, "time_elapsed": 1034362, "internal_node_id": "0.0-98.0"}}, {"uniqueid": "MTK0045:384PI804XT84HD5OI0IO61QOTMN0ST", "current_trial": 135, "dateTime": 1509050572447, "trialdata": {"rt": -1, "stimulus": "<p id=\"stim\">LEG</p>", "key_press": -1, "type": "PRES_VIS", "word": "leg", "wordID": 808, "conditions": [24, 800, "v", 24000], "trial": 3, "serialpos": 6, "trial_type": "single-stim", "trial_index": 135, "time_elapsed": 1036223, "internal_node_id": "0.0-99.0"}}, {"uniqueid": "MTK0045:384PI804XT84HD5OI0IO61QOTMN0ST", "current_trial": 136, "dateTime": 1509050574255, "trialdata": {"rt": -1, "stimulus": "<p id=\"stim\">LADY</p>", "key_press": -1, "type": "PRES_VIS", "word": "lady", "wordID": 793, "conditions": [24, 800, "v", 24000], "trial": 3, "serialpos": 7, "trial_type": "single-stim", "trial_index": 136, "time_elapsed": 1038030, "internal_node_id": "0.0-100.0"}}, {"uniqueid": "MTK0045:384PI804XT84HD5OI0IO61QOTMN0ST", "current_trial": 137, "dateTime": 1509050576238, "trialdata": {"rt": -1, "stimulus": "<p id=\"stim\">ROCKET</p>", "key_press": -1, "type": "PRES_VIS", "word": "rocket", "wordID": 1201, "conditions": [24, 800, "v", 24000], "trial": 3, "serialpos": 8, "trial_type": "single-stim", "trial_index": 137, "time_elapsed": 1040014, "internal_node_id": "0.0-101.0"}}, {"uniqueid": "MTK0045:384PI804XT84HD5OI0IO61QOTMN0ST", "current_trial": 138, "dateTime": 1509050577953, "trialdata": {"rt": -1, "stimulus": "<p id=\"stim\">DAUGHTER</p>", "key_press": -1, "type": "PRES_VIS", "word": "daughter", "wordID": 441, "conditions": [24, 800, "v", 24000], "trial": 3, "serialpos": 9, "trial_type": "single-stim", "trial_index": 138, "time_elapsed": 1041727, "internal_node_id": "0.0-102.0"}}, {"uniqueid": "MTK0045:384PI804XT84HD5OI0IO61QOTMN0ST", "current_trial": 139, "dateTime": 1509050579958, "trialdata": {"rt": -1, "stimulus": "<p id=\"stim\">GLOBE</p>", "key_press": -1, "type": "PRES_VIS", "word": "globe", "wordID": 640, "conditions": [24, 800, "v", 24000], "trial": 3, "serialpos": 10, "trial_type": "single-stim", "trial_index": 139, "time_elapsed": 1043734, "internal_node_id": "0.0-103.0"}}, {"uniqueid": "MTK0045:384PI804XT84HD5OI0IO61QOTMN0ST", "current_trial": 140, "dateTime": 1509050581760, "trialdata": {"rt": -1, "stimulus": "<p id=\"stim\">WRIST</p>", "key_press": -1, "type": "PRES_VIS", "word": "wrist", "wordID": 1625, "conditions": [24, 800, "v", 24000], "trial": 3, "serialpos": 11, "trial_type": "single-stim", "trial_index": 140, "time_elapsed": 1045536, "internal_node_id": "0.0-104.0"}}, {"uniqueid": "MTK0045:384PI804XT84HD5OI0IO61QOTMN0ST", "current_trial": 141, "dateTime": 1509050583729, "trialdata": {"rt": -1, "stimulus": "<p id=\"stim\">FLOWER</p>", "key_press": -1, "type": "PRES_VIS", "word": "flower", "wordID": 583, "conditions": [24, 800, "v", 24000], "trial": 3, "serialpos": 12, "trial_type": "single-stim", "trial_index": 141, "time_elapsed": 1047504, "internal_node_id": "0.0-105.0"}}, {"uniqueid": "MTK0045:384PI804XT84HD5OI0IO61QOTMN0ST", "current_trial": 142, "dateTime": 1509050585464, "trialdata": {"rt": -1, "stimulus": "<p id=\"stim\">ORCHID</p>", "key_press": -1, "type": "PRES_VIS", "word": "orchid", "wordID": 981, "conditions": [24, 800, "v", 24000], "trial": 3, "serialpos": 13, "trial_type": "single-stim", "trial_index": 142, "time_elapsed": 1049239, "internal_node_id": "0.0-106.0"}}, {"uniqueid": "MTK0045:384PI804XT84HD5OI0IO61QOTMN0ST", "current_trial": 143, "dateTime": 1509050587229, "trialdata": {"rt": -1, "stimulus": "<p id=\"stim\">STATUE</p>", "key_press": -1, "type": "PRES_VIS", "word": "statue", "wordID": 1373, "conditions": [24, 800, "v", 24000], "trial": 3, "serialpos": 14, "trial_type": "single-stim", "trial_index": 143, "time_elapsed": 1050999, "internal_node_id": "0.0-107.0"}}, {"uniqueid": "MTK0045:384PI804XT84HD5OI0IO61QOTMN0ST", "current_trial": 144, "dateTime": 1509050589145, "trialdata": {"rt": -1, "stimulus": "<p id=\"stim\">POPCORN</p>", "key_press": -1, "type": "PRES_VIS", "word": "popcorn", "wordID": 1103, "conditions": [24, 800, "v", 24000], "trial": 3, "serialpos": 15, "trial_type": "single-stim", "trial_index": 144, "time_elapsed": 1052920, "internal_node_id": "0.0-108.0"}}, {"uniqueid": "MTK0045:384PI804XT84HD5OI0IO61QOTMN0ST", "current_trial": 145, "dateTime": 1509050590756, "trialdata": {"rt": -1, "stimulus": "<p id=\"stim\">PARROT</p>", "key_press": -1, "type": "PRES_VIS", "word": "parrot", "wordID": 1014, "conditions": [24, 800, "v", 24000], "trial": 3, "serialpos": 16, "trial_type": "single-stim", "trial_index": 145, "time_elapsed": 1054531, "internal_node_id": "0.0-109.0"}}, {"uniqueid": "MTK0045:384PI804XT84HD5OI0IO61QOTMN0ST", "current_trial": 146, "dateTime": 1509050592451, "trialdata": {"rt": -1, "stimulus": "<p id=\"stim\">SCULPTURE</p>", "key_press": -1, "type": "PRES_VIS", "word": "sculpture", "wordID": 1257, "conditions": [24, 800, "v", 24000], "trial": 3, "serialpos": 17, "trial_type": "single-stim", "trial_index": 146, "time_elapsed": 1056227, "internal_node_id": "0.0-110.0"}}, {"uniqueid": "MTK0045:384PI804XT84HD5OI0IO61QOTMN0ST", "current_trial": 147, "dateTime": 1509050594138, "trialdata": {"rt": -1, "stimulus": "<p id=\"stim\">XEROX</p>", "key_press": -1, "type": "PRES_VIS", "word": "xerox", "wordID": 1627, "conditions": [24, 800, "v", 24000], "trial": 3, "serialpos": 18, "trial_type": "single-stim", "trial_index": 147, "time_elapsed": 1057914, "internal_node_id": "0.0-111.0"}}, {"uniqueid": "MTK0045:384PI804XT84HD5OI0IO61QOTMN0ST", "current_trial": 148, "dateTime": 1509050596003, "trialdata": {"rt": -1, "stimulus": "<p id=\"stim\">PARSLEY</p>", "key_press": -1, "type": "PRES_VIS", "word": "parsley", "wordID": 1015, "conditions": [24, 800, "v", 24000], "trial": 3, "serialpos": 19, "trial_type": "single-stim", "trial_index": 148, "time_elapsed": 1059778, "internal_node_id": "0.0-112.0"}}, {"uniqueid": "MTK0045:384PI804XT84HD5OI0IO61QOTMN0ST", "current_trial": 149, "dateTime": 1509050597670, "trialdata": {"rt": -1, "stimulus": "<p id=\"stim\">BANK</p>", "key_press": -1, "type": "PRES_VIS", "word": "bank", "wordID": 82, "conditions": [24, 800, "v", 24000], "trial": 3, "serialpos": 20, "trial_type": "single-stim", "trial_index": 149, "time_elapsed": 1061444, "internal_node_id": "0.0-113.0"}}, {"uniqueid": "MTK0045:384PI804XT84HD5OI0IO61QOTMN0ST", "current_trial": 150, "dateTime": 1509050599441, "trialdata": {"rt": -1, "stimulus": "<p id=\"stim\">ISLAND</p>", "key_press": -1, "type": "PRES_VIS", "word": "island", "wordID": 744, "conditions": [24, 800, "v", 24000], "trial": 3, "serialpos": 21, "trial_type": "single-stim", "trial_index": 150, "time_elapsed": 1063217, "internal_node_id": "0.0-114.0"}}, {"uniqueid": "MTK0045:384PI804XT84HD5OI0IO61QOTMN0ST", "current_trial": 151, "dateTime": 1509050601353, "trialdata": {"rt": -1, "stimulus": "<p id=\"stim\">CUPBOARD</p>", "key_press": -1, "type": "PRES_VIS", "word": "cupboard", "wordID": 424, "conditions": [24, 800, "v", 24000], "trial": 3, "serialpos": 22, "trial_type": "single-stim", "trial_index": 151, "time_elapsed": 1065128, "internal_node_id": "0.0-115.0"}}, {"uniqueid": "MTK0045:384PI804XT84HD5OI0IO61QOTMN0ST", "current_trial": 152, "dateTime": 1509050603156, "trialdata": {"rt": -1, "stimulus": "<p id=\"stim\">SUITCASE</p>", "key_press": -1, "type": "PRES_VIS", "word": "suitcase", "wordID": 1402, "conditions": [24, 800, "v", 24000], "trial": 3, "serialpos": 23, "trial_type": "single-stim", "trial_index": 152, "time_elapsed": 1066931, "internal_node_id": "0.0-116.0"}}, {"uniqueid": "MTK0045:384PI804XT84HD5OI0IO61QOTMN0ST", "current_trial": 153, "dateTime": 1509050605479, "trialdata": {"rt": -1, "stimulus": "", "key_press": -1, "type": "PRE_RECALL_DELAY", "trial_type": "single-stim", "trial_index": 153, "time_elapsed": 1069255, "internal_node_id": "0.0-117.0-0.0"}}, {"uniqueid": "MTK0045:384PI804XT84HD5OI0IO61QOTMN0ST", "current_trial": 154, "dateTime": 1509050605993, "trialdata": {"rt": -1000, "stimulus": "/static/audio/400Hz.wav", "key_press": -1, "type": "PRE_RECALL_ALERT", "trial_type": "single-audio", "trial_index": 154, "time_elapsed": 1069768, "internal_node_id": "0.0-118.0"}}, {"uniqueid": "MTK0045:384PI804XT84HD5OI0IO61QOTMN0ST", "current_trial": 155, "dateTime": 1509050666009, "trialdata": {"rt": [3709, 6833, 9768, 12373, 14264, 17091, 20229, 22809, 28051, 41484, 57329], "recwords": ["island", "suitcase", "bank", "xerox", "uncle", "daughter", "orchid", "flower", "leg", "lady", "human"], "type": "FREE_RECALL", "conditions": [24, 800, "v", 24000], "trial": 3, "trial_type": "free-recall", "trial_index": 155, "time_elapsed": 1129784, "internal_node_id": "0.0-119.0-0.0"}}, {"uniqueid": "MTK0045:384PI804XT84HD5OI0IO61QOTMN0ST", "current_trial": 156, "dateTime": 1509050670866, "trialdata": {"rt": 2849, "key_press": 32, "type": "INSTRUCTIONS", "trial_type": "text", "trial_index": 156, "time_elapsed": 1134641, "internal_node_id": "0.0-120.0"}}, {"uniqueid": "MTK0045:384PI804XT84HD5OI0IO61QOTMN0ST", "current_trial": 157, "dateTime": 1509050696886, "trialdata": {"rt": [3818, 6304, 9222, 11052, 13266, 14889, 17933, 20077, 23160], "responses": ["10", "11", "25", "21", "13", "21", "15", "15", "19"], "num1": [4, 1, 7, 7, 9, 7, 9, 8, 4, 5], "num2": [2, 7, 9, 7, 3, 7, 2, 5, 6, 8], "num3": [4, 3, 9, 7, 1, 7, 4, 2, 9, 9], "type": "DISTRACTOR", "conditions": [12, 1600, "v", 24000], "trial": 4, "trial_type": "math-distractor", "trial_index": 157, "time_elapsed": 1160661, "internal_node_id": "0.0-121.0"}}, {"uniqueid": "MTK0045:384PI804XT84HD5OI0IO61QOTMN0ST", "current_trial": 158, "dateTime": 1509050699893, "trialdata": {"rt": -1, "stimulus": "<p id=\"stim\">10</p>", "key_press": -1, "trial_type": "single-stim", "trial_index": 158, "time_elapsed": 1163668, "internal_node_id": "0.0-122.0-0.0"}}, {"uniqueid": "MTK0045:384PI804XT84HD5OI0IO61QOTMN0ST", "current_trial": 159, "dateTime": 1509050700899, "trialdata": {"rt": -1, "stimulus": "<p id=\"stim\">9</p>", "key_press": -1, "trial_type": "single-stim", "trial_index": 159, "time_elapsed": 1164675, "internal_node_id": "0.0-122.0-1.0"}}, {"uniqueid": "MTK0045:384PI804XT84HD5OI0IO61QOTMN0ST", "current_trial": 160, "dateTime": 1509050701904, "trialdata": {"rt": -1, "stimulus": "<p id=\"stim\">8</p>", "key_press": -1, "trial_type": "single-stim", "trial_index": 160, "time_elapsed": 1165679, "internal_node_id": "0.0-122.0-2.0"}}, {"uniqueid": "MTK0045:384PI804XT84HD5OI0IO61QOTMN0ST", "current_trial": 161, "dateTime": 1509050702910, "trialdata": {"rt": -1, "stimulus": "<p id=\"stim\">7</p>", "key_press": -1, "trial_type": "single-stim", "trial_index": 161, "time_elapsed": 1166685, "internal_node_id": "0.0-122.0-3.0"}}, {"uniqueid": "MTK0045:384PI804XT84HD5OI0IO61QOTMN0ST", "current_trial": 162, "dateTime": 1509050703914, "trialdata": {"rt": -1, "stimulus": "<p id=\"stim\">6</p>", "key_press": -1, "trial_type": "single-stim", "trial_index": 162, "time_elapsed": 1167690, "internal_node_id": "0.0-122.0-4.0"}}, {"uniqueid": "MTK0045:384PI804XT84HD5OI0IO61QOTMN0ST", "current_trial": 163, "dateTime": 1509050704920, "trialdata": {"rt": -1, "stimulus": "<p id=\"stim\">5</p>", "key_press": -1, "trial_type": "single-stim", "trial_index": 163, "time_elapsed": 1168695, "internal_node_id": "0.0-122.0-5.0"}}, {"uniqueid": "MTK0045:384PI804XT84HD5OI0IO61QOTMN0ST", "current_trial": 164, "dateTime": 1509050705927, "trialdata": {"rt": -1, "stimulus": "<p id=\"stim\">4</p>", "key_press": -1, "trial_type": "single-stim", "trial_index": 164, "time_elapsed": 1169702, "internal_node_id": "0.0-122.0-6.0"}}, {"uniqueid": "MTK0045:384PI804XT84HD5OI0IO61QOTMN0ST", "current_trial": 165, "dateTime": 1509050706932, "trialdata": {"rt": -1, "stimulus": "<p id=\"stim\">3</p>", "key_press": -1, "trial_type": "single-stim", "trial_index": 165, "time_elapsed": 1170708, "internal_node_id": "0.0-122.0-7.0"}}, {"uniqueid": "MTK0045:384PI804XT84HD5OI0IO61QOTMN0ST", "current_trial": 166, "dateTime": 1509050707938, "trialdata": {"rt": -1, "stimulus": "<p id=\"stim\">2</p>", "key_press": -1, "trial_type": "single-stim", "trial_index": 166, "time_elapsed": 1171713, "internal_node_id": "0.0-122.0-8.0"}}, {"uniqueid": "MTK0045:384PI804XT84HD5OI0IO61QOTMN0ST", "current_trial": 167, "dateTime": 1509050708942, "trialdata": {"rt": -1, "stimulus": "<p id=\"stim\">1</p>", "key_press": -1, "trial_type": "single-stim", "trial_index": 167, "time_elapsed": 1172718, "internal_node_id": "0.0-122.0-9.0"}}, {"uniqueid": "MTK0045:384PI804XT84HD5OI0IO61QOTMN0ST", "current_trial": 168, "dateTime": 1509050710448, "trialdata": {"rt": -1, "stimulus": "<p id=\"stim\">+</p>", "key_press": -1, "type": "FIXATION", "trial_type": "single-stim", "trial_index": 168, "time_elapsed": 1174223, "internal_node_id": "0.0-123.0-0.0"}}, {"uniqueid": "MTK0045:384PI804XT84HD5OI0IO61QOTMN0ST", "current_trial": 169, "dateTime": 1509050712055, "trialdata": {"rt": -1, "stimulus": "<p id=\"stim\">KETCHUP</p>", "key_press": -1, "type": "PRES_VIS", "word": "ketchup", "wordID": 770, "conditions": [12, 1600, "v", 24000], "trial": 4, "serialpos": 0, "trial_type": "single-stim", "trial_index": 169, "time_elapsed": 1175830, "internal_node_id": "0.0-124.0"}}, {"uniqueid": "MTK0045:384PI804XT84HD5OI0IO61QOTMN0ST", "current_trial": 170, "dateTime": 1509050714559, "trialdata": {"rt": -1, "stimulus": "<p id=\"stim\">MARROW</p>", "key_press": -1, "type": "PRES_VIS", "word": "marrow", "wordID": 871, "conditions": [12, 1600, "v", 24000], "trial": 4, "serialpos": 1, "trial_type": "single-stim", "trial_index": 170, "time_elapsed": 1178335, "internal_node_id": "0.0-125.0"}}, {"uniqueid": "MTK0045:384PI804XT84HD5OI0IO61QOTMN0ST", "current_trial": 171, "dateTime": 1509050717098, "trialdata": {"rt": -1, "stimulus": "<p id=\"stim\">CITRUS</p>", "key_press": -1, "type": "PRES_VIS", "word": "citrus", "wordID": 312, "conditions": [12, 1600, "v", 24000], "trial": 4, "serialpos": 2, "trial_type": "single-stim", "trial_index": 171, "time_elapsed": 1180874, "internal_node_id": "0.0-126.0"}}, {"uniqueid": "MTK0045:384PI804XT84HD5OI0IO61QOTMN0ST", "current_trial": 172, "dateTime": 1509050719757, "trialdata": {"rt": -1, "stimulus": "<p id=\"stim\">BALLOON</p>", "key_press": -1, "type": "PRES_VIS", "word": "balloon", "wordID": 74, "conditions": [12, 1600, "v", 24000], "trial": 4, "serialpos": 3, "trial_type": "single-stim", "trial_index": 172, "time_elapsed": 1183533, "internal_node_id": "0.0-127.0"}}, {"uniqueid": "MTK0045:384PI804XT84HD5OI0IO61QOTMN0ST", "current_trial": 173, "dateTime": 1509050722542, "trialdata": {"rt": -1, "stimulus": "<p id=\"stim\">PLAID</p>", "key_press": -1, "type": "PRES_VIS", "word": "plaid", "wordID": 1079, "conditions": [12, 1600, "v", 24000], "trial": 4, "serialpos": 4, "trial_type": "single-stim", "trial_index": 173, "time_elapsed": 1186318, "internal_node_id": "0.0-128.0"}}, {"uniqueid": "MTK0045:384PI804XT84HD5OI0IO61QOTMN0ST", "current_trial": 174, "dateTime": 1509050725070, "trialdata": {"rt": -1, "stimulus": "<p id=\"stim\">OZONE</p>", "key_press": -1, "type": "PRES_VIS", "word": "ozone", "wordID": 995, "conditions": [12, 1600, "v", 24000], "trial": 4, "serialpos": 5, "trial_type": "single-stim", "trial_index": 174, "time_elapsed": 1188845, "internal_node_id": "0.0-129.0"}}, {"uniqueid": "MTK0045:384PI804XT84HD5OI0IO61QOTMN0ST", "current_trial": 175, "dateTime": 1509050727494, "trialdata": {"rt": -1, "stimulus": "<p id=\"stim\">COMET</p>", "key_press": -1, "type": "PRES_VIS", "word": "comet", "wordID": 352, "conditions": [12, 1600, "v", 24000], "trial": 4, "serialpos": 6, "trial_type": "single-stim", "trial_index": 175, "time_elapsed": 1191270, "internal_node_id": "0.0-130.0"}}, {"uniqueid": "MTK0045:384PI804XT84HD5OI0IO61QOTMN0ST", "current_trial": 176, "dateTime": 1509050730064, "trialdata": {"rt": -1, "stimulus": "<p id=\"stim\">SPIDER</p>", "key_press": -1, "type": "PRES_VIS", "word": "spider", "wordID": 1350, "conditions": [12, 1600, "v", 24000], "trial": 4, "serialpos": 7, "trial_type": "single-stim", "trial_index": 176, "time_elapsed": 1193839, "internal_node_id": "0.0-131.0"}}, {"uniqueid": "MTK0045:384PI804XT84HD5OI0IO61QOTMN0ST", "current_trial": 177, "dateTime": 1509050732870, "trialdata": {"rt": -1, "stimulus": "<p id=\"stim\">DENIM</p>", "key_press": -1, "type": "PRES_VIS", "word": "denim", "wordID": 445, "conditions": [12, 1600, "v", 24000], "trial": 4, "serialpos": 8, "trial_type": "single-stim", "trial_index": 177, "time_elapsed": 1196645, "internal_node_id": "0.0-132.0"}}, {"uniqueid": "MTK0045:384PI804XT84HD5OI0IO61QOTMN0ST", "current_trial": 178, "dateTime": 1509050735307, "trialdata": {"rt": -1, "stimulus": "<p id=\"stim\">REPORT</p>", "key_press": -1, "type": "PRES_VIS", "word": "report", "wordID": 1183, "conditions": [12, 1600, "v", 24000], "trial": 4, "serialpos": 9, "trial_type": "single-stim", "trial_index": 178, "time_elapsed": 1199082, "internal_node_id": "0.0-133.0"}}, {"uniqueid": "MTK0045:384PI804XT84HD5OI0IO61QOTMN0ST", "current_trial": 179, "dateTime": 1509050737984, "trialdata": {"rt": -1, "stimulus": "<p id=\"stim\">SURVEY</p>", "key_press": -1, "type": "PRES_VIS", "word": "survey", "wordID": 1413, "conditions": [12, 1600, "v", 24000], "trial": 4, "serialpos": 10, "trial_type": "single-stim", "trial_index": 179, "time_elapsed": 1201759, "internal_node_id": "0.0-134.0"}}, {"uniqueid": "MTK0045:384PI804XT84HD5OI0IO61QOTMN0ST", "current_trial": 180, "dateTime": 1509050740710, "trialdata": {"rt": -1, "stimulus": "<p id=\"stim\">PERFUME</p>", "key_press": -1, "type": "PRES_VIS", "word": "perfume", "wordID": 1048, "conditions": [12, 1600, "v", 24000], "trial": 4, "serialpos": 11, "trial_type": "single-stim", "trial_index": 180, "time_elapsed": 1204486, "internal_node_id": "0.0-135.0"}}, {"uniqueid": "MTK0045:384PI804XT84HD5OI0IO61QOTMN0ST", "current_trial": 181, "dateTime": 1509050743176, "trialdata": {"rt": -1, "stimulus": "", "key_press": -1, "type": "PRE_RECALL_DELAY", "trial_type": "single-stim", "trial_index": 181, "time_elapsed": 1206952, "internal_node_id": "0.0-136.0-0.0"}}, {"uniqueid": "MTK0045:384PI804XT84HD5OI0IO61QOTMN0ST", "current_trial": 182, "dateTime": 1509050743683, "trialdata": {"rt": -1000, "stimulus": "/static/audio/400Hz.wav", "key_press": -1, "type": "PRE_RECALL_ALERT", "trial_type": "single-audio", "trial_index": 182, "time_elapsed": 1207459, "internal_node_id": "0.0-137.0"}}, {"uniqueid": "MTK0045:384PI804XT84HD5OI0IO61QOTMN0ST", "current_trial": 183, "dateTime": 1509050803701, "trialdata": {"rt": [3481, 6460, 10248, 12349, 17737, 48585], "recwords": ["denim", "perfume", "balloon", "bank", "comet", "ketchup"], "type": "FREE_RECALL", "conditions": [12, 1600, "v", 24000], "trial": 4, "trial_type": "free-recall", "trial_index": 183, "time_elapsed": 1267477, "internal_node_id": "0.0-138.0-0.0"}}, {"uniqueid": "MTK0045:384PI804XT84HD5OI0IO61QOTMN0ST", "current_trial": 184, "dateTime": 1509050860323, "trialdata": {"rt": 54615, "key_press": 32, "type": "INSTRUCTIONS", "trial_type": "text", "trial_index": 184, "time_elapsed": 1324098, "internal_node_id": "0.0-139.0"}}, {"uniqueid": "MTK0045:384PI804XT84HD5OI0IO61QOTMN0ST", "current_trial": 185, "dateTime": 1509050874337, "trialdata": {"rt": [2554, 5471, 9784], "responses": ["12", "24", "6"], "num1": [9, 8, 1, 1], "num2": [2, 9, 1, 8], "num3": [1, 7, 4, 7], "type": "DISTRACTOR", "conditions": [24, 800, "v", 12000], "trial": 5, "trial_type": "math-distractor", "trial_index": 185, "time_elapsed": 1338113, "internal_node_id": "0.0-140.0"}}, {"uniqueid": "MTK0045:384PI804XT84HD5OI0IO61QOTMN0ST", "current_trial": 186, "dateTime": 1509050877343, "trialdata": {"rt": -1, "stimulus": "<p id=\"stim\">10</p>", "key_press": -1, "trial_type": "single-stim", "trial_index": 186, "time_elapsed": 1341118, "internal_node_id": "0.0-141.0-0.0"}}, {"uniqueid": "MTK0045:384PI804XT84HD5OI0IO61QOTMN0ST", "current_trial": 187, "dateTime": 1509050878348, "trialdata": {"rt": -1, "stimulus": "<p id=\"stim\">9</p>", "key_press": -1, "trial_type": "single-stim", "trial_index": 187, "time_elapsed": 1342124, "internal_node_id": "0.0-141.0-1.0"}}, {"uniqueid": "MTK0045:384PI804XT84HD5OI0IO61QOTMN0ST", "current_trial": 188, "dateTime": 1509050879355, "trialdata": {"rt": -1, "stimulus": "<p id=\"stim\">8</p>", "key_press": -1, "trial_type": "single-stim", "trial_index": 188, "time_elapsed": 1343130, "internal_node_id": "0.0-141.0-2.0"}}, {"uniqueid": "MTK0045:384PI804XT84HD5OI0IO61QOTMN0ST", "current_trial": 189, "dateTime": 1509050880359, "trialdata": {"rt": -1, "stimulus": "<p id=\"stim\">7</p>", "key_press": -1, "trial_type": "single-stim", "trial_index": 189, "time_elapsed": 1344134, "internal_node_id": "0.0-141.0-3.0"}}, {"uniqueid": "MTK0045:384PI804XT84HD5OI0IO61QOTMN0ST", "current_trial": 190, "dateTime": 1509050881365, "trialdata": {"rt": -1, "stimulus": "<p id=\"stim\">6</p>", "key_press": -1, "trial_type": "single-stim", "trial_index": 190, "time_elapsed": 1345139, "internal_node_id": "0.0-141.0-4.0"}}, {"uniqueid": "MTK0045:384PI804XT84HD5OI0IO61QOTMN0ST", "current_trial": 191, "dateTime": 1509050882369, "trialdata": {"rt": -1, "stimulus": "<p id=\"stim\">5</p>", "key_press": -1, "trial_type": "single-stim", "trial_index": 191, "time_elapsed": 1346144, "internal_node_id": "0.0-141.0-5.0"}}, {"uniqueid": "MTK0045:384PI804XT84HD5OI0IO61QOTMN0ST", "current_trial": 192, "dateTime": 1509050883374, "trialdata": {"rt": -1, "stimulus": "<p id=\"stim\">4</p>", "key_press": -1, "trial_type": "single-stim", "trial_index": 192, "time_elapsed": 1347150, "internal_node_id": "0.0-141.0-6.0"}}, {"uniqueid": "MTK0045:384PI804XT84HD5OI0IO61QOTMN0ST", "current_trial": 193, "dateTime": 1509050884381, "trialdata": {"rt": -1, "stimulus": "<p id=\"stim\">3</p>", "key_press": -1, "trial_type": "single-stim", "trial_index": 193, "time_elapsed": 1348157, "internal_node_id": "0.0-141.0-7.0"}}, {"uniqueid": "MTK0045:384PI804XT84HD5OI0IO61QOTMN0ST", "current_trial": 194, "dateTime": 1509050885386, "trialdata": {"rt": -1, "stimulus": "<p id=\"stim\">2</p>", "key_press": -1, "trial_type": "single-stim", "trial_index": 194, "time_elapsed": 1349161, "internal_node_id": "0.0-141.0-8.0"}}, {"uniqueid": "MTK0045:384PI804XT84HD5OI0IO61QOTMN0ST", "current_trial": 195, "dateTime": 1509050886418, "trialdata": {"rt": -1, "stimulus": "<p id=\"stim\">1</p>", "key_press": -1, "trial_type": "single-stim", "trial_index": 195, "time_elapsed": 1350193, "internal_node_id": "0.0-141.0-9.0"}}, {"uniqueid": "MTK0045:384PI804XT84HD5OI0IO61QOTMN0ST", "current_trial": 196, "dateTime": 1509050887922, "trialdata": {"rt": -1, "stimulus": "<p id=\"stim\">+</p>", "key_press": -1, "type": "FIXATION", "trial_type": "single-stim", "trial_index": 196, "time_elapsed": 1351697, "internal_node_id": "0.0-142.0-0.0"}}, {"uniqueid": "MTK0045:384PI804XT84HD5OI0IO61QOTMN0ST", "current_trial": 197, "dateTime": 1509050888729, "trialdata": {"rt": -1, "stimulus": "<p id=\"stim\">HARP</p>", "key_press": -1, "type": "PRES_VIS", "word": "harp", "wordID": 688, "conditions": [24, 800, "v", 12000], "trial": 5, "serialpos": 0, "trial_type": "single-stim", "trial_index": 197, "time_elapsed": 1352504, "internal_node_id": "0.0-143.0"}}, {"uniqueid": "MTK0045:384PI804XT84HD5OI0IO61QOTMN0ST", "current_trial": 198, "dateTime": 1509050890434, "trialdata": {"rt": -1, "stimulus": "<p id=\"stim\">LAMP</p>", "key_press": -1, "type": "PRES_VIS", "word": "lamp", "wordID": 797, "conditions": [24, 800, "v", 12000], "trial": 5, "serialpos": 1, "trial_type": "single-stim", "trial_index": 198, "time_elapsed": 1354209, "internal_node_id": "0.0-144.0"}}, {"uniqueid": "MTK0045:384PI804XT84HD5OI0IO61QOTMN0ST", "current_trial": 199, "dateTime": 1509050892324, "trialdata": {"rt": -1, "stimulus": "<p id=\"stim\">WOMAN</p>", "key_press": -1, "type": "PRES_VIS", "word": "woman", "wordID": 1619, "conditions": [24, 800, "v", 12000], "trial": 5, "serialpos": 2, "trial_type": "single-stim", "trial_index": 199, "time_elapsed": 1356098, "internal_node_id": "0.0-145.0"}}, {"uniqueid": "MTK0045:384PI804XT84HD5OI0IO61QOTMN0ST", "current_trial": 200, "dateTime": 1509050894291, "trialdata": {"rt": -1, "stimulus": "<p id=\"stim\">GIRL</p>", "key_press": -1, "type": "PRES_VIS", "word": "girl", "wordID": 636, "conditions": [24, 800, "v", 12000], "trial": 5, "serialpos": 3, "trial_type": "single-stim", "trial_index": 200, "time_elapsed": 1358066, "internal_node_id": "0.0-146.0"}}, {"uniqueid": "MTK0045:384PI804XT84HD5OI0IO61QOTMN0ST", "current_trial": 201, "dateTime": 1509050896246, "trialdata": {"rt": -1, "stimulus": "<p id=\"stim\">CONCERT</p>", "key_press": -1, "type": "PRES_VIS", "word": "concert", "wordID": 359, "conditions": [24, 800, "v", 12000], "trial": 5, "serialpos": 4, "trial_type": "single-stim", "trial_index": 201, "time_elapsed": 1360021, "internal_node_id": "0.0-147.0"}}, {"uniqueid": "MTK0045:384PI804XT84HD5OI0IO61QOTMN0ST", "current_trial": 202, "dateTime": 1509050898224, "trialdata": {"rt": -1, "stimulus": "<p id=\"stim\">LUNCH</p>", "key_press": -1, "type": "PRES_VIS", "word": "lunch", "wordID": 848, "conditions": [24, 800, "v", 12000], "trial": 5, "serialpos": 5, "trial_type": "single-stim", "trial_index": 202, "time_elapsed": 1362000, "internal_node_id": "0.0-148.0"}}, {"uniqueid": "MTK0045:384PI804XT84HD5OI0IO61QOTMN0ST", "current_trial": 203, "dateTime": 1509050900177, "trialdata": {"rt": -1, "stimulus": "<p id=\"stim\">BACON</p>", "key_press": -1, "type": "PRES_VIS", "word": "bacon", "wordID": 66, "conditions": [24, 800, "v", 12000], "trial": 5, "serialpos": 6, "trial_type": "single-stim", "trial_index": 203, "time_elapsed": 1363952, "internal_node_id": "0.0-149.0"}}, {"uniqueid": "MTK0045:384PI804XT84HD5OI0IO61QOTMN0ST", "current_trial": 204, "dateTime": 1509050902125, "trialdata": {"rt": -1, "stimulus": "<p id=\"stim\">PUDDLE</p>", "key_press": -1, "type": "PRES_VIS", "word": "puddle", "wordID": 1139, "conditions": [24, 800, "v", 12000], "trial": 5, "serialpos": 7, "trial_type": "single-stim", "trial_index": 204, "time_elapsed": 1365901, "internal_node_id": "0.0-150.0"}}, {"uniqueid": "MTK0045:384PI804XT84HD5OI0IO61QOTMN0ST", "current_trial": 205, "dateTime": 1509050904120, "trialdata": {"rt": -1, "stimulus": "<p id=\"stim\">PICTURE</p>", "key_press": -1, "type": "PRES_VIS", "word": "picture", "wordID": 1060, "conditions": [24, 800, "v", 12000], "trial": 5, "serialpos": 8, "trial_type": "single-stim", "trial_index": 205, "time_elapsed": 1367895, "internal_node_id": "0.0-151.0"}}, {"uniqueid": "MTK0045:384PI804XT84HD5OI0IO61QOTMN0ST", "current_trial": 206, "dateTime": 1509050905828, "trialdata": {"rt": -1, "stimulus": "<p id=\"stim\">PADDING</p>", "key_press": -1, "type": "PRES_VIS", "word": "padding", "wordID": 998, "conditions": [24, 800, "v", 12000], "trial": 5, "serialpos": 9, "trial_type": "single-stim", "trial_index": 206, "time_elapsed": 1369603, "internal_node_id": "0.0-152.0"}}, {"uniqueid": "MTK0045:384PI804XT84HD5OI0IO61QOTMN0ST", "current_trial": 207, "dateTime": 1509050907717, "trialdata": {"rt": -1, "stimulus": "<p id=\"stim\">GUITAR</p>", "key_press": -1, "type": "PRES_VIS", "word": "guitar", "wordID": 669, "conditions": [24, 800, "v", 12000], "trial": 5, "serialpos": 10, "trial_type": "single-stim", "trial_index": 207, "time_elapsed": 1371492, "internal_node_id": "0.0-153.0"}}, {"uniqueid": "MTK0045:384PI804XT84HD5OI0IO61QOTMN0ST", "current_trial": 208, "dateTime": 1509050909679, "trialdata": {"rt": -1, "stimulus": "<p id=\"stim\">STOMACH</p>", "key_press": -1, "type": "PRES_VIS", "word": "stomach", "wordID": 1383, "conditions": [24, 800, "v", 12000], "trial": 5, "serialpos": 11, "trial_type": "single-stim", "trial_index": 208, "time_elapsed": 1373454, "internal_node_id": "0.0-154.0"}}, {"uniqueid": "MTK0045:384PI804XT84HD5OI0IO61QOTMN0ST", "current_trial": 209, "dateTime": 1509050911626, "trialdata": {"rt": -1, "stimulus": "<p id=\"stim\">JELLY</p>", "key_press": -1, "type": "PRES_VIS", "word": "jelly", "wordID": 754, "conditions": [24, 800, "v", 12000], "trial": 5, "serialpos": 12, "trial_type": "single-stim", "trial_index": 209, "time_elapsed": 1375401, "internal_node_id": "0.0-155.0"}}, {"uniqueid": "MTK0045:384PI804XT84HD5OI0IO61QOTMN0ST", "current_trial": 210, "dateTime": 1509050913253, "trialdata": {"rt": -1, "stimulus": "<p id=\"stim\">SUNRISE</p>", "key_press": -1, "type": "PRES_VIS", "word": "sunrise", "wordID": 1406, "conditions": [24, 800, "v", 12000], "trial": 5, "serialpos": 13, "trial_type": "single-stim", "trial_index": 210, "time_elapsed": 1377027, "internal_node_id": "0.0-156.0"}}, {"uniqueid": "MTK0045:384PI804XT84HD5OI0IO61QOTMN0ST", "current_trial": 211, "dateTime": 1509050915256, "trialdata": {"rt": -1, "stimulus": "<p id=\"stim\">TYPIST</p>", "key_press": -1, "type": "PRES_VIS", "word": "typist", "wordID": 1531, "conditions": [24, 800, "v", 12000], "trial": 5, "serialpos": 14, "trial_type": "single-stim", "trial_index": 211, "time_elapsed": 1379032, "internal_node_id": "0.0-157.0"}}, {"uniqueid": "MTK0045:384PI804XT84HD5OI0IO61QOTMN0ST", "current_trial": 212, "dateTime": 1509050917144, "trialdata": {"rt": -1, "stimulus": "<p id=\"stim\">BASEMENT</p>", "key_press": -1, "type": "PRES_VIS", "word": "basement", "wordID": 93, "conditions": [24, 800, "v", 12000], "trial": 5, "serialpos": 15, "trial_type": "single-stim", "trial_index": 212, "time_elapsed": 1380920, "internal_node_id": "0.0-158.0"}}, {"uniqueid": "MTK0045:384PI804XT84HD5OI0IO61QOTMN0ST", "current_trial": 213, "dateTime": 1509050918825, "trialdata": {"rt": -1, "stimulus": "<p id=\"stim\">LETTUCE</p>", "key_press": -1, "type": "PRES_VIS", "word": "lettuce", "wordID": 813, "conditions": [24, 800, "v", 12000], "trial": 5, "serialpos": 16, "trial_type": "single-stim", "trial_index": 213, "time_elapsed": 1382600, "internal_node_id": "0.0-159.0"}}, {"uniqueid": "MTK0045:384PI804XT84HD5OI0IO61QOTMN0ST", "current_trial": 214, "dateTime": 1509050920740, "trialdata": {"rt": -1, "stimulus": "<p id=\"stim\">COFFEE</p>", "key_press": -1, "type": "PRES_VIS", "word": "coffee", "wordID": 340, "conditions": [24, 800, "v", 12000], "trial": 5, "serialpos": 17, "trial_type": "single-stim", "trial_index": 214, "time_elapsed": 1384516, "internal_node_id": "0.0-160.0"}}, {"uniqueid": "MTK0045:384PI804XT84HD5OI0IO61QOTMN0ST", "current_trial": 215, "dateTime": 1509050922530, "trialdata": {"rt": -1, "stimulus": "<p id=\"stim\">SODA</p>", "key_press": -1, "type": "PRES_VIS", "word": "soda", "wordID": 1340, "conditions": [24, 800, "v", 12000], "trial": 5, "serialpos": 18, "trial_type": "single-stim", "trial_index": 215, "time_elapsed": 1386305, "internal_node_id": "0.0-161.0"}}, {"uniqueid": "MTK0045:384PI804XT84HD5OI0IO61QOTMN0ST", "current_trial": 216, "dateTime": 1509050924268, "trialdata": {"rt": -1, "stimulus": "<p id=\"stim\">CAFE</p>", "key_press": -1, "type": "PRES_VIS", "word": "cafe", "wordID": 215, "conditions": [24, 800, "v", 12000], "trial": 5, "serialpos": 19, "trial_type": "single-stim", "trial_index": 216, "time_elapsed": 1388044, "internal_node_id": "0.0-162.0"}}, {"uniqueid": "MTK0045:384PI804XT84HD5OI0IO61QOTMN0ST", "current_trial": 217, "dateTime": 1509050926047, "trialdata": {"rt": -1, "stimulus": "<p id=\"stim\">EXPERT</p>", "key_press": -1, "type": "PRES_VIS", "word": "expert", "wordID": 542, "conditions": [24, 800, "v", 12000], "trial": 5, "serialpos": 20, "trial_type": "single-stim", "trial_index": 217, "time_elapsed": 1389822, "internal_node_id": "0.0-163.0"}}, {"uniqueid": "MTK0045:384PI804XT84HD5OI0IO61QOTMN0ST", "current_trial": 218, "dateTime": 1509050927861, "trialdata": {"rt": -1, "stimulus": "<p id=\"stim\">AGENT</p>", "key_press": -1, "type": "PRES_VIS", "word": "agent", "wordID": 9, "conditions": [24, 800, "v", 12000], "trial": 5, "serialpos": 21, "trial_type": "single-stim", "trial_index": 218, "time_elapsed": 1391637, "internal_node_id": "0.0-164.0"}}, {"uniqueid": "MTK0045:384PI804XT84HD5OI0IO61QOTMN0ST", "current_trial": 219, "dateTime": 1509050929781, "trialdata": {"rt": -1, "stimulus": "<p id=\"stim\">FRUIT</p>", "key_press": -1, "type": "PRES_VIS", "word": "fruit", "wordID": 609, "conditions": [24, 800, "v", 12000], "trial": 5, "serialpos": 22, "trial_type": "single-stim", "trial_index": 219, "time_elapsed": 1393556, "internal_node_id": "0.0-165.0"}}, {"uniqueid": "MTK0045:384PI804XT84HD5OI0IO61QOTMN0ST", "current_trial": 220, "dateTime": 1509050931445, "trialdata": {"rt": -1, "stimulus": "<p id=\"stim\">DUSTPAN</p>", "key_press": -1, "type": "PRES_VIS", "word": "dustpan", "wordID": 508, "conditions": [24, 800, "v", 12000], "trial": 5, "serialpos": 23, "trial_type": "single-stim", "trial_index": 220, "time_elapsed": 1395221, "internal_node_id": "0.0-166.0"}}, {"uniqueid": "MTK0045:384PI804XT84HD5OI0IO61QOTMN0ST", "current_trial": 221, "dateTime": 1509050933603, "trialdata": {"rt": -1, "stimulus": "", "key_press": -1, "type": "PRE_RECALL_DELAY", "trial_type": "single-stim", "trial_index": 221, "time_elapsed": 1397379, "internal_node_id": "0.0-167.0-0.0"}}, {"uniqueid": "MTK0045:384PI804XT84HD5OI0IO61QOTMN0ST", "current_trial": 222, "dateTime": 1509050934113, "trialdata": {"rt": -1000, "stimulus": "/static/audio/400Hz.wav", "key_press": -1, "type": "PRE_RECALL_ALERT", "trial_type": "single-audio", "trial_index": 222, "time_elapsed": 1397888, "internal_node_id": "0.0-168.0"}}, {"uniqueid": "MTK0045:384PI804XT84HD5OI0IO61QOTMN0ST", "current_trial": 223, "dateTime": 1509050994137, "trialdata": {"rt": [4135, 6802, 10495, 13746, 15702, 18540, 21891, 25383, 30361, 32826, 34668], "recwords": ["agent", "dustpan", "jelly", "pad", "lamp", "girl", "soda", "picture", "lunch", "girl", "paddle"], "type": "FREE_RECALL", "conditions": [24, 800, "v", 12000], "trial": 5, "trial_type": "free-recall", "trial_index": 223, "time_elapsed": 1457912, "internal_node_id": "0.0-169.0-0.0"}}, {"uniqueid": "MTK0045:384PI804XT84HD5OI0IO61QOTMN0ST", "current_trial": 224, "dateTime": 1509051032877, "trialdata": {"rt": 36733, "key_press": 32, "type": "INSTRUCTIONS", "trial_type": "text", "trial_index": 224, "time_elapsed": 1496652, "internal_node_id": "0.0-170.0"}}, {"uniqueid": "MTK0045:384PI804XT84HD5OI0IO61QOTMN0ST", "current_trial": 225, "dateTime": 1509051046892, "trialdata": {"rt": [3118, 6623, 9556, 11843], "responses": ["15", "17", "14", "14"], "num1": [8, 8, 3, 3, 3], "num2": [5, 8, 5, 8, 2], "num3": [2, 1, 6, 3, 6], "type": "DISTRACTOR", "conditions": [12, 1600, "a", 12000], "trial": 6, "trial_type": "math-distractor", "trial_index": 225, "time_elapsed": 1510668, "internal_node_id": "0.0-171.0"}}, {"uniqueid": "MTK0045:384PI804XT84HD5OI0IO61QOTMN0ST", "current_trial": 226, "dateTime": 1509051049901, "trialdata": {"rt": -1, "stimulus": "<p id=\"stim\">10</p>", "key_press": -1, "trial_type": "single-stim", "trial_index": 226, "time_elapsed": 1513676, "internal_node_id": "0.0-172.0-0.0"}}, {"uniqueid": "MTK0045:384PI804XT84HD5OI0IO61QOTMN0ST", "current_trial": 227, "dateTime": 1509051050908, "trialdata": {"rt": -1, "stimulus": "<p id=\"stim\">9</p>", "key_press": -1, "trial_type": "single-stim", "trial_index": 227, "time_elapsed": 1514683, "internal_node_id": "0.0-172.0-1.0"}}, {"uniqueid": "MTK0045:384PI804XT84HD5OI0IO61QOTMN0ST", "current_trial": 228, "dateTime": 1509051051922, "trialdata": {"rt": -1, "stimulus": "<p id=\"stim\">8</p>", "key_press": -1, "trial_type": "single-stim", "trial_index": 228, "time_elapsed": 1515691, "internal_node_id": "0.0-172.0-2.0"}}, {"uniqueid": "MTK0045:384PI804XT84HD5OI0IO61QOTMN0ST", "current_trial": 229, "dateTime": 1509051052927, "trialdata": {"rt": -1, "stimulus": "<p id=\"stim\">7</p>", "key_press": -1, "trial_type": "single-stim", "trial_index": 229, "time_elapsed": 1516702, "internal_node_id": "0.0-172.0-3.0"}}, {"uniqueid": "MTK0045:384PI804XT84HD5OI0IO61QOTMN0ST", "current_trial": 230, "dateTime": 1509051053932, "trialdata": {"rt": -1, "stimulus": "<p id=\"stim\">6</p>", "key_press": -1, "trial_type": "single-stim", "trial_index": 230, "time_elapsed": 1517707, "internal_node_id": "0.0-172.0-4.0"}}, {"uniqueid": "MTK0045:384PI804XT84HD5OI0IO61QOTMN0ST", "current_trial": 231, "dateTime": 1509051054940, "trialdata": {"rt": -1, "stimulus": "<p id=\"stim\">5</p>", "key_press": -1, "trial_type": "single-stim", "trial_index": 231, "time_elapsed": 1518715, "internal_node_id": "0.0-172.0-5.0"}}, {"uniqueid": "MTK0045:384PI804XT84HD5OI0IO61QOTMN0ST", "current_trial": 232, "dateTime": 1509051055945, "trialdata": {"rt": -1, "stimulus": "<p id=\"stim\">4</p>", "key_press": -1, "trial_type": "single-stim", "trial_index": 232, "time_elapsed": 1519720, "internal_node_id": "0.0-172.0-6.0"}}, {"uniqueid": "MTK0045:384PI804XT84HD5OI0IO61QOTMN0ST", "current_trial": 233, "dateTime": 1509051056950, "trialdata": {"rt": -1, "stimulus": "<p id=\"stim\">3</p>", "key_press": -1, "trial_type": "single-stim", "trial_index": 233, "time_elapsed": 1520726, "internal_node_id": "0.0-172.0-7.0"}}, {"uniqueid": "MTK0045:384PI804XT84HD5OI0IO61QOTMN0ST", "current_trial": 234, "dateTime": 1509051057956, "trialdata": {"rt": -1, "stimulus": "<p id=\"stim\">2</p>", "key_press": -1, "trial_type": "single-stim", "trial_index": 234, "time_elapsed": 1521731, "internal_node_id": "0.0-172.0-8.0"}}, {"uniqueid": "MTK0045:384PI804XT84HD5OI0IO61QOTMN0ST", "current_trial": 235, "dateTime": 1509051058963, "trialdata": {"rt": -1, "stimulus": "<p id=\"stim\">1</p>", "key_press": -1, "trial_type": "single-stim", "trial_index": 235, "time_elapsed": 1522739, "internal_node_id": "0.0-172.0-9.0"}}, {"uniqueid": "MTK0045:384PI804XT84HD5OI0IO61QOTMN0ST", "current_trial": 236, "dateTime": 1509051060466, "trialdata": {"rt": -1, "stimulus": "<p id=\"stim\">+</p>", "key_press": -1, "type": "FIXATION", "trial_type": "single-stim", "trial_index": 236, "time_elapsed": 1524242, "internal_node_id": "0.0-173.0-0.0"}}, {"uniqueid": "MTK0045:384PI804XT84HD5OI0IO61QOTMN0ST", "current_trial": 237, "dateTime": 1509051063041, "trialdata": {"rt": -1000, "stimulus": "/static/audio/wordpool/SEAL.wav", "key_press": -1, "type": "PRES_AUD", "word": "seal", "wordID": 1261, "conditions": [12, 1600, "a", 12000], "trial": 6, "serialpos": 0, "trial_type": "single-audio", "trial_index": 237, "time_elapsed": 1526816, "internal_node_id": "0.0-174.0"}}, {"uniqueid": "MTK0045:384PI804XT84HD5OI0IO61QOTMN0ST", "current_trial": 238, "dateTime": 1509051065477, "trialdata": {"rt": -1000, "stimulus": "/static/audio/wordpool/DINER.wav", "key_press": -1, "type": "PRES_AUD", "word": "diner", "wordID": 466, "conditions": [12, 1600, "a", 12000], "trial": 6, "serialpos": 1, "trial_type": "single-audio", "trial_index": 238, "time_elapsed": 1529252, "internal_node_id": "0.0-175.0"}}, {"uniqueid": "MTK0045:384PI804XT84HD5OI0IO61QOTMN0ST", "current_trial": 239, "dateTime": 1509051068113, "trialdata": {"rt": -1000, "stimulus": "/static/audio/wordpool/FEMALE.wav", "key_press": -1, "type": "PRES_AUD", "word": "female", "wordID": 558, "conditions": [12, 1600, "a", 12000], "trial": 6, "serialpos": 2, "trial_type": "single-audio", "trial_index": 239, "time_elapsed": 1531888, "internal_node_id": "0.0-176.0"}}, {"uniqueid": "MTK0045:384PI804XT84HD5OI0IO61QOTMN0ST", "current_trial": 240, "dateTime": 1509051070620, "trialdata": {"rt": -1000, "stimulus": "/static/audio/wordpool/STAMP.wav", "key_press": -1, "type": "PRES_AUD", "word": "stamp", "wordID": 1369, "conditions": [12, 1600, "a", 12000], "trial": 6, "serialpos": 3, "trial_type": "single-audio", "trial_index": 240, "time_elapsed": 1534396, "internal_node_id": "0.0-177.0"}}, {"uniqueid": "MTK0045:384PI804XT84HD5OI0IO61QOTMN0ST", "current_trial": 241, "dateTime": 1509051073232, "trialdata": {"rt": -1000, "stimulus": "/static/audio/wordpool/INFANT.wav", "key_press": -1, "type": "PRES_AUD", "word": "infant", "wordID": 736, "conditions": [12, 1600, "a", 12000], "trial": 6, "serialpos": 4, "trial_type": "single-audio", "trial_index": 241, "time_elapsed": 1537007, "internal_node_id": "0.0-178.0"}}, {"uniqueid": "MTK0045:384PI804XT84HD5OI0IO61QOTMN0ST", "current_trial": 242, "dateTime": 1509051075736, "trialdata": {"rt": -1000, "stimulus": "/static/audio/wordpool/OX.wav", "key_press": -1, "type": "PRES_AUD", "word": "ox", "wordID": 993, "conditions": [12, 1600, "a", 12000], "trial": 6, "serialpos": 5, "trial_type": "single-audio", "trial_index": 242, "time_elapsed": 1539512, "internal_node_id": "0.0-179.0"}}, {"uniqueid": "MTK0045:384PI804XT84HD5OI0IO61QOTMN0ST", "current_trial": 243, "dateTime": 1509051078525, "trialdata": {"rt": -1000, "stimulus": "/static/audio/wordpool/SANDWICH.wav", "key_press": -1, "type": "PRES_AUD", "word": "sandwich", "wordID": 1231, "conditions": [12, 1600, "a", 12000], "trial": 6, "serialpos": 6, "trial_type": "single-audio", "trial_index": 243, "time_elapsed": 1542300, "internal_node_id": "0.0-180.0"}}, {"uniqueid": "MTK0045:384PI804XT84HD5OI0IO61QOTMN0ST", "current_trial": 244, "dateTime": 1509051081275, "trialdata": {"rt": -1000, "stimulus": "/static/audio/wordpool/STUDENT.wav", "key_press": -1, "type": "PRES_AUD", "word": "student", "wordID": 1394, "conditions": [12, 1600, "a", 12000], "trial": 6, "serialpos": 7, "trial_type": "single-audio", "trial_index": 244, "time_elapsed": 1545051, "internal_node_id": "0.0-181.0"}}, {"uniqueid": "MTK0045:384PI804XT84HD5OI0IO61QOTMN0ST", "current_trial": 245, "dateTime": 1509051083911, "trialdata": {"rt": -1000, "stimulus": "/static/audio/wordpool/SISTER.wav", "key_press": -1, "type": "PRES_AUD", "word": "sister", "wordID": 1311, "conditions": [12, 1600, "a", 12000], "trial": 6, "serialpos": 8, "trial_type": "single-audio", "trial_index": 245, "time_elapsed": 1547685, "internal_node_id": "0.0-182.0"}}, {"uniqueid": "MTK0045:384PI804XT84HD5OI0IO61QOTMN0ST", "current_trial": 246, "dateTime": 1509051086456, "trialdata": {"rt": -1000, "stimulus": "/static/audio/wordpool/COBRA.wav", "key_press": -1, "type": "PRES_AUD", "word": "cobra", "wordID": 335, "conditions": [12, 1600, "a", 12000], "trial": 6, "serialpos": 9, "trial_type": "single-audio", "trial_index": 246, "time_elapsed": 1550232, "internal_node_id": "0.0-183.0"}}, {"uniqueid": "MTK0045:384PI804XT84HD5OI0IO61QOTMN0ST", "current_trial": 247, "dateTime": 1509051089143, "trialdata": {"rt": -1000, "stimulus": "/static/audio/wordpool/BUNNY.wav", "key_press": -1, "type": "PRES_AUD", "word": "bunny", "wordID": 197, "conditions": [12, 1600, "a", 12000], "trial": 6, "serialpos": 10, "trial_type": "single-audio", "trial_index": 247, "time_elapsed": 1552919, "internal_node_id": "0.0-184.0"}}, {"uniqueid": "MTK0045:384PI804XT84HD5OI0IO61QOTMN0ST", "current_trial": 248, "dateTime": 1509051091718, "trialdata": {"rt": -1000, "stimulus": "/static/audio/wordpool/RABBIT.wav", "key_press": -1, "type": "PRES_AUD", "word": "rabbit", "wordID": 1151, "conditions": [12, 1600, "a", 12000], "trial": 6, "serialpos": 11, "trial_type": "single-audio", "trial_index": 248, "time_elapsed": 1555493, "internal_node_id": "0.0-185.0"}}, {"uniqueid": "MTK0045:384PI804XT84HD5OI0IO61QOTMN0ST", "current_trial": 249, "dateTime": 1509051093054, "trialdata": {"rt": -1, "stimulus": "", "key_press": -1, "type": "PRE_RECALL_DELAY", "trial_type": "single-stim", "trial_index": 249, "time_elapsed": 1556829, "internal_node_id": "0.0-186.0-0.0"}}, {"uniqueid": "MTK0045:384PI804XT84HD5OI0IO61QOTMN0ST", "current_trial": 250, "dateTime": 1509051093562, "trialdata": {"rt": -1000, "stimulus": "/static/audio/400Hz.wav", "key_press": -1, "type": "PRE_RECALL_ALERT", "trial_type": "single-audio", "trial_index": 250, "time_elapsed": 1557338, "internal_node_id": "0.0-187.0"}}, {"uniqueid": "MTK0045:384PI804XT84HD5OI0IO61QOTMN0ST", "current_trial": 251, "dateTime": 1509051153575, "trialdata": {"rt": [5761, 7998, 10787, 16476, 19571, 22304, 30808], "recwords": ["cobra", "sister", "funny", "rabbit", "sandwich", "student", "female"], "type": "FREE_RECALL", "conditions": [12, 1600, "a", 12000], "trial": 6, "trial_type": "free-recall", "trial_index": 251, "time_elapsed": 1617350, "internal_node_id": "0.0-188.0-0.0"}}, {"uniqueid": "MTK0045:384PI804XT84HD5OI0IO61QOTMN0ST", "current_trial": 252, "dateTime": 1509051193047, "trialdata": {"rt": 37468, "key_press": 32, "type": "INSTRUCTIONS", "trial_type": "text", "trial_index": 252, "time_elapsed": 1656822, "internal_node_id": "0.0-189.0"}}, {"uniqueid": "MTK0045:384PI804XT84HD5OI0IO61QOTMN0ST", "current_trial": 253, "dateTime": 1509051219061, "trialdata": {"rt": [2985, 6723, 9533, 12508, 15196, 18511, 21702, 23603], "responses": ["12", "21", "16", "14", "17", "22", "11", "17"], "num1": [1, 9, 1, 7, 9, 5, 4, 7, 7], "num2": [5, 4, 8, 4, 6, 8, 2, 1, 5], "num3": [6, 8, 7, 3, 2, 9, 5, 9, 4], "type": "DISTRACTOR", "conditions": [24, 1600, "v", 24000], "trial": 7, "trial_type": "math-distractor", "trial_index": 253, "time_elapsed": 1682837, "internal_node_id": "0.0-190.0"}}, {"uniqueid": "MTK0045:384PI804XT84HD5OI0IO61QOTMN0ST", "current_trial": 254, "dateTime": 1509051222072, "trialdata": {"rt": -1, "stimulus": "<p id=\"stim\">10</p>", "key_press": -1, "trial_type": "single-stim", "trial_index": 254, "time_elapsed": 1685848, "internal_node_id": "0.0-191.0-0.0"}}, {"uniqueid": "MTK0045:384PI804XT84HD5OI0IO61QOTMN0ST", "current_trial": 255, "dateTime": 1509051223078, "trialdata": {"rt": -1, "stimulus": "<p id=\"stim\">9</p>", "key_press": -1, "trial_type": "single-stim", "trial_index": 255, "time_elapsed": 1686854, "internal_node_id": "0.0-191.0-1.0"}}, {"uniqueid": "MTK0045:384PI804XT84HD5OI0IO61QOTMN0ST", "current_trial": 256, "dateTime": 1509051224086, "trialdata": {"rt": -1, "stimulus": "<p id=\"stim\">8</p>", "key_press": -1, "trial_type": "single-stim", "trial_index": 256, "time_elapsed": 1687861, "internal_node_id": "0.0-191.0-2.0"}}, {"uniqueid": "MTK0045:384PI804XT84HD5OI0IO61QOTMN0ST", "current_trial": 257, "dateTime": 1509051225092, "trialdata": {"rt": -1, "stimulus": "<p id=\"stim\">7</p>", "key_press": -1, "trial_type": "single-stim", "trial_index": 257, "time_elapsed": 1688867, "internal_node_id": "0.0-191.0-3.0"}}, {"uniqueid": "MTK0045:384PI804XT84HD5OI0IO61QOTMN0ST", "current_trial": 258, "dateTime": 1509051226098, "trialdata": {"rt": -1, "stimulus": "<p id=\"stim\">6</p>", "key_press": -1, "trial_type": "single-stim", "trial_index": 258, "time_elapsed": 1689873, "internal_node_id": "0.0-191.0-4.0"}}, {"uniqueid": "MTK0045:384PI804XT84HD5OI0IO61QOTMN0ST", "current_trial": 259, "dateTime": 1509051227103, "trialdata": {"rt": -1, "stimulus": "<p id=\"stim\">5</p>", "key_press": -1, "trial_type": "single-stim", "trial_index": 259, "time_elapsed": 1690878, "internal_node_id": "0.0-191.0-5.0"}}, {"uniqueid": "MTK0045:384PI804XT84HD5OI0IO61QOTMN0ST", "current_trial": 260, "dateTime": 1509051228109, "trialdata": {"rt": -1, "stimulus": "<p id=\"stim\">4</p>", "key_press": -1, "trial_type": "single-stim", "trial_index": 260, "time_elapsed": 1691883, "internal_node_id": "0.0-191.0-6.0"}}, {"uniqueid": "MTK0045:384PI804XT84HD5OI0IO61QOTMN0ST", "current_trial": 261, "dateTime": 1509051229114, "trialdata": {"rt": -1, "stimulus": "<p id=\"stim\">3</p>", "key_press": -1, "trial_type": "single-stim", "trial_index": 261, "time_elapsed": 1692890, "internal_node_id": "0.0-191.0-7.0"}}, {"uniqueid": "MTK0045:384PI804XT84HD5OI0IO61QOTMN0ST", "current_trial": 262, "dateTime": 1509051230122, "trialdata": {"rt": -1, "stimulus": "<p id=\"stim\">2</p>", "key_press": -1, "trial_type": "single-stim", "trial_index": 262, "time_elapsed": 1693897, "internal_node_id": "0.0-191.0-8.0"}}, {"uniqueid": "MTK0045:384PI804XT84HD5OI0IO61QOTMN0ST", "current_trial": 263, "dateTime": 1509051231129, "trialdata": {"rt": -1, "stimulus": "<p id=\"stim\">1</p>", "key_press": -1, "trial_type": "single-stim", "trial_index": 263, "time_elapsed": 1694905, "internal_node_id": "0.0-191.0-9.0"}}, {"uniqueid": "MTK0045:384PI804XT84HD5OI0IO61QOTMN0ST", "current_trial": 264, "dateTime": 1509051232635, "trialdata": {"rt": -1, "stimulus": "<p id=\"stim\">+</p>", "key_press": -1, "type": "FIXATION", "trial_type": "single-stim", "trial_index": 264, "time_elapsed": 1696410, "internal_node_id": "0.0-192.0-0.0"}}, {"uniqueid": "MTK0045:384PI804XT84HD5OI0IO61QOTMN0ST", "current_trial": 265, "dateTime": 1509051234239, "trialdata": {"rt": -1, "stimulus": "<p id=\"stim\">DOLPHIN</p>", "key_press": -1, "type": "PRES_VIS", "word": "dolphin", "wordID": 482, "conditions": [24, 1600, "v", 24000], "trial": 7, "serialpos": 0, "trial_type": "single-stim", "trial_index": 265, "time_elapsed": 1698014, "internal_node_id": "0.0-193.0"}}, {"uniqueid": "MTK0045:384PI804XT84HD5OI0IO61QOTMN0ST", "current_trial": 266, "dateTime": 1509051236989, "trialdata": {"rt": -1, "stimulus": "<p id=\"stim\">PADDLE</p>", "key_press": -1, "type": "PRES_VIS", "word": "paddle", "wordID": 999, "conditions": [24, 1600, "v", 24000], "trial": 7, "serialpos": 1, "trial_type": "single-stim", "trial_index": 266, "time_elapsed": 1700764, "internal_node_id": "0.0-194.0"}}, {"uniqueid": "MTK0045:384PI804XT84HD5OI0IO61QOTMN0ST", "current_trial": 267, "dateTime": 1509051239605, "trialdata": {"rt": -1, "stimulus": "<p id=\"stim\">TILE</p>", "key_press": -1, "type": "PRES_VIS", "word": "tile", "wordID": 1467, "conditions": [24, 1600, "v", 24000], "trial": 7, "serialpos": 2, "trial_type": "single-stim", "trial_index": 267, "time_elapsed": 1703381, "internal_node_id": "0.0-195.0"}}, {"uniqueid": "MTK0045:384PI804XT84HD5OI0IO61QOTMN0ST", "current_trial": 268, "dateTime": 1509051242185, "trialdata": {"rt": -1, "stimulus": "<p id=\"stim\">DIME</p>", "key_press": -1, "type": "PRES_VIS", "word": "dime", "wordID": 465, "conditions": [24, 1600, "v", 24000], "trial": 7, "serialpos": 3, "trial_type": "single-stim", "trial_index": 268, "time_elapsed": 1705960, "internal_node_id": "0.0-196.0"}}, {"uniqueid": "MTK0045:384PI804XT84HD5OI0IO61QOTMN0ST", "current_trial": 269, "dateTime": 1509051244885, "trialdata": {"rt": -1, "stimulus": "<p id=\"stim\">TWEEZERS</p>", "key_press": -1, "type": "PRES_VIS", "word": "tweezers", "wordID": 1525, "conditions": [24, 1600, "v", 24000], "trial": 7, "serialpos": 4, "trial_type": "single-stim", "trial_index": 269, "time_elapsed": 1708660, "internal_node_id": "0.0-197.0"}}, {"uniqueid": "MTK0045:384PI804XT84HD5OI0IO61QOTMN0ST", "current_trial": 270, "dateTime": 1509051247444, "trialdata": {"rt": -1, "stimulus": "<p id=\"stim\">FIREPLACE</p>", "key_press": -1, "type": "PRES_VIS", "word": "fireplace", "wordID": 569, "conditions": [24, 1600, "v", 24000], "trial": 7, "serialpos": 5, "trial_type": "single-stim", "trial_index": 270, "time_elapsed": 1711219, "internal_node_id": "0.0-198.0"}}, {"uniqueid": "MTK0045:384PI804XT84HD5OI0IO61QOTMN0ST", "current_trial": 271, "dateTime": 1509051249920, "trialdata": {"rt": -1, "stimulus": "<p id=\"stim\">SWAMP</p>", "key_press": -1, "type": "PRES_VIS", "word": "swamp", "wordID": 1415, "conditions": [24, 1600, "v", 24000], "trial": 7, "serialpos": 6, "trial_type": "single-stim", "trial_index": 271, "time_