{"condition": 0, "counterbalance": 328, "assignmentId": "3QAVNHZ3ENBDED8GQTIGJLO6AMRLA7", "workerId": "MTK0153", "hitId": "3FSEU3P2NR7ET8RG7MWWB3QV3XIRRV", "currenttrial": 625, "bonus": 0, "data": [{"uniqueid": "MTK0153:3QAVNHZ3ENBDED8GQTIGJLO6AMRLA7", "current_trial": 0, "dateTime": 1509297728278, "trialdata": {"rt": 2661, "key_press": 32, "type": "INSTRUCTIONS", "trial_type": "text", "trial_index": 0, "time_elapsed": 2665, "internal_node_id": "0.0-0.0"}}, {"uniqueid": "MTK0153:3QAVNHZ3ENBDED8GQTIGJLO6AMRLA7", "current_trial": 1, "dateTime": 1509298005338, "trialdata": {"rt": 277057, "key_press": 32, "type": "INSTRUCTIONS", "trial_type": "text", "trial_index": 1, "time_elapsed": 279727, "internal_node_id": "0.0-1.0"}}, {"uniqueid": "MTK0153:3QAVNHZ3ENBDED8GQTIGJLO6AMRLA7", "current_trial": 2, "dateTime": 1509298287897, "trialdata": {"rt": [43645, 143662, 155415, 204227, 252457, 282541], "responses": ["pushing", "boshing", "busing", "motion", "motion", "ocean"], "type": "AUDIO_TEST", "trial_type": "audio-test", "trial_index": 2, "time_elapsed": 562286, "internal_node_id": "0.0-2.0"}}, {"uniqueid": "MTK0153:3QAVNHZ3ENBDED8GQTIGJLO6AMRLA7", "current_trial": 3, "dateTime": 1509298301187, "trialdata": {"rt": [13280], "responses": ["crystal"], "type": "AUDIO_TEST", "trial_type": "audio-test", "trial_index": 3, "time_elapsed": 575576, "internal_node_id": "0.0-3.0"}}, {"uniqueid": "MTK0153:3QAVNHZ3ENBDED8GQTIGJLO6AMRLA7", "current_trial": 4, "dateTime": 1509298312278, "trialdata": {"rt": [11081], "responses": ["spice"], "type": "AUDIO_TEST", "trial_type": "audio-test", "trial_index": 4, "time_elapsed": 586667, "internal_node_id": "0.0-4.0"}}, {"uniqueid": "MTK0153:3QAVNHZ3ENBDED8GQTIGJLO6AMRLA7", "current_trial": 5, "dateTime": 1509298331778, "trialdata": {"rt": 18748, "key_press": 32, "type": "INSTRUCTIONS", "trial_type": "text", "trial_index": 5, "time_elapsed": 606167, "internal_node_id": "0.0-5.0"}}, {"uniqueid": "MTK0153:3QAVNHZ3ENBDED8GQTIGJLO6AMRLA7", "current_trial": 6, "dateTime": 1509298390383, "trialdata": {"rt": 58604, "key_press": 32, "type": "INSTRUCTIONS", "trial_type": "text", "trial_index": 6, "time_elapsed": 664771, "internal_node_id": "0.0-6.0"}}, {"uniqueid": "MTK0153:3QAVNHZ3ENBDED8GQTIGJLO6AMRLA7", "current_trial": 7, "dateTime": 1509298404764, "trialdata": {"rt": 14379, "key_press": 32, "type": "INSTRUCTIONS", "trial_type": "text", "trial_index": 7, "time_elapsed": 679152, "internal_node_id": "0.0-7.0"}}, {"uniqueid": "MTK0153:3QAVNHZ3ENBDED8GQTIGJLO6AMRLA7", "current_trial": 8, "dateTime": 1509298417106, "trialdata": {"rt": 12341, "key_press": 32, "type": "INSTRUCTIONS", "trial_type": "text", "trial_index": 8, "time_elapsed": 691495, "internal_node_id": "0.0-8.0"}}, {"uniqueid": "MTK0153:3QAVNHZ3ENBDED8GQTIGJLO6AMRLA7", "current_trial": 9, "dateTime": 1509298436124, "trialdata": {"rt": [5426, 10871, 14309], "responses": ["8", "16", "7"], "num1": [4, 6, 3, 8], "num2": [3, 9, 3, 9], "num3": [1, 1, 1, 1], "type": "DISTRACTOR", "conditions": [18, 1200, "a", 18000], "trial": 0, "trial_type": "math-distractor", "trial_index": 9, "time_elapsed": 710513, "internal_node_id": "0.0-9.0"}}, {"uniqueid": "MTK0153:3QAVNHZ3ENBDED8GQTIGJLO6AMRLA7", "current_trial": 10, "dateTime": 1509298439126, "trialdata": {"rt": -1, "stimulus": "<p id=\"stim\">10</p>", "key_press": -1, "trial_type": "single-stim", "trial_index": 10, "time_elapsed": 713515, "internal_node_id": "0.0-10.0-0.0"}}, {"uniqueid": "MTK0153:3QAVNHZ3ENBDED8GQTIGJLO6AMRLA7", "current_trial": 11, "dateTime": 1509298440128, "trialdata": {"rt": -1, "stimulus": "<p id=\"stim\">9</p>", "key_press": -1, "trial_type": "single-stim", "trial_index": 11, "time_elapsed": 714517, "internal_node_id": "0.0-10.0-1.0"}}, {"uniqueid": "MTK0153:3QAVNHZ3ENBDED8GQTIGJLO6AMRLA7", "current_trial": 12, "dateTime": 1509298441129, "trialdata": {"rt": -1, "stimulus": "<p id=\"stim\">8</p>", "key_press": -1, "trial_type": "single-stim", "trial_index": 12, "time_elapsed": 715518, "internal_node_id": "0.0-10.0-2.0"}}, {"uniqueid": "MTK0153:3QAVNHZ3ENBDED8GQTIGJLO6AMRLA7", "current_trial": 13, "dateTime": 1509298442131, "trialdata": {"rt": -1, "stimulus": "<p id=\"stim\">7</p>", "key_press": -1, "trial_type": "single-stim", "trial_index": 13, "time_elapsed": 716520, "internal_node_id": "0.0-10.0-3.0"}}, {"uniqueid": "MTK0153:3QAVNHZ3ENBDED8GQTIGJLO6AMRLA7", "current_trial": 14, "dateTime": 1509298443132, "trialdata": {"rt": -1, "stimulus": "<p id=\"stim\">6</p>", "key_press": -1, "trial_type": "single-stim", "trial_index": 14, "time_elapsed": 717521, "internal_node_id": "0.0-10.0-4.0"}}, {"uniqueid": "MTK0153:3QAVNHZ3ENBDED8GQTIGJLO6AMRLA7", "current_trial": 15, "dateTime": 1509298444133, "trialdata": {"rt": -1, "stimulus": "<p id=\"stim\">5</p>", "key_press": -1, "trial_type": "single-stim", "trial_index": 15, "time_elapsed": 718522, "internal_node_id": "0.0-10.0-5.0"}}, {"uniqueid": "MTK0153:3QAVNHZ3ENBDED8GQTIGJLO6AMRLA7", "current_trial": 16, "dateTime": 1509298445134, "trialdata": {"rt": -1, "stimulus": "<p id=\"stim\">4</p>", "key_press": -1, "trial_type": "single-stim", "trial_index": 16, "time_elapsed": 719523, "internal_node_id": "0.0-10.0-6.0"}}, {"uniqueid": "MTK0153:3QAVNHZ3ENBDED8GQTIGJLO6AMRLA7", "current_trial": 17, "dateTime": 1509298446135, "trialdata": {"rt": -1, "stimulus": "<p id=\"stim\">3</p>", "key_press": -1, "trial_type": "single-stim", "trial_index": 17, "time_elapsed": 720523, "internal_node_id": "0.0-10.0-7.0"}}, {"uniqueid": "MTK0153:3QAVNHZ3ENBDED8GQTIGJLO6AMRLA7", "current_trial": 18, "dateTime": 1509298447136, "trialdata": {"rt": -1, "stimulus": "<p id=\"stim\">2</p>", "key_press": -1, "trial_type": "single-stim", "trial_index": 18, "time_elapsed": 721525, "internal_node_id": "0.0-10.0-8.0"}}, {"uniqueid": "MTK0153:3QAVNHZ3ENBDED8GQTIGJLO6AMRLA7", "current_trial": 19, "dateTime": 1509298448138, "trialdata": {"rt": -1, "stimulus": "<p id=\"stim\">1</p>", "key_press": -1, "trial_type": "single-stim", "trial_index": 19, "time_elapsed": 722527, "internal_node_id": "0.0-10.0-9.0"}}, {"uniqueid": "MTK0153:3QAVNHZ3ENBDED8GQTIGJLO6AMRLA7", "current_trial": 20, "dateTime": 1509298449639, "trialdata": {"rt": -1, "stimulus": "<p id=\"stim\">+</p>", "key_press": -1, "type": "FIXATION", "trial_type": "single-stim", "trial_index": 20, "time_elapsed": 724028, "internal_node_id": "0.0-11.0-0.0"}}, {"uniqueid": "MTK0153:3QAVNHZ3ENBDED8GQTIGJLO6AMRLA7", "current_trial": 21, "dateTime": 1509298451707, "trialdata": {"rt": -1000, "stimulus": "/static/audio/wordpool/MUMMY.wav", "key_press": -1, "type": "PRES_AUD", "word": "mummy", "wordID": 931, "conditions": [18, 1200, "a", 18000], "trial": 0, "serialpos": 0, "trial_type": "single-audio", "trial_index": 21, "time_elapsed": 726096, "internal_node_id": "0.0-12.0"}}, {"uniqueid": "MTK0153:3QAVNHZ3ENBDED8GQTIGJLO6AMRLA7", "current_trial": 22, "dateTime": 1509298453956, "trialdata": {"rt": -1000, "stimulus": "/static/audio/wordpool/CREATURE.wav", "key_press": -1, "type": "PRES_AUD", "word": "creature", "wordID": 402, "conditions": [18, 1200, "a", 18000], "trial": 0, "serialpos": 1, "trial_type": "single-audio", "trial_index": 22, "time_elapsed": 728345, "internal_node_id": "0.0-13.0"}}, {"uniqueid": "MTK0153:3QAVNHZ3ENBDED8GQTIGJLO6AMRLA7", "current_trial": 23, "dateTime": 1509298456259, "trialdata": {"rt": -1000, "stimulus": "/static/audio/wordpool/SMOG.wav", "key_press": -1, "type": "PRES_AUD", "word": "smog", "wordID": 1329, "conditions": [18, 1200, "a", 18000], "trial": 0, "serialpos": 2, "trial_type": "single-audio", "trial_index": 23, "time_elapsed": 730648, "internal_node_id": "0.0-14.0"}}, {"uniqueid": "MTK0153:3QAVNHZ3ENBDED8GQTIGJLO6AMRLA7", "current_trial": 24, "dateTime": 1509298458565, "trialdata": {"rt": -1000, "stimulus": "/static/audio/wordpool/STATUE.wav", "key_press": -1, "type": "PRES_AUD", "word": "statue", "wordID": 1373, "conditions": [18, 1200, "a", 18000], "trial": 0, "serialpos": 3, "trial_type": "single-audio", "trial_index": 24, "time_elapsed": 732953, "internal_node_id": "0.0-15.0"}}, {"uniqueid": "MTK0153:3QAVNHZ3ENBDED8GQTIGJLO6AMRLA7", "current_trial": 25, "dateTime": 1509298460693, "trialdata": {"rt": -1000, "stimulus": "/static/audio/wordpool/POISON.wav", "key_press": -1, "type": "PRES_AUD", "word": "poison", "wordID": 1095, "conditions": [18, 1200, "a", 18000], "trial": 0, "serialpos": 4, "trial_type": "single-audio", "trial_index": 25, "time_elapsed": 735082, "internal_node_id": "0.0-16.0"}}, {"uniqueid": "MTK0153:3QAVNHZ3ENBDED8GQTIGJLO6AMRLA7", "current_trial": 26, "dateTime": 1509298462947, "trialdata": {"rt": -1000, "stimulus": "/static/audio/wordpool/PLAZA.wav", "key_press": -1, "type": "PRES_AUD", "word": "plaza", "wordID": 1087, "conditions": [18, 1200, "a", 18000], "trial": 0, "serialpos": 5, "trial_type": "single-audio", "trial_index": 26, "time_elapsed": 737336, "internal_node_id": "0.0-17.0"}}, {"uniqueid": "MTK0153:3QAVNHZ3ENBDED8GQTIGJLO6AMRLA7", "current_trial": 27, "dateTime": 1509298465122, "trialdata": {"rt": -1000, "stimulus": "/static/audio/wordpool/OX.wav", "key_press": -1, "type": "PRES_AUD", "word": "ox", "wordID": 993, "conditions": [18, 1200, "a", 18000], "trial": 0, "serialpos": 6, "trial_type": "single-audio", "trial_index": 27, "time_elapsed": 739511, "internal_node_id": "0.0-18.0"}}, {"uniqueid": "MTK0153:3QAVNHZ3ENBDED8GQTIGJLO6AMRLA7", "current_trial": 28, "dateTime": 1509298467373, "trialdata": {"rt": -1000, "stimulus": "/static/audio/wordpool/COCOON.wav", "key_press": -1, "type": "PRES_AUD", "word": "cocoon", "wordID": 338, "conditions": [18, 1200, "a", 18000], "trial": 0, "serialpos": 7, "trial_type": "single-audio", "trial_index": 28, "time_elapsed": 741761, "internal_node_id": "0.0-19.0"}}, {"uniqueid": "MTK0153:3QAVNHZ3ENBDED8GQTIGJLO6AMRLA7", "current_trial": 29, "dateTime": 1509298469775, "trialdata": {"rt": -1000, "stimulus": "/static/audio/wordpool/BUG.wav", "key_press": -1, "type": "PRES_AUD", "word": "bug", "wordID": 186, "conditions": [18, 1200, "a", 18000], "trial": 0, "serialpos": 8, "trial_type": "single-audio", "trial_index": 29, "time_elapsed": 744164, "internal_node_id": "0.0-20.0"}}, {"uniqueid": "MTK0153:3QAVNHZ3ENBDED8GQTIGJLO6AMRLA7", "current_trial": 30, "dateTime": 1509298471891, "trialdata": {"rt": -1000, "stimulus": "/static/audio/wordpool/KNAPSACK.wav", "key_press": -1, "type": "PRES_AUD", "word": "knapsack", "wordID": 782, "conditions": [18, 1200, "a", 18000], "trial": 0, "serialpos": 9, "trial_type": "single-audio", "trial_index": 30, "time_elapsed": 746280, "internal_node_id": "0.0-21.0"}}, {"uniqueid": "MTK0153:3QAVNHZ3ENBDED8GQTIGJLO6AMRLA7", "current_trial": 31, "dateTime": 1509298474163, "trialdata": {"rt": -1000, "stimulus": "/static/audio/wordpool/PUPPY.wav", "key_press": -1, "type": "PRES_AUD", "word": "puppy", "wordID": 1143, "conditions": [18, 1200, "a", 18000], "trial": 0, "serialpos": 10, "trial_type": "single-audio", "trial_index": 31, "time_elapsed": 748551, "internal_node_id": "0.0-22.0"}}, {"uniqueid": "MTK0153:3QAVNHZ3ENBDED8GQTIGJLO6AMRLA7", "current_trial": 32, "dateTime": 1509298476346, "trialdata": {"rt": -1000, "stimulus": "/static/audio/wordpool/BLOUSE.wav", "key_press": -1, "type": "PRES_AUD", "word": "blouse", "wordID": 138, "conditions": [18, 1200, "a", 18000], "trial": 0, "serialpos": 11, "trial_type": "single-audio", "trial_index": 32, "time_elapsed": 750735, "internal_node_id": "0.0-23.0"}}, {"uniqueid": "MTK0153:3QAVNHZ3ENBDED8GQTIGJLO6AMRLA7", "current_trial": 33, "dateTime": 1509298478680, "trialdata": {"rt": -1000, "stimulus": "/static/audio/wordpool/WORKER.wav", "key_press": -1, "type": "PRES_AUD", "word": "worker", "wordID": 1620, "conditions": [18, 1200, "a", 18000], "trial": 0, "serialpos": 12, "trial_type": "single-audio", "trial_index": 33, "time_elapsed": 753069, "internal_node_id": "0.0-24.0"}}, {"uniqueid": "MTK0153:3QAVNHZ3ENBDED8GQTIGJLO6AMRLA7", "current_trial": 34, "dateTime": 1509298480808, "trialdata": {"rt": -1000, "stimulus": "/static/audio/wordpool/DRIVER.wav", "key_press": -1, "type": "PRES_AUD", "word": "driver", "wordID": 498, "conditions": [18, 1200, "a", 18000], "trial": 0, "serialpos": 13, "trial_type": "single-audio", "trial_index": 34, "time_elapsed": 755196, "internal_node_id": "0.0-25.0"}}, {"uniqueid": "MTK0153:3QAVNHZ3ENBDED8GQTIGJLO6AMRLA7", "current_trial": 35, "dateTime": 1509298483017, "trialdata": {"rt": -1000, "stimulus": "/static/audio/wordpool/COCKTAIL.wav", "key_press": -1, "type": "PRES_AUD", "word": "cocktail", "wordID": 337, "conditions": [18, 1200, "a", 18000], "trial": 0, "serialpos": 14, "trial_type": "single-audio", "trial_index": 35, "time_elapsed": 757406, "internal_node_id": "0.0-26.0"}}, {"uniqueid": "MTK0153:3QAVNHZ3ENBDED8GQTIGJLO6AMRLA7", "current_trial": 36, "dateTime": 1509298485156, "trialdata": {"rt": -1000, "stimulus": "/static/audio/wordpool/BABY.wav", "key_press": -1, "type": "PRES_AUD", "word": "baby", "wordID": 63, "conditions": [18, 1200, "a", 18000], "trial": 0, "serialpos": 15, "trial_type": "single-audio", "trial_index": 36, "time_elapsed": 759544, "internal_node_id": "0.0-27.0"}}, {"uniqueid": "MTK0153:3QAVNHZ3ENBDED8GQTIGJLO6AMRLA7", "current_trial": 37, "dateTime": 1509298487172, "trialdata": {"rt": -1000, "stimulus": "/static/audio/wordpool/GARLIC.wav", "key_press": -1, "type": "PRES_AUD", "word": "garlic", "wordID": 623, "conditions": [18, 1200, "a", 18000], "trial": 0, "serialpos": 16, "trial_type": "single-audio", "trial_index": 37, "time_elapsed": 761561, "internal_node_id": "0.0-28.0"}}, {"uniqueid": "MTK0153:3QAVNHZ3ENBDED8GQTIGJLO6AMRLA7", "current_trial": 38, "dateTime": 1509298489297, "trialdata": {"rt": -1000, "stimulus": "/static/audio/wordpool/PUDDLE.wav", "key_press": -1, "type": "PRES_AUD", "word": "puddle", "wordID": 1139, "conditions": [18, 1200, "a", 18000], "trial": 0, "serialpos": 17, "trial_type": "single-audio", "trial_index": 38, "time_elapsed": 763686, "internal_node_id": "0.0-29.0"}}, {"uniqueid": "MTK0153:3QAVNHZ3ENBDED8GQTIGJLO6AMRLA7", "current_trial": 39, "dateTime": 1509298490656, "trialdata": {"rt": -1, "stimulus": "", "key_press": -1, "type": "PRE_RECALL_DELAY", "trial_type": "single-stim", "trial_index": 39, "time_elapsed": 765045, "internal_node_id": "0.0-30.0-0.0"}}, {"uniqueid": "MTK0153:3QAVNHZ3ENBDED8GQTIGJLO6AMRLA7", "current_trial": 40, "dateTime": 1509298491158, "trialdata": {"rt": -1000, "stimulus": "/static/audio/400Hz.wav", "key_press": -1, "type": "PRE_RECALL_ALERT", "trial_type": "single-audio", "trial_index": 40, "time_elapsed": 765547, "internal_node_id": "0.0-31.0"}}, {"uniqueid": "MTK0153:3QAVNHZ3ENBDED8GQTIGJLO6AMRLA7", "current_trial": 41, "dateTime": 1509298551167, "trialdata": {"rt": [7411, 12652, 15586, 19567, 24331, 36775], "recwords": ["statue", "napsack", "baby", "liquor", "cocoon", "bug"], "type": "FREE_RECALL", "conditions": [18, 1200, "a", 18000], "trial": 0, "trial_type": "free-recall", "trial_index": 41, "time_elapsed": 825551, "internal_node_id": "0.0-32.0-0.0"}}, {"uniqueid": "MTK0153:3QAVNHZ3ENBDED8GQTIGJLO6AMRLA7", "current_trial": 42, "dateTime": 1509298555968, "trialdata": {"rt": 2800, "key_press": 32, "type": "INSTRUCTIONS", "trial_type": "text", "trial_index": 42, "time_elapsed": 830357, "internal_node_id": "0.0-33.0"}}, {"uniqueid": "MTK0153:3QAVNHZ3ENBDED8GQTIGJLO6AMRLA7", "current_trial": 43, "dateTime": 1509298575983, "trialdata": {"rt": [6004, 10643, 15035], "responses": ["20", "12", "15"], "num1": [5, 2, 4, 1], "num2": [9, 3, 2, 6], "num3": [6, 7, 9, 9], "type": "DISTRACTOR", "conditions": [18, 1200, "v", 18000], "trial": 1, "trial_type": "math-distractor", "trial_index": 43, "time_elapsed": 850369, "internal_node_id": "0.0-34.0"}}, {"uniqueid": "MTK0153:3QAVNHZ3ENBDED8GQTIGJLO6AMRLA7", "current_trial": 44, "dateTime": 1509298578989, "trialdata": {"rt": -1, "stimulus": "<p id=\"stim\">10</p>", "key_press": -1, "trial_type": "single-stim", "trial_index": 44, "time_elapsed": 853378, "internal_node_id": "0.0-35.0-0.0"}}, {"uniqueid": "MTK0153:3QAVNHZ3ENBDED8GQTIGJLO6AMRLA7", "current_trial": 45, "dateTime": 1509298579992, "trialdata": {"rt": -1, "stimulus": "<p id=\"stim\">9</p>", "key_press": -1, "trial_type": "single-stim", "trial_index": 45, "time_elapsed": 854381, "internal_node_id": "0.0-35.0-1.0"}}, {"uniqueid": "MTK0153:3QAVNHZ3ENBDED8GQTIGJLO6AMRLA7", "current_trial": 46, "dateTime": 1509298580994, "trialdata": {"rt": -1, "stimulus": "<p id=\"stim\">8</p>", "key_press": -1, "trial_type": "single-stim", "trial_index": 46, "time_elapsed": 855383, "internal_node_id": "0.0-35.0-2.0"}}, {"uniqueid": "MTK0153:3QAVNHZ3ENBDED8GQTIGJLO6AMRLA7", "current_trial": 47, "dateTime": 1509298581995, "trialdata": {"rt": -1, "stimulus": "<p id=\"stim\">7</p>", "key_press": -1, "trial_type": "single-stim", "trial_index": 47, "time_elapsed": 856384, "internal_node_id": "0.0-35.0-3.0"}}, {"uniqueid": "MTK0153:3QAVNHZ3ENBDED8GQTIGJLO6AMRLA7", "current_trial": 48, "dateTime": 1509298582996, "trialdata": {"rt": -1, "stimulus": "<p id=\"stim\">6</p>", "key_press": -1, "trial_type": "single-stim", "trial_index": 48, "time_elapsed": 857385, "internal_node_id": "0.0-35.0-4.0"}}, {"uniqueid": "MTK0153:3QAVNHZ3ENBDED8GQTIGJLO6AMRLA7", "current_trial": 49, "dateTime": 1509298583998, "trialdata": {"rt": -1, "stimulus": "<p id=\"stim\">5</p>", "key_press": -1, "trial_type": "single-stim", "trial_index": 49, "time_elapsed": 858386, "internal_node_id": "0.0-35.0-5.0"}}, {"uniqueid": "MTK0153:3QAVNHZ3ENBDED8GQTIGJLO6AMRLA7", "current_trial": 50, "dateTime": 1509298585000, "trialdata": {"rt": -1, "stimulus": "<p id=\"stim\">4</p>", "key_press": -1, "trial_type": "single-stim", "trial_index": 50, "time_elapsed": 859389, "internal_node_id": "0.0-35.0-6.0"}}, {"uniqueid": "MTK0153:3QAVNHZ3ENBDED8GQTIGJLO6AMRLA7", "current_trial": 51, "dateTime": 1509298586001, "trialdata": {"rt": -1, "stimulus": "<p id=\"stim\">3</p>", "key_press": -1, "trial_type": "single-stim", "trial_index": 51, "time_elapsed": 860390, "internal_node_id": "0.0-35.0-7.0"}}, {"uniqueid": "MTK0153:3QAVNHZ3ENBDED8GQTIGJLO6AMRLA7", "current_trial": 52, "dateTime": 1509298587003, "trialdata": {"rt": -1, "stimulus": "<p id=\"stim\">2</p>", "key_press": -1, "trial_type": "single-stim", "trial_index": 52, "time_elapsed": 861392, "internal_node_id": "0.0-35.0-8.0"}}, {"uniqueid": "MTK0153:3QAVNHZ3ENBDED8GQTIGJLO6AMRLA7", "current_trial": 53, "dateTime": 1509298588005, "trialdata": {"rt": -1, "stimulus": "<p id=\"stim\">1</p>", "key_press": -1, "trial_type": "single-stim", "trial_index": 53, "time_elapsed": 862393, "internal_node_id": "0.0-35.0-9.0"}}, {"uniqueid": "MTK0153:3QAVNHZ3ENBDED8GQTIGJLO6AMRLA7", "current_trial": 54, "dateTime": 1509298589506, "trialdata": {"rt": -1, "stimulus": "<p id=\"stim\">+</p>", "key_press": -1, "type": "FIXATION", "trial_type": "single-stim", "trial_index": 54, "time_elapsed": 863895, "internal_node_id": "0.0-36.0-0.0"}}, {"uniqueid": "MTK0153:3QAVNHZ3ENBDED8GQTIGJLO6AMRLA7", "current_trial": 55, "dateTime": 1509298590708, "trialdata": {"rt": -1, "stimulus": "<p id=\"stim\">TABLET</p>", "key_press": -1, "type": "PRES_VIS", "word": "tablet", "wordID": 1426, "conditions": [18, 1200, "v", 18000], "trial": 1, "serialpos": 0, "trial_type": "single-stim", "trial_index": 55, "time_elapsed": 865097, "internal_node_id": "0.0-37.0"}}, {"uniqueid": "MTK0153:3QAVNHZ3ENBDED8GQTIGJLO6AMRLA7", "current_trial": 56, "dateTime": 1509298592869, "trialdata": {"rt": -1, "stimulus": "<p id=\"stim\">BADGE</p>", "key_press": -1, "type": "PRES_VIS", "word": "badge", "wordID": 67, "conditions": [18, 1200, "v", 18000], "trial": 1, "serialpos": 1, "trial_type": "single-stim", "trial_index": 56, "time_elapsed": 867258, "internal_node_id": "0.0-38.0"}}, {"uniqueid": "MTK0153:3QAVNHZ3ENBDED8GQTIGJLO6AMRLA7", "current_trial": 57, "dateTime": 1509298595118, "trialdata": {"rt": -1, "stimulus": "<p id=\"stim\">FLASK</p>", "key_press": -1, "type": "PRES_VIS", "word": "flask", "wordID": 575, "conditions": [18, 1200, "v", 18000], "trial": 1, "serialpos": 2, "trial_type": "single-stim", "trial_index": 57, "time_elapsed": 869507, "internal_node_id": "0.0-39.0"}}, {"uniqueid": "MTK0153:3QAVNHZ3ENBDED8GQTIGJLO6AMRLA7", "current_trial": 58, "dateTime": 1509298597368, "trialdata": {"rt": -1, "stimulus": "<p id=\"stim\">DIME</p>", "key_press": -1, "type": "PRES_VIS", "word": "dime", "wordID": 465, "conditions": [18, 1200, "v", 18000], "trial": 1, "serialpos": 3, "trial_type": "single-stim", "trial_index": 58, "time_elapsed": 871757, "internal_node_id": "0.0-40.0"}}, {"uniqueid": "MTK0153:3QAVNHZ3ENBDED8GQTIGJLO6AMRLA7", "current_trial": 59, "dateTime": 1509298599499, "trialdata": {"rt": -1, "stimulus": "<p id=\"stim\">DRUG</p>", "key_press": -1, "type": "PRES_VIS", "word": "drug", "wordID": 500, "conditions": [18, 1200, "v", 18000], "trial": 1, "serialpos": 4, "trial_type": "single-stim", "trial_index": 59, "time_elapsed": 873888, "internal_node_id": "0.0-41.0"}}, {"uniqueid": "MTK0153:3QAVNHZ3ENBDED8GQTIGJLO6AMRLA7", "current_trial": 60, "dateTime": 1509298601588, "trialdata": {"rt": -1, "stimulus": "<p id=\"stim\">CHEMIST</p>", "key_press": -1, "type": "PRES_VIS", "word": "chemist", "wordID": 291, "conditions": [18, 1200, "v", 18000], "trial": 1, "serialpos": 5, "trial_type": "single-stim", "trial_index": 60, "time_elapsed": 875977, "internal_node_id": "0.0-42.0"}}, {"uniqueid": "MTK0153:3QAVNHZ3ENBDED8GQTIGJLO6AMRLA7", "current_trial": 61, "dateTime": 1509298603768, "trialdata": {"rt": -1, "stimulus": "<p id=\"stim\">RABBIT</p>", "key_press": -1, "type": "PRES_VIS", "word": "rabbit", "wordID": 1151, "conditions": [18, 1200, "v", 18000], "trial": 1, "serialpos": 6, "trial_type": "single-stim", "trial_index": 61, "time_elapsed": 878157, "internal_node_id": "0.0-43.0"}}, {"uniqueid": "MTK0153:3QAVNHZ3ENBDED8GQTIGJLO6AMRLA7", "current_trial": 62, "dateTime": 1509298605931, "trialdata": {"rt": -1, "stimulus": "<p id=\"stim\">WHISTLE</p>", "key_press": -1, "type": "PRES_VIS", "word": "whistle", "wordID": 1605, "conditions": [18, 1200, "v", 18000], "trial": 1, "serialpos": 7, "trial_type": "single-stim", "trial_index": 62, "time_elapsed": 880320, "internal_node_id": "0.0-44.0"}}, {"uniqueid": "MTK0153:3QAVNHZ3ENBDED8GQTIGJLO6AMRLA7", "current_trial": 63, "dateTime": 1509298608129, "trialdata": {"rt": -1, "stimulus": "<p id=\"stim\">DRAGON</p>", "key_press": -1, "type": "PRES_VIS", "word": "dragon", "wordID": 491, "conditions": [18, 1200, "v", 18000], "trial": 1, "serialpos": 8, "trial_type": "single-stim", "trial_index": 63, "time_elapsed": 882518, "internal_node_id": "0.0-45.0"}}, {"uniqueid": "MTK0153:3QAVNHZ3ENBDED8GQTIGJLO6AMRLA7", "current_trial": 64, "dateTime": 1509298610189, "trialdata": {"rt": -1, "stimulus": "<p id=\"stim\">WASP</p>", "key_press": -1, "type": "PRES_VIS", "word": "wasp", "wordID": 1592, "conditions": [18, 1200, "v", 18000], "trial": 1, "serialpos": 9, "trial_type": "single-stim", "trial_index": 64, "time_elapsed": 884578, "internal_node_id": "0.0-46.0"}}, {"uniqueid": "MTK0153:3QAVNHZ3ENBDED8GQTIGJLO6AMRLA7", "current_trial": 65, "dateTime": 1509298612332, "trialdata": {"rt": -1, "stimulus": "<p id=\"stim\">COUNTY</p>", "key_press": -1, "type": "PRES_VIS", "word": "county", "wordID": 388, "conditions": [18, 1200, "v", 18000], "trial": 1, "serialpos": 10, "trial_type": "single-stim", "trial_index": 65, "time_elapsed": 886721, "internal_node_id": "0.0-47.0"}}, {"uniqueid": "MTK0153:3QAVNHZ3ENBDED8GQTIGJLO6AMRLA7", "current_trial": 66, "dateTime": 1509298614622, "trialdata": {"rt": -1, "stimulus": "<p id=\"stim\">GUARD</p>", "key_press": -1, "type": "PRES_VIS", "word": "guard", "wordID": 666, "conditions": [18, 1200, "v", 18000], "trial": 1, "serialpos": 11, "trial_type": "single-stim", "trial_index": 66, "time_elapsed": 889011, "internal_node_id": "0.0-48.0"}}, {"uniqueid": "MTK0153:3QAVNHZ3ENBDED8GQTIGJLO6AMRLA7", "current_trial": 67, "dateTime": 1509298616993, "trialdata": {"rt": -1, "stimulus": "<p id=\"stim\">PLAYGROUND</p>", "key_press": -1, "type": "PRES_VIS", "word": "playground", "wordID": 1086, "conditions": [18, 1200, "v", 18000], "trial": 1, "serialpos": 12, "trial_type": "single-stim", "trial_index": 67, "time_elapsed": 891381, "internal_node_id": "0.0-49.0"}}, {"uniqueid": "MTK0153:3QAVNHZ3ENBDED8GQTIGJLO6AMRLA7", "current_trial": 68, "dateTime": 1509298619113, "trialdata": {"rt": -1, "stimulus": "<p id=\"stim\">STAMP</p>", "key_press": -1, "type": "PRES_VIS", "word": "stamp", "wordID": 1369, "conditions": [18, 1200, "v", 18000], "trial": 1, "serialpos": 13, "trial_type": "single-stim", "trial_index": 68, "time_elapsed": 893496, "internal_node_id": "0.0-50.0"}}, {"uniqueid": "MTK0153:3QAVNHZ3ENBDED8GQTIGJLO6AMRLA7", "current_trial": 69, "dateTime": 1509298621264, "trialdata": {"rt": -1, "stimulus": "<p id=\"stim\">ORCHID</p>", "key_press": -1, "type": "PRES_VIS", "word": "orchid", "wordID": 981, "conditions": [18, 1200, "v", 18000], "trial": 1, "serialpos": 14, "trial_type": "single-stim", "trial_index": 69, "time_elapsed": 895653, "internal_node_id": "0.0-51.0"}}, {"uniqueid": "MTK0153:3QAVNHZ3ENBDED8GQTIGJLO6AMRLA7", "current_trial": 70, "dateTime": 1509298623290, "trialdata": {"rt": -1, "stimulus": "<p id=\"stim\">COMPASS</p>", "key_press": -1, "type": "PRES_VIS", "word": "compass", "wordID": 357, "conditions": [18, 1200, "v", 18000], "trial": 1, "serialpos": 15, "trial_type": "single-stim", "trial_index": 70, "time_elapsed": 897679, "internal_node_id": "0.0-52.0"}}, {"uniqueid": "MTK0153:3QAVNHZ3ENBDED8GQTIGJLO6AMRLA7", "current_trial": 71, "dateTime": 1509298625417, "trialdata": {"rt": -1, "stimulus": "<p id=\"stim\">TUBA</p>", "key_press": -1, "type": "PRES_VIS", "word": "tuba", "wordID": 1514, "conditions": [18, 1200, "v", 18000], "trial": 1, "serialpos": 16, "trial_type": "single-stim", "trial_index": 71, "time_elapsed": 899806, "internal_node_id": "0.0-53.0"}}, {"uniqueid": "MTK0153:3QAVNHZ3ENBDED8GQTIGJLO6AMRLA7", "current_trial": 72, "dateTime": 1509298627608, "trialdata": {"rt": -1, "stimulus": "<p id=\"stim\">MOTOR</p>", "key_press": -1, "type": "PRES_VIS", "word": "motor", "wordID": 921, "conditions": [18, 1200, "v", 18000], "trial": 1, "serialpos": 17, "trial_type": "single-stim", "trial_index": 72, "time_elapsed": 901997, "internal_node_id": "0.0-54.0"}}, {"uniqueid": "MTK0153:3QAVNHZ3ENBDED8GQTIGJLO6AMRLA7", "current_trial": 73, "dateTime": 1509298629745, "trialdata": {"rt": -1, "stimulus": "", "key_press": -1, "type": "PRE_RECALL_DELAY", "trial_type": "single-stim", "trial_index": 73, "time_elapsed": 904133, "internal_node_id": "0.0-55.0-0.0"}}, {"uniqueid": "MTK0153:3QAVNHZ3ENBDED8GQTIGJLO6AMRLA7", "current_trial": 74, "dateTime": 1509298630261, "trialdata": {"rt": -1000, "stimulus": "/static/audio/400Hz.wav", "key_press": -1, "type": "PRE_RECALL_ALERT", "trial_type": "single-audio", "trial_index": 74, "time_elapsed": 904650, "internal_node_id": "0.0-56.0"}}, {"uniqueid": "MTK0153:3QAVNHZ3ENBDED8GQTIGJLO6AMRLA7", "current_trial": 75, "dateTime": 1509298690272, "trialdata": {"rt": [5698, 9364, 13690], "recwords": ["compass", "tuba", "druggist"], "type": "FREE_RECALL", "conditions": [18, 1200, "v", 18000], "trial": 1, "trial_type": "free-recall", "trial_index": 75, "time_elapsed": 964652, "internal_node_id": "0.0-57.0-0.0"}}, {"uniqueid": "MTK0153:3QAVNHZ3ENBDED8GQTIGJLO6AMRLA7", "current_trial": 76, "dateTime": 1509298695794, "trialdata": {"rt": 3521, "key_press": 32, "type": "INSTRUCTIONS", "trial_type": "text", "trial_index": 76, "time_elapsed": 970183, "internal_node_id": "0.0-58.0"}}, {"uniqueid": "MTK0153:3QAVNHZ3ENBDED8GQTIGJLO6AMRLA7", "current_trial": 77, "dateTime": 1509298708798, "trialdata": {"rt": [5764, 10698], "responses": ["6", "20"], "num1": [1, 7, 8], "num2": [2, 8, 9], "num3": [3, 5, 3], "type": "DISTRACTOR", "conditions": [12, 1600, "a", 12000], "trial": 2, "trial_type": "math-distractor", "trial_index": 77, "time_elapsed": 983187, "internal_node_id": "0.0-59.0"}}, {"uniqueid": "MTK0153:3QAVNHZ3ENBDED8GQTIGJLO6AMRLA7", "current_trial": 78, "dateTime": 1509298711800, "trialdata": {"rt": -1, "stimulus": "<p id=\"stim\">10</p>", "key_press": -1, "trial_type": "single-stim", "trial_index": 78, "time_elapsed": 986189, "internal_node_id": "0.0-60.0-0.0"}}, {"uniqueid": "MTK0153:3QAVNHZ3ENBDED8GQTIGJLO6AMRLA7", "current_trial": 79, "dateTime": 1509298712803, "trialdata": {"rt": -1, "stimulus": "<p id=\"stim\">9</p>", "key_press": -1, "trial_type": "single-stim", "trial_index": 79, "time_elapsed": 987191, "internal_node_id": "0.0-60.0-1.0"}}, {"uniqueid": "MTK0153:3QAVNHZ3ENBDED8GQTIGJLO6AMRLA7", "current_trial": 80, "dateTime": 1509298713808, "trialdata": {"rt": -1, "stimulus": "<p id=\"stim\">8</p>", "key_press": -1, "trial_type": "single-stim", "trial_index": 80, "time_elapsed": 988194, "internal_node_id": "0.0-60.0-2.0"}}, {"uniqueid": "MTK0153:3QAVNHZ3ENBDED8GQTIGJLO6AMRLA7", "current_trial": 81, "dateTime": 1509298714811, "trialdata": {"rt": -1, "stimulus": "<p id=\"stim\">7</p>", "key_press": -1, "trial_type": "single-stim", "trial_index": 81, "time_elapsed": 989200, "internal_node_id": "0.0-60.0-3.0"}}, {"uniqueid": "MTK0153:3QAVNHZ3ENBDED8GQTIGJLO6AMRLA7", "current_trial": 82, "dateTime": 1509298715814, "trialdata": {"rt": -1, "stimulus": "<p id=\"stim\">6</p>", "key_press": -1, "trial_type": "single-stim", "trial_index": 82, "time_elapsed": 990203, "internal_node_id": "0.0-60.0-4.0"}}, {"uniqueid": "MTK0153:3QAVNHZ3ENBDED8GQTIGJLO6AMRLA7", "current_trial": 83, "dateTime": 1509298716815, "trialdata": {"rt": -1, "stimulus": "<p id=\"stim\">5</p>", "key_press": -1, "trial_type": "single-stim", "trial_index": 83, "time_elapsed": 991204, "internal_node_id": "0.0-60.0-5.0"}}, {"uniqueid": "MTK0153:3QAVNHZ3ENBDED8GQTIGJLO6AMRLA7", "current_trial": 84, "dateTime": 1509298717817, "trialdata": {"rt": -1, "stimulus": "<p id=\"stim\">4</p>", "key_press": -1, "trial_type": "single-stim", "trial_index": 84, "time_elapsed": 992206, "internal_node_id": "0.0-60.0-6.0"}}, {"uniqueid": "MTK0153:3QAVNHZ3ENBDED8GQTIGJLO6AMRLA7", "current_trial": 85, "dateTime": 1509298718818, "trialdata": {"rt": -1, "stimulus": "<p id=\"stim\">3</p>", "key_press": -1, "trial_type": "single-stim", "trial_index": 85, "time_elapsed": 993207, "internal_node_id": "0.0-60.0-7.0"}}, {"uniqueid": "MTK0153:3QAVNHZ3ENBDED8GQTIGJLO6AMRLA7", "current_trial": 86, "dateTime": 1509298719820, "trialdata": {"rt": -1, "stimulus": "<p id=\"stim\">2</p>", "key_press": -1, "trial_type": "single-stim", "trial_index": 86, "time_elapsed": 994209, "internal_node_id": "0.0-60.0-8.0"}}, {"uniqueid": "MTK0153:3QAVNHZ3ENBDED8GQTIGJLO6AMRLA7", "current_trial": 87, "dateTime": 1509298720825, "trialdata": {"rt": -1, "stimulus": "<p id=\"stim\">1</p>", "key_press": -1, "trial_type": "single-stim", "trial_index": 87, "time_elapsed": 995210, "internal_node_id": "0.0-60.0-9.0"}}, {"uniqueid": "MTK0153:3QAVNHZ3ENBDED8GQTIGJLO6AMRLA7", "current_trial": 88, "dateTime": 1509298722327, "trialdata": {"rt": -1, "stimulus": "<p id=\"stim\">+</p>", "key_press": -1, "type": "FIXATION", "trial_type": "single-stim", "trial_index": 88, "time_elapsed": 996716, "internal_node_id": "0.0-61.0-0.0"}}, {"uniqueid": "MTK0153:3QAVNHZ3ENBDED8GQTIGJLO6AMRLA7", "current_trial": 89, "dateTime": 1509298724911, "trialdata": {"rt": -1000, "stimulus": "/static/audio/wordpool/SHORTCAKE.wav", "key_press": -1, "type": "PRES_AUD", "word": "shortcake", "wordID": 1291, "conditions": [12, 1600, "a", 12000], "trial": 2, "serialpos": 0, "trial_type": "single-audio", "trial_index": 89, "time_elapsed": 999300, "internal_node_id": "0.0-62.0"}}, {"uniqueid": "MTK0153:3QAVNHZ3ENBDED8GQTIGJLO6AMRLA7", "current_trial": 90, "dateTime": 1509298727576, "trialdata": {"rt": -1000, "stimulus": "/static/audio/wordpool/SKILLET.wav", "key_press": -1, "type": "PRES_AUD", "word": "skillet", "wordID": 1316, "conditions": [12, 1600, "a", 12000], "trial": 2, "serialpos": 1, "trial_type": "single-audio", "trial_index": 90, "time_elapsed": 1001965, "internal_node_id": "0.0-63.0"}}, {"uniqueid": "MTK0153:3QAVNHZ3ENBDED8GQTIGJLO6AMRLA7", "current_trial": 91, "dateTime": 1509298730006, "trialdata": {"rt": -1000, "stimulus": "/static/audio/wordpool/SPOON.wav", "key_press": -1, "type": "PRES_AUD", "word": "spoon", "wordID": 1356, "conditions": [12, 1600, "a", 12000], "trial": 2, "serialpos": 2, "trial_type": "single-audio", "trial_index": 91, "time_elapsed": 1004394, "internal_node_id": "0.0-64.0"}}, {"uniqueid": "MTK0153:3QAVNHZ3ENBDED8GQTIGJLO6AMRLA7", "current_trial": 92, "dateTime": 1509298732634, "trialdata": {"rt": -1000, "stimulus": "/static/audio/wordpool/SIBLING.wav", "key_press": -1, "type": "PRES_AUD", "word": "sibling", "wordID": 1300, "conditions": [12, 1600, "a", 12000], "trial": 2, "serialpos": 3, "trial_type": "single-audio", "trial_index": 92, "time_elapsed": 1007023, "internal_node_id": "0.0-65.0"}}, {"uniqueid": "MTK0153:3QAVNHZ3ENBDED8GQTIGJLO6AMRLA7", "current_trial": 93, "dateTime": 1509298735069, "trialdata": {"rt": -1000, "stimulus": "/static/audio/wordpool/HIGHWAY.wav", "key_press": -1, "type": "PRES_AUD", "word": "highway", "wordID": 706, "conditions": [12, 1600, "a", 12000], "trial": 2, "serialpos": 4, "trial_type": "single-audio", "trial_index": 93, "time_elapsed": 1009458, "internal_node_id": "0.0-66.0"}}, {"uniqueid": "MTK0153:3QAVNHZ3ENBDED8GQTIGJLO6AMRLA7", "current_trial": 94, "dateTime": 1509298737849, "trialdata": {"rt": -1000, "stimulus": "/static/audio/wordpool/CLOTHES.wav", "key_press": -1, "type": "PRES_AUD", "word": "clothes", "wordID": 326, "conditions": [12, 1600, "a", 12000], "trial": 2, "serialpos": 5, "trial_type": "single-audio", "trial_index": 94, "time_elapsed": 1012238, "internal_node_id": "0.0-67.0"}}, {"uniqueid": "MTK0153:3QAVNHZ3ENBDED8GQTIGJLO6AMRLA7", "current_trial": 95, "dateTime": 1509298740365, "trialdata": {"rt": -1000, "stimulus": "/static/audio/wordpool/REPORT.wav", "key_press": -1, "type": "PRES_AUD", "word": "report", "wordID": 1183, "conditions": [12, 1600, "a", 12000], "trial": 2, "serialpos": 6, "trial_type": "single-audio", "trial_index": 95, "time_elapsed": 1014754, "internal_node_id": "0.0-68.0"}}, {"uniqueid": "MTK0153:3QAVNHZ3ENBDED8GQTIGJLO6AMRLA7", "current_trial": 96, "dateTime": 1509298742822, "trialdata": {"rt": -1000, "stimulus": "/static/audio/wordpool/ATLAS.wav", "key_press": -1, "type": "PRES_AUD", "word": "atlas", "wordID": 52, "conditions": [12, 1600, "a", 12000], "trial": 2, "serialpos": 7, "trial_type": "single-audio", "trial_index": 96, "time_elapsed": 1017210, "internal_node_id": "0.0-69.0"}}, {"uniqueid": "MTK0153:3QAVNHZ3ENBDED8GQTIGJLO6AMRLA7", "current_trial": 97, "dateTime": 1509298745547, "trialdata": {"rt": -1000, "stimulus": "/static/audio/wordpool/CUPBOARD.wav", "key_press": -1, "type": "PRES_AUD", "word": "cupboard", "wordID": 424, "conditions": [12, 1600, "a", 12000], "trial": 2, "serialpos": 8, "trial_type": "single-audio", "trial_index": 97, "time_elapsed": 1019935, "internal_node_id": "0.0-70.0"}}, {"uniqueid": "MTK0153:3QAVNHZ3ENBDED8GQTIGJLO6AMRLA7", "current_trial": 98, "dateTime": 1509298748301, "trialdata": {"rt": -1000, "stimulus": "/static/audio/wordpool/RATTLE.wav", "key_press": -1, "type": "PRES_AUD", "word": "rattle", "wordID": 1169, "conditions": [12, 1600, "a", 12000], "trial": 2, "serialpos": 9, "trial_type": "single-audio", "trial_index": 98, "time_elapsed": 1022690, "internal_node_id": "0.0-71.0"}}, {"uniqueid": "MTK0153:3QAVNHZ3ENBDED8GQTIGJLO6AMRLA7", "current_trial": 99, "dateTime": 1509298750755, "trialdata": {"rt": -1000, "stimulus": "/static/audio/wordpool/GLOBE.wav", "key_press": -1, "type": "PRES_AUD", "word": "globe", "wordID": 640, "conditions": [12, 1600, "a", 12000], "trial": 2, "serialpos": 10, "trial_type": "single-audio", "trial_index": 99, "time_elapsed": 1025144, "internal_node_id": "0.0-72.0"}}, {"uniqueid": "MTK0153:3QAVNHZ3ENBDED8GQTIGJLO6AMRLA7", "current_trial": 100, "dateTime": 1509298753503, "trialdata": {"rt": -1000, "stimulus": "/static/audio/wordpool/SISTER.wav", "key_press": -1, "type": "PRES_AUD", "word": "sister", "wordID": 1311, "conditions": [12, 1600, "a", 12000], "trial": 2, "serialpos": 11, "trial_type": "single-audio", "trial_index": 100, "time_elapsed": 1027892, "internal_node_id": "0.0-73.0"}}, {"uniqueid": "MTK0153:3QAVNHZ3ENBDED8GQTIGJLO6AMRLA7", "current_trial": 101, "dateTime": 1509298754877, "trialdata": {"rt": -1, "stimulus": "", "key_press": -1, "type": "PRE_RECALL_DELAY", "trial_type": "single-stim", "trial_index": 101, "time_elapsed": 1029266, "internal_node_id": "0.0-74.0-0.0"}}, {"uniqueid": "MTK0153:3QAVNHZ3ENBDED8GQTIGJLO6AMRLA7", "current_trial": 102, "dateTime": 1509298755380, "trialdata": {"rt": -1000, "stimulus": "/static/audio/400Hz.wav", "key_press": -1, "type": "PRE_RECALL_ALERT", "trial_type": "single-audio", "trial_index": 102, "time_elapsed": 1029769, "internal_node_id": "0.0-75.0"}}, {"uniqueid": "MTK0153:3QAVNHZ3ENBDED8GQTIGJLO6AMRLA7", "current_trial": 103, "dateTime": 1509298815388, "trialdata": {"rt": [5059, 9921, 14327, 59168], "recwords": ["atlas", "laddar", "sister", ""], "type": "FREE_RECALL", "conditions": [12, 1600, "a", 12000], "trial": 2, "trial_type": "free-recall", "trial_index": 103, "time_elapsed": 1089773, "internal_node_id": "0.0-76.0-0.0"}}, {"uniqueid": "MTK0153:3QAVNHZ3ENBDED8GQTIGJLO6AMRLA7", "current_trial": 104, "dateTime": 1509298819016, "trialdata": {"rt": 1628, "key_press": 13, "type": "INSTRUCTIONS", "trial_type": "text", "trial_index": 104, "time_elapsed": 1093405, "internal_node_id": "0.0-77.0"}}, {"uniqueid": "MTK0153:3QAVNHZ3ENBDED8GQTIGJLO6AMRLA7", "current_trial": 105, "dateTime": 1509298833022, "trialdata": {"rt": [7539], "responses": ["24"], "num1": [7, 9], "num2": [9, 3], "num3": [8, 5], "type": "DISTRACTOR", "conditions": [12, 800, "a", 12000], "trial": 3, "trial_type": "math-distractor", "trial_index": 105, "time_elapsed": 1107411, "internal_node_id": "0.0-78.0"}}, {"uniqueid": "MTK0153:3QAVNHZ3ENBDED8GQTIGJLO6AMRLA7", "current_trial": 106, "dateTime": 1509298836023, "trialdata": {"rt": -1, "stimulus": "<p id=\"stim\">10</p>", "key_press": -1, "trial_type": "single-stim", "trial_index": 106, "time_elapsed": 1110412, "internal_node_id": "0.0-79.0-0.0"}}, {"uniqueid": "MTK0153:3QAVNHZ3ENBDED8GQTIGJLO6AMRLA7", "current_trial": 107, "dateTime": 1509298837024, "trialdata": {"rt": -1, "stimulus": "<p id=\"stim\">9</p>", "key_press": -1, "trial_type": "single-stim", "trial_index": 107, "time_elapsed": 1111413, "internal_node_id": "0.0-79.0-1.0"}}, {"uniqueid": "MTK0153:3QAVNHZ3ENBDED8GQTIGJLO6AMRLA7", "current_trial": 108, "dateTime": 1509298838025, "trialdata": {"rt": -1, "stimulus": "<p id=\"stim\">8</p>", "key_press": -1, "trial_type": "single-stim", "trial_index": 108, "time_elapsed": 1112414, "internal_node_id": "0.0-79.0-2.0"}}, {"uniqueid": "MTK0153:3QAVNHZ3ENBDED8GQTIGJLO6AMRLA7", "current_trial": 109, "dateTime": 1509298839027, "trialdata": {"rt": -1, "stimulus": "<p id=\"stim\">7</p>", "key_press": -1, "trial_type": "single-stim", "trial_index": 109, "time_elapsed": 1113415, "internal_node_id": "0.0-79.0-3.0"}}, {"uniqueid": "MTK0153:3QAVNHZ3ENBDED8GQTIGJLO6AMRLA7", "current_trial": 110, "dateTime": 1509298840028, "trialdata": {"rt": -1, "stimulus": "<p id=\"stim\">6</p>", "key_press": -1, "trial_type": "single-stim", "trial_index": 110, "time_elapsed": 1114417, "internal_node_id": "0.0-79.0-4.0"}}, {"uniqueid": "MTK0153:3QAVNHZ3ENBDED8GQTIGJLO6AMRLA7", "current_trial": 111, "dateTime": 1509298841029, "trialdata": {"rt": -1, "stimulus": "<p id=\"stim\">5</p>", "key_press": -1, "trial_type": "single-stim", "trial_index": 111, "time_elapsed": 1115418, "internal_node_id": "0.0-79.0-5.0"}}, {"uniqueid": "MTK0153:3QAVNHZ3ENBDED8GQTIGJLO6AMRLA7", "current_trial": 112, "dateTime": 1509298842030, "trialdata": {"rt": -1, "stimulus": "<p id=\"stim\">4</p>", "key_press": -1, "trial_type": "single-stim", "trial_index": 112, "time_elapsed": 1116419, "internal_node_id": "0.0-79.0-6.0"}}, {"uniqueid": "MTK0153:3QAVNHZ3ENBDED8GQTIGJLO6AMRLA7", "current_trial": 113, "dateTime": 1509298843031, "trialdata": {"rt": -1, "stimulus": "<p id=\"stim\">3</p>", "key_press": -1, "trial_type": "single-stim", "trial_index": 113, "time_elapsed": 1117420, "internal_node_id": "0.0-79.0-7.0"}}, {"uniqueid": "MTK0153:3QAVNHZ3ENBDED8GQTIGJLO6AMRLA7", "current_trial": 114, "dateTime": 1509298844032, "trialdata": {"rt": -1, "stimulus": "<p id=\"stim\">2</p>", "key_press": -1, "trial_type": "single-stim", "trial_index": 114, "time_elapsed": 1118421, "internal_node_id": "0.0-79.0-8.0"}}, {"uniqueid": "MTK0153:3QAVNHZ3ENBDED8GQTIGJLO6AMRLA7", "current_trial": 115, "dateTime": 1509298845034, "trialdata": {"rt": -1, "stimulus": "<p id=\"stim\">1</p>", "key_press": -1, "trial_type": "single-stim", "trial_index": 115, "time_elapsed": 1119423, "internal_node_id": "0.0-79.0-9.0"}}, {"uniqueid": "MTK0153:3QAVNHZ3ENBDED8GQTIGJLO6AMRLA7", "current_trial": 116, "dateTime": 1509298846535, "trialdata": {"rt": -1, "stimulus": "<p id=\"stim\">+</p>", "key_press": -1, "type": "FIXATION", "trial_type": "single-stim", "trial_index": 116, "time_elapsed": 1120923, "internal_node_id": "0.0-80.0-0.0"}}, {"uniqueid": "MTK0153:3QAVNHZ3ENBDED8GQTIGJLO6AMRLA7", "current_trial": 117, "dateTime": 1509298848210, "trialdata": {"rt": -1000, "stimulus": "/static/audio/wordpool/CATTLE.wav", "key_press": -1, "type": "PRES_AUD", "word": "cattle", "wordID": 260, "conditions": [12, 800, "a", 12000], "trial": 3, "serialpos": 0, "trial_type": "single-audio", "trial_index": 117, "time_elapsed": 1122598, "internal_node_id": "0.0-81.0"}}, {"uniqueid": "MTK0153:3QAVNHZ3ENBDED8GQTIGJLO6AMRLA7", "current_trial": 118, "dateTime": 1509298849960, "trialdata": {"rt": -1000, "stimulus": "/static/audio/wordpool/BISON.wav", "key_press": -1, "type": "PRES_AUD", "word": "bison", "wordID": 130, "conditions": [12, 800, "a", 12000], "trial": 3, "serialpos": 1, "trial_type": "single-audio", "trial_index": 118, "time_elapsed": 1124348, "internal_node_id": "0.0-82.0"}}, {"uniqueid": "MTK0153:3QAVNHZ3ENBDED8GQTIGJLO6AMRLA7", "current_trial": 119, "dateTime": 1509298851660, "trialdata": {"rt": -1000, "stimulus": "/static/audio/wordpool/PRIMATE.wav", "key_press": -1, "type": "PRES_AUD", "word": "primate", "wordID": 1122, "conditions": [12, 800, "a", 12000], "trial": 3, "serialpos": 2, "trial_type": "single-audio", "trial_index": 119, "time_elapsed": 1126048, "internal_node_id": "0.0-83.0"}}, {"uniqueid": "MTK0153:3QAVNHZ3ENBDED8GQTIGJLO6AMRLA7", "current_trial": 120, "dateTime": 1509298853367, "trialdata": {"rt": -1000, "stimulus": "/static/audio/wordpool/FRUIT.wav", "key_press": -1, "type": "PRES_AUD", "word": "fruit", "wordID": 609, "conditions": [12, 800, "a", 12000], "trial": 3, "serialpos": 3, "trial_type": "single-audio", "trial_index": 120, "time_elapsed": 1127756, "internal_node_id": "0.0-84.0"}}, {"uniqueid": "MTK0153:3QAVNHZ3ENBDED8GQTIGJLO6AMRLA7", "current_trial": 121, "dateTime": 1509298855353, "trialdata": {"rt": -1000, "stimulus": "/static/audio/wordpool/PECAN.wav", "key_press": -1, "type": "PRES_AUD", "word": "pecan", "wordID": 1035, "conditions": [12, 800, "a", 12000], "trial": 3, "serialpos": 4, "trial_type": "single-audio", "trial_index": 121, "time_elapsed": 1129742, "internal_node_id": "0.0-85.0"}}, {"uniqueid": "MTK0153:3QAVNHZ3ENBDED8GQTIGJLO6AMRLA7", "current_trial": 122, "dateTime": 1509298857018, "trialdata": {"rt": -1000, "stimulus": "/static/audio/wordpool/MAMMAL.wav", "key_press": -1, "type": "PRES_AUD", "word": "mammal", "wordID": 860, "conditions": [12, 800, "a", 12000], "trial": 3, "serialpos": 5, "trial_type": "single-audio", "trial_index": 122, "time_elapsed": 1131407, "internal_node_id": "0.0-86.0"}}, {"uniqueid": "MTK0153:3QAVNHZ3ENBDED8GQTIGJLO6AMRLA7", "current_trial": 123, "dateTime": 1509298858775, "trialdata": {"rt": -1000, "stimulus": "/static/audio/wordpool/WAITRESS.wav", "key_press": -1, "type": "PRES_AUD", "word": "waitress", "wordID": 1580, "conditions": [12, 800, "a", 12000], "trial": 3, "serialpos": 6, "trial_type": "single-audio", "trial_index": 123, "time_elapsed": 1133163, "internal_node_id": "0.0-87.0"}}, {"uniqueid": "MTK0153:3QAVNHZ3ENBDED8GQTIGJLO6AMRLA7", "current_trial": 124, "dateTime": 1509298860713, "trialdata": {"rt": -1000, "stimulus": "/static/audio/wordpool/JELLY.wav", "key_press": -1, "type": "PRES_AUD", "word": "jelly", "wordID": 754, "conditions": [12, 800, "a", 12000], "trial": 3, "serialpos": 7, "trial_type": "single-audio", "trial_index": 124, "time_elapsed": 1135102, "internal_node_id": "0.0-88.0"}}, {"uniqueid": "MTK0153:3QAVNHZ3ENBDED8GQTIGJLO6AMRLA7", "current_trial": 125, "dateTime": 1509298862604, "trialdata": {"rt": -1000, "stimulus": "/static/audio/wordpool/BOUQUET.wav", "key_press": -1, "type": "PRES_AUD", "word": "bouquet", "wordID": 156, "conditions": [12, 800, "a", 12000], "trial": 3, "serialpos": 8, "trial_type": "single-audio", "trial_index": 125, "time_elapsed": 1136993, "internal_node_id": "0.0-89.0"}}, {"uniqueid": "MTK0153:3QAVNHZ3ENBDED8GQTIGJLO6AMRLA7", "current_trial": 126, "dateTime": 1509298864341, "trialdata": {"rt": -1000, "stimulus": "/static/audio/wordpool/COBRA.wav", "key_press": -1, "type": "PRES_AUD", "word": "cobra", "wordID": 335, "conditions": [12, 800, "a", 12000], "trial": 3, "serialpos": 9, "trial_type": "single-audio", "trial_index": 126, "time_elapsed": 1138730, "internal_node_id": "0.0-90.0"}}, {"uniqueid": "MTK0153:3QAVNHZ3ENBDED8GQTIGJLO6AMRLA7", "current_trial": 127, "dateTime": 1509298866154, "trialdata": {"rt": -1000, "stimulus": "/static/audio/wordpool/AIRPORT.wav", "key_press": -1, "type": "PRES_AUD", "word": "airport", "wordID": 12, "conditions": [12, 800, "a", 12000], "trial": 3, "serialpos": 10, "trial_type": "single-audio", "trial_index": 127, "time_elapsed": 1140542, "internal_node_id": "0.0-91.0"}}, {"uniqueid": "MTK0153:3QAVNHZ3ENBDED8GQTIGJLO6AMRLA7", "current_trial": 128, "dateTime": 1509298867903, "trialdata": {"rt": -1000, "stimulus": "/static/audio/wordpool/BRANCH.wav", "key_press": -1, "type": "PRES_AUD", "word": "branch", "wordID": 167, "conditions": [12, 800, "a", 12000], "trial": 3, "serialpos": 11, "trial_type": "single-audio", "trial_index": 128, "time_elapsed": 1142292, "internal_node_id": "0.0-92.0"}}, {"uniqueid": "MTK0153:3QAVNHZ3ENBDED8GQTIGJLO6AMRLA7", "current_trial": 129, "dateTime": 1509298869217, "trialdata": {"rt": -1, "stimulus": "", "key_press": -1, "type": "PRE_RECALL_DELAY", "trial_type": "single-stim", "trial_index": 129, "time_elapsed": 1143606, "internal_node_id": "0.0-93.0-0.0"}}, {"uniqueid": "MTK0153:3QAVNHZ3ENBDED8GQTIGJLO6AMRLA7", "current_trial": 130, "dateTime": 1509298869718, "trialdata": {"rt": -1000, "stimulus": "/static/audio/400Hz.wav", "key_press": -1, "type": "PRE_RECALL_ALERT", "trial_type": "single-audio", "trial_index": 130, "time_elapsed": 1144107, "internal_node_id": "0.0-94.0"}}, {"uniqueid": "MTK0153:3QAVNHZ3ENBDED8GQTIGJLO6AMRLA7", "current_trial": 131, "dateTime": 1509298929727, "trialdata": {"rt": [5403, 9935, 15994, 29811, 41666], "recwords": ["airport", "bench", "manhole", "cant", "cantrecallanymore"], "type": "FREE_RECALL", "conditions": [12, 800, "a", 12000], "trial": 3, "trial_type": "free-recall", "trial_index": 131, "time_elapsed": 1204112, "internal_node_id": "0.0-95.0-0.0"}}, {"uniqueid": "MTK0153:3QAVNHZ3ENBDED8GQTIGJLO6AMRLA7", "current_trial": 132, "dateTime": 1509298933397, "trialdata": {"rt": 1669, "key_press": 32, "type": "INSTRUCTIONS", "trial_type": "text", "trial_index": 132, "time_elapsed": 1207786, "internal_node_id": "0.0-96.0"}}, {"uniqueid": "MTK0153:3QAVNHZ3ENBDED8GQTIGJLO6AMRLA7", "current_trial": 133, "dateTime": 1509298959403, "trialdata": {"rt": [3821, 7560, 10513, 13688, 17791, 22144], "responses": ["9", "16", "13", "18", "26", "15"], "num1": [2, 5, 3, 4, 9, 7, 4], "num2": [6, 3, 6, 6, 9, 6, 9], "num3": [1, 8, 4, 8, 7, 3, 8], "type": "DISTRACTOR", "conditions": [24, 1600, "v", 24000], "trial": 4, "trial_type": "math-distractor", "trial_index": 133, "time_elapsed": 1233792, "internal_node_id": "0.0-97.0"}}, {"uniqueid": "MTK0153:3QAVNHZ3ENBDED8GQTIGJLO6AMRLA7", "current_trial": 134, "dateTime": 1509298962406, "trialdata": {"rt": -1, "stimulus": "<p id=\"stim\">10</p>", "key_press": -1, "trial_type": "single-stim", "trial_index": 134, "time_elapsed": 1236794, "internal_node_id": "0.0-98.0-0.0"}}, {"uniqueid": "MTK0153:3QAVNHZ3ENBDED8GQTIGJLO6AMRLA7", "current_trial": 135, "dateTime": 1509298963407, "trialdata": {"rt": -1, "stimulus": "<p id=\"stim\">9</p>", "key_press": -1, "trial_type": "single-stim", "trial_index": 135, "time_elapsed": 1237796, "internal_node_id": "0.0-98.0-1.0"}}, {"uniqueid": "MTK0153:3QAVNHZ3ENBDED8GQTIGJLO6AMRLA7", "current_trial": 136, "dateTime": 1509298964409, "trialdata": {"rt": -1, "stimulus": "<p id=\"stim\">8</p>", "key_press": -1, "trial_type": "single-stim", "trial_index": 136, "time_elapsed": 1238798, "internal_node_id": "0.0-98.0-2.0"}}, {"uniqueid": "MTK0153:3QAVNHZ3ENBDED8GQTIGJLO6AMRLA7", "current_trial": 137, "dateTime": 1509298965410, "trialdata": {"rt": -1, "stimulus": "<p id=\"stim\">7</p>", "key_press": -1, "trial_type": "single-stim", "trial_index": 137, "time_elapsed": 1239799, "internal_node_id": "0.0-98.0-3.0"}}, {"uniqueid": "MTK0153:3QAVNHZ3ENBDED8GQTIGJLO6AMRLA7", "current_trial": 138, "dateTime": 1509298966412, "trialdata": {"rt": -1, "stimulus": "<p id=\"stim\">6</p>", "key_press": -1, "trial_type": "single-stim", "trial_index": 138, "time_elapsed": 1240801, "internal_node_id": "0.0-98.0-4.0"}}, {"uniqueid": "MTK0153:3QAVNHZ3ENBDED8GQTIGJLO6AMRLA7", "current_trial": 139, "dateTime": 1509298967415, "trialdata": {"rt": -1, "stimulus": "<p id=\"stim\">5</p>", "key_press": -1, "trial_type": "single-stim", "trial_index": 139, "time_elapsed": 1241804, "internal_node_id": "0.0-98.0-5.0"}}, {"uniqueid": "MTK0153:3QAVNHZ3ENBDED8GQTIGJLO6AMRLA7", "current_trial": 140, "dateTime": 1509298968417, "trialdata": {"rt": -1, "stimulus": "<p id=\"stim\">4</p>", "key_press": -1, "trial_type": "single-stim", "trial_index": 140, "time_elapsed": 1242805, "internal_node_id": "0.0-98.0-6.0"}}, {"uniqueid": "MTK0153:3QAVNHZ3ENBDED8GQTIGJLO6AMRLA7", "current_trial": 141, "dateTime": 1509298969419, "trialdata": {"rt": -1, "stimulus": "<p id=\"stim\">3</p>", "key_press": -1, "trial_type": "single-stim", "trial_index": 141, "time_elapsed": 1243808, "internal_node_id": "0.0-98.0-7.0"}}, {"uniqueid": "MTK0153:3QAVNHZ3ENBDED8GQTIGJLO6AMRLA7", "current_trial": 142, "dateTime": 1509298970421, "trialdata": {"rt": -1, "stimulus": "<p id=\"stim\">2</p>", "key_press": -1, "trial_type": "single-stim", "trial_index": 142, "time_elapsed": 1244810, "internal_node_id": "0.0-98.0-8.0"}}, {"uniqueid": "MTK0153:3QAVNHZ3ENBDED8GQTIGJLO6AMRLA7", "current_trial": 143, "dateTime": 1509298971423, "trialdata": {"rt": -1, "stimulus": "<p id=\"stim\">1</p>", "key_press": -1, "trial_type": "single-stim", "trial_index": 143, "time_elapsed": 1245811, "internal_node_id": "0.0-98.0-9.0"}}, {"uniqueid": "MTK0153:3QAVNHZ3ENBDED8GQTIGJLO6AMRLA7", "current_trial": 144, "dateTime": 1509298972924, "trialdata": {"rt": -1, "stimulus": "<p id=\"stim\">+</p>", "key_press": -1, "type": "FIXATION", "trial_type": "single-stim", "trial_index": 144, "time_elapsed": 1247313, "internal_node_id": "0.0-99.0-0.0"}}, {"uniqueid": "MTK0153:3QAVNHZ3ENBDED8GQTIGJLO6AMRLA7", "current_trial": 145, "dateTime": 1509298974526, "trialdata": {"rt": -1, "stimulus": "<p id=\"stim\">AGENT</p>", "key_press": -1, "type": "PRES_VIS", "word": "agent", "wordID": 9, "conditions": [24, 1600, "v", 24000], "trial": 4, "serialpos": 0, "trial_type": "single-stim", "trial_index": 145, "time_elapsed": 1248915, "internal_node_id": "0.0-100.0"}}, {"uniqueid": "MTK0153:3QAVNHZ3ENBDED8GQTIGJLO6AMRLA7", "current_trial": 146, "dateTime": 1509298977250, "trialdata": {"rt": -1, "stimulus": "<p id=\"stim\">FLOWER</p>", "key_press": -1, "type": "PRES_VIS", "word": "flower", "wordID": 583, "conditions": [24, 1600, "v", 24000], "trial": 4, "serialpos": 1, "trial_type": "single-stim", "trial_index": 146, "time_elapsed": 1251639, "internal_node_id": "0.0-101.0"}}, {"uniqueid": "MTK0153:3QAVNHZ3ENBDED8GQTIGJLO6AMRLA7", "current_trial": 147, "dateTime": 1509298979669, "trialdata": {"rt": -1, "stimulus": "<p id=\"stim\">TRANSPLANT</p>", "key_press": -1, "type": "PRES_VIS", "word": "transplant", "wordID": 1495, "conditions": [24, 1600, "v", 24000], "trial": 4, "serialpos": 2, "trial_type": "single-stim", "trial_index": 147, "time_elapsed": 1254058, "internal_node_id": "0.0-102.0"}}, {"uniqueid": "MTK0153:3QAVNHZ3ENBDED8GQTIGJLO6AMRLA7", "current_trial": 148, "dateTime": 1509298982214, "trialdata": {"rt": -1, "stimulus": "<p id=\"stim\">KIDNEY</p>", "key_press": -1, "type": "PRES_VIS", "word": "kidney", "wordID": 775, "conditions": [24, 1600, "v", 24000], "trial": 4, "serialpos": 3, "trial_type": "single-stim", "trial_index": 148, "time_elapsed": 1256600, "internal_node_id": "0.0-103.0"}}, {"uniqueid": "MTK0153:3QAVNHZ3ENBDED8GQTIGJLO6AMRLA7", "current_trial": 149, "dateTime": 1509298984916, "trialdata": {"rt": -1, "stimulus": "<p id=\"stim\">FRAGRANCE</p>", "key_press": -1, "type": "PRES_VIS", "word": "fragrance", "wordID": 598, "conditions": [24, 1600, "v", 24000], "trial": 4, "serialpos": 4, "trial_type": "single-stim", "trial_index": 149, "time_elapsed": 1259305, "internal_node_id": "0.0-104.0"}}, {"uniqueid": "MTK0153:3QAVNHZ3ENBDED8GQTIGJLO6AMRLA7", "current_trial": 150, "dateTime": 1509298987461, "trialdata": {"rt": -1, "stimulus": "<p id=\"stim\">TOMBSTONE</p>", "key_press": -1, "type": "PRES_VIS", "word": "tombstone", "wordID": 1477, "conditions": [24, 1600, "v", 24000], "trial": 4, "serialpos": 5, "trial_type": "single-stim", "trial_index": 150, "time_elapsed": 1261850, "internal_node_id": "0.0-105.0"}}, {"uniqueid": "MTK0153:3QAVNHZ3ENBDED8GQTIGJLO6AMRLA7", "current_trial": 151, "dateTime": 1509298990014, "trialdata": {"rt": -1, "stimulus": "<p id=\"stim\">OUTDOORS</p>", "key_press": -1, "type": "PRES_VIS", "word": "outdoors", "wordID": 986, "conditions": [24, 1600, "v", 24000], "trial": 4, "serialpos": 6, "trial_type": "single-stim", "trial_index": 151, "time_elapsed": 1264402, "internal_node_id": "0.0-106.0"}}, {"uniqueid": "MTK0153:3QAVNHZ3ENBDED8GQTIGJLO6AMRLA7", "current_trial": 152, "dateTime": 1509298992808, "trialdata": {"rt": -1, "stimulus": "<p id=\"stim\">LADY</p>", "key_press": -1, "type": "PRES_VIS", "word": "lady", "wordID": 793, "conditions": [24, 1600, "v", 24000], "trial": 4, "serialpos": 7, "trial_type": "single-stim", "trial_index": 152, "time_elapsed": 1267197, "internal_node_id": "0.0-107.0"}}, {"uniqueid": "MTK0153:3QAVNHZ3ENBDED8GQTIGJLO6AMRLA7", "current_trial": 153, "dateTime": 1509298995479, "trialdata": {"rt": -1, "stimulus": "<p id=\"stim\">WINDOW</p>", "key_press": -1, "type": "PRES_VIS", "word": "window", "wordID": 1610, "conditions": [24, 1600, "v", 24000], "trial": 4, "serialpos": 8, "trial_type": "single-stim", "trial_index": 153, "time_elapsed": 1269868, "internal_node_id": "0.0-108.0"}}, {"uniqueid": "MTK0153:3QAVNHZ3ENBDED8GQTIGJLO6AMRLA7", "current_trial": 154, "dateTime": 1509298998045, "trialdata": {"rt": -1, "stimulus": "<p id=\"stim\">CRUTCH</p>", "key_press": -1, "type": "PRES_VIS", "word": "crutch", "wordID": 416, "conditions": [24, 1600, "v", 24000], "trial": 4, "serialpos": 9, "trial_type": "single-stim", "trial_index": 154, "time_elapsed": 1272434, "internal_node_id": "0.0-109.0"}}, {"uniqueid": "MTK0153:3QAVNHZ3ENBDED8GQTIGJLO6AMRLA7", "current_trial": 155, "dateTime": 1509299000816, "trialdata": {"rt": -1, "stimulus": "<p id=\"stim\">DAISY</p>", "key_press": -1, "type": "PRES_VIS", "word": "daisy", "wordID": 434, "conditions": [24, 1600, "v", 24000], "trial": 4, "serialpos": 10, "trial_type": "single-stim", "trial_index": 155, "time_elapsed": 1275205, "internal_node_id": "0.0-110.0"}}, {"uniqueid": "MTK0153:3QAVNHZ3ENBDED8GQTIGJLO6AMRLA7", "current_trial": 156, "dateTime": 1509299003479, "trialdata": {"rt": -1, "stimulus": "<p id=\"stim\">CHILD</p>", "key_press": -1, "type": "PRES_VIS", "word": "child", "wordID": 298, "conditions": [24, 1600, "v", 24000], "trial": 4, "serialpos": 11, "trial_type": "single-stim", "trial_index": 156, "time_elapsed": 1277868, "internal_node_id": "0.0-111.0"}}, {"uniqueid": "MTK0153:3QAVNHZ3ENBDED8GQTIGJLO6AMRLA7", "current_trial": 157, "dateTime": 1509299006242, "trialdata": {"rt": -1, "stimulus": "<p id=\"stim\">GRILL</p>", "key_press": -1, "type": "PRES_VIS", "word": "grill", "wordID": 660, "conditions": [24, 1600, "v", 24000], "trial": 4, "serialpos": 12, "trial_type": "single-stim", "trial_index": 157, "time_elapsed": 1280631, "internal_node_id": "0.0-112.0"}}, {"uniqueid": "MTK0153:3QAVNHZ3ENBDED8GQTIGJLO6AMRLA7", "current_trial": 158, "dateTime": 1509299009025, "trialdata": {"rt": -1, "stimulus": "<p id=\"stim\">SPIDER</p>", "key_press": -1, "type": "PRES_VIS", "word": "spider", "wordID": 1350, "conditions": [24, 1600, "v", 24000], "trial": 4, "serialpos": 13, "trial_type": "single-stim", "trial_index": 158, "time_elapsed": 1283414, "internal_node_id": "0.0-113.0"}}, {"uniqueid": "MTK0153:3QAVNHZ3ENBDED8GQTIGJLO6AMRLA7", "current_trial": 159, "dateTime": 1509299011720, "trialdata": {"rt": -1, "stimulus": "<p id=\"stim\">FOOTBALL</p>", "key_press": -1, "type": "PRES_VIS", "word": "football", "wordID": 590, "conditions": [24, 1600, "v", 24000], "trial": 4, "serialpos": 14, "trial_type": "single-stim", "trial_index": 159, "time_elapsed": 1286109, "internal_node_id": "0.0-114.0"}}, {"uniqueid": "MTK0153:3QAVNHZ3ENBDED8GQTIGJLO6AMRLA7", "current_trial": 160, "dateTime": 1509299014492, "trialdata": {"rt": -1, "stimulus": "<p id=\"stim\">BUBBLE</p>", "key_press": -1, "type": "PRES_VIS", "word": "bubble", "wordID": 182, "conditions": [24, 1600, "v", 24000], "trial": 4, "serialpos": 15, "trial_type": "single-stim", "trial_index": 160, "time_elapsed": 1288881, "internal_node_id": "0.0-115.0"}}, {"uniqueid": "MTK0153:3QAVNHZ3ENBDED8GQTIGJLO6AMRLA7", "current_trial": 161, "dateTime": 1509299017269, "trialdata": {"rt": -1, "stimulus": "<p id=\"stim\">POET</p>", "key_press": -1, "type": "PRES_VIS", "word": "poet", "wordID": 1094, "conditions": [24, 1600, "v", 24000], "trial": 4, "serialpos": 16, "trial_type": "single-stim", "trial_index": 161, "time_elapsed": 1291658, "internal_node_id": "0.0-116.0"}}, {"uniqueid": "MTK0153:3QAVNHZ3ENBDED8GQTIGJLO6AMRLA7", "current_trial": 162, "dateTime": 1509299019678, "trialdata": {"rt": -1, "stimulus": "<p id=\"stim\">TOURIST</p>", "key_press": -1, "type": "PRES_VIS", "word": "tourist", "wordID": 1487, "conditions": [24, 1600, "v", 24000], "trial": 4, "serialpos": 17, "trial_type": "single-stim", "trial_index": 162, "time_elapsed": 1294067, "internal_node_id": "0.0-117.0"}}, {"uniqueid": "MTK0153:3QAVNHZ3ENBDED8GQTIGJLO6AMRLA7", "current_trial": 163, "dateTime": 1509299022437, "trialdata": {"rt": -1, "stimulus": "<p id=\"stim\">SWAMP</p>", "key_press": -1, "type": "PRES_VIS", "word": "swamp", "wordID": 1415, "conditions": [24, 1600, "v", 24000], "trial": 4, "serialpos": 18, "trial_type": "single-stim", "trial_index": 163, "time_elapsed": 1296826, "internal_node_id": "0.0-118.0"}}, {"uniqueid": "MTK0153:3QAVNHZ3ENBDED8GQTIGJLO6AMRLA7", "current_trial": 164, "dateTime": 1509299025009, "trialdata": {"rt": -1, "stimulus": "<p id=\"stim\">COOK</p>", "key_press": -1, "type": "PRES_VIS", "word": "cook", "wordID": 371, "conditions": [24, 1600, "v", 24000], "trial": 4, "serialpos": 19, "trial_type": "single-stim", "trial_index": 164, "time_elapsed": 1299398, "internal_node_id": "0.0-119.0"}}, {"uniqueid": "MTK0153:3QAVNHZ3ENBDED8GQTIGJLO6AMRLA7", "current_trial": 165, "dateTime": 1509299027616, "trialdata": {"rt": -1, "stimulus": "<p id=\"stim\">NECKLACE</p>", "key_press": -1, "type": "PRES_VIS", "word": "necklace", "wordID": 939, "conditions": [24, 1600, "v", 24000], "trial": 4, "serialpos": 20, "trial_type": "single-stim", "trial_index": 165, "time_elapsed": 1302005, "internal_node_id": "0.0-120.0"}}, {"uniqueid": "MTK0153:3QAVNHZ3ENBDED8GQTIGJLO6AMRLA7", "current_trial": 166, "dateTime": 1509299030284, "trialdata": {"rt": -1, "stimulus": "<p id=\"stim\">PUDDING</p>", "key_press": -1, "type": "PRES_VIS", "word": "pudding", "wordID": 1138, "conditions": [24, 1600, "v", 24000], "trial": 4, "serialpos": 21, "trial_type": "single-stim", "trial_index": 166, "time_elapsed": 1304673, "internal_node_id": "0.0-121.0"}}, {"uniqueid": "MTK0153:3QAVNHZ3ENBDED8GQTIGJLO6AMRLA7", "current_trial": 167, "dateTime": 1509299032994, "trialdata": {"rt": -1, "stimulus": "<p id=\"stim\">SNAIL</p>", "key_press": -1, "type": "PRES_VIS", "word": "snail", "wordID": 1331, "conditions": [24, 1600, "v", 24000], "trial": 4, "serialpos": 22, "trial_type": "single-stim", "trial_index": 167, "time_elapsed": 1307383, "internal_node_id": "0.0-122.0"}}, {"uniqueid": "MTK0153:3QAVNHZ3ENBDED8GQTIGJLO6AMRLA7", "current_trial": 168, "dateTime": 1509299035462, "trialdata": {"rt": -1, "stimulus": "<p id=\"stim\">TORTOISE</p>", "key_press": -1, "type": "PRES_VIS", "word": "tortoise", "wordID": 1485, "conditions": [24, 1600, "v", 24000], "trial": 4, "serialpos": 23, "trial_type": "single-stim", "trial_index": 168, "time_elapsed": 1309850, "internal_node_id": "0.0-123.0"}}, {"uniqueid": "MTK0153:3QAVNHZ3ENBDED8GQTIGJLO6AMRLA7", "current_trial": 169, "dateTime": 1509299037653, "trialdata": {"rt": -1, "stimulus": "", "key_press": -1, "type": "PRE_RECALL_DELAY", "trial_type": "single-stim", "trial_index": 169, "time_elapsed": 1312041, "internal_node_id": "0.0-124.0-0.0"}}, {"uniqueid": "MTK0153:3QAVNHZ3ENBDED8GQTIGJLO6AMRLA7", "current_trial": 170, "dateTime": 1509299038162, "trialdata": {"rt": -1000, "stimulus": "/static/audio/400Hz.wav", "key_press": -1, "type": "PRE_RECALL_ALERT", "trial_type": "single-audio", "trial_index": 170, "time_elapsed": 1312551, "internal_node_id": "0.0-125.0"}}, {"uniqueid": "MTK0153:3QAVNHZ3ENBDED8GQTIGJLO6AMRLA7", "current_trial": 171, "dateTime": 1509299098171, "trialdata": {"rt": [4077, 6228, 8239, 11862, 14717, 18042, 25721, 29061, 43309], "recwords": ["child", "grill", "lady", "fragrance", "football", "kidney", "transplant", "necklace", "outdoors"], "type": "FREE_RECALL", "conditions": [24, 1600, "v", 24000], "trial": 4, "trial_type": "free-recall", "trial_index": 171, "time_elapsed": 1372555, "internal_node_id": "0.0-126.0-0.0"}}, {"uniqueid": "MTK0153:3QAVNHZ3ENBDED8GQTIGJLO6AMRLA7", "current_trial": 172, "dateTime": 1509299107946, "trialdata": {"rt": 7774, "key_press": 32, "type": "INSTRUCTIONS", "trial_type": "text", "trial_index": 172, "time_elapsed": 1382335, "internal_node_id": "0.0-127.0"}}, {"uniqueid": "MTK0153:3QAVNHZ3ENBDED8GQTIGJLO6AMRLA7", "current_trial": 173, "dateTime": 1509299121950, "trialdata": {"rt": [3905, 6535, 9968], "responses": ["8", "12", "14"], "num1": [4, 2, 5, 5], "num2": [1, 4, 2, 4], "num3": [3, 6, 7, 9], "type": "DISTRACTOR", "conditions": [24, 1600, "v", 12000], "trial": 5, "trial_type": "math-distractor", "trial_index": 173, "time_elapsed": 1396339, "internal_node_id": "0.0-128.0"}}, {"uniqueid": "MTK0153:3QAVNHZ3ENBDED8GQTIGJLO6AMRLA7", "current_trial": 174, "dateTime": 1509299124951, "trialdata": {"rt": -1, "stimulus": "<p id=\"stim\">10</p>", "key_press": -1, "trial_type": "single-stim", "trial_index": 174, "time_elapsed": 1399340, "internal_node_id": "0.0-129.0-0.0"}}, {"uniqueid": "MTK0153:3QAVNHZ3ENBDED8GQTIGJLO6AMRLA7", "current_trial": 175, "dateTime": 1509299125953, "trialdata": {"rt": -1, "stimulus": "<p id=\"stim\">9</p>", "key_press": -1, "trial_type": "single-stim", "trial_index": 175, "time_elapsed": 1400342, "internal_node_id": "0.0-129.0-1.0"}}, {"uniqueid": "MTK0153:3QAVNHZ3ENBDED8GQTIGJLO6AMRLA7", "current_trial": 176, "dateTime": 1509299126954, "trialdata": {"rt": -1, "stimulus": "<p id=\"stim\">8</p>", "key_press": -1, "trial_type": "single-stim", "trial_index": 176, "time_elapsed": 1401343, "internal_node_id": "0.0-129.0-2.0"}}, {"uniqueid": "MTK0153:3QAVNHZ3ENBDED8GQTIGJLO6AMRLA7", "current_trial": 177, "dateTime": 1509299127955, "trialdata": {"rt": -1, "stimulus": "<p id=\"stim\">7</p>", "key_press": -1, "trial_type": "single-stim", "trial_index": 177, "time_elapsed": 1402344, "internal_node_id": "0.0-129.0-3.0"}}, {"uniqueid": "MTK0153:3QAVNHZ3ENBDED8GQTIGJLO6AMRLA7", "current_trial": 178, "dateTime": 1509299128957, "trialdata": {"rt": -1, "stimulus": "<p id=\"stim\">6</p>", "key_press": -1, "trial_type": "single-stim", "trial_index": 178, "time_elapsed": 1403345, "internal_node_id": "0.0-129.0-4.0"}}, {"uniqueid": "MTK0153:3QAVNHZ3ENBDED8GQTIGJLO6AMRLA7", "current_trial": 179, "dateTime": 1509299129958, "trialdata": {"rt": -1, "stimulus": "<p id=\"stim\">5</p>", "key_press": -1, "trial_type": "single-stim", "trial_index": 179, "time_elapsed": 1404347, "internal_node_id": "0.0-129.0-5.0"}}, {"uniqueid": "MTK0153:3QAVNHZ3ENBDED8GQTIGJLO6AMRLA7", "current_trial": 180, "dateTime": 1509299130960, "trialdata": {"rt": -1, "stimulus": "<p id=\"stim\">4</p>", "key_press": -1, "trial_type": "single-stim", "trial_index": 180, "time_elapsed": 1405348, "internal_node_id": "0.0-129.0-6.0"}}, {"uniqueid": "MTK0153:3QAVNHZ3ENBDED8GQTIGJLO6AMRLA7", "current_trial": 181, "dateTime": 1509299131965, "trialdata": {"rt": -1, "stimulus": "<p id=\"stim\">3</p>", "key_press": -1, "trial_type": "single-stim", "trial_index": 181, "time_elapsed": 1406354, "internal_node_id": "0.0-129.0-7.0"}}, {"uniqueid": "MTK0153:3QAVNHZ3ENBDED8GQTIGJLO6AMRLA7", "current_trial": 182, "dateTime": 1509299132966, "trialdata": {"rt": -1, "stimulus": "<p id=\"stim\">2</p>", "key_press": -1, "trial_type": "single-stim", "trial_index": 182, "time_elapsed": 1407355, "internal_node_id": "0.0-129.0-8.0"}}, {"uniqueid": "MTK0153:3QAVNHZ3ENBDED8GQTIGJLO6AMRLA7", "current_trial": 183, "dateTime": 1509299133967, "trialdata": {"rt": -1, "stimulus": "<p id=\"stim\">1</p>", "key_press": -1, "trial_type": "single-stim", "trial_index": 183, "time_elapsed": 1408356, "internal_node_id": "0.0-129.0-9.0"}}, {"uniqueid": "MTK0153:3QAVNHZ3ENBDED8GQTIGJLO6AMRLA7", "current_trial": 184, "dateTime": 1509299135469, "trialdata": {"rt": -1, "stimulus": "<p id=\"stim\">+</p>", "key_press": -1, "type": "FIXATION", "trial_type": "single-stim", "trial_index": 184, "time_elapsed": 1409858, "internal_node_id": "0.0-130.0-0.0"}}, {"uniqueid": "MTK0153:3QAVNHZ3ENBDED8GQTIGJLO6AMRLA7", "current_trial": 185, "dateTime": 1509299137070, "trialdata": {"rt": -1, "stimulus": "<p id=\"stim\">DIVER</p>", "key_press": -1, "type": "PRES_VIS", "word": "diver", "wordID": 475, "conditions": [24, 1600, "v", 12000], "trial": 5, "serialpos": 0, "trial_type": "single-stim", "trial_index": 185, "time_elapsed": 1411459, "internal_node_id": "0.0-131.0"}}, {"uniqueid": "MTK0153:3QAVNHZ3ENBDED8GQTIGJLO6AMRLA7", "current_trial": 186, "dateTime": 1509299139595, "trialdata": {"rt": -1, "stimulus": "<p id=\"stim\">SHRUB</p>", "key_press": -1, "type": "PRES_VIS", "word": "shrub", "wordID": 1298, "conditions": [24, 1600, "v", 12000], "trial": 5, "serialpos": 1, "trial_type": "single-stim", "trial_index": 186, "time_elapsed": 1413984, "internal_node_id": "0.0-132.0"}}, {"uniqueid": "MTK0153:3QAVNHZ3ENBDED8GQTIGJLO6AMRLA7", "current_trial": 187, "dateTime": 1509299142184, "trialdata": {"rt": -1, "stimulus": "<p id=\"stim\">SUNSET</p>", "key_press": -1, "type": "PRES_VIS", "word": "sunset", "wordID": 1407, "conditions": [24, 1600, "v", 12000], "trial": 5, "serialpos": 2, "trial_type": "single-stim", "trial_index": 187, "time_elapsed": 1416573, "internal_node_id": "0.0-133.0"}}, {"uniqueid": "MTK0153:3QAVNHZ3ENBDED8GQTIGJLO6AMRLA7", "current_trial": 188, "dateTime": 1509299144663, "trialdata": {"rt": -1, "stimulus": "<p id=\"stim\">SUNRISE</p>", "key_press": -1, "type": "PRES_VIS", "word": "sunrise", "wordID": 1406, "conditions": [24, 1600, "v", 12000], "trial": 5, "serialpos": 3, "trial_type": "single-stim", "trial_index": 188, "time_elapsed": 1419052, "internal_node_id": "0.0-134.0"}}, {"uniqueid": "MTK0153:3QAVNHZ3ENBDED8GQTIGJLO6AMRLA7", "current_trial": 189, "dateTime": 1509299147429, "trialdata": {"rt": -1, "stimulus": "<p id=\"stim\">MATTRESS</p>", "key_press": -1, "type": "PRES_VIS", "word": "mattress", "wordID": 878, "conditions": [24, 1600, "v", 12000], "trial": 5, "serialpos": 4, "trial_type": "single-stim", "trial_index": 189, "time_elapsed": 1421818, "internal_node_id": "0.0-135.0"}}, {"uniqueid": "MTK0153:3QAVNHZ3ENBDED8GQTIGJLO6AMRLA7", "current_trial": 190, "dateTime": 1509299150007, "trialdata": {"rt": -1, "stimulus": "<p id=\"stim\">RIVER</p>", "key_press": -1, "type": "PRES_VIS", "word": "river", "wordID": 1193, "conditions": [24, 1600, "v", 12000], "trial": 5, "serialpos": 5, "trial_type": "single-stim", "trial_index": 190, "time_elapsed": 1424396, "internal_node_id": "0.0-136.0"}}, {"uniqueid": "MTK0153:3QAVNHZ3ENBDED8GQTIGJLO6AMRLA7", "current_trial": 191, "dateTime": 1509299152534, "trialdata": {"rt": -1, "stimulus": "<p id=\"stim\">PARENT</p>", "key_press": -1, "type": "PRES_VIS", "word": "parent", "wordID": 1012, "conditions": [24, 1600, "v", 12000], "trial": 5, "serialpos": 6, "trial_type": "single-stim", "trial_index": 191, "time_elapsed": 1426923, "internal_node_id": "0.0-137.0"}}, {"uniqueid": "MTK0153:3QAVNHZ3ENBDED8GQTIGJLO6AMRLA7", "current_trial": 192, "dateTime": 1509299155184, "trialdata": {"rt": -1, "stimulus": "<p id=\"stim\">SPONGE</p>", "key_press": -1, "type": "PRES_VIS", "word": "sponge", "wordID": 1354, "conditions": [24, 1600, "v", 12000], "trial": 5, "serialpos": 7, "trial_type": "single-stim", "trial_index": 192, "time_elapsed": 1429572, "internal_node_id": "0.0-138.0"}}, {"uniqueid": "MTK0153:3QAVNHZ3ENBDED8GQTIGJLO6AMRLA7", "current_trial": 193, "dateTime": 1509299157869, "trialdata": {"rt": -1, "stimulus": "<p id=\"stim\">GARDEN</p>", "key_press": -1, "type": "PRES_VIS", "word": "garden", "wordID": 622, "conditions": [24, 1600, "v", 12000], "trial": 5, "serialpos": 8, "trial_type": "single-stim", "trial_index": 193, "time_elapsed": 1432258, "internal_node_id": "0.0-139.0"}}, {"uniqueid": "MTK0153:3QAVNHZ3ENBDED8GQTIGJLO6AMRLA7", "current_trial": 194, "dateTime": 1509299160496, "trialdata": {"rt": -1, "stimulus": "<p id=\"stim\">DANCER</p>", "key_press": -1, "type": "PRES_VIS", "word": "dancer", "wordID": 436, "conditions": [24, 1600, "v", 12000], "trial": 5, "serialpos": 9, "trial_type": "single-stim", "trial_index": 194, "time_elapsed": 1434884, "internal_node_id": "0.0-140.0"}}, {"uniqueid": "MTK0153:3QAVNHZ3ENBDED8GQTIGJLO6AMRLA7", "current_trial": 195, "dateTime": 1509299163083, "trialdata": {"rt": -1, "stimulus": "<p id=\"stim\">APPLE</p>", "key_press": -1, "type": "PRES_VIS", "word": "apple", "wordID": 32, "conditions": [24, 1600, "v", 12000], "trial": 5, "serialpos": 10, "trial_type": "single-stim", "trial_index": 195, "time_elapsed": 1437472, "internal_node_id": "0.0-141.0"}}, {"uniqueid": "MTK0153:3QAVNHZ3ENBDED8GQTIGJLO6AMRLA7", "current_trial": 196, "dateTime": 1509299165669, "trialdata": {"rt": -1, "stimulus": "<p id=\"stim\">CITRUS</p>", "key_press": -1, "type": "PRES_VIS", "word": "citrus", "wordID": 312, "conditions": [24, 1600, "v", 12000], "trial": 5, "serialpos": 11, "trial_type": "single-stim", "trial_index": 196, "time_elapsed": 1440058, "internal_node_id": "0.0-142.0"}}, {"uniqueid": "MTK0153:3QAVNHZ3ENBDED8GQTIGJLO6AMRLA7", "current_trial": 197, "dateTime": 1509299168147, "trialdata": {"rt": -1, "stimulus": "<p id=\"stim\">RADISH</p>", "key_press": -1, "type": "PRES_VIS", "word": "radish", "wordID": 1157, "conditions": [24, 1600, "v", 12000], "trial": 5, "serialpos": 12, "trial_type": "single-stim", "trial_index": 197, "time_elapsed": 1442536, "internal_node_id": "0.0-143.0"}}, {"uniqueid": "MTK0153:3QAVNHZ3ENBDED8GQTIGJLO6AMRLA7", "current_trial": 198, "dateTime": 1509299170570, "trialdata": {"rt": -1, "stimulus": "<p id=\"stim\">FLEET</p>", "key_press": -1, "type": "PRES_VIS", "word": "fleet", "wordID": 577, "conditions": [24, 1600, "v", 12000], "trial": 5, "serialpos": 13, "trial_type": "single-stim", "trial_index": 198, "time_elapsed": 1444959, "internal_node_id": "0.0-144.0"}}, {"uniqueid": "MTK0153:3QAVNHZ3ENBDED8GQTIGJLO6AMRLA7", "current_trial": 199, "dateTime": 1509299173181, "trialdata": {"rt": -1, "stimulus": "<p id=\"stim\">PERMIT</p>", "key_press": -1, "type": "PRES_VIS", "word": "permit", "wordID": 1050, "conditions": [24, 1600, "v", 12000], "trial": 5, "serialpos": 14, "trial_type": "single-stim", "trial_index": 199, "time_elapsed": 1447570, "internal_node_id": "0.0-145.0"}}, {"uniqueid": "MTK0153:3QAVNHZ3ENBDED8GQTIGJLO6AMRLA7", "current_trial": 200, "dateTime": 1509299175591, "trialdata": {"rt": -1, "stimulus": "<p id=\"stim\">SCARECROW</p>", "key_press": -1, "type": "PRES_VIS", "word": "scarecrow", "wordID": 1244, "conditions": [24, 1600, "v", 12000], "trial": 5, "serialpos": 15, "trial_type": "single-stim", "trial_index": 200, "time_elapsed": 1449979, "internal_node_id": "0.0-146.0"}}, {"uniqueid": "MTK0153:3QAVNHZ3ENBDED8GQTIGJLO6AMRLA7", "current_trial": 201, "dateTime": 1509299178332, "trialdata": {"rt": -1, "stimulus": "<p id=\"stim\">ASIA</p>", "key_press": -1, "type": "PRES_VIS", "word": "asia", "wordID": 45, "conditions": [24, 1600, "v", 12000], "trial": 5, "serialpos": 16, "trial_type": "single-stim", "trial_index": 201, "time_elapsed": 1452721, "internal_node_id": "0.0-147.0"}}, {"uniqueid": "MTK0153:3QAVNHZ3ENBDED8GQTIGJLO6AMRLA7", "current_trial": 202, "dateTime": 1509299181108, "trialdata": {"rt": -1, "stimulus": "<p id=\"stim\">RECEIPT</p>", "key_press": -1, "type": "PRES_VIS", "word": "receipt", "wordID": 1172, "conditions": [24, 1600, "v", 12000], "trial": 5, "serialpos": 17, "trial_type": "single-stim", "trial_index": 202, "time_elapsed": 1455497, "internal_node_id": "0.0-148.0"}}, {"uniqueid": "MTK0153:3QAVNHZ3ENBDED8GQTIGJLO6AMRLA7", "current_trial": 203, "dateTime": 1509299183801, "trialdata": {"rt": -1, "stimulus": "<p id=\"stim\">RAFT</p>", "key_press": -1, "type": "PRES_VIS", "word": "raft", "wordID": 1158, "conditions": [24, 1600, "v", 12000], "trial": 5, "serialpos": 18, "trial_type": "single-stim", "trial_index": 203, "time_elapsed": 1458189, "internal_node_id": "0.0-149.0"}}, {"uniqueid": "MTK0153:3QAVNHZ3ENBDED8GQTIGJLO6AMRLA7", "current_trial": 204, "dateTime": 1509299186592, "trialdata": {"rt": -1, "stimulus": "<p id=\"stim\">BUGGY</p>", "key_press": -1, "type": "PRES_VIS", "word": "buggy", "wordID": 187, "conditions": [24, 1600, "v", 12000], "trial": 5, "serialpos": 19, "trial_type": "single-stim", "trial_index": 204, "time_elapsed": 1460980, "internal_node_id": "0.0-150.0"}}, {"uniqueid": "MTK0153:3QAVNHZ3ENBDED8GQTIGJLO6AMRLA7", "current_trial": 205, "dateTime": 1509299189375, "trialdata": {"rt": -1, "stimulus": "<p id=\"stim\">CABBAGE</p>", "key_press": -1, "type": "PRES_VIS", "word": "cabbage", "wordID": 209, "conditions": [24, 1600, "v", 12000], "trial": 5, "serialpos": 20, "trial_type": "single-stim", "trial_index": 205, "time_elapsed": 1463764, "internal_node_id": "0.0-151.0"}}, {"uniqueid": "MTK0153:3QAVNHZ3ENBDED8GQTIGJLO6AMRLA7", "current_trial": 206, "dateTime": 1509299191782, "trialdata": {"rt": -1, "stimulus": "<p id=\"stim\">SODA</p>", "key_press": -1, "type": "PRES_VIS", "word": "soda", "wordID": 1340, "conditions": [24, 1600, "v", 12000], "trial": 5, "serialpos": 21, "trial_type": "single-stim", "trial_index": 206, "time_elapsed": 1466170, "internal_node_id": "0.0-152.0"}}, {"uniqueid": "MTK0153:3QAVNHZ3ENBDED8GQTIGJLO6AMRLA7", "current_trial": 207, "dateTime": 1509299194556, "trialdata": {"rt": -1, "stimulus": "<p id=\"stim\">POPCORN</p>", "key_press": -1, "type": "PRES_VIS", "word": "popcorn", "wordID": 1103, "conditions": [24, 1600, "v", 12000], "trial": 5, "serialpos": 22, "trial_type": "single-stim", "trial_index": 207, "time_elapsed": 1468944, "internal_node_id": "0.0-153.0"}}, {"uniqueid": "MTK0153:3QAVNHZ3ENBDED8GQTIGJLO6AMRLA7", "current_trial": 208, "dateTime": 1509299197148, "trialdata": {"rt": -1, "stimulus": "<p id=\"stim\">NIGHTGOWN</p>", "key_press": -1, "type": "PRES_VIS", "word": "nightgown", "wordID": 952, "conditions": [24, 1600, "v", 12000], "trial": 5, "serialpos": 23, "trial_type": "single-stim", "trial_index": 208, "time_elapsed": 1471537, "internal_node_id": "0.0-154.0"}}, {"uniqueid": "MTK0153:3QAVNHZ3ENBDED8GQTIGJLO6AMRLA7", "current_trial": 209, "dateTime": 1509299199566, "trialdata": {"rt": -1, "stimulus": "", "key_press": -1, "type": "PRE_RECALL_DELAY", "trial_type": "single-stim", "trial_index": 209, "time_elapsed": 1473954, "internal_node_id": "0.0-155.0-0.0"}}, {"uniqueid": "MTK0153:3QAVNHZ3ENBDED8GQTIGJLO6AMRLA7", "current_trial": 210, "dateTime": 1509299200072, "trialdata": {"rt": -1000, "stimulus": "/static/audio/400Hz.wav", "key_press": -1, "type": "PRE_RECALL_ALERT", "trial_type": "single-audio", "trial_index": 210, "time_elapsed": 1474461, "internal_node_id": "0.0-156.0"}}, {"uniqueid": "MTK0153:3QAVNHZ3ENBDED8GQTIGJLO6AMRLA7", "current_trial": 211, "dateTime": 1509299260078, "trialdata": {"rt": [5934, 7433, 11276, 13660, 15965, 18046, 20976, 25237, 26779], "recwords": ["popcoern", "soda", "nightgown", "parent", "sunset", "sunrise", "radish", "citrus", "apple"], "type": "FREE_RECALL", "conditions": [24, 1600, "v", 12000], "trial": 5, "trial_type": "free-recall", "trial_index": 211, "time_elapsed": 1534462, "internal_node_id": "0.0-157.0-0.0"}}, {"uniqueid": "MTK0153:3QAVNHZ3ENBDED8GQTIGJLO6AMRLA7", "current_trial": 212, "dateTime": 1509299264386, "trialdata": {"rt": 2305, "key_press": 32, "type": "INSTRUCTIONS", "trial_type": "text", "trial_index": 212, "time_elapsed": 1538775, "internal_node_id": "0.0-158.0"}}, {"uniqueid": "MTK0153:3QAVNHZ3ENBDED8GQTIGJLO6AMRLA7", "current_trial": 213, "dateTime": 1509299290391, "trialdata": {"rt": [3190, 6130, 8107, 10573, 13147, 16144, 19792, 23250], "responses": ["9", "24", "12", "21", "13", "22", "17", "20"], "num1": [5, 9, 5, 9, 4, 9, 9, 4, 4], "num2": [1, 8, 5, 7, 4, 4, 6, 7, 6], "num3": [3, 7, 2, 5, 6, 9, 2, 9, 8], "type": "DISTRACTOR", "conditions": [12, 1600, "a", 24000], "trial": 6, "trial_type": "math-distractor", "trial_index": 213, "time_elapsed": 1564780, "internal_node_id": "0.0-159.0"}}, {"uniqueid": "MTK0153:3QAVNHZ3ENBDED8GQTIGJLO6AMRLA7", "current_trial": 214, "dateTime": 1509299293393, "trialdata": {"rt": -1, "stimulus": "<p id=\"stim\">10</p>", "key_press": -1, "trial_type": "single-stim", "trial_index": 214, "time_elapsed": 1567782, "internal_node_id": "0.0-160.0-0.0"}}, {"uniqueid": "MTK0153:3QAVNHZ3ENBDED8GQTIGJLO6AMRLA7", "current_trial": 215, "dateTime": 1509299294395, "trialdata": {"rt": -1, "stimulus": "<p id=\"stim\">9</p>", "key_press": -1, "trial_type": "single-stim", "trial_index": 215, "time_elapsed": 1568784, "internal_node_id": "0.0-160.0-1.0"}}, {"uniqueid": "MTK0153:3QAVNHZ3ENBDED8GQTIGJLO6AMRLA7", "current_trial": 216, "dateTime": 1509299295397, "trialdata": {"rt": -1, "stimulus": "<p id=\"stim\">8</p>", "key_press": -1, "trial_type": "single-stim", "trial_index": 216, "time_elapsed": 1569786, "internal_node_id": "0.0-160.0-2.0"}}, {"uniqueid": "MTK0153:3QAVNHZ3ENBDED8GQTIGJLO6AMRLA7", "current_trial": 217, "dateTime": 1509299296398, "trialdata": {"rt": -1, "stimulus": "<p id=\"stim\">7</p>", "key_press": -1, "trial_type": "single-stim", "trial_index": 217, "time_elapsed": 1570787, "internal_node_id": "0.0-160.0-3.0"}}, {"uniqueid": "MTK0153:3QAVNHZ3ENBDED8GQTIGJLO6AMRLA7", "current_trial": 218, "dateTime": 1509299297400, "trialdata": {"rt": -1, "stimulus": "<p id=\"stim\">6</p>", "key_press": -1, "trial_type": "single-stim", "trial_index": 218, "time_elapsed": 1571788, "internal_node_id": "0.0-160.0-4.0"}}, {"uniqueid": "MTK0153:3QAVNHZ3ENBDED8GQTIGJLO6AMRLA7", "current_trial": 219, "dateTime": 1509299298402, "trialdata": {"rt": -1, "stimulus": "<p id=\"stim\">5</p>", "key_press": -1, "trial_type": "single-stim", "trial_index": 219, "time_elapsed": 1572791, "internal_node_id": "0.0-160.0-5.0"}}, {"uniqueid": "MTK0153:3QAVNHZ3ENBDED8GQTIGJLO6AMRLA7", "current_trial": 220, "dateTime": 1509299299403, "trialdata": {"rt": -1, "stimulus": "<p id=\"stim\">4</p>", "key_press": -1, "trial_type": "single-stim", "trial_index": 220, "time_elapsed": 1573792, "internal_node_id": "0.0-160.0-6.0"}}, {"uniqueid": "MTK0153:3QAVNHZ3ENBDED8GQTIGJLO6AMRLA7", "current_trial": 221, "dateTime": 1509299300405, "trialdata": {"rt": -1, "stimulus": "<p id=\"stim\">3</p>", "key_press": -1, "trial_type": "single-stim", "trial_index": 221, "time_elapsed": 1574793, "internal_node_id": "0.0-160.0-7.0"}}, {"uniqueid": "MTK0153:3QAVNHZ3ENBDED8GQTIGJLO6AMRLA7", "current_trial": 222, "dateTime": 1509299301406, "trialdata": {"rt": -1, "stimulus": "<p id=\"stim\">2</p>", "key_press": -1, "trial_type": "single-stim", "trial_index": 222, "time_elapsed": 1575795, "internal_node_id": "0.0-160.0-8.0"}}, {"uniqueid": "MTK0153:3QAVNHZ3ENBDED8GQTIGJLO6AMRLA7", "current_trial": 223, "dateTime": 1509299302408, "trialdata": {"rt": -1, "stimulus": "<p id=\"stim\">1</p>", "key_press": -1, "trial_type": "single-stim", "trial_index": 223, "time_elapsed": 1576797, "internal_node_id": "0.0-160.0-9.0"}}, {"uniqueid": "MTK0153:3QAVNHZ3ENBDED8GQTIGJLO6AMRLA7", "current_trial": 224, "dateTime": 1509299303909, "trialdata": {"rt": -1, "stimulus": "<p id=\"stim\">+</p>", "key_press": -1, "type": "FIXATION", "trial_type": "single-stim", "trial_index": 224, "time_elapsed": 1578297, "internal_node_id": "0.0-161.0-0.0"}}, {"uniqueid": "MTK0153:3QAVNHZ3ENBDED8GQTIGJLO6AMRLA7", "current_trial": 225, "dateTime": 1509299306440, "trialdata": {"rt": -1000, "stimulus": "/static/audio/wordpool/CHEST.wav", "key_press": -1, "type": "PRES_AUD", "word": "chest", "wordID": 294, "conditions": [12, 1600, "a", 24000], "trial": 6, "serialpos": 0, "trial_type": "single-audio", "trial_index": 225, "time_elapsed": 1580829, "internal_node_id": "0.0-162.0"}}, {"uniqueid": "MTK0153:3QAVNHZ3ENBDED8GQTIGJLO6AMRLA7", "current_trial": 226, "dateTime": 1509299309163, "trialdata": {"rt": -1000, "stimulus": "/static/audio/wordpool/CUSTARD.wav", "key_press": -1, "type": "PRES_AUD", "word": "custard", "wordID": 428, "conditions": [12, 1600, "a", 24000], "trial": 6, "serialpos": 1, "trial_type": "single-audio", "trial_index": 226, "time_elapsed": 1583552, "internal_node_id": "0.0-163.0"}}, {"uniqueid": "MTK0153:3QAVNHZ3ENBDED8GQTIGJLO6AMRLA7", "current_trial": 227, "dateTime": 1509299311739, "trialdata": {"rt": -1000, "stimulus": "/static/audio/wordpool/MOTEL.wav", "key_press": -1, "type": "PRES_AUD", "word": "motel", "wordID": 918, "conditions": [12, 1600, "a", 24000], "trial": 6, "serialpos": 2, "trial_type": "single-audio", "trial_index": 227, "time_elapsed": 1586128, "internal_node_id": "0.0-164.0"}}, {"uniqueid": "MTK0153:3QAVNHZ3ENBDED8GQTIGJLO6AMRLA7", "current_trial": 228, "dateTime": 1509299314297, "trialdata": {"rt": -1000, "stimulus": "/static/audio/wordpool/WARDROBE.wav", "key_press": -1, "type": "PRES_AUD", "word": "wardrobe", "wordID": 1586, "conditions": [12, 1600, "a", 24000], "trial": 6, "serialpos": 3, "trial_type": "single-audio", "trial_index": 228, "time_elapsed": 1588685, "internal_node_id": "0.0-165.0"}}, {"uniqueid": "MTK0153:3QAVNHZ3ENBDED8GQTIGJLO6AMRLA7", "current_trial": 229, "dateTime": 1509299317023, "trialdata": {"rt": -1000, "stimulus": "/static/audio/wordpool/BURGLAR.wav", "key_press": -1, "type": "PRES_AUD", "word": "burglar", "wordID": 199, "conditions": [12, 1600, "a", 24000], "trial": 6, "serialpos": 4, "trial_type": "single-audio", "trial_index": 229, "time_elapsed": 1591412, "internal_node_id": "0.0-166.0"}}, {"uniqueid": "MTK0153:3QAVNHZ3ENBDED8GQTIGJLO6AMRLA7", "current_trial": 230, "dateTime": 1509299319759, "trialdata": {"rt": -1000, "stimulus": "/static/audio/wordpool/FOREHEAD.wav", "key_press": -1, "type": "PRES_AUD", "word": "forehead", "wordID": 591, "conditions": [12, 1600, "a", 24000], "trial": 6, "serialpos": 5, "trial_type": "single-audio", "trial_index": 230, "time_elapsed": 1594148, "internal_node_id": "0.0-167.0"}}, {"uniqueid": "MTK0153:3QAVNHZ3ENBDED8GQTIGJLO6AMRLA7", "current_trial": 231, "dateTime": 1509299322256, "trialdata": {"rt": -1000, "stimulus": "/static/audio/wordpool/ACTOR.wav", "key_press": -1, "type": "PRES_AUD", "word": "actor", "wordID": 4, "conditions": [12, 1600, "a", 24000], "trial": 6, "serialpos": 6, "trial_type": "single-audio", "trial_index": 231, "time_elapsed": 1596644, "internal_node_id": "0.0-168.0"}}, {"uniqueid": "MTK0153:3QAVNHZ3ENBDED8GQTIGJLO6AMRLA7", "current_trial": 232, "dateTime": 1509299324961, "trialdata": {"rt": -1000, "stimulus": "/static/audio/wordpool/FILM.wav", "key_press": -1, "type": "PRES_AUD", "word": "film", "wordID": 564, "conditions": [12, 1600, "a", 24000], "trial": 6, "serialpos": 7, "trial_type": "single-audio", "trial_index": 232, "time_elapsed": 1599349, "internal_node_id": "0.0-169.0"}}, {"uniqueid": "MTK0153:3QAVNHZ3ENBDED8GQTIGJLO6AMRLA7", "current_trial": 233, "dateTime": 1509299327651, "trialdata": {"rt": -1000, "stimulus": "/static/audio/wordpool/KITCHEN.wav", "key_press": -1, "type": "PRES_AUD", "word": "kitchen", "wordID": 777, "conditions": [12, 1600, "a", 24000], "trial": 6, "serialpos": 8, "trial_type": "single-audio", "trial_index": 233, "time_elapsed": 1602039, "internal_node_id": "0.0-170.0"}}, {"uniqueid": "MTK0153:3QAVNHZ3ENBDED8GQTIGJLO6AMRLA7", "current_trial": 234, "dateTime": 1509299330451, "trialdata": {"rt": -1000, "stimulus": "/static/audio/wordpool/SCALLOP.wav", "key_press": -1, "type": "PRES_AUD", "word": "scallop", "wordID": 1241, "conditions": [12, 1600, "a", 24000], "trial": 6, "serialpos": 9, "trial_type": "single-audio", "trial_index": 234, "time_elapsed": 1604840, "internal_node_id": "0.0-171.0"}}, {"uniqueid": "MTK0153:3QAVNHZ3ENBDED8GQTIGJLO6AMRLA7", "current_trial": 235, "dateTime": 1509299332995, "trialdata": {"rt": -1000, "stimulus": "/static/audio/wordpool/SHELTER.wav", "key_press": -1, "type": "PRES_AUD", "word": "shelter", "wordID": 1281, "conditions": [12, 1600, "a", 24000], "trial": 6, "serialpos": 10, "trial_type": "single-audio", "trial_index": 235, "time_elapsed": 1607384, "internal_node_id": "0.0-172.0"}}, {"uniqueid": "MTK0153:3QAVNHZ3ENBDED8GQTIGJLO6AMRLA7", "current_trial": 236, "dateTime": 1509299335578, "trialdata": {"rt": -1000, "stimulus": "/static/audio/wordpool/NURSE.wav", "key_press": -1, "type": "PRES_AUD", "word": "nurse", "wordID": 962, "conditions": [12, 1600, "a", 24000], "trial": 6, "serialpos": 11, "trial_type": "single-audio", "trial_index": 236, "time_elapsed": 1609962, "internal_node_id": "0.0-173.0"}}, {"uniqueid": "MTK0153:3QAVNHZ3ENBDED8GQTIGJLO6AMRLA7", "current_trial": 237, "dateTime": 1509299336827, "trialdata": {"rt": -1, "stimulus": "", "key_press": -1, "type": "PRE_RECALL_DELAY", "trial_type": "single-stim", "trial_index": 237, "time_elapsed": 1611215, "internal_node_id": "0.0-174.0-0.0"}}, {"uniqueid": "MTK0153:3QAVNHZ3ENBDED8GQTIGJLO6AMRLA7", "current_trial": 238, "dateTime": 1509299337329, "trialdata": {"rt": -1000, "stimulus": "/static/audio/400Hz.wav", "key_press": -1, "type": "PRE_RECALL_ALERT", "trial_type": "single-audio", "trial_index": 238, "time_elapsed": 1611717, "internal_node_id": "0.0-175.0"}}, {"uniqueid": "MTK0153:3QAVNHZ3ENBDED8GQTIGJLO6AMRLA7", "current_trial": 239, "dateTime": 1509299397338, "trialdata": {"rt": [3909, 5779, 8000, 11013, 15169, 23789], "recwords": ["kitchen", "actor", "nest", "shelter", "scarf", "chest"], "type": "FREE_RECALL", "conditions": [12, 1600, "a", 24000], "trial": 6, "trial_type": "free-recall", "trial_index": 239, "time_elapsed": 1671721, "internal_node_id": "0.0-176.0-0.0"}}, {"uniqueid": "MTK0153:3QAVNHZ3ENBDED8GQTIGJLO6AMRLA7", "current_trial": 240, "dateTime": 1509299400305, "trialdata": {"rt": 966, "key_press": 32, "type": "INSTRUCTIONS", "trial_type": "text", "trial_index": 240, "time_elapsed": 1674694, "internal_node_id": "0.0-177.0"}}, {"uniqueid": "MTK0153:3QAVNHZ3ENBDED8GQTIGJLO6AMRLA7", "current_trial": 241, "dateTime": 1509299414309, "trialdata": {"rt": [6019, 8671, 11071], "responses": ["19", "14", "11"], "num1": [5, 2, 1, 8], "num2": [7, 8, 7, 1], "num3": [7, 4, 3, 9], "type": "DISTRACTOR", "conditions": [24, 800, "v", 12000], "trial": 7, "trial_type": "math-distractor", "trial_index": 241, "time_elapsed": 1688698, "internal_node_id": "0.0-178.0"}}, {"uniqueid": "MTK0153:3QAVNHZ3ENBDED8GQTIGJLO6AMRLA7", "current_trial": 242, "dateTime": 1509299417313, "trialdata": {"rt": -1, "stimulus": "<p id=\"stim\">10</p>", "key_press": -1, "trial_type": "single-stim", "trial_index": 242, "time_elapsed": 1691702, "internal_node_id": "0.0-179.0-0.0"}}, {"uniqueid": "MTK0153:3QAVNHZ3ENBDED8GQTIGJLO6AMRLA7", "current_trial": 243, "dateTime": 1509299418316, "trialdata": {"rt": -1, "stimulus": "<p id=\"stim\">9</p>", "key_press": -1, "trial_type": "single-stim", "trial_index": 243, "time_elapsed": 1692705, "internal_node_id": "0.0-179.0-1.0"}}, {"uniqueid": "MTK0153:3QAVNHZ3ENBDED8GQTIGJLO6AMRLA7", "current_trial": 244, "dateTime": 1509299419318, "trialdata": {"rt": -1, "stimulus": "<p id=\"stim\">8</p>", "key_press": -1, "trial_type": "single-stim", "trial_index": 244, "time_elapsed": 1693707, "internal_node_id": "0.0-179.0-2.0"}}, {"uniqueid": "MTK0153:3QAVNHZ3ENBDED8GQTIGJLO6AMRLA7", "current_trial": 245, "dateTime": 1509299420319, "trialdata": {"rt": -1, "stimulus": "<p id=\"stim\">7</p>", "key_press": -1, "trial_type": "single-stim", "trial_index": 245, "time_elapsed": 1694708, "internal_node_id": "0.0-179.0-3.0"}}, {"uniqueid": "MTK0153:3QAVNHZ3ENBDED8GQTIGJLO6AMRLA7", "current_trial": 246, "dateTime": 1509299421320, "trialdata": {"rt": -1, "stimulus": "<p id=\"stim\">6</p>", "key_press": -1, "trial_type": "single-stim", "trial_index": 246, "time_elapsed": 1695708, "internal_node_id": "0.0-179.0-4.0"}}, {"uniqueid": "MTK0153:3QAVNHZ3ENBDED8GQTIGJLO6AMRLA7", "current_trial": 247, "dateTime": 1509299422321, "trialdata": {"rt": -1, "stimulus": "<p id=\"stim\">5</p>", "key_press": -1, "trial_type": "single-stim", "trial_index": 247, "time_elapsed": 1696710, "internal_node_id": "0.0-179.0-5.0"}}, {"uniqueid": "MTK0153:3QAVNHZ3ENBDED8GQTIGJLO6AMRLA7", "current_trial": 248, "dateTime": 1509299423323, "trialdata": {"rt": -1, "stimulus": "<p id=\"stim\">4</p>", "key_press": -1, "trial_type": "single-stim", "trial_index": 248, "time_elapsed": 1697711, "internal_node_id": "0.0-179.0-6.0"}}, {"uniqueid": "MTK0153:3QAVNHZ3ENBDED8GQTIGJLO6AMRLA7", "current_trial": 249, "dateTime": 1509299424325, "trialdata": {"rt": -1, "stimulus": "<p id=\"stim\">3</p>", "key_press": -1, "trial_type": "single-stim", "trial_index": 249, "time_elapsed": 1698714, "internal_node_id": "0.0-179.0-7.0"}}, {"uniqueid": "MTK0153:3QAVNHZ3ENBDED8GQTIGJLO6AMRLA7", "current_trial": 250, "dateTime": 1509299425326, "trialdata": {"rt": -1, "stimulus": "<p id=\"stim\">2</p>", "key_press": -1, "trial_type": "single-stim", "trial_index": 250, "time_elapsed": 1699714, "internal_node_id": "0.0-179.0-8.0"}}, {"uniqueid": "MTK0153:3QAVNHZ3ENBDED8GQTIGJLO6AMRLA7", "current_trial": 251, "dateTime": 1509299426327, "trialdata": {"rt": -1, "stimulus": "<p id=\"stim\">1</p>", "key_press": -1, "trial_type": "single-stim", "trial_index": 251, "time_elapsed": 1700716, "internal_node_id": "0.0-179.0-9.0"}}, {"uniqueid": "MTK0153:3QAVNHZ3ENBDED8GQTIGJLO6AMRLA7", "current_trial": 252, "dateTime": 1509299427829, "trialdata": {"rt": -1, "stimulus": "<p id=\"stim\">+</p>", "key_press": -1, "type": "FIXATION", "trial_type": "single-stim", "trial_index": 252, "time_elapsed": 1702218, "internal_node_id": "0.0-180.0-0.0"}}, {"uniqueid": "MTK0153:3QAVNHZ3ENBDED8GQTIGJLO6AMRLA7", "current_trial": 253, "dateTime": 1509299428630, "trialdata": {"rt": -1, "stimulus": "<p id=\"stim\">BRICK</p>", "key_press": -1, "type": "PRES_VIS", "word": "brick", "wordID": 171, "conditions": [24, 800, "v", 12000], "trial": 7, "serialpos": 0, "trial_type": "single-stim", "trial_index": 253, "time_elapsed": 1703019, "internal_node_id": "0.0-181.0"}}, {"uniqueid": "MTK0153:3QAVNHZ3ENBDED8GQTIGJLO6AMRLA7", "current_trial": 254, "dateTime": 1509299430278, "trialdata": {"rt": -1, "stimulus": "<p id=\"stim\">PASTRY</p>", "key_press": -1, "type": "PRES_VIS", "word": "pastry", "wordID": 1021, "conditions": [24, 800, "v", 12000], "trial": 7, "serialpos": 1, "trial_type": "single-stim", "trial_index": 254, "time_elapsed": 1704667, "internal_node_id": "0.0-182.0"}}, {"uniqueid": "MTK0153:3QAVNHZ3ENBDED8GQTIGJLO6AMRLA7", "current_trial": 255, "dateTime": 1509299432179, "trialdata": {"rt": -1, "stimulus": "<p id=\"stim\">BRACES</p>", "key_press": -1, "type": "PRES_VIS", "word": "braces", "wordID": 163, "conditions": [24, 800, "v", 12000], "trial": 7, "serialpos": 2, "trial_type": "single-stim", "trial_index": 255, "time_elapsed": 1706568, "internal_node_id": "0.0-183.0"}}, {"uniqueid": "MTK0153:3QAVNHZ3ENBDED8GQTIGJLO6AMRLA7", "current_trial": 256, "dateTime": 1509299433808, "trialdata": {"rt": -1, "stimulus": "<p id=\"stim\">PISTON</p>", "key_press": -1, "type": "PRES_VIS", "word": "piston", "wordID": 1075, "conditions": [24, 800, "v", 12000], "trial": 7, "serialpos": 3, "trial_type": "single-stim", "trial_index": 256, "time_elapsed": 1708196, "internal_node_id": "0.0-184.0"}}, {"uniqueid": "MTK0153:3QAVNHZ3ENBDED8GQTIGJLO6AMRLA7", "current_trial": 257, "dateTime": 1509299435553, "trialdata": {"rt": -1, "stimulus": "<p id=\"stim\">PICNIC</p>", "key_press": -1, "type": "PRES_VIS", "word": "picnic", "wordID": 1059, "conditions": [24, 800, "v", 12000], "trial": 7, "serialpos": 4, "trial_type": "single-stim", "trial_index": 257, "time_elapsed": 1709941, "internal_node_id": "0.0-185.0"}}, {"uniqueid": "MTK0153:3QAVNHZ3ENBDED8GQTIGJLO6AMRLA7", "current_trial": 258, "dateTime": 1509299437216, "trialdata": {"rt": -1, "stimulus": "<p id=\"stim\">SUPPER</p>", "key_press": -1, "type": "PRES_VIS", "word": "supper", "wordID": 1410, "conditions": [24, 800, "v", 12000], "trial": 7, "serialpos": 5, "trial_type": "single-stim", "trial_index": 258, "time_elapsed": 1711605, "internal_node_id": "0.0-186.0"}}, {"uniqueid": "MTK0153:3QAVNHZ3ENBDED8GQTIGJLO6AMRLA7", "current_trial": 259, "dateTime": 1509299439080, "trialdata": {"rt": -1, "stimulus": "<p id=\"stim\">HAMPER</p>", "key_press": -1, "type": "PRES_VIS", "word": "hamper", "wordID": 681, "conditions": [24, 800, "v", 12000], "trial": 7, "serialpos": 6, "trial_type": "single-stim", "trial_index": 259, "time_elapsed": 1713469, "internal_node_id": "0.0-187.0"}}, {"uniqueid": "MTK0153:3QAVNHZ3ENBDED8GQTIGJLO6AMRLA7", "current_trial": 260, "dateTime": 1509299440691, "trialdata": {"rt": -1, "stimulus": "<p id=\"stim\">BELLY</p>", "key_press": -1, "type": "PRES_VIS", "word": "belly", "wordID": 118, "conditions": [24, 800, "v", 12000], "trial": 7, "serialpos": 7, "trial_type": "single-stim", "trial_index": 260, "time_elapsed": 1715080, "internal_node_id": "0.0-188.0"}}, {"uniqueid": "MTK0153:3QAVNHZ3ENBDED8GQTIGJLO6AMRLA7", "current_trial": 261, "dateTime": 1509299442572, "trialdata": {"rt": -1, "stimulus": "<p id=\"stim\">JUGGLER</p>", "key_press": -1, "type": "PRES_VIS", "word": "juggler", "wordID": 762, "conditions": [24, 800, "v", 12000], "trial": 7, "serialpos": 8, "trial_type": "single-stim", "trial_index": 261, "time_elapsed": 1716961, "internal_node_id": "0.0-189.0"}}, {"uniqueid": "MTK0153:3QAVNHZ3ENBDED8GQTIGJLO6AMRLA7", "current_trial": 262, "dateTime": 1509299444563, "trialdata": {"rt": -1, "stimulus": "<p id=\"stim\">DOUGHNUT</p>", "key_press": -1, "type": "PRES_VIS", "word": "doughnut", "wordID": 489, "conditions": [24, 800, "v", 12000], "trial": 7, "serialpos": 9, "trial_type": "single-stim", "trial_index": 262, "time_elapsed": 1718952, "internal_node_id": "0.0-190.0"}}, {"uniqueid": "MTK0153:3QAVNHZ3ENBDED8GQTIGJLO6AMRLA7", "current_trial": 263, "dateTime": 1509299446165, "trialdata": {"rt": -1, "stimulus": "<p id=\"stim\">TILE</p>", "key_press": -1, "type": "PRES_VIS", "word": "tile", "wordID": 1467, "conditions": [24, 800, "v", 12000], "trial": 7, "serialpos": 10, "trial_type": "single-stim", "trial_index": 263, "time_elapsed": 1720554, "internal_node_id": "0.0-191.0"}}, {"uniqueid": "MTK0153:3QAVNHZ3ENBDED8GQTIGJLO6AMRLA7", "current_trial": 264, "dateTime": 1509299448130, "trialdata": {"rt": -1, "stimulus": "<p id=\"stim\">HEADBAND</p>", "key_press": -1, "type": "PRES_VIS", "word": "headband", "wordID": 695, "conditions": [24, 800, "v", 12000], "trial": 7, "serialpos": 11, "trial_type": "single-stim", "trial_index": 264, "time_elapsed": 1722518, "internal_node_id": "0.0-192.0"}}, {"uniqueid": "MTK0153:3QAVNHZ3ENBDED8GQTIGJLO6AMRLA7", "current_trial": 265, "dateTime": 1509299449750, "trialdata": {"rt": -1, "stimulus": "<p id=\"stim\">CANYON</p>", "key_press": -1, "type": "PRES_VIS", "word": "canyon", "wordID": 234, "conditions": [24, 800, "v", 12000], "trial": 7, "serialpos": 12, "trial_type": "single-stim", "trial_index": 265, "time_elapsed": 1724139, "internal_node_id": "0.0-193.0"}}, {"uniqueid": "MTK0153:3QAVNHZ3ENBDED8GQTIGJLO6AMRLA7", "current_trial": 266, "dateTime": 1509299451487, "trialdata": {"rt": -1, "stimulus": "<p id=\"stim\">LASER</p>", "key_press": -1, "type": "PRES_VIS", "word": "laser", "wordID": 800, "conditions": [24, 800, "v", 12000], "trial": 7, "serialpos": 13, "trial_type": "single-stim", "trial_index": 266, "time_elapsed": 1725875, "internal_node_id": "0.0-194.0"}}, {"uniqueid": "MTK0153:3QAVNHZ3ENBDED8GQTIGJLO6AMRLA7", "current_trial": 267, "dateTime": 1509299453107, "trialdata": {"rt": -1, "stimulus": "<p id=\"stim\">COD</p>", "key_press": -1, "type": "PRES_VIS", "word": "cod", "wordID": 339, "conditions": [24, 800, "v", 12000], "trial": 7, "serialpos": 14, "trial_type": "single-stim", "trial_index": 267, "time_elapsed": 1727496, "internal_node_id": "0.0-195.0"}}, {"uniqueid": "MTK0153:3QAVNHZ3ENBDED8GQTIGJLO6AMRLA7", "current_trial": 268, "dateTime": 1509299455025, "trialdata": {"rt": -1, "stimulus": "<p id=\"stim\">RUG</p>", "key_press": -1, "type": "PRES_VIS", "word": "rug", "wordID": 1214, "conditions": [24, 800, "v", 12000], "trial": 7, "serialpos": 15, "trial_type": "single-stim", "trial_index": 268, "time_elapsed": 1729414, "internal_node_id": "0.0-196.0"}}, {"uniqueid": "MTK0153:3QAVNHZ3ENBDED8GQTIGJLO6AMRLA7", "current_trial": 269, "dateTime": 1509299456998, "trialdata": {"rt": -1, "stimulus": "<p id=\"stim\">FOREST</p>", "key_press": -1, "type": "PRES_VIS", "word": "forest", "wordID": 592, "conditions": [24, 800, "v", 12000], "trial": 7, "serialpos": 16, "trial_type": "single-stim", "trial_index": 269, "time_elapsed": 1731387, "internal_node_id": "0.0-197.0"}}, {"uniqueid": "MTK0153:3QAVNHZ3ENBDED8GQTIGJLO6AMRLA7", "current_trial": 270, "dateTime": 1509299458955, "trialdata": {"rt": -1, "stimulus": "<p id=\"stim\">SEAFOOD</p>", "key_press": -1, "type": "PRES_VIS", "word": "seafood", "wordID": 1259, "conditions": [24, 800, "v", 12000], "trial": 7, "serialpos": 17, "trial_type": "single-stim", "trial_index": 270, "time_elapsed": 1733343, "internal_node_id": "0.0-198.0"}}, {"uniqueid": "MTK0153:3QAVNHZ3ENBDED8GQTIGJLO6AMRLA7", "current_trial": 271, "dateTime": 1509299460809, "trialdata": {"rt": -1, "stimulus": "<p id=\"stim\">ATOM</p>", "key_press": -1, "type": "PRES_VIS", "word": "atom", "wordID": 54, "conditions": [24, 800, "v", 12000], "trial": 7, "serialpos": 18, "trial_type": "single-stim", "trial_index": 271, "time_elapsed": 1735198, "internal_node_id": "0.0-199.0"}}, {"uniqueid": "MTK0153:3QAVNHZ3ENBDED8GQTIGJLO6AMRLA7", "current_trial": 272, "dateTime": 1509299462807, "trialdata": {"rt": -1, "stimulus": "<p id=\"stim\">LOVER</p>", "key_press": -1, "type": "PRES_VIS", "word": "lover", "wordID": 845, "conditions": [24, 800, "v", 12000], "trial": 7, "serialpos": 19, "trial_type": "single-stim", "trial_index": 272, "time_elapsed": 1737195, "internal_node_id": "0.0-200.0"}}, {"uniqueid": "MTK0153:3QAVNHZ3ENBDED8GQTIGJLO6AMRLA7", "current_trial": 273, "dateTime": 1509299464420, "trialdata": {"rt": -1, "stimu