{"condition": 0, "counterbalance": 863, "assignmentId": "3IOEN3P9S8QZ14S976JLJ1D6IU116S", "workerId": "MTK0467", "hitId": "3HEA4ZVWVDT0JYVKD86Q51G3KJI554", "currenttrial": 626, "bonus": 0, "data": [{"uniqueid": "MTK0467:3IOEN3P9S8QZ14S976JLJ1D6IU116S", "current_trial": 0, "dateTime": 1510934657361, "trialdata": {"rt": 4673, "key_press": 32, "type": "INSTRUCTIONS", "trial_type": "text", "trial_index": 0, "time_elapsed": 4679, "internal_node_id": "0.0-0.0"}}, {"uniqueid": "MTK0467:3IOEN3P9S8QZ14S976JLJ1D6IU116S", "current_trial": 1, "dateTime": 1510934725174, "trialdata": {"rt": 67810, "key_press": 32, "type": "INSTRUCTIONS", "trial_type": "text", "trial_index": 1, "time_elapsed": 72494, "internal_node_id": "0.0-1.0"}}, {"uniqueid": "MTK0467:3IOEN3P9S8QZ14S976JLJ1D6IU116S", "current_trial": 2, "dateTime": 1510934736429, "trialdata": {"rt": [11183], "responses": ["ocean"], "type": "AUDIO_TEST", "trial_type": "audio-test", "trial_index": 2, "time_elapsed": 83748, "internal_node_id": "0.0-2.0"}}, {"uniqueid": "MTK0467:3IOEN3P9S8QZ14S976JLJ1D6IU116S", "current_trial": 3, "dateTime": 1510934747779, "trialdata": {"rt": [11344], "responses": ["crystal"], "type": "AUDIO_TEST", "trial_type": "audio-test", "trial_index": 3, "time_elapsed": 95099, "internal_node_id": "0.0-3.0"}}, {"uniqueid": "MTK0467:3IOEN3P9S8QZ14S976JLJ1D6IU116S", "current_trial": 4, "dateTime": 1510934756167, "trialdata": {"rt": [8381], "responses": ["spice"], "type": "AUDIO_TEST", "trial_type": "audio-test", "trial_index": 4, "time_elapsed": 103487, "internal_node_id": "0.0-4.0"}}, {"uniqueid": "MTK0467:3IOEN3P9S8QZ14S976JLJ1D6IU116S", "current_trial": 5, "dateTime": 1510934786074, "trialdata": {"rt": 29152, "responses": "{\"Q0\":\"10:00 pm\",\"Q1\":\"7:00 am\",\"Q2\":\"5\"}", "type": "SLEEP_SURVEY", "trial_type": "survey-text", "trial_index": 5, "time_elapsed": 133394, "internal_node_id": "0.0-5.0"}}, {"uniqueid": "MTK0467:3IOEN3P9S8QZ14S976JLJ1D6IU116S", "current_trial": 6, "dateTime": 1510934893873, "trialdata": {"rt": 106796, "key_press": 32, "type": "INSTRUCTIONS", "trial_type": "text", "trial_index": 6, "time_elapsed": 241193, "internal_node_id": "0.0-6.0"}}, {"uniqueid": "MTK0467:3IOEN3P9S8QZ14S976JLJ1D6IU116S", "current_trial": 7, "dateTime": 1510934921622, "trialdata": {"rt": 27247, "key_press": 13, "type": "INSTRUCTIONS", "trial_type": "text", "trial_index": 7, "time_elapsed": 268942, "internal_node_id": "0.0-7.0"}}, {"uniqueid": "MTK0467:3IOEN3P9S8QZ14S976JLJ1D6IU116S", "current_trial": 8, "dateTime": 1510934947480, "trialdata": {"rt": 25355, "key_press": 32, "type": "INSTRUCTIONS", "trial_type": "text", "trial_index": 8, "time_elapsed": 294800, "internal_node_id": "0.0-8.0"}}, {"uniqueid": "MTK0467:3IOEN3P9S8QZ14S976JLJ1D6IU116S", "current_trial": 9, "dateTime": 1510934966544, "trialdata": {"rt": [5854, 9845, 13477, 17906], "responses": ["13", "16", "19", "12"], "num1": [1, 5, 8, 1, 6], "num2": [7, 9, 6, 6, 2], "num3": [5, 2, 5, 5, 4], "type": "DISTRACTOR", "conditions": [18, 1200, "v", 18000], "trial": 0, "trial_type": "math-distractor", "trial_index": 9, "time_elapsed": 313864, "internal_node_id": "0.0-9.0"}}, {"uniqueid": "MTK0467:3IOEN3P9S8QZ14S976JLJ1D6IU116S", "current_trial": 10, "dateTime": 1510934969549, "trialdata": {"rt": -1, "stimulus": "<p id=\"stim\">10</p>", "key_press": -1, "trial_type": "single-stim", "trial_index": 10, "time_elapsed": 316869, "internal_node_id": "0.0-10.0-0.0"}}, {"uniqueid": "MTK0467:3IOEN3P9S8QZ14S976JLJ1D6IU116S", "current_trial": 11, "dateTime": 1510934970551, "trialdata": {"rt": -1, "stimulus": "<p id=\"stim\">9</p>", "key_press": -1, "trial_type": "single-stim", "trial_index": 11, "time_elapsed": 317871, "internal_node_id": "0.0-10.0-1.0"}}, {"uniqueid": "MTK0467:3IOEN3P9S8QZ14S976JLJ1D6IU116S", "current_trial": 12, "dateTime": 1510934971554, "trialdata": {"rt": -1, "stimulus": "<p id=\"stim\">8</p>", "key_press": -1, "trial_type": "single-stim", "trial_index": 12, "time_elapsed": 318874, "internal_node_id": "0.0-10.0-2.0"}}, {"uniqueid": "MTK0467:3IOEN3P9S8QZ14S976JLJ1D6IU116S", "current_trial": 13, "dateTime": 1510934972557, "trialdata": {"rt": -1, "stimulus": "<p id=\"stim\">7</p>", "key_press": -1, "trial_type": "single-stim", "trial_index": 13, "time_elapsed": 319877, "internal_node_id": "0.0-10.0-3.0"}}, {"uniqueid": "MTK0467:3IOEN3P9S8QZ14S976JLJ1D6IU116S", "current_trial": 14, "dateTime": 1510934973561, "trialdata": {"rt": -1, "stimulus": "<p id=\"stim\">6</p>", "key_press": -1, "trial_type": "single-stim", "trial_index": 14, "time_elapsed": 320881, "internal_node_id": "0.0-10.0-4.0"}}, {"uniqueid": "MTK0467:3IOEN3P9S8QZ14S976JLJ1D6IU116S", "current_trial": 15, "dateTime": 1510934974563, "trialdata": {"rt": -1, "stimulus": "<p id=\"stim\">5</p>", "key_press": -1, "trial_type": "single-stim", "trial_index": 15, "time_elapsed": 321883, "internal_node_id": "0.0-10.0-5.0"}}, {"uniqueid": "MTK0467:3IOEN3P9S8QZ14S976JLJ1D6IU116S", "current_trial": 16, "dateTime": 1510934975565, "trialdata": {"rt": -1, "stimulus": "<p id=\"stim\">4</p>", "key_press": -1, "trial_type": "single-stim", "trial_index": 16, "time_elapsed": 322885, "internal_node_id": "0.0-10.0-6.0"}}, {"uniqueid": "MTK0467:3IOEN3P9S8QZ14S976JLJ1D6IU116S", "current_trial": 17, "dateTime": 1510934976570, "trialdata": {"rt": -1, "stimulus": "<p id=\"stim\">3</p>", "key_press": -1, "trial_type": "single-stim", "trial_index": 17, "time_elapsed": 323890, "internal_node_id": "0.0-10.0-7.0"}}, {"uniqueid": "MTK0467:3IOEN3P9S8QZ14S976JLJ1D6IU116S", "current_trial": 18, "dateTime": 1510934977572, "trialdata": {"rt": -1, "stimulus": "<p id=\"stim\">2</p>", "key_press": -1, "trial_type": "single-stim", "trial_index": 18, "time_elapsed": 324892, "internal_node_id": "0.0-10.0-8.0"}}, {"uniqueid": "MTK0467:3IOEN3P9S8QZ14S976JLJ1D6IU116S", "current_trial": 19, "dateTime": 1510934978574, "trialdata": {"rt": -1, "stimulus": "<p id=\"stim\">1</p>", "key_press": -1, "trial_type": "single-stim", "trial_index": 19, "time_elapsed": 325894, "internal_node_id": "0.0-10.0-9.0"}}, {"uniqueid": "MTK0467:3IOEN3P9S8QZ14S976JLJ1D6IU116S", "current_trial": 20, "dateTime": 1510934980076, "trialdata": {"rt": -1, "stimulus": "<p id=\"stim\">+</p>", "key_press": -1, "type": "FIXATION", "trial_type": "single-stim", "trial_index": 20, "time_elapsed": 327396, "internal_node_id": "0.0-11.0-0.0"}}, {"uniqueid": "MTK0467:3IOEN3P9S8QZ14S976JLJ1D6IU116S", "current_trial": 21, "dateTime": 1510934981280, "trialdata": {"rt": -1, "stimulus": "<p id=\"stim\">PARROT</p>", "key_press": -1, "type": "PRES_VIS", "word": "parrot", "wordID": 1014, "conditions": [18, 1200, "v", 18000], "trial": 0, "serialpos": 0, "trial_type": "single-stim", "trial_index": 21, "time_elapsed": 328600, "internal_node_id": "0.0-12.0"}}, {"uniqueid": "MTK0467:3IOEN3P9S8QZ14S976JLJ1D6IU116S", "current_trial": 22, "dateTime": 1510934983624, "trialdata": {"rt": -1, "stimulus": "<p id=\"stim\">CASHIER</p>", "key_press": -1, "type": "PRES_VIS", "word": "cashier", "wordID": 253, "conditions": [18, 1200, "v", 18000], "trial": 0, "serialpos": 1, "trial_type": "single-stim", "trial_index": 22, "time_elapsed": 330944, "internal_node_id": "0.0-13.0"}}, {"uniqueid": "MTK0467:3IOEN3P9S8QZ14S976JLJ1D6IU116S", "current_trial": 23, "dateTime": 1510934985859, "trialdata": {"rt": -1, "stimulus": "<p id=\"stim\">SOFTBALL</p>", "key_press": -1, "type": "PRES_VIS", "word": "softball", "wordID": 1342, "conditions": [18, 1200, "v", 18000], "trial": 0, "serialpos": 2, "trial_type": "single-stim", "trial_index": 23, "time_elapsed": 333178, "internal_node_id": "0.0-14.0"}}, {"uniqueid": "MTK0467:3IOEN3P9S8QZ14S976JLJ1D6IU116S", "current_trial": 24, "dateTime": 1510934987995, "trialdata": {"rt": -1, "stimulus": "<p id=\"stim\">SEAGULL</p>", "key_press": -1, "type": "PRES_VIS", "word": "seagull", "wordID": 1260, "conditions": [18, 1200, "v", 18000], "trial": 0, "serialpos": 3, "trial_type": "single-stim", "trial_index": 24, "time_elapsed": 335315, "internal_node_id": "0.0-15.0"}}, {"uniqueid": "MTK0467:3IOEN3P9S8QZ14S976JLJ1D6IU116S", "current_trial": 25, "dateTime": 1510934990259, "trialdata": {"rt": -1, "stimulus": "<p id=\"stim\">MATTRESS</p>", "key_press": -1, "type": "PRES_VIS", "word": "mattress", "wordID": 878, "conditions": [18, 1200, "v", 18000], "trial": 0, "serialpos": 4, "trial_type": "single-stim", "trial_index": 25, "time_elapsed": 337579, "internal_node_id": "0.0-16.0"}}, {"uniqueid": "MTK0467:3IOEN3P9S8QZ14S976JLJ1D6IU116S", "current_trial": 26, "dateTime": 1510934992521, "trialdata": {"rt": -1, "stimulus": "<p id=\"stim\">FRANCE</p>", "key_press": -1, "type": "PRES_VIS", "word": "france", "wordID": 600, "conditions": [18, 1200, "v", 18000], "trial": 0, "serialpos": 5, "trial_type": "single-stim", "trial_index": 26, "time_elapsed": 339840, "internal_node_id": "0.0-17.0"}}, {"uniqueid": "MTK0467:3IOEN3P9S8QZ14S976JLJ1D6IU116S", "current_trial": 27, "dateTime": 1510934994696, "trialdata": {"rt": -1, "stimulus": "<p id=\"stim\">TWIG</p>", "key_press": -1, "type": "PRES_VIS", "word": "twig", "wordID": 1526, "conditions": [18, 1200, "v", 18000], "trial": 0, "serialpos": 6, "trial_type": "single-stim", "trial_index": 27, "time_elapsed": 342015, "internal_node_id": "0.0-18.0"}}, {"uniqueid": "MTK0467:3IOEN3P9S8QZ14S976JLJ1D6IU116S", "current_trial": 28, "dateTime": 1510934996976, "trialdata": {"rt": -1, "stimulus": "<p id=\"stim\">CONCERT</p>", "key_press": -1, "type": "PRES_VIS", "word": "concert", "wordID": 359, "conditions": [18, 1200, "v", 18000], "trial": 0, "serialpos": 7, "trial_type": "single-stim", "trial_index": 28, "time_elapsed": 344296, "internal_node_id": "0.0-19.0"}}, {"uniqueid": "MTK0467:3IOEN3P9S8QZ14S976JLJ1D6IU116S", "current_trial": 29, "dateTime": 1510934998989, "trialdata": {"rt": -1, "stimulus": "<p id=\"stim\">COTTAGE</p>", "key_press": -1, "type": "PRES_VIS", "word": "cottage", "wordID": 383, "conditions": [18, 1200, "v", 18000], "trial": 0, "serialpos": 8, "trial_type": "single-stim", "trial_index": 29, "time_elapsed": 346309, "internal_node_id": "0.0-20.0"}}, {"uniqueid": "MTK0467:3IOEN3P9S8QZ14S976JLJ1D6IU116S", "current_trial": 30, "dateTime": 1510935001384, "trialdata": {"rt": -1, "stimulus": "<p id=\"stim\">SKIRT</p>", "key_press": -1, "type": "PRES_VIS", "word": "skirt", "wordID": 1318, "conditions": [18, 1200, "v", 18000], "trial": 0, "serialpos": 9, "trial_type": "single-stim", "trial_index": 30, "time_elapsed": 348704, "internal_node_id": "0.0-21.0"}}, {"uniqueid": "MTK0467:3IOEN3P9S8QZ14S976JLJ1D6IU116S", "current_trial": 31, "dateTime": 1510935003553, "trialdata": {"rt": -1, "stimulus": "<p id=\"stim\">CATCHER</p>", "key_press": -1, "type": "PRES_VIS", "word": "catcher", "wordID": 257, "conditions": [18, 1200, "v", 18000], "trial": 0, "serialpos": 10, "trial_type": "single-stim", "trial_index": 31, "time_elapsed": 350873, "internal_node_id": "0.0-22.0"}}, {"uniqueid": "MTK0467:3IOEN3P9S8QZ14S976JLJ1D6IU116S", "current_trial": 32, "dateTime": 1510935005562, "trialdata": {"rt": -1, "stimulus": "<p id=\"stim\">SWORD</p>", "key_press": -1, "type": "PRES_VIS", "word": "sword", "wordID": 1422, "conditions": [18, 1200, "v", 18000], "trial": 0, "serialpos": 11, "trial_type": "single-stim", "trial_index": 32, "time_elapsed": 352882, "internal_node_id": "0.0-23.0"}}, {"uniqueid": "MTK0467:3IOEN3P9S8QZ14S976JLJ1D6IU116S", "current_trial": 33, "dateTime": 1510935007712, "trialdata": {"rt": -1, "stimulus": "<p id=\"stim\">DIME</p>", "key_press": -1, "type": "PRES_VIS", "word": "dime", "wordID": 465, "conditions": [18, 1200, "v", 18000], "trial": 0, "serialpos": 12, "trial_type": "single-stim", "trial_index": 33, "time_elapsed": 355032, "internal_node_id": "0.0-24.0"}}, {"uniqueid": "MTK0467:3IOEN3P9S8QZ14S976JLJ1D6IU116S", "current_trial": 34, "dateTime": 1510935010047, "trialdata": {"rt": -1, "stimulus": "<p id=\"stim\">HUMAN</p>", "key_press": -1, "type": "PRES_VIS", "word": "human", "wordID": 725, "conditions": [18, 1200, "v", 18000], "trial": 0, "serialpos": 13, "trial_type": "single-stim", "trial_index": 34, "time_elapsed": 357367, "internal_node_id": "0.0-25.0"}}, {"uniqueid": "MTK0467:3IOEN3P9S8QZ14S976JLJ1D6IU116S", "current_trial": 35, "dateTime": 1510935012217, "trialdata": {"rt": -1, "stimulus": "<p id=\"stim\">RAFT</p>", "key_press": -1, "type": "PRES_VIS", "word": "raft", "wordID": 1158, "conditions": [18, 1200, "v", 18000], "trial": 0, "serialpos": 14, "trial_type": "single-stim", "trial_index": 35, "time_elapsed": 359537, "internal_node_id": "0.0-26.0"}}, {"uniqueid": "MTK0467:3IOEN3P9S8QZ14S976JLJ1D6IU116S", "current_trial": 36, "dateTime": 1510935014257, "trialdata": {"rt": -1, "stimulus": "<p id=\"stim\">HAMPER</p>", "key_press": -1, "type": "PRES_VIS", "word": "hamper", "wordID": 681, "conditions": [18, 1200, "v", 18000], "trial": 0, "serialpos": 15, "trial_type": "single-stim", "trial_index": 36, "time_elapsed": 361576, "internal_node_id": "0.0-27.0"}}, {"uniqueid": "MTK0467:3IOEN3P9S8QZ14S976JLJ1D6IU116S", "current_trial": 37, "dateTime": 1510935016550, "trialdata": {"rt": -1, "stimulus": "<p id=\"stim\">GUITAR</p>", "key_press": -1, "type": "PRES_VIS", "word": "guitar", "wordID": 669, "conditions": [18, 1200, "v", 18000], "trial": 0, "serialpos": 16, "trial_type": "single-stim", "trial_index": 37, "time_elapsed": 363870, "internal_node_id": "0.0-28.0"}}, {"uniqueid": "MTK0467:3IOEN3P9S8QZ14S976JLJ1D6IU116S", "current_trial": 38, "dateTime": 1510935018891, "trialdata": {"rt": -1, "stimulus": "<p id=\"stim\">PATIENT</p>", "key_press": -1, "type": "PRES_VIS", "word": "patient", "wordID": 1023, "conditions": [18, 1200, "v", 18000], "trial": 0, "serialpos": 17, "trial_type": "single-stim", "trial_index": 38, "time_elapsed": 366210, "internal_node_id": "0.0-29.0"}}, {"uniqueid": "MTK0467:3IOEN3P9S8QZ14S976JLJ1D6IU116S", "current_trial": 39, "dateTime": 1510935021321, "trialdata": {"rt": -1, "stimulus": "", "key_press": -1, "type": "PRE_RECALL_DELAY", "trial_type": "single-stim", "trial_index": 39, "time_elapsed": 368641, "internal_node_id": "0.0-30.0-0.0"}}, {"uniqueid": "MTK0467:3IOEN3P9S8QZ14S976JLJ1D6IU116S", "current_trial": 40, "dateTime": 1510935021826, "trialdata": {"rt": -1000, "stimulus": "/static/audio/400Hz.wav", "key_press": -1, "type": "PRE_RECALL_ALERT", "trial_type": "single-audio", "trial_index": 40, "time_elapsed": 369146, "internal_node_id": "0.0-31.0"}}, {"uniqueid": "MTK0467:3IOEN3P9S8QZ14S976JLJ1D6IU116S", "current_trial": 41, "dateTime": 1510935081839, "trialdata": {"rt": [5104, 7516, 11116, 16332, 25819, 29472, 58131], "recwords": ["parrot", "cashier", "softball", "human", "twig", "golf", "cabbage"], "type": "FREE_RECALL", "conditions": [18, 1200, "v", 18000], "trial": 0, "trial_type": "free-recall", "trial_index": 41, "time_elapsed": 429153, "internal_node_id": "0.0-32.0-0.0"}}, {"uniqueid": "MTK0467:3IOEN3P9S8QZ14S976JLJ1D6IU116S", "current_trial": 42, "dateTime": 1510935086712, "trialdata": {"rt": 2871, "key_press": 32, "type": "INSTRUCTIONS", "trial_type": "text", "trial_index": 42, "time_elapsed": 434032, "internal_node_id": "0.0-33.0"}}, {"uniqueid": "MTK0467:3IOEN3P9S8QZ14S976JLJ1D6IU116S", "current_trial": 43, "dateTime": 1510935106721, "trialdata": {"rt": [3438, 7984, 13568, 17926], "responses": ["18", "17", "24", "16"], "num1": [4, 4, 8, 5, 1], "num2": [5, 6, 6, 7, 4], "num3": [9, 7, 8, 4, 7], "type": "DISTRACTOR", "conditions": [18, 1200, "a", 18000], "trial": 1, "trial_type": "math-distractor", "trial_index": 43, "time_elapsed": 454040, "internal_node_id": "0.0-34.0"}}, {"uniqueid": "MTK0467:3IOEN3P9S8QZ14S976JLJ1D6IU116S", "current_trial": 44, "dateTime": 1510935109725, "trialdata": {"rt": -1, "stimulus": "<p id=\"stim\">10</p>", "key_press": -1, "trial_type": "single-stim", "trial_index": 44, "time_elapsed": 457045, "internal_node_id": "0.0-35.0-0.0"}}, {"uniqueid": "MTK0467:3IOEN3P9S8QZ14S976JLJ1D6IU116S", "current_trial": 45, "dateTime": 1510935110727, "trialdata": {"rt": -1, "stimulus": "<p id=\"stim\">9</p>", "key_press": -1, "trial_type": "single-stim", "trial_index": 45, "time_elapsed": 458047, "internal_node_id": "0.0-35.0-1.0"}}, {"uniqueid": "MTK0467:3IOEN3P9S8QZ14S976JLJ1D6IU116S", "current_trial": 46, "dateTime": 1510935111729, "trialdata": {"rt": -1, "stimulus": "<p id=\"stim\">8</p>", "key_press": -1, "trial_type": "single-stim", "trial_index": 46, "time_elapsed": 459049, "internal_node_id": "0.0-35.0-2.0"}}, {"uniqueid": "MTK0467:3IOEN3P9S8QZ14S976JLJ1D6IU116S", "current_trial": 47, "dateTime": 1510935112733, "trialdata": {"rt": -1, "stimulus": "<p id=\"stim\">7</p>", "key_press": -1, "trial_type": "single-stim", "trial_index": 47, "time_elapsed": 460053, "internal_node_id": "0.0-35.0-3.0"}}, {"uniqueid": "MTK0467:3IOEN3P9S8QZ14S976JLJ1D6IU116S", "current_trial": 48, "dateTime": 1510935113739, "trialdata": {"rt": -1, "stimulus": "<p id=\"stim\">6</p>", "key_press": -1, "trial_type": "single-stim", "trial_index": 48, "time_elapsed": 461055, "internal_node_id": "0.0-35.0-4.0"}}, {"uniqueid": "MTK0467:3IOEN3P9S8QZ14S976JLJ1D6IU116S", "current_trial": 49, "dateTime": 1510935114742, "trialdata": {"rt": -1, "stimulus": "<p id=\"stim\">5</p>", "key_press": -1, "trial_type": "single-stim", "trial_index": 49, "time_elapsed": 462062, "internal_node_id": "0.0-35.0-5.0"}}, {"uniqueid": "MTK0467:3IOEN3P9S8QZ14S976JLJ1D6IU116S", "current_trial": 50, "dateTime": 1510935115744, "trialdata": {"rt": -1, "stimulus": "<p id=\"stim\">4</p>", "key_press": -1, "trial_type": "single-stim", "trial_index": 50, "time_elapsed": 463064, "internal_node_id": "0.0-35.0-6.0"}}, {"uniqueid": "MTK0467:3IOEN3P9S8QZ14S976JLJ1D6IU116S", "current_trial": 51, "dateTime": 1510935116746, "trialdata": {"rt": -1, "stimulus": "<p id=\"stim\">3</p>", "key_press": -1, "trial_type": "single-stim", "trial_index": 51, "time_elapsed": 464066, "internal_node_id": "0.0-35.0-7.0"}}, {"uniqueid": "MTK0467:3IOEN3P9S8QZ14S976JLJ1D6IU116S", "current_trial": 52, "dateTime": 1510935117749, "trialdata": {"rt": -1, "stimulus": "<p id=\"stim\">2</p>", "key_press": -1, "trial_type": "single-stim", "trial_index": 52, "time_elapsed": 465069, "internal_node_id": "0.0-35.0-8.0"}}, {"uniqueid": "MTK0467:3IOEN3P9S8QZ14S976JLJ1D6IU116S", "current_trial": 53, "dateTime": 1510935118751, "trialdata": {"rt": -1, "stimulus": "<p id=\"stim\">1</p>", "key_press": -1, "trial_type": "single-stim", "trial_index": 53, "time_elapsed": 466071, "internal_node_id": "0.0-35.0-9.0"}}, {"uniqueid": "MTK0467:3IOEN3P9S8QZ14S976JLJ1D6IU116S", "current_trial": 54, "dateTime": 1510935120254, "trialdata": {"rt": -1, "stimulus": "<p id=\"stim\">+</p>", "key_press": -1, "type": "FIXATION", "trial_type": "single-stim", "trial_index": 54, "time_elapsed": 467574, "internal_node_id": "0.0-36.0-0.0"}}, {"uniqueid": "MTK0467:3IOEN3P9S8QZ14S976JLJ1D6IU116S", "current_trial": 55, "dateTime": 1510935122373, "trialdata": {"rt": -1000, "stimulus": "/static/audio/wordpool/ROBBER.wav", "key_press": -1, "type": "PRES_AUD", "word": "robber", "wordID": 1196, "conditions": [18, 1200, "a", 18000], "trial": 1, "serialpos": 0, "trial_type": "single-audio", "trial_index": 55, "time_elapsed": 469692, "internal_node_id": "0.0-37.0"}}, {"uniqueid": "MTK0467:3IOEN3P9S8QZ14S976JLJ1D6IU116S", "current_trial": 56, "dateTime": 1510935124626, "trialdata": {"rt": -1000, "stimulus": "/static/audio/wordpool/ICEBERG.wav", "key_press": -1, "type": "PRES_AUD", "word": "iceberg", "wordID": 730, "conditions": [18, 1200, "a", 18000], "trial": 1, "serialpos": 1, "trial_type": "single-audio", "trial_index": 56, "time_elapsed": 471946, "internal_node_id": "0.0-38.0"}}, {"uniqueid": "MTK0467:3IOEN3P9S8QZ14S976JLJ1D6IU116S", "current_trial": 57, "dateTime": 1510935126707, "trialdata": {"rt": -1000, "stimulus": "/static/audio/wordpool/COCOON.wav", "key_press": -1, "type": "PRES_AUD", "word": "cocoon", "wordID": 338, "conditions": [18, 1200, "a", 18000], "trial": 1, "serialpos": 2, "trial_type": "single-audio", "trial_index": 57, "time_elapsed": 474027, "internal_node_id": "0.0-39.0"}}, {"uniqueid": "MTK0467:3IOEN3P9S8QZ14S976JLJ1D6IU116S", "current_trial": 58, "dateTime": 1510935128875, "trialdata": {"rt": -1000, "stimulus": "/static/audio/wordpool/RUST.wav", "key_press": -1, "type": "PRES_AUD", "word": "rust", "wordID": 1218, "conditions": [18, 1200, "a", 18000], "trial": 1, "serialpos": 3, "trial_type": "single-audio", "trial_index": 58, "time_elapsed": 476194, "internal_node_id": "0.0-40.0"}}, {"uniqueid": "MTK0467:3IOEN3P9S8QZ14S976JLJ1D6IU116S", "current_trial": 59, "dateTime": 1510935130939, "trialdata": {"rt": -1000, "stimulus": "/static/audio/wordpool/FLIPPER.wav", "key_press": -1, "type": "PRES_AUD", "word": "flipper", "wordID": 579, "conditions": [18, 1200, "a", 18000], "trial": 1, "serialpos": 4, "trial_type": "single-audio", "trial_index": 59, "time_elapsed": 478259, "internal_node_id": "0.0-41.0"}}, {"uniqueid": "MTK0467:3IOEN3P9S8QZ14S976JLJ1D6IU116S", "current_trial": 60, "dateTime": 1510935133162, "trialdata": {"rt": -1000, "stimulus": "/static/audio/wordpool/AIRPLANE.wav", "key_press": -1, "type": "PRES_AUD", "word": "airplane", "wordID": 11, "conditions": [18, 1200, "a", 18000], "trial": 1, "serialpos": 5, "trial_type": "single-audio", "trial_index": 60, "time_elapsed": 480482, "internal_node_id": "0.0-42.0"}}, {"uniqueid": "MTK0467:3IOEN3P9S8QZ14S976JLJ1D6IU116S", "current_trial": 61, "dateTime": 1510935135197, "trialdata": {"rt": -1000, "stimulus": "/static/audio/wordpool/BANQUET.wav", "key_press": -1, "type": "PRES_AUD", "word": "banquet", "wordID": 85, "conditions": [18, 1200, "a", 18000], "trial": 1, "serialpos": 6, "trial_type": "single-audio", "trial_index": 61, "time_elapsed": 482516, "internal_node_id": "0.0-43.0"}}, {"uniqueid": "MTK0467:3IOEN3P9S8QZ14S976JLJ1D6IU116S", "current_trial": 62, "dateTime": 1510935137424, "trialdata": {"rt": -1000, "stimulus": "/static/audio/wordpool/SHRUB.wav", "key_press": -1, "type": "PRES_AUD", "word": "shrub", "wordID": 1298, "conditions": [18, 1200, "a", 18000], "trial": 1, "serialpos": 7, "trial_type": "single-audio", "trial_index": 62, "time_elapsed": 484744, "internal_node_id": "0.0-44.0"}}, {"uniqueid": "MTK0467:3IOEN3P9S8QZ14S976JLJ1D6IU116S", "current_trial": 63, "dateTime": 1510935139439, "trialdata": {"rt": -1000, "stimulus": "/static/audio/wordpool/LEOPARD.wav", "key_press": -1, "type": "PRES_AUD", "word": "leopard", "wordID": 811, "conditions": [18, 1200, "a", 18000], "trial": 1, "serialpos": 8, "trial_type": "single-audio", "trial_index": 63, "time_elapsed": 486759, "internal_node_id": "0.0-45.0"}}, {"uniqueid": "MTK0467:3IOEN3P9S8QZ14S976JLJ1D6IU116S", "current_trial": 64, "dateTime": 1510935141529, "trialdata": {"rt": -1000, "stimulus": "/static/audio/wordpool/CASKET.wav", "key_press": -1, "type": "PRES_AUD", "word": "casket", "wordID": 254, "conditions": [18, 1200, "a", 18000], "trial": 1, "serialpos": 9, "trial_type": "single-audio", "trial_index": 64, "time_elapsed": 488849, "internal_node_id": "0.0-46.0"}}, {"uniqueid": "MTK0467:3IOEN3P9S8QZ14S976JLJ1D6IU116S", "current_trial": 65, "dateTime": 1510935143553, "trialdata": {"rt": -1000, "stimulus": "/static/audio/wordpool/COUCH.wav", "key_press": -1, "type": "PRES_AUD", "word": "couch", "wordID": 385, "conditions": [18, 1200, "a", 18000], "trial": 1, "serialpos": 10, "trial_type": "single-audio", "trial_index": 65, "time_elapsed": 490872, "internal_node_id": "0.0-47.0"}}, {"uniqueid": "MTK0467:3IOEN3P9S8QZ14S976JLJ1D6IU116S", "current_trial": 66, "dateTime": 1510935145937, "trialdata": {"rt": -1000, "stimulus": "/static/audio/wordpool/PORTRAIT.wav", "key_press": -1, "type": "PRES_AUD", "word": "portrait", "wordID": 1110, "conditions": [18, 1200, "a", 18000], "trial": 1, "serialpos": 11, "trial_type": "single-audio", "trial_index": 66, "time_elapsed": 493257, "internal_node_id": "0.0-48.0"}}, {"uniqueid": "MTK0467:3IOEN3P9S8QZ14S976JLJ1D6IU116S", "current_trial": 67, "dateTime": 1510935148253, "trialdata": {"rt": -1000, "stimulus": "/static/audio/wordpool/CHAMPAGNE.wav", "key_press": -1, "type": "PRES_AUD", "word": "champagne", "wordID": 277, "conditions": [18, 1200, "a", 18000], "trial": 1, "serialpos": 12, "trial_type": "single-audio", "trial_index": 67, "time_elapsed": 495573, "internal_node_id": "0.0-49.0"}}, {"uniqueid": "MTK0467:3IOEN3P9S8QZ14S976JLJ1D6IU116S", "current_trial": 68, "dateTime": 1510935150306, "trialdata": {"rt": -1000, "stimulus": "/static/audio/wordpool/TABLET.wav", "key_press": -1, "type": "PRES_AUD", "word": "tablet", "wordID": 1426, "conditions": [18, 1200, "a", 18000], "trial": 1, "serialpos": 13, "trial_type": "single-audio", "trial_index": 68, "time_elapsed": 497620, "internal_node_id": "0.0-50.0"}}, {"uniqueid": "MTK0467:3IOEN3P9S8QZ14S976JLJ1D6IU116S", "current_trial": 69, "dateTime": 1510935152670, "trialdata": {"rt": -1000, "stimulus": "/static/audio/wordpool/GIRL.wav", "key_press": -1, "type": "PRES_AUD", "word": "girl", "wordID": 636, "conditions": [18, 1200, "a", 18000], "trial": 1, "serialpos": 14, "trial_type": "single-audio", "trial_index": 69, "time_elapsed": 499990, "internal_node_id": "0.0-51.0"}}, {"uniqueid": "MTK0467:3IOEN3P9S8QZ14S976JLJ1D6IU116S", "current_trial": 70, "dateTime": 1510935154682, "trialdata": {"rt": -1000, "stimulus": "/static/audio/wordpool/BISON.wav", "key_press": -1, "type": "PRES_AUD", "word": "bison", "wordID": 130, "conditions": [18, 1200, "a", 18000], "trial": 1, "serialpos": 15, "trial_type": "single-audio", "trial_index": 70, "time_elapsed": 502002, "internal_node_id": "0.0-52.0"}}, {"uniqueid": "MTK0467:3IOEN3P9S8QZ14S976JLJ1D6IU116S", "current_trial": 71, "dateTime": 1510935156958, "trialdata": {"rt": -1000, "stimulus": "/static/audio/wordpool/BASEMENT.wav", "key_press": -1, "type": "PRES_AUD", "word": "basement", "wordID": 93, "conditions": [18, 1200, "a", 18000], "trial": 1, "serialpos": 16, "trial_type": "single-audio", "trial_index": 71, "time_elapsed": 504277, "internal_node_id": "0.0-53.0"}}, {"uniqueid": "MTK0467:3IOEN3P9S8QZ14S976JLJ1D6IU116S", "current_trial": 72, "dateTime": 1510935159013, "trialdata": {"rt": -1000, "stimulus": "/static/audio/wordpool/SPOON.wav", "key_press": -1, "type": "PRES_AUD", "word": "spoon", "wordID": 1356, "conditions": [18, 1200, "a", 18000], "trial": 1, "serialpos": 17, "trial_type": "single-audio", "trial_index": 72, "time_elapsed": 506333, "internal_node_id": "0.0-54.0"}}, {"uniqueid": "MTK0467:3IOEN3P9S8QZ14S976JLJ1D6IU116S", "current_trial": 73, "dateTime": 1510935160239, "trialdata": {"rt": -1, "stimulus": "", "key_press": -1, "type": "PRE_RECALL_DELAY", "trial_type": "single-stim", "trial_index": 73, "time_elapsed": 507559, "internal_node_id": "0.0-55.0-0.0"}}, {"uniqueid": "MTK0467:3IOEN3P9S8QZ14S976JLJ1D6IU116S", "current_trial": 74, "dateTime": 1510935160742, "trialdata": {"rt": -1000, "stimulus": "/static/audio/400Hz.wav", "key_press": -1, "type": "PRE_RECALL_ALERT", "trial_type": "single-audio", "trial_index": 74, "time_elapsed": 508062, "internal_node_id": "0.0-56.0"}}, {"uniqueid": "MTK0467:3IOEN3P9S8QZ14S976JLJ1D6IU116S", "current_trial": 75, "dateTime": 1510935220751, "trialdata": {"rt": [8241, 11664, 15180, 18758, 22994, 30320, 41021], "recwords": ["airplane", "bison", "tablet", "portrait", "spoon", "champaigne", "girl"], "type": "FREE_RECALL", "conditions": [18, 1200, "a", 18000], "trial": 1, "trial_type": "free-recall", "trial_index": 75, "time_elapsed": 568066, "internal_node_id": "0.0-57.0-0.0"}}, {"uniqueid": "MTK0467:3IOEN3P9S8QZ14S976JLJ1D6IU116S", "current_trial": 76, "dateTime": 1510935226750, "trialdata": {"rt": 3992, "key_press": 13, "type": "INSTRUCTIONS", "trial_type": "text", "trial_index": 76, "time_elapsed": 574065, "internal_node_id": "0.0-58.0"}}, {"uniqueid": "MTK0467:3IOEN3P9S8QZ14S976JLJ1D6IU116S", "current_trial": 77, "dateTime": 1510935239757, "trialdata": {"rt": [3995, 8606, 11275], "responses": ["7", "20", "12"], "num1": [2, 4, 1, 5], "num2": [4, 9, 6, 3], "num3": [1, 7, 5, 6], "type": "DISTRACTOR", "conditions": [12, 1600, "a", 12000], "trial": 2, "trial_type": "math-distractor", "trial_index": 77, "time_elapsed": 587077, "internal_node_id": "0.0-59.0"}}, {"uniqueid": "MTK0467:3IOEN3P9S8QZ14S976JLJ1D6IU116S", "current_trial": 78, "dateTime": 1510935242762, "trialdata": {"rt": -1, "stimulus": "<p id=\"stim\">10</p>", "key_press": -1, "trial_type": "single-stim", "trial_index": 78, "time_elapsed": 590082, "internal_node_id": "0.0-60.0-0.0"}}, {"uniqueid": "MTK0467:3IOEN3P9S8QZ14S976JLJ1D6IU116S", "current_trial": 79, "dateTime": 1510935243765, "trialdata": {"rt": -1, "stimulus": "<p id=\"stim\">9</p>", "key_press": -1, "trial_type": "single-stim", "trial_index": 79, "time_elapsed": 591084, "internal_node_id": "0.0-60.0-1.0"}}, {"uniqueid": "MTK0467:3IOEN3P9S8QZ14S976JLJ1D6IU116S", "current_trial": 80, "dateTime": 1510935244767, "trialdata": {"rt": -1, "stimulus": "<p id=\"stim\">8</p>", "key_press": -1, "trial_type": "single-stim", "trial_index": 80, "time_elapsed": 592086, "internal_node_id": "0.0-60.0-2.0"}}, {"uniqueid": "MTK0467:3IOEN3P9S8QZ14S976JLJ1D6IU116S", "current_trial": 81, "dateTime": 1510935245770, "trialdata": {"rt": -1, "stimulus": "<p id=\"stim\">7</p>", "key_press": -1, "trial_type": "single-stim", "trial_index": 81, "time_elapsed": 593089, "internal_node_id": "0.0-60.0-3.0"}}, {"uniqueid": "MTK0467:3IOEN3P9S8QZ14S976JLJ1D6IU116S", "current_trial": 82, "dateTime": 1510935246772, "trialdata": {"rt": -1, "stimulus": "<p id=\"stim\">6</p>", "key_press": -1, "trial_type": "single-stim", "trial_index": 82, "time_elapsed": 594092, "internal_node_id": "0.0-60.0-4.0"}}, {"uniqueid": "MTK0467:3IOEN3P9S8QZ14S976JLJ1D6IU116S", "current_trial": 83, "dateTime": 1510935247775, "trialdata": {"rt": -1, "stimulus": "<p id=\"stim\">5</p>", "key_press": -1, "trial_type": "single-stim", "trial_index": 83, "time_elapsed": 595094, "internal_node_id": "0.0-60.0-5.0"}}, {"uniqueid": "MTK0467:3IOEN3P9S8QZ14S976JLJ1D6IU116S", "current_trial": 84, "dateTime": 1510935248777, "trialdata": {"rt": -1, "stimulus": "<p id=\"stim\">4</p>", "key_press": -1, "trial_type": "single-stim", "trial_index": 84, "time_elapsed": 596097, "internal_node_id": "0.0-60.0-6.0"}}, {"uniqueid": "MTK0467:3IOEN3P9S8QZ14S976JLJ1D6IU116S", "current_trial": 85, "dateTime": 1510935249779, "trialdata": {"rt": -1, "stimulus": "<p id=\"stim\">3</p>", "key_press": -1, "trial_type": "single-stim", "trial_index": 85, "time_elapsed": 597099, "internal_node_id": "0.0-60.0-7.0"}}, {"uniqueid": "MTK0467:3IOEN3P9S8QZ14S976JLJ1D6IU116S", "current_trial": 86, "dateTime": 1510935250781, "trialdata": {"rt": -1, "stimulus": "<p id=\"stim\">2</p>", "key_press": -1, "trial_type": "single-stim", "trial_index": 86, "time_elapsed": 598101, "internal_node_id": "0.0-60.0-8.0"}}, {"uniqueid": "MTK0467:3IOEN3P9S8QZ14S976JLJ1D6IU116S", "current_trial": 87, "dateTime": 1510935251783, "trialdata": {"rt": -1, "stimulus": "<p id=\"stim\">1</p>", "key_press": -1, "trial_type": "single-stim", "trial_index": 87, "time_elapsed": 599103, "internal_node_id": "0.0-60.0-9.0"}}, {"uniqueid": "MTK0467:3IOEN3P9S8QZ14S976JLJ1D6IU116S", "current_trial": 88, "dateTime": 1510935253291, "trialdata": {"rt": -1, "stimulus": "<p id=\"stim\">+</p>", "key_press": -1, "type": "FIXATION", "trial_type": "single-stim", "trial_index": 88, "time_elapsed": 600606, "internal_node_id": "0.0-61.0-0.0"}}, {"uniqueid": "MTK0467:3IOEN3P9S8QZ14S976JLJ1D6IU116S", "current_trial": 89, "dateTime": 1510935255759, "trialdata": {"rt": -1000, "stimulus": "/static/audio/wordpool/SLUG.wav", "key_press": -1, "type": "PRES_AUD", "word": "slug", "wordID": 1328, "conditions": [12, 1600, "a", 12000], "trial": 2, "serialpos": 0, "trial_type": "single-audio", "trial_index": 89, "time_elapsed": 603079, "internal_node_id": "0.0-62.0"}}, {"uniqueid": "MTK0467:3IOEN3P9S8QZ14S976JLJ1D6IU116S", "current_trial": 90, "dateTime": 1510935258269, "trialdata": {"rt": -1000, "stimulus": "/static/audio/wordpool/BRIEFCASE.wav", "key_press": -1, "type": "PRES_AUD", "word": "briefcase", "wordID": 174, "conditions": [12, 1600, "a", 12000], "trial": 2, "serialpos": 1, "trial_type": "single-audio", "trial_index": 90, "time_elapsed": 605589, "internal_node_id": "0.0-63.0"}}, {"uniqueid": "MTK0467:3IOEN3P9S8QZ14S976JLJ1D6IU116S", "current_trial": 91, "dateTime": 1510935260699, "trialdata": {"rt": -1000, "stimulus": "/static/audio/wordpool/FLUTE.wav", "key_press": -1, "type": "PRES_AUD", "word": "flute", "wordID": 584, "conditions": [12, 1600, "a", 12000], "trial": 2, "serialpos": 2, "trial_type": "single-audio", "trial_index": 91, "time_elapsed": 608019, "internal_node_id": "0.0-64.0"}}, {"uniqueid": "MTK0467:3IOEN3P9S8QZ14S976JLJ1D6IU116S", "current_trial": 92, "dateTime": 1510935263374, "trialdata": {"rt": -1000, "stimulus": "/static/audio/wordpool/HARP.wav", "key_press": -1, "type": "PRES_AUD", "word": "harp", "wordID": 688, "conditions": [12, 1600, "a", 12000], "trial": 2, "serialpos": 3, "trial_type": "single-audio", "trial_index": 92, "time_elapsed": 610694, "internal_node_id": "0.0-65.0"}}, {"uniqueid": "MTK0467:3IOEN3P9S8QZ14S976JLJ1D6IU116S", "current_trial": 93, "dateTime": 1510935265814, "trialdata": {"rt": -1000, "stimulus": "/static/audio/wordpool/DOUGHNUT.wav", "key_press": -1, "type": "PRES_AUD", "word": "doughnut", "wordID": 489, "conditions": [12, 1600, "a", 12000], "trial": 2, "serialpos": 4, "trial_type": "single-audio", "trial_index": 93, "time_elapsed": 613134, "internal_node_id": "0.0-66.0"}}, {"uniqueid": "MTK0467:3IOEN3P9S8QZ14S976JLJ1D6IU116S", "current_trial": 94, "dateTime": 1510935268449, "trialdata": {"rt": -1000, "stimulus": "/static/audio/wordpool/PENGUIN.wav", "key_press": -1, "type": "PRES_AUD", "word": "penguin", "wordID": 1043, "conditions": [12, 1600, "a", 12000], "trial": 2, "serialpos": 5, "trial_type": "single-audio", "trial_index": 94, "time_elapsed": 615769, "internal_node_id": "0.0-67.0"}}, {"uniqueid": "MTK0467:3IOEN3P9S8QZ14S976JLJ1D6IU116S", "current_trial": 95, "dateTime": 1510935270910, "trialdata": {"rt": -1000, "stimulus": "/static/audio/wordpool/SPIDER.wav", "key_press": -1, "type": "PRES_AUD", "word": "spider", "wordID": 1350, "conditions": [12, 1600, "a", 12000], "trial": 2, "serialpos": 6, "trial_type": "single-audio", "trial_index": 95, "time_elapsed": 618230, "internal_node_id": "0.0-68.0"}}, {"uniqueid": "MTK0467:3IOEN3P9S8QZ14S976JLJ1D6IU116S", "current_trial": 96, "dateTime": 1510935273564, "trialdata": {"rt": -1000, "stimulus": "/static/audio/wordpool/HAWK.wav", "key_press": -1, "type": "PRES_AUD", "word": "hawk", "wordID": 691, "conditions": [12, 1600, "a", 12000], "trial": 2, "serialpos": 7, "trial_type": "single-audio", "trial_index": 96, "time_elapsed": 620884, "internal_node_id": "0.0-69.0"}}, {"uniqueid": "MTK0467:3IOEN3P9S8QZ14S976JLJ1D6IU116S", "current_trial": 97, "dateTime": 1510935276183, "trialdata": {"rt": -1000, "stimulus": "/static/audio/wordpool/BUNNY.wav", "key_press": -1, "type": "PRES_AUD", "word": "bunny", "wordID": 197, "conditions": [12, 1600, "a", 12000], "trial": 2, "serialpos": 8, "trial_type": "single-audio", "trial_index": 97, "time_elapsed": 623503, "internal_node_id": "0.0-70.0"}}, {"uniqueid": "MTK0467:3IOEN3P9S8QZ14S976JLJ1D6IU116S", "current_trial": 98, "dateTime": 1510935278705, "trialdata": {"rt": -1000, "stimulus": "/static/audio/wordpool/CUSTARD.wav", "key_press": -1, "type": "PRES_AUD", "word": "custard", "wordID": 428, "conditions": [12, 1600, "a", 12000], "trial": 2, "serialpos": 9, "trial_type": "single-audio", "trial_index": 98, "time_elapsed": 626025, "internal_node_id": "0.0-71.0"}}, {"uniqueid": "MTK0467:3IOEN3P9S8QZ14S976JLJ1D6IU116S", "current_trial": 99, "dateTime": 1510935281253, "trialdata": {"rt": -1000, "stimulus": "/static/audio/wordpool/OUTFIT.wav", "key_press": -1, "type": "PRES_AUD", "word": "outfit", "wordID": 987, "conditions": [12, 1600, "a", 12000], "trial": 2, "serialpos": 10, "trial_type": "single-audio", "trial_index": 99, "time_elapsed": 628573, "internal_node_id": "0.0-72.0"}}, {"uniqueid": "MTK0467:3IOEN3P9S8QZ14S976JLJ1D6IU116S", "current_trial": 100, "dateTime": 1510935283690, "trialdata": {"rt": -1000, "stimulus": "/static/audio/wordpool/ASIA.wav", "key_press": -1, "type": "PRES_AUD", "word": "asia", "wordID": 45, "conditions": [12, 1600, "a", 12000], "trial": 2, "serialpos": 11, "trial_type": "single-audio", "trial_index": 100, "time_elapsed": 631010, "internal_node_id": "0.0-73.0"}}, {"uniqueid": "MTK0467:3IOEN3P9S8QZ14S976JLJ1D6IU116S", "current_trial": 101, "dateTime": 1510935284911, "trialdata": {"rt": -1, "stimulus": "", "key_press": -1, "type": "PRE_RECALL_DELAY", "trial_type": "single-stim", "trial_index": 101, "time_elapsed": 632230, "internal_node_id": "0.0-74.0-0.0"}}, {"uniqueid": "MTK0467:3IOEN3P9S8QZ14S976JLJ1D6IU116S", "current_trial": 102, "dateTime": 1510935285413, "trialdata": {"rt": -1000, "stimulus": "/static/audio/400Hz.wav", "key_press": -1, "type": "PRE_RECALL_ALERT", "trial_type": "single-audio", "trial_index": 102, "time_elapsed": 632733, "internal_node_id": "0.0-75.0"}}, {"uniqueid": "MTK0467:3IOEN3P9S8QZ14S976JLJ1D6IU116S", "current_trial": 103, "dateTime": 1510935345423, "trialdata": {"rt": [2842, 8576, 13290, 15400, 22551, 30127, 39551], "recwords": ["slug", "briefcase", "doughnut", "spider", "hawlk", "bunny", "asia"], "type": "FREE_RECALL", "conditions": [12, 1600, "a", 12000], "trial": 2, "trial_type": "free-recall", "trial_index": 103, "time_elapsed": 692738, "internal_node_id": "0.0-76.0-0.0"}}, {"uniqueid": "MTK0467:3IOEN3P9S8QZ14S976JLJ1D6IU116S", "current_trial": 104, "dateTime": 1510935349683, "trialdata": {"rt": 2257, "key_press": 32, "type": "INSTRUCTIONS", "trial_type": "text", "trial_index": 104, "time_elapsed": 697003, "internal_node_id": "0.0-77.0"}}, {"uniqueid": "MTK0467:3IOEN3P9S8QZ14S976JLJ1D6IU116S", "current_trial": 105, "dateTime": 1510935363688, "trialdata": {"rt": [3254, 7088, 9455], "responses": ["16", "15", "10"], "num1": [1, 6, 2, 3], "num2": [6, 1, 6, 5], "num3": [9, 8, 2, 6], "type": "DISTRACTOR", "conditions": [12, 1600, "v", 12000], "trial": 3, "trial_type": "math-distractor", "trial_index": 105, "time_elapsed": 711008, "internal_node_id": "0.0-78.0"}}, {"uniqueid": "MTK0467:3IOEN3P9S8QZ14S976JLJ1D6IU116S", "current_trial": 106, "dateTime": 1510935366692, "trialdata": {"rt": -1, "stimulus": "<p id=\"stim\">10</p>", "key_press": -1, "trial_type": "single-stim", "trial_index": 106, "time_elapsed": 714011, "internal_node_id": "0.0-79.0-0.0"}}, {"uniqueid": "MTK0467:3IOEN3P9S8QZ14S976JLJ1D6IU116S", "current_trial": 107, "dateTime": 1510935367694, "trialdata": {"rt": -1, "stimulus": "<p id=\"stim\">9</p>", "key_press": -1, "trial_type": "single-stim", "trial_index": 107, "time_elapsed": 715013, "internal_node_id": "0.0-79.0-1.0"}}, {"uniqueid": "MTK0467:3IOEN3P9S8QZ14S976JLJ1D6IU116S", "current_trial": 108, "dateTime": 1510935368695, "trialdata": {"rt": -1, "stimulus": "<p id=\"stim\">8</p>", "key_press": -1, "trial_type": "single-stim", "trial_index": 108, "time_elapsed": 716014, "internal_node_id": "0.0-79.0-2.0"}}, {"uniqueid": "MTK0467:3IOEN3P9S8QZ14S976JLJ1D6IU116S", "current_trial": 109, "dateTime": 1510935369699, "trialdata": {"rt": -1, "stimulus": "<p id=\"stim\">7</p>", "key_press": -1, "trial_type": "single-stim", "trial_index": 109, "time_elapsed": 717019, "internal_node_id": "0.0-79.0-3.0"}}, {"uniqueid": "MTK0467:3IOEN3P9S8QZ14S976JLJ1D6IU116S", "current_trial": 110, "dateTime": 1510935370701, "trialdata": {"rt": -1, "stimulus": "<p id=\"stim\">6</p>", "key_press": -1, "trial_type": "single-stim", "trial_index": 110, "time_elapsed": 718020, "internal_node_id": "0.0-79.0-4.0"}}, {"uniqueid": "MTK0467:3IOEN3P9S8QZ14S976JLJ1D6IU116S", "current_trial": 111, "dateTime": 1510935371703, "trialdata": {"rt": -1, "stimulus": "<p id=\"stim\">5</p>", "key_press": -1, "trial_type": "single-stim", "trial_index": 111, "time_elapsed": 719022, "internal_node_id": "0.0-79.0-5.0"}}, {"uniqueid": "MTK0467:3IOEN3P9S8QZ14S976JLJ1D6IU116S", "current_trial": 112, "dateTime": 1510935372705, "trialdata": {"rt": -1, "stimulus": "<p id=\"stim\">4</p>", "key_press": -1, "trial_type": "single-stim", "trial_index": 112, "time_elapsed": 720024, "internal_node_id": "0.0-79.0-6.0"}}, {"uniqueid": "MTK0467:3IOEN3P9S8QZ14S976JLJ1D6IU116S", "current_trial": 113, "dateTime": 1510935373707, "trialdata": {"rt": -1, "stimulus": "<p id=\"stim\">3</p>", "key_press": -1, "trial_type": "single-stim", "trial_index": 113, "time_elapsed": 721026, "internal_node_id": "0.0-79.0-7.0"}}, {"uniqueid": "MTK0467:3IOEN3P9S8QZ14S976JLJ1D6IU116S", "current_trial": 114, "dateTime": 1510935374708, "trialdata": {"rt": -1, "stimulus": "<p id=\"stim\">2</p>", "key_press": -1, "trial_type": "single-stim", "trial_index": 114, "time_elapsed": 722028, "internal_node_id": "0.0-79.0-8.0"}}, {"uniqueid": "MTK0467:3IOEN3P9S8QZ14S976JLJ1D6IU116S", "current_trial": 115, "dateTime": 1510935375710, "trialdata": {"rt": -1, "stimulus": "<p id=\"stim\">1</p>", "key_press": -1, "trial_type": "single-stim", "trial_index": 115, "time_elapsed": 723029, "internal_node_id": "0.0-79.0-9.0"}}, {"uniqueid": "MTK0467:3IOEN3P9S8QZ14S976JLJ1D6IU116S", "current_trial": 116, "dateTime": 1510935377212, "trialdata": {"rt": -1, "stimulus": "<p id=\"stim\">+</p>", "key_press": -1, "type": "FIXATION", "trial_type": "single-stim", "trial_index": 116, "time_elapsed": 724531, "internal_node_id": "0.0-80.0-0.0"}}, {"uniqueid": "MTK0467:3IOEN3P9S8QZ14S976JLJ1D6IU116S", "current_trial": 117, "dateTime": 1510935378814, "trialdata": {"rt": -1, "stimulus": "<p id=\"stim\">COUSIN</p>", "key_press": -1, "type": "PRES_VIS", "word": "cousin", "wordID": 391, "conditions": [12, 1600, "v", 12000], "trial": 3, "serialpos": 0, "trial_type": "single-stim", "trial_index": 117, "time_elapsed": 726134, "internal_node_id": "0.0-81.0"}}, {"uniqueid": "MTK0467:3IOEN3P9S8QZ14S976JLJ1D6IU116S", "current_trial": 118, "dateTime": 1510935381219, "trialdata": {"rt": -1, "stimulus": "<p id=\"stim\">PARSLEY</p>", "key_press": -1, "type": "PRES_VIS", "word": "parsley", "wordID": 1015, "conditions": [12, 1600, "v", 12000], "trial": 3, "serialpos": 1, "trial_type": "single-stim", "trial_index": 118, "time_elapsed": 728538, "internal_node_id": "0.0-82.0"}}, {"uniqueid": "MTK0467:3IOEN3P9S8QZ14S976JLJ1D6IU116S", "current_trial": 119, "dateTime": 1510935383816, "trialdata": {"rt": -1, "stimulus": "<p id=\"stim\">LUGGAGE</p>", "key_press": -1, "type": "PRES_VIS", "word": "luggage", "wordID": 846, "conditions": [12, 1600, "v", 12000], "trial": 3, "serialpos": 2, "trial_type": "single-stim", "trial_index": 119, "time_elapsed": 731135, "internal_node_id": "0.0-83.0"}}, {"uniqueid": "MTK0467:3IOEN3P9S8QZ14S976JLJ1D6IU116S", "current_trial": 120, "dateTime": 1510935386589, "trialdata": {"rt": -1, "stimulus": "<p id=\"stim\">CANAL</p>", "key_press": -1, "type": "PRES_VIS", "word": "canal", "wordID": 225, "conditions": [12, 1600, "v", 12000], "trial": 3, "serialpos": 3, "trial_type": "single-stim", "trial_index": 120, "time_elapsed": 733908, "internal_node_id": "0.0-84.0"}}, {"uniqueid": "MTK0467:3IOEN3P9S8QZ14S976JLJ1D6IU116S", "current_trial": 121, "dateTime": 1510935389204, "trialdata": {"rt": -1, "stimulus": "<p id=\"stim\">LIGHTNING</p>", "key_press": -1, "type": "PRES_VIS", "word": "lightning", "wordID": 819, "conditions": [12, 1600, "v", 12000], "trial": 3, "serialpos": 4, "trial_type": "single-stim", "trial_index": 121, "time_elapsed": 736523, "internal_node_id": "0.0-85.0"}}, {"uniqueid": "MTK0467:3IOEN3P9S8QZ14S976JLJ1D6IU116S", "current_trial": 122, "dateTime": 1510935391746, "trialdata": {"rt": -1, "stimulus": "<p id=\"stim\">BUG</p>", "key_press": -1, "type": "PRES_VIS", "word": "bug", "wordID": 186, "conditions": [12, 1600, "v", 12000], "trial": 3, "serialpos": 5, "trial_type": "single-stim", "trial_index": 122, "time_elapsed": 739065, "internal_node_id": "0.0-86.0"}}, {"uniqueid": "MTK0467:3IOEN3P9S8QZ14S976JLJ1D6IU116S", "current_trial": 123, "dateTime": 1510935394409, "trialdata": {"rt": -1, "stimulus": "<p id=\"stim\">ANTLER</p>", "key_press": -1, "type": "PRES_VIS", "word": "antler", "wordID": 28, "conditions": [12, 1600, "v", 12000], "trial": 3, "serialpos": 6, "trial_type": "single-stim", "trial_index": 123, "time_elapsed": 741729, "internal_node_id": "0.0-87.0"}}, {"uniqueid": "MTK0467:3IOEN3P9S8QZ14S976JLJ1D6IU116S", "current_trial": 124, "dateTime": 1510935396987, "trialdata": {"rt": -1, "stimulus": "<p id=\"stim\">PIGMENT</p>", "key_press": -1, "type": "PRES_VIS", "word": "pigment", "wordID": 1065, "conditions": [12, 1600, "v", 12000], "trial": 3, "serialpos": 7, "trial_type": "single-stim", "trial_index": 124, "time_elapsed": 744306, "internal_node_id": "0.0-88.0"}}, {"uniqueid": "MTK0467:3IOEN3P9S8QZ14S976JLJ1D6IU116S", "current_trial": 125, "dateTime": 1510935399482, "trialdata": {"rt": -1, "stimulus": "<p id=\"stim\">BROTHER</p>", "key_press": -1, "type": "PRES_VIS", "word": "brother", "wordID": 178, "conditions": [12, 1600, "v", 12000], "trial": 3, "serialpos": 8, "trial_type": "single-stim", "trial_index": 125, "time_elapsed": 746801, "internal_node_id": "0.0-89.0"}}, {"uniqueid": "MTK0467:3IOEN3P9S8QZ14S976JLJ1D6IU116S", "current_trial": 126, "dateTime": 1510935401956, "trialdata": {"rt": -1, "stimulus": "<p id=\"stim\">SCARF</p>", "key_press": -1, "type": "PRES_VIS", "word": "scarf", "wordID": 1245, "conditions": [12, 1600, "v", 12000], "trial": 3, "serialpos": 9, "trial_type": "single-stim", "trial_index": 126, "time_elapsed": 749276, "internal_node_id": "0.0-90.0"}}, {"uniqueid": "MTK0467:3IOEN3P9S8QZ14S976JLJ1D6IU116S", "current_trial": 127, "dateTime": 1510935404404, "trialdata": {"rt": -1, "stimulus": "<p id=\"stim\">SHIRT</p>", "key_press": -1, "type": "PRES_VIS", "word": "shirt", "wordID": 1286, "conditions": [12, 1600, "v", 12000], "trial": 3, "serialpos": 10, "trial_type": "single-stim", "trial_index": 127, "time_elapsed": 751723, "internal_node_id": "0.0-91.0"}}, {"uniqueid": "MTK0467:3IOEN3P9S8QZ14S976JLJ1D6IU116S", "current_trial": 128, "dateTime": 1510935406832, "trialdata": {"rt": -1, "stimulus": "<p id=\"stim\">THREAD</p>", "key_press": -1, "type": "PRES_VIS", "word": "thread", "wordID": 1459, "conditions": [12, 1600, "v", 12000], "trial": 3, "serialpos": 11, "trial_type": "single-stim", "trial_index": 128, "time_elapsed": 754151, "internal_node_id": "0.0-92.0"}}, {"uniqueid": "MTK0467:3IOEN3P9S8QZ14S976JLJ1D6IU116S", "current_trial": 129, "dateTime": 1510935409259, "trialdata": {"rt": -1, "stimulus": "", "key_press": -1, "type": "PRE_RECALL_DELAY", "trial_type": "single-stim", "trial_index": 129, "time_elapsed": 756575, "internal_node_id": "0.0-93.0-0.0"}}, {"uniqueid": "MTK0467:3IOEN3P9S8QZ14S976JLJ1D6IU116S", "current_trial": 130, "dateTime": 1510935409762, "trialdata": {"rt": -1000, "stimulus": "/static/audio/400Hz.wav", "key_press": -1, "type": "PRE_RECALL_ALERT", "trial_type": "single-audio", "trial_index": 130, "time_elapsed": 757082, "internal_node_id": "0.0-94.0"}}, {"uniqueid": "MTK0467:3IOEN3P9S8QZ14S976JLJ1D6IU116S", "current_trial": 131, "dateTime": 1510935469773, "trialdata": {"rt": [2821, 8065, 15713, 18747, 22449, 29263, 45184, 51593], "recwords": ["cousin", "parsley", "canal", "lightening", "bug", "brother", "shirt", "thread"], "type": "FREE_RECALL", "conditions": [12, 1600, "v", 12000], "trial": 3, "trial_type": "free-recall", "trial_index": 131, "time_elapsed": 817088, "internal_node_id": "0.0-95.0-0.0"}}, {"uniqueid": "MTK0467:3IOEN3P9S8QZ14S976JLJ1D6IU116S", "current_trial": 132, "dateTime": 1510935472897, "trialdata": {"rt": 1122, "key_press": 32, "type": "INSTRUCTIONS", "trial_type": "text", "trial_index": 132, "time_elapsed": 820216, "internal_node_id": "0.0-96.0"}}, {"uniqueid": "MTK0467:3IOEN3P9S8QZ14S976JLJ1D6IU116S", "current_trial": 133, "dateTime": 1510935486902, "trialdata": {"rt": [1780, 5585, 7464, 9861], "responses": ["12", "23", "6", "16"], "num1": [6, 9, 1, 9, 7], "num2": [4, 9, 4, 4, 8], "num3": [2, 5, 1, 3, 7], "type": "DISTRACTOR", "conditions": [24, 1600, "v", 12000], "trial": 4, "trial_type": "math-distractor", "trial_index": 133, "time_elapsed": 834222, "internal_node_id": "0.0-97.0"}}, {"uniqueid": "MTK0467:3IOEN3P9S8QZ14S976JLJ1D6IU116S", "current_trial": 134, "dateTime": 1510935489905, "trialdata": {"rt": -1, "stimulus": "<p id=\"stim\">10</p>", "key_press": -1, "trial_type": "single-stim", "trial_index": 134, "time_elapsed": 837224, "internal_node_id": "0.0-98.0-0.0"}}, {"uniqueid": "MTK0467:3IOEN3P9S8QZ14S976JLJ1D6IU116S", "current_trial": 135, "dateTime": 1510935490908, "trialdata": {"rt": -1, "stimulus": "<p id=\"stim\">9</p>", "key_press": -1, "trial_type": "single-stim", "trial_index": 135, "time_elapsed": 838227, "internal_node_id": "0.0-98.0-1.0"}}, {"uniqueid": "MTK0467:3IOEN3P9S8QZ14S976JLJ1D6IU116S", "current_trial": 136, "dateTime": 1510935491911, "trialdata": {"rt": -1, "stimulus": "<p id=\"stim\">8</p>", "key_press": -1, "trial_type": "single-stim", "trial_index": 136, "time_elapsed": 839230, "internal_node_id": "0.0-98.0-2.0"}}, {"uniqueid": "MTK0467:3IOEN3P9S8QZ14S976JLJ1D6IU116S", "current_trial": 137, "dateTime": 1510935492912, "trialdata": {"rt": -1, "stimulus": "<p id=\"stim\">7</p>", "key_press": -1, "trial_type": "single-stim", "trial_index": 137, "time_elapsed": 840231, "internal_node_id": "0.0-98.0-3.0"}}, {"uniqueid": "MTK0467:3IOEN3P9S8QZ14S976JLJ1D6IU116S", "current_trial": 138, "dateTime": 1510935493915, "trialdata": {"rt": -1, "stimulus": "<p id=\"stim\">6</p>", "key_press": -1, "trial_type": "single-stim", "trial_index": 138, "time_elapsed": 841234, "internal_node_id": "0.0-98.0-4.0"}}, {"uniqueid": "MTK0467:3IOEN3P9S8QZ14S976JLJ1D6IU116S", "current_trial": 139, "dateTime": 1510935494917, "trialdata": {"rt": -1, "stimulus": "<p id=\"stim\">5</p>", "key_press": -1, "trial_type": "single-stim", "trial_index": 139, "time_elapsed": 842236, "internal_node_id": "0.0-98.0-5.0"}}, {"uniqueid": "MTK0467:3IOEN3P9S8QZ14S976JLJ1D6IU116S", "current_trial": 140, "dateTime": 1510935495919, "trialdata": {"rt": -1, "stimulus": "<p id=\"stim\">4</p>", "key_press": -1, "trial_type": "single-stim", "trial_index": 140, "time_elapsed": 843238, "internal_node_id": "0.0-98.0-6.0"}}, {"uniqueid": "MTK0467:3IOEN3P9S8QZ14S976JLJ1D6IU116S", "current_trial": 141, "dateTime": 1510935496921, "trialdata": {"rt": -1, "stimulus": "<p id=\"stim\">3</p>", "key_press": -1, "trial_type": "single-stim", "trial_index": 141, "time_elapsed": 844240, "internal_node_id": "0.0-98.0-7.0"}}, {"uniqueid": "MTK0467:3IOEN3P9S8QZ14S976JLJ1D6IU116S", "current_trial": 142, "dateTime": 1510935497923, "trialdata": {"rt": -1, "stimulus": "<p id=\"stim\">2</p>", "key_press": -1, "trial_type": "single-stim", "trial_index": 142, "time_elapsed": 845242, "internal_node_id": "0.0-98.0-8.0"}}, {"uniqueid": "MTK0467:3IOEN3P9S8QZ14S976JLJ1D6IU116S", "current_trial": 143, "dateTime": 1510935498926, "trialdata": {"rt": -1, "stimulus": "<p id=\"stim\">1</p>", "key_press": -1, "trial_type": "single-stim", "trial_index": 143, "time_elapsed": 846246, "internal_node_id": "0.0-98.0-9.0"}}, {"uniqueid": "MTK0467:3IOEN3P9S8QZ14S976JLJ1D6IU116S", "current_trial": 144, "dateTime": 1510935500430, "trialdata": {"rt": -1, "stimulus": "<p id=\"stim\">+</p>", "key_press": -1, "type": "FIXATION", "trial_type": "single-stim", "trial_index": 144, "time_elapsed": 847749, "internal_node_id": "0.0-99.0-0.0"}}, {"uniqueid": "MTK0467:3IOEN3P9S8QZ14S976JLJ1D6IU116S", "current_trial": 145, "dateTime": 1510935502032, "trialdata": {"rt": -1, "stimulus": "<p id=\"stim\">QUARTER</p>", "key_press": -1, "type": "PRES_VIS", "word": "quarter", "wordID": 1147, "conditions": [24, 1600, "v", 12000], "trial": 4, "serialpos": 0, "trial_type": "single-stim", "trial_index": 145, "time_elapsed": 849352, "internal_node_id": "0.0-100.0"}}, {"uniqueid": "MTK0467:3IOEN3P9S8QZ14S976JLJ1D6IU116S", "current_trial": 146, "dateTime": 1510935504471, "trialdata": {"rt": -1, "stimulus": "<p id=\"stim\">MARKET</p>", "key_press": -1, "type": "PRES_VIS", "word": "market", "wordID": 870, "conditions": [24, 1600, "v", 12000], "trial": 4, "serialpos": 1, "trial_type": "single-stim", "trial_index": 146, "time_elapsed": 851791, "internal_node_id": "0.0-101.0"}}, {"uniqueid": "MTK0467:3IOEN3P9S8QZ14S976JLJ1D6IU116S", "current_trial": 147, "dateTime": 1510935506996, "trialdata": {"rt": -1, "stimulus": "<p id=\"stim\">DUSTPAN</p>", "key_press": -1, "type": "PRES_VIS", "word": "dustpan", "wordID": 508, "conditions": [24, 1600, "v", 12000], "trial": 4, "serialpos": 2, "trial_type": "single-stim", "trial_index": 147, "time_elapsed": 854316, "internal_node_id": "0.0-102.0"}}, {"uniqueid": "MTK0467:3IOEN3P9S8QZ14S976JLJ1D6IU116S", "current_trial": 148, "dateTime": 1510935509785, "trialdata": {"rt": -1, "stimulus": "<p id=\"stim\">BUTCHER</p>", "key_press": -1, "type": "PRES_VIS", "word": "butcher", "wordID": 202, "conditions": [24, 1600, "v", 12000], "trial": 4, "serialpos": 3, "trial_type": "single-stim", "trial_index": 148, "time_elapsed": 857104, "internal_node_id": "0.0-103.0"}}, {"uniqueid": "MTK0467:3IOEN3P9S8QZ14S976JLJ1D6IU116S", "current_trial": 149, "dateTime": 1510935512316, "trialdata": {"rt": -1, "stimulus": "<p id=\"stim\">SNAKE</p>", "key_press": -1, "type": "PRES_VIS", "word": "snake", "wordID": 1332, "conditions": [24, 1600, "v", 12000], "trial": 4, "serialpos": 4, "trial_type": "single-stim", "trial_index": 149, "time_elapsed": 859636, "internal_node_id": "0.0-104.0"}}, {"uniqueid": "MTK0467:3IOEN3P9S8QZ14S976JLJ1D6IU116S", "current_trial": 150, "dateTime": 1510935514891, "trialdata": {"rt": -1, "stimulus": "<p id=\"stim\">STICKER</p>", "key_press": -1, "type": "PRES_VIS", "word": "sticker", "wordID": 1381, "conditions": [24, 1600, "v", 12000], "trial": 4, "serialpos": 5, "trial_type": "single-stim", "trial_index": 150, "time_elapsed": 862210, "internal_node_id": "0.0-105.0"}}, {"uniqueid": "MTK0467:3IOEN3P9S8QZ14S976JLJ1D6IU116S", "current_trial": 151, "dateTime": 1510935517652, "trialdata": {"rt": -1, "stimulus": "<p id=\"stim\">BADGE</p>", "key_press": -1, "type": "PRES_VIS", "word": "badge", "wordID": 67, "conditions": [24, 1600, "v", 12000], "trial": 4, "serialpos": 6, "trial_type": "single-stim", "trial_index": 151, "time_elapsed": 864971, "internal_node_id": "0.0-106.0"}}, {"uniqueid": "MTK0467:3IOEN3P9S8QZ14S976JLJ1D6IU116S", "current_trial": 152, "dateTime": 1510935520374, "trialdata": {"rt": -1, "stimulus": "<p id=\"stim\">POSSUM</p>", "key_press": -1, "type": "PRES_VIS", "word": "possum", "wordID": 1111, "conditions": [24, 1600, "v", 12000], "trial": 4, "serialpos": 7, "trial_type": "single-stim", "trial_index": 152, "time_elapsed": 867693, "internal_node_id": "0.0-107.0"}}, {"uniqueid": "MTK0467:3IOEN3P9S8QZ14S976JLJ1D6IU116S", "current_trial": 153, "dateTime": 1510935523118, "trialdata": {"rt": -1, "stimulus": "<p id=\"stim\">HAND</p>", "key_press": -1, "type": "PRES_VIS", "word": "hand", "wordID": 682, "conditions": [24, 1600, "v", 12000], "trial": 4, "serialpos": 8, "trial_type": "single-stim", "trial_index": 153, "time_elapsed": 870438, "internal_node_id": "0.0-108.0"}}, {"uniqueid": "MTK0467:3IOEN3P9S8QZ14S976JLJ1D6IU116S", "current_trial": 154, "dateTime": 1510935525909, "trialdata": {"rt": -1, "stimulus": "<p id=\"stim\">ICING</p>", "key_press": -1, "type": "PRES_VIS", "word": "icing", "wordID": 731, "conditions": [24, 1600, "v", 12000], "trial": 4, "serialpos": 9, "trial_type": "single-stim", "trial_index": 154, "time_elapsed": 873228, "internal_node_id": "0.0-109.0"}}, {"uniqueid": "MTK0467:3IOEN3P9S8QZ14S976JLJ1D6IU116S", "current_trial": 155, "dateTime": 1510935528394, "trialdata": {"rt": -1, "stimulus": "<p id=\"stim\">FINGER</p>", "key_press": -1, "type": "PRES_VIS", "word": "finger", "wordID": 566, "conditions": [24, 1600, "v", 12000], "trial": 4, "serialpos": 10, "trial_type": "single-stim", "trial_index": 155, "time_elapsed": 875713, "internal_node_id": "0.0-110.0"}}, {"uniqueid": "MTK0467:3IOEN3P9S8QZ14S976JLJ1D6IU116S", "current_trial": 156, "dateTime": 1510935531135, "trialdata": {"rt": -1, "stimulus": "<p id=\"stim\">SHERIFF</p>", "key_press": -1, "type": "PRES_VIS", "word": "sheriff", "wordID": 1283, "conditions": [24, 1600, "v", 12000], "trial": 4, "serialpos": 11, "trial_type": "single-stim", "trial_index": 156, "time_elapsed": 878455, "internal_node_id": "0.0-111.0"}}, {"uniqueid": "MTK0467:3IOEN3P9S8QZ14S976JLJ1D6IU116S", "current_trial": 157, "dateTime": 1510935533866, "trialdata": {"rt": -1, "stimulus": "<p id=\"stim\">TYPIST</p>", "key_press": -1, "type": "PRES_VIS", "word": "typist", "wordID": 1531, "conditions": [24, 1600, "v", 12000], "trial": 4, "serialpos": 12, "trial_type": "single-stim", "trial_index": 157, "time_elapsed": 881185, "internal_node_id": "0.0-112.0"}}, {"uniqueid": "MTK0467:3IOEN3P9S8QZ14S976JLJ1D6IU116S", "current_trial": 158, "dateTime": 1510935536433, "trialdata": {"rt": -1, "stimulus": "<p id=\"stim\">LUNCH</p>", "key_press": -1, "type": "PRES_VIS", "word": "lunch", "wordID": 848, "conditions": [24, 1600, "v", 12000], "trial": 4, "serialpos": 13, "trial_type": "single-stim", "trial_index": 158, "time_elapsed": 883753, "internal_node_id": "0.0-113.0"}}, {"uniqueid": "MTK0467:3IOEN3P9S8QZ14S976JLJ1D6IU116S", "current_trial": 159, "dateTime": 1510935539230, "trialdata": {"rt": -1, "stimulus": "<p id=\"stim\">OUTDOORS</p>", "key_press": -1, "type": "PRES_VIS", "word": "outdoors", "wordID": 986, "conditions": [24, 1600, "v", 12000], "trial": 4, "serialpos": 14, "trial_type": "single-stim", "trial_index": 159, "time_elapsed": 886550, "internal_node_id": "0.0-114.0"}}, {"uniqueid": "MTK0467:3IOEN3P9S8QZ14S976JLJ1D6IU116S", "current_trial": 160, "dateTime": 1510935541707, "trialdata": {"rt": -1, "stimulus": "<p id=\"stim\">APPLE</p>", "key_press": -1, "type": "PRES_VIS", "word": "apple", "wordID": 32, "conditions": [24, 1600, "v", 12000], "trial": 4, "serialpos": 15, "trial_type": "single-stim", "trial_index": 160, "time_elapsed": 889026, "internal_node_id": "0.0-115.0"}}, {"uniqueid": "MTK0467:3IOEN3P9S8QZ14S976JLJ1D6IU116S", "current_trial": 161, "dateTime": 1510935544115, "trialdata": {"rt": -1, "stimulus": "<p id=\"stim\">CHIPMUNK</p>", "key_press": -1, "type": "PRES_VIS", "word": "chipmunk", "wordID": 303, "conditions": [24, 1600, "v", 12000], "trial": 4, "serialpos": 16, "trial_type": "single-stim", "trial_index": 161, "time_elapsed": 891435, "internal_node_id": "0.0-116.0"}}, {"uniqueid": "MTK0467:3IOEN3P9S8QZ14S976JLJ1D6IU116S", "current_trial": 162, "dateTime": 1510935546747, "trialdata": {"rt": -1, "stimulus": "<p id=\"stim\">BEAVER</p>", "key_press": -1, "type": "PRES_VIS", "word": "beaver", "wordID": 108, "conditions": [24, 1600, "v", 12000], "trial": 4, "serialpos": 17, "trial_type": "single-stim", "trial_index": 162, "time_elapsed": 894061, "internal_node_id": "0.0-117.0"}}, {"uniqueid": "MTK0467:3IOEN3P9S8QZ14S976JLJ1D6IU116S", "current_trial": 163, "dateTime": 1510935549309, "trialdata": {"rt": -1, "stimulus": "<p id=\"stim\">DANCER</p>", "key_press": -1, "type": "PRES_VIS", "word": "dancer", "wordID": 436, "conditions": [24, 1600, "v", 12000], "trial": 4, "serialpos": 18, "trial_type": "single-stim", "trial_index": 163, "time_elapsed": 896629, "internal_node_id": "0.0-118.0"}}, {"uniqueid": "MTK0467:3IOEN3P9S8QZ14S976JLJ1D6IU116S", "current_trial": 164, "dateTime": 1510935551733, "trialdata": {"rt": -1, "stimulus": "<p id=\"stim\">GRAPE</p>", "key_press": -1, "type": "PRES_VIS", "word": "grape", "wordID": 653, "conditions": [24, 1600, "v", 12000], "trial": 4, "serialpos": 19, "trial_type": "single-stim", "trial_index": 164, "time_elapsed": 899052, "internal_node_id": "0.0-119.0"}}, {"uniqueid": "MTK0467:3IOEN3P9S8QZ14S976JLJ1D6IU116S", "current_trial": 165, "dateTime": 1510935554378, "trialdata": {"rt": -1, "stimulus": "<p id=\"stim\">FIREPLACE</p>", "key_press": -1, "type": "PRES_VIS", "word": "fireplace", "wordID": 569, "conditions": [24, 1600, "v", 12000], "trial": 4, "serialpos": 20, "trial_type": "single-stim", "trial_index": 165, "time_elapsed": 901697, "internal_node_id": "0.0-120.0"}}, {"uniqueid": "MTK0467:3IOEN3P9S8QZ14S976JLJ1D6IU116S", "current_trial": 166, "dateTime": 1510935556928, "trialdata": {"rt": -1, "stimulus": "<p id=\"stim\">WASHER</p>", "key_press": -1, "type": "PRES_VIS", "word": "washer", "wordID": 1591, "conditions": [24, 1600, "v", 12000], "trial": 4, "serialpos": 21, "trial_type": "single-stim", "trial_index": 166, "time_elapsed": 904247, "internal_node_id": "0.0-121.0"}}, {"uniqueid": "MTK0467:3IOEN3P9S8QZ14S976JLJ1D6IU116S", "current_trial": 167, "dateTime": 1510935559694, "trialdata": {"rt": -1, "stimulus": "<p id=\"stim\">MOTEL</p>", "key_press": -1, "type": "PRES_VIS", "word": "motel", "wordID": 918, "conditions": [24, 1600, "v", 12000], "trial": 4, "serialpos": 22, "trial_type": "single-stim", "trial_index": 167, "time_elapsed": 907013, "internal_node_id": "0.0-122.0"}}, {"uniqueid": "MTK0467:3IOEN3P9S8QZ14S976JLJ1D6IU116S", "current_trial": 168, "dateTime": 1510935562261, "trialdata": {"rt": -1, "stimulus": "<p id=\"stim\">KNAPSACK</p>", "key_press": -1, "type": "PRES_VIS", "word": "knapsack", "wordID": 782, "conditions": [24, 1600, "v", 12000], "trial": 4, "serialpos": 23, "trial_type": "single-stim", "trial_index": 168, "time_elapsed": 909581, "internal_node_id": "0.0-123.0"}}, {"uniqueid": "MTK0467:3IOEN3P9S8QZ14S976JLJ1D6IU116S", "current_trial": 169, "dateTime": 1510935564452, "trialdata": {"rt": -1, "stimulus": "", "key_press": -1, "type": "PRE_RECALL_DELAY", "trial_type": "single-stim", "trial_index": 169, "time_elapsed": 911771, "internal_node_id": "0.0-124.0-0.0"}}, {"uniqueid": "MTK0467:3IOEN3P9S8QZ14S976JLJ1D6IU116S", "current_trial": 170, "dateTime": 1510935564954, "trialdata": {"rt": -1000, "stimulus": "/static/audio/400Hz.wav", "key_press": -1, "type": "PRE_RECALL_ALERT", "trial_type": "single-audio", "trial_index": 170, "time_elapsed": 912274, "internal_node_id": "0.0-125.0"}}, {"uniqueid": "MTK0467:3IOEN3P9S8QZ14S976JLJ1D6IU116S", "current_trial": 171, "dateTime": 1510935624966, "trialdata": {"rt": [9815, 14452, 23093, 26459, 29166, 33067, 36402, 38984, 41152], "recwords": ["quarter", "marker", "dustpan", "apple", "finger", "hand", "outdoors", "picnic", "grape"], "type": "FREE_RECALL", "conditions": [24, 1600, "v", 12000], "trial": 4, "trial_type": "free-recall", "trial_index": 171, "time_elapsed": 972280, "internal_node_id": "0.0-126.0-0.0"}}, {"uniqueid": "MTK0467:3IOEN3P9S8QZ14S976JLJ1D6IU116S", "current_trial": 172, "dateTime": 1510935628316, "trialdata": {"rt": 1349, "key_press": 32, "type": "INSTRUCTIONS", "trial_type": "text", "trial_index": 172, "time_elapsed": 975636, "internal_node_id": "0.0-127.0"}}, {"uniqueid": "MTK0467:3IOEN3P9S8QZ14S976JLJ1D6IU116S", "current_trial": 173, "dateTime": 1510935654324, "trialdata": {"rt": [4006, 8138, 14479, 17891, 19944, 22764], "responses": ["21", "26", "20", "19", "18", "16"], "num1": [2, 9, 4, 1, 9, 9, 4], "num2": [8, 8, 9, 9, 1, 6, 6], "num3": [9, 9, 7, 9, 8, 1, 4], "type": "DISTRACTOR", "conditions": [24, 800, "a", 24000], "trial": 5, "trial_type": "math-distractor", "trial_index": 173, "time_elapsed": 1001644, "internal_node_id": "0.0-128.0"}}, {"uniqueid": "MTK0467:3IOEN3P9S8QZ14S976JLJ1D6IU116S", "current_trial": 174, "dateTime": 1510935657327, "trialdata": {"rt": -1, "stimulus": "<p id=\"stim\">10</p>", "key_press": -1, "trial_type": "single-stim", "trial_index": 174, "time_elapsed": 1004647, "internal_node_id": "0.0-129.0-0.0"}}, {"uniqueid": "MTK0467:3IOEN3P9S8QZ14S976JLJ1D6IU116S", "current_trial": 175, "dateTime": 1510935658329, "trialdata": {"rt": -1, "stimulus": "<p id=\"stim\">9</p>", "key_press": -1, "trial_type": "single-stim", "trial_index": 175, "time_elapsed": 1005649, "internal_node_id": "0.0-129.0-1.0"}}, {"uniqueid": "MTK0467:3IOEN3P9S8QZ14S976JLJ1D6IU116S", "current_trial": 176, "dateTime": 1510935659331, "trialdata": {"rt": -1, "stimulus": "<p id=\"stim\">8</p>", "key_press": -1, "trial_type": "single-stim", "trial_index": 176, "time_elapsed": 1006651, "internal_node_id": "0.0-129.0-2.0"}}, {"uniqueid": "MTK0467:3IOEN3P9S8QZ14S976JLJ1D6IU116S", "current_trial": 177, "dateTime": 1510935660334, "trialdata": {"rt": -1, "stimulus": "<p id=\"stim\">7</p>", "key_press": -1, "trial_type": "single-stim", "trial_index": 177, "time_elapsed": 1007654, "internal_node_id": "0.0-129.0-3.0"}}, {"uniqueid": "MTK0467:3IOEN3P9S8QZ14S976JLJ1D6IU116S", "current_trial": 178, "dateTime": 1510935661337, "trialdata": {"rt": -1, "stimulus": "<p id=\"stim\">6</p>", "key_press": -1, "trial_type": "single-stim", "trial_index": 178, "time_elapsed": 1008657, "internal_node_id": "0.0-129.0-4.0"}}, {"uniqueid": "MTK0467:3IOEN3P9S8QZ14S976JLJ1D6IU116S", "current_trial": 179, "dateTime": 1510935662339, "trialdata": {"rt": -1, "stimulus": "<p id=\"stim\">5</p>", "key_press": -1, "trial_type": "single-stim", "trial_index": 179, "time_elapsed": 1009659, "internal_node_id": "0.0-129.0-5.0"}}, {"uniqueid": "MTK0467:3IOEN3P9S8QZ14S976JLJ1D6IU116S", "current_trial": 180, "dateTime": 1510935663342, "trialdata": {"rt": -1, "stimulus": "<p id=\"stim\">4</p>", "key_press": -1, "trial_type": "single-stim", "trial_index": 180, "time_elapsed": 1010662, "internal_node_id": "0.0-129.0-6.0"}}, {"uniqueid": "MTK0467:3IOEN3P9S8QZ14S976JLJ1D6IU116S", "current_trial": 181, "dateTime": 1510935664344, "trialdata": {"rt": -1, "stimulus": "<p id=\"stim\">3</p>", "key_press": -1, "trial_type": "single-stim", "trial_index": 181, "time_elapsed": 1011664, "internal_node_id": "0.0-129.0-7.0"}}, {"uniqueid": "MTK0467:3IOEN3P9S8QZ14S976JLJ1D6IU116S", "current_trial": 182, "dateTime": 1510935665346, "trialdata": {"rt": -1, "stimulus": "<p id=\"stim\">2</p>", "key_press": -1, "trial_type": "single-stim", "trial_index": 182, "time_elapsed": 1012666, "internal_node_id": "0.0-129.0-8.0"}}, {"uniqueid": "MTK0467:3IOEN3P9S8QZ14S976JLJ1D6IU116S", "current_trial": 183, "dateTime": 1510935666349, "trialdata": {"rt": -1, "stimulus": "<p id=\"stim\">1</p>", "key_press": -1, "trial_type": "single-stim", "trial_index": 183, "time_elapsed": 1013669, "internal_node_id": "0.0-129.0-9.0"}}, {"uniqueid": "MTK0467:3IOEN3P9S8QZ14S976JLJ1D6IU116S", "current_trial": 184, "dateTime": 1510935667852, "trialdata": {"rt": -1, "stimulus": "<p id=\"stim\">+</p>", "key_press": -1, "type": "FIXATION", "trial_type": "single-stim", "trial_index": 184, "time_elapsed": 1015171, "internal_node_id": "0.0-130.0-0.0"}}, {"uniqueid": "MTK0467:3IOEN3P9S8QZ14S976JLJ1D6IU116S", "current_trial": 185, "dateTime": 1510935669831, "trialdata": {"rt": -1000, "stimulus": "/static/audio/wordpool/GARLIC.wav", "key_press": -1, "type": "PRES_AUD", "word": "garlic", "wordID": 623, "conditions": [24, 800, "a", 24000], "trial": 5, "serialpos": 0, "trial_type": "single-audio", "trial_index": 185, "time_elapsed": 1017151, "internal_node_id": "0.0-131.0"}}, {"uniqueid": "MTK0467:3IOEN3P9S8QZ14S976JLJ1D6IU116S", "current_trial": 186, "dateTime": 1510935671810, "trialdata": {"rt": -1000, "stimulus": "/static/audio/wordpool/CABBAGE.wav", "key_press": -1, "type": "PRES_AUD", "word": "cabbage", "wordID": 209, "conditions": [24, 800, "a", 24000], "trial": 5, "serialpos": 1, "trial_type": "single-audio", "trial_index": 186, "time_elapsed": 1019130, "internal_node_id": "0.0-132.0"}}, {"uniqueid": "MTK0467:3IOEN3P9S8QZ14S976JLJ1D6IU116S", "current_trial": 187, "dateTime": 1510935673494, "trialdata": {"rt": -1000, "stimulus": "/static/audio/wordpool/TEACHER.wav", "key_press": -1, "type": "PRES_AUD", "word": "teacher", "wordID": 1439, "conditions": [24, 800, "a", 24000], "trial": 5, "serialpos": 2, "trial_type": "single-audio", "trial_index": 187, "time_elapsed": 1020814, "internal_node_id": "0.0-133.0"}}, {"uniqueid": "MTK0467:3IOEN3P9S8QZ14S976JLJ1D6IU116S", "current_trial": 188, "dateTime": 1510935675467, "trialdata": {"rt": -1000, "stimulus": "/static/audio/wordpool/ITEM.wav", "key_press": -1, "type": "PRES_AUD", "word": "item", "wordID": 745, "conditions": [24, 800, "a", 24000], "trial": 5, "serialpos": 3, "trial_type": "single-audio", "trial_index": 188, "time_elapsed": 1022783, "internal_node_id": "0.0-134.0"}}, {"uniqueid": "MTK0467:3IOEN3P9S8QZ14S976JLJ1D6IU116S", "current_trial": 189, "dateTime": 1510935677187, "trialdata": {"rt": -1000, "stimulus": "/static/audio/wordpool/SALAD.wav", "key_press": -1, "type": "PRES_AUD", "word": "salad", "wordID": 1223, "conditions": [24, 800, "a", 24000], "trial": 5, "serialpos": 4, "trial_type": "single-audio", "trial_index": 189, "time_elapsed": 1024507, "internal_node_id": "0.0-135.0"}}, {"uniqueid": "MTK0467:3IOEN3P9S8QZ14S976JLJ1D6IU116S", "current_trial": 190, "dateTime": 1510935678862, "trialdata": {"rt": -1000, "stimulus": "/static/audio/wordpool/CHURCH.wav", "key_press": -1, "type": "PRES_AUD", "word": "church", "wordID": 306, "conditions": [24, 800, "a", 24000], "trial": 5, "serialpos": 5, "trial_type": "single-audio", "trial_index": 190, "time_elapsed": 1026182, "internal_node_id": "0.0-136.0"}}, {"uniqueid": "MTK0467:3IOEN3P9S8QZ14S976JLJ1D6IU116S", "current_trial": 191, "dateTime": 1510935680496, "trialdata": {"rt": -1000, "stimulus": "/static/audio/wordpool/CROSS.wav", "key_press": -1, "type": "PRES_AUD", "word": "cross", "wordID": 412, "conditions": [24, 800, "a", 24000], "trial": 5, "serialpos": 6, "trial_type": "single-audio", "trial_index": 191, "time_elapsed": 1027816, "internal_node_id": "0.0-137.0"}}, {"uniqueid": "MTK0467:3IOEN3P9S8QZ14S976JLJ1D6IU116S", "current_trial": 192, "dateTime": 1510935682422, "trialdata": {"rt": -1000, "stimulus": "/static/audio/wordpool/HATCHET.wav", "key_press": -1, "type": "PRES_AUD", "word": "hatchet", "wordID": 690, "conditions": [24, 800, "a", 24000], "trial": 5, "serialpos": 7, "trial_type": "single-audio", "trial_index": 192, "time_elapsed": 1029742, "internal_node_id": "0.0-138.0"}}, {"uniqueid": "MTK0467:3IOEN3P9S8QZ14S976JLJ1D6IU116S", "current_trial": 193, "dateTime": 1510935684235, "trialdata": {"rt": -1000, "stimulus": "/static/audio/wordpool/DENIM.wav", "key_press": -1, "type": "PRES_AUD", "word": "denim", "wordID": 445, "conditions": [24, 800, "a", 24000], "trial": 5, "serialpos": 8, "trial_type": "single-audio", "trial_index": 193, "time_elapsed": 1031555, "internal_node_id": "0.0-139.0"}}, {"uniqueid": "MTK0467:3IOEN3P9S8QZ14S976JLJ1D6IU116S", "current_trial": 194, "dateTime": 1510935686079, "trialdata": {"rt": -1000, "stimulus": "/static/audio/wordpool/STUDENT.wav", "key_press": -1, "type": "PRES_AUD", "word": "student", "wordID": 1394, "conditions": [24, 800, "a", 24000], "trial": 5, "serialpos": 9, "trial_type": "single-audio", "trial_index": 194, "time_elapsed": 1033399, "internal_node_id": "0.0-140.0"}}, {"uniqueid": "MTK0467:3IOEN3P9S8QZ14S976JLJ1D6IU116S", "current_trial": 195, "dateTime": 1510935687978, "trialdata": {"rt": -1000, "stimulus": "/static/audio/wordpool/CATTLE.wav", "key_press": -1, "type": "PRES_AUD", "word": "cattle", "wordID": 260, "conditions": [24, 800, "a", 24000], "trial": 5, "serialpos": 10, "trial_type": "single-audio", "trial_index": 195, "time_elapsed": 1035297, "internal_node_id": "0.0-141.0"}}, {"uniqueid": "MTK0467:3IOEN3P9S8QZ14S976JLJ1D6IU116S", "current_trial": 196, "dateTime": 1510935689702, "trialdata": {"rt": -1000, "stimulus": "/static/audio/wordpool/PEPPER.wav", "key_press": -1, "type": "PRES_AUD", "word": "pepper", "wordID": 1046, "conditions": [24, 800, "a", 24000], "trial": 5, "serialpos": 11, "trial_type": "single-audio", "trial_index": 196, "time_elapsed": 1037022, "internal_node_id": "0.0-142.0"}}, {"uniqueid": "MTK0467:3IOEN3P9S8QZ14S976JLJ1D6IU116S", "current_trial": 197, "dateTime": 1510935691604, "trialdata": {"rt": -1000, "stimulus": "/static/audio/wordpool/FOX.wav", "key_press": -1, "type": "PRES_AUD", "word": "fox", "wordID": 597, "conditions": [24, 800, "a", 24000], "trial": 5, "serialpos": 12, "trial_type": "single-audio", "trial_index": 197, "time_elapsed": 1038924, "internal_node_id": "0.0-143.0"}}, {"uniqueid": "MTK0467:3IOEN3P9S8QZ14S976JLJ1D6IU116S", "current_trial": 198, "dateTime": 1510935693320, "trialdata": {"rt": -1000, "stimulus": "/static/audio/wordpool/ACTOR.wav", "key_press": -1, "type": "PRES_AUD", "word": "actor", "wordID": 4, "conditions": [24, 800, "a", 24000], "trial": 5, "serialpos": 13, "trial_type": "single-audio", "trial_index": 198, "time_elapsed": 1040640, "internal_node_id": "0.0-144.0"}}, {"uniqueid": "MTK0467:3IOEN3P9S8QZ14S976JLJ1D6IU116S", "current_trial": 199, "dateTime": 1510935695251, "trialdata": {"rt": -1000, "stimulus": "/static/audio/wordpool/LEADER.wav", "key_press": -1, "type": "PRES_AUD", "word": "leader", "wordID": 806, "conditions": [24, 800, "a", 24000], "trial": 5, "serialpos": 14, "trial_type": "single-audio", "trial_index": 199, "time_elapsed": 1042571, "internal_node_id": "0.0-145.0"}}, {"uniqueid": "MTK0467:3IOEN3P9S8QZ14S976JLJ1D6IU116S", "current_trial": 200, "dateTime": 1510935697032, "trialdata": {"rt": -1000, "stimulus": "/static/audio/wordpool/BURGLAR.wav", "key_press": -1, "type": "PRES_AUD", "word": "burglar", "wordID": 199, "conditions": [24, 800, "a", 24000], "trial": 5, "serialpos": 15, "trial_type": "single-audio", "trial_index": 200, "time_elapsed": 1044352, "internal_node_id": "0.0-146.0"}}, {"uniqueid": "MTK0467:3IOEN3P9S8QZ14S976JLJ1D6IU116S", "current_trial": 201, "dateTime": 1510935698857, "trialdata": {"rt": -1000, "stimulus": "/static/audio/wordpool/ACTRESS.wav", "key_press": -1, "type": "PRES_AUD", "word": "actress", "wordID": 5, "conditions": [24, 800, "a", 24000], "trial": 5, "serialpos": 16, "trial_type": "single-audio", "trial_index": 201, "time_elapsed": 1046177, "internal_node_id": "0.0-147.0"}}, {"uniqueid": "MTK0467:3IOEN3P9S8QZ14S976JLJ1D6IU116S", "current_trial": 202, "dateTime": 1510935700550, "trialdata": {"rt": -1000, "stimulus": "/static/audio/wordpool/CUPBOARD.wav", "key_press": -1, "type": "PRES_AUD", "word": "cupboard", "wordID": 424, "conditions": [24, 800, "a", 24000], "trial": 5, "serialpos": 17, "trial_type": "single-audio", "trial_index": 202, "time_elapsed": 1047869, "internal_node_id": "0.0-148.0"}}, {"uniqueid": "MTK0467:3IOEN3P9S8QZ14S976JLJ1D6IU116S", "current_trial": 203, "dateTime": 1510935702495, "trialdata": {"rt": -1000, "stimulus": "/static/audio/wordpool/JELLY.wav", "key_press": -1, "type": "PRES_AUD", "word": "jelly", "wordID": 754, "conditions": [24, 800, "a", 24000], "trial": 5, "serialpos": 18, "trial_type": "single-audio", "trial_index": 203, "time_elapsed": 1049815, "internal_node_id": "0.0-149.0"}}, {"uniqueid": "MTK0467:3IOEN3P9S8QZ14S976JLJ1D6IU116S", "current_trial": 204, "dateTime": 1510935704172, "trialdata": {"rt": -1000, "stimulus": "/static/audio/wordpool/SLIME.wav", "key_press": -1, "type": "PRES_AUD", "word": "slime", "wordID": 1326, "conditions": [24, 800, "a", 24000], "trial": 5, "serialpos": 19, "trial_type": "single-audio", "trial_index": 204, "time_elapsed": 1051492, "internal_node_id": "0.0-150.0"}}, {"uniqueid": "MTK0467:3IOEN3P9S8QZ14S976JLJ1D6IU116S", "current_trial": 205, "dateTime": 1510935706152, "trialdata": {"rt": -1000, "stimulus": "/static/audio/wordpool/MUFFIN.wav", "key_press": -1, "type": "PRES_AUD", "word": "muffin", "wordID": 928, "conditions": [24, 800, "a", 24000], "trial": 5, "serialpos": 20, "trial_type": "single-audio", "trial_index": 205, "time_elapsed": 1053471, "internal_node_id": "0.0-151.0"}}, {"uniqueid": "MTK0467:3IOEN3P9S8QZ14S976JLJ1D6IU116S", "current_trial": 206, "dateTime": 1510935707915, "trialdata": {"rt": -1000, "stimulus": "/static/audio/wordpool/PASTRY.wav", "key_press": -1, "type": "PRES_AUD", "word": "pastry", "wordID": 1021, "conditions": [24, 800, "a", 24000], "trial": 5, "serialpos": 21, "trial_type": "single-audio", "trial_index": 206, "time_elapsed": 1055235, "internal_node_id": "0.0-152.0"}}, {"uniqueid": "MTK0467:3IOEN3P9S8QZ14S976JLJ1D6IU116S", "current_trial": 207, "dateTime": 1510935709792, "trialdata": {"rt": -1000, "stimulus": "/static/audio/wordpool/POSTAGE.wav", "key_press": -1, "type": "PRES_AUD", "word": "postage", "wordID": 1112, "conditions": [24, 800, "a", 24000], "trial": 5, "serialpos": 22, "trial_type": "single-audio", "trial_index": 207, "time_elapsed": 1057112, "internal_node_id": "0.0-153.0"}}, {"uniqueid": "MTK0467:3IOEN3P9S8QZ14S976JLJ1D6IU116S", "current_trial": 208, "dateTime": 1510935711637, "trialdata": {"rt": -1000, "stimulus": "/static/audio/wordpool/PRIMATE.wav", "key_press": -1, "type": "PRES_AUD", "word": "primate", "wordID": 1122, "conditions": [24, 800, "a", 24000], "trial": 5, "serialpos": 23, "trial_type": "single-audio", "trial_index": 208, "time_elapsed": 1058957, "internal_node_id": "0.0-154.0"}}, {"uniqueid": "MTK0467:3IOEN3P9S8QZ14S976JLJ1D6IU116S", "current_trial": 209, "dateTime": 1510935712998, "trialdata": {"rt": -1, "stimulus": "", "key_press": -1, "type": "PRE_RECALL_DELAY", "trial_type": "single-stim", "trial_index": 209, "time_elapsed": 1060318, "internal_node_id": "0.0-155.0-0.0"}}, {"uniqueid": "MTK0467:3IOEN3P9S8QZ14S976JLJ1D6IU116S", "current_trial": 210, "dateTime": 1510935713500, "trialdata": {"rt": -1000, "stimulus": "/static/audio/400Hz.wav", "key_press": -1, "type": "PRE_RECALL_ALERT", "trial_type": "single-audio", "trial_index": 210, "time_elapsed": 1060820, "internal_node_id": "0.0-156.0"}}, {"uniqueid": "MTK0467:3IOEN3P9S8QZ14S976JLJ1D6IU116S", "current_trial": 211, "dateTime": 1510935773513, "trialdata": {"rt": [3951, 6723, 8339, 10899, 13959, 15406, 22014, 23288, 28095, 32145], "recwords": ["garlic", "cabbage", "teacher", "student", "prime", "slime", "church", "cross", "cubbert", "jelly"], "type": "FREE_RECALL", "conditions": [24, 800, "a", 24000], "trial": 5, "trial_type": "free-recall", "trial_index": 211, "time_elapsed": 1120825, "internal_node_id": "0.0-157.0-0.0"}}, {"uniqueid": "MTK0467:3IOEN3P9S8QZ14S976JLJ1D6IU116S", "current_trial": 212, "dateTime": 1510935776813, "trialdata": {"rt": 1297, "key_press": 32, "type": "INSTRUCTIONS", "trial_type": "text", "trial_index": 212, "time_elapsed": 1124133, "internal_node_id": "0.0-158.0"}}, {"uniqueid": "MTK0467:3IOEN3P9S8QZ14S976JLJ1D6IU116S", "current_trial": 213, "dateTime": 1510935802818, "trialdata": {"rt": [2549, 7159, 10547, 12755, 14958, 17894, 21555], "responses": ["18", "1", "27", "9", "14", "166", "22"], "num1": [2, 2, 9, 2, 1, 9, 7, 5], "num2": [8, 6, 8, 2, 8, 6, 8, 9], "num3": [8, 5, 8, 5, 5, 1, 7, 3], "type": "DISTRACTOR", "conditions": [24, 800, "v", 24000], "trial": 6, "trial_type": "math-distractor", "trial_index": 213, "time_elapsed": 1150138, "internal_node_id": "0.0-159.0"}}, {"uniqueid": "MTK0467:3IOEN3P9S8QZ14S976JLJ1D6IU116S", "current_trial": 214, "dateTime": 1510935805822, "trialdata": {"rt": -1, "stimulus": "<p id=\"stim\">10</p>", "key_press": -1, "trial_type": "single-stim", "trial_index": 214, "time_elapsed": 1153142, "internal_node_id": "0.0-160.0-0.0"}}, {"uniqueid": "MTK0467:3IOEN3P9S8QZ14S976JLJ1D6IU116S", "current_trial": 215, "dateTime": 1510935806825, "trialdata": {"rt": -1, "stimulus": "<p id=\"stim\">9</p>", "key_press": -1, "trial_type": "single-stim", "trial_index": 215, "time_elapsed": 1154145, "internal_node_id": "0.0-160.0-1.0"}}, {"uniqueid": "MTK0467:3IOEN3P9S8QZ14S976JLJ1D6IU116S", "current_trial": 216, "dateTime": 1510935807827, "trialdata": {"rt": -1, "stimulus": "<p id=\"stim\">8</p>", "key_press": -1, "trial_type": "single-stim", "trial_index": 216, "time_elapsed": 1155146, "internal_node_id": "0.0-160.0-2.0"}}, {"uniqueid": "MTK0467:3IOEN3P9S8QZ14S976JLJ1D6IU116S", "current_trial": 217, "dateTime": 1510935808829, "trialdata": {"rt": -1, "stimulus": "<p id=\"stim\">7</p>", "key_press": -1, "trial_type": "single-stim", "trial_index": 217, "time_elapsed": 1156148, "internal_node_id": "0.0-160.0-3.0"}}, {"uniqueid": "MTK0467:3IOEN3P9S8QZ14S976JLJ1D6IU116S", "current_trial": 218, "dateTime": 1510935809830, "trialdata": {"rt": -1, "stimulus": "<p id=\"stim\">6</p>", "key_press": -1, "trial_type": "single-stim", "trial_index": 218, "time_elapsed": 1157149, "internal_node_id": "0.0-160.0-4.0"}}, {"uniqueid": "MTK0467:3IOEN3P9S8QZ14S976JLJ1D6IU116S", "current_trial": 219, "dateTime": 1510935810833, "trialdata": {"rt": -1, "stimulus": "<p id=\"stim\">5</p>", "key_press": -1, "trial_type": "single-stim", "trial_index": 219, "time_elapsed": 1158152, "internal_node_id": "0.0-160.0-5.0"}}, {"uniqueid": "MTK0467:3IOEN3P9S8QZ14S976JLJ1D6IU116S", "current_trial": 220, "dateTime": 1510935811836, "trialdata": {"rt": -1, "stimulus": "<p id=\"stim\">4</p>", "key_press": -1, "trial_type": "single-stim", "trial_index": 220, "time_elapsed": 1159155, "internal_node_id": "0.0-160.0-6.0"}}, {"uniqueid": "MTK0467:3IOEN3P9S8QZ14S976JLJ1D6IU116S", "current_trial": 221, "dateTime": 1510935812838, "trialdata": {"rt": -1, "stimulus": "<p id=\"stim\">3</p>", "key_press": -1, "trial_type": "single-stim", "trial_index": 221, "time_elapsed": 1160157, "internal_node_id": "0.0-160.0-7.0"}}, {"uniqueid": "MTK0467:3IOEN3P9S8QZ14S976JLJ1D6IU116S", "current_trial": 222, "dateTime": 1510935813840, "trialdata": {"rt": -1, "stimulus": "<p id=\"stim\">2</p>", "key_press": -1, "trial_type": "single-stim", "trial_index": 222, "time_elapsed": 1161159, "internal_node_id": "0.0-160.0-8.0"}}, {"uniqueid": "MTK0467:3IOEN3P9S8QZ14S976JLJ1D6IU116S", "current_trial": 223, "dateTime": 1510935814843, "trialdata": {"rt": -1, "stimulus": "<p id=\"stim\">1</p>", "key_press": -1, "trial_type": "single-stim", "trial_index": 223, "time_elapsed": 1162162, "internal_node_id": "0.0-160.0-9.0"}}, {"uniqueid": "MTK0467:3IOEN3P9S8QZ14S976JLJ1D6IU116S", "current_trial": 224, "dateTime": 1510935816346, "trialdata": {"rt": -1, "stimulus": "<p id=\"stim\">+</p>", "key_press": -1, "type": "FIXATION", "trial_type": "single-stim", "trial_index": 224, "time_elapsed": 1163666, "internal_node_id": "0.0-161.0-0.0"}}, {"uniqueid": "MTK0467:3IOEN3P9S8QZ14S976JLJ1D6IU116S", "current_trial": 225, "dateTime": 1510935817149, "trialdata": {"rt": -1, "stimulus": "<p id=\"stim\">SUPPER</p>", "key_press": -1, "type": "PRES_VIS", "word": "supper", "wordID": 1410, "conditions": [24, 800, "v", 24000], "trial": 6, "serialpos": 0, "trial_type": "single-stim", "trial_index": 225, "time_elapsed": 1164469, "internal_node_id": "0.0-162.0"}}, {"uniqueid": "MTK0467:3IOEN3P9S8QZ14S976JLJ1D6IU116S", "current_trial": 226, "dateTime": 1510935818937, "trialdata": {"rt": -1, "stimulus": "<p id=\"stim\">PICNIC</p>", "key_press": -1, "type": "PRES_VIS", "word": "picnic", "wordID": 1059, "conditions": [24, 800, "v", 24000], "trial": 6, "serialpos": 1, "trial_type": "single-stim", "trial_index": 226, "time_elapsed": 1166256, "internal_node_id": "0.0-163.0"}}, {"uniqueid": "MTK0467:3IOEN3P9S8QZ14S976JLJ1D6IU116S", "current_trial": 227, "dateTime": 1510935820673, "trialdata": {"rt": -1, "stimulus": "<p id=\"stim\">JURY</p>", "key_press": -1, "type": "PRES_VIS", "word": "jury", "wordID": 765, "conditions": [24, 800, "v", 24000], "trial": 6, "serialpos": 2, "trial_type": "single-stim", "trial_index": 227, "time_elapsed": 1167993, "internal_node_id": "0.0-164.0"}}, {"uniqueid": "MTK0467:3IOEN3P9S8QZ14S976JLJ1D6IU116S", "current_trial": 228, "dateTime": 1510935822550, "trialdata": {"rt": -1, "stimulus": "<p id=\"stim\">DRIVER</p>", "key_press": -1, "type": "PRES_VIS", "word": "driver", "wordID": 498, "conditions": [24, 800, "v", 24000], "trial": 6, "serialpos": 3, "trial_type": "single-stim", "trial_index": 228, "time_elapsed": 1169870, "internal_node_id": "0.0-165.0"}}, {"uniqueid": "MTK0467:3IOEN3P9S8QZ14S976JLJ1D6IU116S", "current_trial": 229, "dateTime": 1510935824374, "trialdata": {"rt": -1, "stimulus": "<p id=\"stim\">POCKET</p>", "key_press": -1, "type": "PRES_VIS", "word": "pocket", "wordID": 1092, "conditions": [24, 800, "v", 24000], "trial": 6, "serialpos": 4, "trial_type": "single-stim", "trial_index": 229, "time_elapsed": 1171693, "internal_node_id": "0.0-166.0"}}, {"uniqueid": "MTK0467:3IOEN3P9S8QZ14S976JLJ1D6IU116S", "current_trial": 230, "dateTime": 1510935826012, "trialdata": {"rt": -1, "stimulus": "<p id=\"stim\">STOVE</p>", "key_press": -1, "type": "PRES_VIS", "word": "stove", "wordID": 1387, "conditions": [24, 800, "v", 24000], "trial": 6, "serialpos": 5, "trial_type": "single-stim", "trial_index": 230, "time_elapsed": 1173332, "internal_node_id": "0.0-167.0"}}, {"uniqueid": "MTK0467:3IOEN3P9S8QZ14S976JLJ1D6IU116S", "current_trial": 231, "dateTime": 1510935827868, "trialdata": {"rt": -1, "stimulus": "<p id=\"stim\">ATLAS</p>", "key_press": -1, "type": "PRES_VIS", "word": "atlas", "wordID": 52, "conditions": [24, 800, "v", 24000], "trial": 6, "serialpos": 6, "trial_type": "single-stim", "trial_index": 231, "time_elapsed": 1175187, "internal_node_id": "0.0-168.0"}}, {"uniqueid": "MTK0467:3IOEN3P9S8QZ14S976JLJ1D6IU116S", "current_trial": 232, "dateTime": 1510935829544, "trialdata": {"rt": -1, "stimulus": "<p id=\"stim\">CHAPEL</p>", "key_press": -1, "type": "PRES_VIS", "word": "chapel", "wordID": 279, "conditions": [24, 800, "v", 24000], "trial": 6, "serialpos": 7, "trial_type": "single-stim", "trial_index": 232, "time_elapsed": 1176864, "internal_node_id": "0.0-169.0"}}, {"uniqueid": "MTK0467:3IOEN3P9S8QZ14S976JLJ1D6IU116S", "current_trial": 233, "dateTime": 1510935831457, "trialdata": {"rt": -1, "stimulus": "<p id=\"stim\">COOK</p>", "key_press": -1, "type": "PRES_VIS", "word": "cook", "wordID": 371, "conditions": [24, 800, "v", 24000], "trial": 6, "serialpos": 8, "trial_type": "single-stim", "trial_index": 233, "time_elapsed": 1178777, "internal_node_id": "0.0-170.0"}}, {"uniqueid": "MTK0467:3IOEN3P9S8QZ14S976JLJ1D6IU116S", "current_trial": 234, "dateTime": 1510935833107, "trialdata": {"rt": -1, "stimulus": "<p id=\"stim\">EGYPT</p>", "key_press": -1, "type": "PRES_VIS", "word": "egypt", "wordID": 518, "conditions": [24, 800, "v", 24000], "trial": 6, "serialpos": 9, "trial_type": "single-stim", "trial_index": 234, "time_elapsed": 1180427, "internal_node_id": "0.0-171.0"}}, {"uniqueid": "MTK0467:3IOEN3P9S8QZ14S976JLJ1D6IU116S", "current_trial": 235, "dateTime": 1510935834900, "trialdata": {"rt": -1, "stimulus": "<p id=\"stim\">VALLEY</p>", "key_press": -1, "type": "PRES_VIS", "word": "valley", "wordID": 1544, "conditions": [24, 800, "v", 24000], "trial": 6, "serialpos": 10, "trial_type": "single-stim", "trial_index": 235, "time_elapsed": 1182219, "internal_node_id": "0.0-172.0"}}, {"uniqueid": "MTK0467:3IOEN3P9S8QZ14S976JLJ1D6IU116S", "current_trial": 236, "dateTime": 1510935836816, "trialdata": {"rt": -1, "stimulus": "<p id=\"stim\">REPORT</p>", "key_press": -1, "type": "PRES_VIS", "word": "report", "wordID": 1183, "conditions": [24, 800, "v", 24000], "trial": 6, "serialpos": 11, "trial_type": "single-stim", "trial_index": 236, "time_elapsed": 1184135, "internal_node_id": "0.0-173.0"}}, {"uniqueid": "MTK0467:3IOEN3P9S8QZ14S976JLJ1D6IU116S", "current_trial": 237, "dateTime": 1510935838674, "trialdata": {"rt": -1, "stimulus": "<p id=\"stim\">TURNIP</p>", "key_press": -1, "type": "PRES_VIS", "word": "turnip", "wordID": 1520, "conditions": [24, 800, "v", 24000], "trial": 6, "serialpos": 12, "trial_type": "single-stim", "trial_index": 237, "time_elapsed": 1185994, "internal_node_id": "0.0-174.0"}}, {"uniqueid": "MTK0467:3IOEN3P9S8QZ14S976JLJ1D6IU116S", "current_trial": 238, "dateTime": 1510935840658, "trialdata": {"rt": -1, "stimulus": "<p id=\"stim\">BANK</p>", "key_press": -1, "type": "PRES_VIS", "word": "bank", "wordID": 82, "conditions": [24, 800, "v", 24000], "trial": 6, "serialpos": 13, "trial_type": "single-stim", "trial_index": 238, "time_elapsed": 1187977, "internal_node_id": "0.0-175.0"}}, {"uniqueid": "MTK0467:3IOEN3P9S8QZ14S976JLJ1D6IU116S", "current_trial": 239, "dateTime": 1510935842519, "trialdata": {"rt": -1, "stimulus": "<p id=\"stim\">TILE</p>", "key_press": -1, "type": "PRES_VIS", "word": "tile", "wordID": 1467, "conditions": [24, 800, "v", 24000], "trial": 6, "serialpos": 14, "trial_type": "single-stim", "trial_index": 239, "time_elapsed": 1189839, "internal_node_id": "0.0-176.0"}}, {"uniqueid": "MTK0467:3IOEN3P9S8QZ14S976JLJ1D6IU116S", "current_trial": 240, "dateTime": 1510935844360, "trialdata": {"rt": -1, "stimulus": "<p id=\"stim\">HUSBAND</p>", "key_press": -1, "type": "PRES_VIS", "word": "husband", "wordID": 727, "conditions": [24, 800, "v", 24000], "trial": 6, "serialpos": 15, "trial_type": "single-stim", "trial_index": 240, "time_elapsed": 1191680, "internal_node_id": "0.0-177.0"}}, {"uniqueid": "MTK0467:3IOEN3P9S8QZ14S976JLJ1D6IU116S", "current_trial": 241, "dateTime": 1510935846010, "trialdata": {"rt": -1, "stimulus": "<p id=\"stim\">DAUGHTER</p>", "key_press": -1, "type": "PRES_VIS", "word": "daughter", "wordID": 441, "conditions": [24, 800, "v", 24000], "trial": 6, "serialpos": 16, "trial_type": "single-stim", "trial_index": 241, "time_elapsed": 1193329, "internal_node_id": "0.0-178.0"}}, {"uniqueid": "MTK0467:3IOEN3P9S8QZ14S976JLJ1D6IU116S", "current_trial": 242, "dateTime": 1510935848010, "trialdata": {"rt": -1, "stimulus": "<p id=\"stim\">FOREHEAD</p>", "key_press": -1, "type": "PRES_VIS", "word": "forehead", "wordID": 591, "conditions": [24, 800, "v", 24000], "trial": 6, "serialpos": 17, "trial_type": "single-stim", "trial_index": 242, "time_elapsed": 1195329, "internal_node_id": "0.0-179.0"}}, {"uniqueid": "MTK0467:3IOEN3P9S8QZ14S976JLJ1D6IU116S", "current_trial": 243, "dateTime": 1510935849868, "trialdata": {"rt": -1, "stimulus": "<p id=\"stim\">BRICK</p>", "key_press": -1, "type": "PRES_VIS", "word": "brick", "wordID": 171, "conditions": [24, 800, "v", 24000], "trial": 6, "serialpos": 18, "trial_type": "single-stim", "trial_index": 243, "time_elapsed": 1197188, "internal_node_id": "0.0-180.0"}}, {"uniqueid": "MTK0467:3IOEN3P9S8QZ14S976JLJ1D6IU116S", "current_trial": 244, "dateTime": 1510935851683, "trialdata": {"rt": -1, "stimulus": "<p id=\"stim\">GIFT</p>", "key_press": -1, "type": "PRES_VIS", "word": "gift", "wordID": 634, "conditions": [24, 800, "v", 24000], "trial": 6, "serialpos": 19, "trial_type": "single-stim", "trial_index": 244, "time_elapsed": 1199003, "internal_node_id": "0.0-181.0"}}, {"uniqueid": "MTK0467:3IOEN3P9S8QZ14S976JLJ1D6IU116S", "current_trial": 245, "dateTime": 1510935853601, "trialdata": {"rt": -1, "stimulus": "<p id=\"stim\">ARM</p>", "key_press": -1, "type": "PRES_VIS", "word": "arm", "wordID": 37, "conditions": [24, 800, "v", 24000], "trial": 6, "serialpos": 20, "trial_type": "single-stim", "trial_index": 245, "time_elapsed": 1200921, "internal_node_id": "0.0-182.0"}}, {"uniqueid": "MTK0467:3IOEN3P9S8QZ14S976JLJ1D6IU116S", "current_trial": 246, "dateTime": 1510935855379, "trialdata": {"rt": -1, "stimulus": "<p id=\"stim\">MUSTARD</p>", "key_press": -1, "type": "PRES_VIS", "word": "mustard", "wordID": 934, "conditions": [24, 800, "v", 24000], "trial": 6, "serialpos": 21, "trial_type": "single-stim", "trial_index": 246, "time_elapsed": 1202699, "internal_node_id": "0.0-183.0"}}, {"uniqueid": "MTK0467:3IOEN3P9S8QZ14S976JLJ1D6IU116S", "current_trial": 247, "dateTime": 1510935857169, "trialdata": {"rt": -1, "stimulus": "<p id=\"stim\">WORKER</p>", "key_press": -1, "type": "PRES_VIS", "word": "worker", "wordID": 1620, "conditions": [24, 800, "v", 24000], "trial": 6, "serialpos": 22, "trial_type": "single-stim", "trial_index": 247, "time_elapsed": 1204489, "internal_node_id": "0.0-184.0"}}, {"uniqueid": "MTK0467:3IOEN3P9S8QZ14S976JLJ1D6IU116S", "current_trial": 248, "dateTime": 1510935858974, "trialdata": {"rt": -1, "stimulus": "<p id=\"stim\">SERVANT</p>", "key_press": -1, "type": "PRES_VIS", "word": "servant", "wordID": 1270, "conditions": [24, 800, "v", 24000], "trial": 6, "serialpos": 23, "trial_type": "single-stim", "trial_index": 248, "time_elapsed": 1206293, "internal_node_id": "0.0-185.0"}}, {"uniqueid": "MTK0467:3IOEN3P9S8QZ14S976JLJ1D6IU116S", "current_trial": 249, "dateTime": 1510935861237, "trialdata": {"rt": -1, "stimulus": "", "key_press": -1, "type": "PRE_RECALL_DELAY", "trial_type": "single-stim", "trial_index": 249, "time_elapsed": 1208557, "internal_node_id": "0.0-186.0-0.0"}}, {"uniqueid": "MTK0467:3IOEN3P9S8QZ14S976JLJ1D6IU116S", "current_trial": 250, "dateTime": 1510935861739, "trialdata": {"rt": -1000, "stimulus": "/static/audio/400Hz.wav", "key_press": -1, "type": "PRE_RECALL_ALERT", "trial_type": "single-audio", "trial_index": 250, "time_elapsed": 1209059, "internal_node_id": "0.0-187.0"}}, {"uniqueid": "MTK0467:3IOEN3P9S8QZ14S976JLJ1D6IU116S", "current_trial": 251, "dateTime": 1510935921751, "trialdata": {"rt": [6178, 16417, 17367, 27657, 30824, 36225, 39980, 53037, 55084], "recwords": ["supper", "mustard", "arm", "picnic", "pocket", "oven", "thrive", "husband", "daughter"], "type": "FREE_RECALL", "conditions": [24, 800, "v", 24000], "trial": 6, "trial_type": "free-recall", "trial_index": 251, "time_elapsed": 1269063, "internal_node_id": "0.0-188.0-0.0"}}, {"uniqueid": "MTK0467:3IOEN3P9S8QZ14S976JLJ1D6IU116S", "current_trial": 252, "dateTime": 1510935926061, "trialdata": {"rt": 2309, "key_press": 32, "type": "INSTRUCTIONS", "trial_type": "text", "trial_index": 252, "time_elapsed": 1273381, "internal_node_id": "0.0-189.0"}}, {"uniqueid": "MTK0467:3IOEN3P9S8QZ14S976JLJ1D6IU116S", "current_trial": 253, "dateTime": 1510935940069, "trialdata": {"rt": [3558, 6053, 8493, 11659], "responses": ["15", "12", "17", "19"], "num1": [2, 8, 5, 5, 2], "num2": [6, 3, 3, 7, 4], "num3": [7, 1, 9, 6, 7], "type": "DISTRACTOR", "conditions": [24, 800, "v", 12000], "trial": 7, "trial_type": "math-distractor", "trial_index": 253, "time_elapsed": 1287389, "internal_node_id": "0.0-190.0"}}, {"uniqueid": "MTK0467:3IOEN3P9S8QZ14S976JLJ1D6IU116S", "current_trial": 254, "dateTime": 1510935943074, "trialdata": {"rt": -1, "stimulus": "<p id=\"stim\">10</p>", "key_press": -1, "trial_type": "single-stim", "trial_index": 254, "time_elapsed": 1290394, "internal_node_id": "0.0-191.0-0.0"}}, {"uniqueid": "MTK0467:3IOEN3P9S8QZ14S976JLJ1D6IU116S", "current_trial": 255, "dateTime": 1510935944076, "trialdata": {"rt": -1, "stimulus": "<p id=\"stim\">9</p>", "key_press": -1, "trial_type": "single-stim", "trial_index": 255, "time_elapsed": 1291396, "internal_node_id": "0.0-191.0-1.0"}}, {"uniqueid": "MTK0467:3IOEN3P9S8QZ14S976JLJ1D6IU116S", "current_trial": 256, "dateTime": 1510935945080, "trialdata": {"rt": -1, "stimulus": "<p id=\"stim\">8</p>", "key_press": -1, "trial_type": "single-stim", "trial_index": 256, "time_elapsed": 1292399, "internal_node_id": "0.0-191.0-2.0"}}, {"uniqueid": "MTK0467:3IOEN3P9S8QZ14S976JLJ1D6IU116S", "current_trial": 257, "dateTime": 1510935946082, "trialdata": {"rt": -1, "stimulus": "<p id=\"stim\">7</p>", "key_press": -1, "trial_type": "single-stim", "trial_index": 257, "time_elapsed": 1293402, "internal_node_id": "0.0-191.0-3.0"}}, {"uniqueid": "MTK0467:3IOEN3P9S8QZ14S976JLJ1D6IU116S", "current_trial": 258, "dateTime": 1510935947085, "trialdata": {"rt": -1, "stimulus": "<p id=\"stim\">6</p>", "key_press": -1, "trial_type": "single-stim", "trial_index": 258, "time_elapsed": 1294404, "internal_node_id": "0.0-191.0-4.0"}}, {"uniqueid": "MTK0467:3IOEN3P9S8QZ14S976JLJ1D6IU116S", "current_trial": 259, "dateTime": 1510935948086, "trialdata": {"rt": -1, "stimulus": "<p id=\"stim\">5</p>", "key_press": -1, "trial_type": "single-stim", "trial_index": 259, "time_elapsed": 1295406, "internal_node_id": "0.0-191.0-5.0"}}, {"uniqueid": "MTK0467:3IOEN3P9S8QZ14S976JLJ1D6IU116S", "current_trial": 260, "dateTime": 1510935949088, "trialdata": {"rt": -1, "stimulus": "<p id=\"stim\">4</p>", "key_press": -1, "trial_type": "single-stim", "trial_index": 260, "time_elapsed": 1296408, "internal_node_id": "0.0-191.0-6.0"}}, {"uniqueid": "MTK0467:3IOEN3P9S8QZ14S976JLJ1D6IU116S", "current_trial": 261, "dateTime": 1510935950092, "trialdata": {"rt": -1, "stimulus": "<p id=\"stim\">3</p>", "key_press": -1, "trial_type": "single-stim", "trial_index": 261, "time_elapsed": 1297412, "internal_node_id": "0.0-191.0-7.0"}}, {"uniqueid": "MTK0467:3IOEN3P9S8QZ14S976JLJ1D6IU116S", "current_trial": 262, "dateTime": 1510935951095, "trialdata": {"rt": -1, "stimulus": "<p id=\"stim\">2</p>", "key_press": -1, "trial_type": "single-stim", "trial_index": 262, "time_elapsed": 1298414, "internal_node_id": "0.0-191.0-8.0"}}, {"uniqueid": "MTK0467:3IOEN3P9S8QZ14S976JLJ1D6IU116S", "current_trial": 263, "dateTime": 1510935952096, "trialdata": {"rt": -1, "stimulus": "<p id=\"stim\">1</p>", "key_press": -1, "trial_type": "single-stim", "trial_index": 263, "time_elapsed": 1299416, "internal_node_id": "0.0-191.0-9.0"}}, {"uniqueid": "MTK0467:3IOEN3P9S8QZ14S976JLJ1D6IU116S", "current_trial": 264, "dateTime": 1510935953600, "trialdata": {"rt": -1, "stimulus": "<p id=\"stim\">+</p>", "key_press": -1, "type": "FIXATION", "trial_type": "single-stim", "trial_index": 264, "time_elapsed": 1300920, "internal_node_id": "0.0-192.0-0.0"}}, {"uniqueid": "MTK0467:3IOEN3P9S8QZ14S976JLJ1D6IU116S", "current_trial": 265, "dateTime": 1510935954402, "trialdata": {"rt": -1, "stimulus": "<p id=\"stim\">WRIST</p>", "key_press": -1, "type": "PRES_VIS", "word": "wrist", "wordID": 1625, "conditions": [24, 800, "v", 12000], "trial": 7, "serialpos": 0, "trial_type": "single-stim", "trial_index": 265, "time_elapsed": 1301722, "internal_node_id": "0.0-193.0"}}, {"uniqueid": "MTK0467:3IOEN3P9S8QZ14S976JLJ1D6IU116S", "current_trial": 266, "dateTime": 1510935956211, "trialdata": {"rt": -1, "stimulus": "<p id=\"stim\">GLOBE</p>", "key_press": -1, "type": "PRES_VIS", "word": "globe", "wordID": 640, "conditions": [24, 800, "v", 12000], "trial": 7, "serialpos": 1, "trial_type": "single-stim", "trial_index": 266, "time_elapsed": 1303531, "internal_node_id": "0.0-194.0"}}, {"uniqueid": "MTK0467:3IOEN3P9S8QZ14S976JLJ1D6IU116S", "current_trial": 267, "dateTime": 1510935957925, "trialdata": {"rt": -1, "stimulus": "<p id=\"stim\">ARMY</p>", "key_press": -1, "type": "PRES_VIS", "word": "army", "wordID": 38, "conditions": [24, 800, "v", 12000], "trial": 7, "serialpos": 2, "trial_type": "single-stim", "trial_index": 267, "time_elapsed": 1305244, "internal_node_id": "0.0-195.0"}}, {"uniqueid": "MTK0467:3IOEN3P9S8QZ14S976JLJ1D6IU116S", "current_trial": 268, "dateTime": 1510935959622, "trialdata": {"rt": -1, "stimulus": "<p id=\"stim\">PIMPLE</p>", "key_press": -1, "type": "PRES_VIS", "word": "pimple", "wordID": 1070, "conditions": [24, 800, "v", 12000], "trial": 7, "serialpos": 3, "trial_type": "single-stim", "trial_index": 268, "time_elapsed": 1306942, "internal_node_id": "0.0-196.0"}}, {"uniqueid": "MTK0467:3IOEN3P9S8QZ14S976JLJ1D6IU116S", "current_trial": 269, "dateTime": 1510935961374, "trialdata": {"rt": -1, "stimulus": "<p id=\"stim\">FRECKLE</p>", "key_press": -1, "type": "PRES_VIS", "word": "freckle", "wordID": 601, "conditions": [24, 800, "v", 12000], "trial": 7, "serialpos": 4, "trial_type": "single-stim", "trial_index": 269, "time_elapsed": 1308693, "internal_node_id": "0.0-197.0"}}, {"uniqueid": "MTK0467:3IOEN3P9S8QZ14S976JLJ1D6IU116S", "current_trial": 270, "dateTime": 1510935963097, "trialdata": {"rt": -1, "stimulus": "<p id=\"stim\">KLEENEX</p>", "key_press": -1, "type": "PRES_VIS", "word": "kleenex", "wordID": 781, "conditions": [24, 800, "v", 12000], "trial": 7, "serialpos": 5, "trial_type": "single-stim", "trial_index": 270, "time_elapsed": 1310417, "internal_node_id": "0.0-198.0"}}, {"uniqueid": "MTK0467:3IOEN3P9S8QZ14S976JLJ1D6IU116S", "current_trial": 271, "dateTime": 1510935964885, "trialdata": {"rt": -1, "stimulus": "<p id=\"stim\">HEADBAND</p>", "key_press": -1, "type": "PRES_VIS", "word": "headband", "wordID": 695, "conditions": [24, 800, "v", 12000], "trial": 7, "serialpos": 6, "trial_type": "single-stim", "trial_index": 271, "time_elapsed": 1312204, "internal_node_id": "0.0-199.0"}}, {"uniqueid": "MTK0467:3IOEN3P9S8QZ14S976JLJ1D6IU116S", "current_trial": 272, "dateTime": 1510935966743, "trialdata": {"rt": -1, "stimulus": "<p id=\"stim\">LIPSTICK</p>", "key_press": -1, "type": "PRES_VIS", "word": "lipstick", "wordID": 828, "conditions": [24, 800, "v", 12000], "trial": 7, "serialpos": 7, "trial_