{"condition": 0, "counterbalance": 823, "assignmentId": "3Z9WI9EOZ0VH4UYCBZG7L7YVYNEKHS", "workerId": "MTK0188", "hitId": "3P4C70TRMROC1KNPMR5OQN3PVY0LGP", "currenttrial": 625, "bonus": 0, "data": [{"uniqueid": "MTK0188:3Z9WI9EOZ0VH4UYCBZG7L7YVYNEKHS", "current_trial": 0, "dateTime": 1509477936514, "trialdata": {"rt": 2754, "key_press": 32, "type": "INSTRUCTIONS", "trial_type": "text", "trial_index": 0, "time_elapsed": 2755, "internal_node_id": "0.0-0.0"}}, {"uniqueid": "MTK0188:3Z9WI9EOZ0VH4UYCBZG7L7YVYNEKHS", "current_trial": 1, "dateTime": 1509477951313, "trialdata": {"rt": 14798, "key_press": 32, "type": "INSTRUCTIONS", "trial_type": "text", "trial_index": 1, "time_elapsed": 17554, "internal_node_id": "0.0-1.0"}}, {"uniqueid": "MTK0188:3Z9WI9EOZ0VH4UYCBZG7L7YVYNEKHS", "current_trial": 2, "dateTime": 1509477969026, "trialdata": {"rt": [17707], "responses": ["ocean"], "type": "AUDIO_TEST", "trial_type": "audio-test", "trial_index": 2, "time_elapsed": 35267, "internal_node_id": "0.0-2.0"}}, {"uniqueid": "MTK0188:3Z9WI9EOZ0VH4UYCBZG7L7YVYNEKHS", "current_trial": 3, "dateTime": 1509477976210, "trialdata": {"rt": [7180], "responses": ["crystal"], "type": "AUDIO_TEST", "trial_type": "audio-test", "trial_index": 3, "time_elapsed": 42451, "internal_node_id": "0.0-3.0"}}, {"uniqueid": "MTK0188:3Z9WI9EOZ0VH4UYCBZG7L7YVYNEKHS", "current_trial": 4, "dateTime": 1509477990441, "trialdata": {"rt": [14229], "responses": ["spice"], "type": "AUDIO_TEST", "trial_type": "audio-test", "trial_index": 4, "time_elapsed": 56682, "internal_node_id": "0.0-4.0"}}, {"uniqueid": "MTK0188:3Z9WI9EOZ0VH4UYCBZG7L7YVYNEKHS", "current_trial": 5, "dateTime": 1509477995529, "trialdata": {"rt": 4336, "key_press": 13, "type": "INSTRUCTIONS", "trial_type": "text", "trial_index": 5, "time_elapsed": 61770, "internal_node_id": "0.0-5.0"}}, {"uniqueid": "MTK0188:3Z9WI9EOZ0VH4UYCBZG7L7YVYNEKHS", "current_trial": 6, "dateTime": 1509478025442, "trialdata": {"rt": 29913, "key_press": 13, "type": "INSTRUCTIONS", "trial_type": "text", "trial_index": 6, "time_elapsed": 91683, "internal_node_id": "0.0-6.0"}}, {"uniqueid": "MTK0188:3Z9WI9EOZ0VH4UYCBZG7L7YVYNEKHS", "current_trial": 7, "dateTime": 1509478046834, "trialdata": {"rt": 21391, "key_press": 13, "type": "INSTRUCTIONS", "trial_type": "text", "trial_index": 7, "time_elapsed": 113075, "internal_node_id": "0.0-7.0"}}, {"uniqueid": "MTK0188:3Z9WI9EOZ0VH4UYCBZG7L7YVYNEKHS", "current_trial": 8, "dateTime": 1509478066778, "trialdata": {"rt": 19943, "key_press": 13, "type": "INSTRUCTIONS", "trial_type": "text", "trial_index": 8, "time_elapsed": 133019, "internal_node_id": "0.0-8.0"}}, {"uniqueid": "MTK0188:3Z9WI9EOZ0VH4UYCBZG7L7YVYNEKHS", "current_trial": 9, "dateTime": 1509478085783, "trialdata": {"rt": [2828, 5868, 10292, 13133, 15813], "responses": ["7", "9", "21", "10", "17"], "num1": [5, 3, 8, 7, 8, 7], "num2": [1, 1, 4, 1, 8, 7], "num3": [1, 5, 9, 2, 1, 8], "type": "DISTRACTOR", "conditions": [18, 1200, "a", 18000], "trial": 0, "trial_type": "math-distractor", "trial_index": 9, "time_elapsed": 152024, "internal_node_id": "0.0-9.0"}}, {"uniqueid": "MTK0188:3Z9WI9EOZ0VH4UYCBZG7L7YVYNEKHS", "current_trial": 10, "dateTime": 1509478088786, "trialdata": {"rt": -1, "stimulus": "<p id=\"stim\">10</p>", "key_press": -1, "trial_type": "single-stim", "trial_index": 10, "time_elapsed": 155027, "internal_node_id": "0.0-10.0-0.0"}}, {"uniqueid": "MTK0188:3Z9WI9EOZ0VH4UYCBZG7L7YVYNEKHS", "current_trial": 11, "dateTime": 1509478089787, "trialdata": {"rt": -1, "stimulus": "<p id=\"stim\">9</p>", "key_press": -1, "trial_type": "single-stim", "trial_index": 11, "time_elapsed": 156028, "internal_node_id": "0.0-10.0-1.0"}}, {"uniqueid": "MTK0188:3Z9WI9EOZ0VH4UYCBZG7L7YVYNEKHS", "current_trial": 12, "dateTime": 1509478090788, "trialdata": {"rt": -1, "stimulus": "<p id=\"stim\">8</p>", "key_press": -1, "trial_type": "single-stim", "trial_index": 12, "time_elapsed": 157029, "internal_node_id": "0.0-10.0-2.0"}}, {"uniqueid": "MTK0188:3Z9WI9EOZ0VH4UYCBZG7L7YVYNEKHS", "current_trial": 13, "dateTime": 1509478091789, "trialdata": {"rt": -1, "stimulus": "<p id=\"stim\">7</p>", "key_press": -1, "trial_type": "single-stim", "trial_index": 13, "time_elapsed": 158030, "internal_node_id": "0.0-10.0-3.0"}}, {"uniqueid": "MTK0188:3Z9WI9EOZ0VH4UYCBZG7L7YVYNEKHS", "current_trial": 14, "dateTime": 1509478092791, "trialdata": {"rt": -1, "stimulus": "<p id=\"stim\">6</p>", "key_press": -1, "trial_type": "single-stim", "trial_index": 14, "time_elapsed": 159032, "internal_node_id": "0.0-10.0-4.0"}}, {"uniqueid": "MTK0188:3Z9WI9EOZ0VH4UYCBZG7L7YVYNEKHS", "current_trial": 15, "dateTime": 1509478093792, "trialdata": {"rt": -1, "stimulus": "<p id=\"stim\">5</p>", "key_press": -1, "trial_type": "single-stim", "trial_index": 15, "time_elapsed": 160033, "internal_node_id": "0.0-10.0-5.0"}}, {"uniqueid": "MTK0188:3Z9WI9EOZ0VH4UYCBZG7L7YVYNEKHS", "current_trial": 16, "dateTime": 1509478094793, "trialdata": {"rt": -1, "stimulus": "<p id=\"stim\">4</p>", "key_press": -1, "trial_type": "single-stim", "trial_index": 16, "time_elapsed": 161034, "internal_node_id": "0.0-10.0-6.0"}}, {"uniqueid": "MTK0188:3Z9WI9EOZ0VH4UYCBZG7L7YVYNEKHS", "current_trial": 17, "dateTime": 1509478095795, "trialdata": {"rt": -1, "stimulus": "<p id=\"stim\">3</p>", "key_press": -1, "trial_type": "single-stim", "trial_index": 17, "time_elapsed": 162035, "internal_node_id": "0.0-10.0-7.0"}}, {"uniqueid": "MTK0188:3Z9WI9EOZ0VH4UYCBZG7L7YVYNEKHS", "current_trial": 18, "dateTime": 1509478096795, "trialdata": {"rt": -1, "stimulus": "<p id=\"stim\">2</p>", "key_press": -1, "trial_type": "single-stim", "trial_index": 18, "time_elapsed": 163036, "internal_node_id": "0.0-10.0-8.0"}}, {"uniqueid": "MTK0188:3Z9WI9EOZ0VH4UYCBZG7L7YVYNEKHS", "current_trial": 19, "dateTime": 1509478097796, "trialdata": {"rt": -1, "stimulus": "<p id=\"stim\">1</p>", "key_press": -1, "trial_type": "single-stim", "trial_index": 19, "time_elapsed": 164037, "internal_node_id": "0.0-10.0-9.0"}}, {"uniqueid": "MTK0188:3Z9WI9EOZ0VH4UYCBZG7L7YVYNEKHS", "current_trial": 20, "dateTime": 1509478099298, "trialdata": {"rt": -1, "stimulus": "<p id=\"stim\">+</p>", "key_press": -1, "type": "FIXATION", "trial_type": "single-stim", "trial_index": 20, "time_elapsed": 165539, "internal_node_id": "0.0-11.0-0.0"}}, {"uniqueid": "MTK0188:3Z9WI9EOZ0VH4UYCBZG7L7YVYNEKHS", "current_trial": 21, "dateTime": 1509478101621, "trialdata": {"rt": -1000, "stimulus": "/static/audio/wordpool/STUDENT.wav", "key_press": -1, "type": "PRES_AUD", "word": "student", "wordID": 1394, "conditions": [18, 1200, "a", 18000], "trial": 0, "serialpos": 0, "trial_type": "single-audio", "trial_index": 21, "time_elapsed": 167862, "internal_node_id": "0.0-12.0"}}, {"uniqueid": "MTK0188:3Z9WI9EOZ0VH4UYCBZG7L7YVYNEKHS", "current_trial": 22, "dateTime": 1509478103938, "trialdata": {"rt": -1000, "stimulus": "/static/audio/wordpool/STONE.wav", "key_press": -1, "type": "PRES_AUD", "word": "stone", "wordID": 1384, "conditions": [18, 1200, "a", 18000], "trial": 0, "serialpos": 1, "trial_type": "single-audio", "trial_index": 22, "time_elapsed": 170179, "internal_node_id": "0.0-13.0"}}, {"uniqueid": "MTK0188:3Z9WI9EOZ0VH4UYCBZG7L7YVYNEKHS", "current_trial": 23, "dateTime": 1509478106096, "trialdata": {"rt": -1000, "stimulus": "/static/audio/wordpool/ATOM.wav", "key_press": -1, "type": "PRES_AUD", "word": "atom", "wordID": 54, "conditions": [18, 1200, "a", 18000], "trial": 0, "serialpos": 2, "trial_type": "single-audio", "trial_index": 23, "time_elapsed": 172337, "internal_node_id": "0.0-14.0"}}, {"uniqueid": "MTK0188:3Z9WI9EOZ0VH4UYCBZG7L7YVYNEKHS", "current_trial": 24, "dateTime": 1509478108218, "trialdata": {"rt": -1000, "stimulus": "/static/audio/wordpool/SIDEWALK.wav", "key_press": -1, "type": "PRES_AUD", "word": "sidewalk", "wordID": 1302, "conditions": [18, 1200, "a", 18000], "trial": 0, "serialpos": 3, "trial_type": "single-audio", "trial_index": 24, "time_elapsed": 174459, "internal_node_id": "0.0-15.0"}}, {"uniqueid": "MTK0188:3Z9WI9EOZ0VH4UYCBZG7L7YVYNEKHS", "current_trial": 25, "dateTime": 1509478110365, "trialdata": {"rt": -1000, "stimulus": "/static/audio/wordpool/CHAUFFEUR.wav", "key_press": -1, "type": "PRES_AUD", "word": "chauffeur", "wordID": 282, "conditions": [18, 1200, "a", 18000], "trial": 0, "serialpos": 4, "trial_type": "single-audio", "trial_index": 25, "time_elapsed": 176606, "internal_node_id": "0.0-16.0"}}, {"uniqueid": "MTK0188:3Z9WI9EOZ0VH4UYCBZG7L7YVYNEKHS", "current_trial": 26, "dateTime": 1509478112425, "trialdata": {"rt": -1000, "stimulus": "/static/audio/wordpool/DAISY.wav", "key_press": -1, "type": "PRES_AUD", "word": "daisy", "wordID": 434, "conditions": [18, 1200, "a", 18000], "trial": 0, "serialpos": 5, "trial_type": "single-audio", "trial_index": 26, "time_elapsed": 178666, "internal_node_id": "0.0-17.0"}}, {"uniqueid": "MTK0188:3Z9WI9EOZ0VH4UYCBZG7L7YVYNEKHS", "current_trial": 27, "dateTime": 1509478114646, "trialdata": {"rt": -1000, "stimulus": "/static/audio/wordpool/MAMMAL.wav", "key_press": -1, "type": "PRES_AUD", "word": "mammal", "wordID": 860, "conditions": [18, 1200, "a", 18000], "trial": 0, "serialpos": 6, "trial_type": "single-audio", "trial_index": 27, "time_elapsed": 180887, "internal_node_id": "0.0-18.0"}}, {"uniqueid": "MTK0188:3Z9WI9EOZ0VH4UYCBZG7L7YVYNEKHS", "current_trial": 28, "dateTime": 1509478116910, "trialdata": {"rt": -1000, "stimulus": "/static/audio/wordpool/DIME.wav", "key_press": -1, "type": "PRES_AUD", "word": "dime", "wordID": 465, "conditions": [18, 1200, "a", 18000], "trial": 0, "serialpos": 7, "trial_type": "single-audio", "trial_index": 28, "time_elapsed": 183151, "internal_node_id": "0.0-19.0"}}, {"uniqueid": "MTK0188:3Z9WI9EOZ0VH4UYCBZG7L7YVYNEKHS", "current_trial": 29, "dateTime": 1509478119055, "trialdata": {"rt": -1000, "stimulus": "/static/audio/wordpool/LAGOON.wav", "key_press": -1, "type": "PRES_AUD", "word": "lagoon", "wordID": 794, "conditions": [18, 1200, "a", 18000], "trial": 0, "serialpos": 8, "trial_type": "single-audio", "trial_index": 29, "time_elapsed": 185296, "internal_node_id": "0.0-20.0"}}, {"uniqueid": "MTK0188:3Z9WI9EOZ0VH4UYCBZG7L7YVYNEKHS", "current_trial": 30, "dateTime": 1509478121293, "trialdata": {"rt": -1000, "stimulus": "/static/audio/wordpool/LION.wav", "key_press": -1, "type": "PRES_AUD", "word": "lion", "wordID": 826, "conditions": [18, 1200, "a", 18000], "trial": 0, "serialpos": 9, "trial_type": "single-audio", "trial_index": 30, "time_elapsed": 187534, "internal_node_id": "0.0-21.0"}}, {"uniqueid": "MTK0188:3Z9WI9EOZ0VH4UYCBZG7L7YVYNEKHS", "current_trial": 31, "dateTime": 1509478123380, "trialdata": {"rt": -1000, "stimulus": "/static/audio/wordpool/DAUGHTER.wav", "key_press": -1, "type": "PRES_AUD", "word": "daughter", "wordID": 441, "conditions": [18, 1200, "a", 18000], "trial": 0, "serialpos": 10, "trial_type": "single-audio", "trial_index": 31, "time_elapsed": 189621, "internal_node_id": "0.0-22.0"}}, {"uniqueid": "MTK0188:3Z9WI9EOZ0VH4UYCBZG7L7YVYNEKHS", "current_trial": 32, "dateTime": 1509478125475, "trialdata": {"rt": -1000, "stimulus": "/static/audio/wordpool/BRACES.wav", "key_press": -1, "type": "PRES_AUD", "word": "braces", "wordID": 163, "conditions": [18, 1200, "a", 18000], "trial": 0, "serialpos": 11, "trial_type": "single-audio", "trial_index": 32, "time_elapsed": 191716, "internal_node_id": "0.0-23.0"}}, {"uniqueid": "MTK0188:3Z9WI9EOZ0VH4UYCBZG7L7YVYNEKHS", "current_trial": 33, "dateTime": 1509478127784, "trialdata": {"rt": -1000, "stimulus": "/static/audio/wordpool/BALLOON.wav", "key_press": -1, "type": "PRES_AUD", "word": "balloon", "wordID": 74, "conditions": [18, 1200, "a", 18000], "trial": 0, "serialpos": 12, "trial_type": "single-audio", "trial_index": 33, "time_elapsed": 194025, "internal_node_id": "0.0-24.0"}}, {"uniqueid": "MTK0188:3Z9WI9EOZ0VH4UYCBZG7L7YVYNEKHS", "current_trial": 34, "dateTime": 1509478130087, "trialdata": {"rt": -1000, "stimulus": "/static/audio/wordpool/THIEF.wav", "key_press": -1, "type": "PRES_AUD", "word": "thief", "wordID": 1455, "conditions": [18, 1200, "a", 18000], "trial": 0, "serialpos": 13, "trial_type": "single-audio", "trial_index": 34, "time_elapsed": 196327, "internal_node_id": "0.0-25.0"}}, {"uniqueid": "MTK0188:3Z9WI9EOZ0VH4UYCBZG7L7YVYNEKHS", "current_trial": 35, "dateTime": 1509478132207, "trialdata": {"rt": -1000, "stimulus": "/static/audio/wordpool/BREAST.wav", "key_press": -1, "type": "PRES_AUD", "word": "breast", "wordID": 170, "conditions": [18, 1200, "a", 18000], "trial": 0, "serialpos": 14, "trial_type": "single-audio", "trial_index": 35, "time_elapsed": 198448, "internal_node_id": "0.0-26.0"}}, {"uniqueid": "MTK0188:3Z9WI9EOZ0VH4UYCBZG7L7YVYNEKHS", "current_trial": 36, "dateTime": 1509478134379, "trialdata": {"rt": -1000, "stimulus": "/static/audio/wordpool/FIREMAN.wav", "key_press": -1, "type": "PRES_AUD", "word": "fireman", "wordID": 568, "conditions": [18, 1200, "a", 18000], "trial": 0, "serialpos": 15, "trial_type": "single-audio", "trial_index": 36, "time_elapsed": 200620, "internal_node_id": "0.0-27.0"}}, {"uniqueid": "MTK0188:3Z9WI9EOZ0VH4UYCBZG7L7YVYNEKHS", "current_trial": 37, "dateTime": 1509478136519, "trialdata": {"rt": -1000, "stimulus": "/static/audio/wordpool/TURNIP.wav", "key_press": -1, "type": "PRES_AUD", "word": "turnip", "wordID": 1520, "conditions": [18, 1200, "a", 18000], "trial": 0, "serialpos": 16, "trial_type": "single-audio", "trial_index": 37, "time_elapsed": 202760, "internal_node_id": "0.0-28.0"}}, {"uniqueid": "MTK0188:3Z9WI9EOZ0VH4UYCBZG7L7YVYNEKHS", "current_trial": 38, "dateTime": 1509478138545, "trialdata": {"rt": -1000, "stimulus": "/static/audio/wordpool/GRAVE.wav", "key_press": -1, "type": "PRES_AUD", "word": "grave", "wordID": 657, "conditions": [18, 1200, "a", 18000], "trial": 0, "serialpos": 17, "trial_type": "single-audio", "trial_index": 38, "time_elapsed": 204786, "internal_node_id": "0.0-29.0"}}, {"uniqueid": "MTK0188:3Z9WI9EOZ0VH4UYCBZG7L7YVYNEKHS", "current_trial": 39, "dateTime": 1509478139749, "trialdata": {"rt": -1, "stimulus": "", "key_press": -1, "type": "PRE_RECALL_DELAY", "trial_type": "single-stim", "trial_index": 39, "time_elapsed": 205990, "internal_node_id": "0.0-30.0-0.0"}}, {"uniqueid": "MTK0188:3Z9WI9EOZ0VH4UYCBZG7L7YVYNEKHS", "current_trial": 40, "dateTime": 1509478140250, "trialdata": {"rt": -1000, "stimulus": "/static/audio/400Hz.wav", "key_press": -1, "type": "PRE_RECALL_ALERT", "trial_type": "single-audio", "trial_index": 40, "time_elapsed": 206491, "internal_node_id": "0.0-31.0"}}, {"uniqueid": "MTK0188:3Z9WI9EOZ0VH4UYCBZG7L7YVYNEKHS", "current_trial": 41, "dateTime": 1509478200253, "trialdata": {"rt": [6951, 8735, 10631, 12255, 15711, 23487], "recwords": ["turnip", "balloon", "lagoon", "fireman", "daughter", "grace"], "type": "FREE_RECALL", "conditions": [18, 1200, "a", 18000], "trial": 0, "trial_type": "free-recall", "trial_index": 41, "time_elapsed": 266493, "internal_node_id": "0.0-32.0-0.0"}}, {"uniqueid": "MTK0188:3Z9WI9EOZ0VH4UYCBZG7L7YVYNEKHS", "current_trial": 42, "dateTime": 1509478204370, "trialdata": {"rt": 2116, "key_press": 32, "type": "INSTRUCTIONS", "trial_type": "text", "trial_index": 42, "time_elapsed": 270611, "internal_node_id": "0.0-33.0"}}, {"uniqueid": "MTK0188:3Z9WI9EOZ0VH4UYCBZG7L7YVYNEKHS", "current_trial": 43, "dateTime": 1509478224372, "trialdata": {"rt": [3703, 8414, 11078, 15806], "responses": ["13", "23", "15", "18"], "num1": [3, 6, 7, 5, 1], "num2": [3, 8, 5, 9, 4], "num3": [7, 9, 3, 4, 1], "type": "DISTRACTOR", "conditions": [18, 1200, "v", 18000], "trial": 1, "trial_type": "math-distractor", "trial_index": 43, "time_elapsed": 290613, "internal_node_id": "0.0-34.0"}}, {"uniqueid": "MTK0188:3Z9WI9EOZ0VH4UYCBZG7L7YVYNEKHS", "current_trial": 44, "dateTime": 1509478227374, "trialdata": {"rt": -1, "stimulus": "<p id=\"stim\">10</p>", "key_press": -1, "trial_type": "single-stim", "trial_index": 44, "time_elapsed": 293615, "internal_node_id": "0.0-35.0-0.0"}}, {"uniqueid": "MTK0188:3Z9WI9EOZ0VH4UYCBZG7L7YVYNEKHS", "current_trial": 45, "dateTime": 1509478228375, "trialdata": {"rt": -1, "stimulus": "<p id=\"stim\">9</p>", "key_press": -1, "trial_type": "single-stim", "trial_index": 45, "time_elapsed": 294616, "internal_node_id": "0.0-35.0-1.0"}}, {"uniqueid": "MTK0188:3Z9WI9EOZ0VH4UYCBZG7L7YVYNEKHS", "current_trial": 46, "dateTime": 1509478229376, "trialdata": {"rt": -1, "stimulus": "<p id=\"stim\">8</p>", "key_press": -1, "trial_type": "single-stim", "trial_index": 46, "time_elapsed": 295617, "internal_node_id": "0.0-35.0-2.0"}}, {"uniqueid": "MTK0188:3Z9WI9EOZ0VH4UYCBZG7L7YVYNEKHS", "current_trial": 47, "dateTime": 1509478230377, "trialdata": {"rt": -1, "stimulus": "<p id=\"stim\">7</p>", "key_press": -1, "trial_type": "single-stim", "trial_index": 47, "time_elapsed": 296618, "internal_node_id": "0.0-35.0-3.0"}}, {"uniqueid": "MTK0188:3Z9WI9EOZ0VH4UYCBZG7L7YVYNEKHS", "current_trial": 48, "dateTime": 1509478231379, "trialdata": {"rt": -1, "stimulus": "<p id=\"stim\">6</p>", "key_press": -1, "trial_type": "single-stim", "trial_index": 48, "time_elapsed": 297620, "internal_node_id": "0.0-35.0-4.0"}}, {"uniqueid": "MTK0188:3Z9WI9EOZ0VH4UYCBZG7L7YVYNEKHS", "current_trial": 49, "dateTime": 1509478232380, "trialdata": {"rt": -1, "stimulus": "<p id=\"stim\">5</p>", "key_press": -1, "trial_type": "single-stim", "trial_index": 49, "time_elapsed": 298621, "internal_node_id": "0.0-35.0-5.0"}}, {"uniqueid": "MTK0188:3Z9WI9EOZ0VH4UYCBZG7L7YVYNEKHS", "current_trial": 50, "dateTime": 1509478233382, "trialdata": {"rt": -1, "stimulus": "<p id=\"stim\">4</p>", "key_press": -1, "trial_type": "single-stim", "trial_index": 50, "time_elapsed": 299623, "internal_node_id": "0.0-35.0-6.0"}}, {"uniqueid": "MTK0188:3Z9WI9EOZ0VH4UYCBZG7L7YVYNEKHS", "current_trial": 51, "dateTime": 1509478234384, "trialdata": {"rt": -1, "stimulus": "<p id=\"stim\">3</p>", "key_press": -1, "trial_type": "single-stim", "trial_index": 51, "time_elapsed": 300625, "internal_node_id": "0.0-35.0-7.0"}}, {"uniqueid": "MTK0188:3Z9WI9EOZ0VH4UYCBZG7L7YVYNEKHS", "current_trial": 52, "dateTime": 1509478235384, "trialdata": {"rt": -1, "stimulus": "<p id=\"stim\">2</p>", "key_press": -1, "trial_type": "single-stim", "trial_index": 52, "time_elapsed": 301625, "internal_node_id": "0.0-35.0-8.0"}}, {"uniqueid": "MTK0188:3Z9WI9EOZ0VH4UYCBZG7L7YVYNEKHS", "current_trial": 53, "dateTime": 1509478236386, "trialdata": {"rt": -1, "stimulus": "<p id=\"stim\">1</p>", "key_press": -1, "trial_type": "single-stim", "trial_index": 53, "time_elapsed": 302627, "internal_node_id": "0.0-35.0-9.0"}}, {"uniqueid": "MTK0188:3Z9WI9EOZ0VH4UYCBZG7L7YVYNEKHS", "current_trial": 54, "dateTime": 1509478237887, "trialdata": {"rt": -1, "stimulus": "<p id=\"stim\">+</p>", "key_press": -1, "type": "FIXATION", "trial_type": "single-stim", "trial_index": 54, "time_elapsed": 304128, "internal_node_id": "0.0-36.0-0.0"}}, {"uniqueid": "MTK0188:3Z9WI9EOZ0VH4UYCBZG7L7YVYNEKHS", "current_trial": 55, "dateTime": 1509478239088, "trialdata": {"rt": -1, "stimulus": "<p id=\"stim\">CARRIAGE</p>", "key_press": -1, "type": "PRES_VIS", "word": "carriage", "wordID": 247, "conditions": [18, 1200, "v", 18000], "trial": 1, "serialpos": 0, "trial_type": "single-stim", "trial_index": 55, "time_elapsed": 305329, "internal_node_id": "0.0-37.0"}}, {"uniqueid": "MTK0188:3Z9WI9EOZ0VH4UYCBZG7L7YVYNEKHS", "current_trial": 56, "dateTime": 1509478241297, "trialdata": {"rt": -1, "stimulus": "<p id=\"stim\">PICNIC</p>", "key_press": -1, "type": "PRES_VIS", "word": "picnic", "wordID": 1059, "conditions": [18, 1200, "v", 18000], "trial": 1, "serialpos": 1, "trial_type": "single-stim", "trial_index": 56, "time_elapsed": 307538, "internal_node_id": "0.0-38.0"}}, {"uniqueid": "MTK0188:3Z9WI9EOZ0VH4UYCBZG7L7YVYNEKHS", "current_trial": 57, "dateTime": 1509478243541, "trialdata": {"rt": -1, "stimulus": "<p id=\"stim\">JAPAN</p>", "key_press": -1, "type": "PRES_VIS", "word": "japan", "wordID": 748, "conditions": [18, 1200, "v", 18000], "trial": 1, "serialpos": 2, "trial_type": "single-stim", "trial_index": 57, "time_elapsed": 309782, "internal_node_id": "0.0-39.0"}}, {"uniqueid": "MTK0188:3Z9WI9EOZ0VH4UYCBZG7L7YVYNEKHS", "current_trial": 58, "dateTime": 1509478245930, "trialdata": {"rt": -1, "stimulus": "<p id=\"stim\">CATCHER</p>", "key_press": -1, "type": "PRES_VIS", "word": "catcher", "wordID": 257, "conditions": [18, 1200, "v", 18000], "trial": 1, "serialpos": 3, "trial_type": "single-stim", "trial_index": 58, "time_elapsed": 312171, "internal_node_id": "0.0-40.0"}}, {"uniqueid": "MTK0188:3Z9WI9EOZ0VH4UYCBZG7L7YVYNEKHS", "current_trial": 59, "dateTime": 1509478247954, "trialdata": {"rt": -1, "stimulus": "<p id=\"stim\">ROBBER</p>", "key_press": -1, "type": "PRES_VIS", "word": "robber", "wordID": 1196, "conditions": [18, 1200, "v", 18000], "trial": 1, "serialpos": 4, "trial_type": "single-stim", "trial_index": 59, "time_elapsed": 314195, "internal_node_id": "0.0-41.0"}}, {"uniqueid": "MTK0188:3Z9WI9EOZ0VH4UYCBZG7L7YVYNEKHS", "current_trial": 60, "dateTime": 1509478249957, "trialdata": {"rt": -1, "stimulus": "<p id=\"stim\">MASK</p>", "key_press": -1, "type": "PRES_VIS", "word": "mask", "wordID": 875, "conditions": [18, 1200, "v", 18000], "trial": 1, "serialpos": 5, "trial_type": "single-stim", "trial_index": 60, "time_elapsed": 316198, "internal_node_id": "0.0-42.0"}}, {"uniqueid": "MTK0188:3Z9WI9EOZ0VH4UYCBZG7L7YVYNEKHS", "current_trial": 61, "dateTime": 1509478251976, "trialdata": {"rt": -1, "stimulus": "<p id=\"stim\">BRICK</p>", "key_press": -1, "type": "PRES_VIS", "word": "brick", "wordID": 171, "conditions": [18, 1200, "v", 18000], "trial": 1, "serialpos": 6, "trial_type": "single-stim", "trial_index": 61, "time_elapsed": 318217, "internal_node_id": "0.0-43.0"}}, {"uniqueid": "MTK0188:3Z9WI9EOZ0VH4UYCBZG7L7YVYNEKHS", "current_trial": 62, "dateTime": 1509478254114, "trialdata": {"rt": -1, "stimulus": "<p id=\"stim\">RIVER</p>", "key_press": -1, "type": "PRES_VIS", "word": "river", "wordID": 1193, "conditions": [18, 1200, "v", 18000], "trial": 1, "serialpos": 7, "trial_type": "single-stim", "trial_index": 62, "time_elapsed": 320355, "internal_node_id": "0.0-44.0"}}, {"uniqueid": "MTK0188:3Z9WI9EOZ0VH4UYCBZG7L7YVYNEKHS", "current_trial": 63, "dateTime": 1509478256126, "trialdata": {"rt": -1, "stimulus": "<p id=\"stim\">WRIST</p>", "key_press": -1, "type": "PRES_VIS", "word": "wrist", "wordID": 1625, "conditions": [18, 1200, "v", 18000], "trial": 1, "serialpos": 8, "trial_type": "single-stim", "trial_index": 63, "time_elapsed": 322367, "internal_node_id": "0.0-45.0"}}, {"uniqueid": "MTK0188:3Z9WI9EOZ0VH4UYCBZG7L7YVYNEKHS", "current_trial": 64, "dateTime": 1509478258503, "trialdata": {"rt": -1, "stimulus": "<p id=\"stim\">HERO</p>", "key_press": -1, "type": "PRES_VIS", "word": "hero", "wordID": 705, "conditions": [18, 1200, "v", 18000], "trial": 1, "serialpos": 9, "trial_type": "single-stim", "trial_index": 64, "time_elapsed": 324744, "internal_node_id": "0.0-46.0"}}, {"uniqueid": "MTK0188:3Z9WI9EOZ0VH4UYCBZG7L7YVYNEKHS", "current_trial": 65, "dateTime": 1509478260579, "trialdata": {"rt": -1, "stimulus": "<p id=\"stim\">KITCHEN</p>", "key_press": -1, "type": "PRES_VIS", "word": "kitchen", "wordID": 777, "conditions": [18, 1200, "v", 18000], "trial": 1, "serialpos": 10, "trial_type": "single-stim", "trial_index": 65, "time_elapsed": 326820, "internal_node_id": "0.0-47.0"}}, {"uniqueid": "MTK0188:3Z9WI9EOZ0VH4UYCBZG7L7YVYNEKHS", "current_trial": 66, "dateTime": 1509478262635, "trialdata": {"rt": -1, "stimulus": "<p id=\"stim\">FLASK</p>", "key_press": -1, "type": "PRES_VIS", "word": "flask", "wordID": 575, "conditions": [18, 1200, "v", 18000], "trial": 1, "serialpos": 11, "trial_type": "single-stim", "trial_index": 66, "time_elapsed": 328876, "internal_node_id": "0.0-48.0"}}, {"uniqueid": "MTK0188:3Z9WI9EOZ0VH4UYCBZG7L7YVYNEKHS", "current_trial": 67, "dateTime": 1509478264698, "trialdata": {"rt": -1, "stimulus": "<p id=\"stim\">JUGGLER</p>", "key_press": -1, "type": "PRES_VIS", "word": "juggler", "wordID": 762, "conditions": [18, 1200, "v", 18000], "trial": 1, "serialpos": 12, "trial_type": "single-stim", "trial_index": 67, "time_elapsed": 330939, "internal_node_id": "0.0-49.0"}}, {"uniqueid": "MTK0188:3Z9WI9EOZ0VH4UYCBZG7L7YVYNEKHS", "current_trial": 68, "dateTime": 1509478267004, "trialdata": {"rt": -1, "stimulus": "<p id=\"stim\">RECORD</p>", "key_press": -1, "type": "PRES_VIS", "word": "record", "wordID": 1175, "conditions": [18, 1200, "v", 18000], "trial": 1, "serialpos": 13, "trial_type": "single-stim", "trial_index": 68, "time_elapsed": 333244, "internal_node_id": "0.0-50.0"}}, {"uniqueid": "MTK0188:3Z9WI9EOZ0VH4UYCBZG7L7YVYNEKHS", "current_trial": 69, "dateTime": 1509478269382, "trialdata": {"rt": -1, "stimulus": "<p id=\"stim\">BANJO</p>", "key_press": -1, "type": "PRES_VIS", "word": "banjo", "wordID": 81, "conditions": [18, 1200, "v", 18000], "trial": 1, "serialpos": 14, "trial_type": "single-stim", "trial_index": 69, "time_elapsed": 335623, "internal_node_id": "0.0-51.0"}}, {"uniqueid": "MTK0188:3Z9WI9EOZ0VH4UYCBZG7L7YVYNEKHS", "current_trial": 70, "dateTime": 1509478271472, "trialdata": {"rt": -1, "stimulus": "<p id=\"stim\">KLEENEX</p>", "key_press": -1, "type": "PRES_VIS", "word": "kleenex", "wordID": 781, "conditions": [18, 1200, "v", 18000], "trial": 1, "serialpos": 15, "trial_type": "single-stim", "trial_index": 70, "time_elapsed": 337713, "internal_node_id": "0.0-52.0"}}, {"uniqueid": "MTK0188:3Z9WI9EOZ0VH4UYCBZG7L7YVYNEKHS", "current_trial": 71, "dateTime": 1509478273851, "trialdata": {"rt": -1, "stimulus": "<p id=\"stim\">TRIBE</p>", "key_press": -1, "type": "PRES_VIS", "word": "tribe", "wordID": 1504, "conditions": [18, 1200, "v", 18000], "trial": 1, "serialpos": 16, "trial_type": "single-stim", "trial_index": 71, "time_elapsed": 340092, "internal_node_id": "0.0-53.0"}}, {"uniqueid": "MTK0188:3Z9WI9EOZ0VH4UYCBZG7L7YVYNEKHS", "current_trial": 72, "dateTime": 1509478275992, "trialdata": {"rt": -1, "stimulus": "<p id=\"stim\">COUNTY</p>", "key_press": -1, "type": "PRES_VIS", "word": "county", "wordID": 388, "conditions": [18, 1200, "v", 18000], "trial": 1, "serialpos": 17, "trial_type": "single-stim", "trial_index": 72, "time_elapsed": 342233, "internal_node_id": "0.0-54.0"}}, {"uniqueid": "MTK0188:3Z9WI9EOZ0VH4UYCBZG7L7YVYNEKHS", "current_trial": 73, "dateTime": 1509478278137, "trialdata": {"rt": -1, "stimulus": "", "key_press": -1, "type": "PRE_RECALL_DELAY", "trial_type": "single-stim", "trial_index": 73, "time_elapsed": 344378, "internal_node_id": "0.0-55.0-0.0"}}, {"uniqueid": "MTK0188:3Z9WI9EOZ0VH4UYCBZG7L7YVYNEKHS", "current_trial": 74, "dateTime": 1509478278639, "trialdata": {"rt": -1000, "stimulus": "/static/audio/400Hz.wav", "key_press": -1, "type": "PRE_RECALL_ALERT", "trial_type": "single-audio", "trial_index": 74, "time_elapsed": 344879, "internal_node_id": "0.0-56.0"}}, {"uniqueid": "MTK0188:3Z9WI9EOZ0VH4UYCBZG7L7YVYNEKHS", "current_trial": 75, "dateTime": 1509478338641, "trialdata": {"rt": [2554, 3666, 5826, 9995], "recwords": ["county", "robber", "carriage", "picnic"], "type": "FREE_RECALL", "conditions": [18, 1200, "v", 18000], "trial": 1, "trial_type": "free-recall", "trial_index": 75, "time_elapsed": 404880, "internal_node_id": "0.0-57.0-0.0"}}, {"uniqueid": "MTK0188:3Z9WI9EOZ0VH4UYCBZG7L7YVYNEKHS", "current_trial": 76, "dateTime": 1509478343329, "trialdata": {"rt": 2687, "key_press": 32, "type": "INSTRUCTIONS", "trial_type": "text", "trial_index": 76, "time_elapsed": 409570, "internal_node_id": "0.0-58.0"}}, {"uniqueid": "MTK0188:3Z9WI9EOZ0VH4UYCBZG7L7YVYNEKHS", "current_trial": 77, "dateTime": 1509478368331, "trialdata": {"rt": [4855, 7510, 11846, 14662, 17246, 20342, 23662], "responses": ["10", "12", "8", "15", "7", "27", "11"], "num1": [2, 2, 4, 6, 1, 8, 3, 1], "num2": [2, 9, 2, 4, 3, 7, 3, 3], "num3": [6, 1, 2, 5, 3, 2, 5, 7], "type": "DISTRACTOR", "conditions": [24, 1600, "a", 24000], "trial": 2, "trial_type": "math-distractor", "trial_index": 77, "time_elapsed": 434572, "internal_node_id": "0.0-59.0"}}, {"uniqueid": "MTK0188:3Z9WI9EOZ0VH4UYCBZG7L7YVYNEKHS", "current_trial": 78, "dateTime": 1509478371333, "trialdata": {"rt": -1, "stimulus": "<p id=\"stim\">10</p>", "key_press": -1, "trial_type": "single-stim", "trial_index": 78, "time_elapsed": 437574, "internal_node_id": "0.0-60.0-0.0"}}, {"uniqueid": "MTK0188:3Z9WI9EOZ0VH4UYCBZG7L7YVYNEKHS", "current_trial": 79, "dateTime": 1509478372335, "trialdata": {"rt": -1, "stimulus": "<p id=\"stim\">9</p>", "key_press": -1, "trial_type": "single-stim", "trial_index": 79, "time_elapsed": 438576, "internal_node_id": "0.0-60.0-1.0"}}, {"uniqueid": "MTK0188:3Z9WI9EOZ0VH4UYCBZG7L7YVYNEKHS", "current_trial": 80, "dateTime": 1509478373337, "trialdata": {"rt": -1, "stimulus": "<p id=\"stim\">8</p>", "key_press": -1, "trial_type": "single-stim", "trial_index": 80, "time_elapsed": 439578, "internal_node_id": "0.0-60.0-2.0"}}, {"uniqueid": "MTK0188:3Z9WI9EOZ0VH4UYCBZG7L7YVYNEKHS", "current_trial": 81, "dateTime": 1509478374338, "trialdata": {"rt": -1, "stimulus": "<p id=\"stim\">7</p>", "key_press": -1, "trial_type": "single-stim", "trial_index": 81, "time_elapsed": 440579, "internal_node_id": "0.0-60.0-3.0"}}, {"uniqueid": "MTK0188:3Z9WI9EOZ0VH4UYCBZG7L7YVYNEKHS", "current_trial": 82, "dateTime": 1509478375340, "trialdata": {"rt": -1, "stimulus": "<p id=\"stim\">6</p>", "key_press": -1, "trial_type": "single-stim", "trial_index": 82, "time_elapsed": 441581, "internal_node_id": "0.0-60.0-4.0"}}, {"uniqueid": "MTK0188:3Z9WI9EOZ0VH4UYCBZG7L7YVYNEKHS", "current_trial": 83, "dateTime": 1509478376341, "trialdata": {"rt": -1, "stimulus": "<p id=\"stim\">5</p>", "key_press": -1, "trial_type": "single-stim", "trial_index": 83, "time_elapsed": 442582, "internal_node_id": "0.0-60.0-5.0"}}, {"uniqueid": "MTK0188:3Z9WI9EOZ0VH4UYCBZG7L7YVYNEKHS", "current_trial": 84, "dateTime": 1509478377343, "trialdata": {"rt": -1, "stimulus": "<p id=\"stim\">4</p>", "key_press": -1, "trial_type": "single-stim", "trial_index": 84, "time_elapsed": 443584, "internal_node_id": "0.0-60.0-6.0"}}, {"uniqueid": "MTK0188:3Z9WI9EOZ0VH4UYCBZG7L7YVYNEKHS", "current_trial": 85, "dateTime": 1509478378344, "trialdata": {"rt": -1, "stimulus": "<p id=\"stim\">3</p>", "key_press": -1, "trial_type": "single-stim", "trial_index": 85, "time_elapsed": 444585, "internal_node_id": "0.0-60.0-7.0"}}, {"uniqueid": "MTK0188:3Z9WI9EOZ0VH4UYCBZG7L7YVYNEKHS", "current_trial": 86, "dateTime": 1509478379346, "trialdata": {"rt": -1, "stimulus": "<p id=\"stim\">2</p>", "key_press": -1, "trial_type": "single-stim", "trial_index": 86, "time_elapsed": 445587, "internal_node_id": "0.0-60.0-8.0"}}, {"uniqueid": "MTK0188:3Z9WI9EOZ0VH4UYCBZG7L7YVYNEKHS", "current_trial": 87, "dateTime": 1509478380349, "trialdata": {"rt": -1, "stimulus": "<p id=\"stim\">1</p>", "key_press": -1, "trial_type": "single-stim", "trial_index": 87, "time_elapsed": 446590, "internal_node_id": "0.0-60.0-9.0"}}, {"uniqueid": "MTK0188:3Z9WI9EOZ0VH4UYCBZG7L7YVYNEKHS", "current_trial": 88, "dateTime": 1509478381850, "trialdata": {"rt": -1, "stimulus": "<p id=\"stim\">+</p>", "key_press": -1, "type": "FIXATION", "trial_type": "single-stim", "trial_index": 88, "time_elapsed": 448091, "internal_node_id": "0.0-61.0-0.0"}}, {"uniqueid": "MTK0188:3Z9WI9EOZ0VH4UYCBZG7L7YVYNEKHS", "current_trial": 89, "dateTime": 1509478384594, "trialdata": {"rt": -1000, "stimulus": "/static/audio/wordpool/FLUTE.wav", "key_press": -1, "type": "PRES_AUD", "word": "flute", "wordID": 584, "conditions": [24, 1600, "a", 24000], "trial": 2, "serialpos": 0, "trial_type": "single-audio", "trial_index": 89, "time_elapsed": 450835, "internal_node_id": "0.0-62.0"}}, {"uniqueid": "MTK0188:3Z9WI9EOZ0VH4UYCBZG7L7YVYNEKHS", "current_trial": 90, "dateTime": 1509478387218, "trialdata": {"rt": -1000, "stimulus": "/static/audio/wordpool/GRAPE.wav", "key_press": -1, "type": "PRES_AUD", "word": "grape", "wordID": 653, "conditions": [24, 1600, "a", 24000], "trial": 2, "serialpos": 1, "trial_type": "single-audio", "trial_index": 90, "time_elapsed": 453459, "internal_node_id": "0.0-63.0"}}, {"uniqueid": "MTK0188:3Z9WI9EOZ0VH4UYCBZG7L7YVYNEKHS", "current_trial": 91, "dateTime": 1509478389713, "trialdata": {"rt": -1000, "stimulus": "/static/audio/wordpool/BARLEY.wav", "key_press": -1, "type": "PRES_AUD", "word": "barley", "wordID": 87, "conditions": [24, 1600, "a", 24000], "trial": 2, "serialpos": 2, "trial_type": "single-audio", "trial_index": 91, "time_elapsed": 455954, "internal_node_id": "0.0-64.0"}}, {"uniqueid": "MTK0188:3Z9WI9EOZ0VH4UYCBZG7L7YVYNEKHS", "current_trial": 92, "dateTime": 1509478392425, "trialdata": {"rt": -1000, "stimulus": "/static/audio/wordpool/PEBBLE.wav", "key_press": -1, "type": "PRES_AUD", "word": "pebble", "wordID": 1034, "conditions": [24, 1600, "a", 24000], "trial": 2, "serialpos": 3, "trial_type": "single-audio", "trial_index": 92, "time_elapsed": 458666, "internal_node_id": "0.0-65.0"}}, {"uniqueid": "MTK0188:3Z9WI9EOZ0VH4UYCBZG7L7YVYNEKHS", "current_trial": 93, "dateTime": 1509478394969, "trialdata": {"rt": -1000, "stimulus": "/static/audio/wordpool/SHERIFF.wav", "key_press": -1, "type": "PRES_AUD", "word": "sheriff", "wordID": 1283, "conditions": [24, 1600, "a", 24000], "trial": 2, "serialpos": 4, "trial_type": "single-audio", "trial_index": 93, "time_elapsed": 461210, "internal_node_id": "0.0-66.0"}}, {"uniqueid": "MTK0188:3Z9WI9EOZ0VH4UYCBZG7L7YVYNEKHS", "current_trial": 94, "dateTime": 1509478397493, "trialdata": {"rt": -1000, "stimulus": "/static/audio/wordpool/BURGLAR.wav", "key_press": -1, "type": "PRES_AUD", "word": "burglar", "wordID": 199, "conditions": [24, 1600, "a", 24000], "trial": 2, "serialpos": 5, "trial_type": "single-audio", "trial_index": 94, "time_elapsed": 463733, "internal_node_id": "0.0-67.0"}}, {"uniqueid": "MTK0188:3Z9WI9EOZ0VH4UYCBZG7L7YVYNEKHS", "current_trial": 95, "dateTime": 1509478400272, "trialdata": {"rt": -1000, "stimulus": "/static/audio/wordpool/EUROPE.wav", "key_press": -1, "type": "PRES_AUD", "word": "europe", "wordID": 540, "conditions": [24, 1600, "a", 24000], "trial": 2, "serialpos": 6, "trial_type": "single-audio", "trial_index": 95, "time_elapsed": 466513, "internal_node_id": "0.0-68.0"}}, {"uniqueid": "MTK0188:3Z9WI9EOZ0VH4UYCBZG7L7YVYNEKHS", "current_trial": 96, "dateTime": 1509478402931, "trialdata": {"rt": -1000, "stimulus": "/static/audio/wordpool/PARROT.wav", "key_press": -1, "type": "PRES_AUD", "word": "parrot", "wordID": 1014, "conditions": [24, 1600, "a", 24000], "trial": 2, "serialpos": 7, "trial_type": "single-audio", "trial_index": 96, "time_elapsed": 469172, "internal_node_id": "0.0-69.0"}}, {"uniqueid": "MTK0188:3Z9WI9EOZ0VH4UYCBZG7L7YVYNEKHS", "current_trial": 97, "dateTime": 1509478405620, "trialdata": {"rt": -1000, "stimulus": "/static/audio/wordpool/SISTER.wav", "key_press": -1, "type": "PRES_AUD", "word": "sister", "wordID": 1311, "conditions": [24, 1600, "a", 24000], "trial": 2, "serialpos": 8, "trial_type": "single-audio", "trial_index": 97, "time_elapsed": 471861, "internal_node_id": "0.0-70.0"}}, {"uniqueid": "MTK0188:3Z9WI9EOZ0VH4UYCBZG7L7YVYNEKHS", "current_trial": 98, "dateTime": 1509478408098, "trialdata": {"rt": -1000, "stimulus": "/static/audio/wordpool/PRINCESS.wav", "key_press": -1, "type": "PRES_AUD", "word": "princess", "wordID": 1124, "conditions": [24, 1600, "a", 24000], "trial": 2, "serialpos": 9, "trial_type": "single-audio", "trial_index": 98, "time_elapsed": 474339, "internal_node_id": "0.0-71.0"}}, {"uniqueid": "MTK0188:3Z9WI9EOZ0VH4UYCBZG7L7YVYNEKHS", "current_trial": 99, "dateTime": 1509478410553, "trialdata": {"rt": -1000, "stimulus": "/static/audio/wordpool/EGYPT.wav", "key_press": -1, "type": "PRES_AUD", "word": "egypt", "wordID": 518, "conditions": [24, 1600, "a", 24000], "trial": 2, "serialpos": 10, "trial_type": "single-audio", "trial_index": 99, "time_elapsed": 476794, "internal_node_id": "0.0-72.0"}}, {"uniqueid": "MTK0188:3Z9WI9EOZ0VH4UYCBZG7L7YVYNEKHS", "current_trial": 100, "dateTime": 1509478412964, "trialdata": {"rt": -1000, "stimulus": "/static/audio/wordpool/SPOOL.wav", "key_press": -1, "type": "PRES_AUD", "word": "spool", "wordID": 1355, "conditions": [24, 1600, "a", 24000], "trial": 2, "serialpos": 11, "trial_type": "single-audio", "trial_index": 100, "time_elapsed": 479205, "internal_node_id": "0.0-73.0"}}, {"uniqueid": "MTK0188:3Z9WI9EOZ0VH4UYCBZG7L7YVYNEKHS", "current_trial": 101, "dateTime": 1509478415462, "trialdata": {"rt": -1000, "stimulus": "/static/audio/wordpool/TURKEY.wav", "key_press": -1, "type": "PRES_AUD", "word": "turkey", "wordID": 1519, "conditions": [24, 1600, "a", 24000], "trial": 2, "serialpos": 12, "trial_type": "single-audio", "trial_index": 101, "time_elapsed": 481702, "internal_node_id": "0.0-74.0"}}, {"uniqueid": "MTK0188:3Z9WI9EOZ0VH4UYCBZG7L7YVYNEKHS", "current_trial": 102, "dateTime": 1509478418196, "trialdata": {"rt": -1000, "stimulus": "/static/audio/wordpool/MAILBOX.wav", "key_press": -1, "type": "PRES_AUD", "word": "mailbox", "wordID": 856, "conditions": [24, 1600, "a", 24000], "trial": 2, "serialpos": 13, "trial_type": "single-audio", "trial_index": 102, "time_elapsed": 484437, "internal_node_id": "0.0-75.0"}}, {"uniqueid": "MTK0188:3Z9WI9EOZ0VH4UYCBZG7L7YVYNEKHS", "current_trial": 103, "dateTime": 1509478420923, "trialdata": {"rt": -1000, "stimulus": "/static/audio/wordpool/PUDDLE.wav", "key_press": -1, "type": "PRES_AUD", "word": "puddle", "wordID": 1139, "conditions": [24, 1600, "a", 24000], "trial": 2, "serialpos": 14, "trial_type": "single-audio", "trial_index": 103, "time_elapsed": 487164, "internal_node_id": "0.0-76.0"}}, {"uniqueid": "MTK0188:3Z9WI9EOZ0VH4UYCBZG7L7YVYNEKHS", "current_trial": 104, "dateTime": 1509478423577, "trialdata": {"rt": -1000, "stimulus": "/static/audio/wordpool/QUAIL.wav", "key_press": -1, "type": "PRES_AUD", "word": "quail", "wordID": 1146, "conditions": [24, 1600, "a", 24000], "trial": 2, "serialpos": 15, "trial_type": "single-audio", "trial_index": 104, "time_elapsed": 489818, "internal_node_id": "0.0-77.0"}}, {"uniqueid": "MTK0188:3Z9WI9EOZ0VH4UYCBZG7L7YVYNEKHS", "current_trial": 105, "dateTime": 1509478426331, "trialdata": {"rt": -1000, "stimulus": "/static/audio/wordpool/CABBAGE.wav", "key_press": -1, "type": "PRES_AUD", "word": "cabbage", "wordID": 209, "conditions": [24, 1600, "a", 24000], "trial": 2, "serialpos": 16, "trial_type": "single-audio", "trial_index": 105, "time_elapsed": 492572, "internal_node_id": "0.0-78.0"}}, {"uniqueid": "MTK0188:3Z9WI9EOZ0VH4UYCBZG7L7YVYNEKHS", "current_trial": 106, "dateTime": 1509478428940, "trialdata": {"rt": -1000, "stimulus": "/static/audio/wordpool/PARSLEY.wav", "key_press": -1, "type": "PRES_AUD", "word": "parsley", "wordID": 1015, "conditions": [24, 1600, "a", 24000], "trial": 2, "serialpos": 17, "trial_type": "single-audio", "trial_index": 106, "time_elapsed": 495181, "internal_node_id": "0.0-79.0"}}, {"uniqueid": "MTK0188:3Z9WI9EOZ0VH4UYCBZG7L7YVYNEKHS", "current_trial": 107, "dateTime": 1509478431696, "trialdata": {"rt": -1000, "stimulus": "/static/audio/wordpool/FRECKLE.wav", "key_press": -1, "type": "PRES_AUD", "word": "freckle", "wordID": 601, "conditions": [24, 1600, "a", 24000], "trial": 2, "serialpos": 18, "trial_type": "single-audio", "trial_index": 107, "time_elapsed": 497937, "internal_node_id": "0.0-80.0"}}, {"uniqueid": "MTK0188:3Z9WI9EOZ0VH4UYCBZG7L7YVYNEKHS", "current_trial": 108, "dateTime": 1509478434195, "trialdata": {"rt": -1000, "stimulus": "/static/audio/wordpool/GARDEN.wav", "key_press": -1, "type": "PRES_AUD", "word": "garden", "wordID": 622, "conditions": [24, 1600, "a", 24000], "trial": 2, "serialpos": 19, "trial_type": "single-audio", "trial_index": 108, "time_elapsed": 500436, "internal_node_id": "0.0-81.0"}}, {"uniqueid": "MTK0188:3Z9WI9EOZ0VH4UYCBZG7L7YVYNEKHS", "current_trial": 109, "dateTime": 1509478436887, "trialdata": {"rt": -1000, "stimulus": "/static/audio/wordpool/FRIEND.wav", "key_press": -1, "type": "PRES_AUD", "word": "friend", "wordID": 605, "conditions": [24, 1600, "a", 24000], "trial": 2, "serialpos": 20, "trial_type": "single-audio", "trial_index": 109, "time_elapsed": 503128, "internal_node_id": "0.0-82.0"}}, {"uniqueid": "MTK0188:3Z9WI9EOZ0VH4UYCBZG7L7YVYNEKHS", "current_trial": 110, "dateTime": 1509478439671, "trialdata": {"rt": -1000, "stimulus": "/static/audio/wordpool/COBRA.wav", "key_press": -1, "type": "PRES_AUD", "word": "cobra", "wordID": 335, "conditions": [24, 1600, "a", 24000], "trial": 2, "serialpos": 21, "trial_type": "single-audio", "trial_index": 110, "time_elapsed": 505912, "internal_node_id": "0.0-83.0"}}, {"uniqueid": "MTK0188:3Z9WI9EOZ0VH4UYCBZG7L7YVYNEKHS", "current_trial": 111, "dateTime": 1509478442127, "trialdata": {"rt": -1000, "stimulus": "/static/audio/wordpool/SOFTBALL.wav", "key_press": -1, "type": "PRES_AUD", "word": "softball", "wordID": 1342, "conditions": [24, 1600, "a", 24000], "trial": 2, "serialpos": 22, "trial_type": "single-audio", "trial_index": 111, "time_elapsed": 508368, "internal_node_id": "0.0-84.0"}}, {"uniqueid": "MTK0188:3Z9WI9EOZ0VH4UYCBZG7L7YVYNEKHS", "current_trial": 112, "dateTime": 1509478444546, "trialdata": {"rt": -1000, "stimulus": "/static/audio/wordpool/PANTHER.wav", "key_press": -1, "type": "PRES_AUD", "word": "panther", "wordID": 1008, "conditions": [24, 1600, "a", 24000], "trial": 2, "serialpos": 23, "trial_type": "single-audio", "trial_index": 112, "time_elapsed": 510787, "internal_node_id": "0.0-85.0"}}, {"uniqueid": "MTK0188:3Z9WI9EOZ0VH4UYCBZG7L7YVYNEKHS", "current_trial": 113, "dateTime": 1509478445804, "trialdata": {"rt": -1, "stimulus": "", "key_press": -1, "type": "PRE_RECALL_DELAY", "trial_type": "single-stim", "trial_index": 113, "time_elapsed": 512045, "internal_node_id": "0.0-86.0-0.0"}}, {"uniqueid": "MTK0188:3Z9WI9EOZ0VH4UYCBZG7L7YVYNEKHS", "current_trial": 114, "dateTime": 1509478446305, "trialdata": {"rt": -1000, "stimulus": "/static/audio/400Hz.wav", "key_press": -1, "type": "PRE_RECALL_ALERT", "trial_type": "single-audio", "trial_index": 114, "time_elapsed": 512546, "internal_node_id": "0.0-87.0"}}, {"uniqueid": "MTK0188:3Z9WI9EOZ0VH4UYCBZG7L7YVYNEKHS", "current_trial": 115, "dateTime": 1509478506309, "trialdata": {"rt": [3376, 5743, 7104, 8768, 15248], "recwords": ["panther", "softball", "cobra", "garden", "barley"], "type": "FREE_RECALL", "conditions": [24, 1600, "a", 24000], "trial": 2, "trial_type": "free-recall", "trial_index": 115, "time_elapsed": 572548, "internal_node_id": "0.0-88.0-0.0"}}, {"uniqueid": "MTK0188:3Z9WI9EOZ0VH4UYCBZG7L7YVYNEKHS", "current_trial": 116, "dateTime": 1509478510506, "trialdata": {"rt": 2195, "key_press": 13, "type": "INSTRUCTIONS", "trial_type": "text", "trial_index": 116, "time_elapsed": 576746, "internal_node_id": "0.0-89.0"}}, {"uniqueid": "MTK0188:3Z9WI9EOZ0VH4UYCBZG7L7YVYNEKHS", "current_trial": 117, "dateTime": 1509478536509, "trialdata": {"rt": [5838, 9278, 13302, 15614, 17846], "responses": ["24", "15", "20", "17", "17"], "num1": [9, 7, 4, 7, 4, 7], "num2": [6, 1, 9, 5, 6, 8], "num3": [9, 7, 7, 5, 7, 8], "type": "DISTRACTOR", "conditions": [24, 800, "v", 24000], "trial": 3, "trial_type": "math-distractor", "trial_index": 117, "time_elapsed": 602749, "internal_node_id": "0.0-90.0"}}, {"uniqueid": "MTK0188:3Z9WI9EOZ0VH4UYCBZG7L7YVYNEKHS", "current_trial": 118, "dateTime": 1509478539514, "trialdata": {"rt": -1, "stimulus": "<p id=\"stim\">10</p>", "key_press": -1, "trial_type": "single-stim", "trial_index": 118, "time_elapsed": 605755, "internal_node_id": "0.0-91.0-0.0"}}, {"uniqueid": "MTK0188:3Z9WI9EOZ0VH4UYCBZG7L7YVYNEKHS", "current_trial": 119, "dateTime": 1509478540515, "trialdata": {"rt": -1, "stimulus": "<p id=\"stim\">9</p>", "key_press": -1, "trial_type": "single-stim", "trial_index": 119, "time_elapsed": 606756, "internal_node_id": "0.0-91.0-1.0"}}, {"uniqueid": "MTK0188:3Z9WI9EOZ0VH4UYCBZG7L7YVYNEKHS", "current_trial": 120, "dateTime": 1509478541516, "trialdata": {"rt": -1, "stimulus": "<p id=\"stim\">8</p>", "key_press": -1, "trial_type": "single-stim", "trial_index": 120, "time_elapsed": 607757, "internal_node_id": "0.0-91.0-2.0"}}, {"uniqueid": "MTK0188:3Z9WI9EOZ0VH4UYCBZG7L7YVYNEKHS", "current_trial": 121, "dateTime": 1509478542517, "trialdata": {"rt": -1, "stimulus": "<p id=\"stim\">7</p>", "key_press": -1, "trial_type": "single-stim", "trial_index": 121, "time_elapsed": 608758, "internal_node_id": "0.0-91.0-3.0"}}, {"uniqueid": "MTK0188:3Z9WI9EOZ0VH4UYCBZG7L7YVYNEKHS", "current_trial": 122, "dateTime": 1509478543519, "trialdata": {"rt": -1, "stimulus": "<p id=\"stim\">6</p>", "key_press": -1, "trial_type": "single-stim", "trial_index": 122, "time_elapsed": 609760, "internal_node_id": "0.0-91.0-4.0"}}, {"uniqueid": "MTK0188:3Z9WI9EOZ0VH4UYCBZG7L7YVYNEKHS", "current_trial": 123, "dateTime": 1509478544521, "trialdata": {"rt": -1, "stimulus": "<p id=\"stim\">5</p>", "key_press": -1, "trial_type": "single-stim", "trial_index": 123, "time_elapsed": 610762, "internal_node_id": "0.0-91.0-5.0"}}, {"uniqueid": "MTK0188:3Z9WI9EOZ0VH4UYCBZG7L7YVYNEKHS", "current_trial": 124, "dateTime": 1509478545522, "trialdata": {"rt": -1, "stimulus": "<p id=\"stim\">4</p>", "key_press": -1, "trial_type": "single-stim", "trial_index": 124, "time_elapsed": 611763, "internal_node_id": "0.0-91.0-6.0"}}, {"uniqueid": "MTK0188:3Z9WI9EOZ0VH4UYCBZG7L7YVYNEKHS", "current_trial": 125, "dateTime": 1509478546524, "trialdata": {"rt": -1, "stimulus": "<p id=\"stim\">3</p>", "key_press": -1, "trial_type": "single-stim", "trial_index": 125, "time_elapsed": 612765, "internal_node_id": "0.0-91.0-7.0"}}, {"uniqueid": "MTK0188:3Z9WI9EOZ0VH4UYCBZG7L7YVYNEKHS", "current_trial": 126, "dateTime": 1509478547525, "trialdata": {"rt": -1, "stimulus": "<p id=\"stim\">2</p>", "key_press": -1, "trial_type": "single-stim", "trial_index": 126, "time_elapsed": 613766, "internal_node_id": "0.0-91.0-8.0"}}, {"uniqueid": "MTK0188:3Z9WI9EOZ0VH4UYCBZG7L7YVYNEKHS", "current_trial": 127, "dateTime": 1509478548527, "trialdata": {"rt": -1, "stimulus": "<p id=\"stim\">1</p>", "key_press": -1, "trial_type": "single-stim", "trial_index": 127, "time_elapsed": 614768, "internal_node_id": "0.0-91.0-9.0"}}, {"uniqueid": "MTK0188:3Z9WI9EOZ0VH4UYCBZG7L7YVYNEKHS", "current_trial": 128, "dateTime": 1509478550028, "trialdata": {"rt": -1, "stimulus": "<p id=\"stim\">+</p>", "key_press": -1, "type": "FIXATION", "trial_type": "single-stim", "trial_index": 128, "time_elapsed": 616268, "internal_node_id": "0.0-92.0-0.0"}}, {"uniqueid": "MTK0188:3Z9WI9EOZ0VH4UYCBZG7L7YVYNEKHS", "current_trial": 129, "dateTime": 1509478550829, "trialdata": {"rt": -1, "stimulus": "<p id=\"stim\">CRAB</p>", "key_press": -1, "type": "PRES_VIS", "word": "crab", "wordID": 396, "conditions": [24, 800, "v", 24000], "trial": 3, "serialpos": 0, "trial_type": "single-stim", "trial_index": 129, "time_elapsed": 617070, "internal_node_id": "0.0-93.0"}}, {"uniqueid": "MTK0188:3Z9WI9EOZ0VH4UYCBZG7L7YVYNEKHS", "current_trial": 130, "dateTime": 1509478552630, "trialdata": {"rt": -1, "stimulus": "<p id=\"stim\">LUMBER</p>", "key_press": -1, "type": "PRES_VIS", "word": "lumber", "wordID": 847, "conditions": [24, 800, "v", 24000], "trial": 3, "serialpos": 1, "trial_type": "single-stim", "trial_index": 130, "time_elapsed": 618870, "internal_node_id": "0.0-94.0"}}, {"uniqueid": "MTK0188:3Z9WI9EOZ0VH4UYCBZG7L7YVYNEKHS", "current_trial": 131, "dateTime": 1509478554419, "trialdata": {"rt": -1, "stimulus": "<p id=\"stim\">CHURCH</p>", "key_press": -1, "type": "PRES_VIS", "word": "church", "wordID": 306, "conditions": [24, 800, "v", 24000], "trial": 3, "serialpos": 2, "trial_type": "single-stim", "trial_index": 131, "time_elapsed": 620660, "internal_node_id": "0.0-95.0"}}, {"uniqueid": "MTK0188:3Z9WI9EOZ0VH4UYCBZG7L7YVYNEKHS", "current_trial": 132, "dateTime": 1509478556211, "trialdata": {"rt": -1, "stimulus": "<p id=\"stim\">CLAM</p>", "key_press": -1, "type": "PRES_VIS", "word": "clam", "wordID": 314, "conditions": [24, 800, "v", 24000], "trial": 3, "serialpos": 3, "trial_type": "single-stim", "trial_index": 132, "time_elapsed": 622451, "internal_node_id": "0.0-96.0"}}, {"uniqueid": "MTK0188:3Z9WI9EOZ0VH4UYCBZG7L7YVYNEKHS", "current_trial": 133, "dateTime": 1509478557917, "trialdata": {"rt": -1, "stimulus": "<p id=\"stim\">LIGHTNING</p>", "key_press": -1, "type": "PRES_VIS", "word": "lightning", "wordID": 819, "conditions": [24, 800, "v", 24000], "trial": 3, "serialpos": 4, "trial_type": "single-stim", "trial_index": 133, "time_elapsed": 624158, "internal_node_id": "0.0-97.0"}}, {"uniqueid": "MTK0188:3Z9WI9EOZ0VH4UYCBZG7L7YVYNEKHS", "current_trial": 134, "dateTime": 1509478559695, "trialdata": {"rt": -1, "stimulus": "<p id=\"stim\">TROMBONE</p>", "key_press": -1, "type": "PRES_VIS", "word": "trombone", "wordID": 1507, "conditions": [24, 800, "v", 24000], "trial": 3, "serialpos": 5, "trial_type": "single-stim", "trial_index": 134, "time_elapsed": 625936, "internal_node_id": "0.0-98.0"}}, {"uniqueid": "MTK0188:3Z9WI9EOZ0VH4UYCBZG7L7YVYNEKHS", "current_trial": 135, "dateTime": 1509478561551, "trialdata": {"rt": -1, "stimulus": "<p id=\"stim\">GUITAR</p>", "key_press": -1, "type": "PRES_VIS", "word": "guitar", "wordID": 669, "conditions": [24, 800, "v", 24000], "trial": 3, "serialpos": 6, "trial_type": "single-stim", "trial_index": 135, "time_elapsed": 627792, "internal_node_id": "0.0-99.0"}}, {"uniqueid": "MTK0188:3Z9WI9EOZ0VH4UYCBZG7L7YVYNEKHS", "current_trial": 136, "dateTime": 1509478563170, "trialdata": {"rt": -1, "stimulus": "<p id=\"stim\">PREACHER</p>", "key_press": -1, "type": "PRES_VIS", "word": "preacher", "wordID": 1118, "conditions": [24, 800, "v", 24000], "trial": 3, "serialpos": 7, "trial_type": "single-stim", "trial_index": 136, "time_elapsed": 629411, "internal_node_id": "0.0-100.0"}}, {"uniqueid": "MTK0188:3Z9WI9EOZ0VH4UYCBZG7L7YVYNEKHS", "current_trial": 137, "dateTime": 1509478564890, "trialdata": {"rt": -1, "stimulus": "<p id=\"stim\">BASEMENT</p>", "key_press": -1, "type": "PRES_VIS", "word": "basement", "wordID": 93, "conditions": [24, 800, "v", 24000], "trial": 3, "serialpos": 8, "trial_type": "single-stim", "trial_index": 137, "time_elapsed": 631131, "internal_node_id": "0.0-101.0"}}, {"uniqueid": "MTK0188:3Z9WI9EOZ0VH4UYCBZG7L7YVYNEKHS", "current_trial": 138, "dateTime": 1509478566856, "trialdata": {"rt": -1, "stimulus": "<p id=\"stim\">LABEL</p>", "key_press": -1, "type": "PRES_VIS", "word": "label", "wordID": 789, "conditions": [24, 800, "v", 24000], "trial": 3, "serialpos": 9, "trial_type": "single-stim", "trial_index": 138, "time_elapsed": 633097, "internal_node_id": "0.0-102.0"}}, {"uniqueid": "MTK0188:3Z9WI9EOZ0VH4UYCBZG7L7YVYNEKHS", "current_trial": 139, "dateTime": 1509478568514, "trialdata": {"rt": -1, "stimulus": "<p id=\"stim\">BUTCHER</p>", "key_press": -1, "type": "PRES_VIS", "word": "butcher", "wordID": 202, "conditions": [24, 800, "v", 24000], "trial": 3, "serialpos": 10, "trial_type": "single-stim", "trial_index": 139, "time_elapsed": 634754, "internal_node_id": "0.0-103.0"}}, {"uniqueid": "MTK0188:3Z9WI9EOZ0VH4UYCBZG7L7YVYNEKHS", "current_trial": 140, "dateTime": 1509478570443, "trialdata": {"rt": -1, "stimulus": "<p id=\"stim\">NOTEBOOK</p>", "key_press": -1, "type": "PRES_VIS", "word": "notebook", "wordID": 958, "conditions": [24, 800, "v", 24000], "trial": 3, "serialpos": 11, "trial_type": "single-stim", "trial_index": 140, "time_elapsed": 636684, "internal_node_id": "0.0-104.0"}}, {"uniqueid": "MTK0188:3Z9WI9EOZ0VH4UYCBZG7L7YVYNEKHS", "current_trial": 141, "dateTime": 1509478572314, "trialdata": {"rt": -1, "stimulus": "<p id=\"stim\">SCRIBBLE</p>", "key_press": -1, "type": "PRES_VIS", "word": "scribble", "wordID": 1255, "conditions": [24, 800, "v", 24000], "trial": 3, "serialpos": 12, "trial_type": "single-stim", "trial_index": 141, "time_elapsed": 638555, "internal_node_id": "0.0-105.0"}}, {"uniqueid": "MTK0188:3Z9WI9EOZ0VH4UYCBZG7L7YVYNEKHS", "current_trial": 142, "dateTime": 1509478574146, "trialdata": {"rt": -1, "stimulus": "<p id=\"stim\">OYSTER</p>", "key_press": -1, "type": "PRES_VIS", "word": "oyster", "wordID": 994, "conditions": [24, 800, "v", 24000], "trial": 3, "serialpos": 13, "trial_type": "single-stim", "trial_index": 142, "time_elapsed": 640387, "internal_node_id": "0.0-106.0"}}, {"uniqueid": "MTK0188:3Z9WI9EOZ0VH4UYCBZG7L7YVYNEKHS", "current_trial": 143, "dateTime": 1509478576079, "trialdata": {"rt": -1, "stimulus": "<p id=\"stim\">POLICE</p>", "key_press": -1, "type": "PRES_VIS", "word": "police", "wordID": 1097, "conditions": [24, 800, "v", 24000], "trial": 3, "serialpos": 14, "trial_type": "single-stim", "trial_index": 143, "time_elapsed": 642320, "internal_node_id": "0.0-107.0"}}, {"uniqueid": "MTK0188:3Z9WI9EOZ0VH4UYCBZG7L7YVYNEKHS", "current_trial": 144, "dateTime": 1509478577872, "trialdata": {"rt": -1, "stimulus": "<p id=\"stim\">PATROL</p>", "key_press": -1, "type": "PRES_VIS", "word": "patrol", "wordID": 1026, "conditions": [24, 800, "v", 24000], "trial": 3, "serialpos": 15, "trial_type": "single-stim", "trial_index": 144, "time_elapsed": 644113, "internal_node_id": "0.0-108.0"}}, {"uniqueid": "MTK0188:3Z9WI9EOZ0VH4UYCBZG7L7YVYNEKHS", "current_trial": 145, "dateTime": 1509478579746, "trialdata": {"rt": -1, "stimulus": "<p id=\"stim\">RACKET</p>", "key_press": -1, "type": "PRES_VIS", "word": "racket", "wordID": 1154, "conditions": [24, 800, "v", 24000], "trial": 3, "serialpos": 16, "trial_type": "single-stim", "trial_index": 145, "time_elapsed": 645987, "internal_node_id": "0.0-109.0"}}, {"uniqueid": "MTK0188:3Z9WI9EOZ0VH4UYCBZG7L7YVYNEKHS", "current_trial": 146, "dateTime": 1509478581423, "trialdata": {"rt": -1, "stimulus": "<p id=\"stim\">SCALLOP</p>", "key_press": -1, "type": "PRES_VIS", "word": "scallop", "wordID": 1241, "conditions": [24, 800, "v", 24000], "trial": 3, "serialpos": 17, "trial_type": "single-stim", "trial_index": 146, "time_elapsed": 647664, "internal_node_id": "0.0-110.0"}}, {"uniqueid": "MTK0188:3Z9WI9EOZ0VH4UYCBZG7L7YVYNEKHS", "current_trial": 147, "dateTime": 1509478583143, "trialdata": {"rt": -1, "stimulus": "<p id=\"stim\">SALT</p>", "key_press": -1, "type": "PRES_VIS", "word": "salt", "wordID": 1228, "conditions": [24, 800, "v", 24000], "trial": 3, "serialpos": 18, "trial_type": "single-stim", "trial_index": 147, "time_elapsed": 649384, "internal_node_id": "0.0-111.0"}}, {"uniqueid": "MTK0188:3Z9WI9EOZ0VH4UYCBZG7L7YVYNEKHS", "current_trial": 148, "dateTime": 1509478584920, "trialdata": {"rt": -1, "stimulus": "<p id=\"stim\">FRUIT</p>", "key_press": -1, "type": "PRES_VIS", "word": "fruit", "wordID": 609, "conditions": [24, 800, "v", 24000], "trial": 3, "serialpos": 19, "trial_type": "single-stim", "trial_index": 148, "time_elapsed": 651161, "internal_node_id": "0.0-112.0"}}, {"uniqueid": "MTK0188:3Z9WI9EOZ0VH4UYCBZG7L7YVYNEKHS", "current_trial": 149, "dateTime": 1509478586640, "trialdata": {"rt": -1, "stimulus": "<p id=\"stim\">MATTRESS</p>", "key_press": -1, "type": "PRES_VIS", "word": "mattress", "wordID": 878, "conditions": [24, 800, "v", 24000], "trial": 3, "serialpos": 20, "trial_type": "single-stim", "trial_index": 149, "time_elapsed": 652881, "internal_node_id": "0.0-113.0"}}, {"uniqueid": "MTK0188:3Z9WI9EOZ0VH4UYCBZG7L7YVYNEKHS", "current_trial": 150, "dateTime": 1509478588575, "trialdata": {"rt": -1, "stimulus": "<p id=\"stim\">ONION</p>", "key_press": -1, "type": "PRES_VIS", "word": "onion", "wordID": 976, "conditions": [24, 800, "v", 24000], "trial": 3, "serialpos": 21, "trial_type": "single-stim", "trial_index": 150, "time_elapsed": 654816, "internal_node_id": "0.0-114.0"}}, {"uniqueid": "MTK0188:3Z9WI9EOZ0VH4UYCBZG7L7YVYNEKHS", "current_trial": 151, "dateTime": 1509478590490, "trialdata": {"rt": -1, "stimulus": "<p id=\"stim\">CONVICT</p>", "key_press": -1, "type": "PRES_VIS", "word": "convict", "wordID": 370, "conditions": [24, 800, "v", 24000], "trial": 3, "serialpos": 22, "trial_type": "single-stim", "trial_index": 151, "time_elapsed": 656731, "internal_node_id": "0.0-115.0"}}, {"uniqueid": "MTK0188:3Z9WI9EOZ0VH4UYCBZG7L7YVYNEKHS", "current_trial": 152, "dateTime": 1509478592105, "trialdata": {"rt": -1, "stimulus": "<p id=\"stim\">MARS</p>", "key_press": -1, "type": "PRES_VIS", "word": "mars", "wordID": 872, "conditions": [24, 800, "v", 24000], "trial": 3, "serialpos": 23, "trial_type": "single-stim", "trial_index": 152, "time_elapsed": 658346, "internal_node_id": "0.0-116.0"}}, {"uniqueid": "MTK0188:3Z9WI9EOZ0VH4UYCBZG7L7YVYNEKHS", "current_trial": 153, "dateTime": 1509478594213, "trialdata": {"rt": -1, "stimulus": "", "key_press": -1, "type": "PRE_RECALL_DELAY", "trial_type": "single-stim", "trial_index": 153, "time_elapsed": 660454, "internal_node_id": "0.0-117.0-0.0"}}, {"uniqueid": "MTK0188:3Z9WI9EOZ0VH4UYCBZG7L7YVYNEKHS", "current_trial": 154, "dateTime": 1509478594715, "trialdata": {"rt": -1000, "stimulus": "/static/audio/400Hz.wav", "key_press": -1, "type": "PRE_RECALL_ALERT", "trial_type": "single-audio", "trial_index": 154, "time_elapsed": 660956, "internal_node_id": "0.0-118.0"}}, {"uniqueid": "MTK0188:3Z9WI9EOZ0VH4UYCBZG7L7YVYNEKHS", "current_trial": 155, "dateTime": 1509478654719, "trialdata": {"rt": [3413, 5869, 7974, 9190, 10270, 11598, 12965, 14046, 20942, 22630, 40870], "recwords": ["mattress", "onion", "convict", "clam", "crab", "police", "patrol", "racket", "notebook", "scribble", "butcher"], "type": "FREE_RECALL", "conditions": [24, 800, "v", 24000], "trial": 3, "trial_type": "free-recall", "trial_index": 155, "time_elapsed": 720958, "internal_node_id": "0.0-119.0-0.0"}}, {"uniqueid": "MTK0188:3Z9WI9EOZ0VH4UYCBZG7L7YVYNEKHS", "current_trial": 156, "dateTime": 1509478659178, "trialdata": {"rt": 2457, "key_press": 13, "type": "INSTRUCTIONS", "trial_type": "text", "trial_index": 156, "time_elapsed": 725419, "internal_node_id": "0.0-120.0"}}, {"uniqueid": "MTK0188:3Z9WI9EOZ0VH4UYCBZG7L7YVYNEKHS", "current_trial": 157, "dateTime": 1509478673180, "trialdata": {"rt": [5502, 8549], "responses": ["24", "10"], "num1": [6, 6, 4], "num2": [9, 1, 1], "num3": [9, 3, 2], "type": "DISTRACTOR", "conditions": [24, 800, "v", 12000], "trial": 4, "trial_type": "math-distractor", "trial_index": 157, "time_elapsed": 739421, "internal_node_id": "0.0-121.0"}}, {"uniqueid": "MTK0188:3Z9WI9EOZ0VH4UYCBZG7L7YVYNEKHS", "current_trial": 158, "dateTime": 1509478676183, "trialdata": {"rt": -1, "stimulus": "<p id=\"stim\">10</p>", "key_press": -1, "trial_type": "single-stim", "trial_index": 158, "time_elapsed": 742424, "internal_node_id": "0.0-122.0-0.0"}}, {"uniqueid": "MTK0188:3Z9WI9EOZ0VH4UYCBZG7L7YVYNEKHS", "current_trial": 159, "dateTime": 1509478677184, "trialdata": {"rt": -1, "stimulus": "<p id=\"stim\">9</p>", "key_press": -1, "trial_type": "single-stim", "trial_index": 159, "time_elapsed": 743425, "internal_node_id": "0.0-122.0-1.0"}}, {"uniqueid": "MTK0188:3Z9WI9EOZ0VH4UYCBZG7L7YVYNEKHS", "current_trial": 160, "dateTime": 1509478678185, "trialdata": {"rt": -1, "stimulus": "<p id=\"stim\">8</p>", "key_press": -1, "trial_type": "single-stim", "trial_index": 160, "time_elapsed": 744426, "internal_node_id": "0.0-122.0-2.0"}}, {"uniqueid": "MTK0188:3Z9WI9EOZ0VH4UYCBZG7L7YVYNEKHS", "current_trial": 161, "dateTime": 1509478679186, "trialdata": {"rt": -1, "stimulus": "<p id=\"stim\">7</p>", "key_press": -1, "trial_type": "single-stim", "trial_index": 161, "time_elapsed": 745427, "internal_node_id": "0.0-122.0-3.0"}}, {"uniqueid": "MTK0188:3Z9WI9EOZ0VH4UYCBZG7L7YVYNEKHS", "current_trial": 162, "dateTime": 1509478680188, "trialdata": {"rt": -1, "stimulus": "<p id=\"stim\">6</p>", "key_press": -1, "trial_type": "single-stim", "trial_index": 162, "time_elapsed": 746429, "internal_node_id": "0.0-122.0-4.0"}}, {"uniqueid": "MTK0188:3Z9WI9EOZ0VH4UYCBZG7L7YVYNEKHS", "current_trial": 163, "dateTime": 1509478681190, "trialdata": {"rt": -1, "stimulus": "<p id=\"stim\">5</p>", "key_press": -1, "trial_type": "single-stim", "trial_index": 163, "time_elapsed": 747431, "internal_node_id": "0.0-122.0-5.0"}}, {"uniqueid": "MTK0188:3Z9WI9EOZ0VH4UYCBZG7L7YVYNEKHS", "current_trial": 164, "dateTime": 1509478682192, "trialdata": {"rt": -1, "stimulus": "<p id=\"stim\">4</p>", "key_press": -1, "trial_type": "single-stim", "trial_index": 164, "time_elapsed": 748433, "internal_node_id": "0.0-122.0-6.0"}}, {"uniqueid": "MTK0188:3Z9WI9EOZ0VH4UYCBZG7L7YVYNEKHS", "current_trial": 165, "dateTime": 1509478683193, "trialdata": {"rt": -1, "stimulus": "<p id=\"stim\">3</p>", "key_press": -1, "trial_type": "single-stim", "trial_index": 165, "time_elapsed": 749434, "internal_node_id": "0.0-122.0-7.0"}}, {"uniqueid": "MTK0188:3Z9WI9EOZ0VH4UYCBZG7L7YVYNEKHS", "current_trial": 166, "dateTime": 1509478684194, "trialdata": {"rt": -1, "stimulus": "<p id=\"stim\">2</p>", "key_press": -1, "trial_type": "single-stim", "trial_index": 166, "time_elapsed": 750435, "internal_node_id": "0.0-122.0-8.0"}}, {"uniqueid": "MTK0188:3Z9WI9EOZ0VH4UYCBZG7L7YVYNEKHS", "current_trial": 167, "dateTime": 1509478685195, "trialdata": {"rt": -1, "stimulus": "<p id=\"stim\">1</p>", "key_press": -1, "trial_type": "single-stim", "trial_index": 167, "time_elapsed": 751436, "internal_node_id": "0.0-122.0-9.0"}}, {"uniqueid": "MTK0188:3Z9WI9EOZ0VH4UYCBZG7L7YVYNEKHS", "current_trial": 168, "dateTime": 1509478686696, "trialdata": {"rt": -1, "stimulus": "<p id=\"stim\">+</p>", "key_press": -1, "type": "FIXATION", "trial_type": "single-stim", "trial_index": 168, "time_elapsed": 752937, "internal_node_id": "0.0-123.0-0.0"}}, {"uniqueid": "MTK0188:3Z9WI9EOZ0VH4UYCBZG7L7YVYNEKHS", "current_trial": 169, "dateTime": 1509478687498, "trialdata": {"rt": -1, "stimulus": "<p id=\"stim\">CRATER</p>", "key_press": -1, "type": "PRES_VIS", "word": "crater", "wordID": 399, "conditions": [24, 800, "v", 12000], "trial": 4, "serialpos": 0, "trial_type": "single-stim", "trial_index": 169, "time_elapsed": 753739, "internal_node_id": "0.0-124.0"}}, {"uniqueid": "MTK0188:3Z9WI9EOZ0VH4UYCBZG7L7YVYNEKHS", "current_trial": 170, "dateTime": 1509478689162, "trialdata": {"rt": -1, "stimulus": "<p id=\"stim\">DRESS</p>", "key_press": -1, "type": "PRES_VIS", "word": "dress", "wordID": 494, "conditions": [24, 800, "v", 12000], "trial": 4, "serialpos": 1, "trial_type": "single-stim", "trial_index": 170, "time_elapsed": 755403, "internal_node_id": "0.0-125.0"}}, {"uniqueid": "MTK0188:3Z9WI9EOZ0VH4UYCBZG7L7YVYNEKHS", "current_trial": 171, "dateTime": 1509478691156, "trialdata": {"rt": -1, "stimulus": "<p id=\"stim\">SEAFOOD</p>", "key_press": -1, "type": "PRES_VIS", "word": "seafood", "wordID": 1259, "conditions": [24, 800, "v", 12000], "trial": 4, "serialpos": 2, "trial_type": "single-stim", "trial_index": 171, "time_elapsed": 757397, "internal_node_id": "0.0-126.0"}}, {"uniqueid": "MTK0188:3Z9WI9EOZ0VH4UYCBZG7L7YVYNEKHS", "current_trial": 172, "dateTime": 1509478693088, "trialdata": {"rt": -1, "stimulus": "<p id=\"stim\">PIGEON</p>", "key_press": -1, "type": "PRES_VIS", "word": "pigeon", "wordID": 1064, "conditions": [24, 800, "v", 12000], "trial": 4, "serialpos": 3, "trial_type": "single-stim", "trial_index": 172, "time_elapsed": 759329, "internal_node_id": "0.0-127.0"}}, {"uniqueid": "MTK0188:3Z9WI9EOZ0VH4UYCBZG7L7YVYNEKHS", "current_trial": 173, "dateTime": 1509478694716, "trialdata": {"rt": -1, "stimulus": "<p id=\"stim\">CHIPMUNK</p>", "key_press": -1, "type": "PRES_VIS", "word": "chipmunk", "wordID": 303, "conditions": [24, 800, "v", 12000], "trial": 4, "serialpos": 4, "trial_type": "single-stim", "trial_index": 173, "time_elapsed": 760957, "internal_node_id": "0.0-128.0"}}, {"uniqueid": "MTK0188:3Z9WI9EOZ0VH4UYCBZG7L7YVYNEKHS", "current_trial": 174, "dateTime": 1509478696626, "trialdata": {"rt": -1, "stimulus": "<p id=\"stim\">SALMON</p>", "key_press": -1, "type": "PRES_VIS", "word": "salmon", "wordID": 1226, "conditions": [24, 800, "v", 12000], "trial": 4, "serialpos": 5, "trial_type": "single-stim", "trial_index": 174, "time_elapsed": 762867, "internal_node_id": "0.0-129.0"}}, {"uniqueid": "MTK0188:3Z9WI9EOZ0VH4UYCBZG7L7YVYNEKHS", "current_trial": 175, "dateTime": 1509478698259, "trialdata": {"rt": -1, "stimulus": "<p id=\"stim\">CUPBOARD</p>", "key_press": -1, "type": "PRES_VIS", "word": "cupboard", "wordID": 424, "conditions": [24, 800, "v", 12000], "trial": 4, "serialpos": 6, "trial_type": "single-stim", "trial_index": 175, "time_elapsed": 764500, "internal_node_id": "0.0-130.0"}}, {"uniqueid": "MTK0188:3Z9WI9EOZ0VH4UYCBZG7L7YVYNEKHS", "current_trial": 176, "dateTime": 1509478699902, "trialdata": {"rt": -1, "stimulus": "<p id=\"stim\">DRESSER</p>", "key_press": -1, "type": "PRES_VIS", "word": "dresser", "wordID": 495, "conditions": [24, 800, "v", 12000], "trial": 4, "serialpos": 7, "trial_type": "single-stim", "trial_index": 176, "time_elapsed": 766143, "internal_node_id": "0.0-131.0"}}, {"uniqueid": "MTK0188:3Z9WI9EOZ0VH4UYCBZG7L7YVYNEKHS", "current_trial": 177, "dateTime": 1509478701618, "trialdata": {"rt": -1, "stimulus": "<p id=\"stim\">PASTA</p>", "key_press": -1, "type": "PRES_VIS", "word": "pasta", "wordID": 1020, "conditions": [24, 800, "v", 12000], "trial": 4, "serialpos": 8, "trial_type": "single-stim", "trial_index": 177, "time_elapsed": 767859, "internal_node_id": "0.0-132.0"}}, {"uniqueid": "MTK0188:3Z9WI9EOZ0VH4UYCBZG7L7YVYNEKHS", "current_trial": 178, "dateTime": 1509478703266, "trialdata": {"rt": -1, "stimulus": "<p id=\"stim\">ZEBRA</p>", "key_press": -1, "type": "PRES_VIS", "word": "zebra", "wordID": 1634, "conditions": [24, 800, "v", 12000], "trial": 4, "serialpos": 9, "trial_type": "single-stim", "trial_index": 178, "time_elapsed": 769507, "internal_node_id": "0.0-133.0"}}, {"uniqueid": "MTK0188:3Z9WI9EOZ0VH4UYCBZG7L7YVYNEKHS", "current_trial": 179, "dateTime": 1509478704952, "trialdata": {"rt": -1, "stimulus": "<p id=\"stim\">SUPPER</p>", "key_press": -1, "type": "PRES_VIS", "word": "supper", "wordID": 1410, "conditions": [24, 800, "v", 12000], "trial": 4, "serialpos": 10, "trial_type": "single-stim", "trial_index": 179, "time_elapsed": 771193, "internal_node_id": "0.0-134.0"}}, {"uniqueid": "MTK0188:3Z9WI9EOZ0VH4UYCBZG7L7YVYNEKHS", "current_trial": 180, "dateTime": 1509478706686, "trialdata": {"rt": -1, "stimulus": "<p id=\"stim\">PATIENT</p>", "key_press": -1, "type": "PRES_VIS", "word": "patient", "wordID": 1023, "conditions": [24, 800, "v", 12000], "trial": 4, "serialpos": 11, "trial_type": "single-stim", "trial_index": 180, "time_elapsed": 772927, "internal_node_id": "0.0-135.0"}}, {"uniqueid": "MTK0188:3Z9WI9EOZ0VH4UYCBZG7L7YVYNEKHS", "current_trial": 181, "dateTime": 1509478708290, "trialdata": {"rt": -1, "stimulus": "<p id=\"stim\">TURTLE</p>", "key_press": -1, "type": "PRES_VIS", "word": "turtle", "wordID": 1521, "conditions": [24, 800, "v", 12000], "trial": 4, "serialpos": 12, "trial_type": "single-stim", "trial_index": 181, "time_elapsed": 774531, "internal_node_id": "0.0-136.0"}}, {"uniqueid": "MTK0188:3Z9WI9EOZ0VH4UYCBZG7L7YVYNEKHS", "current_trial": 182, "dateTime": 1509478710261, "trialdata": {"rt": -1, "stimulus": "<p id=\"stim\">ITEM</p>", "key_press": -1, "type": "PRES_VIS", "word": "item", "wordID": 745, "conditions": [24, 800, "v", 12000], "trial": 4, "serialpos": 13, "trial_type": "single-stim", "trial_index": 182, "time_elapsed": 776502, "internal_node_id": "0.0-137.0"}}, {"uniqueid": "MTK0188:3Z9WI9EOZ0VH4UYCBZG7L7YVYNEKHS", "current_trial": 183, "dateTime": 1509478712197, "trialdata": {"rt": -1, "stimulus": "<p id=\"stim\">KIDNEY</p>", "key_press": -1, "type": "PRES_VIS", "word": "kidney", "wordID": 775, "conditions": [24, 800, "v", 12000], "trial": 4, "serialpos": 14, "trial_type": "single-stim", "trial_index": 183, "time_elapsed": 778438, "internal_node_id": "0.0-138.0"}}, {"uniqueid": "MTK0188:3Z9WI9EOZ0VH4UYCBZG7L7YVYNEKHS", "current_trial": 184, "dateTime": 1509478714001, "trialdata": {"rt": -1, "stimulus": "<p id=\"stim\">PORK</p>", "key_press": -1, "type": "PRES_VIS", "word": "pork", "wordID": 1107, "conditions": [24, 800, "v", 12000], "trial": 4, "serialpos": 15, "trial_type": "single-stim", "trial_index": 184, "time_elapsed": 780242, "internal_node_id": "0.0-139.0"}}, {"uniqueid": "MTK0188:3Z9WI9EOZ0VH4UYCBZG7L7YVYNEKHS", "current_trial": 185, "dateTime": 1509478715891, "trialdata": {"rt": -1, "stimulus": "<p id=\"stim\">DONKEY</p>", "key_press": -1, "type": "PRES_VIS", "word": "donkey", "wordID": 483, "conditions": [24, 800, "v", 12000], "trial": 4, "serialpos": 16, "trial_type": "single-stim", "trial_index": 185, "time_elapsed": 782132, "internal_node_id": "0.0-140.0"}}, {"uniqueid": "MTK0188:3Z9WI9EOZ0VH4UYCBZG7L7YVYNEKHS", "current_trial": 186, "dateTime": 1509478717643, "trialdata": {"rt": -1, "stimulus": "<p id=\"stim\">CAMEL</p>", "key_press": -1, "type": "PRES_VIS", "word": "camel", "wordID": 222, "conditions": [24, 800, "v", 12000], "trial": 4, "serialpos": 17, "trial_type": "single-stim", "trial_index": 186, "time_elapsed": 783884, "internal_node_id": "0.0-141.0"}}, {"uniqueid": "MTK0188:3Z9WI9EOZ0VH4UYCBZG7L7YVYNEKHS", "current_trial": 187, "dateTime": 1509478719631, "trialdata": {"rt": -1, "stimulus": "<p id=\"stim\">BANQUET</p>", "key_press": -1, "type": "PRES_VIS", "word": "banquet", "wordID": 85, "conditions": [24, 800, "v", 12000], "trial": 4, "serialpos": 18, "trial_type": "single-stim", "trial_index": 187, "time_elapsed": 785872, "internal_node_id": "0.0-142.0"}}, {"uniqueid": "MTK0188:3Z9WI9EOZ0VH4UYCBZG7L7YVYNEKHS", "current_trial": 188, "dateTime": 1509478721465, "trialdata": {"rt": -1, "stimulus": "<p id=\"stim\">FLEET</p>", "key_press": -1, "type": "PRES_VIS", "word": "fleet", "wordID": 577, "conditions": [24, 800, "v", 12000], "trial": 4, "serialpos": 19, "trial_type": "single-stim", "trial_index": 188, "time_elapsed": 787706, "internal_node_id": "0.0-143.0"}}, {"uniqueid": "MTK0188:3Z9WI9EOZ0VH4UYCBZG7L7YVYNEKHS", "current_trial": 189, "dateTime": 1509478723183, "trialdata": {"rt": -1, "stimulus": "<p id=\"stim\">SUSPECT</p>", "key_press": -1, "type": "PRES_VIS", "word": "suspect", "wordID": 1414, "conditions": [24, 800, "v", 12000], "trial": 4, "serialpos": 20, "trial_type": "single-stim", "trial_index": 189, "time_elapsed": 789424, "internal_node_id": "0.0-144.0"}}, {"uniqueid": "MTK0188:3Z9WI9EOZ0VH4UYCBZG7L7YVYNEKHS", "current_trial": 190, "dateTime": 1509478725149, "trialdata": {"rt": -1, "stimulus": "<p id=\"stim\">WITNESS</p>", "key_press": -1, "type": "PRES_VIS", "word": "witness", "wordID": 1617, "conditions": [24, 800, "v", 12000], "trial": 4, "serialpos": 21, "trial_type": "single-stim", "trial_index": 190, "time_elapsed": 791390, "internal_node_id": "0.0-145.0"}}, {"uniqueid": "MTK0188:3Z9WI9EOZ0VH4UYCBZG7L7YVYNEKHS", "current_trial": 191, "dateTime": 1509478726883, "trialdata": {"rt": -1, "stimulus": "<p id=\"stim\">FLIPPER</p>", "key_press": -1, "type": "PRES_VIS", "word": "flipper", "wordID": 579, "conditions": [24, 800, "v", 12000], "trial": 4, "serialpos": 22, "trial_type": "single-stim", "trial_index": 191, "time_elapsed": 793124, "internal_node_id": "0.0-146.0"}}, {"uniqueid": "MTK0188:3Z9WI9EOZ0VH4UYCBZG7L7YVYNEKHS", "current_trial": 192, "dateTime": 1509478728605, "trialdata": {"rt": -1, "stimulus": "<p id=\"stim\">MARROW</p>", "key_press": -1, "type": "PRES_VIS", "word": "marrow", "wordID": 871, "conditions": [24, 800, "v", 12000], "trial": 4, "serialpos": 23, "trial_type": "single-stim", "trial_index": 192, "time_elapsed": 794846, "internal_node_id": "0.0-147.0"}}, {"uniqueid": "MTK0188:3Z9WI9EOZ0VH4UYCBZG7L7YVYNEKHS", "current_trial": 193, "dateTime": 1509478731004, "trialdata": {"rt": -1, "stimulus": "", "key_press": -1, "type": "PRE_RECALL_DELAY", "trial_type": "single-stim", "trial_index": 193, "time_elapsed": 797245, "internal_node_id": "0.0-148.0-0.0"}}, {"uniqueid": "MTK0188:3Z9WI9EOZ0VH4UYCBZG7L7YVYNEKHS", "current_trial": 194, "dateTime": 1509478731506, "trialdata": {"rt": -1000, "stimulus": "/static/audio/400Hz.wav", "key_press": -1, "type": "PRE_RECALL_ALERT", "trial_type": "single-audio", "trial_index": 194, "time_elapsed": 797747, "internal_node_id": "0.0-149.0"}}, {"uniqueid": "MTK0188:3Z9WI9EOZ0VH4UYCBZG7L7YVYNEKHS", "current_trial": 195, "dateTime": 1509478791510, "trialdata": {"rt": [2632, 4064, 5695, 7855, 9320, 12415, 17191, 19720, 21815, 33911, 35127], "recwords": ["marrow", "witness", "flipper", "suspect", "dresser", "cupboard", "pokr", "kidney", "monkey", "supper", "pasta"], "type": "FREE_RECALL", "conditions": [24, 800, "v", 12000], "trial": 4, "trial_type": "free-recall", "trial_index": 195, "time_elapsed": 857748, "internal_node_id": "0.0-150.0-0.0"}}, {"uniqueid": "MTK0188:3Z9WI9EOZ0VH4UYCBZG7L7YVYNEKHS", "current_trial": 196, "dateTime": 1509478795297, "trialdata": {"rt": 1784, "key_press": 13, "type": "INSTRUCTIONS", "trial_type": "text", "trial_index": 196, "time_elapsed": 861538, "internal_node_id": "0.0-151.0"}}, {"uniqueid": "MTK0188:3Z9WI9EOZ0VH4UYCBZG7L7YVYNEKHS", "current_trial": 197, "dateTime": 1509478809300, "trialdata": {"rt": [3846, 7470, 9871], "responses": ["17", "8", "17"], "num1": [1, 1, 2, 5], "num2": [9, 4, 8, 9], "num3": [7, 3, 7, 2], "type": "DISTRACTOR", "conditions": [12, 800, "v", 12000], "trial": 5, "trial_type": "math-distractor", "trial_index": 197, "time_elapsed": 875540, "internal_node_id": "0.0-152.0"}}, {"uniqueid": "MTK0188:3Z9WI9EOZ0VH4UYCBZG7L7YVYNEKHS", "current_trial": 198, "dateTime": 1509478812302, "trialdata": {"rt": -1, "stimulus": "<p id=\"stim\">10</p>", "key_press": -1, "trial_type": "single-stim", "trial_index": 198, "time_elapsed": 878543, "internal_node_id": "0.0-153.0-0.0"}}, {"uniqueid": "MTK0188:3Z9WI9EOZ0VH4UYCBZG7L7YVYNEKHS", "current_trial": 199, "dateTime": 1509478813303, "trialdata": {"rt": -1, "stimulus": "<p id=\"stim\">9</p>", "key_press": -1, "trial_type": "single-stim", "trial_index": 199, "time_elapsed": 879544, "internal_node_id": "0.0-153.0-1.0"}}, {"uniqueid": "MTK0188:3Z9WI9EOZ0VH4UYCBZG7L7YVYNEKHS", "current_trial": 200, "dateTime": 1509478814305, "trialdata": {"rt": -1, "stimulus": "<p id=\"stim\">8</p>", "key_press": -1, "trial_type": "single-stim", "trial_index": 200, "time_elapsed": 880546, "internal_node_id": "0.0-153.0-2.0"}}, {"uniqueid": "MTK0188:3Z9WI9EOZ0VH4UYCBZG7L7YVYNEKHS", "current_trial": 201, "dateTime": 1509478815306, "trialdata": {"rt": -1, "stimulus": "<p id=\"stim\">7</p>", "key_press": -1, "trial_type": "single-stim", "trial_index": 201, "time_elapsed": 881547, "internal_node_id": "0.0-153.0-3.0"}}, {"uniqueid": "MTK0188:3Z9WI9EOZ0VH4UYCBZG7L7YVYNEKHS", "current_trial": 202, "dateTime": 1509478816308, "trialdata": {"rt": -1, "stimulus": "<p id=\"stim\">6</p>", "key_press": -1, "trial_type": "single-stim", "trial_index": 202, "time_elapsed": 882549, "internal_node_id": "0.0-153.0-4.0"}}, {"uniqueid": "MTK0188:3Z9WI9EOZ0VH4UYCBZG7L7YVYNEKHS", "current_trial": 203, "dateTime": 1509478817309, "trialdata": {"rt": -1, "stimulus": "<p id=\"stim\">5</p>", "key_press": -1, "trial_type": "single-stim", "trial_index": 203, "time_elapsed": 883550, "internal_node_id": "0.0-153.0-5.0"}}, {"uniqueid": "MTK0188:3Z9WI9EOZ0VH4UYCBZG7L7YVYNEKHS", "current_trial": 204, "dateTime": 1509478818310, "trialdata": {"rt": -1, "stimulus": "<p id=\"stim\">4</p>", "key_press": -1, "trial_type": "single-stim", "trial_index": 204, "time_elapsed": 884551, "internal_node_id": "0.0-153.0-6.0"}}, {"uniqueid": "MTK0188:3Z9WI9EOZ0VH4UYCBZG7L7YVYNEKHS", "current_trial": 205, "dateTime": 1509478819312, "trialdata": {"rt": -1, "stimulus": "<p id=\"stim\">3</p>", "key_press": -1, "trial_type": "single-stim", "trial_index": 205, "time_elapsed": 885552, "internal_node_id": "0.0-153.0-7.0"}}, {"uniqueid": "MTK0188:3Z9WI9EOZ0VH4UYCBZG7L7YVYNEKHS", "current_trial": 206, "dateTime": 1509478820312, "trialdata": {"rt": -1, "stimulus": "<p id=\"stim\">2</p>", "key_press": -1, "trial_type": "single-stim", "trial_index": 206, "time_elapsed": 886553, "internal_node_id": "0.0-153.0-8.0"}}, {"uniqueid": "MTK0188:3Z9WI9EOZ0VH4UYCBZG7L7YVYNEKHS", "current_trial": 207, "dateTime": 1509478821313, "trialdata": {"rt": -1, "stimulus": "<p id=\"stim\">1</p>", "key_press": -1, "trial_type": "single-stim", "trial_index": 207, "time_elapsed": 887554, "internal_node_id": "0.0-153.0-9.0"}}, {"uniqueid": "MTK0188:3Z9WI9EOZ0VH4UYCBZG7L7YVYNEKHS", "current_trial": 208, "dateTime": 1509478822815, "trialdata": {"rt": -1, "stimulus": "<p id=\"stim\">+</p>", "key_press": -1, "type": "FIXATION", "trial_type": "single-stim", "trial_index": 208, "time_elapsed": 889055, "internal_node_id": "0.0-154.0-0.0"}}, {"uniqueid": "MTK0188:3Z9WI9EOZ0VH4UYCBZG7L7YVYNEKHS", "current_trial": 209, "dateTime": 1509478823616, "trialdata": {"rt": -1, "stimulus": "<p id=\"stim\">TRUCK</p>", "key_press": -1, "type": "PRES_VIS", "word": "truck", "wordID": 1511, "conditions": [12, 800, "v", 12000], "trial": 5, "serialpos": 0, "trial_type": "single-stim", "trial_index": 209, "time_elapsed": 889857, "internal_node_id": "0.0-155.0"}}, {"uniqueid": "MTK0188:3Z9WI9EOZ0VH4UYCBZG7L7YVYNEKHS", "current_trial": 210, "dateTime": 1509478825356, "trialdata": {"rt": -1, "stimulus": "<p id=\"stim\">TUTU</p>", "key_press": -1, "type": "PRES_VIS", "word": "tutu", "wordID": 1523, "conditions": [12, 800, "v", 12000], "trial": 5, "serialpos": 1, "trial_type": "single-stim", "trial_index": 210, "time_elapsed": 891597, "internal_node_id": "0.0-156.0"}}, {"uniqueid": "MTK0188:3Z9WI9EOZ0VH4UYCBZG7L7YVYNEKHS", "current_trial": 211, "dateTime": 1509478827207, "trialdata": {"rt": -1, "stimulus": "<p id=\"stim\">BARREL</p>", "key_press": -1, "type": "PRES_VIS", "word": "barrel", "wordID": 90, "conditions": [12, 800, "v", 12000], "trial": 5, "serialpos": 2, "trial_type": "single-stim", "trial_index": 211, "time_elapsed": 893448, "internal_node_id": "0.0-157.0"}}, {"uniqueid": "MTK0188:3Z9WI9EOZ0VH4UYCBZG7L7YVYNEKHS", "current_trial": 212, "dateTime": 1509478828853, "trialdata": {"rt": -1, "stimulus": "<p id=\"stim\">SHORTS</p>", "key_press": -1, "type": "PRES_VIS", "word": "shorts", "wordID": 1292, "conditions": [12, 800, "v", 12000], "trial": 5, "serialpos": 3, "trial_type": "single-stim", "trial_index": 212, "time_elapsed": 895094, "internal_node_id": "0.0-158.0"}}, {"uniqueid": "MTK0188:3Z9WI9EOZ0VH4UYCBZG7L7YVYNEKHS", "current_trial": 213, "dateTime": 1509478830652, "trialdata": {"rt": -1, "stimulus": "<p id=\"stim\">PIANO</p>", "key_press": -1, "type": "PRES_VIS", "word": "piano", "wordID": 1056, "conditions": [12, 800, "v", 12000], "trial": 5, "serialpos": 4, "trial_type": "single-stim", "trial_index": 213, "time_elapsed": 896893, "internal_node_id": "0.0-159.0"}}, {"uniqueid": "MTK0188:3Z9WI9EOZ0VH4UYCBZG7L7YVYNEKHS", "current_trial": 214, "dateTime": 1509478832313, "trialdata": {"rt": -1, "stimulus": "<p id=\"stim\">HANDBAG</p>", "key_press": -1, "type": "PRES_VIS", "word": "handbag", "wordID": 683, "conditions": [12, 800, "v", 12000], "trial": 5, "serialpos": 5, "trial_type": "single-stim", "trial_index": 214, "time_elapsed": 898554, "internal_node_id": "0.0-160.0"}}, {"uniqueid": "MTK0188:3Z9WI9EOZ0VH4UYCBZG7L7YVYNEKHS", "current_trial": 215, "dateTime": 1509478834216, "trialdata": {"rt": -1, "stimulus": "<p id=\"stim\">AIRPORT</p>", "key_press": -1, "type": "PRES_VIS", "word": "airport", "wordID": 12, "conditions": [12, 800, "v", 12000], "trial": 5, "serialpos": 6, "trial_type": "single-stim", "trial_index": 215, "time_elapsed": 900457, "internal_node_id": "0.0-161.0"}}, {"uniqueid": "MTK0188:3Z9WI9EOZ0VH4UYCBZG7L7YVYNEKHS", "current_trial": 216, "dateTime": 1509478835866, "trialdata": {"rt": -1, "stimulus": "<p id=\"stim\">GAVEL</p>", "key_press": -1, "type": "PRES_VIS", "word": "gavel", "wordID": 626, "conditions": [12, 800, "v", 12000], "trial": 5, "serialpos": 7, "trial_type": "single-stim", "trial_index": 216, "time_elapsed": 902107, "internal_node_id": "0.0-162.0"}}, {"uniqueid": "MTK0188:3Z9WI9EOZ0VH4UYCBZG7L7YVYNEKHS", "current_trial": 217, "dateTime": 1509478837599, "trialdata": {"rt": -1, "stimulus": "<p id=\"stim\">COMPASS</p>", "key_press": -1, "type": "PRES_VIS", "word": "compass", "wordID": 357, "conditions": [12, 800, "v", 12000], "trial": 5, "serialpos": 8, "trial_type": "single-stim", "trial_index": 217, "time_elapsed": 903840, "internal_node_id": "0.0-163.0"}}, {"uniqueid": "MTK0188:3Z9WI9EOZ0VH4UYCBZG7L7YVYNEKHS", "current_trial": 218, "dateTime": 1509478839542, "trialdata": {"rt": -1, "stimulus": "<p id=\"stim\">PEANUT</p>", "key_press": -1, "type": "PRES_VIS", "word": "peanut", "wordID": 1031, "conditions": [12, 800, "v", 12000], "trial": 5, "serialpos": 9, "trial_type": "single-stim", "trial_index": 218, "time_elapsed": 905783, "internal_node_id": "0.0-164.0"}}, {"uniqueid": "MTK0188:3Z9WI9EOZ0VH4UYCBZG7L7YVYNEKHS", "current_trial": 219, "dateTime": 1509478841323, "trialdata": {"rt": -1, "stimulus": "<p id=\"stim\">PECAN</p>", "key_press": -1, "type": "PRES_VIS", "word": "pecan", "wordID": 1035, "conditions": [12, 800, "v", 12000], "trial": 5, "serialpos": 10, "trial_type": "single-stim", "trial_index": 219, "time_elapsed": 907564, "internal_node_id": "0.0-165.0"}}, {"uniqueid": "MTK0188:3Z9WI9EOZ0VH4UYCBZG7L7YVYNEKHS", "current_trial": 220, "dateTime": 1509478843075, "trialdata": {"rt": -1, "stimulus": "<p id=\"stim\">GALLON</p>", "key_press": -1, "type": "PRES_VIS", "word": "gallon", "wordID": 617, "conditions": [12, 800, "v", 12000], "trial": 5, "serialpos": 11, "trial_type": "single-stim", "trial_index": 220, "time_elapsed": 909316, "internal_node_id": "0.0-166.0"}}, {"uniqueid": "MTK0188:3Z9WI9EOZ0VH4UYCBZG7L7YVYNEKHS", "current_trial": 221, "dateTime": 1509478845399, "trialdata": {"rt": -1, "stimulus": "", "key_press": -1, "type": "PRE_RECALL_DELAY", "trial_type": "single-stim", "trial_index": 221, "time_elapsed": 911640, "internal_node_id": "0.0-167.0-0.0"}}, {"uniqueid": "MTK0188:3Z9WI9EOZ0VH4UYCBZG7L7YVYNEKHS", "current_trial": 222, "dateTime": 1509478845901, "trialdata": {"rt": -1000, "stimulus": "/static/audio/400Hz.wav", "key_press": -1, "type": "PRE_RECALL_ALERT", "trial_type": "single-audio", "trial_index": 222, "time_elapsed": 912142, "internal_node_id": "0.0-168.0"}}, {"uniqueid": "MTK0188:3Z9WI9EOZ0VH4UYCBZG7L7YVYNEKHS", "current_trial": 223, "dateTime": 1509478905903, "trialdata": {"rt": [2179, 5515, 8604, 9803, 11227, 13732], "recwords": ["gallon", "pecan", "barrel", "truck", "tutu", "gavel"], "type": "FREE_RECALL", "conditions": [12, 800, "v", 12000], "trial": 5, "trial_type": "free-recall", "trial_index": 223, "time_elapsed": 972143, "internal_node_id": "0.0-169.0-0.0"}}, {"uniqueid": "MTK0188:3Z9WI9EOZ0VH4UYCBZG7L7YVYNEKHS", "current_trial": 224, "dateTime": 1509478910121, "trialdata": {"rt": 2215, "key_press": 13, "type": "INSTRUCTIONS", "trial_type": "text", "trial_index": 224, "time_elapsed": 976361, "internal_node_id": "0.0-170.0"}}, {"uniqueid": "MTK0188:3Z9WI9EOZ0VH4UYCBZG7L7YVYNEKHS", "current_trial": 225, "dateTime": 1509478924122, "trialdata": {"rt": [2935, 5751, 9327], "responses": ["12", "18", "17"], "num1": [4, 4, 5, 8], "num2": [2, 7, 9, 1], "num3": [6, 7, 3, 4], "type": "DISTRACTOR", "conditions": [24, 800, "a", 12000], "trial": 6, "trial_type": "math-distractor", "trial_index": 225, "time_elapsed": 990363, "internal_node_id": "0.0-171.0"}}, {"uniqueid": "MTK0188:3Z9WI9EOZ0VH4UYCBZG7L7YVYNEKHS", "current_trial": 226, "dateTime": 1509478927123, "trialdata": {"rt": -1, "stimulus": "<p id=\"stim\">10</p>", "key_press": -1, "trial_type": "single-stim", "trial_index": 226, "time_elapsed": 993364, "internal_node_id": "0.0-172.0-0.0"}}, {"uniqueid": "MTK0188:3Z9WI9EOZ0VH4UYCBZG7L7YVYNEKHS", "current_trial": 227, "dateTime": 1509478928125, "trialdata": {"rt": -1, "stimulus": "<p id=\"stim\">9</p>", "key_press": -1, "trial_type": "single-stim", "trial_index": 227, "time_elapsed": 994366, "internal_node_id": "0.0-172.0-1.0"}}, {"uniqueid": "MTK0188:3Z9WI9EOZ0VH4UYCBZG7L7YVYNEKHS", "current_trial": 228, "dateTime": 1509478929128, "trialdata": {"rt": -1, "stimulus": "<p id=\"stim\">8</p>", "key_press": -1, "trial_type": "single-stim", "trial_index": 228, "time_elapsed": 995368, "internal_node_id": "0.0-172.0-2.0"}}, {"uniqueid": "MTK0188:3Z9WI9EOZ0VH4UYCBZG7L7YVYNEKHS", "current_trial": 229, "dateTime": 1509478930128, "trialdata": {"rt": -1, "stimulus": "<p id=\"stim\">7</p>", "key_press": -1, "trial_type": "single-stim", "trial_index": 229, "time_elapsed": 996369, "internal_node_id": "0.0-172.0-3.0"}}, {"uniqueid": "MTK0188:3Z9WI9EOZ0VH4UYCBZG7L7YVYNEKHS", "current_trial": 230, "dateTime": 1509478931130, "trialdata": {"rt": -1, "stimulus": "<p id=\"stim\">6</p>", "key_press": -1, "trial_type": "single-stim", "trial_index": 230, "time_elapsed": 997371, "internal_node_id": "0.0-172.0-4.0"}}, {"uniqueid": "MTK0188:3Z9WI9EOZ0VH4UYCBZG7L7YVYNEKHS", "current_trial": 231, "dateTime": 1509478932131, "trialdata": {"rt": -1, "stimulus": "<p id=\"stim\">5</p>", "key_press": -1, "trial_type": "single-stim", "trial_index": 231, "time_elapsed": 998372, "internal_node_id": "0.0-172.0-5.0"}}, {"uniqueid": "MTK0188:3Z9WI9EOZ0VH4UYCBZG7L7YVYNEKHS", "current_trial": 232, "dateTime": 1509478933132, "trialdata": {"rt": -1, "stimulus": "<p id=\"stim\">4</p>", "key_press": -1, "trial_type": "single-stim", "trial_index": 232, "time_elapsed": 999373, "internal_node_id": "0.0-172.0-6.0"}}, {"uniqueid": "MTK0188:3Z9WI9EOZ0VH4UYCBZG7L7YVYNEKHS", "current_trial": 233, "dateTime": 1509478934133, "trialdata": {"rt": -1, "stimulus": "<p id=\"stim\">3</p>", "key_press": -1, "trial_type": "single-stim", "trial_index": 233, "time_elapsed": 1000374, "internal_node_id": "0.0-172.0-7.0"}}, {"uniqueid": "MTK0188:3Z9WI9EOZ0VH4UYCBZG7L7YVYNEKHS", "current_trial": 234, "dateTime": 1509478935135, "trialdata": {"rt": -1, "stimulus": "<p id=\"stim\">2</p>", "key_press": -1, "trial_type": "single-stim", "trial_index": 234, "time_elapsed": 1001376, "internal_node_id": "0.0-172.0-8.0"}}, {"uniqueid": "MTK0188:3Z9WI9EOZ0VH4UYCBZG7L7YVYNEKHS", "current_trial": 235, "dateTime": 1509478936136, "trialdata": {"rt": -1, "stimulus": "<p id=\"stim\">1</p>", "key_press": -1, "trial_type": "single-stim", "trial_index": 235, "time_elapsed": 1002377, "internal_node_id": "0.0-172.0-9.0"}}, {"uniqueid": "MTK0188:3Z9WI9EOZ0VH4UYCBZG7L7YVYNEKHS", "current_trial": 236, "dateTime": 1509478937637, "trialdata": {"rt": -1, "stimulus": "<p id=\"stim\">+</p>", "key_press": -1, "type": "FIXATION", "trial_type": "single-stim", "trial_index": 236, "time_elapsed": 1003878, "internal_node_id": "0.0-173.0-0.0"}}, {"uniqueid": "MTK0188:3Z9WI9EOZ0VH4UYCBZG7L7YVYNEKHS", "current_trial": 237, "dateTime": 1509478939594, "trialdata": {"rt": -1000, "stimulus": "/static/audio/wordpool/APPLE.wav", "key_press": -1, "type": "PRES_AUD", "word": "apple", "wordID": 32, "conditions": [24, 800, "a", 12000], "trial": 6, "serialpos": 0, "trial_type": "single-audio", "trial_index": 237, "time_elapsed": 1005835, "internal_node_id": "0.0-174.0"}}, {"uniqueid": "MTK0188:3Z9WI9EOZ0VH4UYCBZG7L7YVYNEKHS", "current_trial": 238, "dateTime": 1509478941200, "trialdata": {"rt": -1000, "stimulus": "/static/audio/wordpool/SLIME.wav", "key_press": -1, "type": "PRES_AUD", "word": "slime", "wordID": 1326, "conditions": [24, 800, "a", 12000], "trial": 6, "serialpos": 1, "trial_type": "single-audio", "trial_index": 238, "time_elapsed": 1007441, "internal_node_id": "0.0-175.0"}}, {"uniqueid": "MTK0188:3Z9WI9EOZ0VH4UYCBZG7L7YVYNEKHS", "current_trial": 239, "dateTime": 1509478942845, "trialdata": {"rt": -1000, "stimulus": "/static/audio/wordpool/SEAGULL.wav", "key_press": -1, "type": "PRES_AUD", "word": "seagull", "wordID": 1260, "conditions": [24, 800, "a", 12000], "trial": 6, "serialpos": 2, "trial_type": "single-audio", "trial_index": 239, "time_elapsed": 1009086, "internal_node_id": "0.0-176.0"}}, {"uniqueid": "MTK0188:3Z9WI9EOZ0VH4UYCBZG7L7YVYNEKHS", "current_trial": 240, "dateTime": 1509478944630, "trialdata": {"rt": -1000, "stimulus": "/static/audio/wordpool/GIFT.wav", "key_press": -1, "type": "PRES_AUD", "word": "gift", "wordID": 634, "conditions": [24, 800, "a", 12000], "trial": 6, "serialpos": 3, "trial_type": "single-audio", "trial_index": 240, "time_elapsed": 1010871, "internal_node_id": "0.0-177.0"}}, {"uniqueid": "MTK0188:3Z9WI9EOZ0VH4UYCBZG7L7YVYNEKHS", "current_trial": 241, "dateTime": 1509478946317, "trialdata": {"rt": -1000, "stimulus": "/static/audio/wordpool/COUNTRY.wav", "key_press": -1, "type": "PRES_AUD", "word": "country", "wordID": 387, "conditions": [24, 800, "a", 12000], "trial": 6, "serialpos": 4, "trial_type": "single-audio", "trial_index": 241, "time_elapsed": 1012557, "internal_node_id": "0.0-178.0"}}, {"uniqueid": "MTK0188:3Z9WI9EOZ0VH4UYCBZG7L7YVYNEKHS", "current_trial": 242, "dateTime": 1509478948201, "trialdata": {"rt": -1000, "stimulus": "/static/audio/wordpool/BACON.wav", "key_press": -1, "type": "PRES_AUD", "word": "bacon", "wordID": 66, "conditions": [24, 800, "a", 12000], "trial": 6, "serialpos": 5, "trial_type": "single-audio", "trial_index": 242, "time_elapsed": 1014442, "internal_node_id": "0.0-179.0"}}, {"uniqueid": "MTK0188:3Z9WI9EOZ0VH4UYCBZG7L7YVYNEKHS", "current_trial": 243, "dateTime": 1509478950130, "trialdata": {"rt": -1000, "stimulus": "/static/audio/wordpool/BLADE.wav", "key_press": -1, "type": "PRES_AUD", "word": "blade", "wordID": 133, "conditions": [24, 800, "a", 12000], "trial": 6, "serialpos": 6, "trial_type": "single-audio", "trial_index": 243, "time_elapsed": 1016371, "internal_node_id": "0.0-180.0"}}, {"uniqueid": "MTK0188:3Z9WI9EOZ0VH4UYCBZG7L7YVYNEKHS", "current_trial": 244, "dateTime": 1509478951747, "trialdata": {"rt": -1000, "stimulus": "/static/audio/wordpool/WORLD.wav", "key_press": -1, "type": "PRES_AUD", "word": "world", "wordID": 1621, "conditions": [24, 800, "a", 12000], "trial": 6, "serialpos": 7, "trial_type": "single-audio", "trial_index": 244, "time_elapsed": 1017988, "internal_node_id": "0.0-181.0"}}, {"uniqueid": "MTK0188:3Z9WI9EOZ0VH4UYCBZG7L7YVYNEKHS", "current_trial": 245, "dateTime": 1509478953388, "trialdata": {"rt": -1000, "stimulus": "/static/audio/wordpool/GIRL.wav", "key_press": -1, "type": "PRES_AUD", "word": "girl", "wordID": 636, "conditions": [24, 800, "a", 12000], "trial": 6, "serialpos": 8, "trial_type": "single-audio", "trial_index": 245, "time_elapsed": 1019629, "internal_node_id": "0.0-182.0"}}, {"uniqueid": "MTK0188:3Z9WI9EOZ0VH4UYCBZG7L7YVYNEKHS", "current_trial": 246, "dateTime": 1509478955056, "trialdata": {"rt": -1000, "stimulus": "/static/audio/wordpool/CHILD.wav", "key_press": -1, "type": "PRES_AUD", "word": "child", "wordID": 298, "conditions": [24, 800, "a", 12000], "trial": 6, "serialpos": 9, "trial_type": "single-audio", "trial_index": 246, "time_elapsed": 1021297, "internal_node_id": "0.0-183.0"}}, {"uniqueid": "MTK0188:3Z9WI9EOZ0VH4UYCBZG7L7YVYNEKHS", "current_trial": 247, "dateTime": 1509478956751, "trialdata": {"rt": -1000, "stimulus": "/static/audio/wordpool/FREEZER.wav", "key_press": -1, "type": "PRES_AUD", "word": "freezer", "wordID": 603, "conditions": [24, 800, "a", 12000], "trial": 6, "serialpos": 10, "trial_type": "single-audio", "trial_index": 247, "time_elapsed": 1022992, "internal_node_id": "0.0-184.0"}}, {"uniqueid": "MTK0188:3Z9WI9EOZ0VH4UYCBZG7L7YVYNEKHS", "current_trial": 248, "dateTime": 1509478958652, "trialdata": {"rt": -1000, "stimulus": "/static/audio/wordpool/HOUND.wav", "key_press": -1, "type": "PRES_AUD", "word": "hound", "wordID": 723, "conditions": [24, 800, "a", 12000], "trial": 6, "serialpos": 11, "trial_type": "single-audio", "trial_index": 248, "time_elapsed": 1024893, "internal_node_id": "0.0-185.0"}}, {"uniqueid": "MTK0188:3Z9WI9EOZ0VH4UYCBZG7L7YVYNEKHS", "current_trial": 249, "dateTime": 1509478960522, "trialdata": {"rt": -1000, "stimulus": "/static/audio/wordpool/LODGE.wav", "key_press": -1, "type": "PRES_AUD", "word": "lodge", "wordID": 838, "conditions": [24, 800, "a", 12000], "trial": 6, "serialpos": 12, "trial_type": "single-audio", "trial_index": 249, "time_elapsed": 1026763, "internal_node_id": "0.0-186.0"}}, {"uniqueid": "MTK0188:3Z9WI9EOZ0VH4UYCBZG7L7YVYNEKHS", "current_trial": 250, "dateTime": 1509478962469, "trialdata": {"rt": -1000, "stimulus": "/static/audio/wordpool/GLOVE.wav", "key_press": -1, "type": "PRES_AUD", "word": "glove", "wordID": 641, "conditions": [24, 800, "a", 12000], "trial": 6, "serialpos": 13, "trial_type": "single-audio", "trial_index": 250, "time_elapsed": 1028710, "internal_node_id": "0.0-187.0"}}, {"uniqueid": "MTK0188:3Z9WI9EOZ0VH4UYCBZG7L7YVYNEKHS", "current_trial": 251, "dateTime": 1509478964464, "trialdata": {"rt": -1000, "stimulus": "/static/audio/wordpool/WASHER.wav", "key_press": -1, "type": "PRES_AUD", "word": "washer", "wordID": 1591, "conditions": [24, 800, "a", 12000], "trial": 6, "serialpos": 14, "trial_type": "single-audio", "trial_index": 251, "time_elapsed": 1030705, "internal_node_id": "0.0-188.0"}}, {"uniqueid": "MTK0188:3Z9WI9EOZ0VH4UYCBZG7L7YVYNEKHS", "current_trial": 252, "dateTime": 1509478966331, "trialdata": {"rt": -1000, "stimulus": "/static/audio/wordpool/DONOR.wav", "key_press": -1, "type": "PRES_AUD", "word": "donor", "wordID": 484, "conditions": [24, 800, "a", 12000], "trial": 6, "serialpos": 15, "trial_type": "single-audio", "trial_index": 252, "time_elapsed": 1032571, "internal_node_id": "0.0-189.0"}}, {"uniqueid": "MTK0188:3Z9WI9EOZ0VH4UYCBZG7L7YVYNEKHS", "current_trial": 253, "dateTime": 1509478968143, "trialdata": {"rt": -1000, "stimulus": "/static/audio/wordpool/LIZARD.wav", "key_press": -1, "type": "PRES_AUD", "word": "lizard", "wordID": 833, "conditions": [24, 800, "a", 12000], "trial": 6, "serialpos": 16, "trial_type": "single-audio", "trial_index": 253, "time_elapsed": 1034384, "internal_node_id": "0.0-190.0"}}, {"uniqueid": "MTK0188:3Z9WI9EOZ0VH4UYCBZG7L7YVYNEKHS", "current_trial": 254, "dateTime": 1509478970074, "trialdata": {"rt": -1000, "stimulus": "/static/audio/wordpool/WHISTLE.wav", "key_press": -1, "type": "PRES_AUD", "word": "whistle", "wordID": 1605, "conditions": [24, 800, "a", 12000], "trial": 6, "serialpos": 17, "trial_type": "single-audio", "trial_index": 254, "time_elapsed": 1036315, "internal_node_id": "0.0-191.0"}}, {"uniqueid": "MTK0188:3Z9WI9EOZ0VH4UYCBZG7L7YVYNEKHS", "current_trial": 255, "dateTime": 1509478971746, "trialdata": {"rt": -1000, "stimulus": "/static/audio/wordpool/CLOCK.wav", "key_press": -1, "type": "PRES_AUD", "word": "clock", "wordID": 324, "conditions": [24, 800, "a", 12000], "trial": 6, "serialpos": 18, "trial_type": "single-audio", "trial_index": 255, "time_elapsed": 1037987, "internal_node_id": "0.0-192.0"}}, {"uniqueid": "MTK0188:3Z9WI9EOZ0VH4UYCBZG7L7YVYNEKHS", "current_trial": 256, "dateTime": 1509478973638, "trialdata": {"rt": -1000, "stimulus": "/static/audio/wordpool/HIKER.wav", "key_press": -1, "type": "PRES_AUD", "word": "hiker", "wordID": 707, "conditions": [24, 800, "a", 12000], "trial": 6, "serialpos": 19, "trial_type": "single-audio", "trial_index": 256, "time_elapsed": 1039879, "internal_node_id": "0.0-193.0"}}, {"uniqueid": "MTK0188:3Z9WI9EOZ0VH4UYCBZG7L7YVYNEKHS", "current_trial": 257, "dateTime": 1509478975456, "trialdata": {"rt": -1000, "stimulus": "/static/audio/wordpool/CLIMBER.wav", "key_press": -1, "type": "PRES_AUD", "word": "climber", "wordID": 322, "conditions": [24, 800, "a", 12000], "trial": 6, "serialpos": 20, "trial_type": "single-audio", "trial_index": 257, "time_elapsed": 1041697, "internal_node_id": "0.0-194.0"}}, {"uniqueid": "MTK0188:3Z9WI9EOZ0VH4UYCBZG7L7YVYNEKHS", "current_trial": 258, "dateTime": 1509478977352, "trialdata": {"rt": -1000, "stimulus": "/static/audio/wordpool/FOX.wav", "key_press": -1, "type": "PRES_AUD", "word": "fox", "wordID": 597, "conditions": [24, 800, "a", 12000], "trial": 6, "serialpos": 21, "trial_type": "single-audio", "trial_index": 258, "time_elapsed": 1043593, "internal_node_id": "0.0-195.0"}}, {"uniqueid": "MTK0188:3Z9WI9EOZ0VH4UYCBZG7L7YVYNEKHS", "current_trial": 259, "dateTime": 1509478979327, "trialdata": {"rt": -1000, "stimulus": "/static/audio/wordpool/LASER.wav", "key_press": -1, "type": "PRES_AUD", "word": "laser", "wordID": 800, "conditions": [24, 800, "a", 12000], "trial": 6, "serialpos": 22, "trial_type": "single-audio", "trial_index": 259, "time_elapsed": 1045568, "internal_node_id": "0.0-196.0"}}, {"uniqueid": "MTK0188:3Z9WI9EOZ0VH4UYCBZG7L7YVYNEKHS", "current_trial": 260, "dateTime": 1509478981294, "trialdata": {"rt": -1000, "stimulus": "/static/audio/wordpool/BRANDY.wav", "key_press": -1, "type": "PRES_AUD", "word": "brandy", "wordID": 168, "conditions": [24, 800, "a", 12000], "trial": 6, "serialpos": 23, "trial_type": "single-audio", "trial_index": 260, "time_elapsed": 1047535, "internal_node_id": "0.0-197.0"}}, {"uniqueid": "MTK0188:3Z9WI9EOZ0VH4UYCBZG7L7YVYNEKHS", "current_trial": 261, "dateTime": 1509478982530, "trialdata": {"rt": -1, "stimulus": "", "key_press": -1, "type": "PRE_RECALL_DELAY", "trial_type": "single-stim", "trial_index": 261, "time_elapsed": 1048771, "internal_node_id": "0.0-198.0-0.0"}}, {"uniqueid": "MTK0188:3Z9WI9EOZ0VH4UYCBZG7L7YVYNEKHS", "current_trial": 262, "dateTime": 1509478983031, "trialdata": {"rt": -1000, "stimulus": "/static/audio/400Hz.wav", "key_press": -1, "type": "PRE_RECALL_ALERT", "trial_type": "single-audio", "trial_index": 262, "time_elapsed": 1049272, "internal_node_id": "0.0-199.0"}}, {"uniqueid": "MTK0188:3Z9WI9EOZ0VH4UYCBZG7L7YVYNEKHS", "current_trial": 263, "dateTime": 1509479043035, "trialdata": {"rt": [2593, 6754, 11242, 12234, 13761, 15185, 16874, 22649], "recwords": ["brandy", "laser", "whistle", "fox", "hiker", "climber", "apple", "country"], "type": "FREE_RECALL", "conditions": [24, 800, "a", 12000], "trial": 6, "trial_type": "free-recall", "trial_index": 263, "time_elapsed": 1109274, "internal_node_id": "0.0-200.0-0.0"}}, {"uniqueid": "MTK0188:3Z9WI9EOZ0VH4UYCBZG7L7YVYNEKHS", "current_trial": 264, "dateTime": 1509479050442, "trialdata": {"rt": 5404, "key_press": 13, "type": "INSTRUCTIONS", "trial_type": "text", "trial_index": 264, "time_elapsed": 1116683, "internal_node_id": "0.0-201.0"}}, {"uniqueid": "MTK0188:3Z9WI9EOZ0VH4UYCBZG7L7YVYNEKHS", "current_trial": 265, "dateTime": 1509479076444, "trialdata": {"rt": [5095, 7591, 10143, 13263, 16479, 18871, 22407], "responses": ["14", "16", "10", "15", "20", "10", "18"], "num1": [2, 9, 7, 2, 8, 3, 6, 9], "num2": [5, 6, 1, 7, 9, 2, 8, 6], "num3": [7, 1, 2, 6, 3, 5, 4, 3], "type": "DISTRACTOR", "conditions": [12, 800, "v", 24000], "trial": 7, "trial_type": "math-distractor", "trial_index": 265, "time_elapsed": 1142685, "internal_node_id": "0.0-202.0"}}, {"uniqueid": "MTK0188:3Z9WI9EOZ0VH4UYCBZG7L7YVYNEKHS", "current_trial": 266, "dateTime": 1509479079445, "trialdata": {"rt": -1, "stimulus": "<p id=\"stim\">10</p>", "key_press": -1, "trial_type": "single-stim", "trial_index": 266, "time_elapsed": 1145686, "internal_node_id": "0.0-203.0-0.0"}}, {"uniqueid": "MTK0188:3Z9WI9EOZ0VH4UYCBZG7L7YVYNEKHS", "current_trial": 267, "dateTime": 1509479080446, "trialdata": {"rt": -1, "stimulus": "<p id=\"stim\">9</p>", "key_press": -1, "trial_type": "single-stim", "trial_index": 267, "time_elapsed": 1146687, "internal_node_id": "0.0-203.0-1.0"}}, {"uniqueid": "MTK0188:3Z9WI9EOZ0VH4UYCBZG7L7YVYNEKHS", "current_trial": 268, "dateTime": 1509479081447, "trialdata": {"rt": -1, "stimulus": "<p id=\"stim\">8</p>", "key_press": -1, "trial_type": "single-stim", "trial_index": 268, "time_elapsed": 1147688, "internal_node_id": "0.0-203.0-2.0"}}, {"uniqueid": "MTK0188:3Z9WI9EOZ0VH4UYCBZG7L7YVYNEKHS", "current_trial": 269, "dateTime": 1509479082449, "trialdata": {"rt": -1, "stimulus": "<p id=\"stim\">7</p>", "key_press": -1, "trial_type": "single-stim", "trial_index": 269, "time_elapsed": 1148690, "internal_node_id": "0.0-203.0-3.0"}}, {"uniqueid": "MTK0188:3Z9WI9EOZ0VH4UYCBZG7L7YVYNEKHS", "current_trial": 270, "dateTime": 1509479083451, "trialdata": {"rt": -1, "stimulus": "<p id=\"stim\">6</p>", "key_press": -1, "trial_type": "single-stim", "trial_index": 270, "time_elapsed": 1149692, "internal_node_id": "0.0-203.0-4.0"}}, {"uniqueid": "MTK0188:3Z9WI9EOZ0VH4UYCBZG7L7YVYNEKHS", "current_trial": 271, "dateTime": 1509479084453, "trialdata": 