{"condition": 0, "counterbalance": 2394, "assignmentId": "3A7Y0R2P2PVJF0S9YIYHNEMCA1AXJ5", "workerId": "MTK0706", "hitId": "30QQTY5GMKRWRHZI22TVBXMFAK47UT", "currenttrial": 626, "bonus": 0, "data": [{"uniqueid": "MTK0706:3A7Y0R2P2PVJF0S9YIYHNEMCA1AXJ5", "current_trial": 0, "dateTime": 1512626534121, "trialdata": {"rt": 2844, "key_press": 32, "type": "INSTRUCTIONS", "trial_type": "text", "trial_index": 0, "time_elapsed": 2846, "internal_node_id": "0.0-0.0"}}, {"uniqueid": "MTK0706:3A7Y0R2P2PVJF0S9YIYHNEMCA1AXJ5", "current_trial": 1, "dateTime": 1512626549568, "trialdata": {"rt": 15446, "key_press": 32, "type": "INSTRUCTIONS", "trial_type": "text", "trial_index": 1, "time_elapsed": 18294, "internal_node_id": "0.0-1.0"}}, {"uniqueid": "MTK0706:3A7Y0R2P2PVJF0S9YIYHNEMCA1AXJ5", "current_trial": 2, "dateTime": 1512626559441, "trialdata": {"rt": [9866], "responses": ["ocean"], "type": "AUDIO_TEST", "trial_type": "audio-test", "trial_index": 2, "time_elapsed": 28167, "internal_node_id": "0.0-2.0"}}, {"uniqueid": "MTK0706:3A7Y0R2P2PVJF0S9YIYHNEMCA1AXJ5", "current_trial": 3, "dateTime": 1512626565400, "trialdata": {"rt": [5956], "responses": ["crystal"], "type": "AUDIO_TEST", "trial_type": "audio-test", "trial_index": 3, "time_elapsed": 34126, "internal_node_id": "0.0-3.0"}}, {"uniqueid": "MTK0706:3A7Y0R2P2PVJF0S9YIYHNEMCA1AXJ5", "current_trial": 4, "dateTime": 1512626573088, "trialdata": {"rt": [7684], "responses": ["spice"], "type": "AUDIO_TEST", "trial_type": "audio-test", "trial_index": 4, "time_elapsed": 41814, "internal_node_id": "0.0-4.0"}}, {"uniqueid": "MTK0706:3A7Y0R2P2PVJF0S9YIYHNEMCA1AXJ5", "current_trial": 5, "dateTime": 1512626594936, "trialdata": {"rt": 21096, "responses": "{\"Q0\":\"2am\",\"Q1\":\"9am\",\"Q2\":\"5\"}", "type": "SLEEP_SURVEY", "trial_type": "survey-text", "trial_index": 5, "time_elapsed": 63662, "internal_node_id": "0.0-5.0"}}, {"uniqueid": "MTK0706:3A7Y0R2P2PVJF0S9YIYHNEMCA1AXJ5", "current_trial": 6, "dateTime": 1512626635192, "trialdata": {"rt": 39256, "key_press": 32, "type": "INSTRUCTIONS", "trial_type": "text", "trial_index": 6, "time_elapsed": 103918, "internal_node_id": "0.0-6.0"}}, {"uniqueid": "MTK0706:3A7Y0R2P2PVJF0S9YIYHNEMCA1AXJ5", "current_trial": 7, "dateTime": 1512626764695, "trialdata": {"rt": 129002, "key_press": 32, "type": "INSTRUCTIONS", "trial_type": "text", "trial_index": 7, "time_elapsed": 233421, "internal_node_id": "0.0-7.0"}}, {"uniqueid": "MTK0706:3A7Y0R2P2PVJF0S9YIYHNEMCA1AXJ5", "current_trial": 8, "dateTime": 1512626774055, "trialdata": {"rt": 8859, "key_press": 32, "type": "INSTRUCTIONS", "trial_type": "text", "trial_index": 8, "time_elapsed": 242781, "internal_node_id": "0.0-8.0"}}, {"uniqueid": "MTK0706:3A7Y0R2P2PVJF0S9YIYHNEMCA1AXJ5", "current_trial": 9, "dateTime": 1512626793059, "trialdata": {"rt": [7308, 10044, 14204, 16421], "responses": ["22", "21", "16", "18"], "num1": [9, 4, 7, 6, 2], "num2": [7, 8, 5, 4, 2], "num3": [6, 9, 4, 8, 1], "type": "DISTRACTOR", "conditions": [18, 1200, "v", 18000], "trial": 0, "trial_type": "math-distractor", "trial_index": 9, "time_elapsed": 261784, "internal_node_id": "0.0-9.0"}}, {"uniqueid": "MTK0706:3A7Y0R2P2PVJF0S9YIYHNEMCA1AXJ5", "current_trial": 10, "dateTime": 1512626796059, "trialdata": {"rt": -1, "stimulus": "<p id=\"stim\">10</p>", "key_press": -1, "trial_type": "single-stim", "trial_index": 10, "time_elapsed": 264785, "internal_node_id": "0.0-10.0-0.0"}}, {"uniqueid": "MTK0706:3A7Y0R2P2PVJF0S9YIYHNEMCA1AXJ5", "current_trial": 11, "dateTime": 1512626797059, "trialdata": {"rt": -1, "stimulus": "<p id=\"stim\">9</p>", "key_press": -1, "trial_type": "single-stim", "trial_index": 11, "time_elapsed": 265785, "internal_node_id": "0.0-10.0-1.0"}}, {"uniqueid": "MTK0706:3A7Y0R2P2PVJF0S9YIYHNEMCA1AXJ5", "current_trial": 12, "dateTime": 1512626798059, "trialdata": {"rt": -1, "stimulus": "<p id=\"stim\">8</p>", "key_press": -1, "trial_type": "single-stim", "trial_index": 12, "time_elapsed": 266785, "internal_node_id": "0.0-10.0-2.0"}}, {"uniqueid": "MTK0706:3A7Y0R2P2PVJF0S9YIYHNEMCA1AXJ5", "current_trial": 13, "dateTime": 1512626799059, "trialdata": {"rt": -1, "stimulus": "<p id=\"stim\">7</p>", "key_press": -1, "trial_type": "single-stim", "trial_index": 13, "time_elapsed": 267785, "internal_node_id": "0.0-10.0-3.0"}}, {"uniqueid": "MTK0706:3A7Y0R2P2PVJF0S9YIYHNEMCA1AXJ5", "current_trial": 14, "dateTime": 1512626800059, "trialdata": {"rt": -1, "stimulus": "<p id=\"stim\">6</p>", "key_press": -1, "trial_type": "single-stim", "trial_index": 14, "time_elapsed": 268785, "internal_node_id": "0.0-10.0-4.0"}}, {"uniqueid": "MTK0706:3A7Y0R2P2PVJF0S9YIYHNEMCA1AXJ5", "current_trial": 15, "dateTime": 1512626801059, "trialdata": {"rt": -1, "stimulus": "<p id=\"stim\">5</p>", "key_press": -1, "trial_type": "single-stim", "trial_index": 15, "time_elapsed": 269785, "internal_node_id": "0.0-10.0-5.0"}}, {"uniqueid": "MTK0706:3A7Y0R2P2PVJF0S9YIYHNEMCA1AXJ5", "current_trial": 16, "dateTime": 1512626802059, "trialdata": {"rt": -1, "stimulus": "<p id=\"stim\">4</p>", "key_press": -1, "trial_type": "single-stim", "trial_index": 16, "time_elapsed": 270785, "internal_node_id": "0.0-10.0-6.0"}}, {"uniqueid": "MTK0706:3A7Y0R2P2PVJF0S9YIYHNEMCA1AXJ5", "current_trial": 17, "dateTime": 1512626803060, "trialdata": {"rt": -1, "stimulus": "<p id=\"stim\">3</p>", "key_press": -1, "trial_type": "single-stim", "trial_index": 17, "time_elapsed": 271786, "internal_node_id": "0.0-10.0-7.0"}}, {"uniqueid": "MTK0706:3A7Y0R2P2PVJF0S9YIYHNEMCA1AXJ5", "current_trial": 18, "dateTime": 1512626804060, "trialdata": {"rt": -1, "stimulus": "<p id=\"stim\">2</p>", "key_press": -1, "trial_type": "single-stim", "trial_index": 18, "time_elapsed": 272786, "internal_node_id": "0.0-10.0-8.0"}}, {"uniqueid": "MTK0706:3A7Y0R2P2PVJF0S9YIYHNEMCA1AXJ5", "current_trial": 19, "dateTime": 1512626805060, "trialdata": {"rt": -1, "stimulus": "<p id=\"stim\">1</p>", "key_press": -1, "trial_type": "single-stim", "trial_index": 19, "time_elapsed": 273786, "internal_node_id": "0.0-10.0-9.0"}}, {"uniqueid": "MTK0706:3A7Y0R2P2PVJF0S9YIYHNEMCA1AXJ5", "current_trial": 20, "dateTime": 1512626806560, "trialdata": {"rt": -1, "stimulus": "<p id=\"stim\">+</p>", "key_press": -1, "type": "FIXATION", "trial_type": "single-stim", "trial_index": 20, "time_elapsed": 275286, "internal_node_id": "0.0-11.0-0.0"}}, {"uniqueid": "MTK0706:3A7Y0R2P2PVJF0S9YIYHNEMCA1AXJ5", "current_trial": 21, "dateTime": 1512626807760, "trialdata": {"rt": -1, "stimulus": "<p id=\"stim\">LIPSTICK</p>", "key_press": -1, "type": "PRES_VIS", "word": "lipstick", "wordID": 828, "conditions": [18, 1200, "v", 18000], "trial": 0, "serialpos": 0, "trial_type": "single-stim", "trial_index": 21, "time_elapsed": 276486, "internal_node_id": "0.0-12.0"}}, {"uniqueid": "MTK0706:3A7Y0R2P2PVJF0S9YIYHNEMCA1AXJ5", "current_trial": 22, "dateTime": 1512626809834, "trialdata": {"rt": -1, "stimulus": "<p id=\"stim\">SMOG</p>", "key_press": -1, "type": "PRES_VIS", "word": "smog", "wordID": 1329, "conditions": [18, 1200, "v", 18000], "trial": 0, "serialpos": 1, "trial_type": "single-stim", "trial_index": 22, "time_elapsed": 278560, "internal_node_id": "0.0-13.0"}}, {"uniqueid": "MTK0706:3A7Y0R2P2PVJF0S9YIYHNEMCA1AXJ5", "current_trial": 23, "dateTime": 1512626812043, "trialdata": {"rt": -1, "stimulus": "<p id=\"stim\">HUSBAND</p>", "key_press": -1, "type": "PRES_VIS", "word": "husband", "wordID": 727, "conditions": [18, 1200, "v", 18000], "trial": 0, "serialpos": 2, "trial_type": "single-stim", "trial_index": 23, "time_elapsed": 280769, "internal_node_id": "0.0-14.0"}}, {"uniqueid": "MTK0706:3A7Y0R2P2PVJF0S9YIYHNEMCA1AXJ5", "current_trial": 24, "dateTime": 1512626814390, "trialdata": {"rt": -1, "stimulus": "<p id=\"stim\">COCKTAIL</p>", "key_press": -1, "type": "PRES_VIS", "word": "cocktail", "wordID": 337, "conditions": [18, 1200, "v", 18000], "trial": 0, "serialpos": 3, "trial_type": "single-stim", "trial_index": 24, "time_elapsed": 283116, "internal_node_id": "0.0-15.0"}}, {"uniqueid": "MTK0706:3A7Y0R2P2PVJF0S9YIYHNEMCA1AXJ5", "current_trial": 25, "dateTime": 1512626816491, "trialdata": {"rt": -1, "stimulus": "<p id=\"stim\">SHOULDER</p>", "key_press": -1, "type": "PRES_VIS", "word": "shoulder", "wordID": 1293, "conditions": [18, 1200, "v", 18000], "trial": 0, "serialpos": 4, "trial_type": "single-stim", "trial_index": 25, "time_elapsed": 285217, "internal_node_id": "0.0-16.0"}}, {"uniqueid": "MTK0706:3A7Y0R2P2PVJF0S9YIYHNEMCA1AXJ5", "current_trial": 26, "dateTime": 1512626818502, "trialdata": {"rt": -1, "stimulus": "<p id=\"stim\">SUBWAY</p>", "key_press": -1, "type": "PRES_VIS", "word": "subway", "wordID": 1399, "conditions": [18, 1200, "v", 18000], "trial": 0, "serialpos": 5, "trial_type": "single-stim", "trial_index": 26, "time_elapsed": 287228, "internal_node_id": "0.0-17.0"}}, {"uniqueid": "MTK0706:3A7Y0R2P2PVJF0S9YIYHNEMCA1AXJ5", "current_trial": 27, "dateTime": 1512626820831, "trialdata": {"rt": -1, "stimulus": "<p id=\"stim\">PRIMATE</p>", "key_press": -1, "type": "PRES_VIS", "word": "primate", "wordID": 1122, "conditions": [18, 1200, "v", 18000], "trial": 0, "serialpos": 6, "trial_type": "single-stim", "trial_index": 27, "time_elapsed": 289557, "internal_node_id": "0.0-18.0"}}, {"uniqueid": "MTK0706:3A7Y0R2P2PVJF0S9YIYHNEMCA1AXJ5", "current_trial": 28, "dateTime": 1512626823101, "trialdata": {"rt": -1, "stimulus": "<p id=\"stim\">BLUEPRINT</p>", "key_press": -1, "type": "PRES_VIS", "word": "blueprint", "wordID": 141, "conditions": [18, 1200, "v", 18000], "trial": 0, "serialpos": 7, "trial_type": "single-stim", "trial_index": 28, "time_elapsed": 291827, "internal_node_id": "0.0-19.0"}}, {"uniqueid": "MTK0706:3A7Y0R2P2PVJF0S9YIYHNEMCA1AXJ5", "current_trial": 29, "dateTime": 1512626825248, "trialdata": {"rt": -1, "stimulus": "<p id=\"stim\">HORNET</p>", "key_press": -1, "type": "PRES_VIS", "word": "hornet", "wordID": 717, "conditions": [18, 1200, "v", 18000], "trial": 0, "serialpos": 8, "trial_type": "single-stim", "trial_index": 29, "time_elapsed": 293974, "internal_node_id": "0.0-20.0"}}, {"uniqueid": "MTK0706:3A7Y0R2P2PVJF0S9YIYHNEMCA1AXJ5", "current_trial": 30, "dateTime": 1512626827471, "trialdata": {"rt": -1, "stimulus": "<p id=\"stim\">PIZZA</p>", "key_press": -1, "type": "PRES_VIS", "word": "pizza", "wordID": 1078, "conditions": [18, 1200, "v", 18000], "trial": 0, "serialpos": 9, "trial_type": "single-stim", "trial_index": 30, "time_elapsed": 296197, "internal_node_id": "0.0-21.0"}}, {"uniqueid": "MTK0706:3A7Y0R2P2PVJF0S9YIYHNEMCA1AXJ5", "current_trial": 31, "dateTime": 1512626829777, "trialdata": {"rt": -1, "stimulus": "<p id=\"stim\">BUTCHER</p>", "key_press": -1, "type": "PRES_VIS", "word": "butcher", "wordID": 202, "conditions": [18, 1200, "v", 18000], "trial": 0, "serialpos": 10, "trial_type": "single-stim", "trial_index": 31, "time_elapsed": 298503, "internal_node_id": "0.0-22.0"}}, {"uniqueid": "MTK0706:3A7Y0R2P2PVJF0S9YIYHNEMCA1AXJ5", "current_trial": 32, "dateTime": 1512626831851, "trialdata": {"rt": -1, "stimulus": "<p id=\"stim\">SANDWICH</p>", "key_press": -1, "type": "PRES_VIS", "word": "sandwich", "wordID": 1231, "conditions": [18, 1200, "v", 18000], "trial": 0, "serialpos": 11, "trial_type": "single-stim", "trial_index": 32, "time_elapsed": 300577, "internal_node_id": "0.0-23.0"}}, {"uniqueid": "MTK0706:3A7Y0R2P2PVJF0S9YIYHNEMCA1AXJ5", "current_trial": 33, "dateTime": 1512626834160, "trialdata": {"rt": -1, "stimulus": "<p id=\"stim\">DRIVER</p>", "key_press": -1, "type": "PRES_VIS", "word": "driver", "wordID": 498, "conditions": [18, 1200, "v", 18000], "trial": 0, "serialpos": 12, "trial_type": "single-stim", "trial_index": 33, "time_elapsed": 302886, "internal_node_id": "0.0-24.0"}}, {"uniqueid": "MTK0706:3A7Y0R2P2PVJF0S9YIYHNEMCA1AXJ5", "current_trial": 34, "dateTime": 1512626836254, "trialdata": {"rt": -1, "stimulus": "<p id=\"stim\">MARKET</p>", "key_press": -1, "type": "PRES_VIS", "word": "market", "wordID": 870, "conditions": [18, 1200, "v", 18000], "trial": 0, "serialpos": 13, "trial_type": "single-stim", "trial_index": 34, "time_elapsed": 304980, "internal_node_id": "0.0-25.0"}}, {"uniqueid": "MTK0706:3A7Y0R2P2PVJF0S9YIYHNEMCA1AXJ5", "current_trial": 35, "dateTime": 1512626838327, "trialdata": {"rt": -1, "stimulus": "<p id=\"stim\">FLESH</p>", "key_press": -1, "type": "PRES_VIS", "word": "flesh", "wordID": 578, "conditions": [18, 1200, "v", 18000], "trial": 0, "serialpos": 14, "trial_type": "single-stim", "trial_index": 35, "time_elapsed": 307053, "internal_node_id": "0.0-26.0"}}, {"uniqueid": "MTK0706:3A7Y0R2P2PVJF0S9YIYHNEMCA1AXJ5", "current_trial": 36, "dateTime": 1512626840395, "trialdata": {"rt": -1, "stimulus": "<p id=\"stim\">PEPPER</p>", "key_press": -1, "type": "PRES_VIS", "word": "pepper", "wordID": 1046, "conditions": [18, 1200, "v", 18000], "trial": 0, "serialpos": 15, "trial_type": "single-stim", "trial_index": 36, "time_elapsed": 309121, "internal_node_id": "0.0-27.0"}}, {"uniqueid": "MTK0706:3A7Y0R2P2PVJF0S9YIYHNEMCA1AXJ5", "current_trial": 37, "dateTime": 1512626842739, "trialdata": {"rt": -1, "stimulus": "<p id=\"stim\">BALLOON</p>", "key_press": -1, "type": "PRES_VIS", "word": "balloon", "wordID": 74, "conditions": [18, 1200, "v", 18000], "trial": 0, "serialpos": 16, "trial_type": "single-stim", "trial_index": 37, "time_elapsed": 311465, "internal_node_id": "0.0-28.0"}}, {"uniqueid": "MTK0706:3A7Y0R2P2PVJF0S9YIYHNEMCA1AXJ5", "current_trial": 38, "dateTime": 1512626844930, "trialdata": {"rt": -1, "stimulus": "<p id=\"stim\">CATTLE</p>", "key_press": -1, "type": "PRES_VIS", "word": "cattle", "wordID": 260, "conditions": [18, 1200, "v", 18000], "trial": 0, "serialpos": 17, "trial_type": "single-stim", "trial_index": 38, "time_elapsed": 313656, "internal_node_id": "0.0-29.0"}}, {"uniqueid": "MTK0706:3A7Y0R2P2PVJF0S9YIYHNEMCA1AXJ5", "current_trial": 39, "dateTime": 1512626847267, "trialdata": {"rt": -1, "stimulus": "", "key_press": -1, "type": "PRE_RECALL_DELAY", "trial_type": "single-stim", "trial_index": 39, "time_elapsed": 315993, "internal_node_id": "0.0-30.0-0.0"}}, {"uniqueid": "MTK0706:3A7Y0R2P2PVJF0S9YIYHNEMCA1AXJ5", "current_trial": 40, "dateTime": 1512626847769, "trialdata": {"rt": -1000, "stimulus": "/static/audio/400Hz.wav", "key_press": -1, "type": "PRE_RECALL_ALERT", "trial_type": "single-audio", "trial_index": 40, "time_elapsed": 316495, "internal_node_id": "0.0-31.0"}}, {"uniqueid": "MTK0706:3A7Y0R2P2PVJF0S9YIYHNEMCA1AXJ5", "current_trial": 41, "dateTime": 1512626907773, "trialdata": {"rt": [3100, 6364, 9620, 12972, 15524, 19548, 24684, 51629], "recwords": ["pepper", "balloon", "sandwich", "lipstick", "husband", "paper", "smog", ""], "type": "FREE_RECALL", "conditions": [18, 1200, "v", 18000], "trial": 0, "trial_type": "free-recall", "trial_index": 41, "time_elapsed": 376497, "internal_node_id": "0.0-32.0-0.0"}}, {"uniqueid": "MTK0706:3A7Y0R2P2PVJF0S9YIYHNEMCA1AXJ5", "current_trial": 42, "dateTime": 1512626918584, "trialdata": {"rt": 8810, "key_press": 32, "type": "INSTRUCTIONS", "trial_type": "text", "trial_index": 42, "time_elapsed": 387309, "internal_node_id": "0.0-33.0"}}, {"uniqueid": "MTK0706:3A7Y0R2P2PVJF0S9YIYHNEMCA1AXJ5", "current_trial": 43, "dateTime": 1512626938585, "trialdata": {"rt": [3590, 7662, 10158, 11966, 13822, 16014], "responses": ["17", "21", "23", "12", "11", "17"], "num1": [9, 8, 9, 1, 3, 4, 3], "num2": [5, 9, 9, 9, 7, 5, 8], "num3": [3, 4, 5, 2, 1, 8, 4], "type": "DISTRACTOR", "conditions": [18, 1200, "a", 18000], "trial": 1, "trial_type": "math-distractor", "trial_index": 43, "time_elapsed": 407311, "internal_node_id": "0.0-34.0"}}, {"uniqueid": "MTK0706:3A7Y0R2P2PVJF0S9YIYHNEMCA1AXJ5", "current_trial": 44, "dateTime": 1512626941585, "trialdata": {"rt": -1, "stimulus": "<p id=\"stim\">10</p>", "key_press": -1, "trial_type": "single-stim", "trial_index": 44, "time_elapsed": 410311, "internal_node_id": "0.0-35.0-0.0"}}, {"uniqueid": "MTK0706:3A7Y0R2P2PVJF0S9YIYHNEMCA1AXJ5", "current_trial": 45, "dateTime": 1512626942585, "trialdata": {"rt": -1, "stimulus": "<p id=\"stim\">9</p>", "key_press": -1, "trial_type": "single-stim", "trial_index": 45, "time_elapsed": 411311, "internal_node_id": "0.0-35.0-1.0"}}, {"uniqueid": "MTK0706:3A7Y0R2P2PVJF0S9YIYHNEMCA1AXJ5", "current_trial": 46, "dateTime": 1512626943585, "trialdata": {"rt": -1, "stimulus": "<p id=\"stim\">8</p>", "key_press": -1, "trial_type": "single-stim", "trial_index": 46, "time_elapsed": 412311, "internal_node_id": "0.0-35.0-2.0"}}, {"uniqueid": "MTK0706:3A7Y0R2P2PVJF0S9YIYHNEMCA1AXJ5", "current_trial": 47, "dateTime": 1512626944585, "trialdata": {"rt": -1, "stimulus": "<p id=\"stim\">7</p>", "key_press": -1, "trial_type": "single-stim", "trial_index": 47, "time_elapsed": 413311, "internal_node_id": "0.0-35.0-3.0"}}, {"uniqueid": "MTK0706:3A7Y0R2P2PVJF0S9YIYHNEMCA1AXJ5", "current_trial": 48, "dateTime": 1512626945585, "trialdata": {"rt": -1, "stimulus": "<p id=\"stim\">6</p>", "key_press": -1, "trial_type": "single-stim", "trial_index": 48, "time_elapsed": 414311, "internal_node_id": "0.0-35.0-4.0"}}, {"uniqueid": "MTK0706:3A7Y0R2P2PVJF0S9YIYHNEMCA1AXJ5", "current_trial": 49, "dateTime": 1512626946585, "trialdata": {"rt": -1, "stimulus": "<p id=\"stim\">5</p>", "key_press": -1, "trial_type": "single-stim", "trial_index": 49, "time_elapsed": 415311, "internal_node_id": "0.0-35.0-5.0"}}, {"uniqueid": "MTK0706:3A7Y0R2P2PVJF0S9YIYHNEMCA1AXJ5", "current_trial": 50, "dateTime": 1512626947585, "trialdata": {"rt": -1, "stimulus": "<p id=\"stim\">4</p>", "key_press": -1, "trial_type": "single-stim", "trial_index": 50, "time_elapsed": 416311, "internal_node_id": "0.0-35.0-6.0"}}, {"uniqueid": "MTK0706:3A7Y0R2P2PVJF0S9YIYHNEMCA1AXJ5", "current_trial": 51, "dateTime": 1512626948584, "trialdata": {"rt": -1, "stimulus": "<p id=\"stim\">3</p>", "key_press": -1, "trial_type": "single-stim", "trial_index": 51, "time_elapsed": 417310, "internal_node_id": "0.0-35.0-7.0"}}, {"uniqueid": "MTK0706:3A7Y0R2P2PVJF0S9YIYHNEMCA1AXJ5", "current_trial": 52, "dateTime": 1512626949584, "trialdata": {"rt": -1, "stimulus": "<p id=\"stim\">2</p>", "key_press": -1, "trial_type": "single-stim", "trial_index": 52, "time_elapsed": 418310, "internal_node_id": "0.0-35.0-8.0"}}, {"uniqueid": "MTK0706:3A7Y0R2P2PVJF0S9YIYHNEMCA1AXJ5", "current_trial": 53, "dateTime": 1512626950584, "trialdata": {"rt": -1, "stimulus": "<p id=\"stim\">1</p>", "key_press": -1, "trial_type": "single-stim", "trial_index": 53, "time_elapsed": 419310, "internal_node_id": "0.0-35.0-9.0"}}, {"uniqueid": "MTK0706:3A7Y0R2P2PVJF0S9YIYHNEMCA1AXJ5", "current_trial": 54, "dateTime": 1512626952084, "trialdata": {"rt": -1, "stimulus": "<p id=\"stim\">+</p>", "key_press": -1, "type": "FIXATION", "trial_type": "single-stim", "trial_index": 54, "time_elapsed": 420810, "internal_node_id": "0.0-36.0-0.0"}}, {"uniqueid": "MTK0706:3A7Y0R2P2PVJF0S9YIYHNEMCA1AXJ5", "current_trial": 55, "dateTime": 1512626954098, "trialdata": {"rt": -1000, "stimulus": "/static/audio/wordpool/LOFT.wav", "key_press": -1, "type": "PRES_AUD", "word": "loft", "wordID": 839, "conditions": [18, 1200, "a", 18000], "trial": 1, "serialpos": 0, "trial_type": "single-audio", "trial_index": 55, "time_elapsed": 422824, "internal_node_id": "0.0-37.0"}}, {"uniqueid": "MTK0706:3A7Y0R2P2PVJF0S9YIYHNEMCA1AXJ5", "current_trial": 56, "dateTime": 1512626956310, "trialdata": {"rt": -1000, "stimulus": "/static/audio/wordpool/SCOTCH.wav", "key_press": -1, "type": "PRES_AUD", "word": "scotch", "wordID": 1250, "conditions": [18, 1200, "a", 18000], "trial": 1, "serialpos": 1, "trial_type": "single-audio", "trial_index": 56, "time_elapsed": 425036, "internal_node_id": "0.0-38.0"}}, {"uniqueid": "MTK0706:3A7Y0R2P2PVJF0S9YIYHNEMCA1AXJ5", "current_trial": 57, "dateTime": 1512626958459, "trialdata": {"rt": -1000, "stimulus": "/static/audio/wordpool/AWARD.wav", "key_press": -1, "type": "PRES_AUD", "word": "award", "wordID": 62, "conditions": [18, 1200, "a", 18000], "trial": 1, "serialpos": 2, "trial_type": "single-audio", "trial_index": 57, "time_elapsed": 427185, "internal_node_id": "0.0-39.0"}}, {"uniqueid": "MTK0706:3A7Y0R2P2PVJF0S9YIYHNEMCA1AXJ5", "current_trial": 58, "dateTime": 1512626960500, "trialdata": {"rt": -1000, "stimulus": "/static/audio/wordpool/AGENT.wav", "key_press": -1, "type": "PRES_AUD", "word": "agent", "wordID": 9, "conditions": [18, 1200, "a", 18000], "trial": 1, "serialpos": 3, "trial_type": "single-audio", "trial_index": 58, "time_elapsed": 429226, "internal_node_id": "0.0-40.0"}}, {"uniqueid": "MTK0706:3A7Y0R2P2PVJF0S9YIYHNEMCA1AXJ5", "current_trial": 59, "dateTime": 1512626962842, "trialdata": {"rt": -1000, "stimulus": "/static/audio/wordpool/FRANCE.wav", "key_press": -1, "type": "PRES_AUD", "word": "france", "wordID": 600, "conditions": [18, 1200, "a", 18000], "trial": 1, "serialpos": 4, "trial_type": "single-audio", "trial_index": 59, "time_elapsed": 431568, "internal_node_id": "0.0-41.0"}}, {"uniqueid": "MTK0706:3A7Y0R2P2PVJF0S9YIYHNEMCA1AXJ5", "current_trial": 60, "dateTime": 1512626965192, "trialdata": {"rt": -1000, "stimulus": "/static/audio/wordpool/DRILL.wav", "key_press": -1, "type": "PRES_AUD", "word": "drill", "wordID": 496, "conditions": [18, 1200, "a", 18000], "trial": 1, "serialpos": 5, "trial_type": "single-audio", "trial_index": 60, "time_elapsed": 433918, "internal_node_id": "0.0-42.0"}}, {"uniqueid": "MTK0706:3A7Y0R2P2PVJF0S9YIYHNEMCA1AXJ5", "current_trial": 61, "dateTime": 1512626967206, "trialdata": {"rt": -1000, "stimulus": "/static/audio/wordpool/BEAST.wav", "key_press": -1, "type": "PRES_AUD", "word": "beast", "wordID": 107, "conditions": [18, 1200, "a", 18000], "trial": 1, "serialpos": 6, "trial_type": "single-audio", "trial_index": 61, "time_elapsed": 435932, "internal_node_id": "0.0-43.0"}}, {"uniqueid": "MTK0706:3A7Y0R2P2PVJF0S9YIYHNEMCA1AXJ5", "current_trial": 62, "dateTime": 1512626969301, "trialdata": {"rt": -1000, "stimulus": "/static/audio/wordpool/CLOCK.wav", "key_press": -1, "type": "PRES_AUD", "word": "clock", "wordID": 324, "conditions": [18, 1200, "a", 18000], "trial": 1, "serialpos": 7, "trial_type": "single-audio", "trial_index": 62, "time_elapsed": 438027, "internal_node_id": "0.0-44.0"}}, {"uniqueid": "MTK0706:3A7Y0R2P2PVJF0S9YIYHNEMCA1AXJ5", "current_trial": 63, "dateTime": 1512626971565, "trialdata": {"rt": -1000, "stimulus": "/static/audio/wordpool/BINDER.wav", "key_press": -1, "type": "PRES_AUD", "word": "binder", "wordID": 126, "conditions": [18, 1200, "a", 18000], "trial": 1, "serialpos": 8, "trial_type": "single-audio", "trial_index": 63, "time_elapsed": 440291, "internal_node_id": "0.0-45.0"}}, {"uniqueid": "MTK0706:3A7Y0R2P2PVJF0S9YIYHNEMCA1AXJ5", "current_trial": 64, "dateTime": 1512626973910, "trialdata": {"rt": -1000, "stimulus": "/static/audio/wordpool/SHELTER.wav", "key_press": -1, "type": "PRES_AUD", "word": "shelter", "wordID": 1281, "conditions": [18, 1200, "a", 18000], "trial": 1, "serialpos": 9, "trial_type": "single-audio", "trial_index": 64, "time_elapsed": 442636, "internal_node_id": "0.0-46.0"}}, {"uniqueid": "MTK0706:3A7Y0R2P2PVJF0S9YIYHNEMCA1AXJ5", "current_trial": 65, "dateTime": 1512626976131, "trialdata": {"rt": -1000, "stimulus": "/static/audio/wordpool/GRAVE.wav", "key_press": -1, "type": "PRES_AUD", "word": "grave", "wordID": 657, "conditions": [18, 1200, "a", 18000], "trial": 1, "serialpos": 10, "trial_type": "single-audio", "trial_index": 65, "time_elapsed": 444857, "internal_node_id": "0.0-47.0"}}, {"uniqueid": "MTK0706:3A7Y0R2P2PVJF0S9YIYHNEMCA1AXJ5", "current_trial": 66, "dateTime": 1512626978389, "trialdata": {"rt": -1000, "stimulus": "/static/audio/wordpool/CABBAGE.wav", "key_press": -1, "type": "PRES_AUD", "word": "cabbage", "wordID": 209, "conditions": [18, 1200, "a", 18000], "trial": 1, "serialpos": 11, "trial_type": "single-audio", "trial_index": 66, "time_elapsed": 447115, "internal_node_id": "0.0-48.0"}}, {"uniqueid": "MTK0706:3A7Y0R2P2PVJF0S9YIYHNEMCA1AXJ5", "current_trial": 67, "dateTime": 1512626980659, "trialdata": {"rt": -1000, "stimulus": "/static/audio/wordpool/DRUG.wav", "key_press": -1, "type": "PRES_AUD", "word": "drug", "wordID": 500, "conditions": [18, 1200, "a", 18000], "trial": 1, "serialpos": 12, "trial_type": "single-audio", "trial_index": 67, "time_elapsed": 449385, "internal_node_id": "0.0-49.0"}}, {"uniqueid": "MTK0706:3A7Y0R2P2PVJF0S9YIYHNEMCA1AXJ5", "current_trial": 68, "dateTime": 1512626983009, "trialdata": {"rt": -1000, "stimulus": "/static/audio/wordpool/HAWK.wav", "key_press": -1, "type": "PRES_AUD", "word": "hawk", "wordID": 691, "conditions": [18, 1200, "a", 18000], "trial": 1, "serialpos": 13, "trial_type": "single-audio", "trial_index": 68, "time_elapsed": 451733, "internal_node_id": "0.0-50.0"}}, {"uniqueid": "MTK0706:3A7Y0R2P2PVJF0S9YIYHNEMCA1AXJ5", "current_trial": 69, "dateTime": 1512626985107, "trialdata": {"rt": -1000, "stimulus": "/static/audio/wordpool/DASHBOARD.wav", "key_press": -1, "type": "PRES_AUD", "word": "dashboard", "wordID": 440, "conditions": [18, 1200, "a", 18000], "trial": 1, "serialpos": 14, "trial_type": "single-audio", "trial_index": 69, "time_elapsed": 453833, "internal_node_id": "0.0-51.0"}}, {"uniqueid": "MTK0706:3A7Y0R2P2PVJF0S9YIYHNEMCA1AXJ5", "current_trial": 70, "dateTime": 1512626987360, "trialdata": {"rt": -1000, "stimulus": "/static/audio/wordpool/SEAFOOD.wav", "key_press": -1, "type": "PRES_AUD", "word": "seafood", "wordID": 1259, "conditions": [18, 1200, "a", 18000], "trial": 1, "serialpos": 15, "trial_type": "single-audio", "trial_index": 70, "time_elapsed": 456086, "internal_node_id": "0.0-52.0"}}, {"uniqueid": "MTK0706:3A7Y0R2P2PVJF0S9YIYHNEMCA1AXJ5", "current_trial": 71, "dateTime": 1512626989627, "trialdata": {"rt": -1000, "stimulus": "/static/audio/wordpool/WIFE.wav", "key_press": -1, "type": "PRES_AUD", "word": "wife", "wordID": 1608, "conditions": [18, 1200, "a", 18000], "trial": 1, "serialpos": 16, "trial_type": "single-audio", "trial_index": 71, "time_elapsed": 458353, "internal_node_id": "0.0-53.0"}}, {"uniqueid": "MTK0706:3A7Y0R2P2PVJF0S9YIYHNEMCA1AXJ5", "current_trial": 72, "dateTime": 1512626991655, "trialdata": {"rt": -1000, "stimulus": "/static/audio/wordpool/AUTHOR.wav", "key_press": -1, "type": "PRES_AUD", "word": "author", "wordID": 60, "conditions": [18, 1200, "a", 18000], "trial": 1, "serialpos": 17, "trial_type": "single-audio", "trial_index": 72, "time_elapsed": 460381, "internal_node_id": "0.0-54.0"}}, {"uniqueid": "MTK0706:3A7Y0R2P2PVJF0S9YIYHNEMCA1AXJ5", "current_trial": 73, "dateTime": 1512626993011, "trialdata": {"rt": -1, "stimulus": "", "key_press": -1, "type": "PRE_RECALL_DELAY", "trial_type": "single-stim", "trial_index": 73, "time_elapsed": 461736, "internal_node_id": "0.0-55.0-0.0"}}, {"uniqueid": "MTK0706:3A7Y0R2P2PVJF0S9YIYHNEMCA1AXJ5", "current_trial": 74, "dateTime": 1512626993512, "trialdata": {"rt": -1000, "stimulus": "/static/audio/400Hz.wav", "key_press": -1, "type": "PRE_RECALL_ALERT", "trial_type": "single-audio", "trial_index": 74, "time_elapsed": 462238, "internal_node_id": "0.0-56.0"}}, {"uniqueid": "MTK0706:3A7Y0R2P2PVJF0S9YIYHNEMCA1AXJ5", "current_trial": 75, "dateTime": 1512627053517, "trialdata": {"rt": [2405, 4141, 6069, 14013, 21773, 40445], "recwords": ["wife", "author", "seafood", "beast", "window", "smog"], "type": "FREE_RECALL", "conditions": [18, 1200, "a", 18000], "trial": 1, "trial_type": "free-recall", "trial_index": 75, "time_elapsed": 522240, "internal_node_id": "0.0-57.0-0.0"}}, {"uniqueid": "MTK0706:3A7Y0R2P2PVJF0S9YIYHNEMCA1AXJ5", "current_trial": 76, "dateTime": 1512627057633, "trialdata": {"rt": 2113, "key_press": 32, "type": "INSTRUCTIONS", "trial_type": "text", "trial_index": 76, "time_elapsed": 526356, "internal_node_id": "0.0-58.0"}}, {"uniqueid": "MTK0706:3A7Y0R2P2PVJF0S9YIYHNEMCA1AXJ5", "current_trial": 77, "dateTime": 1512627082634, "trialdata": {"rt": [2740, 5124, 7156, 10708, 12820, 15899, 18355, 21188], "responses": ["13", "18", "10", "12", "17", "11", "16", "23"], "num1": [4, 8, 2, 4, 7, 3, 1, 7, 9], "num2": [5, 1, 2, 1, 9, 6, 8, 8, 5], "num3": [4, 9, 6, 7, 1, 2, 7, 8, 8], "type": "DISTRACTOR", "conditions": [12, 1600, "a", 24000], "trial": 2, "trial_type": "math-distractor", "trial_index": 77, "time_elapsed": 551360, "internal_node_id": "0.0-59.0"}}, {"uniqueid": "MTK0706:3A7Y0R2P2PVJF0S9YIYHNEMCA1AXJ5", "current_trial": 78, "dateTime": 1512627085634, "trialdata": {"rt": -1, "stimulus": "<p id=\"stim\">10</p>", "key_press": -1, "trial_type": "single-stim", "trial_index": 78, "time_elapsed": 554360, "internal_node_id": "0.0-60.0-0.0"}}, {"uniqueid": "MTK0706:3A7Y0R2P2PVJF0S9YIYHNEMCA1AXJ5", "current_trial": 79, "dateTime": 1512627086634, "trialdata": {"rt": -1, "stimulus": "<p id=\"stim\">9</p>", "key_press": -1, "trial_type": "single-stim", "trial_index": 79, "time_elapsed": 555360, "internal_node_id": "0.0-60.0-1.0"}}, {"uniqueid": "MTK0706:3A7Y0R2P2PVJF0S9YIYHNEMCA1AXJ5", "current_trial": 80, "dateTime": 1512627087634, "trialdata": {"rt": -1, "stimulus": "<p id=\"stim\">8</p>", "key_press": -1, "trial_type": "single-stim", "trial_index": 80, "time_elapsed": 556360, "internal_node_id": "0.0-60.0-2.0"}}, {"uniqueid": "MTK0706:3A7Y0R2P2PVJF0S9YIYHNEMCA1AXJ5", "current_trial": 81, "dateTime": 1512627088634, "trialdata": {"rt": -1, "stimulus": "<p id=\"stim\">7</p>", "key_press": -1, "trial_type": "single-stim", "trial_index": 81, "time_elapsed": 557360, "internal_node_id": "0.0-60.0-3.0"}}, {"uniqueid": "MTK0706:3A7Y0R2P2PVJF0S9YIYHNEMCA1AXJ5", "current_trial": 82, "dateTime": 1512627089634, "trialdata": {"rt": -1, "stimulus": "<p id=\"stim\">6</p>", "key_press": -1, "trial_type": "single-stim", "trial_index": 82, "time_elapsed": 558360, "internal_node_id": "0.0-60.0-4.0"}}, {"uniqueid": "MTK0706:3A7Y0R2P2PVJF0S9YIYHNEMCA1AXJ5", "current_trial": 83, "dateTime": 1512627090634, "trialdata": {"rt": -1, "stimulus": "<p id=\"stim\">5</p>", "key_press": -1, "trial_type": "single-stim", "trial_index": 83, "time_elapsed": 559360, "internal_node_id": "0.0-60.0-5.0"}}, {"uniqueid": "MTK0706:3A7Y0R2P2PVJF0S9YIYHNEMCA1AXJ5", "current_trial": 84, "dateTime": 1512627091634, "trialdata": {"rt": -1, "stimulus": "<p id=\"stim\">4</p>", "key_press": -1, "trial_type": "single-stim", "trial_index": 84, "time_elapsed": 560360, "internal_node_id": "0.0-60.0-6.0"}}, {"uniqueid": "MTK0706:3A7Y0R2P2PVJF0S9YIYHNEMCA1AXJ5", "current_trial": 85, "dateTime": 1512627092635, "trialdata": {"rt": -1, "stimulus": "<p id=\"stim\">3</p>", "key_press": -1, "trial_type": "single-stim", "trial_index": 85, "time_elapsed": 561361, "internal_node_id": "0.0-60.0-7.0"}}, {"uniqueid": "MTK0706:3A7Y0R2P2PVJF0S9YIYHNEMCA1AXJ5", "current_trial": 86, "dateTime": 1512627093635, "trialdata": {"rt": -1, "stimulus": "<p id=\"stim\">2</p>", "key_press": -1, "trial_type": "single-stim", "trial_index": 86, "time_elapsed": 562361, "internal_node_id": "0.0-60.0-8.0"}}, {"uniqueid": "MTK0706:3A7Y0R2P2PVJF0S9YIYHNEMCA1AXJ5", "current_trial": 87, "dateTime": 1512627094635, "trialdata": {"rt": -1, "stimulus": "<p id=\"stim\">1</p>", "key_press": -1, "trial_type": "single-stim", "trial_index": 87, "time_elapsed": 563361, "internal_node_id": "0.0-60.0-9.0"}}, {"uniqueid": "MTK0706:3A7Y0R2P2PVJF0S9YIYHNEMCA1AXJ5", "current_trial": 88, "dateTime": 1512627096135, "trialdata": {"rt": -1, "stimulus": "<p id=\"stim\">+</p>", "key_press": -1, "type": "FIXATION", "trial_type": "single-stim", "trial_index": 88, "time_elapsed": 564861, "internal_node_id": "0.0-61.0-0.0"}}, {"uniqueid": "MTK0706:3A7Y0R2P2PVJF0S9YIYHNEMCA1AXJ5", "current_trial": 89, "dateTime": 1512627098627, "trialdata": {"rt": -1000, "stimulus": "/static/audio/wordpool/CANYON.wav", "key_press": -1, "type": "PRES_AUD", "word": "canyon", "wordID": 234, "conditions": [12, 1600, "a", 24000], "trial": 2, "serialpos": 0, "trial_type": "single-audio", "trial_index": 89, "time_elapsed": 567353, "internal_node_id": "0.0-62.0"}}, {"uniqueid": "MTK0706:3A7Y0R2P2PVJF0S9YIYHNEMCA1AXJ5", "current_trial": 90, "dateTime": 1512627101333, "trialdata": {"rt": -1000, "stimulus": "/static/audio/wordpool/LETTUCE.wav", "key_press": -1, "type": "PRES_AUD", "word": "lettuce", "wordID": 813, "conditions": [12, 1600, "a", 24000], "trial": 2, "serialpos": 1, "trial_type": "single-audio", "trial_index": 90, "time_elapsed": 570059, "internal_node_id": "0.0-63.0"}}, {"uniqueid": "MTK0706:3A7Y0R2P2PVJF0S9YIYHNEMCA1AXJ5", "current_trial": 91, "dateTime": 1512627103873, "trialdata": {"rt": -1000, "stimulus": "/static/audio/wordpool/GARLIC.wav", "key_press": -1, "type": "PRES_AUD", "word": "garlic", "wordID": 623, "conditions": [12, 1600, "a", 24000], "trial": 2, "serialpos": 2, "trial_type": "single-audio", "trial_index": 91, "time_elapsed": 572599, "internal_node_id": "0.0-64.0"}}, {"uniqueid": "MTK0706:3A7Y0R2P2PVJF0S9YIYHNEMCA1AXJ5", "current_trial": 92, "dateTime": 1512627106607, "trialdata": {"rt": -1000, "stimulus": "/static/audio/wordpool/DONOR.wav", "key_press": -1, "type": "PRES_AUD", "word": "donor", "wordID": 484, "conditions": [12, 1600, "a", 24000], "trial": 2, "serialpos": 3, "trial_type": "single-audio", "trial_index": 92, "time_elapsed": 575333, "internal_node_id": "0.0-65.0"}}, {"uniqueid": "MTK0706:3A7Y0R2P2PVJF0S9YIYHNEMCA1AXJ5", "current_trial": 93, "dateTime": 1512627109301, "trialdata": {"rt": -1000, "stimulus": "/static/audio/wordpool/OZONE.wav", "key_press": -1, "type": "PRES_AUD", "word": "ozone", "wordID": 995, "conditions": [12, 1600, "a", 24000], "trial": 2, "serialpos": 4, "trial_type": "single-audio", "trial_index": 93, "time_elapsed": 578027, "internal_node_id": "0.0-66.0"}}, {"uniqueid": "MTK0706:3A7Y0R2P2PVJF0S9YIYHNEMCA1AXJ5", "current_trial": 94, "dateTime": 1512627112033, "trialdata": {"rt": -1000, "stimulus": "/static/audio/wordpool/COMET.wav", "key_press": -1, "type": "PRES_AUD", "word": "comet", "wordID": 352, "conditions": [12, 1600, "a", 24000], "trial": 2, "serialpos": 5, "trial_type": "single-audio", "trial_index": 94, "time_elapsed": 580759, "internal_node_id": "0.0-67.0"}}, {"uniqueid": "MTK0706:3A7Y0R2P2PVJF0S9YIYHNEMCA1AXJ5", "current_trial": 95, "dateTime": 1512627114677, "trialdata": {"rt": -1000, "stimulus": "/static/audio/wordpool/CRATER.wav", "key_press": -1, "type": "PRES_AUD", "word": "crater", "wordID": 399, "conditions": [12, 1600, "a", 24000], "trial": 2, "serialpos": 6, "trial_type": "single-audio", "trial_index": 95, "time_elapsed": 583403, "internal_node_id": "0.0-68.0"}}, {"uniqueid": "MTK0706:3A7Y0R2P2PVJF0S9YIYHNEMCA1AXJ5", "current_trial": 96, "dateTime": 1512627117326, "trialdata": {"rt": -1000, "stimulus": "/static/audio/wordpool/HIGHWAY.wav", "key_press": -1, "type": "PRES_AUD", "word": "highway", "wordID": 706, "conditions": [12, 1600, "a", 24000], "trial": 2, "serialpos": 7, "trial_type": "single-audio", "trial_index": 96, "time_elapsed": 586052, "internal_node_id": "0.0-69.0"}}, {"uniqueid": "MTK0706:3A7Y0R2P2PVJF0S9YIYHNEMCA1AXJ5", "current_trial": 97, "dateTime": 1512627119795, "trialdata": {"rt": -1000, "stimulus": "/static/audio/wordpool/CREVICE.wav", "key_press": -1, "type": "PRES_AUD", "word": "crevice", "wordID": 404, "conditions": [12, 1600, "a", 24000], "trial": 2, "serialpos": 8, "trial_type": "single-audio", "trial_index": 97, "time_elapsed": 588521, "internal_node_id": "0.0-70.0"}}, {"uniqueid": "MTK0706:3A7Y0R2P2PVJF0S9YIYHNEMCA1AXJ5", "current_trial": 98, "dateTime": 1512627122323, "trialdata": {"rt": -1000, "stimulus": "/static/audio/wordpool/VALLEY.wav", "key_press": -1, "type": "PRES_AUD", "word": "valley", "wordID": 1544, "conditions": [12, 1600, "a", 24000], "trial": 2, "serialpos": 9, "trial_type": "single-audio", "trial_index": 98, "time_elapsed": 591049, "internal_node_id": "0.0-71.0"}}, {"uniqueid": "MTK0706:3A7Y0R2P2PVJF0S9YIYHNEMCA1AXJ5", "current_trial": 99, "dateTime": 1512627124841, "trialdata": {"rt": -1000, "stimulus": "/static/audio/wordpool/SUMMIT.wav", "key_press": -1, "type": "PRES_AUD", "word": "summit", "wordID": 1404, "conditions": [12, 1600, "a", 24000], "trial": 2, "serialpos": 10, "trial_type": "single-audio", "trial_index": 99, "time_elapsed": 593567, "internal_node_id": "0.0-72.0"}}, {"uniqueid": "MTK0706:3A7Y0R2P2PVJF0S9YIYHNEMCA1AXJ5", "current_trial": 100, "dateTime": 1512627127546, "trialdata": {"rt": -1000, "stimulus": "/static/audio/wordpool/CLOUD.wav", "key_press": -1, "type": "PRES_AUD", "word": "cloud", "wordID": 327, "conditions": [12, 1600, "a", 24000], "trial": 2, "serialpos": 11, "trial_type": "single-audio", "trial_index": 100, "time_elapsed": 596272, "internal_node_id": "0.0-73.0"}}, {"uniqueid": "MTK0706:3A7Y0R2P2PVJF0S9YIYHNEMCA1AXJ5", "current_trial": 101, "dateTime": 1512627128885, "trialdata": {"rt": -1, "stimulus": "", "key_press": -1, "type": "PRE_RECALL_DELAY", "trial_type": "single-stim", "trial_index": 101, "time_elapsed": 597611, "internal_node_id": "0.0-74.0-0.0"}}, {"uniqueid": "MTK0706:3A7Y0R2P2PVJF0S9YIYHNEMCA1AXJ5", "current_trial": 102, "dateTime": 1512627129386, "trialdata": {"rt": -1000, "stimulus": "/static/audio/400Hz.wav", "key_press": -1, "type": "PRE_RECALL_ALERT", "trial_type": "single-audio", "trial_index": 102, "time_elapsed": 598112, "internal_node_id": "0.0-75.0"}}, {"uniqueid": "MTK0706:3A7Y0R2P2PVJF0S9YIYHNEMCA1AXJ5", "current_trial": 103, "dateTime": 1512627189390, "trialdata": {"rt": [3427, 5875, 7835, 9571, 11539, 20427, 23787, 34035], "recwords": ["cloud", "crater", "crevice", "summit", "cloud", "canyon", "lettuce", "ozone"], "type": "FREE_RECALL", "conditions": [12, 1600, "a", 24000], "trial": 2, "trial_type": "free-recall", "trial_index": 103, "time_elapsed": 658113, "internal_node_id": "0.0-76.0-0.0"}}, {"uniqueid": "MTK0706:3A7Y0R2P2PVJF0S9YIYHNEMCA1AXJ5", "current_trial": 104, "dateTime": 1512627193294, "trialdata": {"rt": 1904, "key_press": 32, "type": "INSTRUCTIONS", "trial_type": "text", "trial_index": 104, "time_elapsed": 662020, "internal_node_id": "0.0-77.0"}}, {"uniqueid": "MTK0706:3A7Y0R2P2PVJF0S9YIYHNEMCA1AXJ5", "current_trial": 105, "dateTime": 1512627207294, "trialdata": {"rt": [2551, 5095, 7087, 10256], "responses": ["18", "20", "11", "23"], "num1": [8, 6, 2, 7, 4], "num2": [8, 7, 4, 9, 3], "num3": [2, 7, 5, 7, 1], "type": "DISTRACTOR", "conditions": [12, 800, "v", 12000], "trial": 3, "trial_type": "math-distractor", "trial_index": 105, "time_elapsed": 676020, "internal_node_id": "0.0-78.0"}}, {"uniqueid": "MTK0706:3A7Y0R2P2PVJF0S9YIYHNEMCA1AXJ5", "current_trial": 106, "dateTime": 1512627210294, "trialdata": {"rt": -1, "stimulus": "<p id=\"stim\">10</p>", "key_press": -1, "trial_type": "single-stim", "trial_index": 106, "time_elapsed": 679020, "internal_node_id": "0.0-79.0-0.0"}}, {"uniqueid": "MTK0706:3A7Y0R2P2PVJF0S9YIYHNEMCA1AXJ5", "current_trial": 107, "dateTime": 1512627211294, "trialdata": {"rt": -1, "stimulus": "<p id=\"stim\">9</p>", "key_press": -1, "trial_type": "single-stim", "trial_index": 107, "time_elapsed": 680020, "internal_node_id": "0.0-79.0-1.0"}}, {"uniqueid": "MTK0706:3A7Y0R2P2PVJF0S9YIYHNEMCA1AXJ5", "current_trial": 108, "dateTime": 1512627212294, "trialdata": {"rt": -1, "stimulus": "<p id=\"stim\">8</p>", "key_press": -1, "trial_type": "single-stim", "trial_index": 108, "time_elapsed": 681020, "internal_node_id": "0.0-79.0-2.0"}}, {"uniqueid": "MTK0706:3A7Y0R2P2PVJF0S9YIYHNEMCA1AXJ5", "current_trial": 109, "dateTime": 1512627213294, "trialdata": {"rt": -1, "stimulus": "<p id=\"stim\">7</p>", "key_press": -1, "trial_type": "single-stim", "trial_index": 109, "time_elapsed": 682020, "internal_node_id": "0.0-79.0-3.0"}}, {"uniqueid": "MTK0706:3A7Y0R2P2PVJF0S9YIYHNEMCA1AXJ5", "current_trial": 110, "dateTime": 1512627214294, "trialdata": {"rt": -1, "stimulus": "<p id=\"stim\">6</p>", "key_press": -1, "trial_type": "single-stim", "trial_index": 110, "time_elapsed": 683020, "internal_node_id": "0.0-79.0-4.0"}}, {"uniqueid": "MTK0706:3A7Y0R2P2PVJF0S9YIYHNEMCA1AXJ5", "current_trial": 111, "dateTime": 1512627215294, "trialdata": {"rt": -1, "stimulus": "<p id=\"stim\">5</p>", "key_press": -1, "trial_type": "single-stim", "trial_index": 111, "time_elapsed": 684020, "internal_node_id": "0.0-79.0-5.0"}}, {"uniqueid": "MTK0706:3A7Y0R2P2PVJF0S9YIYHNEMCA1AXJ5", "current_trial": 112, "dateTime": 1512627216294, "trialdata": {"rt": -1, "stimulus": "<p id=\"stim\">4</p>", "key_press": -1, "trial_type": "single-stim", "trial_index": 112, "time_elapsed": 685020, "internal_node_id": "0.0-79.0-6.0"}}, {"uniqueid": "MTK0706:3A7Y0R2P2PVJF0S9YIYHNEMCA1AXJ5", "current_trial": 113, "dateTime": 1512627217294, "trialdata": {"rt": -1, "stimulus": "<p id=\"stim\">3</p>", "key_press": -1, "trial_type": "single-stim", "trial_index": 113, "time_elapsed": 686020, "internal_node_id": "0.0-79.0-7.0"}}, {"uniqueid": "MTK0706:3A7Y0R2P2PVJF0S9YIYHNEMCA1AXJ5", "current_trial": 114, "dateTime": 1512627218294, "trialdata": {"rt": -1, "stimulus": "<p id=\"stim\">2</p>", "key_press": -1, "trial_type": "single-stim", "trial_index": 114, "time_elapsed": 687020, "internal_node_id": "0.0-79.0-8.0"}}, {"uniqueid": "MTK0706:3A7Y0R2P2PVJF0S9YIYHNEMCA1AXJ5", "current_trial": 115, "dateTime": 1512627219294, "trialdata": {"rt": -1, "stimulus": "<p id=\"stim\">1</p>", "key_press": -1, "trial_type": "single-stim", "trial_index": 115, "time_elapsed": 688020, "internal_node_id": "0.0-79.0-9.0"}}, {"uniqueid": "MTK0706:3A7Y0R2P2PVJF0S9YIYHNEMCA1AXJ5", "current_trial": 116, "dateTime": 1512627220794, "trialdata": {"rt": -1, "stimulus": "<p id=\"stim\">+</p>", "key_press": -1, "type": "FIXATION", "trial_type": "single-stim", "trial_index": 116, "time_elapsed": 689520, "internal_node_id": "0.0-80.0-0.0"}}, {"uniqueid": "MTK0706:3A7Y0R2P2PVJF0S9YIYHNEMCA1AXJ5", "current_trial": 117, "dateTime": 1512627221594, "trialdata": {"rt": -1, "stimulus": "<p id=\"stim\">BRIEFCASE</p>", "key_press": -1, "type": "PRES_VIS", "word": "briefcase", "wordID": 174, "conditions": [12, 800, "v", 12000], "trial": 3, "serialpos": 0, "trial_type": "single-stim", "trial_index": 117, "time_elapsed": 690320, "internal_node_id": "0.0-81.0"}}, {"uniqueid": "MTK0706:3A7Y0R2P2PVJF0S9YIYHNEMCA1AXJ5", "current_trial": 118, "dateTime": 1512627223461, "trialdata": {"rt": -1, "stimulus": "<p id=\"stim\">DOLPHIN</p>", "key_press": -1, "type": "PRES_VIS", "word": "dolphin", "wordID": 482, "conditions": [12, 800, "v", 12000], "trial": 3, "serialpos": 1, "trial_type": "single-stim", "trial_index": 118, "time_elapsed": 692187, "internal_node_id": "0.0-82.0"}}, {"uniqueid": "MTK0706:3A7Y0R2P2PVJF0S9YIYHNEMCA1AXJ5", "current_trial": 119, "dateTime": 1512627225173, "trialdata": {"rt": -1, "stimulus": "<p id=\"stim\">LOVER</p>", "key_press": -1, "type": "PRES_VIS", "word": "lover", "wordID": 845, "conditions": [12, 800, "v", 12000], "trial": 3, "serialpos": 2, "trial_type": "single-stim", "trial_index": 119, "time_elapsed": 693899, "internal_node_id": "0.0-83.0"}}, {"uniqueid": "MTK0706:3A7Y0R2P2PVJF0S9YIYHNEMCA1AXJ5", "current_trial": 120, "dateTime": 1512627226874, "trialdata": {"rt": -1, "stimulus": "<p id=\"stim\">CARROT</p>", "key_press": -1, "type": "PRES_VIS", "word": "carrot", "wordID": 248, "conditions": [12, 800, "v", 12000], "trial": 3, "serialpos": 3, "trial_type": "single-stim", "trial_index": 120, "time_elapsed": 695600, "internal_node_id": "0.0-84.0"}}, {"uniqueid": "MTK0706:3A7Y0R2P2PVJF0S9YIYHNEMCA1AXJ5", "current_trial": 121, "dateTime": 1512627228797, "trialdata": {"rt": -1, "stimulus": "<p id=\"stim\">NOTEBOOK</p>", "key_press": -1, "type": "PRES_VIS", "word": "notebook", "wordID": 958, "conditions": [12, 800, "v", 12000], "trial": 3, "serialpos": 4, "trial_type": "single-stim", "trial_index": 121, "time_elapsed": 697523, "internal_node_id": "0.0-85.0"}}, {"uniqueid": "MTK0706:3A7Y0R2P2PVJF0S9YIYHNEMCA1AXJ5", "current_trial": 122, "dateTime": 1512627230581, "trialdata": {"rt": -1, "stimulus": "<p id=\"stim\">WRIST</p>", "key_press": -1, "type": "PRES_VIS", "word": "wrist", "wordID": 1625, "conditions": [12, 800, "v", 12000], "trial": 3, "serialpos": 5, "trial_type": "single-stim", "trial_index": 122, "time_elapsed": 699306, "internal_node_id": "0.0-86.0"}}, {"uniqueid": "MTK0706:3A7Y0R2P2PVJF0S9YIYHNEMCA1AXJ5", "current_trial": 123, "dateTime": 1512627232360, "trialdata": {"rt": -1, "stimulus": "<p id=\"stim\">TRIBE</p>", "key_press": -1, "type": "PRES_VIS", "word": "tribe", "wordID": 1504, "conditions": [12, 800, "v", 12000], "trial": 3, "serialpos": 6, "trial_type": "single-stim", "trial_index": 123, "time_elapsed": 701086, "internal_node_id": "0.0-87.0"}}, {"uniqueid": "MTK0706:3A7Y0R2P2PVJF0S9YIYHNEMCA1AXJ5", "current_trial": 124, "dateTime": 1512627234194, "trialdata": {"rt": -1, "stimulus": "<p id=\"stim\">PRINCESS</p>", "key_press": -1, "type": "PRES_VIS", "word": "princess", "wordID": 1124, "conditions": [12, 800, "v", 12000], "trial": 3, "serialpos": 7, "trial_type": "single-stim", "trial_index": 124, "time_elapsed": 702920, "internal_node_id": "0.0-88.0"}}, {"uniqueid": "MTK0706:3A7Y0R2P2PVJF0S9YIYHNEMCA1AXJ5", "current_trial": 125, "dateTime": 1512627236024, "trialdata": {"rt": -1, "stimulus": "<p id=\"stim\">POSSUM</p>", "key_press": -1, "type": "PRES_VIS", "word": "possum", "wordID": 1111, "conditions": [12, 800, "v", 12000], "trial": 3, "serialpos": 8, "trial_type": "single-stim", "trial_index": 125, "time_elapsed": 704750, "internal_node_id": "0.0-89.0"}}, {"uniqueid": "MTK0706:3A7Y0R2P2PVJF0S9YIYHNEMCA1AXJ5", "current_trial": 126, "dateTime": 1512627237961, "trialdata": {"rt": -1, "stimulus": "<p id=\"stim\">SHARK</p>", "key_press": -1, "type": "PRES_VIS", "word": "shark", "wordID": 1274, "conditions": [12, 800, "v", 12000], "trial": 3, "serialpos": 9, "trial_type": "single-stim", "trial_index": 126, "time_elapsed": 706687, "internal_node_id": "0.0-90.0"}}, {"uniqueid": "MTK0706:3A7Y0R2P2PVJF0S9YIYHNEMCA1AXJ5", "current_trial": 127, "dateTime": 1512627239776, "trialdata": {"rt": -1, "stimulus": "<p id=\"stim\">SPOOL</p>", "key_press": -1, "type": "PRES_VIS", "word": "spool", "wordID": 1355, "conditions": [12, 800, "v", 12000], "trial": 3, "serialpos": 10, "trial_type": "single-stim", "trial_index": 127, "time_elapsed": 708502, "internal_node_id": "0.0-91.0"}}, {"uniqueid": "MTK0706:3A7Y0R2P2PVJF0S9YIYHNEMCA1AXJ5", "current_trial": 128, "dateTime": 1512627241642, "trialdata": {"rt": -1, "stimulus": "<p id=\"stim\">ROD</p>", "key_press": -1, "type": "PRES_VIS", "word": "rod", "wordID": 1202, "conditions": [12, 800, "v", 12000], "trial": 3, "serialpos": 11, "trial_type": "single-stim", "trial_index": 128, "time_elapsed": 710368, "internal_node_id": "0.0-92.0"}}, {"uniqueid": "MTK0706:3A7Y0R2P2PVJF0S9YIYHNEMCA1AXJ5", "current_trial": 129, "dateTime": 1512627244105, "trialdata": {"rt": -1, "stimulus": "", "key_press": -1, "type": "PRE_RECALL_DELAY", "trial_type": "single-stim", "trial_index": 129, "time_elapsed": 712831, "internal_node_id": "0.0-93.0-0.0"}}, {"uniqueid": "MTK0706:3A7Y0R2P2PVJF0S9YIYHNEMCA1AXJ5", "current_trial": 130, "dateTime": 1512627244605, "trialdata": {"rt": -1000, "stimulus": "/static/audio/400Hz.wav", "key_press": -1, "type": "PRE_RECALL_ALERT", "trial_type": "single-audio", "trial_index": 130, "time_elapsed": 713331, "internal_node_id": "0.0-94.0"}}, {"uniqueid": "MTK0706:3A7Y0R2P2PVJF0S9YIYHNEMCA1AXJ5", "current_trial": 131, "dateTime": 1512627304609, "trialdata": {"rt": [2158, 5358, 6959, 9734, 11831], "recwords": ["shark", "spool", "rod", "princess", "possum"], "type": "FREE_RECALL", "conditions": [12, 800, "v", 12000], "trial": 3, "trial_type": "free-recall", "trial_index": 131, "time_elapsed": 773333, "internal_node_id": "0.0-95.0-0.0"}}, {"uniqueid": "MTK0706:3A7Y0R2P2PVJF0S9YIYHNEMCA1AXJ5", "current_trial": 132, "dateTime": 1512627308102, "trialdata": {"rt": 1493, "key_press": 32, "type": "INSTRUCTIONS", "trial_type": "text", "trial_index": 132, "time_elapsed": 776828, "internal_node_id": "0.0-96.0"}}, {"uniqueid": "MTK0706:3A7Y0R2P2PVJF0S9YIYHNEMCA1AXJ5", "current_trial": 133, "dateTime": 1512627322103, "trialdata": {"rt": [2238, 4238, 6654, 8662, 10678], "responses": ["16", "15", "8", "7", "19"], "num1": [7, 7, 2, 3, 9, 1], "num2": [7, 1, 1, 1, 7, 1], "num3": [2, 7, 5, 3, 3, 9], "type": "DISTRACTOR", "conditions": [24, 800, "a", 12000], "trial": 4, "trial_type": "math-distractor", "trial_index": 133, "time_elapsed": 790829, "internal_node_id": "0.0-97.0"}}, {"uniqueid": "MTK0706:3A7Y0R2P2PVJF0S9YIYHNEMCA1AXJ5", "current_trial": 134, "dateTime": 1512627325103, "trialdata": {"rt": -1, "stimulus": "<p id=\"stim\">10</p>", "key_press": -1, "trial_type": "single-stim", "trial_index": 134, "time_elapsed": 793829, "internal_node_id": "0.0-98.0-0.0"}}, {"uniqueid": "MTK0706:3A7Y0R2P2PVJF0S9YIYHNEMCA1AXJ5", "current_trial": 135, "dateTime": 1512627326104, "trialdata": {"rt": -1, "stimulus": "<p id=\"stim\">9</p>", "key_press": -1, "trial_type": "single-stim", "trial_index": 135, "time_elapsed": 794830, "internal_node_id": "0.0-98.0-1.0"}}, {"uniqueid": "MTK0706:3A7Y0R2P2PVJF0S9YIYHNEMCA1AXJ5", "current_trial": 136, "dateTime": 1512627327105, "trialdata": {"rt": -1, "stimulus": "<p id=\"stim\">8</p>", "key_press": -1, "trial_type": "single-stim", "trial_index": 136, "time_elapsed": 795831, "internal_node_id": "0.0-98.0-2.0"}}, {"uniqueid": "MTK0706:3A7Y0R2P2PVJF0S9YIYHNEMCA1AXJ5", "current_trial": 137, "dateTime": 1512627328105, "trialdata": {"rt": -1, "stimulus": "<p id=\"stim\">7</p>", "key_press": -1, "trial_type": "single-stim", "trial_index": 137, "time_elapsed": 796831, "internal_node_id": "0.0-98.0-3.0"}}, {"uniqueid": "MTK0706:3A7Y0R2P2PVJF0S9YIYHNEMCA1AXJ5", "current_trial": 138, "dateTime": 1512627329105, "trialdata": {"rt": -1, "stimulus": "<p id=\"stim\">6</p>", "key_press": -1, "trial_type": "single-stim", "trial_index": 138, "time_elapsed": 797831, "internal_node_id": "0.0-98.0-4.0"}}, {"uniqueid": "MTK0706:3A7Y0R2P2PVJF0S9YIYHNEMCA1AXJ5", "current_trial": 139, "dateTime": 1512627330105, "trialdata": {"rt": -1, "stimulus": "<p id=\"stim\">5</p>", "key_press": -1, "trial_type": "single-stim", "trial_index": 139, "time_elapsed": 798831, "internal_node_id": "0.0-98.0-5.0"}}, {"uniqueid": "MTK0706:3A7Y0R2P2PVJF0S9YIYHNEMCA1AXJ5", "current_trial": 140, "dateTime": 1512627331106, "trialdata": {"rt": -1, "stimulus": "<p id=\"stim\">4</p>", "key_press": -1, "trial_type": "single-stim", "trial_index": 140, "time_elapsed": 799831, "internal_node_id": "0.0-98.0-6.0"}}, {"uniqueid": "MTK0706:3A7Y0R2P2PVJF0S9YIYHNEMCA1AXJ5", "current_trial": 141, "dateTime": 1512627332106, "trialdata": {"rt": -1, "stimulus": "<p id=\"stim\">3</p>", "key_press": -1, "trial_type": "single-stim", "trial_index": 141, "time_elapsed": 800832, "internal_node_id": "0.0-98.0-7.0"}}, {"uniqueid": "MTK0706:3A7Y0R2P2PVJF0S9YIYHNEMCA1AXJ5", "current_trial": 142, "dateTime": 1512627333106, "trialdata": {"rt": -1, "stimulus": "<p id=\"stim\">2</p>", "key_press": -1, "trial_type": "single-stim", "trial_index": 142, "time_elapsed": 801832, "internal_node_id": "0.0-98.0-8.0"}}, {"uniqueid": "MTK0706:3A7Y0R2P2PVJF0S9YIYHNEMCA1AXJ5", "current_trial": 143, "dateTime": 1512627334106, "trialdata": {"rt": -1, "stimulus": "<p id=\"stim\">1</p>", "key_press": -1, "trial_type": "single-stim", "trial_index": 143, "time_elapsed": 802832, "internal_node_id": "0.0-98.0-9.0"}}, {"uniqueid": "MTK0706:3A7Y0R2P2PVJF0S9YIYHNEMCA1AXJ5", "current_trial": 144, "dateTime": 1512627335606, "trialdata": {"rt": -1, "stimulus": "<p id=\"stim\">+</p>", "key_press": -1, "type": "FIXATION", "trial_type": "single-stim", "trial_index": 144, "time_elapsed": 804332, "internal_node_id": "0.0-99.0-0.0"}}, {"uniqueid": "MTK0706:3A7Y0R2P2PVJF0S9YIYHNEMCA1AXJ5", "current_trial": 145, "dateTime": 1512627337303, "trialdata": {"rt": -1000, "stimulus": "/static/audio/wordpool/BOX.wav", "key_press": -1, "type": "PRES_AUD", "word": "box", "wordID": 158, "conditions": [24, 800, "a", 12000], "trial": 4, "serialpos": 0, "trial_type": "single-audio", "trial_index": 145, "time_elapsed": 806029, "internal_node_id": "0.0-100.0"}}, {"uniqueid": "MTK0706:3A7Y0R2P2PVJF0S9YIYHNEMCA1AXJ5", "current_trial": 146, "dateTime": 1512627339276, "trialdata": {"rt": -1000, "stimulus": "/static/audio/wordpool/MATTRESS.wav", "key_press": -1, "type": "PRES_AUD", "word": "mattress", "wordID": 878, "conditions": [24, 800, "a", 12000], "trial": 4, "serialpos": 1, "trial_type": "single-audio", "trial_index": 146, "time_elapsed": 808002, "internal_node_id": "0.0-101.0"}}, {"uniqueid": "MTK0706:3A7Y0R2P2PVJF0S9YIYHNEMCA1AXJ5", "current_trial": 147, "dateTime": 1512627340950, "trialdata": {"rt": -1000, "stimulus": "/static/audio/wordpool/BLENDER.wav", "key_press": -1, "type": "PRES_AUD", "word": "blender", "wordID": 135, "conditions": [24, 800, "a", 12000], "trial": 4, "serialpos": 2, "trial_type": "single-audio", "trial_index": 147, "time_elapsed": 809676, "internal_node_id": "0.0-102.0"}}, {"uniqueid": "MTK0706:3A7Y0R2P2PVJF0S9YIYHNEMCA1AXJ5", "current_trial": 148, "dateTime": 1512627342892, "trialdata": {"rt": -1000, "stimulus": "/static/audio/wordpool/SKILLET.wav", "key_press": -1, "type": "PRES_AUD", "word": "skillet", "wordID": 1316, "conditions": [24, 800, "a", 12000], "trial": 4, "serialpos": 3, "trial_type": "single-audio", "trial_index": 148, "time_elapsed": 811618, "internal_node_id": "0.0-103.0"}}, {"uniqueid": "MTK0706:3A7Y0R2P2PVJF0S9YIYHNEMCA1AXJ5", "current_trial": 149, "dateTime": 1512627344732, "trialdata": {"rt": -1000, "stimulus": "/static/audio/wordpool/QUARTER.wav", "key_press": -1, "type": "PRES_AUD", "word": "quarter", "wordID": 1147, "conditions": [24, 800, "a", 12000], "trial": 4, "serialpos": 4, "trial_type": "single-audio", "trial_index": 149, "time_elapsed": 813458, "internal_node_id": "0.0-104.0"}}, {"uniqueid": "MTK0706:3A7Y0R2P2PVJF0S9YIYHNEMCA1AXJ5", "current_trial": 150, "dateTime": 1512627346383, "trialdata": {"rt": -1000, "stimulus": "/static/audio/wordpool/BANJO.wav", "key_press": -1, "type": "PRES_AUD", "word": "banjo", "wordID": 81, "conditions": [24, 800, "a", 12000], "trial": 4, "serialpos": 5, "trial_type": "single-audio", "trial_index": 150, "time_elapsed": 815109, "internal_node_id": "0.0-105.0"}}, {"uniqueid": "MTK0706:3A7Y0R2P2PVJF0S9YIYHNEMCA1AXJ5", "current_trial": 151, "dateTime": 1512627348232, "trialdata": {"rt": -1000, "stimulus": "/static/audio/wordpool/SWITCH.wav", "key_press": -1, "type": "PRES_AUD", "word": "switch", "wordID": 1421, "conditions": [24, 800, "a", 12000], "trial": 4, "serialpos": 6, "trial_type": "single-audio", "trial_index": 151, "time_elapsed": 816958, "internal_node_id": "0.0-106.0"}}, {"uniqueid": "MTK0706:3A7Y0R2P2PVJF0S9YIYHNEMCA1AXJ5", "current_trial": 152, "dateTime": 1512627349917, "trialdata": {"rt": -1000, "stimulus": "/static/audio/wordpool/PROTON.wav", "key_press": -1, "type": "PRES_AUD", "word": "proton", "wordID": 1131, "conditions": [24, 800, "a", 12000], "trial": 4, "serialpos": 7, "trial_type": "single-audio", "trial_index": 152, "time_elapsed": 818643, "internal_node_id": "0.0-107.0"}}, {"uniqueid": "MTK0706:3A7Y0R2P2PVJF0S9YIYHNEMCA1AXJ5", "current_trial": 153, "dateTime": 1512627351757, "trialdata": {"rt": -1000, "stimulus": "/static/audio/wordpool/RIFLE.wav", "key_press": -1, "type": "PRES_AUD", "word": "rifle", "wordID": 1191, "conditions": [24, 800, "a", 12000], "trial": 4, "serialpos": 8, "trial_type": "single-audio", "trial_index": 153, "time_elapsed": 820483, "internal_node_id": "0.0-108.0"}}, {"uniqueid": "MTK0706:3A7Y0R2P2PVJF0S9YIYHNEMCA1AXJ5", "current_trial": 154, "dateTime": 1512627353415, "trialdata": {"rt": -1000, "stimulus": "/static/audio/wordpool/CRIB.wav", "key_press": -1, "type": "PRES_AUD", "word": "crib", "wordID": 406, "conditions": [24, 800, "a", 12000], "trial": 4, "serialpos": 9, "trial_type": "single-audio", "trial_index": 154, "time_elapsed": 822141, "internal_node_id": "0.0-109.0"}}, {"uniqueid": "MTK0706:3A7Y0R2P2PVJF0S9YIYHNEMCA1AXJ5", "current_trial": 155, "dateTime": 1512627355281, "trialdata": {"rt": -1000, "stimulus": "/static/audio/wordpool/MUFFIN.wav", "key_press": -1, "type": "PRES_AUD", "word": "muffin", "wordID": 928, "conditions": [24, 800, "a", 12000], "trial": 4, "serialpos": 10, "trial_type": "single-audio", "trial_index": 155, "time_elapsed": 824007, "internal_node_id": "0.0-110.0"}}, {"uniqueid": "MTK0706:3A7Y0R2P2PVJF0S9YIYHNEMCA1AXJ5", "current_trial": 156, "dateTime": 1512627357000, "trialdata": {"rt": -1000, "stimulus": "/static/audio/wordpool/MISTER.wav", "key_press": -1, "type": "PRES_AUD", "word": "mister", "wordID": 900, "conditions": [24, 800, "a", 12000], "trial": 4, "serialpos": 11, "trial_type": "single-audio", "trial_index": 156, "time_elapsed": 825726, "internal_node_id": "0.0-111.0"}}, {"uniqueid": "MTK0706:3A7Y0R2P2PVJF0S9YIYHNEMCA1AXJ5", "current_trial": 157, "dateTime": 1512627358982, "trialdata": {"rt": -1000, "stimulus": "/static/audio/wordpool/PIANO.wav", "key_press": -1, "type": "PRES_AUD", "word": "piano", "wordID": 1056, "conditions": [24, 800, "a", 12000], "trial": 4, "serialpos": 12, "trial_type": "single-audio", "trial_index": 157, "time_elapsed": 827708, "internal_node_id": "0.0-112.0"}}, {"uniqueid": "MTK0706:3A7Y0R2P2PVJF0S9YIYHNEMCA1AXJ5", "current_trial": 158, "dateTime": 1512627360729, "trialdata": {"rt": -1000, "stimulus": "/static/audio/wordpool/WASP.wav", "key_press": -1, "type": "PRES_AUD", "word": "wasp", "wordID": 1592, "conditions": [24, 800, "a", 12000], "trial": 4, "serialpos": 13, "trial_type": "single-audio", "trial_index": 158, "time_elapsed": 829455, "internal_node_id": "0.0-113.0"}}, {"uniqueid": "MTK0706:3A7Y0R2P2PVJF0S9YIYHNEMCA1AXJ5", "current_trial": 159, "dateTime": 1512627362534, "trialdata": {"rt": -1000, "stimulus": "/static/audio/wordpool/DONKEY.wav", "key_press": -1, "type": "PRES_AUD", "word": "donkey", "wordID": 483, "conditions": [24, 800, "a", 12000], "trial": 4, "serialpos": 14, "trial_type": "single-audio", "trial_index": 159, "time_elapsed": 831260, "internal_node_id": "0.0-114.0"}}, {"uniqueid": "MTK0706:3A7Y0R2P2PVJF0S9YIYHNEMCA1AXJ5", "current_trial": 160, "dateTime": 1512627364496, "trialdata": {"rt": -1000, "stimulus": "/static/audio/wordpool/ACTRESS.wav", "key_press": -1, "type": "PRES_AUD", "word": "actress", "wordID": 5, "conditions": [24, 800, "a", 12000], "trial": 4, "serialpos": 15, "trial_type": "single-audio", "trial_index": 160, "time_elapsed": 833222, "internal_node_id": "0.0-115.0"}}, {"uniqueid": "MTK0706:3A7Y0R2P2PVJF0S9YIYHNEMCA1AXJ5", "current_trial": 161, "dateTime": 1512627366373, "trialdata": {"rt": -1000, "stimulus": "/static/audio/wordpool/ACTOR.wav", "key_press": -1, "type": "PRES_AUD", "word": "actor", "wordID": 4, "conditions": [24, 800, "a", 12000], "trial": 4, "serialpos": 16, "trial_type": "single-audio", "trial_index": 161, "time_elapsed": 835099, "internal_node_id": "0.0-116.0"}}, {"uniqueid": "MTK0706:3A7Y0R2P2PVJF0S9YIYHNEMCA1AXJ5", "current_trial": 162, "dateTime": 1512627367980, "trialdata": {"rt": -1000, "stimulus": "/static/audio/wordpool/THREAD.wav", "key_press": -1, "type": "PRES_AUD", "word": "thread", "wordID": 1459, "conditions": [24, 800, "a", 12000], "trial": 4, "serialpos": 17, "trial_type": "single-audio", "trial_index": 162, "time_elapsed": 836706, "internal_node_id": "0.0-117.0"}}, {"uniqueid": "MTK0706:3A7Y0R2P2PVJF0S9YIYHNEMCA1AXJ5", "current_trial": 163, "dateTime": 1512627369793, "trialdata": {"rt": -1000, "stimulus": "/static/audio/wordpool/LEOPARD.wav", "key_press": -1, "type": "PRES_AUD", "word": "leopard", "wordID": 811, "conditions": [24, 800, "a", 12000], "trial": 4, "serialpos": 18, "trial_type": "single-audio", "trial_index": 163, "time_elapsed": 838519, "internal_node_id": "0.0-118.0"}}, {"uniqueid": "MTK0706:3A7Y0R2P2PVJF0S9YIYHNEMCA1AXJ5", "current_trial": 164, "dateTime": 1512627371697, "trialdata": {"rt": -1000, "stimulus": "/static/audio/wordpool/PASTA.wav", "key_press": -1, "type": "PRES_AUD", "word": "pasta", "wordID": 1020, "conditions": [24, 800, "a", 12000], "trial": 4, "serialpos": 19, "trial_type": "single-audio", "trial_index": 164, "time_elapsed": 840423, "internal_node_id": "0.0-119.0"}}, {"uniqueid": "MTK0706:3A7Y0R2P2PVJF0S9YIYHNEMCA1AXJ5", "current_trial": 165, "dateTime": 1512627373324, "trialdata": {"rt": -1000, "stimulus": "/static/audio/wordpool/MAPLE.wav", "key_press": -1, "type": "PRES_AUD", "word": "maple", "wordID": 865, "conditions": [24, 800, "a", 12000], "trial": 4, "serialpos": 20, "trial_type": "single-audio", "trial_index": 165, "time_elapsed": 842050, "internal_node_id": "0.0-120.0"}}, {"uniqueid": "MTK0706:3A7Y0R2P2PVJF0S9YIYHNEMCA1AXJ5", "current_trial": 166, "dateTime": 1512627375026, "trialdata": {"rt": -1000, "stimulus": "/static/audio/wordpool/TROMBONE.wav", "key_press": -1, "type": "PRES_AUD", "word": "trombone", "wordID": 1507, "conditions": [24, 800, "a", 12000], "trial": 4, "serialpos": 21, "trial_type": "single-audio", "trial_index": 166, "time_elapsed": 843752, "internal_node_id": "0.0-121.0"}}, {"uniqueid": "MTK0706:3A7Y0R2P2PVJF0S9YIYHNEMCA1AXJ5", "current_trial": 167, "dateTime": 1512627376931, "trialdata": {"rt": -1000, "stimulus": "/static/audio/wordpool/MATCH.wav", "key_press": -1, "type": "PRES_AUD", "word": "match", "wordID": 877, "conditions": [24, 800, "a", 12000], "trial": 4, "serialpos": 22, "trial_type": "single-audio", "trial_index": 167, "time_elapsed": 845657, "internal_node_id": "0.0-122.0"}}, {"uniqueid": "MTK0706:3A7Y0R2P2PVJF0S9YIYHNEMCA1AXJ5", "current_trial": 168, "dateTime": 1512627378770, "trialdata": {"rt": -1000, "stimulus": "/static/audio/wordpool/LIZARD.wav", "key_press": -1, "type": "PRES_AUD", "word": "lizard", "wordID": 833, "conditions": [24, 800, "a", 12000], "trial": 4, "serialpos": 23, "trial_type": "single-audio", "trial_index": 168, "time_elapsed": 847496, "internal_node_id": "0.0-123.0"}}, {"uniqueid": "MTK0706:3A7Y0R2P2PVJF0S9YIYHNEMCA1AXJ5", "current_trial": 169, "dateTime": 1512627380015, "trialdata": {"rt": -1, "stimulus": "", "key_press": -1, "type": "PRE_RECALL_DELAY", "trial_type": "single-stim", "trial_index": 169, "time_elapsed": 848741, "internal_node_id": "0.0-124.0-0.0"}}, {"uniqueid": "MTK0706:3A7Y0R2P2PVJF0S9YIYHNEMCA1AXJ5", "current_trial": 170, "dateTime": 1512627380516, "trialdata": {"rt": -1000, "stimulus": "/static/audio/400Hz.wav", "key_press": -1, "type": "PRE_RECALL_ALERT", "trial_type": "single-audio", "trial_index": 170, "time_elapsed": 849242, "internal_node_id": "0.0-125.0"}}, {"uniqueid": "MTK0706:3A7Y0R2P2PVJF0S9YIYHNEMCA1AXJ5", "current_trial": 171, "dateTime": 1512627440519, "trialdata": {"rt": [2056, 3824, 9312, 13984, 26536, 28232, 33920], "recwords": ["match", "lizard", "trombone", "apple", "blender", "skillet", "proton"], "type": "FREE_RECALL", "conditions": [24, 800, "a", 12000], "trial": 4, "trial_type": "free-recall", "trial_index": 171, "time_elapsed": 909243, "internal_node_id": "0.0-126.0-0.0"}}, {"uniqueid": "MTK0706:3A7Y0R2P2PVJF0S9YIYHNEMCA1AXJ5", "current_trial": 172, "dateTime": 1512627445438, "trialdata": {"rt": 2918, "key_press": 32, "type": "INSTRUCTIONS", "trial_type": "text", "trial_index": 172, "time_elapsed": 914164, "internal_node_id": "0.0-127.0"}}, {"uniqueid": "MTK0706:3A7Y0R2P2PVJF0S9YIYHNEMCA1AXJ5", "current_trial": 173, "dateTime": 1512627471439, "trialdata": {"rt": [1926, 4566, 6373, 8662, 11126, 13662, 15942, 18678, 20702, 23390], "responses": ["17", "15", "15", "9", "18", "14", "16", "13", "11", "14"], "num1": [1, 8, 7, 3, 8, 7, 8, 3, 1, 3, 1], "num2": [8, 1, 7, 5, 2, 3, 4, 4, 6, 6, 6], "num3": [8, 6, 1, 1, 8, 4, 4, 6, 4, 5, 9], "type": "DISTRACTOR", "conditions": [12, 800, "v", 24000], "trial": 5, "trial_type": "math-distractor", "trial_index": 173, "time_elapsed": 940165, "internal_node_id": "0.0-128.0"}}, {"uniqueid": "MTK0706:3A7Y0R2P2PVJF0S9YIYHNEMCA1AXJ5", "current_trial": 174, "dateTime": 1512627474440, "trialdata": {"rt": -1, "stimulus": "<p id=\"stim\">10</p>", "key_press": -1, "trial_type": "single-stim", "trial_index": 174, "time_elapsed": 943166, "internal_node_id": "0.0-129.0-0.0"}}, {"uniqueid": "MTK0706:3A7Y0R2P2PVJF0S9YIYHNEMCA1AXJ5", "current_trial": 175, "dateTime": 1512627475440, "trialdata": {"rt": -1, "stimulus": "<p id=\"stim\">9</p>", "key_press": -1, "trial_type": "single-stim", "trial_index": 175, "time_elapsed": 944166, "internal_node_id": "0.0-129.0-1.0"}}, {"uniqueid": "MTK0706:3A7Y0R2P2PVJF0S9YIYHNEMCA1AXJ5", "current_trial": 176, "dateTime": 1512627476441, "trialdata": {"rt": -1, "stimulus": "<p id=\"stim\">8</p>", "key_press": -1, "trial_type": "single-stim", "trial_index": 176, "time_elapsed": 945167, "internal_node_id": "0.0-129.0-2.0"}}, {"uniqueid": "MTK0706:3A7Y0R2P2PVJF0S9YIYHNEMCA1AXJ5", "current_trial": 177, "dateTime": 1512627477441, "trialdata": {"rt": -1, "stimulus": "<p id=\"stim\">7</p>", "key_press": -1, "trial_type": "single-stim", "trial_index": 177, "time_elapsed": 946167, "internal_node_id": "0.0-129.0-3.0"}}, {"uniqueid": "MTK0706:3A7Y0R2P2PVJF0S9YIYHNEMCA1AXJ5", "current_trial": 178, "dateTime": 1512627478441, "trialdata": {"rt": -1, "stimulus": "<p id=\"stim\">6</p>", "key_press": -1, "trial_type": "single-stim", "trial_index": 178, "time_elapsed": 947167, "internal_node_id": "0.0-129.0-4.0"}}, {"uniqueid": "MTK0706:3A7Y0R2P2PVJF0S9YIYHNEMCA1AXJ5", "current_trial": 179, "dateTime": 1512627479441, "trialdata": {"rt": -1, "stimulus": "<p id=\"stim\">5</p>", "key_press": -1, "trial_type": "single-stim", "trial_index": 179, "time_elapsed": 948167, "internal_node_id": "0.0-129.0-5.0"}}, {"uniqueid": "MTK0706:3A7Y0R2P2PVJF0S9YIYHNEMCA1AXJ5", "current_trial": 180, "dateTime": 1512627480441, "trialdata": {"rt": -1, "stimulus": "<p id=\"stim\">4</p>", "key_press": -1, "trial_type": "single-stim", "trial_index": 180, "time_elapsed": 949167, "internal_node_id": "0.0-129.0-6.0"}}, {"uniqueid": "MTK0706:3A7Y0R2P2PVJF0S9YIYHNEMCA1AXJ5", "current_trial": 181, "dateTime": 1512627481441, "trialdata": {"rt": -1, "stimulus": "<p id=\"stim\">3</p>", "key_press": -1, "trial_type": "single-stim", "trial_index": 181, "time_elapsed": 950167, "internal_node_id": "0.0-129.0-7.0"}}, {"uniqueid": "MTK0706:3A7Y0R2P2PVJF0S9YIYHNEMCA1AXJ5", "current_trial": 182, "dateTime": 1512627482441, "trialdata": {"rt": -1, "stimulus": "<p id=\"stim\">2</p>", "key_press": -1, "trial_type": "single-stim", "trial_index": 182, "time_elapsed": 951167, "internal_node_id": "0.0-129.0-8.0"}}, {"uniqueid": "MTK0706:3A7Y0R2P2PVJF0S9YIYHNEMCA1AXJ5", "current_trial": 183, "dateTime": 1512627483441, "trialdata": {"rt": -1, "stimulus": "<p id=\"stim\">1</p>", "key_press": -1, "trial_type": "single-stim", "trial_index": 183, "time_elapsed": 952167, "internal_node_id": "0.0-129.0-9.0"}}, {"uniqueid": "MTK0706:3A7Y0R2P2PVJF0S9YIYHNEMCA1AXJ5", "current_trial": 184, "dateTime": 1512627484941, "trialdata": {"rt": -1, "stimulus": "<p id=\"stim\">+</p>", "key_press": -1, "type": "FIXATION", "trial_type": "single-stim", "trial_index": 184, "time_elapsed": 953667, "internal_node_id": "0.0-130.0-0.0"}}, {"uniqueid": "MTK0706:3A7Y0R2P2PVJF0S9YIYHNEMCA1AXJ5", "current_trial": 185, "dateTime": 1512627485741, "trialdata": {"rt": -1, "stimulus": "<p id=\"stim\">BATHTUB</p>", "key_press": -1, "type": "PRES_VIS", "word": "bathtub", "wordID": 99, "conditions": [12, 800, "v", 24000], "trial": 5, "serialpos": 0, "trial_type": "single-stim", "trial_index": 185, "time_elapsed": 954467, "internal_node_id": "0.0-131.0"}}, {"uniqueid": "MTK0706:3A7Y0R2P2PVJF0S9YIYHNEMCA1AXJ5", "current_trial": 186, "dateTime": 1512627487384, "trialdata": {"rt": -1, "stimulus": "<p id=\"stim\">TILE</p>", "key_press": -1, "type": "PRES_VIS", "word": "tile", "wordID": 1467, "conditions": [12, 800, "v", 24000], "trial": 5, "serialpos": 1, "trial_type": "single-stim", "trial_index": 186, "time_elapsed": 956110, "internal_node_id": "0.0-132.0"}}, {"uniqueid": "MTK0706:3A7Y0R2P2PVJF0S9YIYHNEMCA1AXJ5", "current_trial": 187, "dateTime": 1512627489104, "trialdata": {"rt": -1, "stimulus": "<p id=\"stim\">PACKAGE</p>", "key_press": -1, "type": "PRES_VIS", "word": "package", "wordID": 996, "conditions": [12, 800, "v", 24000], "trial": 5, "serialpos": 2, "trial_type": "single-stim", "trial_index": 187, "time_elapsed": 957830, "internal_node_id": "0.0-133.0"}}, {"uniqueid": "MTK0706:3A7Y0R2P2PVJF0S9YIYHNEMCA1AXJ5", "current_trial": 188, "dateTime": 1512627490896, "trialdata": {"rt": -1, "stimulus": "<p id=\"stim\">BOUQUET</p>", "key_press": -1, "type": "PRES_VIS", "word": "bouquet", "wordID": 156, "conditions": [12, 800, "v", 24000], "trial": 5, "serialpos": 3, "trial_type": "single-stim", "trial_index": 188, "time_elapsed": 959622, "internal_node_id": "0.0-134.0"}}, {"uniqueid": "MTK0706:3A7Y0R2P2PVJF0S9YIYHNEMCA1AXJ5", "current_trial": 189, "dateTime": 1512627492520, "trialdata": {"rt": -1, "stimulus": "<p id=\"stim\">CITRUS</p>", "key_press": -1, "type": "PRES_VIS", "word": "citrus", "wordID": 312, "conditions": [12, 800, "v", 24000], "trial": 5, "serialpos": 4, "trial_type": "single-stim", "trial_index": 189, "time_elapsed": 961246, "internal_node_id": "0.0-135.0"}}, {"uniqueid": "MTK0706:3A7Y0R2P2PVJF0S9YIYHNEMCA1AXJ5", "current_trial": 190, "dateTime": 1512627494464, "trialdata": {"rt": -1, "stimulus": "<p id=\"stim\">PEACH</p>", "key_press": -1, "type": "PRES_VIS", "word": "peach", "wordID": 1030, "conditions": [12, 800, "v", 24000], "trial": 5, "serialpos": 5, "trial_type": "single-stim", "trial_index": 190, "time_elapsed": 963190, "internal_node_id": "0.0-136.0"}}, {"uniqueid": "MTK0706:3A7Y0R2P2PVJF0S9YIYHNEMCA1AXJ5", "current_trial": 191, "dateTime": 1512627496298, "trialdata": {"rt": -1, "stimulus": "<p id=\"stim\">MARROW</p>", "key_press": -1, "type": "PRES_VIS", "word": "marrow", "wordID": 871, "conditions": [12, 800, "v", 24000], "trial": 5, "serialpos": 6, "trial_type": "single-stim", "trial_index": 191, "time_elapsed": 965024, "internal_node_id": "0.0-137.0"}}, {"uniqueid": "MTK0706:3A7Y0R2P2PVJF0S9YIYHNEMCA1AXJ5", "current_trial": 192, "dateTime": 1512627498173, "trialdata": {"rt": -1, "stimulus": "<p id=\"stim\">DOUGHNUT</p>", "key_press": -1, "type": "PRES_VIS", "word": "doughnut", "wordID": 489, "conditions": [12, 800, "v", 24000], "trial": 5, "serialpos": 7, "trial_type": "single-stim", "trial_index": 192, "time_elapsed": 966899, "internal_node_id": "0.0-138.0"}}, {"uniqueid": "MTK0706:3A7Y0R2P2PVJF0S9YIYHNEMCA1AXJ5", "current_trial": 193, "dateTime": 1512627500080, "trialdata": {"rt": -1, "stimulus": "<p id=\"stim\">COUNTY</p>", "key_press": -1, "type": "PRES_VIS", "word": "county", "wordID": 388, "conditions": [12, 800, "v", 24000], "trial": 5, "serialpos": 8, "trial_type": "single-stim", "trial_index": 193, "time_elapsed": 968806, "internal_node_id": "0.0-139.0"}}, {"uniqueid": "MTK0706:3A7Y0R2P2PVJF0S9YIYHNEMCA1AXJ5", "current_trial": 194, "dateTime": 1512627502072, "trialdata": {"rt": -1, "stimulus": "<p id=\"stim\">TRENCH</p>", "key_press": -1, "type": "PRES_VIS", "word": "trench", "wordID": 1502, "conditions": [12, 800, "v", 24000], "trial": 5, "serialpos": 9, "trial_type": "single-stim", "trial_index": 194, "time_elapsed": 970798, "internal_node_id": "0.0-140.0"}}, {"uniqueid": "MTK0706:3A7Y0R2P2PVJF0S9YIYHNEMCA1AXJ5", "current_trial": 195, "dateTime": 1512627503931, "trialdata": {"rt": -1, "stimulus": "<p id=\"stim\">CAPTIVE</p>", "key_press": -1, "type": "PRES_VIS", "word": "captive", "wordID": 239, "conditions": [12, 800, "v", 24000], "trial": 5, "serialpos": 10, "trial_type": "single-stim", "trial_index": 195, "time_elapsed": 972657, "internal_node_id": "0.0-141.0"}}, {"uniqueid": "MTK0706:3A7Y0R2P2PVJF0S9YIYHNEMCA1AXJ5", "current_trial": 196, "dateTime": 1512627505633, "trialdata": {"rt": -1, "stimulus": "<p id=\"stim\">KIDNEY</p>", "key_press": -1, "type": "PRES_VIS", "word": "kidney", "wordID": 775, "conditions": [12, 800, "v", 24000], "trial": 5, "serialpos": 11, "trial_type": "single-stim", "trial_index": 196, "time_elapsed": 974359, "internal_node_id": "0.0-142.0"}}, {"uniqueid": "MTK0706:3A7Y0R2P2PVJF0S9YIYHNEMCA1AXJ5", "current_trial": 197, "dateTime": 1512627507989, "trialdata": {"rt": -1, "stimulus": "", "key_press": -1, "type": "PRE_RECALL_DELAY", "trial_type": "single-stim", "trial_index": 197, "time_elapsed": 976715, "internal_node_id": "0.0-143.0-0.0"}}, {"uniqueid": "MTK0706:3A7Y0R2P2PVJF0S9YIYHNEMCA1AXJ5", "current_trial": 198, "dateTime": 1512627508489, "trialdata": {"rt": -1000, "stimulus": "/static/audio/400Hz.wav", "key_press": -1, "type": "PRE_RECALL_ALERT", "trial_type": "single-audio", "trial_index": 198, "time_elapsed": 977215, "internal_node_id": "0.0-144.0"}}, {"uniqueid": "MTK0706:3A7Y0R2P2PVJF0S9YIYHNEMCA1AXJ5", "current_trial": 199, "dateTime": 1512627568493, "trialdata": {"rt": [2588, 5828, 7796, 16868, 18564, 42155], "recwords": ["captive", "kidney", "trench", "bathroom", "tile", "bouqet"], "type": "FREE_RECALL", "conditions": [12, 800, "v", 24000], "trial": 5, "trial_type": "free-recall", "trial_index": 199, "time_elapsed": 1037216, "internal_node_id": "0.0-145.0-0.0"}}, {"uniqueid": "MTK0706:3A7Y0R2P2PVJF0S9YIYHNEMCA1AXJ5", "current_trial": 200, "dateTime": 1512627572734, "trialdata": {"rt": 2241, "key_press": 32, "type": "INSTRUCTIONS", "trial_type": "text", "trial_index": 200, "time_elapsed": 1041460, "internal_node_id": "0.0-146.0"}}, {"uniqueid": "MTK0706:3A7Y0R2P2PVJF0S9YIYHNEMCA1AXJ5", "current_trial": 201, "dateTime": 1512627598735, "trialdata": {"rt": [2295, 3983, 5799, 7815, 10335, 12222, 15110, 17383, 19367, 21223, 23799], "responses": ["10", "11", "16", "17", "15", "19", "13", "17", "11", "13", "13"], "num1": [3, 4, 6, 7, 9, 5, 6, 3, 6, 7, 2, 3], "num2": [5, 6, 8, 6, 4, 7, 3, 8, 4, 3, 2, 1], "num3": [2, 1, 2, 4, 2, 7, 4, 6, 1, 3, 9, 4], "type": "DISTRACTOR", "conditions": [12, 800, "a", 24000], "trial": 6, "trial_type": "math-distractor", "trial_index": 201, "time_elapsed": 1067461, "internal_node_id": "0.0-147.0"}}, {"uniqueid": "MTK0706:3A7Y0R2P2PVJF0S9YIYHNEMCA1AXJ5", "current_trial": 202, "dateTime": 1512627601735, "trialdata": {"rt": -1, "stimulus": "<p id=\"stim\">10</p>", "key_press": -1, "trial_type": "single-stim", "trial_index": 202, "time_elapsed": 1070461, "internal_node_id": "0.0-148.0-0.0"}}, {"uniqueid": "MTK0706:3A7Y0R2P2PVJF0S9YIYHNEMCA1AXJ5", "current_trial": 203, "dateTime": 1512627602735, "trialdata": {"rt": -1, "stimulus": "<p id=\"stim\">9</p>", "key_press": -1, "trial_type": "single-stim", "trial_index": 203, "time_elapsed": 1071461, "internal_node_id": "0.0-148.0-1.0"}}, {"uniqueid": "MTK0706:3A7Y0R2P2PVJF0S9YIYHNEMCA1AXJ5", "current_trial": 204, "dateTime": 1512627603735, "trialdata": {"rt": -1, "stimulus": "<p id=\"stim\">8</p>", "key_press": -1, "trial_type": "single-stim", "trial_index": 204, "time_elapsed": 1072461, "internal_node_id": "0.0-148.0-2.0"}}, {"uniqueid": "MTK0706:3A7Y0R2P2PVJF0S9YIYHNEMCA1AXJ5", "current_trial": 205, "dateTime": 1512627604735, "trialdata": {"rt": -1, "stimulus": "<p id=\"stim\">7</p>", "key_press": -1, "trial_type": "single-stim", "trial_index": 205, "time_elapsed": 1073461, "internal_node_id": "0.0-148.0-3.0"}}, {"uniqueid": "MTK0706:3A7Y0R2P2PVJF0S9YIYHNEMCA1AXJ5", "current_trial": 206, "dateTime": 1512627605735, "trialdata": {"rt": -1, "stimulus": "<p id=\"stim\">6</p>", "key_press": -1, "trial_type": "single-stim", "trial_index": 206, "time_elapsed": 1074461, "internal_node_id": "0.0-148.0-4.0"}}, {"uniqueid": "MTK0706:3A7Y0R2P2PVJF0S9YIYHNEMCA1AXJ5", "current_trial": 207, "dateTime": 1512627606735, "trialdata": {"rt": -1, "stimulus": "<p id=\"stim\">5</p>", "key_press": -1, "trial_type": "single-stim", "trial_index": 207, "time_elapsed": 1075461, "internal_node_id": "0.0-148.0-5.0"}}, {"uniqueid": "MTK0706:3A7Y0R2P2PVJF0S9YIYHNEMCA1AXJ5", "current_trial": 208, "dateTime": 1512627607735, "trialdata": {"rt": -1, "stimulus": "<p id=\"stim\">4</p>", "key_press": -1, "trial_type": "single-stim", "trial_index": 208, "time_elapsed": 1076461, "internal_node_id": "0.0-148.0-6.0"}}, {"uniqueid": "MTK0706:3A7Y0R2P2PVJF0S9YIYHNEMCA1AXJ5", "current_trial": 209, "dateTime": 1512627608736, "trialdata": {"rt": -1, "stimulus": "<p id=\"stim\">3</p>", "key_press": -1, "trial_type": "single-stim", "trial_index": 209, "time_elapsed": 1077462, "internal_node_id": "0.0-148.0-7.0"}}, {"uniqueid": "MTK0706:3A7Y0R2P2PVJF0S9YIYHNEMCA1AXJ5", "current_trial": 210, "dateTime": 1512627609736, "trialdata": {"rt": -1, "stimulus": "<p id=\"stim\">2</p>", "key_press": -1, "trial_type": "single-stim", "trial_index": 210, "time_elapsed": 1078462, "internal_node_id": "0.0-148.0-8.0"}}, {"uniqueid": "MTK0706:3A7Y0R2P2PVJF0S9YIYHNEMCA1AXJ5", "current_trial": 211, "dateTime": 1512627610736, "trialdata": {"rt": -1, "stimulus": "<p id=\"stim\">1</p>", "key_press": -1, "trial_type": "single-stim", "trial_index": 211, "time_elapsed": 1079462, "internal_node_id": "0.0-148.0-9.0"}}, {"uniqueid": "MTK0706:3A7Y0R2P2PVJF0S9YIYHNEMCA1AXJ5", "current_trial": 212, "dateTime": 1512627612236, "trialdata": {"rt": -1, "stimulus": "<p id=\"stim\">+</p>", "key_press": -1, "type": "FIXATION", "trial_type": "single-stim", "trial_index": 212, "time_elapsed": 1080962, "internal_node_id": "0.0-149.0-0.0"}}, {"uniqueid": "MTK0706:3A7Y0R2P2PVJF0S9YIYHNEMCA1AXJ5", "current_trial": 213, "dateTime": 1512627613956, "trialdata": {"rt": -1000, "stimulus": "/static/audio/wordpool/FRECKLE.wav", "key_press": -1, "type": "PRES_AUD", "word": "freckle", "wordID": 601, "conditions": [12, 800, "a", 24000], "trial": 6, "serialpos": 0, "trial_type": "single-audio", "trial_index": 213, "time_elapsed": 1082682, "internal_node_id": "0.0-150.0"}}, {"uniqueid": "MTK0706:3A7Y0R2P2PVJF0S9YIYHNEMCA1AXJ5", "current_trial": 214, "dateTime": 1512627615869, "trialdata": {"rt": -1000, "stimulus": "/static/audio/wordpool/GUITAR.wav", "key_press": -1, "type": "PRES_AUD", "word": "guitar", "wordID": 669, "conditions": [12, 800, "a", 24000], "trial": 6, "serialpos": 1, "trial_type": "single-audio", "trial_index": 214, "time_elapsed": 1084594, "internal_node_id": "0.0-151.0"}}, {"uniqueid": "MTK0706:3A7Y0R2P2PVJF0S9YIYHNEMCA1AXJ5", "current_trial": 215, "dateTime": 1512627617628, "trialdata": {"rt": -1000, "stimulus": "/static/audio/wordpool/FEMALE.wav", "key_press": -1, "type": "PRES_AUD", "word": "female", "wordID": 558, "conditions": [12, 800, "a", 24000], "trial": 6, "serialpos": 2, "trial_type": "single-audio", "trial_index": 215, "time_elapsed": 1086354, "internal_node_id": "0.0-152.0"}}, {"uniqueid": "MTK0706:3A7Y0R2P2PVJF0S9YIYHNEMCA1AXJ5", "current_trial": 216, "dateTime": 1512627619621, "trialdata": {"rt": -1000, "stimulus": "/static/audio/wordpool/PERFUME.wav", "key_press": -1, "type": "PRES_AUD", "word": "perfume", "wordID": 1048, "conditions": [12, 800, "a", 24000], "trial": 6, "serialpos": 3, "trial_type": "single-audio", "trial_index": 216, "time_elapsed": 1088347, "internal_node_id": "0.0-153.0"}}, {"uniqueid": "MTK0706:3A7Y0R2P2PVJF0S9YIYHNEMCA1AXJ5", "current_trial": 217, "dateTime": 1512627621415, "trialdata": {"rt": -1000, "stimulus": "/static/audio/wordpool/TART.wav", "key_press": -1, "type": "PRES_AUD", "word": "tart", "wordID": 1435, "conditions": [12, 800, "a", 24000], "trial": 6, "serialpos": 4, "trial_type": "single-audio", "trial_index": 217, "time_elapsed": 1090141, "internal_node_id": "0.0-154.0"}}, {"uniqueid": "MTK0706:3A7Y0R2P2PVJF0S9YIYHNEMCA1AXJ5", "current_trial": 218, "dateTime": 1512627623264, "trialdata": {"rt": -1000, "stimulus": "/static/audio/wordpool/FRIEND.wav", "key_press": -1, "type": "PRES_AUD", "word": "friend", "wordID": 605, "conditions": [12, 800, "a", 24000], "trial": 6, "serialpos": 5, "trial_type": "single-audio", "trial_index": 218, "time_elapsed": 1091990, "internal_node_id": "0.0-155.0"}}, {"uniqueid": "MTK0706:3A7Y0R2P2PVJF0S9YIYHNEMCA1AXJ5", "current_trial": 219, "dateTime": 1512627624913, "trialdata": {"rt": -1000, "stimulus": "/static/audio/wordpool/CRAB.wav", "key_press": -1, "type": "PRES_AUD", "word": "crab", "wordID": 396, "conditions": [12, 800, "a", 24000], "trial": 6, "serialpos": 6, "trial_type": "single-audio", "trial_index": 219, "time_elapsed": 1093639, "internal_node_id": "0.0-156.0"}}, {"uniqueid": "MTK0706:3A7Y0R2P2PVJF0S9YIYHNEMCA1AXJ5", "current_trial": 220, "dateTime": 1512627626747, "trialdata": {"rt": -1000, "stimulus": "/static/audio/wordpool/CROWN.wav", "key_press": -1, "type": "PRES_AUD", "word": "crown", "wordID": 414, "conditions": [12, 800, "a", 24000], "trial": 6, "serialpos": 7, "trial_type": "single-audio", "trial_index": 220, "time_elapsed": 1095473, "internal_node_id": "0.0-157.0"}}, {"uniqueid": "MTK0706:3A7Y0R2P2PVJF0S9YIYHNEMCA1AXJ5", "current_trial": 221, "dateTime": 1512627628391, "trialdata": {"rt": -1000, "stimulus": "/static/audio/wordpool/PIMPLE.wav", "key_press": -1, "type": "PRES_AUD", "word": "pimple", "wordID": 1070, "conditions": [12, 800, "a", 24000], "trial": 6, "serialpos": 8, "trial_type": "single-audio", "trial_index": 221, "time_elapsed": 1097117, "internal_node_id": "0.0-158.0"}}, {"uniqueid": "MTK0706:3A7Y0R2P2PVJF0S9YIYHNEMCA1AXJ5", "current_trial": 222, "dateTime": 1512627630363, "trialdata": {"rt": -1000, "stimulus": "/static/audio/wordpool/BIKE.wav", "key_press": -1, "type": "PRES_AUD", "word": "bike", "wordID": 124, "conditions": [12, 800, "a", 24000], "trial": 6, "serialpos": 9, "trial_type": "single-audio", "trial_index": 222, "time_elapsed": 1099089, "internal_node_id": "0.0-159.0"}}, {"uniqueid": "MTK0706:3A7Y0R2P2PVJF0S9YIYHNEMCA1AXJ5", "current_trial": 223, "dateTime": 1512627632199, "trialdata": {"rt": -1000, "stimulus": "/static/audio/wordpool/WOMAN.wav", "key_press": -1, "type": "PRES_AUD", "word": "woman", "wordID": 1619, "conditions": [12, 800, "a", 24000], "trial": 6, "serialpos": 10, "trial_type": "single-audio", "trial_index": 223, "time_elapsed": 1100925, "internal_node_id": "0.0-160.0"}}, {"uniqueid": "MTK0706:3A7Y0R2P2PVJF0S9YIYHNEMCA1AXJ5", "current_trial": 224, "dateTime": 1512627634100, "trialdata": {"rt": -1000, "stimulus": "/static/audio/wordpool/VICTIM.wav", "key_press": -1, "type": "PRES_AUD", "word": "victim", "wordID": 1561, "conditions": [12, 800, "a", 24000], "trial": 6, "serialpos": 11, "trial_type": "single-audio", "trial_index": 224, "time_elapsed": 1102826, "internal_node_id": "0.0-161.0"}}, {"uniqueid": "MTK0706:3A7Y0R2P2PVJF0S9YIYHNEMCA1AXJ5", "current_trial": 225, "dateTime": 1512627635464, "trialdata": {"rt": -1, "stimulus": "", "key_press": -1, "type": "PRE_RECALL_DELAY", "trial_type": "single-stim", "trial_index": 225, "time_elapsed": 1104190, "internal_node_id": "0.0-162.0-0.0"}}, {"uniqueid": "MTK0706:3A7Y0R2P2PVJF0S9YIYHNEMCA1AXJ5", "current_trial": 226, "dateTime": 1512627635965, "trialdata": {"rt": -1000, "stimulus": "/static/audio/400Hz.wav", "key_press": -1, "type": "PRE_RECALL_ALERT", "trial_type": "single-audio", "trial_index": 226, "time_elapsed": 1104691, "internal_node_id": "0.0-163.0"}}, {"uniqueid": "MTK0706:3A7Y0R2P2PVJF0S9YIYHNEMCA1AXJ5", "current_trial": 227, "dateTime": 1512627695969, "trialdata": {"rt": [2311, 3815, 5623, 7279, 10951, 12415], "recwords": ["tart", "friend", "crab", "bike", "victim", "woman"], "type": "FREE_RECALL", "conditions": [12, 800, "a", 24000], "trial": 6, "trial_type": "free-recall", "trial_index": 227, "time_elapsed": 1164692, "internal_node_id": "0.0-164.0-0.0"}}, {"uniqueid": "MTK0706:3A7Y0R2P2PVJF0S9YIYHNEMCA1AXJ5", "current_trial": 228, "dateTime": 1512627722133, "trialdata": {"rt": 24163, "key_press": 32, "type": "INSTRUCTIONS", "trial_type": "text", "trial_index": 228, "time_elapsed": 1190859, "internal_node_id": "0.0-165.0"}}, {"uniqueid": "MTK0706:3A7Y0R2P2PVJF0S9YIYHNEMCA1AXJ5", "current_trial": 229, "dateTime": 1512627736134, "trialdata": {"rt": [1863, 4223, 9222], "responses": ["12", "14", "20"], "num1": [2, 8, 8, 8], "num2": [5, 2, 7, 7], "num3": [5, 4, 5, 7], "type": "DISTRACTOR", "conditions": [24, 1600, "a", 12000], "trial": 7, "trial_type": "math-distractor", "trial_index": 229, "time_elapsed": 1204860, "internal_node_id": "0.0-166.0"}}, {"uniqueid": "MTK0706:3A7Y0R2P2PVJF0S9YIYHNEMCA1AXJ5", "current_trial": 230, "dateTime": 1512627739134, "trialdata": {"rt": -1, "stimulus": "<p id=\"stim\">10</p>", "key_press": -1, "trial_type": "single-stim", "trial_index": 230, "time_elapsed": 1207860, "internal_node_id": "0.0-167.0-0.0"}}, {"uniqueid": "MTK0706:3A7Y0R2P2PVJF0S9YIYHNEMCA1AXJ5", "current_trial": 231, "dateTime": 1512627740134, "trialdata": {"rt": -1, "stimulus": "<p id=\"stim\">9</p>", "key_press": -1, "trial_type": "single-stim", "trial_index": 231, "time_elapsed": 1208860, "internal_node_id": "0.0-167.0-1.0"}}, {"uniqueid": "MTK0706:3A7Y0R2P2PVJF0S9YIYHNEMCA1AXJ5", "current_trial": 232, "dateTime": 1512627741135, "trialdata": {"rt": -1, "stimulus": "<p id=\"stim\">8</p>", "key_press": -1, "trial_type": "single-stim", "trial_index": 232, "time_elapsed": 1209861, "internal_node_id": "0.0-167.0-2.0"}}, {"uniqueid": "MTK0706:3A7Y0R2P2PVJF0S9YIYHNEMCA1AXJ5", "current_trial": 233, "dateTime": 1512627742136, "trialdata": {"rt": -1, "stimulus": "<p id=\"stim\">7</p>", "key_press": -1, "trial_type": "single-stim", "trial_index": 233, "time_elapsed": 1210862, "internal_node_id": "0.0-167.0-3.0"}}, {"uniqueid": "MTK0706:3A7Y0R2P2PVJF0S9YIYHNEMCA1AXJ5", "current_trial": 234, "dateTime": 1512627743136, "trialdata": {"rt": -1, "stimulus": "<p id=\"stim\">6</p>", "key_press": -1, "trial_type": "single-stim", "trial_index": 234, "time_elapsed": 1211862, "internal_node_id": "0.0-167.0-4.0"}}, {"uniqueid": "MTK0706:3A7Y0R2P2PVJF0S9YIYHNEMCA1AXJ5", "current_trial": 235, "dateTime": 1512627744136, "trialdata": {"rt": -1, "stimulus": "<p id=\"stim\">5</p>", "key_press": -1, "trial_type": "single-stim", "trial_index": 235, "time_elapsed": 1212862, "internal_node_id": "0.0-167.0-5.0"}}, {"uniqueid": "MTK0706:3A7Y0R2P2PVJF0S9YIYHNEMCA1AXJ5", "current_trial": 236, "dateTime": 1512627745136, "trialdata": {"rt": -1, "stimulus": "<p id=\"stim\">4</p>", "key_press": -1, "trial_type": "single-stim", "trial_index": 236, "time_elapsed": 1213862, "internal_node_id": "0.0-167.0-6.0"}}, {"uniqueid": "MTK0706:3A7Y0R2P2PVJF0S9YIYHNEMCA1AXJ5", "current_trial": 237, "dateTime": 1512627746136, "trialdata": {"rt": -1, "stimulus": "<p id=\"stim\">3</p>", "key_press": -1, "trial_type": "single-stim", "trial_index": 237, "time_elapsed": 1214862, "internal_node_id": "0.0-167.0-7.0"}}, {"uniqueid": "MTK0706:3A7Y0R2P2PVJF0S9YIYHNEMCA1AXJ5", "current_trial": 238, "dateTime": 1512627747136, "trialdata": {"rt": -1, "stimulus": "<p id=\"stim\">2</p>", "key_press": -1, "trial_type": "single-stim", "trial_index": 238, "time_elapsed": 1215862, "internal_node_id": "0.0-167.0-8.0"}}, {"uniqueid": "MTK0706:3A7Y0R2P2PVJF0S9YIYHNEMCA1AXJ5", "current_trial": 239, "dateTime": 1512627748136, "trialdata": {"rt": -1, "stimulus": "<p id=\"stim\">1</p>", "key_press": -1, "trial_type": "single-stim", "trial_index": 239, "time_elapsed": 1216862, "internal_node_id": "0.0-167.0-9.0"}}, {"uniqueid": "MTK0706:3A7Y0R2P2PVJF0S9YIYHNEMCA1AXJ5", "current_trial": 240, "dateTime": 1512627749636, "trialdata": {"rt": -1, "stimulus": "<p id=\"stim\">+</p>", "key_press": -1, "type": "FIXATION", "trial_type": "single-stim", "trial_index": 240, "time_elapsed": 1218362, "internal_node_id": "0.0-168.0-0.0"}}, {"uniqueid": "MTK0706:3A7Y0R2P2PVJF0S9YIYHNEMCA1AXJ5", "current_trial": 241, "dateTime": 1512627752291, "trialdata": {"rt": -1000, "stimulus": "/static/audio/wordpool/PASTRY.wav", "key_press": -1, "type": "PRES_AUD", "word": "pastry", "wordID": 1021, "conditions": [24, 1600, "a", 12000], "trial": 7, "serialpos": 0, "trial_type": "single-audio", "trial_index": 241, "time_elapsed": 1221017, "internal_node_id": "0.0-169.0"}}, {"uniqueid": "MTK0706:3A7Y0R2P2PVJF0S9YIYHNEMCA1AXJ5", "current_trial": 242, "dateTime": 1512627754776, "trialdata": {"rt": -1000, "stimulus": "/static/audio/wordpool/CUSTARD.wav", "key_press": -1, "type": "PRES_AUD", "word": "custard", "wordID": 428, "conditions": [24, 1600, "a", 12000], "trial": 7, "serialpos": 1, "trial_type": "single-audio", "trial_index": 242, "time_elapsed": 1223502, "internal_node_id": "0.0-170.0"}}, {"uniqueid": "MTK0706:3A7Y0R2P2PVJF0S9YIYHNEMCA1AXJ5", "current_trial": 243, "dateTime": 1512627757318, "trialdata": {"rt": -1000, "stimulus": "/static/audio/wordpool/COD.wav", "key_press": -1, "type": "PRES_AUD", "word": "cod", "wordID": 339, "conditions": [24, 1600, "a", 12000], "trial": 7, "serialpos": 2, "trial_type": "single-audio", "trial_index": 243, "time_elapsed": 1226044, "internal_node_id": "0.0-171.0"}}, {"uniqueid": "MTK0706:3A7Y0R2P2PVJF0S9YIYHNEMCA1AXJ5", "current_trial": 244, "dateTime": 1512627760003, "trialdata": {"rt": -1000, "stimulus": "/static/audio/wordpool/SURVEY.wav", "key_press": -1, "type": "PRES_AUD", "word": "survey", "wordID": 1413, "conditions": [24, 1600, "a", 12000], "trial": 7, "serialpos": 3, "trial_type": "single-audio", "trial_index": 244, "time_elapsed": 1228729, "internal_node_id": "0.0-172.0"}}, {"uniqueid": "MTK0706:3A7Y0R2P2PVJF0S9YIYHNEMCA1AXJ5", "current_trial": 245, "dateTime": 1512627762689, "trialdata": {"rt": -1000, "stimulus": "/static/audio/wordpool/STAR.wav", "key_press": -1, "type": "PRES_AUD", "word": "star", "wordID": 1372, "conditions": [24, 1600, "a", 12000], "trial": 7, "serialpos": 4, "trial_type": "single-audio", "trial_index": 245, "time_elapsed": 1231415, "internal_node_id": "0.0-173.0"}}, {"uniqueid": "MTK0706:3A7Y0R2P2PVJF0S9YIYHNEMCA1AXJ5", "current_trial": 246, "dateTime": 1512627765146, "trialdata": {"rt": -1000, "stimulus": "/static/audio/wordpool/PENGUIN.wav", "key_press": -1, "type": "PRES_AUD", "word": "penguin", "wordID": 1043, "conditions": [24, 1600, "a", 12000], "trial": 7, "serialpos": 5, "trial_type": "single-audio", "trial_index": 246, "time_elapsed": 1233872, "internal_node_id": "0.0-174.0"}}, {"uniqueid": "MTK0706:3A7Y0R2P2PVJF0S9YIYHNEMCA1AXJ5", "current_trial": 247, "dateTime": 1512627767815, "trialdata": {"rt": -1000, "stimulus": "/static/audio/wordpool/SIBLING.wav", "key_press": -1, "type": "PRES_AUD", "word": "sibling", "wordID": 1300, "conditions": [24, 1600, "a", 12000], "trial": 7, "serialpos": 6, "trial_type": "single-audio", "trial_index": 247, "time_elapsed": 1236541, "internal_node_id": "0.0-175.0"}}, {"uniqueid": "MTK0706:3A7Y0R2P2PVJF0S9YIYHNEMCA1AXJ5", "current_trial": 248, "dateTime": 1512627770389, "trialdata": {"rt": -1000, "stimulus": "/static/audio/wordpool/ELBOW.wav", "key_press": -1, "type": "PRES_AUD", "word": "elbow", "wordID": 519, "conditions": [24, 1600, "a", 12000], "trial": 7, "serialpos": 7, "trial_type": "single-audio", "trial_index": 248, "time_elapsed": 1239115, "internal_node_id": "0.0-176.0"}}, {"uniqueid": "MTK0706:3A7Y0R2P2PVJF0S9YIYHNEMCA1AXJ5", "current_trial": 249, "dateTime": 1512627773098, "trialdata": {"rt": -1000, "stimulus": "/static/audio/wordpool/SALMON.wav", "key_press": -1, "type": "PRES_AUD", "word": "salmon", "wordID": 1226, "conditions": [24, 1600, "a", 12000], "trial": 7, "serialpos": 8, "trial_type": "single-audio", "trial_index": 249, "time_elapsed": 1241824, "internal_node_id": "0.0-177.0"}}, {"uniqueid": "MTK0706:3A7Y0R2P2PVJF0S9YIYHNEMCA1AXJ5", "current_trial": 250, "dateTime": 1512627775708, "trialdata": {"rt": -1000, "stimulus": "/static/audio/wordpool/SHOVEL.wav", "key_press": -1, "type": "PRES_AUD", "word": "shovel", "wordID": 1294, "conditions": [24, 1600, "a", 12000], "trial": 7, "serialpos": 9, "trial_type": "single-audio", "trial_index": 250, "time_elapsed": 1244434, "internal_node_id": "0.0-178.0"}}, {"uniqueid": "MTK0706:3A7Y0R2P2PVJF0S9YIYHNEMCA1AXJ5", "current_trial": 251, "dateTime": 1512627778389, "trialdata": {"rt": -1000, "stimulus": "/static/audio/wordpool/STAPLE.wav", "key_press": -1, "type": "PRES_AUD", "word": "staple", "wordID": 1370, "conditions": [24, 1600, "a", 12000], "trial": 7, "serialpos": 10, "trial_type": "single-audio", "trial_index": 251, "time_elapsed": 1247115, "internal_node_id": "0.0-179.0"}}, {"uniqueid": "MTK0706:3A7Y0R2P2PVJF0S9YIYHNEMCA1AXJ5", "current_trial": 252, "dateTime": 1512627781127, "trialdata": {"rt": -1000, "stimulus": "/static/audio/wordpool/FOX.wav", "key_press": -1, "type": "PRES_AUD", "word": "fox", "wordID": 597, "conditions": [24, 1600, "a", 12000], "trial": 7, "serialpos": 11, "trial_type": "single-audio", "trial_index": 252, "time_elapsed": 1249853, "internal_node_id": "0.0-180.0"}}, {"uniqueid": "MTK0706:3A7Y0R2P2PVJF0S9YIYHNEMCA1AXJ5", "current_trial": 253, "dateTime": 1512627783908, "trialdata": {"rt": -1000, "stimulus": "/static/audio/wordpool/BULLET.wav", "key_press": -1, "type": "PRES_AUD", "word": "bullet", "wordID": 193, "conditions": [24, 1600, "a", 12000], "trial": 7, "serialpos": 12, "trial_type": "single-audio", "trial_index": 253, "time_elapsed": 1252634, "internal_node_id": "0.0-181.0"}}, {"uniqueid": "MTK0706:3A7Y0R2P2PVJF0S9YIYHNEMCA1AXJ5", "current_trial": 254, "dateTime": 1512627786523, "trialdata": {"rt": -1000, "stimulus": "/static/audio/wordpool/WORLD.wav", "key_press": -1, "type": "PRES_AUD", "word": "world", "wordID": 1621, "conditions": [24, 1600, "a", 12000], "trial": 7, "serialpos": 13, "trial_type": "single-audio", "trial_index": 254, "time_elapsed": 1255249, "internal_node_id": "0.0-182.0"}}, {"uniqueid": "MTK0706:3A7Y0R2P2PVJF0S9YIYHNEMCA1AXJ5", "current_trial": 255, "dateTime": 1512627789031, "trialdata": {"rt": -1000, "stimulus": "/static/audio/wordpool/LACE.wav", "key_press": -1, "type": "PRES_AUD", "word": "lace", "wordID": 791, "conditions": [24, 1600, "a", 12000], "trial": 7, "serialpos": 14, "trial_type": "single-audio", "trial_index": 255, "time_elapsed": 1257757, "internal_node_id": "0.0-183.0"}}, {"uniqueid": "MTK0706:3A7Y0R2P2PVJF0S9YIYHNEMCA1AXJ5", "current_trial": 256, "dateTime": 1512627791792, "trialdata": {"rt": -1000, "stimulus": "/static/audio/wordpool/GALLON.wav", "key_press": -1, "type": "PRES_AUD", "word": "gallon", "wordID": 617, "conditions": [24, 1600, "a", 12000], "trial": 7, "serialpos": 15, "trial_type": "single-audio", "trial_index": 256, "time_elapsed": 1260518, "internal_node_id": "0.0-184.0"}}, {"uniqueid": "MTK0706:3A7Y0R2P2PVJF0S9YIYHNEMCA1AXJ5", "current_trial": 257, "dateTime": 1512627794261, "trialdata": {"rt": -1000, "stimulus": "/static/audio/wordpool/POWDER.wav", "key_press": -1, "type": "PRES_AUD", "word": "powder", "wordID": 1116, "conditions": [24, 1600, "a", 12000], "trial": 7, "serialpos": 16, "trial_type": "single-audio", "trial_index": 257, "time_elapsed": 1262987, "internal_node_id": "0.0-185.0"}}, {"uniqueid": "MTK0706:3A7Y0R2P2PVJF0S9YIYHNEMCA1AXJ5", "current_trial": 258, "dateTime": 1512627796848, "trialdata": {"rt": -1000, "stimulus": "/static/audio/wordpool/TOMBSTONE.wav", "key_press": -1, "type": "PRES_AUD", "word": "tombstone", "wordID": 1477, "conditions": [24, 1600, "a", 12000], "trial": 7, "serialpos": 17, "trial_type": "single-audio", "trial_index": 258, "time_elapsed": 1265574, "internal_node_id": "0.0-186.0"}}, {"uniqueid": "MTK0706:3A7Y0R2P2PVJF0S9YIYHNEMCA1AXJ5", "current_trial": 259, "dateTime": 1512627799263, "trialdata": {"rt": -1000, "stimulus": "/static/audio/wordpool/CASKET.wav", "key_press": -1, "type": "PRES_AUD", "word": "casket", "wordID": 254, "conditions": [24, 1600, "a", 12000], "trial": 7, "serialpos": 18, "trial_type": "single-audio", "trial_index": 259, "time_elapsed": 1267989, "internal_node_id": "0.0-187.0"}}, {"uniqueid": "MTK0706:3A7Y0R2P2PVJF0S9YIYHNEMCA1AXJ5", "current_trial": 260, "dateTime": 1512627801729, "trialdata": {"rt": -1000, "stimulus": "/static/audio/wordpool/TRACTOR.wav", "key_press": -1, "type": "PRES_AUD", "word": "tractor", "wordID": 1492, "conditions": [24, 1600, "a", 12000], "trial": 7, "serialpos": 19, "trial_type": "single-audio", "trial_index": 260, "time_elapsed": 1270455, "internal_node_id": "0.0-188.0"}}, {"uniqueid": "MTK0706:3A7Y0R2P2PVJF0S9YIYHNEMCA1AXJ5", "current_trial": 261, "dateTime": 1512627804347, "trialdata": {"rt": -1000, "stimulus": "/static/audio/wordpool/HANDBAG.wav", "key_press": -1, "type": "PRES_AUD", "word": "handbag", "wordID": 683, "conditions": [24, 1600, "a", 12000], "trial": 7, "serialpos": 20, "trial_type": "single-audio", "trial_index": 261, "time_elapsed": 1273073, "internal_node_id": "0.0-189.0"}}, {"uniqueid": "MTK0706:3A7Y0R2P2PVJF0S9YIYHNEMCA1AXJ5", "current_trial": 262, "dateTime": 1512627806978, "trialdata": {"rt": -1000, "stimulus": "/static/audio/wordpool/COUNTRY.wav", "key_press": -1, "type": "PRES_AUD", "word": "country", "wordID": 387, "conditions": [24, 1600, "a", 12000], "trial": 7, "serialpos": 21, "trial_type": "single-audio", "trial_index": 262, "time_elapsed": 1275704, "internal_node_id": "0.0-190.0"}}, {"uniqueid": "MTK0706:3A7Y0R2P2PVJF0S9YIYHNEMCA1AXJ5", "current_trial": 263, "dateTime": 1512627809453, "trialdata": {"rt": -1000, "stimulus": "/static/audio/wordpool/TABLET.wav", "key_press": -1, "type": "PRES_AUD", "word": "tablet", "wordID": 1426, "conditions": [24, 1600, "a", 12000], "trial": 7, "serialpos": 22, "trial_type": "single-audio", "trial_index": 263, "time_elapsed": 1278179, "internal_node_id": "0.0-191.0"}}, {"uniqueid": "MTK0706:3A7Y0R2P2PVJF0S9YIYHNEMCA1AXJ5", "current_trial": 264, "dateTime": 1512627811934, "trialdata": {"rt": -1000, "stimulus": "/static/audio/wordpool/NOVEL.wav", "key_press": -1, "type": "PRES_AUD", "word": "novel", "wordID": 959, "conditions": [24, 1600, "a", 12000], "trial": 7, "serialpos": 23, "trial_type": "single-audio", "trial_index": 264, "time_elapsed": 1280660, "internal_node_id": "0.0-192.0"}}, {"uniqueid": "MTK0706:3A7Y0R2P2PVJF0S9YIYHNEMCA1AXJ5", "current_trial": 265, "dateTime": 1512627813272, "trialdata": {"rt": -1, "stimulus": "", "key_press": -1, "type": "PRE_RECALL_DELAY", "trial_type": "single-stim", "trial_index": 265, "time_elapsed": 1281998, "internal_node_id": "0.0-193.0-0.0"}}, {"uniqueid": "MTK0706:3A7Y0R2P2PVJF0S9YIYHNEMCA1AXJ5", "current_trial": 266, "dateTime": 1512627813772, "trialdata": {"rt": -1000, "stimulus": "/static/audio/400Hz.wav", "key_press": -1, "type": "PRE_RECALL_ALERT", "trial_type": "single-audio", "trial_index": 266, "time_elapsed": 1282498, "internal_node_id": "0.0-194.0"}}, {"uniqueid": "MTK0706:3A7Y0R2P2PVJF0S9YIYHNEMCA1AXJ5", "current_trial": 267, "dateTime": 1512627873778, "trialdata": {"rt": [2144, 4687, 6936, 8271, 9528, 20415, 28631, 31143], "recwords": ["tablet", "novel", "country", "cod", "salmon", "handbag", "staple", "rod"], "type": "FREE_RECALL", "conditions": [24, 1600, "a", 12000], "trial": 7, "trial_type": "free-recall", "trial_index": 267, "time_elapsed": 1342499, "internal_node_id": "0.0-195.0-0.0"}}, {"uniqueid": "MTK0706:3A7Y0R2P2PVJF0S9YIYHNEMCA1AXJ5", "current_trial": 268, "dateTime": 1512627877261, "trialdata": {"rt": 1483, "key_press": 32, "type": "INSTRUCTIONS", "trial_type": "text", "trial_index": 268, "time_elapsed": 1345987, "internal_node_id": "0.0-196.0"}}, {"uniqueid": "MTK0706:3A7Y0R2P2PVJF0S9YIYHNEMCA1AXJ5", "current_trial": 269, "dateTime": 1512627891262, "trialdata": {"rt": [3678, 6406, 8774, 10606], "responses": ["20", "15", "10", "10"], "num1": [7, 4, 7, 4, 5], "num2": [9, 8, 1, 2, 4], "num3": [4, 3, 2, 4, 1], "type": "DISTRACTOR", "conditions": [12, 1600, "a", 12000], "trial": 8, "trial_type": "math-distractor", "trial_index": 269, "time_elapsed": 1359988, "internal_node_id": "0.0-197.0"}}, {"uniqueid": "MTK0706:3A7Y0R2P2PVJF0S9YIYHNEMCA1AXJ5", "current_trial": 270, "dateTime": 1512627894263, "trialdata": {"rt": -1, "stimulus": "<p id=\"stim\">10</p>", "key_press": -1, "trial_type": "single-stim", "trial_index": 270, "time_elapsed": 1362989, "internal_node_id": "0.0-198.0-0.0"}}, {"uniqueid": "MTK0706:3A7Y0R2P2PVJF0S9YIYHNEMCA1AXJ5", "current_trial": 271, "dateTime": 1512627895263, "trialdata": {"rt": -1, "stimulus": "<p id=\"stim\">9</p>", "key_press": -1, "trial_type": "single-stim", "trial_index": 271, "time_elapsed": 1363989, "internal_node_id": "0.0-198.0-1.0"}}, {"uniqueid": "MTK0706:3A7Y0R2P2PVJF0S9YIYHNEMCA1AXJ5", "current_trial": 272, "dateTime": 1512627896263, "trialdata": {"rt": -1, "stimulus": "<p id=\"stim\">8</p>", "key_press": -1, "trial_type": "single-stim", "trial_index": 272, "time_elapsed": 1364989, "internal_node_id": "0.0-198.0-2.0"}}, {"uniqueid": "MTK0706:3A7Y0R2P