{"condition": 0, "counterbalance": 830, "assignmentId": "3VFJCI1K406PR2GWHD7M1J88G7WGR5", "workerId": "MTK0500", "hitId": "3T5ZXGO9DEVNJYY74O19SGIPHEKZQP", "currenttrial": 626, "bonus": 0, "data": [{"uniqueid": "MTK0500:3VFJCI1K406PR2GWHD7M1J88G7WGR5", "current_trial": 0, "dateTime": 1510964728917, "trialdata": {"rt": 2633, "key_press": 13, "type": "INSTRUCTIONS", "trial_type": "text", "trial_index": 0, "time_elapsed": 2641, "internal_node_id": "0.0-0.0"}}, {"uniqueid": "MTK0500:3VFJCI1K406PR2GWHD7M1J88G7WGR5", "current_trial": 1, "dateTime": 1510968769523, "trialdata": {"rt": 4040604, "key_press": 13, "type": "INSTRUCTIONS", "trial_type": "text", "trial_index": 1, "time_elapsed": 4043248, "internal_node_id": "0.0-1.0"}}, {"uniqueid": "MTK0500:3VFJCI1K406PR2GWHD7M1J88G7WGR5", "current_trial": 2, "dateTime": 1510968778364, "trialdata": {"rt": [8795], "responses": ["ocean"], "type": "AUDIO_TEST", "trial_type": "audio-test", "trial_index": 2, "time_elapsed": 4052089, "internal_node_id": "0.0-2.0"}}, {"uniqueid": "MTK0500:3VFJCI1K406PR2GWHD7M1J88G7WGR5", "current_trial": 3, "dateTime": 1510968784259, "trialdata": {"rt": [5886], "responses": ["crystal"], "type": "AUDIO_TEST", "trial_type": "audio-test", "trial_index": 3, "time_elapsed": 4057984, "internal_node_id": "0.0-3.0"}}, {"uniqueid": "MTK0500:3VFJCI1K406PR2GWHD7M1J88G7WGR5", "current_trial": 4, "dateTime": 1510968788865, "trialdata": {"rt": [4598], "responses": ["spice"], "type": "AUDIO_TEST", "trial_type": "audio-test", "trial_index": 4, "time_elapsed": 4062590, "internal_node_id": "0.0-4.0"}}, {"uniqueid": "MTK0500:3VFJCI1K406PR2GWHD7M1J88G7WGR5", "current_trial": 5, "dateTime": 1510968813706, "trialdata": {"rt": 24086, "responses": "{\"Q0\":\"11 PM\",\"Q1\":\"6 AM\",\"Q2\":\"4\"}", "type": "SLEEP_SURVEY", "trial_type": "survey-text", "trial_index": 5, "time_elapsed": 4087431, "internal_node_id": "0.0-5.0"}}, {"uniqueid": "MTK0500:3VFJCI1K406PR2GWHD7M1J88G7WGR5", "current_trial": 6, "dateTime": 1510968825933, "trialdata": {"rt": 11223, "key_press": 16, "type": "INSTRUCTIONS", "trial_type": "text", "trial_index": 6, "time_elapsed": 4099657, "internal_node_id": "0.0-6.0"}}, {"uniqueid": "MTK0500:3VFJCI1K406PR2GWHD7M1J88G7WGR5", "current_trial": 7, "dateTime": 1510968834638, "trialdata": {"rt": 8204, "key_press": 67, "type": "INSTRUCTIONS", "trial_type": "text", "trial_index": 7, "time_elapsed": 4108363, "internal_node_id": "0.0-7.0"}}, {"uniqueid": "MTK0500:3VFJCI1K406PR2GWHD7M1J88G7WGR5", "current_trial": 8, "dateTime": 1510968853676, "trialdata": {"rt": 18537, "key_press": 32, "type": "INSTRUCTIONS", "trial_type": "text", "trial_index": 8, "time_elapsed": 4127401, "internal_node_id": "0.0-8.0"}}, {"uniqueid": "MTK0500:3VFJCI1K406PR2GWHD7M1J88G7WGR5", "current_trial": 9, "dateTime": 1510968872689, "trialdata": {"rt": [1905, 3764, 5244, 6923, 8851, 10986, 12831, 14802, 16282], "responses": ["11", "13", "11", "12", "13", "11", "16", "12", "14"], "num1": [7, 6, 1, 3, 2, 3, 4, 6, 6, 1], "num2": [3, 6, 5, 5, 6, 5, 4, 3, 4, 7], "num3": [1, 1, 5, 4, 5, 3, 6, 3, 4, 7], "type": "DISTRACTOR", "conditions": [18, 1200, "a", 18000], "trial": 0, "trial_type": "math-distractor", "trial_index": 9, "time_elapsed": 4146414, "internal_node_id": "0.0-9.0"}}, {"uniqueid": "MTK0500:3VFJCI1K406PR2GWHD7M1J88G7WGR5", "current_trial": 10, "dateTime": 1510968875692, "trialdata": {"rt": -1, "stimulus": "<p id=\"stim\">10</p>", "key_press": -1, "trial_type": "single-stim", "trial_index": 10, "time_elapsed": 4149417, "internal_node_id": "0.0-10.0-0.0"}}, {"uniqueid": "MTK0500:3VFJCI1K406PR2GWHD7M1J88G7WGR5", "current_trial": 11, "dateTime": 1510968876712, "trialdata": {"rt": -1, "stimulus": "<p id=\"stim\">9</p>", "key_press": -1, "trial_type": "single-stim", "trial_index": 11, "time_elapsed": 4150437, "internal_node_id": "0.0-10.0-1.0"}}, {"uniqueid": "MTK0500:3VFJCI1K406PR2GWHD7M1J88G7WGR5", "current_trial": 12, "dateTime": 1510968877718, "trialdata": {"rt": -1, "stimulus": "<p id=\"stim\">8</p>", "key_press": -1, "trial_type": "single-stim", "trial_index": 12, "time_elapsed": 4151443, "internal_node_id": "0.0-10.0-2.0"}}, {"uniqueid": "MTK0500:3VFJCI1K406PR2GWHD7M1J88G7WGR5", "current_trial": 13, "dateTime": 1510968878770, "trialdata": {"rt": -1, "stimulus": "<p id=\"stim\">7</p>", "key_press": -1, "trial_type": "single-stim", "trial_index": 13, "time_elapsed": 4152495, "internal_node_id": "0.0-10.0-3.0"}}, {"uniqueid": "MTK0500:3VFJCI1K406PR2GWHD7M1J88G7WGR5", "current_trial": 14, "dateTime": 1510968879771, "trialdata": {"rt": -1, "stimulus": "<p id=\"stim\">6</p>", "key_press": -1, "trial_type": "single-stim", "trial_index": 14, "time_elapsed": 4153496, "internal_node_id": "0.0-10.0-4.0"}}, {"uniqueid": "MTK0500:3VFJCI1K406PR2GWHD7M1J88G7WGR5", "current_trial": 15, "dateTime": 1510968880828, "trialdata": {"rt": -1, "stimulus": "<p id=\"stim\">5</p>", "key_press": -1, "trial_type": "single-stim", "trial_index": 15, "time_elapsed": 4154553, "internal_node_id": "0.0-10.0-5.0"}}, {"uniqueid": "MTK0500:3VFJCI1K406PR2GWHD7M1J88G7WGR5", "current_trial": 16, "dateTime": 1510968881869, "trialdata": {"rt": -1, "stimulus": "<p id=\"stim\">4</p>", "key_press": -1, "trial_type": "single-stim", "trial_index": 16, "time_elapsed": 4155594, "internal_node_id": "0.0-10.0-6.0"}}, {"uniqueid": "MTK0500:3VFJCI1K406PR2GWHD7M1J88G7WGR5", "current_trial": 17, "dateTime": 1510968882900, "trialdata": {"rt": -1, "stimulus": "<p id=\"stim\">3</p>", "key_press": -1, "trial_type": "single-stim", "trial_index": 17, "time_elapsed": 4156625, "internal_node_id": "0.0-10.0-7.0"}}, {"uniqueid": "MTK0500:3VFJCI1K406PR2GWHD7M1J88G7WGR5", "current_trial": 18, "dateTime": 1510968884008, "trialdata": {"rt": -1, "stimulus": "<p id=\"stim\">2</p>", "key_press": -1, "trial_type": "single-stim", "trial_index": 18, "time_elapsed": 4157733, "internal_node_id": "0.0-10.0-8.0"}}, {"uniqueid": "MTK0500:3VFJCI1K406PR2GWHD7M1J88G7WGR5", "current_trial": 19, "dateTime": 1510968885032, "trialdata": {"rt": -1, "stimulus": "<p id=\"stim\">1</p>", "key_press": -1, "trial_type": "single-stim", "trial_index": 19, "time_elapsed": 4158757, "internal_node_id": "0.0-10.0-9.0"}}, {"uniqueid": "MTK0500:3VFJCI1K406PR2GWHD7M1J88G7WGR5", "current_trial": 20, "dateTime": 1510968886550, "trialdata": {"rt": -1, "stimulus": "<p id=\"stim\">+</p>", "key_press": -1, "type": "FIXATION", "trial_type": "single-stim", "trial_index": 20, "time_elapsed": 4160275, "internal_node_id": "0.0-11.0-0.0"}}, {"uniqueid": "MTK0500:3VFJCI1K406PR2GWHD7M1J88G7WGR5", "current_trial": 21, "dateTime": 1510968888845, "trialdata": {"rt": -1000, "stimulus": "/static/audio/wordpool/BROOK.wav", "key_press": -1, "type": "PRES_AUD", "word": "brook", "wordID": 176, "conditions": [18, 1200, "a", 18000], "trial": 0, "serialpos": 0, "trial_type": "single-audio", "trial_index": 21, "time_elapsed": 4162570, "internal_node_id": "0.0-12.0"}}, {"uniqueid": "MTK0500:3VFJCI1K406PR2GWHD7M1J88G7WGR5", "current_trial": 22, "dateTime": 1510968891097, "trialdata": {"rt": -1000, "stimulus": "/static/audio/wordpool/MACHINE.wav", "key_press": -1, "type": "PRES_AUD", "word": "machine", "wordID": 851, "conditions": [18, 1200, "a", 18000], "trial": 0, "serialpos": 1, "trial_type": "single-audio", "trial_index": 22, "time_elapsed": 4164822, "internal_node_id": "0.0-13.0"}}, {"uniqueid": "MTK0500:3VFJCI1K406PR2GWHD7M1J88G7WGR5", "current_trial": 23, "dateTime": 1510968893339, "trialdata": {"rt": -1000, "stimulus": "/static/audio/wordpool/CLOTHES.wav", "key_press": -1, "type": "PRES_AUD", "word": "clothes", "wordID": 326, "conditions": [18, 1200, "a", 18000], "trial": 0, "serialpos": 2, "trial_type": "single-audio", "trial_index": 23, "time_elapsed": 4167063, "internal_node_id": "0.0-14.0"}}, {"uniqueid": "MTK0500:3VFJCI1K406PR2GWHD7M1J88G7WGR5", "current_trial": 24, "dateTime": 1510968895656, "trialdata": {"rt": -1000, "stimulus": "/static/audio/wordpool/SNACK.wav", "key_press": -1, "type": "PRES_AUD", "word": "snack", "wordID": 1330, "conditions": [18, 1200, "a", 18000], "trial": 0, "serialpos": 3, "trial_type": "single-audio", "trial_index": 24, "time_elapsed": 4169381, "internal_node_id": "0.0-15.0"}}, {"uniqueid": "MTK0500:3VFJCI1K406PR2GWHD7M1J88G7WGR5", "current_trial": 25, "dateTime": 1510968897819, "trialdata": {"rt": -1000, "stimulus": "/static/audio/wordpool/BUTCHER.wav", "key_press": -1, "type": "PRES_AUD", "word": "butcher", "wordID": 202, "conditions": [18, 1200, "a", 18000], "trial": 0, "serialpos": 4, "trial_type": "single-audio", "trial_index": 25, "time_elapsed": 4171544, "internal_node_id": "0.0-16.0"}}, {"uniqueid": "MTK0500:3VFJCI1K406PR2GWHD7M1J88G7WGR5", "current_trial": 26, "dateTime": 1510968900167, "trialdata": {"rt": -1000, "stimulus": "/static/audio/wordpool/LABEL.wav", "key_press": -1, "type": "PRES_AUD", "word": "label", "wordID": 789, "conditions": [18, 1200, "a", 18000], "trial": 0, "serialpos": 5, "trial_type": "single-audio", "trial_index": 26, "time_elapsed": 4173892, "internal_node_id": "0.0-17.0"}}, {"uniqueid": "MTK0500:3VFJCI1K406PR2GWHD7M1J88G7WGR5", "current_trial": 27, "dateTime": 1510968902190, "trialdata": {"rt": -1000, "stimulus": "/static/audio/wordpool/FRUIT.wav", "key_press": -1, "type": "PRES_AUD", "word": "fruit", "wordID": 609, "conditions": [18, 1200, "a", 18000], "trial": 0, "serialpos": 6, "trial_type": "single-audio", "trial_index": 27, "time_elapsed": 4175915, "internal_node_id": "0.0-18.0"}}, {"uniqueid": "MTK0500:3VFJCI1K406PR2GWHD7M1J88G7WGR5", "current_trial": 28, "dateTime": 1510968904374, "trialdata": {"rt": -1000, "stimulus": "/static/audio/wordpool/JELLO.wav", "key_press": -1, "type": "PRES_AUD", "word": "jello", "wordID": 753, "conditions": [18, 1200, "a", 18000], "trial": 0, "serialpos": 7, "trial_type": "single-audio", "trial_index": 28, "time_elapsed": 4178099, "internal_node_id": "0.0-19.0"}}, {"uniqueid": "MTK0500:3VFJCI1K406PR2GWHD7M1J88G7WGR5", "current_trial": 29, "dateTime": 1510968906762, "trialdata": {"rt": -1000, "stimulus": "/static/audio/wordpool/SHERIFF.wav", "key_press": -1, "type": "PRES_AUD", "word": "sheriff", "wordID": 1283, "conditions": [18, 1200, "a", 18000], "trial": 0, "serialpos": 8, "trial_type": "single-audio", "trial_index": 29, "time_elapsed": 4180486, "internal_node_id": "0.0-20.0"}}, {"uniqueid": "MTK0500:3VFJCI1K406PR2GWHD7M1J88G7WGR5", "current_trial": 30, "dateTime": 1510968909108, "trialdata": {"rt": -1000, "stimulus": "/static/audio/wordpool/DONOR.wav", "key_press": -1, "type": "PRES_AUD", "word": "donor", "wordID": 484, "conditions": [18, 1200, "a", 18000], "trial": 0, "serialpos": 9, "trial_type": "single-audio", "trial_index": 30, "time_elapsed": 4182833, "internal_node_id": "0.0-21.0"}}, {"uniqueid": "MTK0500:3VFJCI1K406PR2GWHD7M1J88G7WGR5", "current_trial": 31, "dateTime": 1510968911550, "trialdata": {"rt": -1000, "stimulus": "/static/audio/wordpool/MAILBOX.wav", "key_press": -1, "type": "PRES_AUD", "word": "mailbox", "wordID": 856, "conditions": [18, 1200, "a", 18000], "trial": 0, "serialpos": 10, "trial_type": "single-audio", "trial_index": 31, "time_elapsed": 4185275, "internal_node_id": "0.0-22.0"}}, {"uniqueid": "MTK0500:3VFJCI1K406PR2GWHD7M1J88G7WGR5", "current_trial": 32, "dateTime": 1510968913800, "trialdata": {"rt": -1000, "stimulus": "/static/audio/wordpool/BULLET.wav", "key_press": -1, "type": "PRES_AUD", "word": "bullet", "wordID": 193, "conditions": [18, 1200, "a", 18000], "trial": 0, "serialpos": 11, "trial_type": "single-audio", "trial_index": 32, "time_elapsed": 4187525, "internal_node_id": "0.0-23.0"}}, {"uniqueid": "MTK0500:3VFJCI1K406PR2GWHD7M1J88G7WGR5", "current_trial": 33, "dateTime": 1510968916151, "trialdata": {"rt": -1000, "stimulus": "/static/audio/wordpool/PROTON.wav", "key_press": -1, "type": "PRES_AUD", "word": "proton", "wordID": 1131, "conditions": [18, 1200, "a", 18000], "trial": 0, "serialpos": 12, "trial_type": "single-audio", "trial_index": 33, "time_elapsed": 4189876, "internal_node_id": "0.0-24.0"}}, {"uniqueid": "MTK0500:3VFJCI1K406PR2GWHD7M1J88G7WGR5", "current_trial": 34, "dateTime": 1510968918367, "trialdata": {"rt": -1000, "stimulus": "/static/audio/wordpool/BASEMENT.wav", "key_press": -1, "type": "PRES_AUD", "word": "basement", "wordID": 93, "conditions": [18, 1200, "a", 18000], "trial": 0, "serialpos": 13, "trial_type": "single-audio", "trial_index": 34, "time_elapsed": 4192092, "internal_node_id": "0.0-25.0"}}, {"uniqueid": "MTK0500:3VFJCI1K406PR2GWHD7M1J88G7WGR5", "current_trial": 35, "dateTime": 1510968920729, "trialdata": {"rt": -1000, "stimulus": "/static/audio/wordpool/APRON.wav", "key_press": -1, "type": "PRES_AUD", "word": "apron", "wordID": 34, "conditions": [18, 1200, "a", 18000], "trial": 0, "serialpos": 14, "trial_type": "single-audio", "trial_index": 35, "time_elapsed": 4194454, "internal_node_id": "0.0-26.0"}}, {"uniqueid": "MTK0500:3VFJCI1K406PR2GWHD7M1J88G7WGR5", "current_trial": 36, "dateTime": 1510968922938, "trialdata": {"rt": -1000, "stimulus": "/static/audio/wordpool/ROBIN.wav", "key_press": -1, "type": "PRES_AUD", "word": "robin", "wordID": 1198, "conditions": [18, 1200, "a", 18000], "trial": 0, "serialpos": 15, "trial_type": "single-audio", "trial_index": 36, "time_elapsed": 4196663, "internal_node_id": "0.0-27.0"}}, {"uniqueid": "MTK0500:3VFJCI1K406PR2GWHD7M1J88G7WGR5", "current_trial": 37, "dateTime": 1510968925353, "trialdata": {"rt": -1000, "stimulus": "/static/audio/wordpool/SPACE.wav", "key_press": -1, "type": "PRES_AUD", "word": "space", "wordID": 1344, "conditions": [18, 1200, "a", 18000], "trial": 0, "serialpos": 16, "trial_type": "single-audio", "trial_index": 37, "time_elapsed": 4199078, "internal_node_id": "0.0-28.0"}}, {"uniqueid": "MTK0500:3VFJCI1K406PR2GWHD7M1J88G7WGR5", "current_trial": 38, "dateTime": 1510968927496, "trialdata": {"rt": -1000, "stimulus": "/static/audio/wordpool/SKIRT.wav", "key_press": -1, "type": "PRES_AUD", "word": "skirt", "wordID": 1318, "conditions": [18, 1200, "a", 18000], "trial": 0, "serialpos": 17, "trial_type": "single-audio", "trial_index": 38, "time_elapsed": 4201220, "internal_node_id": "0.0-29.0"}}, {"uniqueid": "MTK0500:3VFJCI1K406PR2GWHD7M1J88G7WGR5", "current_trial": 39, "dateTime": 1510968928795, "trialdata": {"rt": -1, "stimulus": "", "key_press": -1, "type": "PRE_RECALL_DELAY", "trial_type": "single-stim", "trial_index": 39, "time_elapsed": 4202520, "internal_node_id": "0.0-30.0-0.0"}}, {"uniqueid": "MTK0500:3VFJCI1K406PR2GWHD7M1J88G7WGR5", "current_trial": 40, "dateTime": 1510968929296, "trialdata": {"rt": -1000, "stimulus": "/static/audio/400Hz.wav", "key_press": -1, "type": "PRE_RECALL_ALERT", "trial_type": "single-audio", "trial_index": 40, "time_elapsed": 4203021, "internal_node_id": "0.0-31.0"}}, {"uniqueid": "MTK0500:3VFJCI1K406PR2GWHD7M1J88G7WGR5", "current_trial": 41, "dateTime": 1510968989313, "trialdata": {"rt": [9336, 10328, 12863, 13911, 14935, 16855, 17863, 19134, 19886, 20334], "recwords": ["machine", "clothes", "fruit", "yellow", "sheriff", "apron", "robin", "space", "skirt", ""], "type": "FREE_RECALL", "conditions": [18, 1200, "a", 18000], "trial": 0, "trial_type": "free-recall", "trial_index": 41, "time_elapsed": 4263025, "internal_node_id": "0.0-32.0-0.0"}}, {"uniqueid": "MTK0500:3VFJCI1K406PR2GWHD7M1J88G7WGR5", "current_trial": 42, "dateTime": 1510968992793, "trialdata": {"rt": 1477, "key_press": 13, "type": "INSTRUCTIONS", "trial_type": "text", "trial_index": 42, "time_elapsed": 4266517, "internal_node_id": "0.0-33.0"}}, {"uniqueid": "MTK0500:3VFJCI1K406PR2GWHD7M1J88G7WGR5", "current_trial": 43, "dateTime": 1510969012799, "trialdata": {"rt": [2602, 4796, 7082, 8536, 10900, 12481, 14364, 16008], "responses": ["10", "20", "18", "11", "19", "16", "14", "14"], "num1": [4, 9, 4, 5, 3, 5, 6, 8, 3], "num2": [1, 6, 7, 7, 7, 4, 4, 1, 4], "num3": [5, 5, 7, 2, 9, 7, 4, 5, 8], "type": "DISTRACTOR", "conditions": [18, 1200, "v", 18000], "trial": 1, "trial_type": "math-distractor", "trial_index": 43, "time_elapsed": 4286524, "internal_node_id": "0.0-34.0"}}, {"uniqueid": "MTK0500:3VFJCI1K406PR2GWHD7M1J88G7WGR5", "current_trial": 44, "dateTime": 1510969015801, "trialdata": {"rt": -1, "stimulus": "<p id=\"stim\">10</p>", "key_press": -1, "trial_type": "single-stim", "trial_index": 44, "time_elapsed": 4289526, "internal_node_id": "0.0-35.0-0.0"}}, {"uniqueid": "MTK0500:3VFJCI1K406PR2GWHD7M1J88G7WGR5", "current_trial": 45, "dateTime": 1510969017471, "trialdata": {"rt": -1, "stimulus": "<p id=\"stim\">9</p>", "key_press": -1, "trial_type": "single-stim", "trial_index": 45, "time_elapsed": 4291196, "internal_node_id": "0.0-35.0-1.0"}}, {"uniqueid": "MTK0500:3VFJCI1K406PR2GWHD7M1J88G7WGR5", "current_trial": 46, "dateTime": 1510969018613, "trialdata": {"rt": -1, "stimulus": "<p id=\"stim\">8</p>", "key_press": -1, "trial_type": "single-stim", "trial_index": 46, "time_elapsed": 4292314, "internal_node_id": "0.0-35.0-2.0"}}, {"uniqueid": "MTK0500:3VFJCI1K406PR2GWHD7M1J88G7WGR5", "current_trial": 47, "dateTime": 1510969019615, "trialdata": {"rt": -1, "stimulus": "<p id=\"stim\">7</p>", "key_press": -1, "trial_type": "single-stim", "trial_index": 47, "time_elapsed": 4293340, "internal_node_id": "0.0-35.0-3.0"}}, {"uniqueid": "MTK0500:3VFJCI1K406PR2GWHD7M1J88G7WGR5", "current_trial": 48, "dateTime": 1510969020687, "trialdata": {"rt": -1, "stimulus": "<p id=\"stim\">6</p>", "key_press": -1, "trial_type": "single-stim", "trial_index": 48, "time_elapsed": 4294412, "internal_node_id": "0.0-35.0-4.0"}}, {"uniqueid": "MTK0500:3VFJCI1K406PR2GWHD7M1J88G7WGR5", "current_trial": 49, "dateTime": 1510969021701, "trialdata": {"rt": -1, "stimulus": "<p id=\"stim\">5</p>", "key_press": -1, "trial_type": "single-stim", "trial_index": 49, "time_elapsed": 4295426, "internal_node_id": "0.0-35.0-5.0"}}, {"uniqueid": "MTK0500:3VFJCI1K406PR2GWHD7M1J88G7WGR5", "current_trial": 50, "dateTime": 1510969022815, "trialdata": {"rt": -1, "stimulus": "<p id=\"stim\">4</p>", "key_press": -1, "trial_type": "single-stim", "trial_index": 50, "time_elapsed": 4296540, "internal_node_id": "0.0-35.0-6.0"}}, {"uniqueid": "MTK0500:3VFJCI1K406PR2GWHD7M1J88G7WGR5", "current_trial": 51, "dateTime": 1510969023817, "trialdata": {"rt": -1, "stimulus": "<p id=\"stim\">3</p>", "key_press": -1, "trial_type": "single-stim", "trial_index": 51, "time_elapsed": 4297541, "internal_node_id": "0.0-35.0-7.0"}}, {"uniqueid": "MTK0500:3VFJCI1K406PR2GWHD7M1J88G7WGR5", "current_trial": 52, "dateTime": 1510969024884, "trialdata": {"rt": -1, "stimulus": "<p id=\"stim\">2</p>", "key_press": -1, "trial_type": "single-stim", "trial_index": 52, "time_elapsed": 4298608, "internal_node_id": "0.0-35.0-8.0"}}, {"uniqueid": "MTK0500:3VFJCI1K406PR2GWHD7M1J88G7WGR5", "current_trial": 53, "dateTime": 1510969025885, "trialdata": {"rt": -1, "stimulus": "<p id=\"stim\">1</p>", "key_press": -1, "trial_type": "single-stim", "trial_index": 53, "time_elapsed": 4299610, "internal_node_id": "0.0-35.0-9.0"}}, {"uniqueid": "MTK0500:3VFJCI1K406PR2GWHD7M1J88G7WGR5", "current_trial": 54, "dateTime": 1510969027462, "trialdata": {"rt": -1, "stimulus": "<p id=\"stim\">+</p>", "key_press": -1, "type": "FIXATION", "trial_type": "single-stim", "trial_index": 54, "time_elapsed": 4301186, "internal_node_id": "0.0-36.0-0.0"}}, {"uniqueid": "MTK0500:3VFJCI1K406PR2GWHD7M1J88G7WGR5", "current_trial": 55, "dateTime": 1510969028867, "trialdata": {"rt": -1, "stimulus": "<p id=\"stim\">SPOUSE</p>", "key_press": -1, "type": "PRES_VIS", "word": "spouse", "wordID": 1357, "conditions": [18, 1200, "v", 18000], "trial": 1, "serialpos": 0, "trial_type": "single-stim", "trial_index": 55, "time_elapsed": 4302592, "internal_node_id": "0.0-37.0"}}, {"uniqueid": "MTK0500:3VFJCI1K406PR2GWHD7M1J88G7WGR5", "current_trial": 56, "dateTime": 1510969030966, "trialdata": {"rt": -1, "stimulus": "<p id=\"stim\">CROSS</p>", "key_press": -1, "type": "PRES_VIS", "word": "cross", "wordID": 412, "conditions": [18, 1200, "v", 18000], "trial": 1, "serialpos": 1, "trial_type": "single-stim", "trial_index": 56, "time_elapsed": 4304691, "internal_node_id": "0.0-38.0"}}, {"uniqueid": "MTK0500:3VFJCI1K406PR2GWHD7M1J88G7WGR5", "current_trial": 57, "dateTime": 1510969033078, "trialdata": {"rt": -1, "stimulus": "<p id=\"stim\">DRUG</p>", "key_press": -1, "type": "PRES_VIS", "word": "drug", "wordID": 500, "conditions": [18, 1200, "v", 18000], "trial": 1, "serialpos": 2, "trial_type": "single-stim", "trial_index": 57, "time_elapsed": 4306803, "internal_node_id": "0.0-39.0"}}, {"uniqueid": "MTK0500:3VFJCI1K406PR2GWHD7M1J88G7WGR5", "current_trial": 58, "dateTime": 1510969035620, "trialdata": {"rt": -1, "stimulus": "<p id=\"stim\">CHEST</p>", "key_press": -1, "type": "PRES_VIS", "word": "chest", "wordID": 294, "conditions": [18, 1200, "v", 18000], "trial": 1, "serialpos": 3, "trial_type": "single-stim", "trial_index": 58, "time_elapsed": 4309345, "internal_node_id": "0.0-40.0"}}, {"uniqueid": "MTK0500:3VFJCI1K406PR2GWHD7M1J88G7WGR5", "current_trial": 59, "dateTime": 1510969037948, "trialdata": {"rt": -1, "stimulus": "<p id=\"stim\">GOBLIN</p>", "key_press": -1, "type": "PRES_VIS", "word": "goblin", "wordID": 644, "conditions": [18, 1200, "v", 18000], "trial": 1, "serialpos": 4, "trial_type": "single-stim", "trial_index": 59, "time_elapsed": 4311673, "internal_node_id": "0.0-41.0"}}, {"uniqueid": "MTK0500:3VFJCI1K406PR2GWHD7M1J88G7WGR5", "current_trial": 60, "dateTime": 1510969040367, "trialdata": {"rt": -1, "stimulus": "<p id=\"stim\">TRENCH</p>", "key_press": -1, "type": "PRES_VIS", "word": "trench", "wordID": 1502, "conditions": [18, 1200, "v", 18000], "trial": 1, "serialpos": 5, "trial_type": "single-stim", "trial_index": 60, "time_elapsed": 4314092, "internal_node_id": "0.0-42.0"}}, {"uniqueid": "MTK0500:3VFJCI1K406PR2GWHD7M1J88G7WGR5", "current_trial": 61, "dateTime": 1510969042766, "trialdata": {"rt": -1, "stimulus": "<p id=\"stim\">ATLAS</p>", "key_press": -1, "type": "PRES_VIS", "word": "atlas", "wordID": 52, "conditions": [18, 1200, "v", 18000], "trial": 1, "serialpos": 6, "trial_type": "single-stim", "trial_index": 61, "time_elapsed": 4316491, "internal_node_id": "0.0-43.0"}}, {"uniqueid": "MTK0500:3VFJCI1K406PR2GWHD7M1J88G7WGR5", "current_trial": 62, "dateTime": 1510969044922, "trialdata": {"rt": -1, "stimulus": "<p id=\"stim\">DUSTPAN</p>", "key_press": -1, "type": "PRES_VIS", "word": "dustpan", "wordID": 508, "conditions": [18, 1200, "v", 18000], "trial": 1, "serialpos": 7, "trial_type": "single-stim", "trial_index": 62, "time_elapsed": 4318646, "internal_node_id": "0.0-44.0"}}, {"uniqueid": "MTK0500:3VFJCI1K406PR2GWHD7M1J88G7WGR5", "current_trial": 63, "dateTime": 1510969047168, "trialdata": {"rt": -1, "stimulus": "<p id=\"stim\">HAWK</p>", "key_press": -1, "type": "PRES_VIS", "word": "hawk", "wordID": 691, "conditions": [18, 1200, "v", 18000], "trial": 1, "serialpos": 8, "trial_type": "single-stim", "trial_index": 63, "time_elapsed": 4320893, "internal_node_id": "0.0-45.0"}}, {"uniqueid": "MTK0500:3VFJCI1K406PR2GWHD7M1J88G7WGR5", "current_trial": 64, "dateTime": 1510969049630, "trialdata": {"rt": -1, "stimulus": "<p id=\"stim\">WOMAN</p>", "key_press": -1, "type": "PRES_VIS", "word": "woman", "wordID": 1619, "conditions": [18, 1200, "v", 18000], "trial": 1, "serialpos": 9, "trial_type": "single-stim", "trial_index": 64, "time_elapsed": 4323355, "internal_node_id": "0.0-46.0"}}, {"uniqueid": "MTK0500:3VFJCI1K406PR2GWHD7M1J88G7WGR5", "current_trial": 65, "dateTime": 1510969052111, "trialdata": {"rt": -1, "stimulus": "<p id=\"stim\">CASHEW</p>", "key_press": -1, "type": "PRES_VIS", "word": "cashew", "wordID": 252, "conditions": [18, 1200, "v", 18000], "trial": 1, "serialpos": 10, "trial_type": "single-stim", "trial_index": 65, "time_elapsed": 4325835, "internal_node_id": "0.0-47.0"}}, {"uniqueid": "MTK0500:3VFJCI1K406PR2GWHD7M1J88G7WGR5", "current_trial": 66, "dateTime": 1510969054497, "trialdata": {"rt": -1, "stimulus": "<p id=\"stim\">SUBWAY</p>", "key_press": -1, "type": "PRES_VIS", "word": "subway", "wordID": 1399, "conditions": [18, 1200, "v", 18000], "trial": 1, "serialpos": 11, "trial_type": "single-stim", "trial_index": 66, "time_elapsed": 4328222, "internal_node_id": "0.0-48.0"}}, {"uniqueid": "MTK0500:3VFJCI1K406PR2GWHD7M1J88G7WGR5", "current_trial": 67, "dateTime": 1510969056647, "trialdata": {"rt": -1, "stimulus": "<p id=\"stim\">FRIEND</p>", "key_press": -1, "type": "PRES_VIS", "word": "friend", "wordID": 605, "conditions": [18, 1200, "v", 18000], "trial": 1, "serialpos": 12, "trial_type": "single-stim", "trial_index": 67, "time_elapsed": 4330371, "internal_node_id": "0.0-49.0"}}, {"uniqueid": "MTK0500:3VFJCI1K406PR2GWHD7M1J88G7WGR5", "current_trial": 68, "dateTime": 1510969058864, "trialdata": {"rt": -1, "stimulus": "<p id=\"stim\">BARREL</p>", "key_press": -1, "type": "PRES_VIS", "word": "barrel", "wordID": 90, "conditions": [18, 1200, "v", 18000], "trial": 1, "serialpos": 13, "trial_type": "single-stim", "trial_index": 68, "time_elapsed": 4332578, "internal_node_id": "0.0-50.0"}}, {"uniqueid": "MTK0500:3VFJCI1K406PR2GWHD7M1J88G7WGR5", "current_trial": 69, "dateTime": 1510969061342, "trialdata": {"rt": -1, "stimulus": "<p id=\"stim\">FOREHEAD</p>", "key_press": -1, "type": "PRES_VIS", "word": "forehead", "wordID": 591, "conditions": [18, 1200, "v", 18000], "trial": 1, "serialpos": 14, "trial_type": "single-stim", "trial_index": 69, "time_elapsed": 4335067, "internal_node_id": "0.0-51.0"}}, {"uniqueid": "MTK0500:3VFJCI1K406PR2GWHD7M1J88G7WGR5", "current_trial": 70, "dateTime": 1510969064102, "trialdata": {"rt": -1, "stimulus": "<p id=\"stim\">FIREMAN</p>", "key_press": -1, "type": "PRES_VIS", "word": "fireman", "wordID": 568, "conditions": [18, 1200, "v", 18000], "trial": 1, "serialpos": 15, "trial_type": "single-stim", "trial_index": 70, "time_elapsed": 4337827, "internal_node_id": "0.0-52.0"}}, {"uniqueid": "MTK0500:3VFJCI1K406PR2GWHD7M1J88G7WGR5", "current_trial": 71, "dateTime": 1510969066307, "trialdata": {"rt": -1, "stimulus": "<p id=\"stim\">YARN</p>", "key_press": -1, "type": "PRES_VIS", "word": "yarn", "wordID": 1630, "conditions": [18, 1200, "v", 18000], "trial": 1, "serialpos": 16, "trial_type": "single-stim", "trial_index": 71, "time_elapsed": 4340032, "internal_node_id": "0.0-53.0"}}, {"uniqueid": "MTK0500:3VFJCI1K406PR2GWHD7M1J88G7WGR5", "current_trial": 72, "dateTime": 1510969068503, "trialdata": {"rt": -1, "stimulus": "<p id=\"stim\">PECAN</p>", "key_press": -1, "type": "PRES_VIS", "word": "pecan", "wordID": 1035, "conditions": [18, 1200, "v", 18000], "trial": 1, "serialpos": 17, "trial_type": "single-stim", "trial_index": 72, "time_elapsed": 4342228, "internal_node_id": "0.0-54.0"}}, {"uniqueid": "MTK0500:3VFJCI1K406PR2GWHD7M1J88G7WGR5", "current_trial": 73, "dateTime": 1510969071175, "trialdata": {"rt": -1, "stimulus": "", "key_press": -1, "type": "PRE_RECALL_DELAY", "trial_type": "single-stim", "trial_index": 73, "time_elapsed": 4344900, "internal_node_id": "0.0-55.0-0.0"}}, {"uniqueid": "MTK0500:3VFJCI1K406PR2GWHD7M1J88G7WGR5", "current_trial": 74, "dateTime": 1510969071725, "trialdata": {"rt": -1000, "stimulus": "/static/audio/400Hz.wav", "key_press": -1, "type": "PRE_RECALL_ALERT", "trial_type": "single-audio", "trial_index": 74, "time_elapsed": 4345450, "internal_node_id": "0.0-56.0"}}, {"uniqueid": "MTK0500:3VFJCI1K406PR2GWHD7M1J88G7WGR5", "current_trial": 75, "dateTime": 1510969131858, "trialdata": {"rt": [11067, 11757, 13356, 14092, 15148, 16682, 21248, 22364, 23526], "recwords": ["cross", "dog", "trench", "atlas", "hawk", "goblin", "cashew", "woman", "subway"], "type": "FREE_RECALL", "conditions": [18, 1200, "v", 18000], "trial": 1, "trial_type": "free-recall", "trial_index": 75, "time_elapsed": 4405577, "internal_node_id": "0.0-57.0-0.0"}}, {"uniqueid": "MTK0500:3VFJCI1K406PR2GWHD7M1J88G7WGR5", "current_trial": 76, "dateTime": 1510969135835, "trialdata": {"rt": 1921, "key_press": 13, "type": "INSTRUCTIONS", "trial_type": "text", "trial_index": 76, "time_elapsed": 4409547, "internal_node_id": "0.0-58.0"}}, {"uniqueid": "MTK0500:3VFJCI1K406PR2GWHD7M1J88G7WGR5", "current_trial": 77, "dateTime": 1510969160882, "trialdata": {"rt": [1758, 4452, 5846, 7853, 9654, 11567, 12196, 13519, 15094, 16485, 18450, 19997, 21657, 23403], "responses": ["15", "16", "10", "19", "25", "13", "13", "11", "12", "15", "9", "7", "14", "9"], "num1": [8, 9, 7, 4, 7, 8, 9, 1, 5, 5, 4, 3, 2, 1, 2], "num2": [3, 2, 1, 7, 8, 4, 5, 6, 2, 7, 4, 1, 8, 4, 7], "num3": [4, 5, 2, 8, 9, 1, 6, 4, 5, 3, 1, 3, 4, 4, 1], "type": "DISTRACTOR", "conditions": [24, 800, "a", 24000], "trial": 2, "trial_type": "math-distractor", "trial_index": 77, "time_elapsed": 4434606, "internal_node_id": "0.0-59.0"}}, {"uniqueid": "MTK0500:3VFJCI1K406PR2GWHD7M1J88G7WGR5", "current_trial": 78, "dateTime": 1510969163967, "trialdata": {"rt": -1, "stimulus": "<p id=\"stim\">10</p>", "key_press": -1, "trial_type": "single-stim", "trial_index": 78, "time_elapsed": 4437692, "internal_node_id": "0.0-60.0-0.0"}}, {"uniqueid": "MTK0500:3VFJCI1K406PR2GWHD7M1J88G7WGR5", "current_trial": 79, "dateTime": 1510969165030, "trialdata": {"rt": -1, "stimulus": "<p id=\"stim\">9</p>", "key_press": -1, "trial_type": "single-stim", "trial_index": 79, "time_elapsed": 4438755, "internal_node_id": "0.0-60.0-1.0"}}, {"uniqueid": "MTK0500:3VFJCI1K406PR2GWHD7M1J88G7WGR5", "current_trial": 80, "dateTime": 1510969166033, "trialdata": {"rt": -1, "stimulus": "<p id=\"stim\">8</p>", "key_press": -1, "trial_type": "single-stim", "trial_index": 80, "time_elapsed": 4439757, "internal_node_id": "0.0-60.0-2.0"}}, {"uniqueid": "MTK0500:3VFJCI1K406PR2GWHD7M1J88G7WGR5", "current_trial": 81, "dateTime": 1510969167167, "trialdata": {"rt": -1, "stimulus": "<p id=\"stim\">7</p>", "key_press": -1, "trial_type": "single-stim", "trial_index": 81, "time_elapsed": 4440892, "internal_node_id": "0.0-60.0-3.0"}}, {"uniqueid": "MTK0500:3VFJCI1K406PR2GWHD7M1J88G7WGR5", "current_trial": 82, "dateTime": 1510969168233, "trialdata": {"rt": -1, "stimulus": "<p id=\"stim\">6</p>", "key_press": -1, "trial_type": "single-stim", "trial_index": 82, "time_elapsed": 4441958, "internal_node_id": "0.0-60.0-4.0"}}, {"uniqueid": "MTK0500:3VFJCI1K406PR2GWHD7M1J88G7WGR5", "current_trial": 83, "dateTime": 1510969169297, "trialdata": {"rt": -1, "stimulus": "<p id=\"stim\">5</p>", "key_press": -1, "trial_type": "single-stim", "trial_index": 83, "time_elapsed": 4443018, "internal_node_id": "0.0-60.0-5.0"}}, {"uniqueid": "MTK0500:3VFJCI1K406PR2GWHD7M1J88G7WGR5", "current_trial": 84, "dateTime": 1510969170310, "trialdata": {"rt": -1, "stimulus": "<p id=\"stim\">4</p>", "key_press": -1, "trial_type": "single-stim", "trial_index": 84, "time_elapsed": 4444034, "internal_node_id": "0.0-60.0-6.0"}}, {"uniqueid": "MTK0500:3VFJCI1K406PR2GWHD7M1J88G7WGR5", "current_trial": 85, "dateTime": 1510969171341, "trialdata": {"rt": -1, "stimulus": "<p id=\"stim\">3</p>", "key_press": -1, "trial_type": "single-stim", "trial_index": 85, "time_elapsed": 4445065, "internal_node_id": "0.0-60.0-7.0"}}, {"uniqueid": "MTK0500:3VFJCI1K406PR2GWHD7M1J88G7WGR5", "current_trial": 86, "dateTime": 1510969172366, "trialdata": {"rt": -1, "stimulus": "<p id=\"stim\">2</p>", "key_press": -1, "trial_type": "single-stim", "trial_index": 86, "time_elapsed": 4446091, "internal_node_id": "0.0-60.0-8.0"}}, {"uniqueid": "MTK0500:3VFJCI1K406PR2GWHD7M1J88G7WGR5", "current_trial": 87, "dateTime": 1510969173370, "trialdata": {"rt": -1, "stimulus": "<p id=\"stim\">1</p>", "key_press": -1, "trial_type": "single-stim", "trial_index": 87, "time_elapsed": 4447094, "internal_node_id": "0.0-60.0-9.0"}}, {"uniqueid": "MTK0500:3VFJCI1K406PR2GWHD7M1J88G7WGR5", "current_trial": 88, "dateTime": 1510969174871, "trialdata": {"rt": -1, "stimulus": "<p id=\"stim\">+</p>", "key_press": -1, "type": "FIXATION", "trial_type": "single-stim", "trial_index": 88, "time_elapsed": 4448596, "internal_node_id": "0.0-61.0-0.0"}}, {"uniqueid": "MTK0500:3VFJCI1K406PR2GWHD7M1J88G7WGR5", "current_trial": 89, "dateTime": 1510969176782, "trialdata": {"rt": -1000, "stimulus": "/static/audio/wordpool/CASHIER.wav", "key_press": -1, "type": "PRES_AUD", "word": "cashier", "wordID": 253, "conditions": [24, 800, "a", 24000], "trial": 2, "serialpos": 0, "trial_type": "single-audio", "trial_index": 89, "time_elapsed": 4450507, "internal_node_id": "0.0-62.0"}}, {"uniqueid": "MTK0500:3VFJCI1K406PR2GWHD7M1J88G7WGR5", "current_trial": 90, "dateTime": 1510969178527, "trialdata": {"rt": -1000, "stimulus": "/static/audio/wordpool/ROBBER.wav", "key_press": -1, "type": "PRES_AUD", "word": "robber", "wordID": 1196, "conditions": [24, 800, "a", 24000], "trial": 2, "serialpos": 1, "trial_type": "single-audio", "trial_index": 90, "time_elapsed": 4452251, "internal_node_id": "0.0-63.0"}}, {"uniqueid": "MTK0500:3VFJCI1K406PR2GWHD7M1J88G7WGR5", "current_trial": 91, "dateTime": 1510969180183, "trialdata": {"rt": -1000, "stimulus": "/static/audio/wordpool/FLESH.wav", "key_press": -1, "type": "PRES_AUD", "word": "flesh", "wordID": 578, "conditions": [24, 800, "a", 24000], "trial": 2, "serialpos": 2, "trial_type": "single-audio", "trial_index": 91, "time_elapsed": 4453907, "internal_node_id": "0.0-64.0"}}, {"uniqueid": "MTK0500:3VFJCI1K406PR2GWHD7M1J88G7WGR5", "current_trial": 92, "dateTime": 1510969181848, "trialdata": {"rt": -1000, "stimulus": "/static/audio/wordpool/NIGHTGOWN.wav", "key_press": -1, "type": "PRES_AUD", "word": "nightgown", "wordID": 952, "conditions": [24, 800, "a", 24000], "trial": 2, "serialpos": 3, "trial_type": "single-audio", "trial_index": 92, "time_elapsed": 4455573, "internal_node_id": "0.0-65.0"}}, {"uniqueid": "MTK0500:3VFJCI1K406PR2GWHD7M1J88G7WGR5", "current_trial": 93, "dateTime": 1510969183806, "trialdata": {"rt": -1000, "stimulus": "/static/audio/wordpool/CAPTIVE.wav", "key_press": -1, "type": "PRES_AUD", "word": "captive", "wordID": 239, "conditions": [24, 800, "a", 24000], "trial": 2, "serialpos": 4, "trial_type": "single-audio", "trial_index": 93, "time_elapsed": 4457531, "internal_node_id": "0.0-66.0"}}, {"uniqueid": "MTK0500:3VFJCI1K406PR2GWHD7M1J88G7WGR5", "current_trial": 94, "dateTime": 1510969185497, "trialdata": {"rt": -1000, "stimulus": "/static/audio/wordpool/MUFFIN.wav", "key_press": -1, "type": "PRES_AUD", "word": "muffin", "wordID": 928, "conditions": [24, 800, "a", 24000], "trial": 2, "serialpos": 5, "trial_type": "single-audio", "trial_index": 94, "time_elapsed": 4459222, "internal_node_id": "0.0-67.0"}}, {"uniqueid": "MTK0500:3VFJCI1K406PR2GWHD7M1J88G7WGR5", "current_trial": 95, "dateTime": 1510969187189, "trialdata": {"rt": -1000, "stimulus": "/static/audio/wordpool/SALT.wav", "key_press": -1, "type": "PRES_AUD", "word": "salt", "wordID": 1228, "conditions": [24, 800, "a", 24000], "trial": 2, "serialpos": 6, "trial_type": "single-audio", "trial_index": 95, "time_elapsed": 4460914, "internal_node_id": "0.0-68.0"}}, {"uniqueid": "MTK0500:3VFJCI1K406PR2GWHD7M1J88G7WGR5", "current_trial": 96, "dateTime": 1510969189078, "trialdata": {"rt": -1000, "stimulus": "/static/audio/wordpool/PIZZA.wav", "key_press": -1, "type": "PRES_AUD", "word": "pizza", "wordID": 1078, "conditions": [24, 800, "a", 24000], "trial": 2, "serialpos": 7, "trial_type": "single-audio", "trial_index": 96, "time_elapsed": 4462803, "internal_node_id": "0.0-69.0"}}, {"uniqueid": "MTK0500:3VFJCI1K406PR2GWHD7M1J88G7WGR5", "current_trial": 97, "dateTime": 1510969190756, "trialdata": {"rt": -1000, "stimulus": "/static/audio/wordpool/PARSLEY.wav", "key_press": -1, "type": "PRES_AUD", "word": "parsley", "wordID": 1015, "conditions": [24, 800, "a", 24000], "trial": 2, "serialpos": 8, "trial_type": "single-audio", "trial_index": 97, "time_elapsed": 4464480, "internal_node_id": "0.0-70.0"}}, {"uniqueid": "MTK0500:3VFJCI1K406PR2GWHD7M1J88G7WGR5", "current_trial": 98, "dateTime": 1510969192751, "trialdata": {"rt": -1000, "stimulus": "/static/audio/wordpool/LAPEL.wav", "key_press": -1, "type": "PRES_AUD", "word": "lapel", "wordID": 799, "conditions": [24, 800, "a", 24000], "trial": 2, "serialpos": 9, "trial_type": "single-audio", "trial_index": 98, "time_elapsed": 4466476, "internal_node_id": "0.0-71.0"}}, {"uniqueid": "MTK0500:3VFJCI1K406PR2GWHD7M1J88G7WGR5", "current_trial": 99, "dateTime": 1510969194729, "trialdata": {"rt": -1000, "stimulus": "/static/audio/wordpool/DOUGHNUT.wav", "key_press": -1, "type": "PRES_AUD", "word": "doughnut", "wordID": 489, "conditions": [24, 800, "a", 24000], "trial": 2, "serialpos": 10, "trial_type": "single-audio", "trial_index": 99, "time_elapsed": 4468454, "internal_node_id": "0.0-72.0"}}, {"uniqueid": "MTK0500:3VFJCI1K406PR2GWHD7M1J88G7WGR5", "current_trial": 100, "dateTime": 1510969196777, "trialdata": {"rt": -1000, "stimulus": "/static/audio/wordpool/STONE.wav", "key_press": -1, "type": "PRES_AUD", "word": "stone", "wordID": 1384, "conditions": [24, 800, "a", 24000], "trial": 2, "serialpos": 11, "trial_type": "single-audio", "trial_index": 100, "time_elapsed": 4470501, "internal_node_id": "0.0-73.0"}}, {"uniqueid": "MTK0500:3VFJCI1K406PR2GWHD7M1J88G7WGR5", "current_trial": 101, "dateTime": 1510969198670, "trialdata": {"rt": -1000, "stimulus": "/static/audio/wordpool/WORKER.wav", "key_press": -1, "type": "PRES_AUD", "word": "worker", "wordID": 1620, "conditions": [24, 800, "a", 24000], "trial": 2, "serialpos": 12, "trial_type": "single-audio", "trial_index": 101, "time_elapsed": 4472395, "internal_node_id": "0.0-74.0"}}, {"uniqueid": "MTK0500:3VFJCI1K406PR2GWHD7M1J88G7WGR5", "current_trial": 102, "dateTime": 1510969200646, "trialdata": {"rt": -1000, "stimulus": "/static/audio/wordpool/CREATURE.wav", "key_press": -1, "type": "PRES_AUD", "word": "creature", "wordID": 402, "conditions": [24, 800, "a", 24000], "trial": 2, "serialpos": 13, "trial_type": "single-audio", "trial_index": 102, "time_elapsed": 4474371, "internal_node_id": "0.0-75.0"}}, {"uniqueid": "MTK0500:3VFJCI1K406PR2GWHD7M1J88G7WGR5", "current_trial": 103, "dateTime": 1510969202326, "trialdata": {"rt": -1000, "stimulus": "/static/audio/wordpool/FOX.wav", "key_press": -1, "type": "PRES_AUD", "word": "fox", "wordID": 597, "conditions": [24, 800, "a", 24000], "trial": 2, "serialpos": 14, "trial_type": "single-audio", "trial_index": 103, "time_elapsed": 4476051, "internal_node_id": "0.0-76.0"}}, {"uniqueid": "MTK0500:3VFJCI1K406PR2GWHD7M1J88G7WGR5", "current_trial": 104, "dateTime": 1510969204028, "trialdata": {"rt": -1000, "stimulus": "/static/audio/wordpool/BINDER.wav", "key_press": -1, "type": "PRES_AUD", "word": "binder", "wordID": 126, "conditions": [24, 800, "a", 24000], "trial": 2, "serialpos": 15, "trial_type": "single-audio", "trial_index": 104, "time_elapsed": 4477753, "internal_node_id": "0.0-77.0"}}, {"uniqueid": "MTK0500:3VFJCI1K406PR2GWHD7M1J88G7WGR5", "current_trial": 105, "dateTime": 1510969205902, "trialdata": {"rt": -1000, "stimulus": "/static/audio/wordpool/PADDING.wav", "key_press": -1, "type": "PRES_AUD", "word": "padding", "wordID": 998, "conditions": [24, 800, "a", 24000], "trial": 2, "serialpos": 16, "trial_type": "single-audio", "trial_index": 105, "time_elapsed": 4479626, "internal_node_id": "0.0-78.0"}}, {"uniqueid": "MTK0500:3VFJCI1K406PR2GWHD7M1J88G7WGR5", "current_trial": 106, "dateTime": 1510969207603, "trialdata": {"rt": -1000, "stimulus": "/static/audio/wordpool/FLOWER.wav", "key_press": -1, "type": "PRES_AUD", "word": "flower", "wordID": 583, "conditions": [24, 800, "a", 24000], "trial": 2, "serialpos": 17, "trial_type": "single-audio", "trial_index": 106, "time_elapsed": 4481327, "internal_node_id": "0.0-79.0"}}, {"uniqueid": "MTK0500:3VFJCI1K406PR2GWHD7M1J88G7WGR5", "current_trial": 107, "dateTime": 1510969209443, "trialdata": {"rt": -1000, "stimulus": "/static/audio/wordpool/GARDEN.wav", "key_press": -1, "type": "PRES_AUD", "word": "garden", "wordID": 622, "conditions": [24, 800, "a", 24000], "trial": 2, "serialpos": 18, "trial_type": "single-audio", "trial_index": 107, "time_elapsed": 4483168, "internal_node_id": "0.0-80.0"}}, {"uniqueid": "MTK0500:3VFJCI1K406PR2GWHD7M1J88G7WGR5", "current_trial": 108, "dateTime": 1510969211439, "trialdata": {"rt": -1000, "stimulus": "/static/audio/wordpool/CYCLONE.wav", "key_press": -1, "type": "PRES_AUD", "word": "cyclone", "wordID": 430, "conditions": [24, 800, "a", 24000], "trial": 2, "serialpos": 19, "trial_type": "single-audio", "trial_index": 108, "time_elapsed": 4485164, "internal_node_id": "0.0-81.0"}}, {"uniqueid": "MTK0500:3VFJCI1K406PR2GWHD7M1J88G7WGR5", "current_trial": 109, "dateTime": 1510969213413, "trialdata": {"rt": -1000, "stimulus": "/static/audio/wordpool/EXPERT.wav", "key_press": -1, "type": "PRES_AUD", "word": "expert", "wordID": 542, "conditions": [24, 800, "a", 24000], "trial": 2, "serialpos": 20, "trial_type": "single-audio", "trial_index": 109, "time_elapsed": 4487137, "internal_node_id": "0.0-82.0"}}, {"uniqueid": "MTK0500:3VFJCI1K406PR2GWHD7M1J88G7WGR5", "current_trial": 110, "dateTime": 1510969215071, "trialdata": {"rt": -1000, "stimulus": "/static/audio/wordpool/OUTLAW.wav", "key_press": -1, "type": "PRES_AUD", "word": "outlaw", "wordID": 988, "conditions": [24, 800, "a", 24000], "trial": 2, "serialpos": 21, "trial_type": "single-audio", "trial_index": 110, "time_elapsed": 4488796, "internal_node_id": "0.0-83.0"}}, {"uniqueid": "MTK0500:3VFJCI1K406PR2GWHD7M1J88G7WGR5", "current_trial": 111, "dateTime": 1510969216896, "trialdata": {"rt": -1000, "stimulus": "/static/audio/wordpool/ICEBERG.wav", "key_press": -1, "type": "PRES_AUD", "word": "iceberg", "wordID": 730, "conditions": [24, 800, "a", 24000], "trial": 2, "serialpos": 22, "trial_type": "single-audio", "trial_index": 111, "time_elapsed": 4490618, "internal_node_id": "0.0-84.0"}}, {"uniqueid": "MTK0500:3VFJCI1K406PR2GWHD7M1J88G7WGR5", "current_trial": 112, "dateTime": 1510969218541, "trialdata": {"rt": -1000, "stimulus": "/static/audio/wordpool/ROOSTER.wav", "key_press": -1, "type": "PRES_AUD", "word": "rooster", "wordID": 1208, "conditions": [24, 800, "a", 24000], "trial": 2, "serialpos": 23, "trial_type": "single-audio", "trial_index": 112, "time_elapsed": 4492265, "internal_node_id": "0.0-85.0"}}, {"uniqueid": "MTK0500:3VFJCI1K406PR2GWHD7M1J88G7WGR5", "current_trial": 113, "dateTime": 1510969219852, "trialdata": {"rt": -1, "stimulus": "", "key_press": -1, "type": "PRE_RECALL_DELAY", "trial_type": "single-stim", "trial_index": 113, "time_elapsed": 4493576, "internal_node_id": "0.0-86.0-0.0"}}, {"uniqueid": "MTK0500:3VFJCI1K406PR2GWHD7M1J88G7WGR5", "current_trial": 114, "dateTime": 1510969220353, "trialdata": {"rt": -1000, "stimulus": "/static/audio/400Hz.wav", "key_press": -1, "type": "PRE_RECALL_ALERT", "trial_type": "single-audio", "trial_index": 114, "time_elapsed": 4494077, "internal_node_id": "0.0-87.0"}}, {"uniqueid": "MTK0500:3VFJCI1K406PR2GWHD7M1J88G7WGR5", "current_trial": 115, "dateTime": 1510969280402, "trialdata": {"rt": [4563, 6866, 8146, 12729, 13449, 15376, 17552, 19280, 21474], "recwords": ["rooster", "iceberg", "expert", "stone", "salt", "captive", "nightgown", "salt", "flash"], "type": "FREE_RECALL", "conditions": [24, 800, "a", 24000], "trial": 2, "trial_type": "free-recall", "trial_index": 115, "time_elapsed": 4554118, "internal_node_id": "0.0-88.0-0.0"}}, {"uniqueid": "MTK0500:3VFJCI1K406PR2GWHD7M1J88G7WGR5", "current_trial": 116, "dateTime": 1510969286027, "trialdata": {"rt": 3548, "key_press": 13, "type": "INSTRUCTIONS", "trial_type": "text", "trial_index": 116, "time_elapsed": 4559751, "internal_node_id": "0.0-89.0"}}, {"uniqueid": "MTK0500:3VFJCI1K406PR2GWHD7M1J88G7WGR5", "current_trial": 117, "dateTime": 1510969312207, "trialdata": {"rt": [1815, 3089, 4502, 5718, 8986, 10453, 11901, 13388, 14756, 16439, 18510, 20323, 21818, 23407], "responses": ["12", "10", "10", "9", "13", "17", "17", "17", "18", "18", "13", "8", "13", "19"], "num1": [1, 5, 2, 2, 3, 8, 6, 8, 9, 9, 5, 1, 2, 8, 4], "num2": [2, 3, 4, 6, 8, 2, 5, 3, 2, 1, 4, 2, 9, 4, 6], "num3": [9, 2, 4, 1, 2, 7, 6, 6, 8, 8, 4, 5, 2, 7, 9], "type": "DISTRACTOR", "conditions": [12, 800, "v", 24000], "trial": 3, "trial_type": "math-distractor", "trial_index": 117, "time_elapsed": 4585932, "internal_node_id": "0.0-90.0"}}, {"uniqueid": "MTK0500:3VFJCI1K406PR2GWHD7M1J88G7WGR5", "current_trial": 118, "dateTime": 1510969315212, "trialdata": {"rt": -1, "stimulus": "<p id=\"stim\">10</p>", "key_press": -1, "trial_type": "single-stim", "trial_index": 118, "time_elapsed": 4588936, "internal_node_id": "0.0-91.0-0.0"}}, {"uniqueid": "MTK0500:3VFJCI1K406PR2GWHD7M1J88G7WGR5", "current_trial": 119, "dateTime": 1510969316238, "trialdata": {"rt": -1, "stimulus": "<p id=\"stim\">9</p>", "key_press": -1, "trial_type": "single-stim", "trial_index": 119, "time_elapsed": 4589963, "internal_node_id": "0.0-91.0-1.0"}}, {"uniqueid": "MTK0500:3VFJCI1K406PR2GWHD7M1J88G7WGR5", "current_trial": 120, "dateTime": 1510969317308, "trialdata": {"rt": -1, "stimulus": "<p id=\"stim\">8</p>", "key_press": -1, "trial_type": "single-stim", "trial_index": 120, "time_elapsed": 4591033, "internal_node_id": "0.0-91.0-2.0"}}, {"uniqueid": "MTK0500:3VFJCI1K406PR2GWHD7M1J88G7WGR5", "current_trial": 121, "dateTime": 1510969318371, "trialdata": {"rt": -1, "stimulus": "<p id=\"stim\">7</p>", "key_press": -1, "trial_type": "single-stim", "trial_index": 121, "time_elapsed": 4592096, "internal_node_id": "0.0-91.0-3.0"}}, {"uniqueid": "MTK0500:3VFJCI1K406PR2GWHD7M1J88G7WGR5", "current_trial": 122, "dateTime": 1510969319515, "trialdata": {"rt": -1, "stimulus": "<p id=\"stim\">6</p>", "key_press": -1, "trial_type": "single-stim", "trial_index": 122, "time_elapsed": 4593239, "internal_node_id": "0.0-91.0-4.0"}}, {"uniqueid": "MTK0500:3VFJCI1K406PR2GWHD7M1J88G7WGR5", "current_trial": 123, "dateTime": 1510969320709, "trialdata": {"rt": -1, "stimulus": "<p id=\"stim\">5</p>", "key_press": -1, "trial_type": "single-stim", "trial_index": 123, "time_elapsed": 4594434, "internal_node_id": "0.0-91.0-5.0"}}, {"uniqueid": "MTK0500:3VFJCI1K406PR2GWHD7M1J88G7WGR5", "current_trial": 124, "dateTime": 1510969321782, "trialdata": {"rt": -1, "stimulus": "<p id=\"stim\">4</p>", "key_press": -1, "trial_type": "single-stim", "trial_index": 124, "time_elapsed": 4595507, "internal_node_id": "0.0-91.0-6.0"}}, {"uniqueid": "MTK0500:3VFJCI1K406PR2GWHD7M1J88G7WGR5", "current_trial": 125, "dateTime": 1510969322919, "trialdata": {"rt": -1, "stimulus": "<p id=\"stim\">3</p>", "key_press": -1, "trial_type": "single-stim", "trial_index": 125, "time_elapsed": 4596644, "internal_node_id": "0.0-91.0-7.0"}}, {"uniqueid": "MTK0500:3VFJCI1K406PR2GWHD7M1J88G7WGR5", "current_trial": 126, "dateTime": 1510969324074, "trialdata": {"rt": -1, "stimulus": "<p id=\"stim\">2</p>", "key_press": -1, "trial_type": "single-stim", "trial_index": 126, "time_elapsed": 4597799, "internal_node_id": "0.0-91.0-8.0"}}, {"uniqueid": "MTK0500:3VFJCI1K406PR2GWHD7M1J88G7WGR5", "current_trial": 127, "dateTime": 1510969325155, "trialdata": {"rt": -1, "stimulus": "<p id=\"stim\">1</p>", "key_press": -1, "trial_type": "single-stim", "trial_index": 127, "time_elapsed": 4598880, "internal_node_id": "0.0-91.0-9.0"}}, {"uniqueid": "MTK0500:3VFJCI1K406PR2GWHD7M1J88G7WGR5", "current_trial": 128, "dateTime": 1510969326686, "trialdata": {"rt": -1, "stimulus": "<p id=\"stim\">+</p>", "key_press": -1, "type": "FIXATION", "trial_type": "single-stim", "trial_index": 128, "time_elapsed": 4600411, "internal_node_id": "0.0-92.0-0.0"}}, {"uniqueid": "MTK0500:3VFJCI1K406PR2GWHD7M1J88G7WGR5", "current_trial": 129, "dateTime": 1510969327643, "trialdata": {"rt": -1, "stimulus": "<p id=\"stim\">PICNIC</p>", "key_press": -1, "type": "PRES_VIS", "word": "picnic", "wordID": 1059, "conditions": [12, 800, "v", 24000], "trial": 3, "serialpos": 0, "trial_type": "single-stim", "trial_index": 129, "time_elapsed": 4601368, "internal_node_id": "0.0-93.0"}}, {"uniqueid": "MTK0500:3VFJCI1K406PR2GWHD7M1J88G7WGR5", "current_trial": 130, "dateTime": 1510969329475, "trialdata": {"rt": -1, "stimulus": "<p id=\"stim\">KIDNEY</p>", "key_press": -1, "type": "PRES_VIS", "word": "kidney", "wordID": 775, "conditions": [12, 800, "v", 24000], "trial": 3, "serialpos": 1, "trial_type": "single-stim", "trial_index": 130, "time_elapsed": 4603199, "internal_node_id": "0.0-94.0"}}, {"uniqueid": "MTK0500:3VFJCI1K406PR2GWHD7M1J88G7WGR5", "current_trial": 131, "dateTime": 1510969331174, "trialdata": {"rt": -1, "stimulus": "<p id=\"stim\">DRESS</p>", "key_press": -1, "type": "PRES_VIS", "word": "dress", "wordID": 494, "conditions": [12, 800, "v", 24000], "trial": 3, "serialpos": 2, "trial_type": "single-stim", "trial_index": 131, "time_elapsed": 4604899, "internal_node_id": "0.0-95.0"}}, {"uniqueid": "MTK0500:3VFJCI1K406PR2GWHD7M1J88G7WGR5", "current_trial": 132, "dateTime": 1510969332964, "trialdata": {"rt": -1, "stimulus": "<p id=\"stim\">STUDENT</p>", "key_press": -1, "type": "PRES_VIS", "word": "student", "wordID": 1394, "conditions": [12, 800, "v", 24000], "trial": 3, "serialpos": 3, "trial_type": "single-stim", "trial_index": 132, "time_elapsed": 4606689, "internal_node_id": "0.0-96.0"}}, {"uniqueid": "MTK0500:3VFJCI1K406PR2GWHD7M1J88G7WGR5", "current_trial": 133, "dateTime": 1510969334913, "trialdata": {"rt": -1, "stimulus": "<p id=\"stim\">COLLEGE</p>", "key_press": -1, "type": "PRES_VIS", "word": "college", "wordID": 345, "conditions": [12, 800, "v", 24000], "trial": 3, "serialpos": 4, "trial_type": "single-stim", "trial_index": 133, "time_elapsed": 4608638, "internal_node_id": "0.0-97.0"}}, {"uniqueid": "MTK0500:3VFJCI1K406PR2GWHD7M1J88G7WGR5", "current_trial": 134, "dateTime": 1510969336809, "trialdata": {"rt": -1, "stimulus": "<p id=\"stim\">WARDROBE</p>", "key_press": -1, "type": "PRES_VIS", "word": "wardrobe", "wordID": 1586, "conditions": [12, 800, "v", 24000], "trial": 3, "serialpos": 5, "trial_type": "single-stim", "trial_index": 134, "time_elapsed": 4610531, "internal_node_id": "0.0-98.0"}}, {"uniqueid": "MTK0500:3VFJCI1K406PR2GWHD7M1J88G7WGR5", "current_trial": 135, "dateTime": 1510969338562, "trialdata": {"rt": -1, "stimulus": "<p id=\"stim\">TILE</p>", "key_press": -1, "type": "PRES_VIS", "word": "tile", "wordID": 1467, "conditions": [12, 800, "v", 24000], "trial": 3, "serialpos": 6, "trial_type": "single-stim", "trial_index": 135, "time_elapsed": 4612287, "internal_node_id": "0.0-99.0"}}, {"uniqueid": "MTK0500:3VFJCI1K406PR2GWHD7M1J88G7WGR5", "current_trial": 136, "dateTime": 1510969340404, "trialdata": {"rt": -1, "stimulus": "<p id=\"stim\">COCOON</p>", "key_press": -1, "type": "PRES_VIS", "word": "cocoon", "wordID": 338, "conditions": [12, 800, "v", 24000], "trial": 3, "serialpos": 7, "trial_type": "single-stim", "trial_index": 136, "time_elapsed": 4614129, "internal_node_id": "0.0-100.0"}}, {"uniqueid": "MTK0500:3VFJCI1K406PR2GWHD7M1J88G7WGR5", "current_trial": 137, "dateTime": 1510969342371, "trialdata": {"rt": -1, "stimulus": "<p id=\"stim\">WRENCH</p>", "key_press": -1, "type": "PRES_VIS", "word": "wrench", "wordID": 1624, "conditions": [12, 800, "v", 24000], "trial": 3, "serialpos": 8, "trial_type": "single-stim", "trial_index": 137, "time_elapsed": 4616095, "internal_node_id": "0.0-101.0"}}, {"uniqueid": "MTK0500:3VFJCI1K406PR2GWHD7M1J88G7WGR5", "current_trial": 138, "dateTime": 1510969344319, "trialdata": {"rt": -1, "stimulus": "<p id=\"stim\">SADDLE</p>", "key_press": -1, "type": "PRES_VIS", "word": "saddle", "wordID": 1220, "conditions": [12, 800, "v", 24000], "trial": 3, "serialpos": 9, "trial_type": "single-stim", "trial_index": 138, "time_elapsed": 4618044, "internal_node_id": "0.0-102.0"}}, {"uniqueid": "MTK0500:3VFJCI1K406PR2GWHD7M1J88G7WGR5", "current_trial": 139, "dateTime": 1510969346356, "trialdata": {"rt": -1, "stimulus": "<p id=\"stim\">FUNGUS</p>", "key_press": -1, "type": "PRES_VIS", "word": "fungus", "wordID": 613, "conditions": [12, 800, "v", 24000], "trial": 3, "serialpos": 10, "trial_type": "single-stim", "trial_index": 139, "time_elapsed": 4620080, "internal_node_id": "0.0-103.0"}}, {"uniqueid": "MTK0500:3VFJCI1K406PR2GWHD7M1J88G7WGR5", "current_trial": 140, "dateTime": 1510969348461, "trialdata": {"rt": -1, "stimulus": "<p id=\"stim\">CATTLE</p>", "key_press": -1, "type": "PRES_VIS", "word": "cattle", "wordID": 260, "conditions": [12, 800, "v", 24000], "trial": 3, "serialpos": 11, "trial_type": "single-stim", "trial_index": 140, "time_elapsed": 4622186, "internal_node_id": "0.0-104.0"}}, {"uniqueid": "MTK0500:3VFJCI1K406PR2GWHD7M1J88G7WGR5", "current_trial": 141, "dateTime": 1510969350806, "trialdata": {"rt": -1, "stimulus": "", "key_press": -1, "type": "PRE_RECALL_DELAY", "trial_type": "single-stim", "trial_index": 141, "time_elapsed": 4624531, "internal_node_id": "0.0-105.0-0.0"}}, {"uniqueid": "MTK0500:3VFJCI1K406PR2GWHD7M1J88G7WGR5", "current_trial": 142, "dateTime": 1510969351388, "trialdata": {"rt": -1000, "stimulus": "/static/audio/400Hz.wav", "key_press": -1, "type": "PRE_RECALL_ALERT", "trial_type": "single-audio", "trial_index": 142, "time_elapsed": 4625113, "internal_node_id": "0.0-106.0"}}, {"uniqueid": "MTK0500:3VFJCI1K406PR2GWHD7M1J88G7WGR5", "current_trial": 143, "dateTime": 1510969411479, "trialdata": {"rt": [10689, 11860, 17260, 18307, 19193, 22280], "recwords": ["wrench", "coconut", "dress", "kidney", "college", "tile"], "type": "FREE_RECALL", "conditions": [12, 800, "v", 24000], "trial": 3, "trial_type": "free-recall", "trial_index": 143, "time_elapsed": 4685196, "internal_node_id": "0.0-107.0-0.0"}}, {"uniqueid": "MTK0500:3VFJCI1K406PR2GWHD7M1J88G7WGR5", "current_trial": 144, "dateTime": 1510969414971, "trialdata": {"rt": 1456, "key_press": 13, "type": "INSTRUCTIONS", "trial_type": "text", "trial_index": 144, "time_elapsed": 4688696, "internal_node_id": "0.0-108.0"}}, {"uniqueid": "MTK0500:3VFJCI1K406PR2GWHD7M1J88G7WGR5", "current_trial": 145, "dateTime": 1510969441101, "trialdata": {"rt": [1981, 4944, 7520, 12147, 13720, 15333, 16979, 19463, 20976, 22332, 23833], "responses": ["14", "14", "17", "23", "18", "12", "11", "17", "13", "13", "16"], "num1": [3, 4, 4, 7, 8, 1, 2, 6, 6, 3, 7, 6], "num2": [5, 9, 6, 9, 9, 6, 7, 7, 6, 8, 2, 7], "num3": [6, 1, 7, 7, 1, 5, 2, 4, 1, 2, 7, 2], "type": "DISTRACTOR", "conditions": [24, 800, "v", 24000], "trial": 4, "trial_type": "math-distractor", "trial_index": 145, "time_elapsed": 4714826, "internal_node_id": "0.0-109.0"}}, {"uniqueid": "MTK0500:3VFJCI1K406PR2GWHD7M1J88G7WGR5", "current_trial": 146, "dateTime": 1510969444102, "trialdata": {"rt": -1, "stimulus": "<p id=\"stim\">10</p>", "key_press": -1, "trial_type": "single-stim", "trial_index": 146, "time_elapsed": 4717827, "internal_node_id": "0.0-110.0-0.0"}}, {"uniqueid": "MTK0500:3VFJCI1K406PR2GWHD7M1J88G7WGR5", "current_trial": 147, "dateTime": 1510969445105, "trialdata": {"rt": -1, "stimulus": "<p id=\"stim\">9</p>", "key_press": -1, "trial_type": "single-stim", "trial_index": 147, "time_elapsed": 4718830, "internal_node_id": "0.0-110.0-1.0"}}, {"uniqueid": "MTK0500:3VFJCI1K406PR2GWHD7M1J88G7WGR5", "current_trial": 148, "dateTime": 1510969446108, "trialdata": {"rt": -1, "stimulus": "<p id=\"stim\">8</p>", "key_press": -1, "trial_type": "single-stim", "trial_index": 148, "time_elapsed": 4719832, "internal_node_id": "0.0-110.0-2.0"}}, {"uniqueid": "MTK0500:3VFJCI1K406PR2GWHD7M1J88G7WGR5", "current_trial": 149, "dateTime": 1510969447122, "trialdata": {"rt": -1, "stimulus": "<p id=\"stim\">7</p>", "key_press": -1, "trial_type": "single-stim", "trial_index": 149, "time_elapsed": 4720847, "internal_node_id": "0.0-110.0-3.0"}}, {"uniqueid": "MTK0500:3VFJCI1K406PR2GWHD7M1J88G7WGR5", "current_trial": 150, "dateTime": 1510969448147, "trialdata": {"rt": -1, "stimulus": "<p id=\"stim\">6</p>", "key_press": -1, "trial_type": "single-stim", "trial_index": 150, "time_elapsed": 4721872, "internal_node_id": "0.0-110.0-4.0"}}, {"uniqueid": "MTK0500:3VFJCI1K406PR2GWHD7M1J88G7WGR5", "current_trial": 151, "dateTime": 1510969449151, "trialdata": {"rt": -1, "stimulus": "<p id=\"stim\">5</p>", "key_press": -1, "trial_type": "single-stim", "trial_index": 151, "time_elapsed": 4722875, "internal_node_id": "0.0-110.0-5.0"}}, {"uniqueid": "MTK0500:3VFJCI1K406PR2GWHD7M1J88G7WGR5", "current_trial": 152, "dateTime": 1510969450195, "trialdata": {"rt": -1, "stimulus": "<p id=\"stim\">4</p>", "key_press": -1, "trial_type": "single-stim", "trial_index": 152, "time_elapsed": 4723919, "internal_node_id": "0.0-110.0-6.0"}}, {"uniqueid": "MTK0500:3VFJCI1K406PR2GWHD7M1J88G7WGR5", "current_trial": 153, "dateTime": 1510969451203, "trialdata": {"rt": -1, "stimulus": "<p id=\"stim\">3</p>", "key_press": -1, "trial_type": "single-stim", "trial_index": 153, "time_elapsed": 4724928, "internal_node_id": "0.0-110.0-7.0"}}, {"uniqueid": "MTK0500:3VFJCI1K406PR2GWHD7M1J88G7WGR5", "current_trial": 154, "dateTime": 1510969452273, "trialdata": {"rt": -1, "stimulus": "<p id=\"stim\">2</p>", "key_press": -1, "trial_type": "single-stim", "trial_index": 154, "time_elapsed": 4725997, "internal_node_id": "0.0-110.0-8.0"}}, {"uniqueid": "MTK0500:3VFJCI1K406PR2GWHD7M1J88G7WGR5", "current_trial": 155, "dateTime": 1510969453332, "trialdata": {"rt": -1, "stimulus": "<p id=\"stim\">1</p>", "key_press": -1, "trial_type": "single-stim", "trial_index": 155, "time_elapsed": 4727057, "internal_node_id": "0.0-110.0-9.0"}}, {"uniqueid": "MTK0500:3VFJCI1K406PR2GWHD7M1J88G7WGR5", "current_trial": 156, "dateTime": 1510969454843, "trialdata": {"rt": -1, "stimulus": "<p id=\"stim\">+</p>", "key_press": -1, "type": "FIXATION", "trial_type": "single-stim", "trial_index": 156, "time_elapsed": 4728568, "internal_node_id": "0.0-111.0-0.0"}}, {"uniqueid": "MTK0500:3VFJCI1K406PR2GWHD7M1J88G7WGR5", "current_trial": 157, "dateTime": 1510969455645, "trialdata": {"rt": -1, "stimulus": "<p id=\"stim\">GLOBE</p>", "key_press": -1, "type": "PRES_VIS", "word": "globe", "wordID": 640, "conditions": [24, 800, "v", 24000], "trial": 4, "serialpos": 0, "trial_type": "single-stim", "trial_index": 157, "time_elapsed": 4729370, "internal_node_id": "0.0-112.0"}}, {"uniqueid": "MTK0500:3VFJCI1K406PR2GWHD7M1J88G7WGR5", "current_trial": 158, "dateTime": 1510969457397, "trialdata": {"rt": -1, "stimulus": "<p id=\"stim\">BACON</p>", "key_press": -1, "type": "PRES_VIS", "word": "bacon", "wordID": 66, "conditions": [24, 800, "v", 24000], "trial": 4, "serialpos": 1, "trial_type": "single-stim", "trial_index": 158, "time_elapsed": 4731122, "internal_node_id": "0.0-113.0"}}, {"uniqueid": "MTK0500:3VFJCI1K406PR2GWHD7M1J88G7WGR5", "current_trial": 159, "dateTime": 1510969459349, "trialdata": {"rt": -1, "stimulus": "<p id=\"stim\">COTTAGE</p>", "key_press": -1, "type": "PRES_VIS", "word": "cottage", "wordID": 383, "conditions": [24, 800, "v", 24000], "trial": 4, "serialpos": 2, "trial_type": "single-stim", "trial_index": 159, "time_elapsed": 4733074, "internal_node_id": "0.0-114.0"}}, {"uniqueid": "MTK0500:3VFJCI1K406PR2GWHD7M1J88G7WGR5", "current_trial": 160, "dateTime": 1510969461187, "trialdata": {"rt": -1, "stimulus": "<p id=\"stim\">PUPPY</p>", "key_press": -1, "type": "PRES_VIS", "word": "puppy", "wordID": 1143, "conditions": [24, 800, "v", 24000], "trial": 4, "serialpos": 3, "trial_type": "single-stim", "trial_index": 160, "time_elapsed": 4734912, "internal_node_id": "0.0-115.0"}}, {"uniqueid": "MTK0500:3VFJCI1K406PR2GWHD7M1J88G7WGR5", "current_trial": 161, "dateTime": 1510969463005, "trialdata": {"rt": -1, "stimulus": "<p id=\"stim\">FARMER</p>", "key_press": -1, "type": "PRES_VIS", "word": "farmer", "wordID": 552, "conditions": [24, 800, "v", 24000], "trial": 4, "serialpos": 4, "trial_type": "single-stim", "trial_index": 161, "time_elapsed": 4736725, "internal_node_id": "0.0-116.0"}}, {"uniqueid": "MTK0500:3VFJCI1K406PR2GWHD7M1J88G7WGR5", "current_trial": 162, "dateTime": 1510969464658, "trialdata": {"rt": -1, "stimulus": "<p id=\"stim\">BUGGY</p>", "key_press": -1, "type": "PRES_VIS", "word": "buggy", "wordID": 187, "conditions": [24, 800, "v", 24000], "trial": 4, "serialpos": 5, "trial_type": "single-stim", "trial_index": 162, "time_elapsed": 4738383, "internal_node_id": "0.0-117.0"}}, {"uniqueid": "MTK0500:3VFJCI1K406PR2GWHD7M1J88G7WGR5", "current_trial": 163, "dateTime": 1510969466578, "trialdata": {"rt": -1, "stimulus": "<p id=\"stim\">MARINE</p>", "key_press": -1, "type": "PRES_VIS", "word": "marine", "wordID": 868, "conditions": [24, 800, "v", 24000], "trial": 4, "serialpos": 6, "trial_type": "single-stim", "trial_index": 163, "time_elapsed": 4740303, "internal_node_id": "0.0-118.0"}}, {"uniqueid": "MTK0500:3VFJCI1K406PR2GWHD7M1J88G7WGR5", "current_trial": 164, "dateTime": 1510969468560, "trialdata": {"rt": -1, "stimulus": "<p id=\"stim\">STICKER</p>", "key_press": -1, "type": "PRES_VIS", "word": "sticker", "wordID": 1381, "conditions": [24, 800, "v", 24000], "trial": 4, "serialpos": 7, "trial_type": "single-stim", "trial_index": 164, "time_elapsed": 4742285, "internal_node_id": "0.0-119.0"}}, {"uniqueid": "MTK0500:3VFJCI1K406PR2GWHD7M1J88G7WGR5", "current_trial": 165, "dateTime": 1510969470444, "trialdata": {"rt": -1, "stimulus": "<p id=\"stim\">BADGE</p>", "key_press": -1, "type": "PRES_VIS", "word": "badge", "wordID": 67, "conditions": [24, 800, "v", 24000], "trial": 4, "serialpos": 8, "trial_type": "single-stim", "trial_index": 165, "time_elapsed": 4744169, "internal_node_id": "0.0-120.0"}}, {"uniqueid": "MTK0500:3VFJCI1K406PR2GWHD7M1J88G7WGR5", "current_trial": 166, "dateTime": 1510969472576, "trialdata": {"rt": -1, "stimulus": "<p id=\"stim\">DONKEY</p>", "key_press": -1, "type": "PRES_VIS", "word": "donkey", "wordID": 483, "conditions": [24, 800, "v", 24000], "trial": 4, "serialpos": 9, "trial_type": "single-stim", "trial_index": 166, "time_elapsed": 4746301, "internal_node_id": "0.0-121.0"}}, {"uniqueid": "MTK0500:3VFJCI1K406PR2GWHD7M1J88G7WGR5", "current_trial": 167, "dateTime": 1510969474285, "trialdata": {"rt": -1, "stimulus": "<p id=\"stim\">DOLPHIN</p>", "key_press": -1, "type": "PRES_VIS", "word": "dolphin", "wordID": 482, "conditions": [24, 800, "v", 24000], "trial": 4, "serialpos": 10, "trial_type": "single-stim", "trial_index": 167, "time_elapsed": 4748010, "internal_node_id": "0.0-122.0"}}, {"uniqueid": "MTK0500:3VFJCI1K406PR2GWHD7M1J88G7WGR5", "current_trial": 168, "dateTime": 1510969476053, "trialdata": {"rt": -1, "stimulus": "<p id=\"stim\">BUNNY</p>", "key_press": -1, "type": "PRES_VIS", "word": "bunny", "wordID": 197, "conditions": [24, 800, "v", 24000], "trial": 4, "serialpos": 11, "trial_type": "single-stim", "trial_index": 168, "time_elapsed": 4749777, "internal_node_id": "0.0-123.0"}}, {"uniqueid": "MTK0500:3VFJCI1K406PR2GWHD7M1J88G7WGR5", "current_trial": 169, "dateTime": 1510969478073, "trialdata": {"rt": -1, "stimulus": "<p id=\"stim\">CABBAGE</p>", "key_press": -1, "type": "PRES_VIS", "word": "cabbage", "wordID": 209, "conditions": [24, 800, "v", 24000], "trial": 4, "serialpos": 12, "trial_type": "single-stim", "trial_index": 169, "time_elapsed": 4751798, "internal_node_id": "0.0-124.0"}}, {"uniqueid": "MTK0500:3VFJCI1K406PR2GWHD7M1J88G7WGR5", "current_trial": 170, "dateTime": 1510969479798, "trialdata": {"rt": -1, "stimulus": "<p id=\"stim\">PARROT</p>", "key_press": -1, "type": "PRES_VIS", "word": "parrot", "wordID": 1014, "conditions": [24, 800, "v", 24000], "trial": 4, "serialpos": 13, "trial_type": "single-stim", "trial_index": 170, "time_elapsed": 4753523, "internal_node_id": "0.0-125.0"}}, {"uniqueid": "MTK0500:3VFJCI1K406PR2GWHD7M1J88G7WGR5", "current_trial": 171, "dateTime": 1510969481437, "trialdata": {"rt": -1, "stimulus": "<p id=\"stim\">MATTRESS</p>", "key_press": -1, "type": "PRES_VIS", "word": "mattress", "wordID": 878, "conditions": [24, 800, "v", 24000], "trial": 4, "serialpos": 14, "trial_type": "single-stim", "trial_index": 171, "time_elapsed": 4755162, "internal_node_id": "0.0-126.0"}}, {"uniqueid": "MTK0500:3VFJCI1K406PR2GWHD7M1J88G7WGR5", "current_trial": 172, "dateTime": 1510969483334, "trialdata": {"rt": -1, "stimulus": "<p id=\"stim\">COUCH</p>", "key_press": -1, "type": "PRES_VIS", "word": "couch", "wordID": 385, "conditions": [24, 800, "v", 24000], "trial": 4, "serialpos": 15, "trial_type": "single-stim", "trial_index": 172, "time_elapsed": 4757059, "internal_node_id": "0.0-127.0"}}, {"uniqueid": "MTK0500:3VFJCI1K406PR2GWHD7M1J88G7WGR5", "current_trial": 173, "dateTime": 1510969485250, "trialdata": {"rt": -1, "stimulus": "<p id=\"stim\">OFFICE</p>", "key_press": -1, "type": "PRES_VIS", "word": "office", "wordID": 971, "conditions": [24, 800, "v", 24000], "trial": 4, "serialpos": 16, "trial_type": "single-stim", "trial_index": 173, "time_elapsed": 4758975, "internal_node_id": "0.0-128.0"}}, {"uniqueid": "MTK0500:3VFJCI1K406PR2GWHD7M1J88G7WGR5", "current_trial": 174, "dateTime": 1510969487064, "trialdata": {"rt": -1, "stimulus": "<p id=\"stim\">TROMBONE</p>", "key_press": -1, "type": "PRES_VIS", "word": "trombone", "wordID": 1507, "conditions": [24, 800, "v", 24000], "trial": 4, "serialpos": 17, "trial_type": "single-stim", "trial_index": 174, "time_elapsed": 4760789, "internal_node_id": "0.0-129.0"}}, {"uniqueid": "MTK0500:3VFJCI1K406PR2GWHD7M1J88G7WGR5", "current_trial": 175, "dateTime": 1510969489184, "trialdata": {"rt": -1, "stimulus": "<p id=\"stim\">PERMIT</p>", "key_press": -1, "type": "PRES_VIS", "word": "permit", "wordID": 1050, "conditions": [24, 800, "v", 24000], "trial": 4, "serialpos": 18, "trial_type": "single-stim", "trial_index": 175, "time_elapsed": 4762909, "internal_node_id": "0.0-130.0"}}, {"uniqueid": "MTK0500:3VFJCI1K406PR2GWHD7M1J88G7WGR5", "current_trial": 176, "dateTime": 1510969491144, "trialdata": {"rt": -1, "stimulus": "<p id=\"stim\">TURNIP</p>", "key_press": -1, "type": "PRES_VIS", "word": "turnip", "wordID": 1520, "conditions": [24, 800, "v", 24000], "trial": 4, "serialpos": 19, "trial_type": "single-stim", "trial_index": 176, "time_elapsed": 4764869, "internal_node_id": "0.0-131.0"}}, {"uniqueid": "MTK0500:3VFJCI1K406PR2GWHD7M1J88G7WGR5", "current_trial": 177, "dateTime": 1510969493327, "trialdata": {"rt": -1, "stimulus": "<p id=\"stim\">ANTLER</p>", "key_press": -1, "type": "PRES_VIS", "word": "antler", "wordID": 28, "conditions": [24, 800, "v", 24000], "trial": 4, "serialpos": 20, "trial_type": "single-stim", "trial_index": 177, "time_elapsed": 4767051, "internal_node_id": "0.0-132.0"}}, {"uniqueid": "MTK0500:3VFJCI1K406PR2GWHD7M1J88G7WGR5", "current_trial": 178, "dateTime": 1510969495384, "trialdata": {"rt": -1, "stimulus": "<p id=\"stim\">BABY</p>", "key_press": -1, "type": "PRES_VIS", "word": "baby", "wordID": 63, "conditions": [24, 800, "v", 24000], "trial": 4, "serialpos": 21, "trial_type": "single-stim", "trial_index": 178, "time_elapsed": 4769108, "internal_node_id": "0.0-133.0"}}, {"uniqueid": "MTK0500:3VFJCI1K406PR2GWHD7M1J88G7WGR5", "current_trial": 179, "dateTime": 1510969497181, "trialdata": {"rt": -1, "stimulus": "<p id=\"stim\">FLASK</p>", "key_press": -1, "type": "PRES_VIS", "word": "flask", "wordID": 575, "conditions": [24, 800, "v", 24000], "trial": 4, "serialpos": 22, "trial_type": "single-stim", "trial_index": 179, "time_elapsed": 4770906, "internal_node_id": "0.0-134.0"}}, {"uniqueid": "MTK0500:3VFJCI1K406PR2GWHD7M1J88G7WGR5", "current_trial": 180, "dateTime": 1510969499199, "trialdata": {"rt": -1, "stimulus": "<p id=\"stim\">BEAST</p>", "key_press": -1, "type": "PRES_VIS", "word": "beast", "wordID": 107, "conditions": [24, 800, "v", 24000], "trial": 4, "serialpos": 23, "trial_type": "single-stim", "trial_index": 180, "time_elapsed": 4772923, "internal_node_id": "0.0-135.0"}}, {"uniqueid": "MTK0500:3VFJCI1K406PR2GWHD7M1J88G7WGR5", "current_trial": 181, "dateTime": 1510969501412, "trialdata": {"rt": -1, "stimulus": "", "key_press": -1, "type": "PRE_RECALL_DELAY", "trial_type": "single-stim", "trial_index": 181, "time_elapsed": 4775137, "internal_node_id": "0.0-136.0-0.0"}}, {"uniqueid": "MTK0500:3VFJCI1K406PR2GWHD7M1J88G7WGR5", "current_trial": 182, "dateTime": 1510969501913, "trialdata": {"rt": -1000, "stimulus": "/static/audio/400Hz.wav", "key_press": -1, "type": "PRE_RECALL_ALERT", "trial_type": "single-audio", "trial_index": 182, "time_elapsed": 4775638, "internal_node_id": "0.0-137.0"}}, {"uniqueid": "MTK0500:3VFJCI1K406PR2GWHD7M1J88G7WGR5", "current_trial": 183, "dateTime": 1510969562037, "trialdata": {"rt": [3115, 4723, 5817, 7543, 8641, 10269, 11410, 12743, 14235, 15700], "recwords": ["beast", "couch", "office", "marine", "bacon", "cottage", "puppy", "buggy", "sticker", "marine"], "type": "FREE_RECALL", "conditions": [24, 800, "v", 24000], "trial": 4, "trial_type": "free-recall", "trial_index": 183, "time_elapsed": 4835748, "internal_node_id": "0.0-138.0-0.0"}}, {"uniqueid": "MTK0500:3VFJCI1K406PR2GWHD7M1J88G7WGR5", "current_trial": 184, "dateTime": 1510969565545, "trialdata": {"rt": 1503, "key_press": 13, "type": "INSTRUCTIONS", "trial_type": "text", "trial_index": 184, "time_elapsed": 4839270, "internal_node_id": "0.0-139.0"}}, {"uniqueid": "MTK0500:3VFJCI1K406PR2GWHD7M1J88G7WGR5", "current_trial": 185, "dateTime": 1510969579616, "trialdata": {"rt": [1785, 3237, 4870, 6165, 7863, 10367], "responses": ["13", "17", "10", "13", "20", "20"], "num1": [5, 3, 7, 1, 6, 9, 6], "num2": [7, 8, 2, 7, 8, 5, 7], "num3": [1, 6, 3, 5, 6, 6, 8], "type": "DISTRACTOR", "conditions": [24, 1600, "a", 12000], "trial": 5, "trial_type": "math-distractor", "trial_index": 185, "time_elapsed": 4853341, "internal_node_id": "0.0-140.0"}}, {"uniqueid": "MTK0500:3VFJCI1K406PR2GWHD7M1J88G7WGR5", "current_trial": 186, "dateTime": 1510969582689, "trialdata": {"rt": -1, "stimulus": "<p id=\"stim\">10</p>", "key_press": -1, "trial_type": "single-stim", "trial_index": 186, "time_elapsed": 4856414, "internal_node_id": "0.0-141.0-0.0"}}, {"uniqueid": "MTK0500:3VFJCI1K406PR2GWHD7M1J88G7WGR5", "current_trial": 187, "dateTime": 1510969583714, "trialdata": {"rt": -1, "stimulus": "<p id=\"stim\">9</p>", "key_press": -1, "trial_type": "single-stim", "trial_index": 187, "time_elapsed": 4857439, "internal_node_id": "0.0-141.0-1.0"}}, {"uniqueid": "MTK0500:3VFJCI1K406PR2GWHD7M1J88G7WGR5", "current_trial": 188, "dateTime": 1510969584732, "trialdata": {"rt": -1, "stimulus": "<p id=\"stim\">8</p>", "key_press": -1, "trial_type": "single-stim", "trial_index": 188, "time_elapsed": 4858456, "internal_node_id": "0.0-141.0-2.0"}}, {"uniqueid": "MTK0500:3VFJCI1K406PR2GWHD7M1J88G7WGR5", "current_trial": 189, "dateTime": 1510969585754, "trialdata": {"rt": -1, "stimulus": "<p id=\"stim\">7</p>", "key_press": -1, "trial_type": "single-stim", "trial_index": 189, "time_elapsed": 4859479, "internal_node_id": "0.0-141.0-3.0"}}, {"uniqueid": "MTK0500:3VFJCI1K406PR2GWHD7M1J88G7WGR5", "current_trial": 190, "dateTime": 1510969586788, "trialdata": {"rt": -1, "stimulus": "<p id=\"stim\">6</p>", "key_press": -1, "trial_type": "single-stim", "trial_index": 190, "time_elapsed": 4860513, "internal_node_id": "0.0-141.0-4.0"}}, {"uniqueid": "MTK0500:3VFJCI1K406PR2GWHD7M1J88G7WGR5", "current_trial": 191, "dateTime": 1510969587793, "trialdata": {"rt": -1, "stimulus": "<p id=\"stim\">5</p>", "key_press": -1, "trial_type": "single-stim", "trial_index": 191, "time_elapsed": 4861518, "internal_node_id": "0.0-141.0-5.0"}}, {"uniqueid": "MTK0500:3VFJCI1K406PR2GWHD7M1J88G7WGR5", "current_trial": 192, "dateTime": 1510969588896, "trialdata": {"rt": -1, "stimulus": "<p id=\"stim\">4</p>", "key_press": -1, "trial_type": "single-stim", "trial_index": 192, "time_elapsed": 4862620, "internal_node_id": "0.0-141.0-6.0"}}, {"uniqueid": "MTK0500:3VFJCI1K406PR2GWHD7M1J88G7WGR5", "current_trial": 193, "dateTime": 1510969589935, "trialdata": {"rt": -1, "stimulus": "<p id=\"stim\">3</p>", "key_press": -1, "trial_type": "single-stim", "trial_index": 193, "time_elapsed": 4863660, "internal_node_id": "0.0-141.0-7.0"}}, {"uniqueid": "MTK0500:3VFJCI1K406PR2GWHD7M1J88G7WGR5", "current_trial": 194, "dateTime": 1510969591032, "trialdata": {"rt": -1, "stimulus": "<p id=\"stim\">2</p>", "key_press": -1, "trial_type": "single-stim", "trial_index": 194, "time_elapsed": 4864756, "internal_node_id": "0.0-141.0-8.0"}}, {"uniqueid": "MTK0500:3VFJCI1K406PR2GWHD7M1J88G7WGR5", "current_trial": 195, "dateTime": 1510969592065, "trialdata": {"rt": -1, "stimulus": "<p id=\"stim\">1</p>", "key_press": -1, "trial_type": "single-stim", "trial_index": 195, "time_elapsed": 4865789, "internal_node_id": "0.0-141.0-9.0"}}, {"uniqueid": "MTK0500:3VFJCI1K406PR2GWHD7M1J88G7WGR5", "current_trial": 196, "dateTime": 1510969593646, "trialdata": {"rt": -1, "stimulus": "<p id=\"stim\">+</p>", "key_press": -1, "type": "FIXATION", "trial_type": "single-stim", "trial_index": 196, "time_elapsed": 4867371, "internal_node_id": "0.0-142.0-0.0"}}, {"uniqueid": "MTK0500:3VFJCI1K406PR2GWHD7M1J88G7WGR5", "current_trial": 197, "dateTime": 1510969596208, "trialdata": {"rt": -1000, "stimulus": "/static/audio/wordpool/TOASTER.wav", "key_press": -1, "type": "PRES_AUD", "word": "toaster", "wordID": 1471, "conditions": [24, 1600, "a", 12000], "trial": 5, "serialpos": 0, "trial_type": "single-audio", "trial_index": 197, "time_elapsed": 4869933, "internal_node_id": "0.0-143.0"}}, {"uniqueid": "MTK0500:3VFJCI1K406PR2GWHD7M1J88G7WGR5", "current_trial": 198, "dateTime": 1510969598807, "trialdata": {"rt": -1000, "stimulus": "/static/audio/wordpool/STOVE.wav", "key_press": -1, "type": "PRES_AUD", "word": "stove", "wordID": 1387, "conditions": [24, 1600, "a", 12000], "trial": 5, "serialpos": 1, "trial_type": "single-audio", "trial_index": 198, "time_elapsed": 4872532, "internal_node_id": "0.0-144.0"}}, {"uniqueid": "MTK0500:3VFJCI1K406PR2GWHD7M1J88G7WGR5", "current_trial": 199, "dateTime": 1510969601209, "trialdata": {"rt": -1000, "stimulus": "/static/audio/wordpool/BIKE.wav", "key_press": -1, "type": "PRES_AUD", "word": "bike", "wordID": 124, "conditions": [24, 1600, "a", 12000], "trial": 5, "serialpos": 2, "trial_type": "single-audio", "trial_index": 199, "time_elapsed": 4874933, "internal_node_id": "0.0-145.0"}}, {"uniqueid": "MTK0500:3VFJCI1K406PR2GWHD7M1J88G7WGR5", "current_trial": 200, "dateTime": 1510969603673, "trialdata": {"rt": -1000, "stimulus": "/static/audio/wordpool/LETTUCE.wav", "key_press": -1, "type": "PRES_AUD", "word": "lettuce", "wordID": 813, "conditions": [24, 1600, "a", 12000], "trial": 5, "serialpos": 3, "trial_type": "single-audio", "trial_index": 200, "time_elapsed": 4877398, "internal_node_id": "0.0-146.0"}}, {"uniqueid": "MTK0500:3VFJCI1K406PR2GWHD7M1J88G7WGR5", "current_trial": 201, "dateTime": 1510969606203, "trialdata": {"rt": -1000, "stimulus": "/static/audio/wordpool/ASIA.wav", "key_press": -1, "type": "PRES_AUD", "word": "asia", "wordID": 45, "conditions": [24, 1600, "a", 12000], "trial": 5, "serialpos": 4, "trial_type": "single-audio", "trial_index": 201, "time_elapsed": 4879928, "internal_node_id": "0.0-147.0"}}, {"uniqueid": "MTK0500:3VFJCI1K406PR2GWHD7M1J88G7WGR5", "current_trial": 202, "dateTime": 1510969608931, "trialdata": {"rt": -1000, "stimulus": "/static/audio/wordpool/CHURCH.wav", "key_press": -1, "type": "PRES_AUD", "word": "church", "wordID": 306, "conditions": [24, 1600, "a", 12000], "trial": 5, "serialpos": 5, "trial_type": "single-audio", "trial_index": 202, "time_elapsed": 4882656, "internal_node_id": "0.0-148.0"}}, {"uniqueid": "MTK0500:3VFJCI1K406PR2GWHD7M1J88G7WGR5", "current_trial": 203, "dateTime": 1510969611532, "trialdata": {"rt": -1000, "stimulus": "/static/audio/wordpool/CATCHER.wav", "key_press": -1, "type": "PRES_AUD", "word": "catcher", "wordID": 257, "conditions": [24, 1600, "a", 12000], "trial": 5, "serialpos": 6, "trial_type": "single-audio", "trial_index": 203, "time_elapsed": 4885257, "internal_node_id": "0.0-149.0"}}, {"uniqueid": "MTK0500:3VFJCI1K406PR2GWHD7M1J88G7WGR5", "current_trial": 204, "dateTime": 1510969614177, "trialdata": {"rt": -1000, "stimulus": "/static/audio/wordpool/CRAYON.wav", "key_press": -1, "type": "PRES_AUD", "word": "crayon", "wordID": 400, "conditions": [24, 1600, "a", 12000], "trial": 5, "serialpos": 7, "trial_type": "single-audio", "trial_index": 204, "time_elapsed": 4887902, "internal_node_id": "0.0-150.0"}}, {"uniqueid": "MTK0500:3VFJCI1K406PR2GWHD7M1J88G7WGR5", "current_trial": 205, "dateTime": 1510969616858, "trialdata": {"rt": -1000, "stimulus": "/static/audio/wordpool/PEBBLE.wav", "key_press": -1, "type": "PRES_AUD", "word": "pebble", "wordID": 1034, "conditions": [24, 1600, "a", 12000], "trial": 5, "serialpos": 8, "trial_type": "single-audio", "trial_index": 205, "time_elapsed": 4890583, "internal_node_id": "0.0-151.0"}}, {"uniqueid": "MTK0500:3VFJCI1K406PR2GWHD7M1J88G7WGR5", "current_trial": 206, "dateTime": 1510969619588, "trialdata": {"rt": -1000, "stimulus": "/static/audio/wordpool/BEAKER.wav", "key_press": -1, "type": "PRES_AUD", "word": "beaker", "wordID": 103, "conditions": [24, 1600, "a", 12000], "trial": 5, "serialpos": 9, "trial_type": "single-audio", "trial_index": 206, "time_elapsed": 4893313, "internal_node_id": "0.0-152.0"}}, {"uniqueid": "MTK0500:3VFJCI1K406PR2GWHD7M1J88G7WGR5", "current_trial": 207, "dateTime": 1510969622094, "trialdata": {"rt": -1000, "stimulus": "/static/audio/wordpool/CHAPEL.wav", "key_press": -1, "type": "PRES_AUD", "word": "chapel", "wordID": 279, "conditions": [24, 1600, "a", 12000], "trial": 5, "serialpos": 10, "trial_type": "single-audio", "trial_index": 207, "time_elapsed": 4895819, "internal_node_id": "0.0-153.0"}}, {"uniqueid": "MTK0500:3VFJCI1K406PR2GWHD7M1J88G7WGR5", "current_trial": 208, "dateTime": 1510969624574, "trialdata": {"rt": -1000, "stimulus": "/static/audio/wordpool/CHIPMUNK.wav", "key_press": -1, "type": "PRES_AUD", "word": "chipmunk", "wordID": 303, "conditions": [24, 1600, "a", 12000], "trial": 5, "serialpos": 11, "trial_type": "single-audio", "trial_index": 208, "time_elapsed": 4898298, "internal_node_id": "0.0-154.0"}}, {"uniqueid": "MTK0500:3VFJCI1K406PR2GWHD7M1J88G7WGR5", "current_trial": 209, "dateTime": 1510969627263, "trialdata": {"rt": -1000, "stimulus": "/static/audio/wordpool/KNIFE.wav", "key_press": -1, "type": "PRES_AUD", "word": "knife", "wordID": 784, "conditions": [24, 1600, "a", 12000], "trial": 5, "serialpos": 12, "trial_type": "single-audio", "trial_index": 209, "time_elapsed": 4900987, "internal_node_id": "0.0-155.0"}}, {"uniqueid": "MTK0500:3VFJCI1K406PR2GWHD7M1J88G7WGR5", "current_trial": 210, "dateTime": 1510969630019, "trialdata": {"rt": -1000, "stimulus": "/static/audio/wordpool/BODY.wav", "key_press": -1, "type": "PRES_AUD", "word": "body", "wordID": 144, "conditions": [24, 1600, "a", 12000], "trial": 5, "serialpos": 13, "trial_type": "single-audio", "trial_index": 210, "time_elapsed": 4903744, "internal_node_id": "0.0-156.0"}}, {"uniqueid": "MTK0500:3VFJCI1K406PR2GWHD7M1J88G7WGR5", "current_trial": 211, "dateTime": 1510969632665, "trialdata": {"rt": -1000, "stimulus": "/static/audio/wordpool/JUNGLE.wav", "key_press": -1, "type": "PRES_AUD", "word": "jungle", "wordID": 763, "conditions": [24, 1600, "a", 12000], "trial": 5, "serialpos": 14, "trial_type": "single-audio", "trial_index": 211, "time_elapsed": 4906390, "internal_node_id": "0.0-157.0"}}, {"uniqueid": "MTK0500:3VFJCI1K406PR2GWHD7M1J88G7WGR5", "current_trial": 212, "dateTime": 1510969635300, "trialdata": {"rt": -1000, "stimulus": "/static/audio/wordpool/GAVEL.wav", "key_press": -1, "type": "PRES_AUD", "word": "gavel", "wordID": 626, "conditions": [24, 1600, "a", 12000], "trial": 5, "serialpos": 15, "trial_type": "single-audio", "trial_index": 212, "time_elapsed": 4909024, "internal_node_id": "0.0-158.0"}}, {"uniqueid": "MTK0500:3VFJCI1K406PR2GWHD7M1J88G7WGR5", "current_trial": 213, "dateTime": 1510969638002, "trialdata": {"rt": -1000, "stimulus": "/static/audio/wordpool/ZIPPER.wav", "key_press": -1, "type": "PRES_AUD", "word": "zipper", "wordID": 1635, "conditions": [24, 1600, "a", 12000], "trial": 5, "serialpos": 16, "trial_type": "single-audio", "trial_index": 213, "time_elapsed": 4911727, "internal_node_id": "0.0-159.0"}}, {"uniqueid": "MTK0500:3VFJCI1K406PR2GWHD7M1J88G7WGR5", "current_trial": 214, "dateTime": 1510969640755, "trialdata": {"rt": -1000, "stimulus": "/static/audio/wordpool/JOURNAL.wav", "key_press": -1, "type": "PRES_AUD", "word": "journal", "wordID": 759, "conditions": [24, 1600, "a", 12000], "trial": 5, "serialpos": 17, "trial_type": "single-audio", "trial_index": 214, "time_elapsed": 4914479, "internal_node_id": "0.0-160.0"}}, {"uniqueid": "MTK0500:3VFJCI1K406PR2GWHD7M1J88G7WGR5", "current_trial": 215, "dateTime": 1510969643554, "trialdata": {"rt": -1000, "stimulus": "/static/audio/wordpool/PERCH.wav", "key_press": -1, "type": "PRES_AUD", "word": "perch", "wordID": 1047, "conditions": [24, 1600, "a", 12000], "trial": 5, "serialpos": 18, "trial_type": "single-audio", "trial_index": 215, "time_elapsed": 4917279, "internal_node_id": "0.0-161.0"}}, {"uniqueid": "MTK0500:3VFJCI1K406PR2GWHD7M1J88G7WGR5", "current_trial": 216, "dateTime": 1510969646327, "trialdata": {"rt": -1000, "stimulus": "/static/audio/wordpool/SHRUB.wav", "key_press": -1, "type": "PRES_AUD", "word": "shrub", "wordID": 1298, "conditions": [24, 1600, "a", 12000], "trial": 5, "serialpos": 19, "trial_type": "single-audio", "trial_index": 216, "time_elapsed": 4920052, "internal_node_id": "0.0-162.0"}}, {"uniqueid": "MTK0500:3VFJCI1K406PR2GWHD7M1J88G7WGR5", "current_trial": 217, "dateTime": 1510969648963, "trialdata": {"rt": -1000, "stimulus": "/static/audio/wordpool/STATUE.wav", "key_press": -1, "type": "PRES_AUD", "word": "statue", "wordID": 1373, "conditions": [24, 1600, "a", 12000], "trial": 5, "serialpos": 20, "trial_type": "single-audio", "trial_index": 217, "time_elapsed": 4922688, "internal_node_id": "0.0-163.0"}}, {"uniqueid": "MTK0500:3VFJCI1K406PR2GWHD7M1J88G7WGR5", "current_trial": 218, "dateTime": 1510969651429, "trialdata": {"rt": -1000, "stimulus": "/static/audio/wordpool/TOMBSTONE.wav", "key_press": -1, "type": "PRES_AUD", "word": "tombstone", "wordID": 1477, "conditions": [24, 1600, "a", 12000], "trial": 5, "serialpos": 21, "trial_type": "single-audio", "trial_index": 218, "time_elapsed": 4925154, "internal_node_id": "0.0-164.0"}}, {"uniqueid": "MTK0500:3VFJCI1K406PR2GWHD7M1J88G7WGR5", "current_trial": 219, "dateTime": 1510969654103, "trialdata": {"rt": -1000, "stimulus": "/static/audio/wordpool/SUITCASE.wav", "key_press": -1, "type": "PRES_AUD", "word": "suitcase", "wordID": 1402, "conditions": [24, 1600, "a", 12000], "trial": 5, "serialpos": 22, "trial_type": "single-audio", "trial_index": 219, "time_elapsed": 4927827, "internal_node_id": "0.0-165.0"}}, {"uniqueid": "MTK0500:3VFJCI1K406PR2GWHD7M1J88G7WGR5", "current_trial": 220, "dateTime": 1510969656795, "trialdata": {"rt": -1000, "stimulus": "/static/audio/wordpool/SCISSORS.wav", "key_press": -1, "type": "PRES_AUD", "word": "scissors", "wordID": 1249, "conditions": [24, 1600, "a", 12000], "trial": 5, "serialpos": 23, "trial_type": "single-audio", "trial_index": 220, "time_elapsed": 4930520, "internal_node_id": "0.0-166.0"}}, {"uniqueid": "MTK0500:3VFJCI1K406PR2GWHD7M1J88G7WGR5", "current_trial": 221, "dateTime": 1510969658138, "trialdata": {"rt": -1, "stimulus": "", "key_press": -1, "type": "PRE_RECALL_DELAY", "trial_type": "single-stim", "trial_index": 221, "time_elapsed": 4931863, "internal_node_id": "0.0-167.0-0.0"}}, {"uniqueid": "MTK0500:3VFJCI1K406PR2GWHD7M1J88G7WGR5", "current_trial": 222, "dateTime": 1510969658641, "trialdata": {"rt": -1000, "stimulus": "/static/audio/400Hz.wav", "key_press": -1, "type": "PRE_RECALL_ALERT", "trial_type": "single-audio", "trial_index": 222, "time_elapsed": 4932365, "internal_node_id": "0.0-168.0"}}, {"uniqueid": "MTK0500:3VFJCI1K406PR2GWHD7M1J88G7WGR5", "current_trial": 223, "dateTime": 1510969718990, "trialdata": {"rt": [7441, 8902, 10035, 12760, 14177, 17389, 18740, 19908, 22355, 23859, 26721], "recwords": ["scissors", "jungle", "zipper", "stove", "pubble", "crayon", "catcher", "asia", "beaker", "church", "lettuce"], "type": "FREE_RECALL", "conditions": [24, 1600, "a", 12000], "trial": 5, "trial_type": "free-recall", "trial_index": 223, "time_elapsed": 4992689, "internal_node_id": "0.0-169.0-0.0"}}, {"uniqueid": "MTK0500:3VFJCI1K406PR2GWHD7M1J88G7WGR5", "current_trial": 224, "dateTime": 1510969722922, "trialdata": {"rt": 1927, "key_press": 13, "type": "INSTRUCTIONS", "trial_type": "text", "trial_index": 224, "time_elapsed": 4996647, "internal_node_id": "0.0-170.0"}}, {"uniqueid": "MTK0500:3VFJCI1K406PR2GWHD7M1J88G7WGR5", "current_trial": 225, "dateTime": 1510969736938, "trialdata": {"rt": [1560, 3473, 5047, 7713, 9307, 10934], "responses": ["17", "18", "10", "20", "10", "16"], "num1": [2, 3, 7, 5, 7, 7, 1], "num2": [8, 8, 2, 6, 1, 3, 8], "num3": [7, 7, 1, 9, 2, 6, 7], "type": "DISTRACTOR", "conditions": [24, 800, "a", 12000], "trial": 6, "trial_type": "math-distractor", "trial_index": 225, "time_elapsed": 5010663, "internal_node_id": "0.0-171.0"}}, {"uniqueid": "MTK0500:3VFJCI1K406PR2GWHD7M1J88G7WGR5", "current_trial": 226, "dateTime": 1510969740177, "trialdata": {"rt": -1, "stimulus": "<p id=\"stim\">10</p>", "key_press": -1, "trial_type": "single-stim", "trial_index": 226, "time_elapsed": 5013901, "internal_node_id": "0.0-172.0-0.0"}}, {"uniqueid": "MTK0500:3VFJCI1K406PR2GWHD7M1J88G7WGR5", "current_trial": 227, "dateTime": 1510969741255, "trialdata": {"rt": -1, "stimulus": "<p id=\"stim\">9</p>", "key_press": -1, "trial_type": "single-stim", "trial_index": 227, "time_elapsed": 5014980, "internal_node_id": "0.0-172.0-1.0"}}, {"uniqueid": "MTK0500:3VFJCI1K406PR2GWHD7M1J88G7WGR5", "current_trial": 228, "dateTime": 1510969742258, "trialdata": {"rt": -1, "stimulus": "<p id=\"stim\">8</p>", "key_press": -1, "trial_type": "single-stim", "trial_index": 228, "time_elapsed": 5015983, "internal_node_id": "0.0-172.0-2.0"}}, {"uniqueid": "MTK0500:3VFJCI1K406PR2GWHD7M1J88G7WGR5", "current_trial": 229, "dateTime": 1510969743354, "trialdata": {"rt": -1, "stimulus": "<p id=\"stim\">7</p>", "key_press": -1, "trial_type": "single-stim", "trial_index": 229, "time_elapsed": 5017079, "internal_node_id": "0.0-172.0-3.0"}}, {"uniqueid": "MTK0500:3VFJCI1K406PR2GWHD7M1J88G7WGR5", "current_trial": 230, "dateTime": 1510969744395, "trialdata": {"rt": -1, "stimulus": "<p id=\"stim\">6</p>", "key_press": -1, "trial_type": "single-stim", "trial_index": 230, "time_elapsed": 5018120, "internal_node_id": "0.0-172.0-4.0"}}, {"uniqueid": "MTK0500:3VFJCI1K406PR2GWHD7M1J88G7WGR5", "current_trial": 231, "dateTime": 1510969745413, "trialdata": {"rt": -1, "stimulus": "<p id=\"stim\">5</p>", "key_press": -1, "trial_type": "single-stim", "trial_index": 231, "time_elapsed": 5019137, "internal_node_id": "0.0-172.0-5.0"}}, {"uniqueid": "MTK0500:3VFJCI1K406PR2GWHD7M1J88G7WGR5", "current_trial": 232, "dateTime": 1510969746455, "trialdata": {"rt": -1, "stimulus": "<p id=\"stim\">4</p>", "key_press": -1, "trial_type": "single-stim", "trial_index": 232, "time_elapsed": 5020180, "internal_node_id": "0.0-172.0-6.0"}}, {"uniqueid": "MTK0500:3VFJCI1K406PR2GWHD7M1J88G7WGR5", "current_trial": 233, "dateTime": 1510969747535, "trialdata": {"rt": -1, "stimulus": "<p id=\"stim\">3</p>", "key_press": -1, "trial_type": "single-stim", "trial_index": 233, "time_elapsed": 5021260, "internal_node_id": "0.0-172.0-7.0"}}, {"uniqueid": "MTK0500:3VFJCI1K406PR2GWHD7M1J88G7WGR5", "current_trial": 234, "dateTime": 1510969748642, "trialdata": {"rt": -1, "stimulus": "<p id=\"stim\">2</p>", "key_press": -1, "trial_type": "single-stim", "trial_index": 234, "time_elapsed": 5022366, "internal_node_id": "0.0-172.0-8.0"}}, {"uniqueid": "MTK0500:3VFJCI1K406PR2GWHD7M1J88G7WGR5", "current_trial": 235, "dateTime": 1510969749782, "trialdata": {"rt": -1, "stimulus": "<p id=\"stim\">1</p>", "key_press": -1, "trial_type": "single-stim", "trial_index": 235, "time_elapsed": 5023506, "internal_node_id": "0.0-172.0-9.0"}}, {"uniqueid": "MTK0500:3VFJCI1K406PR2GWHD7M1J88G7WGR5", "current_trial": 236, "dateTime": 1510969751303, "trialdata": {"rt": -1, "stimulus": "<p id=\"stim\">+</p>", "key_press": -1, "type": "FIXATION", "trial_type": "single-stim", "trial_index": 236, "time_elapsed": 5025028, "internal_node_id": "0.0-173.0-0.0"}}, {"uniqueid": "MTK0500:3VFJCI1K406PR2GWHD7M1J88G7WGR5", "current_trial": 237, "dateTime": 1510969753274, "trialdata": {"rt": -1000, "stimulus": "/static/audio/wordpool/GYMNAST.wav", "key_press": -1, "type": "PRES_AUD", "word": "gymnast", "wordID": 674, "conditions": [24, 800, "a", 12000], "trial": 6, "serialpos": 0, "trial_type": "single-audio", "trial_index": 237, "time_elapsed": 5026999, "internal_node_id": "0.0-174.0"}}, {"uniqueid": "MTK0500:3VFJCI1K406PR2GWHD7M1J88G7WGR5", "current_trial": 238, "dateTime": 1510969755166, "trialdata": {"rt": -1000, "stimulus": "/static/audio/wordpool/SANDWICH.wav", "key_press": -1, "type": "PRES_AUD", "word": "sandwich", "wordID": 1231, "conditions": [24, 800, "a", 12000], "trial": 6, "serialpos": 1, "trial_type": "single-audio", "trial_index": 238, "time_elapsed": 5028891, "internal_node_id": "0.0-175.0"}}, {"uniqueid": "MTK0500:3VFJCI1K406PR2GWHD7M1J88G7WGR5", "current_trial": 239, "dateTime": 1510969756997, "trialdata": {"rt": -1000, "stimulus": "/static/audio/wordpool/COSTUME.wav", "key_press": -1, "type": "PRES_AUD", "word": "costume", "wordID": 382, "conditions": [24, 800, "a", 12000], "trial": 6, "serialpos": 2, "trial_type": "single-audio", "trial_index": 239, "time_elapsed": 5030722, "internal_node_id": "0.0-176.0"}}, {"uniqueid": "MTK0500:3VFJCI1K406PR2GWHD7M1J88G7WGR5", "current_trial": 240, "dateTime": 1510969758937, "trialdata": {"rt": -1000, "stimulus": "/static/audio/wordpool/GLOVE.wav", "key_press": -1, "type": "PRES_AUD", "word": "glove", "wordID": 641, "conditions": [24, 800, "a", 12000], "trial": 6, "serialpos": 3, "trial_type": "single-audio", "trial_index": 240, "time_elapsed": 5032662, "internal_node_id": "0.0-177.0"}}, {"uniqueid": "MTK0500:3VFJCI1K406PR2GWHD7M1J88G7WGR5", "current_trial": 241, "dateTime": 1510969760654, "trialdata": {"rt": -1000, "stimulus": "/static/audio/wordpool/PLUTO.wav", "key_press": -1, "type": "PRES_AUD", "word": "pluto", "wordID": 1091, "conditions": [24, 800, "a", 12000], "trial": 6, "serialpos": 4, "trial_type": "single-audio", "trial_index": 241, "time_elapsed": 5034378, "internal_node_id": "0.0-178.0"}}, {"uniqueid": "MTK0500:3VFJCI1K406PR2GWHD7M1J88G7WGR5", "current_trial": 242, "dateTime": 1510969762434, "trialdata": {"rt": -1000, "stimulus": "/static/audio/wordpool/MONEY.wav", "key_press": -1, "type": "PRES_AUD", "word": "money", "wordID": 907, "conditions": [24, 800, "a", 12000], "trial": 6, "serialpos": 5, "trial_type": "single-audio", "trial_index": 242, "time_elapsed": 5036159, "internal_node_id": "0.0-179.0"}}, {"uniqueid": "MTK0500:3VFJCI1K406PR2GWHD7M1J88G7WGR5", "current_trial": 243, "dateTime": 1510969764404, "trialdata": {"rt": -1000, "stimulus": "/static/audio/wordpool/SCARECROW.wav", "key_press": -1, "type": "PRES_AUD", "word": "scarecrow", "wordID": 1244, "conditions": [24, 800, "a", 12000], "trial": 6, "serialpos": 6, "trial_type": "single-audio", "trial_index": 243, "time_elapsed": 5038129, "internal_node_id": "0.0-180.0"}}, {"uniqueid": "MTK0500:3VFJCI1K406PR2GWHD7M1J88G7WGR5", "current_trial": 244, "dateTime": 1510969766282, "trialdata": {"rt": -1000, "stimulus": "/static/audio/wordpool/PANTHER.wav", "key_press": -1, "type": "PRES_AUD", "word": "panther", "wordID": 1008, "conditions": [24, 800, "a", 12000], "trial": 6, "serialpos": 7, "trial_type": "single-audio", "trial_index": 244, "time_elapsed": 5040007, "internal_node_id": "0.0-181.0"}}, {"uniqueid": "MTK0500:3VFJCI1K406PR2GWHD7M1J88G7WGR5", "current_trial": 245, "dateTime": 1510969768050, "trialdata": {"rt": -1000, "stimulus": "/static/audio/wordpool/ZEBRA.wav", "key_press": -1, "type": "PRES_AUD", "word": "zebra", "wordID": 1634, "conditions": [24, 800, "a", 12000], "trial": 6, "serialpos": 8, "trial_type": "single-audio", "trial_index": 245, "time_elapsed": 5041775, "internal_node_id": "0.0-182.0"}}, {"uniqueid": "MTK0500:3VFJCI1K406PR2GWHD7M1J88G7WGR5", "current_trial": 246, "dateTime": 1510969769754, "trialdata": {"rt": -1000, "stimulus": "/static/audio/wordpool/WIFE.wav", "key_press": -1, "type": "PRES_AUD", "word": "wife", "wordID": 1608, "conditions": [24, 800, "a", 12000], "trial": 6, "serialpos": 9, "trial_type": "single-audio", "trial_index": 246, "time_elapsed": 5043478, "internal_node_id": "0.0-183.0"}}, {"uniqueid": "MTK0500:3VFJCI1K406PR2GWHD7M1J88G7WGR5", "current_trial": 247, "dateTime": 1510969771388, "trialdata": {"rt": -1000, "stimulus": "/static/audio/wordpool/ACTRESS.wav", "key_press": -1, "type": "PRES_AUD", "word": "actress", "wordID": 5, "conditions": [24, 800, "a", 12000], "trial": 6, "serialpos": 10, "trial_type": "single-audio", "trial_index": 247, "time_elapsed": 5045112, "internal_node_id": "0.0-184.0"}}, {"uniqueid": "MTK0500:3VFJCI1K406PR2GWHD7M1J88G7WGR5", "current_trial": 248, "dateTime": 1510969773093, "trialdata": {"rt": -1000, "stimulus": "/static/audio/wordpool/NECKLACE.wav", "key_press": -1, "type": "PRES_AUD", "word": "necklace", "wordID": 939, "conditions": [24, 800, "a", 12000], "trial": 6, "serialpos": 11, "trial_type": "single-audio", "trial_index": 248, "time_elapsed": 5046818, "internal_node_id": "0.0-185.0"}}, {"uniqueid": "MTK0500:3VFJCI1K406PR2GWHD7M1J88G7WGR5", "current_trial": 249, "dateTime": 1510969775072, "trialdata": {"rt": -1000, "stimulus": "/static/audio/wordpool/LACE.wav", "key_press": -1, "type": "PRES_AUD", "word": "lace", "wordID": 791, "conditions": [24, 800, "a", 12000], "trial": 6, "serialpos": 12, "trial_type": "single-audio", "trial_index": 249, "time_elapsed": 5048797, "internal_node_id": "0.0-186.0"}}, {"uniqueid": "MTK0500:3VFJCI1K406PR2GWHD7M1J88G7WGR5", "current_trial": 250, "dateTime": 1510969776861, "trialdata": {"rt": -1000, "stimulus": "/static/audio/wordpool/PLAID.wav", "key_press": -1, "type": "PRES_AUD", "word": "plaid", "wordID": 1079, "conditions": [24, 800, "a", 12000], "trial": 6, "serialpos": 13, "trial_type": "single-audio", "trial_index": 250, "time_elapsed": 5050586, "internal_node_id": "0.0-187.0"}}, {"uniqueid": "MTK0500:3VFJCI1K406PR2GWHD7M1J88G7WGR5", "current_trial": 251, "dateTime": 1510969778779, "trialdata": {"rt": -1000, "stimulus": "/static/audio/wordpool/PUDDLE.wav", "key_press": -1, "type": "PRES_AUD", "word": "puddle", "wordID": 1139, "conditions": [24, 800, "a", 12000], "trial": 6, "serialpos": 14, "trial_type": "single-audio", "trial_index": 251, "time_elapsed": 5052503, "internal_node_id": "0.0-188.0"}}, {"uniqueid": "MTK0500:3VFJCI1K406PR2GWHD7M1J88G7WGR5", "current_trial": 252, "dateTime": 1510969780405, "trialdata": {"rt": -1000, "stimulus": "/static/audio/wordpool/BEAVER.wav", "key_press": -1, "type": "PRES_AUD", "word": "beaver", "wordID": 108, "conditions": [24, 800, "a", 12000], "trial": 6, "serialpos": 15, "trial_type": "single-audio", "trial_index": 252, "time_elapsed": 5054130, "internal_node_id": "0.0-189.0"}}, {"uniqueid": "MTK0500:3VFJCI1K406PR2GWHD7M1J88G7WGR5", "current_trial": 253, "dateTime": 1510969782068, "trialdata": {"rt": -1000, "stimulus": "/static/audio/wordpool/BRANDY.wav", "key_press": -1, "type": "PRES_AUD", "word": "brandy", "wordID": 168, "conditions": [24, 800, "a", 12000], "trial": 6, "serialpos": 16, "trial_type": "single-audio", "trial_index": 253, "time_elapsed": 5055793, "internal_node_id": "0.0-190.0"}}, {"uniqueid": "MTK0500:3VFJCI1K406PR2GWHD7M1J88G7WGR5", "current_trial": 254, "dateTime": 1510969783901, "trialdata": {"rt": -1000, "stimulus": "/static/audio/wordpool/CLAM.wav", "key_press": -1, "type": "PRES_AUD", "word": "clam", "wordID": 314, "conditions": [24, 800, "a", 12000], "trial": 6, "serialpos": 17, "trial_type": "single-audio", "trial_index": 254, "time_elapsed": 5057626, "internal_node_id": "0.0-191.0"}}, {"uniqueid": "MTK0500:3VFJCI1K406PR2GWHD7M1J88G7WGR5", "current_trial": 255, "dateTime": 1510969785665, "trialdata": {"rt": -1000, "stimulus": "/static/audio/wordpool/GALLON.wav", "key_press": -1, "type": "PRES_AUD", "word": "gallon", "wordID": 617, "conditions": [24, 800, "a", 12000], "trial": 6, "serialpos": 18, "trial_type": "single-audio", "trial_index": 255, "time_elapsed": 5059390, "internal_node_id": "0.0-192.0"}}, {"uniqueid": "MTK0500:3VFJCI1K406PR2GWHD7M1J88G7WGR5", "current_trial": 256, "dateTime": 1510969787431, "trialdata": {"rt": -1000, "stimulus": "/static/audio/wordpool/RECEIPT.wav", "key_press": -1, "type": "PRES_AUD", "word": "receipt", "wordID": 1172, "conditions": [24, 800, "a", 12000], "trial": 6, "serialpos": 19, "trial_type": "single-audio", "trial_index": 256, "time_elapsed": 5061155, "internal_node_id": "0.0-193.0"}}, {"uniqueid": "MTK0500:3VFJCI1K406PR2GWHD7M1J88G7WGR5", "current_trial": 257, "dateTime": 1510969789098, "trialdata": {"rt": -1000, "stimulus": "/static/audio/wordpool/SEAGULL.wav", "key_press": -1, "type": "PRES_AUD", "word": "seagull", "wordID": 1260, "conditions": [24, 800, "a", 12000], "trial": 6, "serialpos": 20, "trial_type": "single-audio", "trial_index": 257, "time_elapsed": 5062823, "internal_node_id": "0.0-194.0"}}, {"uniqueid": "MTK0500:3VFJCI1K406PR2GWHD7M1J88G7WGR5", "current_trial": 258, "dateTime": 1510969790768, "trialdata": {"rt": -1000, "stimulus": "/static/audio/wordpool/JAPAN.wav", "key_press": -1, "type": "PRES_AUD", "word": "japan", "wordID": 748, "conditions": [24, 800, "a", 12000], "trial": 6, "serialpos": 21, "trial_type": "single-audio", "trial_index": 258, "time_elapsed": 5064493, "internal_node_id": "0.0-195.0"}}, {"uniqueid": "MTK0500:3VFJCI1K406PR2GWHD7M1J88G7WGR5", "current_trial": 259, "dateTime": 1510969792447, "trialdata": {"rt": -1000, "stimulus": "/static/audio/wordpool/COUNTRY.wav", "key_press": -1, "type": "PRES_AUD", "word": "country", "wordID": 387, "conditions": [24, 800, "a", 12000], "trial": 6, "serialpos": 22, "trial_type": "single-audio", "trial_index": 259, "time_elapsed": 5066172, "internal_node_id": "0.0-196.0"}}, {"uniqueid": "MTK0500:3VFJCI1K406PR2GWHD7M1J88G7WGR5", "current_trial": 260, "dateTime": 1510969794417, "trialdata": {"rt": -1000, "stimulus": "/static/audio/wordpool/RABBIT.wav", "key_press": -1, "type": "PRES_AUD", "word": "rabbit", "wordID": 1151, "conditions": [24, 800, "a", 12000], "trial": 6, "serialpos": 23, "trial_type": "single-audio", "trial_index": 260, "time_elapsed": 5068142, "internal_node_id": "0.0-197.0"}}, {"uniqueid": "MTK0500:3VFJCI1K406PR2GWHD7M1J88G7WGR5", "current_trial": 261, "dateTime": 1510969795699, "trialdata": {"rt": -1, "stimulus": "", "key_press": -1, "type": "PRE_RECALL_DELAY", "trial_type": "single-stim", "trial_index": 261, "time_elapsed": 5069423, "internal_node_id": "0.0-198.0-0.0"}}, {"uniqueid": "MTK0500:3VFJCI1K406PR2GWHD7M1J88G7WGR5", "current_trial": 262, "dateTime": 1510969796202, "trialdata": {"rt": -1000, "stimulus": "/static/audio/400Hz.wav", "key_press": -1, "type": "PRE_RECALL_ALERT", "trial_type": "single-audio", "trial_index": 262, "time_elapsed": 5069927, "internal_node_id": "0.0-199.0"}}, {"uniqueid": "MTK0500:3VFJCI1K406PR2GWHD7M1J88G7WGR5", "current_trial": 263, "dateTime": 1510969856259, "trialdata": {"rt": [3845, 4982, 6461, 7579, 9332, 10924, 11780, 13036, 14272, 16260, 18970], "recwords": ["rabbit", "country", "japan", "glove", "actress", "necklace", "clam", "pluto", "glove", "gallon", "necklace"], "type": "FREE_RECALL", "conditions": [24, 800, "a", 12000], "trial": 6, "trial_type": "free-recall", "trial_index": 263, "time_elapsed": 5129977, "internal_node_id": "0.0-200.0-0.0"}}, {"uniqueid": "MTK0500:3VFJCI1K406PR2GWHD7M1J88G7WGR5", "current_trial": 264, "dateTime": 1510969860102, "trialdata": {"rt": 1682, "key_press": 13, "type": "INSTRUCTIONS", "trial_type": "text", "trial_index": 264, "time_elapsed": 5133827, "internal_node_id": "0.0-201.0"}}, {"uniqueid": "MTK0500:3VFJCI1K406PR2GWHD7M1J88G7WGR5", "current_trial": 265, "dateTime": 1510969886108, "trialdata": {"rt": [2316, 3898, 5291, 6675, 8533, 9899, 11606, 13234, 15243, 17093, 18623, 19953, 21976, 23882], "responses": ["19", "9", "14", "12", "19", "13", "9", "16", "21", "23", "14", "4", "12", "15"], "num1": [3, 1, 4, 3, 5, 2, 2, 2, 8, 5, 4, 2, 5, 5, 4], "num2": [9, 6, 6, 7, 9, 5, 1, 6, 5, 9, 1, 1, 4, 2, 4], "num3": 