{"condition": 0, "counterbalance": 1771, "assignmentId": "3XUHV3NRVL5EMBD94CC1JIFD38CH5L", "workerId": "MTK0599", "hitId": "3DFYDSXB2W7PBC0K3BISENRO17LJUD", "currenttrial": 626, "bonus": 0, "data": [{"uniqueid": "MTK0599:3XUHV3NRVL5EMBD94CC1JIFD38CH5L", "current_trial": 0, "dateTime": 1511560802279, "trialdata": {"rt": 4165, "key_press": 76, "type": "INSTRUCTIONS", "trial_type": "text", "trial_index": 0, "time_elapsed": 4183, "internal_node_id": "0.0-0.0"}}, {"uniqueid": "MTK0599:3XUHV3NRVL5EMBD94CC1JIFD38CH5L", "current_trial": 1, "dateTime": 1511560851647, "trialdata": {"rt": 49355, "key_press": 75, "type": "INSTRUCTIONS", "trial_type": "text", "trial_index": 1, "time_elapsed": 53548, "internal_node_id": "0.0-1.0"}}, {"uniqueid": "MTK0599:3XUHV3NRVL5EMBD94CC1JIFD38CH5L", "current_trial": 2, "dateTime": 1511560870190, "trialdata": {"rt": [18290], "responses": ["ocean"], "type": "AUDIO_TEST", "trial_type": "audio-test", "trial_index": 2, "time_elapsed": 72096, "internal_node_id": "0.0-2.0"}}, {"uniqueid": "MTK0599:3XUHV3NRVL5EMBD94CC1JIFD38CH5L", "current_trial": 3, "dateTime": 1511560883541, "trialdata": {"rt": [13312], "responses": ["crystal"], "type": "AUDIO_TEST", "trial_type": "audio-test", "trial_index": 3, "time_elapsed": 85447, "internal_node_id": "0.0-3.0"}}, {"uniqueid": "MTK0599:3XUHV3NRVL5EMBD94CC1JIFD38CH5L", "current_trial": 4, "dateTime": 1511560894741, "trialdata": {"rt": [11161], "responses": ["spice"], "type": "AUDIO_TEST", "trial_type": "audio-test", "trial_index": 4, "time_elapsed": 96647, "internal_node_id": "0.0-4.0"}}, {"uniqueid": "MTK0599:3XUHV3NRVL5EMBD94CC1JIFD38CH5L", "current_trial": 5, "dateTime": 1511560939998, "trialdata": {"rt": 44476, "responses": "{\"Q0\":\"9pm\",\"Q1\":\"6am\",\"Q2\":\"5\"}", "type": "SLEEP_SURVEY", "trial_type": "survey-text", "trial_index": 5, "time_elapsed": 141904, "internal_node_id": "0.0-5.0"}}, {"uniqueid": "MTK0599:3XUHV3NRVL5EMBD94CC1JIFD38CH5L", "current_trial": 6, "dateTime": 1511560988644, "trialdata": {"rt": 47625, "key_press": 74, "type": "INSTRUCTIONS", "trial_type": "text", "trial_index": 6, "time_elapsed": 190549, "internal_node_id": "0.0-6.0"}}, {"uniqueid": "MTK0599:3XUHV3NRVL5EMBD94CC1JIFD38CH5L", "current_trial": 7, "dateTime": 1511561004985, "trialdata": {"rt": 15830, "key_press": 76, "type": "INSTRUCTIONS", "trial_type": "text", "trial_index": 7, "time_elapsed": 206890, "internal_node_id": "0.0-7.0"}}, {"uniqueid": "MTK0599:3XUHV3NRVL5EMBD94CC1JIFD38CH5L", "current_trial": 8, "dateTime": 1511561020309, "trialdata": {"rt": 14811, "key_press": 75, "type": "INSTRUCTIONS", "trial_type": "text", "trial_index": 8, "time_elapsed": 222214, "internal_node_id": "0.0-8.0"}}, {"uniqueid": "MTK0599:3XUHV3NRVL5EMBD94CC1JIFD38CH5L", "current_trial": 9, "dateTime": 1511561039378, "trialdata": {"rt": [7341, 13617], "responses": ["14", "19"], "num1": [1, 8, 7], "num2": [5, 5, 9], "num3": [8, 6, 9], "type": "DISTRACTOR", "conditions": [18, 1200, "v", 18000], "trial": 0, "trial_type": "math-distractor", "trial_index": 9, "time_elapsed": 241283, "internal_node_id": "0.0-9.0"}}, {"uniqueid": "MTK0599:3XUHV3NRVL5EMBD94CC1JIFD38CH5L", "current_trial": 10, "dateTime": 1511561042415, "trialdata": {"rt": -1, "stimulus": "<p id=\"stim\">10</p>", "key_press": -1, "trial_type": "single-stim", "trial_index": 10, "time_elapsed": 244315, "internal_node_id": "0.0-10.0-0.0"}}, {"uniqueid": "MTK0599:3XUHV3NRVL5EMBD94CC1JIFD38CH5L", "current_trial": 11, "dateTime": 1511561043424, "trialdata": {"rt": -1, "stimulus": "<p id=\"stim\">9</p>", "key_press": -1, "trial_type": "single-stim", "trial_index": 11, "time_elapsed": 245329, "internal_node_id": "0.0-10.0-1.0"}}, {"uniqueid": "MTK0599:3XUHV3NRVL5EMBD94CC1JIFD38CH5L", "current_trial": 12, "dateTime": 1511561044442, "trialdata": {"rt": -1, "stimulus": "<p id=\"stim\">8</p>", "key_press": -1, "trial_type": "single-stim", "trial_index": 12, "time_elapsed": 246348, "internal_node_id": "0.0-10.0-2.0"}}, {"uniqueid": "MTK0599:3XUHV3NRVL5EMBD94CC1JIFD38CH5L", "current_trial": 13, "dateTime": 1511561045464, "trialdata": {"rt": -1, "stimulus": "<p id=\"stim\">7</p>", "key_press": -1, "trial_type": "single-stim", "trial_index": 13, "time_elapsed": 247368, "internal_node_id": "0.0-10.0-3.0"}}, {"uniqueid": "MTK0599:3XUHV3NRVL5EMBD94CC1JIFD38CH5L", "current_trial": 14, "dateTime": 1511561046482, "trialdata": {"rt": -1, "stimulus": "<p id=\"stim\">6</p>", "key_press": -1, "trial_type": "single-stim", "trial_index": 14, "time_elapsed": 248387, "internal_node_id": "0.0-10.0-4.0"}}, {"uniqueid": "MTK0599:3XUHV3NRVL5EMBD94CC1JIFD38CH5L", "current_trial": 15, "dateTime": 1511561047488, "trialdata": {"rt": -1, "stimulus": "<p id=\"stim\">5</p>", "key_press": -1, "trial_type": "single-stim", "trial_index": 15, "time_elapsed": 249393, "internal_node_id": "0.0-10.0-5.0"}}, {"uniqueid": "MTK0599:3XUHV3NRVL5EMBD94CC1JIFD38CH5L", "current_trial": 16, "dateTime": 1511561048506, "trialdata": {"rt": -1, "stimulus": "<p id=\"stim\">4</p>", "key_press": -1, "trial_type": "single-stim", "trial_index": 16, "time_elapsed": 250411, "internal_node_id": "0.0-10.0-6.0"}}, {"uniqueid": "MTK0599:3XUHV3NRVL5EMBD94CC1JIFD38CH5L", "current_trial": 17, "dateTime": 1511561049525, "trialdata": {"rt": -1, "stimulus": "<p id=\"stim\">3</p>", "key_press": -1, "trial_type": "single-stim", "trial_index": 17, "time_elapsed": 251431, "internal_node_id": "0.0-10.0-7.0"}}, {"uniqueid": "MTK0599:3XUHV3NRVL5EMBD94CC1JIFD38CH5L", "current_trial": 18, "dateTime": 1511561050532, "trialdata": {"rt": -1, "stimulus": "<p id=\"stim\">2</p>", "key_press": -1, "trial_type": "single-stim", "trial_index": 18, "time_elapsed": 252438, "internal_node_id": "0.0-10.0-8.0"}}, {"uniqueid": "MTK0599:3XUHV3NRVL5EMBD94CC1JIFD38CH5L", "current_trial": 19, "dateTime": 1511561051550, "trialdata": {"rt": -1, "stimulus": "<p id=\"stim\">1</p>", "key_press": -1, "trial_type": "single-stim", "trial_index": 19, "time_elapsed": 253456, "internal_node_id": "0.0-10.0-9.0"}}, {"uniqueid": "MTK0599:3XUHV3NRVL5EMBD94CC1JIFD38CH5L", "current_trial": 20, "dateTime": 1511561053072, "trialdata": {"rt": -1, "stimulus": "<p id=\"stim\">+</p>", "key_press": -1, "type": "FIXATION", "trial_type": "single-stim", "trial_index": 20, "time_elapsed": 254974, "internal_node_id": "0.0-11.0-0.0"}}, {"uniqueid": "MTK0599:3XUHV3NRVL5EMBD94CC1JIFD38CH5L", "current_trial": 21, "dateTime": 1511561054286, "trialdata": {"rt": -1, "stimulus": "<p id=\"stim\">BRIEFCASE</p>", "key_press": -1, "type": "PRES_VIS", "word": "briefcase", "wordID": 174, "conditions": [18, 1200, "v", 18000], "trial": 0, "serialpos": 0, "trial_type": "single-stim", "trial_index": 21, "time_elapsed": 256188, "internal_node_id": "0.0-12.0"}}, {"uniqueid": "MTK0599:3XUHV3NRVL5EMBD94CC1JIFD38CH5L", "current_trial": 22, "dateTime": 1511561056337, "trialdata": {"rt": -1, "stimulus": "<p id=\"stim\">HIGHWAY</p>", "key_press": -1, "type": "PRES_VIS", "word": "highway", "wordID": 706, "conditions": [18, 1200, "v", 18000], "trial": 0, "serialpos": 1, "trial_type": "single-stim", "trial_index": 22, "time_elapsed": 258243, "internal_node_id": "0.0-13.0"}}, {"uniqueid": "MTK0599:3XUHV3NRVL5EMBD94CC1JIFD38CH5L", "current_trial": 23, "dateTime": 1511561058717, "trialdata": {"rt": -1, "stimulus": "<p id=\"stim\">POWDER</p>", "key_press": -1, "type": "PRES_VIS", "word": "powder", "wordID": 1116, "conditions": [18, 1200, "v", 18000], "trial": 0, "serialpos": 2, "trial_type": "single-stim", "trial_index": 23, "time_elapsed": 260622, "internal_node_id": "0.0-14.0"}}, {"uniqueid": "MTK0599:3XUHV3NRVL5EMBD94CC1JIFD38CH5L", "current_trial": 24, "dateTime": 1511561060972, "trialdata": {"rt": -1, "stimulus": "<p id=\"stim\">LASER</p>", "key_press": -1, "type": "PRES_VIS", "word": "laser", "wordID": 800, "conditions": [18, 1200, "v", 18000], "trial": 0, "serialpos": 3, "trial_type": "single-stim", "trial_index": 24, "time_elapsed": 262877, "internal_node_id": "0.0-15.0"}}, {"uniqueid": "MTK0599:3XUHV3NRVL5EMBD94CC1JIFD38CH5L", "current_trial": 25, "dateTime": 1511561063182, "trialdata": {"rt": -1, "stimulus": "<p id=\"stim\">SPIDER</p>", "key_press": -1, "type": "PRES_VIS", "word": "spider", "wordID": 1350, "conditions": [18, 1200, "v", 18000], "trial": 0, "serialpos": 4, "trial_type": "single-stim", "trial_index": 25, "time_elapsed": 265087, "internal_node_id": "0.0-16.0"}}, {"uniqueid": "MTK0599:3XUHV3NRVL5EMBD94CC1JIFD38CH5L", "current_trial": 26, "dateTime": 1511561065483, "trialdata": {"rt": -1, "stimulus": "<p id=\"stim\">LIVER</p>", "key_press": -1, "type": "PRES_VIS", "word": "liver", "wordID": 832, "conditions": [18, 1200, "v", 18000], "trial": 0, "serialpos": 5, "trial_type": "single-stim", "trial_index": 26, "time_elapsed": 267389, "internal_node_id": "0.0-17.0"}}, {"uniqueid": "MTK0599:3XUHV3NRVL5EMBD94CC1JIFD38CH5L", "current_trial": 27, "dateTime": 1511561067553, "trialdata": {"rt": -1, "stimulus": "<p id=\"stim\">SIBLING</p>", "key_press": -1, "type": "PRES_VIS", "word": "sibling", "wordID": 1300, "conditions": [18, 1200, "v", 18000], "trial": 0, "serialpos": 6, "trial_type": "single-stim", "trial_index": 27, "time_elapsed": 269459, "internal_node_id": "0.0-18.0"}}, {"uniqueid": "MTK0599:3XUHV3NRVL5EMBD94CC1JIFD38CH5L", "current_trial": 28, "dateTime": 1511561069576, "trialdata": {"rt": -1, "stimulus": "<p id=\"stim\">CASHIER</p>", "key_press": -1, "type": "PRES_VIS", "word": "cashier", "wordID": 253, "conditions": [18, 1200, "v", 18000], "trial": 0, "serialpos": 7, "trial_type": "single-stim", "trial_index": 28, "time_elapsed": 271480, "internal_node_id": "0.0-19.0"}}, {"uniqueid": "MTK0599:3XUHV3NRVL5EMBD94CC1JIFD38CH5L", "current_trial": 29, "dateTime": 1511561071953, "trialdata": {"rt": -1, "stimulus": "<p id=\"stim\">SHOULDER</p>", "key_press": -1, "type": "PRES_VIS", "word": "shoulder", "wordID": 1293, "conditions": [18, 1200, "v", 18000], "trial": 0, "serialpos": 8, "trial_type": "single-stim", "trial_index": 29, "time_elapsed": 273858, "internal_node_id": "0.0-20.0"}}, {"uniqueid": "MTK0599:3XUHV3NRVL5EMBD94CC1JIFD38CH5L", "current_trial": 30, "dateTime": 1511561074130, "trialdata": {"rt": -1, "stimulus": "<p id=\"stim\">ROBBER</p>", "key_press": -1, "type": "PRES_VIS", "word": "robber", "wordID": 1196, "conditions": [18, 1200, "v", 18000], "trial": 0, "serialpos": 9, "trial_type": "single-stim", "trial_index": 30, "time_elapsed": 276035, "internal_node_id": "0.0-21.0"}}, {"uniqueid": "MTK0599:3XUHV3NRVL5EMBD94CC1JIFD38CH5L", "current_trial": 31, "dateTime": 1511561076302, "trialdata": {"rt": -1, "stimulus": "<p id=\"stim\">RACKET</p>", "key_press": -1, "type": "PRES_VIS", "word": "racket", "wordID": 1154, "conditions": [18, 1200, "v", 18000], "trial": 0, "serialpos": 10, "trial_type": "single-stim", "trial_index": 31, "time_elapsed": 278207, "internal_node_id": "0.0-22.0"}}, {"uniqueid": "MTK0599:3XUHV3NRVL5EMBD94CC1JIFD38CH5L", "current_trial": 32, "dateTime": 1511561078621, "trialdata": {"rt": -1, "stimulus": "<p id=\"stim\">HOSTESS</p>", "key_press": -1, "type": "PRES_VIS", "word": "hostess", "wordID": 722, "conditions": [18, 1200, "v", 18000], "trial": 0, "serialpos": 11, "trial_type": "single-stim", "trial_index": 32, "time_elapsed": 280527, "internal_node_id": "0.0-23.0"}}, {"uniqueid": "MTK0599:3XUHV3NRVL5EMBD94CC1JIFD38CH5L", "current_trial": 33, "dateTime": 1511561080913, "trialdata": {"rt": -1, "stimulus": "<p id=\"stim\">CRICKET</p>", "key_press": -1, "type": "PRES_VIS", "word": "cricket", "wordID": 407, "conditions": [18, 1200, "v", 18000], "trial": 0, "serialpos": 12, "trial_type": "single-stim", "trial_index": 33, "time_elapsed": 282818, "internal_node_id": "0.0-24.0"}}, {"uniqueid": "MTK0599:3XUHV3NRVL5EMBD94CC1JIFD38CH5L", "current_trial": 34, "dateTime": 1511561083254, "trialdata": {"rt": -1, "stimulus": "<p id=\"stim\">PROTON</p>", "key_press": -1, "type": "PRES_VIS", "word": "proton", "wordID": 1131, "conditions": [18, 1200, "v", 18000], "trial": 0, "serialpos": 13, "trial_type": "single-stim", "trial_index": 34, "time_elapsed": 285159, "internal_node_id": "0.0-25.0"}}, {"uniqueid": "MTK0599:3XUHV3NRVL5EMBD94CC1JIFD38CH5L", "current_trial": 35, "dateTime": 1511561085460, "trialdata": {"rt": -1, "stimulus": "<p id=\"stim\">PIANO</p>", "key_press": -1, "type": "PRES_VIS", "word": "piano", "wordID": 1056, "conditions": [18, 1200, "v", 18000], "trial": 0, "serialpos": 14, "trial_type": "single-stim", "trial_index": 35, "time_elapsed": 287365, "internal_node_id": "0.0-26.0"}}, {"uniqueid": "MTK0599:3XUHV3NRVL5EMBD94CC1JIFD38CH5L", "current_trial": 36, "dateTime": 1511561087728, "trialdata": {"rt": -1, "stimulus": "<p id=\"stim\">CASHEW</p>", "key_press": -1, "type": "PRES_VIS", "word": "cashew", "wordID": 252, "conditions": [18, 1200, "v", 18000], "trial": 0, "serialpos": 15, "trial_type": "single-stim", "trial_index": 36, "time_elapsed": 289634, "internal_node_id": "0.0-27.0"}}, {"uniqueid": "MTK0599:3XUHV3NRVL5EMBD94CC1JIFD38CH5L", "current_trial": 37, "dateTime": 1511561089860, "trialdata": {"rt": -1, "stimulus": "<p id=\"stim\">VICTIM</p>", "key_press": -1, "type": "PRES_VIS", "word": "victim", "wordID": 1561, "conditions": [18, 1200, "v", 18000], "trial": 0, "serialpos": 16, "trial_type": "single-stim", "trial_index": 37, "time_elapsed": 291765, "internal_node_id": "0.0-28.0"}}, {"uniqueid": "MTK0599:3XUHV3NRVL5EMBD94CC1JIFD38CH5L", "current_trial": 38, "dateTime": 1511561091934, "trialdata": {"rt": -1, "stimulus": "<p id=\"stim\">SODA</p>", "key_press": -1, "type": "PRES_VIS", "word": "soda", "wordID": 1340, "conditions": [18, 1200, "v", 18000], "trial": 0, "serialpos": 17, "trial_type": "single-stim", "trial_index": 38, "time_elapsed": 293840, "internal_node_id": "0.0-29.0"}}, {"uniqueid": "MTK0599:3XUHV3NRVL5EMBD94CC1JIFD38CH5L", "current_trial": 39, "dateTime": 1511561094317, "trialdata": {"rt": -1, "stimulus": "", "key_press": -1, "type": "PRE_RECALL_DELAY", "trial_type": "single-stim", "trial_index": 39, "time_elapsed": 296222, "internal_node_id": "0.0-30.0-0.0"}}, {"uniqueid": "MTK0599:3XUHV3NRVL5EMBD94CC1JIFD38CH5L", "current_trial": 40, "dateTime": 1511561094843, "trialdata": {"rt": -1000, "stimulus": "/static/audio/400Hz.wav", "key_press": -1, "type": "PRE_RECALL_ALERT", "trial_type": "single-audio", "trial_index": 40, "time_elapsed": 296748, "internal_node_id": "0.0-31.0"}}, {"uniqueid": "MTK0599:3XUHV3NRVL5EMBD94CC1JIFD38CH5L", "current_trial": 41, "dateTime": 1511561154926, "trialdata": {"rt": [4268, 9104, 12473, 15607, 18398, 22373, 25570], "recwords": ["cashew", "victim", "soda", "briefcase", "highway", "shoulder", "laser"], "type": "FREE_RECALL", "conditions": [18, 1200, "v", 18000], "trial": 0, "trial_type": "free-recall", "trial_index": 41, "time_elapsed": 356797, "internal_node_id": "0.0-32.0-0.0"}}, {"uniqueid": "MTK0599:3XUHV3NRVL5EMBD94CC1JIFD38CH5L", "current_trial": 42, "dateTime": 1511561183518, "trialdata": {"rt": 26573, "key_press": 74, "type": "INSTRUCTIONS", "trial_type": "text", "trial_index": 42, "time_elapsed": 385423, "internal_node_id": "0.0-33.0"}}, {"uniqueid": "MTK0599:3XUHV3NRVL5EMBD94CC1JIFD38CH5L", "current_trial": 43, "dateTime": 1511561203551, "trialdata": {"rt": [4490, 8510, 11428, 14033, 16819], "responses": ["10", "12", "11", "12", "9"], "num1": [5, 3, 4, 3, 1, 7], "num2": [1, 1, 4, 3, 4, 1], "num3": [4, 8, 3, 6, 4, 3], "type": "DISTRACTOR", "conditions": [18, 1200, "a", 18000], "trial": 1, "trial_type": "math-distractor", "trial_index": 43, "time_elapsed": 405456, "internal_node_id": "0.0-34.0"}}, {"uniqueid": "MTK0599:3XUHV3NRVL5EMBD94CC1JIFD38CH5L", "current_trial": 44, "dateTime": 1511561206574, "trialdata": {"rt": -1, "stimulus": "<p id=\"stim\">10</p>", "key_press": -1, "trial_type": "single-stim", "trial_index": 44, "time_elapsed": 408480, "internal_node_id": "0.0-35.0-0.0"}}, {"uniqueid": "MTK0599:3XUHV3NRVL5EMBD94CC1JIFD38CH5L", "current_trial": 45, "dateTime": 1511561207597, "trialdata": {"rt": -1, "stimulus": "<p id=\"stim\">9</p>", "key_press": -1, "trial_type": "single-stim", "trial_index": 45, "time_elapsed": 409502, "internal_node_id": "0.0-35.0-1.0"}}, {"uniqueid": "MTK0599:3XUHV3NRVL5EMBD94CC1JIFD38CH5L", "current_trial": 46, "dateTime": 1511561208614, "trialdata": {"rt": -1, "stimulus": "<p id=\"stim\">8</p>", "key_press": -1, "trial_type": "single-stim", "trial_index": 46, "time_elapsed": 410519, "internal_node_id": "0.0-35.0-2.0"}}, {"uniqueid": "MTK0599:3XUHV3NRVL5EMBD94CC1JIFD38CH5L", "current_trial": 47, "dateTime": 1511561209633, "trialdata": {"rt": -1, "stimulus": "<p id=\"stim\">7</p>", "key_press": -1, "trial_type": "single-stim", "trial_index": 47, "time_elapsed": 411538, "internal_node_id": "0.0-35.0-3.0"}}, {"uniqueid": "MTK0599:3XUHV3NRVL5EMBD94CC1JIFD38CH5L", "current_trial": 48, "dateTime": 1511561210651, "trialdata": {"rt": -1, "stimulus": "<p id=\"stim\">6</p>", "key_press": -1, "trial_type": "single-stim", "trial_index": 48, "time_elapsed": 412557, "internal_node_id": "0.0-35.0-4.0"}}, {"uniqueid": "MTK0599:3XUHV3NRVL5EMBD94CC1JIFD38CH5L", "current_trial": 49, "dateTime": 1511561211656, "trialdata": {"rt": -1, "stimulus": "<p id=\"stim\">5</p>", "key_press": -1, "trial_type": "single-stim", "trial_index": 49, "time_elapsed": 413562, "internal_node_id": "0.0-35.0-5.0"}}, {"uniqueid": "MTK0599:3XUHV3NRVL5EMBD94CC1JIFD38CH5L", "current_trial": 50, "dateTime": 1511561212664, "trialdata": {"rt": -1, "stimulus": "<p id=\"stim\">4</p>", "key_press": -1, "trial_type": "single-stim", "trial_index": 50, "time_elapsed": 414569, "internal_node_id": "0.0-35.0-6.0"}}, {"uniqueid": "MTK0599:3XUHV3NRVL5EMBD94CC1JIFD38CH5L", "current_trial": 51, "dateTime": 1511561213683, "trialdata": {"rt": -1, "stimulus": "<p id=\"stim\">3</p>", "key_press": -1, "trial_type": "single-stim", "trial_index": 51, "time_elapsed": 415588, "internal_node_id": "0.0-35.0-7.0"}}, {"uniqueid": "MTK0599:3XUHV3NRVL5EMBD94CC1JIFD38CH5L", "current_trial": 52, "dateTime": 1511561214702, "trialdata": {"rt": -1, "stimulus": "<p id=\"stim\">2</p>", "key_press": -1, "trial_type": "single-stim", "trial_index": 52, "time_elapsed": 416607, "internal_node_id": "0.0-35.0-8.0"}}, {"uniqueid": "MTK0599:3XUHV3NRVL5EMBD94CC1JIFD38CH5L", "current_trial": 53, "dateTime": 1511561215721, "trialdata": {"rt": -1, "stimulus": "<p id=\"stim\">1</p>", "key_press": -1, "trial_type": "single-stim", "trial_index": 53, "time_elapsed": 417626, "internal_node_id": "0.0-35.0-9.0"}}, {"uniqueid": "MTK0599:3XUHV3NRVL5EMBD94CC1JIFD38CH5L", "current_trial": 54, "dateTime": 1511561217234, "trialdata": {"rt": -1, "stimulus": "<p id=\"stim\">+</p>", "key_press": -1, "type": "FIXATION", "trial_type": "single-stim", "trial_index": 54, "time_elapsed": 419139, "internal_node_id": "0.0-36.0-0.0"}}, {"uniqueid": "MTK0599:3XUHV3NRVL5EMBD94CC1JIFD38CH5L", "current_trial": 55, "dateTime": 1511561219368, "trialdata": {"rt": -1000, "stimulus": "/static/audio/wordpool/RIVER.wav", "key_press": -1, "type": "PRES_AUD", "word": "river", "wordID": 1193, "conditions": [18, 1200, "a", 18000], "trial": 1, "serialpos": 0, "trial_type": "single-audio", "trial_index": 55, "time_elapsed": 421274, "internal_node_id": "0.0-37.0"}}, {"uniqueid": "MTK0599:3XUHV3NRVL5EMBD94CC1JIFD38CH5L", "current_trial": 56, "dateTime": 1511561221686, "trialdata": {"rt": -1000, "stimulus": "/static/audio/wordpool/KNAPSACK.wav", "key_press": -1, "type": "PRES_AUD", "word": "knapsack", "wordID": 782, "conditions": [18, 1200, "a", 18000], "trial": 1, "serialpos": 1, "trial_type": "single-audio", "trial_index": 56, "time_elapsed": 423591, "internal_node_id": "0.0-38.0"}}, {"uniqueid": "MTK0599:3XUHV3NRVL5EMBD94CC1JIFD38CH5L", "current_trial": 57, "dateTime": 1511561224054, "trialdata": {"rt": -1000, "stimulus": "/static/audio/wordpool/BELLY.wav", "key_press": -1, "type": "PRES_AUD", "word": "belly", "wordID": 118, "conditions": [18, 1200, "a", 18000], "trial": 1, "serialpos": 2, "trial_type": "single-audio", "trial_index": 57, "time_elapsed": 425959, "internal_node_id": "0.0-39.0"}}, {"uniqueid": "MTK0599:3XUHV3NRVL5EMBD94CC1JIFD38CH5L", "current_trial": 58, "dateTime": 1511561226118, "trialdata": {"rt": -1000, "stimulus": "/static/audio/wordpool/COTTAGE.wav", "key_press": -1, "type": "PRES_AUD", "word": "cottage", "wordID": 383, "conditions": [18, 1200, "a", 18000], "trial": 1, "serialpos": 3, "trial_type": "single-audio", "trial_index": 58, "time_elapsed": 428024, "internal_node_id": "0.0-40.0"}}, {"uniqueid": "MTK0599:3XUHV3NRVL5EMBD94CC1JIFD38CH5L", "current_trial": 59, "dateTime": 1511561228422, "trialdata": {"rt": -1000, "stimulus": "/static/audio/wordpool/QUEEN.wav", "key_press": -1, "type": "PRES_AUD", "word": "queen", "wordID": 1148, "conditions": [18, 1200, "a", 18000], "trial": 1, "serialpos": 4, "trial_type": "single-audio", "trial_index": 59, "time_elapsed": 430326, "internal_node_id": "0.0-41.0"}}, {"uniqueid": "MTK0599:3XUHV3NRVL5EMBD94CC1JIFD38CH5L", "current_trial": 60, "dateTime": 1511561230726, "trialdata": {"rt": -1000, "stimulus": "/static/audio/wordpool/TUNNEL.wav", "key_press": -1, "type": "PRES_AUD", "word": "tunnel", "wordID": 1518, "conditions": [18, 1200, "a", 18000], "trial": 1, "serialpos": 5, "trial_type": "single-audio", "trial_index": 60, "time_elapsed": 432631, "internal_node_id": "0.0-42.0"}}, {"uniqueid": "MTK0599:3XUHV3NRVL5EMBD94CC1JIFD38CH5L", "current_trial": 61, "dateTime": 1511561232810, "trialdata": {"rt": -1000, "stimulus": "/static/audio/wordpool/PREACHER.wav", "key_press": -1, "type": "PRES_AUD", "word": "preacher", "wordID": 1118, "conditions": [18, 1200, "a", 18000], "trial": 1, "serialpos": 6, "trial_type": "single-audio", "trial_index": 61, "time_elapsed": 434715, "internal_node_id": "0.0-43.0"}}, {"uniqueid": "MTK0599:3XUHV3NRVL5EMBD94CC1JIFD38CH5L", "current_trial": 62, "dateTime": 1511561234831, "trialdata": {"rt": -1000, "stimulus": "/static/audio/wordpool/RIFLE.wav", "key_press": -1, "type": "PRES_AUD", "word": "rifle", "wordID": 1191, "conditions": [18, 1200, "a", 18000], "trial": 1, "serialpos": 7, "trial_type": "single-audio", "trial_index": 62, "time_elapsed": 436737, "internal_node_id": "0.0-44.0"}}, {"uniqueid": "MTK0599:3XUHV3NRVL5EMBD94CC1JIFD38CH5L", "current_trial": 63, "dateTime": 1511561237085, "trialdata": {"rt": -1000, "stimulus": "/static/audio/wordpool/FILM.wav", "key_press": -1, "type": "PRES_AUD", "word": "film", "wordID": 564, "conditions": [18, 1200, "a", 18000], "trial": 1, "serialpos": 8, "trial_type": "single-audio", "trial_index": 63, "time_elapsed": 438990, "internal_node_id": "0.0-45.0"}}, {"uniqueid": "MTK0599:3XUHV3NRVL5EMBD94CC1JIFD38CH5L", "current_trial": 64, "dateTime": 1511561239250, "trialdata": {"rt": -1000, "stimulus": "/static/audio/wordpool/FLESH.wav", "key_press": -1, "type": "PRES_AUD", "word": "flesh", "wordID": 578, "conditions": [18, 1200, "a", 18000], "trial": 1, "serialpos": 9, "trial_type": "single-audio", "trial_index": 64, "time_elapsed": 441155, "internal_node_id": "0.0-46.0"}}, {"uniqueid": "MTK0599:3XUHV3NRVL5EMBD94CC1JIFD38CH5L", "current_trial": 65, "dateTime": 1511561241555, "trialdata": {"rt": -1000, "stimulus": "/static/audio/wordpool/GARDEN.wav", "key_press": -1, "type": "PRES_AUD", "word": "garden", "wordID": 622, "conditions": [18, 1200, "a", 18000], "trial": 1, "serialpos": 10, "trial_type": "single-audio", "trial_index": 65, "time_elapsed": 443460, "internal_node_id": "0.0-47.0"}}, {"uniqueid": "MTK0599:3XUHV3NRVL5EMBD94CC1JIFD38CH5L", "current_trial": 66, "dateTime": 1511561243717, "trialdata": {"rt": -1000, "stimulus": "/static/audio/wordpool/CAFE.wav", "key_press": -1, "type": "PRES_AUD", "word": "cafe", "wordID": 215, "conditions": [18, 1200, "a", 18000], "trial": 1, "serialpos": 11, "trial_type": "single-audio", "trial_index": 66, "time_elapsed": 445622, "internal_node_id": "0.0-48.0"}}, {"uniqueid": "MTK0599:3XUHV3NRVL5EMBD94CC1JIFD38CH5L", "current_trial": 67, "dateTime": 1511561246066, "trialdata": {"rt": -1000, "stimulus": "/static/audio/wordpool/SMOG.wav", "key_press": -1, "type": "PRES_AUD", "word": "smog", "wordID": 1329, "conditions": [18, 1200, "a", 18000], "trial": 1, "serialpos": 12, "trial_type": "single-audio", "trial_index": 67, "time_elapsed": 447971, "internal_node_id": "0.0-49.0"}}, {"uniqueid": "MTK0599:3XUHV3NRVL5EMBD94CC1JIFD38CH5L", "current_trial": 68, "dateTime": 1511561248396, "trialdata": {"rt": -1000, "stimulus": "/static/audio/wordpool/ARMY.wav", "key_press": -1, "type": "PRES_AUD", "word": "army", "wordID": 38, "conditions": [18, 1200, "a", 18000], "trial": 1, "serialpos": 13, "trial_type": "single-audio", "trial_index": 68, "time_elapsed": 450301, "internal_node_id": "0.0-50.0"}}, {"uniqueid": "MTK0599:3XUHV3NRVL5EMBD94CC1JIFD38CH5L", "current_trial": 69, "dateTime": 1511561250773, "trialdata": {"rt": -1000, "stimulus": "/static/audio/wordpool/VAGRANT.wav", "key_press": -1, "type": "PRES_AUD", "word": "vagrant", "wordID": 1543, "conditions": [18, 1200, "a", 18000], "trial": 1, "serialpos": 14, "trial_type": "single-audio", "trial_index": 69, "time_elapsed": 452678, "internal_node_id": "0.0-51.0"}}, {"uniqueid": "MTK0599:3XUHV3NRVL5EMBD94CC1JIFD38CH5L", "current_trial": 70, "dateTime": 1511561253154, "trialdata": {"rt": -1000, "stimulus": "/static/audio/wordpool/TUTU.wav", "key_press": -1, "type": "PRES_AUD", "word": "tutu", "wordID": 1523, "conditions": [18, 1200, "a", 18000], "trial": 1, "serialpos": 15, "trial_type": "single-audio", "trial_index": 70, "time_elapsed": 455059, "internal_node_id": "0.0-52.0"}}, {"uniqueid": "MTK0599:3XUHV3NRVL5EMBD94CC1JIFD38CH5L", "current_trial": 71, "dateTime": 1511561255286, "trialdata": {"rt": -1000, "stimulus": "/static/audio/wordpool/BUNNY.wav", "key_press": -1, "type": "PRES_AUD", "word": "bunny", "wordID": 197, "conditions": [18, 1200, "a", 18000], "trial": 1, "serialpos": 16, "trial_type": "single-audio", "trial_index": 71, "time_elapsed": 457191, "internal_node_id": "0.0-53.0"}}, {"uniqueid": "MTK0599:3XUHV3NRVL5EMBD94CC1JIFD38CH5L", "current_trial": 72, "dateTime": 1511561257680, "trialdata": {"rt": -1000, "stimulus": "/static/audio/wordpool/SHERIFF.wav", "key_press": -1, "type": "PRES_AUD", "word": "sheriff", "wordID": 1283, "conditions": [18, 1200, "a", 18000], "trial": 1, "serialpos": 17, "trial_type": "single-audio", "trial_index": 72, "time_elapsed": 459585, "internal_node_id": "0.0-54.0"}}, {"uniqueid": "MTK0599:3XUHV3NRVL5EMBD94CC1JIFD38CH5L", "current_trial": 73, "dateTime": 1511561259068, "trialdata": {"rt": -1, "stimulus": "", "key_press": -1, "type": "PRE_RECALL_DELAY", "trial_type": "single-stim", "trial_index": 73, "time_elapsed": 460973, "internal_node_id": "0.0-55.0-0.0"}}, {"uniqueid": "MTK0599:3XUHV3NRVL5EMBD94CC1JIFD38CH5L", "current_trial": 74, "dateTime": 1511561259579, "trialdata": {"rt": -1000, "stimulus": "/static/audio/400Hz.wav", "key_press": -1, "type": "PRE_RECALL_ALERT", "trial_type": "single-audio", "trial_index": 74, "time_elapsed": 461484, "internal_node_id": "0.0-56.0"}}, {"uniqueid": "MTK0599:3XUHV3NRVL5EMBD94CC1JIFD38CH5L", "current_trial": 75, "dateTime": 1511561319646, "trialdata": {"rt": [3792, 7148, 10250, 16552, 19941, 33199, 37773, 41018, 48961], "recwords": ["sherrif", "funny", "tutu", "vagrant", "garden", "queen", "bell", "river", "cottage"], "type": "FREE_RECALL", "conditions": [18, 1200, "a", 18000], "trial": 1, "trial_type": "free-recall", "trial_index": 75, "time_elapsed": 521532, "internal_node_id": "0.0-57.0-0.0"}}, {"uniqueid": "MTK0599:3XUHV3NRVL5EMBD94CC1JIFD38CH5L", "current_trial": 76, "dateTime": 1511561326554, "trialdata": {"rt": 4879, "key_press": 13, "type": "INSTRUCTIONS", "trial_type": "text", "trial_index": 76, "time_elapsed": 528437, "internal_node_id": "0.0-58.0"}}, {"uniqueid": "MTK0599:3XUHV3NRVL5EMBD94CC1JIFD38CH5L", "current_trial": 77, "dateTime": 1511561339587, "trialdata": {"rt": [5687, 8005, 11144], "responses": ["19", "14", "9"], "num1": [7, 9, 3, 4], "num2": [4, 4, 5, 2], "num3": [8, 1, 1, 2], "type": "DISTRACTOR", "conditions": [24, 1600, "v", 12000], "trial": 2, "trial_type": "math-distractor", "trial_index": 77, "time_elapsed": 541492, "internal_node_id": "0.0-59.0"}}, {"uniqueid": "MTK0599:3XUHV3NRVL5EMBD94CC1JIFD38CH5L", "current_trial": 78, "dateTime": 1511561342605, "trialdata": {"rt": -1, "stimulus": "<p id=\"stim\">10</p>", "key_press": -1, "trial_type": "single-stim", "trial_index": 78, "time_elapsed": 544510, "internal_node_id": "0.0-60.0-0.0"}}, {"uniqueid": "MTK0599:3XUHV3NRVL5EMBD94CC1JIFD38CH5L", "current_trial": 79, "dateTime": 1511561343610, "trialdata": {"rt": -1, "stimulus": "<p id=\"stim\">9</p>", "key_press": -1, "trial_type": "single-stim", "trial_index": 79, "time_elapsed": 545515, "internal_node_id": "0.0-60.0-1.0"}}, {"uniqueid": "MTK0599:3XUHV3NRVL5EMBD94CC1JIFD38CH5L", "current_trial": 80, "dateTime": 1511561344615, "trialdata": {"rt": -1, "stimulus": "<p id=\"stim\">8</p>", "key_press": -1, "trial_type": "single-stim", "trial_index": 80, "time_elapsed": 546520, "internal_node_id": "0.0-60.0-2.0"}}, {"uniqueid": "MTK0599:3XUHV3NRVL5EMBD94CC1JIFD38CH5L", "current_trial": 81, "dateTime": 1511561345620, "trialdata": {"rt": -1, "stimulus": "<p id=\"stim\">7</p>", "key_press": -1, "trial_type": "single-stim", "trial_index": 81, "time_elapsed": 547526, "internal_node_id": "0.0-60.0-3.0"}}, {"uniqueid": "MTK0599:3XUHV3NRVL5EMBD94CC1JIFD38CH5L", "current_trial": 82, "dateTime": 1511561346654, "trialdata": {"rt": -1, "stimulus": "<p id=\"stim\">6</p>", "key_press": -1, "trial_type": "single-stim", "trial_index": 82, "time_elapsed": 548559, "internal_node_id": "0.0-60.0-4.0"}}, {"uniqueid": "MTK0599:3XUHV3NRVL5EMBD94CC1JIFD38CH5L", "current_trial": 83, "dateTime": 1511561347674, "trialdata": {"rt": -1, "stimulus": "<p id=\"stim\">5</p>", "key_press": -1, "trial_type": "single-stim", "trial_index": 83, "time_elapsed": 549579, "internal_node_id": "0.0-60.0-5.0"}}, {"uniqueid": "MTK0599:3XUHV3NRVL5EMBD94CC1JIFD38CH5L", "current_trial": 84, "dateTime": 1511561348696, "trialdata": {"rt": -1, "stimulus": "<p id=\"stim\">4</p>", "key_press": -1, "trial_type": "single-stim", "trial_index": 84, "time_elapsed": 550601, "internal_node_id": "0.0-60.0-6.0"}}, {"uniqueid": "MTK0599:3XUHV3NRVL5EMBD94CC1JIFD38CH5L", "current_trial": 85, "dateTime": 1511561349714, "trialdata": {"rt": -1, "stimulus": "<p id=\"stim\">3</p>", "key_press": -1, "trial_type": "single-stim", "trial_index": 85, "time_elapsed": 551619, "internal_node_id": "0.0-60.0-7.0"}}, {"uniqueid": "MTK0599:3XUHV3NRVL5EMBD94CC1JIFD38CH5L", "current_trial": 86, "dateTime": 1511561350734, "trialdata": {"rt": -1, "stimulus": "<p id=\"stim\">2</p>", "key_press": -1, "trial_type": "single-stim", "trial_index": 86, "time_elapsed": 552639, "internal_node_id": "0.0-60.0-8.0"}}, {"uniqueid": "MTK0599:3XUHV3NRVL5EMBD94CC1JIFD38CH5L", "current_trial": 87, "dateTime": 1511561351740, "trialdata": {"rt": -1, "stimulus": "<p id=\"stim\">1</p>", "key_press": -1, "trial_type": "single-stim", "trial_index": 87, "time_elapsed": 553646, "internal_node_id": "0.0-60.0-9.0"}}, {"uniqueid": "MTK0599:3XUHV3NRVL5EMBD94CC1JIFD38CH5L", "current_trial": 88, "dateTime": 1511561353253, "trialdata": {"rt": -1, "stimulus": "<p id=\"stim\">+</p>", "key_press": -1, "type": "FIXATION", "trial_type": "single-stim", "trial_index": 88, "time_elapsed": 555158, "internal_node_id": "0.0-61.0-0.0"}}, {"uniqueid": "MTK0599:3XUHV3NRVL5EMBD94CC1JIFD38CH5L", "current_trial": 89, "dateTime": 1511561354860, "trialdata": {"rt": -1, "stimulus": "<p id=\"stim\">NOMAD</p>", "key_press": -1, "type": "PRES_VIS", "word": "nomad", "wordID": 954, "conditions": [24, 1600, "v", 12000], "trial": 2, "serialpos": 0, "trial_type": "single-stim", "trial_index": 89, "time_elapsed": 556765, "internal_node_id": "0.0-62.0"}}, {"uniqueid": "MTK0599:3XUHV3NRVL5EMBD94CC1JIFD38CH5L", "current_trial": 90, "dateTime": 1511561357670, "trialdata": {"rt": -1, "stimulus": "<p id=\"stim\">CYCLONE</p>", "key_press": -1, "type": "PRES_VIS", "word": "cyclone", "wordID": 430, "conditions": [24, 1600, "v", 12000], "trial": 2, "serialpos": 1, "trial_type": "single-stim", "trial_index": 90, "time_elapsed": 559575, "internal_node_id": "0.0-63.0"}}, {"uniqueid": "MTK0599:3XUHV3NRVL5EMBD94CC1JIFD38CH5L", "current_trial": 91, "dateTime": 1511561360173, "trialdata": {"rt": -1, "stimulus": "<p id=\"stim\">SCARF</p>", "key_press": -1, "type": "PRES_VIS", "word": "scarf", "wordID": 1245, "conditions": [24, 1600, "v", 12000], "trial": 2, "serialpos": 2, "trial_type": "single-stim", "trial_index": 91, "time_elapsed": 562078, "internal_node_id": "0.0-64.0"}}, {"uniqueid": "MTK0599:3XUHV3NRVL5EMBD94CC1JIFD38CH5L", "current_trial": 92, "dateTime": 1511561362782, "trialdata": {"rt": -1, "stimulus": "<p id=\"stim\">CATTLE</p>", "key_press": -1, "type": "PRES_VIS", "word": "cattle", "wordID": 260, "conditions": [24, 1600, "v", 12000], "trial": 2, "serialpos": 3, "trial_type": "single-stim", "trial_index": 92, "time_elapsed": 564687, "internal_node_id": "0.0-65.0"}}, {"uniqueid": "MTK0599:3XUHV3NRVL5EMBD94CC1JIFD38CH5L", "current_trial": 93, "dateTime": 1511561365258, "trialdata": {"rt": -1, "stimulus": "<p id=\"stim\">DANCER</p>", "key_press": -1, "type": "PRES_VIS", "word": "dancer", "wordID": 436, "conditions": [24, 1600, "v", 12000], "trial": 2, "serialpos": 4, "trial_type": "single-stim", "trial_index": 93, "time_elapsed": 567163, "internal_node_id": "0.0-66.0"}}, {"uniqueid": "MTK0599:3XUHV3NRVL5EMBD94CC1JIFD38CH5L", "current_trial": 94, "dateTime": 1511561368008, "trialdata": {"rt": -1, "stimulus": "<p id=\"stim\">DASHBOARD</p>", "key_press": -1, "type": "PRES_VIS", "word": "dashboard", "wordID": 440, "conditions": [24, 1600, "v", 12000], "trial": 2, "serialpos": 5, "trial_type": "single-stim", "trial_index": 94, "time_elapsed": 569913, "internal_node_id": "0.0-67.0"}}, {"uniqueid": "MTK0599:3XUHV3NRVL5EMBD94CC1JIFD38CH5L", "current_trial": 95, "dateTime": 1511561370802, "trialdata": {"rt": -1, "stimulus": "<p id=\"stim\">COUSIN</p>", "key_press": -1, "type": "PRES_VIS", "word": "cousin", "wordID": 391, "conditions": [24, 1600, "v", 12000], "trial": 2, "serialpos": 6, "trial_type": "single-stim", "trial_index": 95, "time_elapsed": 572707, "internal_node_id": "0.0-68.0"}}, {"uniqueid": "MTK0599:3XUHV3NRVL5EMBD94CC1JIFD38CH5L", "current_trial": 96, "dateTime": 1511561373260, "trialdata": {"rt": -1, "stimulus": "<p id=\"stim\">BROTHER</p>", "key_press": -1, "type": "PRES_VIS", "word": "brother", "wordID": 178, "conditions": [24, 1600, "v", 12000], "trial": 2, "serialpos": 7, "trial_type": "single-stim", "trial_index": 96, "time_elapsed": 575165, "internal_node_id": "0.0-69.0"}}, {"uniqueid": "MTK0599:3XUHV3NRVL5EMBD94CC1JIFD38CH5L", "current_trial": 97, "dateTime": 1511561375883, "trialdata": {"rt": -1, "stimulus": "<p id=\"stim\">STUDENT</p>", "key_press": -1, "type": "PRES_VIS", "word": "student", "wordID": 1394, "conditions": [24, 1600, "v", 12000], "trial": 2, "serialpos": 8, "trial_type": "single-stim", "trial_index": 97, "time_elapsed": 577788, "internal_node_id": "0.0-70.0"}}, {"uniqueid": "MTK0599:3XUHV3NRVL5EMBD94CC1JIFD38CH5L", "current_trial": 98, "dateTime": 1511561378400, "trialdata": {"rt": -1, "stimulus": "<p id=\"stim\">CABIN</p>", "key_press": -1, "type": "PRES_VIS", "word": "cabin", "wordID": 210, "conditions": [24, 1600, "v", 12000], "trial": 2, "serialpos": 9, "trial_type": "single-stim", "trial_index": 98, "time_elapsed": 580305, "internal_node_id": "0.0-71.0"}}, {"uniqueid": "MTK0599:3XUHV3NRVL5EMBD94CC1JIFD38CH5L", "current_trial": 99, "dateTime": 1511561381057, "trialdata": {"rt": -1, "stimulus": "<p id=\"stim\">PICNIC</p>", "key_press": -1, "type": "PRES_VIS", "word": "picnic", "wordID": 1059, "conditions": [24, 1600, "v", 12000], "trial": 2, "serialpos": 10, "trial_type": "single-stim", "trial_index": 99, "time_elapsed": 582962, "internal_node_id": "0.0-72.0"}}, {"uniqueid": "MTK0599:3XUHV3NRVL5EMBD94CC1JIFD38CH5L", "current_trial": 100, "dateTime": 1511561383542, "trialdata": {"rt": -1, "stimulus": "<p id=\"stim\">BISON</p>", "key_press": -1, "type": "PRES_VIS", "word": "bison", "wordID": 130, "conditions": [24, 1600, "v", 12000], "trial": 2, "serialpos": 11, "trial_type": "single-stim", "trial_index": 100, "time_elapsed": 585446, "internal_node_id": "0.0-73.0"}}, {"uniqueid": "MTK0599:3XUHV3NRVL5EMBD94CC1JIFD38CH5L", "current_trial": 101, "dateTime": 1511561386215, "trialdata": {"rt": -1, "stimulus": "<p id=\"stim\">CANDY</p>", "key_press": -1, "type": "PRES_VIS", "word": "candy", "wordID": 229, "conditions": [24, 1600, "v", 12000], "trial": 2, "serialpos": 12, "trial_type": "single-stim", "trial_index": 101, "time_elapsed": 588120, "internal_node_id": "0.0-74.0"}}, {"uniqueid": "MTK0599:3XUHV3NRVL5EMBD94CC1JIFD38CH5L", "current_trial": 102, "dateTime": 1511561388884, "trialdata": {"rt": -1, "stimulus": "<p id=\"stim\">ICEBERG</p>", "key_press": -1, "type": "PRES_VIS", "word": "iceberg", "wordID": 730, "conditions": [24, 1600, "v", 12000], "trial": 2, "serialpos": 13, "trial_type": "single-stim", "trial_index": 102, "time_elapsed": 590789, "internal_node_id": "0.0-75.0"}}, {"uniqueid": "MTK0599:3XUHV3NRVL5EMBD94CC1JIFD38CH5L", "current_trial": 103, "dateTime": 1511561391308, "trialdata": {"rt": -1, "stimulus": "<p id=\"stim\">POLICE</p>", "key_press": -1, "type": "PRES_VIS", "word": "police", "wordID": 1097, "conditions": [24, 1600, "v", 12000], "trial": 2, "serialpos": 14, "trial_type": "single-stim", "trial_index": 103, "time_elapsed": 593213, "internal_node_id": "0.0-76.0"}}, {"uniqueid": "MTK0599:3XUHV3NRVL5EMBD94CC1JIFD38CH5L", "current_trial": 104, "dateTime": 1511561394073, "trialdata": {"rt": -1, "stimulus": "<p id=\"stim\">BANK</p>", "key_press": -1, "type": "PRES_VIS", "word": "bank", "wordID": 82, "conditions": [24, 1600, "v", 12000], "trial": 2, "serialpos": 15, "trial_type": "single-stim", "trial_index": 104, "time_elapsed": 595978, "internal_node_id": "0.0-77.0"}}, {"uniqueid": "MTK0599:3XUHV3NRVL5EMBD94CC1JIFD38CH5L", "current_trial": 105, "dateTime": 1511561396604, "trialdata": {"rt": -1, "stimulus": "<p id=\"stim\">GLASS</p>", "key_press": -1, "type": "PRES_VIS", "word": "glass", "wordID": 638, "conditions": [24, 1600, "v", 12000], "trial": 2, "serialpos": 16, "trial_type": "single-stim", "trial_index": 105, "time_elapsed": 598509, "internal_node_id": "0.0-78.0"}}, {"uniqueid": "MTK0599:3XUHV3NRVL5EMBD94CC1JIFD38CH5L", "current_trial": 106, "dateTime": 1511561399368, "trialdata": {"rt": -1, "stimulus": "<p id=\"stim\">PASTA</p>", "key_press": -1, "type": "PRES_VIS", "word": "pasta", "wordID": 1020, "conditions": [24, 1600, "v", 12000], "trial": 2, "serialpos": 17, "trial_type": "single-stim", "trial_index": 106, "time_elapsed": 601273, "internal_node_id": "0.0-79.0"}}, {"uniqueid": "MTK0599:3XUHV3NRVL5EMBD94CC1JIFD38CH5L", "current_trial": 107, "dateTime": 1511561402144, "trialdata": {"rt": -1, "stimulus": "<p id=\"stim\">SHORTCAKE</p>", "key_press": -1, "type": "PRES_VIS", "word": "shortcake", "wordID": 1291, "conditions": [24, 1600, "v", 12000], "trial": 2, "serialpos": 18, "trial_type": "single-stim", "trial_index": 107, "time_elapsed": 604049, "internal_node_id": "0.0-80.0"}}, {"uniqueid": "MTK0599:3XUHV3NRVL5EMBD94CC1JIFD38CH5L", "current_trial": 108, "dateTime": 1511561404604, "trialdata": {"rt": -1, "stimulus": "<p id=\"stim\">BEEF</p>", "key_press": -1, "type": "PRES_VIS", "word": "beef", "wordID": 112, "conditions": [24, 1600, "v", 12000], "trial": 2, "serialpos": 19, "trial_type": "single-stim", "trial_index": 108, "time_elapsed": 606509, "internal_node_id": "0.0-81.0"}}, {"uniqueid": "MTK0599:3XUHV3NRVL5EMBD94CC1JIFD38CH5L", "current_trial": 109, "dateTime": 1511561407385, "trialdata": {"rt": -1, "stimulus": "<p id=\"stim\">DOLPHIN</p>", "key_press": -1, "type": "PRES_VIS", "word": "dolphin", "wordID": 482, "conditions": [24, 1600, "v", 12000], "trial": 2, "serialpos": 20, "trial_type": "single-stim", "trial_index": 109, "time_elapsed": 609289, "internal_node_id": "0.0-82.0"}}, {"uniqueid": "MTK0599:3XUHV3NRVL5EMBD94CC1JIFD38CH5L", "current_trial": 110, "dateTime": 1511561410200, "trialdata": {"rt": -1, "stimulus": "<p id=\"stim\">COBRA</p>", "key_press": -1, "type": "PRES_VIS", "word": "cobra", "wordID": 335, "conditions": [24, 1600, "v", 12000], "trial": 2, "serialpos": 21, "trial_type": "single-stim", "trial_index": 110, "time_elapsed": 612105, "internal_node_id": "0.0-83.0"}}, {"uniqueid": "MTK0599:3XUHV3NRVL5EMBD94CC1JIFD38CH5L", "current_trial": 111, "dateTime": 1511561412871, "trialdata": {"rt": -1, "stimulus": "<p id=\"stim\">LOVER</p>", "key_press": -1, "type": "PRES_VIS", "word": "lover", "wordID": 845, "conditions": [24, 1600, "v", 12000], "trial": 2, "serialpos": 22, "trial_type": "single-stim", "trial_index": 111, "time_elapsed": 614776, "internal_node_id": "0.0-84.0"}}, {"uniqueid": "MTK0599:3XUHV3NRVL5EMBD94CC1JIFD38CH5L", "current_trial": 112, "dateTime": 1511561415298, "trialdata": {"rt": -1, "stimulus": "<p id=\"stim\">PATROL</p>", "key_press": -1, "type": "PRES_VIS", "word": "patrol", "wordID": 1026, "conditions": [24, 1600, "v", 12000], "trial": 2, "serialpos": 23, "trial_type": "single-stim", "trial_index": 112, "time_elapsed": 617203, "internal_node_id": "0.0-85.0"}}, {"uniqueid": "MTK0599:3XUHV3NRVL5EMBD94CC1JIFD38CH5L", "current_trial": 113, "dateTime": 1511561417795, "trialdata": {"rt": -1, "stimulus": "", "key_press": -1, "type": "PRE_RECALL_DELAY", "trial_type": "single-stim", "trial_index": 113, "time_elapsed": 619700, "internal_node_id": "0.0-86.0-0.0"}}, {"uniqueid": "MTK0599:3XUHV3NRVL5EMBD94CC1JIFD38CH5L", "current_trial": 114, "dateTime": 1511561418305, "trialdata": {"rt": -1000, "stimulus": "/static/audio/400Hz.wav", "key_press": -1, "type": "PRE_RECALL_ALERT", "trial_type": "single-audio", "trial_index": 114, "time_elapsed": 620210, "internal_node_id": "0.0-87.0"}}, {"uniqueid": "MTK0599:3XUHV3NRVL5EMBD94CC1JIFD38CH5L", "current_trial": 115, "dateTime": 1511561478369, "trialdata": {"rt": [3460, 4946, 6726, 8929, 12701, 15425, 17859, 19384, 22579, 24894, 29538, 35020, 40528, 43616], "recwords": ["bison", "beef", "scarf", "cup", "cottage", "police", "brother", "cousin", "cyclone", "cabin", "cafe", "student", "cattle", "nomad"], "type": "FREE_RECALL", "conditions": [24, 1600, "v", 12000], "trial": 2, "trial_type": "free-recall", "trial_index": 115, "time_elapsed": 680248, "internal_node_id": "0.0-88.0-0.0"}}, {"uniqueid": "MTK0599:3XUHV3NRVL5EMBD94CC1JIFD38CH5L", "current_trial": 116, "dateTime": 1511561487105, "trialdata": {"rt": 6724, "key_press": 72, "type": "INSTRUCTIONS", "trial_type": "text", "trial_index": 116, "time_elapsed": 689010, "internal_node_id": "0.0-89.0"}}, {"uniqueid": "MTK0599:3XUHV3NRVL5EMBD94CC1JIFD38CH5L", "current_trial": 117, "dateTime": 1511561513146, "trialdata": {"rt": [2526, 6113, 8665, 10880, 13215, 15201, 18268, 21085], "responses": ["17", "15", "15", "6", "19", "12", "16", "6"], "num1": [8, 8, 6, 1, 5, 7, 3, 1, 5], "num2": [8, 6, 3, 2, 5, 4, 8, 1, 7], "num3": [1, 1, 6, 3, 9, 1, 5, 4, 8], "type": "DISTRACTOR", "conditions": [12, 800, "a", 24000], "trial": 3, "trial_type": "math-distractor", "trial_index": 117, "time_elapsed": 715051, "internal_node_id": "0.0-90.0"}}, {"uniqueid": "MTK0599:3XUHV3NRVL5EMBD94CC1JIFD38CH5L", "current_trial": 118, "dateTime": 1511561516154, "trialdata": {"rt": -1, "stimulus": "<p id=\"stim\">10</p>", "key_press": -1, "trial_type": "single-stim", "trial_index": 118, "time_elapsed": 718059, "internal_node_id": "0.0-91.0-0.0"}}, {"uniqueid": "MTK0599:3XUHV3NRVL5EMBD94CC1JIFD38CH5L", "current_trial": 119, "dateTime": 1511561517160, "trialdata": {"rt": -1, "stimulus": "<p id=\"stim\">9</p>", "key_press": -1, "trial_type": "single-stim", "trial_index": 119, "time_elapsed": 719065, "internal_node_id": "0.0-91.0-1.0"}}, {"uniqueid": "MTK0599:3XUHV3NRVL5EMBD94CC1JIFD38CH5L", "current_trial": 120, "dateTime": 1511561518178, "trialdata": {"rt": -1, "stimulus": "<p id=\"stim\">8</p>", "key_press": -1, "trial_type": "single-stim", "trial_index": 120, "time_elapsed": 720083, "internal_node_id": "0.0-91.0-2.0"}}, {"uniqueid": "MTK0599:3XUHV3NRVL5EMBD94CC1JIFD38CH5L", "current_trial": 121, "dateTime": 1511561519183, "trialdata": {"rt": -1, "stimulus": "<p id=\"stim\">7</p>", "key_press": -1, "trial_type": "single-stim", "trial_index": 121, "time_elapsed": 721088, "internal_node_id": "0.0-91.0-3.0"}}, {"uniqueid": "MTK0599:3XUHV3NRVL5EMBD94CC1JIFD38CH5L", "current_trial": 122, "dateTime": 1511561520202, "trialdata": {"rt": -1, "stimulus": "<p id=\"stim\">6</p>", "key_press": -1, "trial_type": "single-stim", "trial_index": 122, "time_elapsed": 722107, "internal_node_id": "0.0-91.0-4.0"}}, {"uniqueid": "MTK0599:3XUHV3NRVL5EMBD94CC1JIFD38CH5L", "current_trial": 123, "dateTime": 1511561521221, "trialdata": {"rt": -1, "stimulus": "<p id=\"stim\">5</p>", "key_press": -1, "trial_type": "single-stim", "trial_index": 123, "time_elapsed": 723126, "internal_node_id": "0.0-91.0-5.0"}}, {"uniqueid": "MTK0599:3XUHV3NRVL5EMBD94CC1JIFD38CH5L", "current_trial": 124, "dateTime": 1511561522226, "trialdata": {"rt": -1, "stimulus": "<p id=\"stim\">4</p>", "key_press": -1, "trial_type": "single-stim", "trial_index": 124, "time_elapsed": 724131, "internal_node_id": "0.0-91.0-6.0"}}, {"uniqueid": "MTK0599:3XUHV3NRVL5EMBD94CC1JIFD38CH5L", "current_trial": 125, "dateTime": 1511561523231, "trialdata": {"rt": -1, "stimulus": "<p id=\"stim\">3</p>", "key_press": -1, "trial_type": "single-stim", "trial_index": 125, "time_elapsed": 725136, "internal_node_id": "0.0-91.0-7.0"}}, {"uniqueid": "MTK0599:3XUHV3NRVL5EMBD94CC1JIFD38CH5L", "current_trial": 126, "dateTime": 1511561524233, "trialdata": {"rt": -1, "stimulus": "<p id=\"stim\">2</p>", "key_press": -1, "trial_type": "single-stim", "trial_index": 126, "time_elapsed": 726139, "internal_node_id": "0.0-91.0-8.0"}}, {"uniqueid": "MTK0599:3XUHV3NRVL5EMBD94CC1JIFD38CH5L", "current_trial": 127, "dateTime": 1511561525241, "trialdata": {"rt": -1, "stimulus": "<p id=\"stim\">1</p>", "key_press": -1, "trial_type": "single-stim", "trial_index": 127, "time_elapsed": 727146, "internal_node_id": "0.0-91.0-9.0"}}, {"uniqueid": "MTK0599:3XUHV3NRVL5EMBD94CC1JIFD38CH5L", "current_trial": 128, "dateTime": 1511561526754, "trialdata": {"rt": -1, "stimulus": "<p id=\"stim\">+</p>", "key_press": -1, "type": "FIXATION", "trial_type": "single-stim", "trial_index": 128, "time_elapsed": 728658, "internal_node_id": "0.0-92.0-0.0"}}, {"uniqueid": "MTK0599:3XUHV3NRVL5EMBD94CC1JIFD38CH5L", "current_trial": 129, "dateTime": 1511561528375, "trialdata": {"rt": -1000, "stimulus": "/static/audio/wordpool/XEROX.wav", "key_press": -1, "type": "PRES_AUD", "word": "xerox", "wordID": 1627, "conditions": [12, 800, "a", 24000], "trial": 3, "serialpos": 0, "trial_type": "single-audio", "trial_index": 129, "time_elapsed": 730280, "internal_node_id": "0.0-93.0"}}, {"uniqueid": "MTK0599:3XUHV3NRVL5EMBD94CC1JIFD38CH5L", "current_trial": 130, "dateTime": 1511561530121, "trialdata": {"rt": -1000, "stimulus": "/static/audio/wordpool/PRINCESS.wav", "key_press": -1, "type": "PRES_AUD", "word": "princess", "wordID": 1124, "conditions": [12, 800, "a", 24000], "trial": 3, "serialpos": 1, "trial_type": "single-audio", "trial_index": 130, "time_elapsed": 732024, "internal_node_id": "0.0-94.0"}}, {"uniqueid": "MTK0599:3XUHV3NRVL5EMBD94CC1JIFD38CH5L", "current_trial": 131, "dateTime": 1511561531993, "trialdata": {"rt": -1000, "stimulus": "/static/audio/wordpool/FOREST.wav", "key_press": -1, "type": "PRES_AUD", "word": "forest", "wordID": 592, "conditions": [12, 800, "a", 24000], "trial": 3, "serialpos": 2, "trial_type": "single-audio", "trial_index": 131, "time_elapsed": 733898, "internal_node_id": "0.0-95.0"}}, {"uniqueid": "MTK0599:3XUHV3NRVL5EMBD94CC1JIFD38CH5L", "current_trial": 132, "dateTime": 1511561533856, "trialdata": {"rt": -1000, "stimulus": "/static/audio/wordpool/CRAB.wav", "key_press": -1, "type": "PRES_AUD", "word": "crab", "wordID": 396, "conditions": [12, 800, "a", 24000], "trial": 3, "serialpos": 3, "trial_type": "single-audio", "trial_index": 132, "time_elapsed": 735761, "internal_node_id": "0.0-96.0"}}, {"uniqueid": "MTK0599:3XUHV3NRVL5EMBD94CC1JIFD38CH5L", "current_trial": 133, "dateTime": 1511561535480, "trialdata": {"rt": -1000, "stimulus": "/static/audio/wordpool/ASIA.wav", "key_press": -1, "type": "PRES_AUD", "word": "asia", "wordID": 45, "conditions": [12, 800, "a", 24000], "trial": 3, "serialpos": 4, "trial_type": "single-audio", "trial_index": 133, "time_elapsed": 737385, "internal_node_id": "0.0-97.0"}}, {"uniqueid": "MTK0599:3XUHV3NRVL5EMBD94CC1JIFD38CH5L", "current_trial": 134, "dateTime": 1511561537425, "trialdata": {"rt": -1000, "stimulus": "/static/audio/wordpool/HOUND.wav", "key_press": -1, "type": "PRES_AUD", "word": "hound", "wordID": 723, "conditions": [12, 800, "a", 24000], "trial": 3, "serialpos": 5, "trial_type": "single-audio", "trial_index": 134, "time_elapsed": 739330, "internal_node_id": "0.0-98.0"}}, {"uniqueid": "MTK0599:3XUHV3NRVL5EMBD94CC1JIFD38CH5L", "current_trial": 135, "dateTime": 1511561539172, "trialdata": {"rt": -1000, "stimulus": "/static/audio/wordpool/LILY.wav", "key_press": -1, "type": "PRES_AUD", "word": "lily", "wordID": 820, "conditions": [12, 800, "a", 24000], "trial": 3, "serialpos": 6, "trial_type": "single-audio", "trial_index": 135, "time_elapsed": 741077, "internal_node_id": "0.0-99.0"}}, {"uniqueid": "MTK0599:3XUHV3NRVL5EMBD94CC1JIFD38CH5L", "current_trial": 136, "dateTime": 1511561541024, "trialdata": {"rt": -1000, "stimulus": "/static/audio/wordpool/TROUT.wav", "key_press": -1, "type": "PRES_AUD", "word": "trout", "wordID": 1510, "conditions": [12, 800, "a", 24000], "trial": 3, "serialpos": 7, "trial_type": "single-audio", "trial_index": 136, "time_elapsed": 742929, "internal_node_id": "0.0-100.0"}}, {"uniqueid": "MTK0599:3XUHV3NRVL5EMBD94CC1JIFD38CH5L", "current_trial": 137, "dateTime": 1511561543034, "trialdata": {"rt": -1000, "stimulus": "/static/audio/wordpool/TRUCK.wav", "key_press": -1, "type": "PRES_AUD", "word": "truck", "wordID": 1511, "conditions": [12, 800, "a", 24000], "trial": 3, "serialpos": 8, "trial_type": "single-audio", "trial_index": 137, "time_elapsed": 744938, "internal_node_id": "0.0-101.0"}}, {"uniqueid": "MTK0599:3XUHV3NRVL5EMBD94CC1JIFD38CH5L", "current_trial": 138, "dateTime": 1511561545040, "trialdata": {"rt": -1000, "stimulus": "/static/audio/wordpool/DRIVER.wav", "key_press": -1, "type": "PRES_AUD", "word": "driver", "wordID": 498, "conditions": [12, 800, "a", 24000], "trial": 3, "serialpos": 9, "trial_type": "single-audio", "trial_index": 138, "time_elapsed": 746944, "internal_node_id": "0.0-102.0"}}, {"uniqueid": "MTK0599:3XUHV3NRVL5EMBD94CC1JIFD38CH5L", "current_trial": 139, "dateTime": 1511561546691, "trialdata": {"rt": -1000, "stimulus": "/static/audio/wordpool/SPHINX.wav", "key_press": -1, "type": "PRES_AUD", "word": "sphinx", "wordID": 1348, "conditions": [12, 800, "a", 24000], "trial": 3, "serialpos": 10, "trial_type": "single-audio", "trial_index": 139, "time_elapsed": 748596, "internal_node_id": "0.0-103.0"}}, {"uniqueid": "MTK0599:3XUHV3NRVL5EMBD94CC1JIFD38CH5L", "current_trial": 140, "dateTime": 1511561548454, "trialdata": {"rt": -1000, "stimulus": "/static/audio/wordpool/EUROPE.wav", "key_press": -1, "type": "PRES_AUD", "word": "europe", "wordID": 540, "conditions": [12, 800, "a", 24000], "trial": 3, "serialpos": 11, "trial_type": "single-audio", "trial_index": 140, "time_elapsed": 750359, "internal_node_id": "0.0-104.0"}}, {"uniqueid": "MTK0599:3XUHV3NRVL5EMBD94CC1JIFD38CH5L", "current_trial": 141, "dateTime": 1511561549844, "trialdata": {"rt": -1, "stimulus": "", "key_press": -1, "type": "PRE_RECALL_DELAY", "trial_type": "single-stim", "trial_index": 141, "time_elapsed": 751749, "internal_node_id": "0.0-105.0-0.0"}}, {"uniqueid": "MTK0599:3XUHV3NRVL5EMBD94CC1JIFD38CH5L", "current_trial": 142, "dateTime": 1511561550354, "trialdata": {"rt": -1000, "stimulus": "/static/audio/400Hz.wav", "key_press": -1, "type": "PRE_RECALL_ALERT", "trial_type": "single-audio", "trial_index": 142, "time_elapsed": 752259, "internal_node_id": "0.0-106.0"}}, {"uniqueid": "MTK0599:3XUHV3NRVL5EMBD94CC1JIFD38CH5L", "current_trial": 143, "dateTime": 1511561610421, "trialdata": {"rt": [4202, 5927, 7443, 8892, 12631, 19848, 25307, 31555, 48592], "recwords": ["spinx", "europe", "driver", "hound", "zerox", "lily", "asia", "princess", "truck"], "type": "FREE_RECALL", "conditions": [12, 800, "a", 24000], "trial": 3, "trial_type": "free-recall", "trial_index": 143, "time_elapsed": 812297, "internal_node_id": "0.0-107.0-0.0"}}, {"uniqueid": "MTK0599:3XUHV3NRVL5EMBD94CC1JIFD38CH5L", "current_trial": 144, "dateTime": 1511561614673, "trialdata": {"rt": 2239, "key_press": 71, "type": "INSTRUCTIONS", "trial_type": "text", "trial_index": 144, "time_elapsed": 816578, "internal_node_id": "0.0-108.0"}}, {"uniqueid": "MTK0599:3XUHV3NRVL5EMBD94CC1JIFD38CH5L", "current_trial": 145, "dateTime": 1511561640705, "trialdata": {"rt": [2918, 5172, 7329, 10234, 14659, 17468, 20487, 22518], "responses": ["10", "12", "11", "9", "17", "13", "10", "8"], "num1": [2, 3, 3, 4, 5, 5, 4, 1, 1], "num2": [2, 7, 7, 4, 8, 7, 1, 1, 1], "num3": [6, 2, 1, 5, 4, 1, 5, 6, 2], "type": "DISTRACTOR", "conditions": [12, 800, "v", 24000], "trial": 4, "trial_type": "math-distractor", "trial_index": 145, "time_elapsed": 842608, "internal_node_id": "0.0-109.0"}}, {"uniqueid": "MTK0599:3XUHV3NRVL5EMBD94CC1JIFD38CH5L", "current_trial": 146, "dateTime": 1511561643716, "trialdata": {"rt": -1, "stimulus": "<p id=\"stim\">10</p>", "key_press": -1, "trial_type": "single-stim", "trial_index": 146, "time_elapsed": 845621, "internal_node_id": "0.0-110.0-0.0"}}, {"uniqueid": "MTK0599:3XUHV3NRVL5EMBD94CC1JIFD38CH5L", "current_trial": 147, "dateTime": 1511561644735, "trialdata": {"rt": -1, "stimulus": "<p id=\"stim\">9</p>", "key_press": -1, "trial_type": "single-stim", "trial_index": 147, "time_elapsed": 846640, "internal_node_id": "0.0-110.0-1.0"}}, {"uniqueid": "MTK0599:3XUHV3NRVL5EMBD94CC1JIFD38CH5L", "current_trial": 148, "dateTime": 1511561645753, "trialdata": {"rt": -1, "stimulus": "<p id=\"stim\">8</p>", "key_press": -1, "trial_type": "single-stim", "trial_index": 148, "time_elapsed": 847658, "internal_node_id": "0.0-110.0-2.0"}}, {"uniqueid": "MTK0599:3XUHV3NRVL5EMBD94CC1JIFD38CH5L", "current_trial": 149, "dateTime": 1511561646770, "trialdata": {"rt": -1, "stimulus": "<p id=\"stim\">7</p>", "key_press": -1, "trial_type": "single-stim", "trial_index": 149, "time_elapsed": 848676, "internal_node_id": "0.0-110.0-3.0"}}, {"uniqueid": "MTK0599:3XUHV3NRVL5EMBD94CC1JIFD38CH5L", "current_trial": 150, "dateTime": 1511561647780, "trialdata": {"rt": -1, "stimulus": "<p id=\"stim\">6</p>", "key_press": -1, "trial_type": "single-stim", "trial_index": 150, "time_elapsed": 849685, "internal_node_id": "0.0-110.0-4.0"}}, {"uniqueid": "MTK0599:3XUHV3NRVL5EMBD94CC1JIFD38CH5L", "current_trial": 151, "dateTime": 1511561648799, "trialdata": {"rt": -1, "stimulus": "<p id=\"stim\">5</p>", "key_press": -1, "trial_type": "single-stim", "trial_index": 151, "time_elapsed": 850704, "internal_node_id": "0.0-110.0-5.0"}}, {"uniqueid": "MTK0599:3XUHV3NRVL5EMBD94CC1JIFD38CH5L", "current_trial": 152, "dateTime": 1511561649804, "trialdata": {"rt": -1, "stimulus": "<p id=\"stim\">4</p>", "key_press": -1, "trial_type": "single-stim", "trial_index": 152, "time_elapsed": 851709, "internal_node_id": "0.0-110.0-6.0"}}, {"uniqueid": "MTK0599:3XUHV3NRVL5EMBD94CC1JIFD38CH5L", "current_trial": 153, "dateTime": 1511561650822, "trialdata": {"rt": -1, "stimulus": "<p id=\"stim\">3</p>", "key_press": -1, "trial_type": "single-stim", "trial_index": 153, "time_elapsed": 852727, "internal_node_id": "0.0-110.0-7.0"}}, {"uniqueid": "MTK0599:3XUHV3NRVL5EMBD94CC1JIFD38CH5L", "current_trial": 154, "dateTime": 1511561651843, "trialdata": {"rt": -1, "stimulus": "<p id=\"stim\">2</p>", "key_press": -1, "trial_type": "single-stim", "trial_index": 154, "time_elapsed": 853747, "internal_node_id": "0.0-110.0-8.0"}}, {"uniqueid": "MTK0599:3XUHV3NRVL5EMBD94CC1JIFD38CH5L", "current_trial": 155, "dateTime": 1511561652862, "trialdata": {"rt": -1, "stimulus": "<p id=\"stim\">1</p>", "key_press": -1, "trial_type": "single-stim", "trial_index": 155, "time_elapsed": 854767, "internal_node_id": "0.0-110.0-9.0"}}, {"uniqueid": "MTK0599:3XUHV3NRVL5EMBD94CC1JIFD38CH5L", "current_trial": 156, "dateTime": 1511561654376, "trialdata": {"rt": -1, "stimulus": "<p id=\"stim\">+</p>", "key_press": -1, "type": "FIXATION", "trial_type": "single-stim", "trial_index": 156, "time_elapsed": 856281, "internal_node_id": "0.0-111.0-0.0"}}, {"uniqueid": "MTK0599:3XUHV3NRVL5EMBD94CC1JIFD38CH5L", "current_trial": 157, "dateTime": 1511561655194, "trialdata": {"rt": -1, "stimulus": "<p id=\"stim\">SALT</p>", "key_press": -1, "type": "PRES_VIS", "word": "salt", "wordID": 1228, "conditions": [12, 800, "v", 24000], "trial": 4, "serialpos": 0, "trial_type": "single-stim", "trial_index": 157, "time_elapsed": 857098, "internal_node_id": "0.0-112.0"}}, {"uniqueid": "MTK0599:3XUHV3NRVL5EMBD94CC1JIFD38CH5L", "current_trial": 158, "dateTime": 1511561657183, "trialdata": {"rt": -1, "stimulus": "<p id=\"stim\">MISTER</p>", "key_press": -1, "type": "PRES_VIS", "word": "mister", "wordID": 900, "conditions": [12, 800, "v", 24000], "trial": 4, "serialpos": 1, "trial_type": "single-stim", "trial_index": 158, "time_elapsed": 859088, "internal_node_id": "0.0-113.0"}}, {"uniqueid": "MTK0599:3XUHV3NRVL5EMBD94CC1JIFD38CH5L", "current_trial": 159, "dateTime": 1511561658853, "trialdata": {"rt": -1, "stimulus": "<p id=\"stim\">PARSLEY</p>", "key_press": -1, "type": "PRES_VIS", "word": "parsley", "wordID": 1015, "conditions": [12, 800, "v", 24000], "trial": 4, "serialpos": 2, "trial_type": "single-stim", "trial_index": 159, "time_elapsed": 860757, "internal_node_id": "0.0-114.0"}}, {"uniqueid": "MTK0599:3XUHV3NRVL5EMBD94CC1JIFD38CH5L", "current_trial": 160, "dateTime": 1511561660798, "trialdata": {"rt": -1, "stimulus": "<p id=\"stim\">SPARROW</p>", "key_press": -1, "type": "PRES_VIS", "word": "sparrow", "wordID": 1346, "conditions": [12, 800, "v", 24000], "trial": 4, "serialpos": 3, "trial_type": "single-stim", "trial_index": 160, "time_elapsed": 862703, "internal_node_id": "0.0-115.0"}}, {"uniqueid": "MTK0599:3XUHV3NRVL5EMBD94CC1JIFD38CH5L", "current_trial": 161, "dateTime": 1511561662545, "trialdata": {"rt": -1, "stimulus": "<p id=\"stim\">ROBIN</p>", "key_press": -1, "type": "PRES_VIS", "word": "robin", "wordID": 1198, "conditions": [12, 800, "v", 24000], "trial": 4, "serialpos": 4, "trial_type": "single-stim", "trial_index": 161, "time_elapsed": 864450, "internal_node_id": "0.0-116.0"}}, {"uniqueid": "MTK0599:3XUHV3NRVL5EMBD94CC1JIFD38CH5L", "current_trial": 162, "dateTime": 1511561664473, "trialdata": {"rt": -1, "stimulus": "<p id=\"stim\">DAUGHTER</p>", "key_press": -1, "type": "PRES_VIS", "word": "daughter", "wordID": 441, "conditions": [12, 800, "v", 24000], "trial": 4, "serialpos": 5, "trial_type": "single-stim", "trial_index": 162, "time_elapsed": 866377, "internal_node_id": "0.0-117.0"}}, {"uniqueid": "MTK0599:3XUHV3NRVL5EMBD94CC1JIFD38CH5L", "current_trial": 163, "dateTime": 1511561666294, "trialdata": {"rt": -1, "stimulus": "<p id=\"stim\">CHAMPAGNE</p>", "key_press": -1, "type": "PRES_VIS", "word": "champagne", "wordID": 277, "conditions": [12, 800, "v", 24000], "trial": 4, "serialpos": 6, "trial_type": "single-stim", "trial_index": 163, "time_elapsed": 868198, "internal_node_id": "0.0-118.0"}}, {"uniqueid": "MTK0599:3XUHV3NRVL5EMBD94CC1JIFD38CH5L", "current_trial": 164, "dateTime": 1511561668133, "trialdata": {"rt": -1, "stimulus": "<p id=\"stim\">STALLION</p>", "key_press": -1, "type": "PRES_VIS", "word": "stallion", "wordID": 1368, "conditions": [12, 800, "v", 24000], "trial": 4, "serialpos": 7, "trial_type": "single-stim", "trial_index": 164, "time_elapsed": 870037, "internal_node_id": "0.0-119.0"}}, {"uniqueid": "MTK0599:3XUHV3NRVL5EMBD94CC1JIFD38CH5L", "current_trial": 165, "dateTime": 1511561669926, "trialdata": {"rt": -1, "stimulus": "<p id=\"stim\">RECORD</p>", "key_press": -1, "type": "PRES_VIS", "word": "record", "wordID": 1175, "conditions": [12, 800, "v", 24000], "trial": 4, "serialpos": 8, "trial_type": "single-stim", "trial_index": 165, "time_elapsed": 871831, "internal_node_id": "0.0-120.0"}}, {"uniqueid": "MTK0599:3XUHV3NRVL5EMBD94CC1JIFD38CH5L", "current_trial": 166, "dateTime": 1511561671826, "trialdata": {"rt": -1, "stimulus": "<p id=\"stim\">GIRL</p>", "key_press": -1, "type": "PRES_VIS", "word": "girl", "wordID": 636, "conditions": [12, 800, "v", 24000], "trial": 4, "serialpos": 9, "trial_type": "single-stim", "trial_index": 166, "time_elapsed": 873730, "internal_node_id": "0.0-121.0"}}, {"uniqueid": "MTK0599:3XUHV3NRVL5EMBD94CC1JIFD38CH5L", "current_trial": 167, "dateTime": 1511561673713, "trialdata": {"rt": -1, "stimulus": "<p id=\"stim\">TWIG</p>", "key_press": -1, "type": "PRES_VIS", "word": "twig", "wordID": 1526, "conditions": [12, 800, "v", 24000], "trial": 4, "serialpos": 10, "trial_type": "single-stim", "trial_index": 167, "time_elapsed": 875618, "internal_node_id": "0.0-122.0"}}, {"uniqueid": "MTK0599:3XUHV3NRVL5EMBD94CC1JIFD38CH5L", "current_trial": 168, "dateTime": 1511561675673, "trialdata": {"rt": -1, "stimulus": "<p id=\"stim\">GRAPE</p>", "key_press": -1, "type": "PRES_VIS", "word": "grape", "wordID": 653, "conditions": [12, 800, "v", 24000], "trial": 4, "serialpos": 11, "trial_type": "single-stim", "trial_index": 168, "time_elapsed": 877578, "internal_node_id": "0.0-123.0"}}, {"uniqueid": "MTK0599:3XUHV3NRVL5EMBD94CC1JIFD38CH5L", "current_trial": 169, "dateTime": 1511561678007, "trialdata": {"rt": -1, "stimulus": "", "key_press": -1, "type": "PRE_RECALL_DELAY", "trial_type": "single-stim", "trial_index": 169, "time_elapsed": 879912, "internal_node_id": "0.0-124.0-0.0"}}, {"uniqueid": "MTK0599:3XUHV3NRVL5EMBD94CC1JIFD38CH5L", "current_trial": 170, "dateTime": 1511561678515, "trialdata": {"rt": -1000, "stimulus": "/static/audio/400Hz.wav", "key_press": -1, "type": "PRE_RECALL_ALERT", "trial_type": "single-audio", "trial_index": 170, "time_elapsed": 880420, "internal_node_id": "0.0-125.0"}}, {"uniqueid": "MTK0599:3XUHV3NRVL5EMBD94CC1JIFD38CH5L", "current_trial": 171, "dateTime": 1511561738589, "trialdata": {"rt": [2881, 5846, 8678, 21125, 30276], "recwords": ["twig", "grape", "salt", "sparrow", "record"], "type": "FREE_RECALL", "conditions": [12, 800, "v", 24000], "trial": 4, "trial_type": "free-recall", "trial_index": 171, "time_elapsed": 940458, "internal_node_id": "0.0-126.0-0.0"}}, {"uniqueid": "MTK0599:3XUHV3NRVL5EMBD94CC1JIFD38CH5L", "current_trial": 172, "dateTime": 1511561748041, "trialdata": {"rt": 7445, "key_press": 72, "type": "INSTRUCTIONS", "trial_type": "text", "trial_index": 172, "time_elapsed": 949946, "internal_node_id": "0.0-127.0"}}, {"uniqueid": "MTK0599:3XUHV3NRVL5EMBD94CC1JIFD38CH5L", "current_trial": 173, "dateTime": 1511561762093, "trialdata": {"rt": [2632, 5686, 7480, 9788], "responses": ["10", "22", "11", "12"], "num1": [3, 6, 7, 3, 5], "num2": [5, 8, 1, 6, 6], "num3": [2, 8, 3, 3, 9], "type": "DISTRACTOR", "conditions": [12, 1600, "a", 12000], "trial": 5, "trial_type": "math-distractor", "trial_index": 173, "time_elapsed": 963998, "internal_node_id": "0.0-128.0"}}, {"uniqueid": "MTK0599:3XUHV3NRVL5EMBD94CC1JIFD38CH5L", "current_trial": 174, "dateTime": 1511561765104, "trialdata": {"rt": -1, "stimulus": "<p id=\"stim\">10</p>", "key_press": -1, "trial_type": "single-stim", "trial_index": 174, "time_elapsed": 967010, "internal_node_id": "0.0-129.0-0.0"}}, {"uniqueid": "MTK0599:3XUHV3NRVL5EMBD94CC1JIFD38CH5L", "current_trial": 175, "dateTime": 1511561766109, "trialdata": {"rt": -1, "stimulus": "<p id=\"stim\">9</p>", "key_press": -1, "trial_type": "single-stim", "trial_index": 175, "time_elapsed": 968013, "internal_node_id": "0.0-129.0-1.0"}}, {"uniqueid": "MTK0599:3XUHV3NRVL5EMBD94CC1JIFD38CH5L", "current_trial": 176, "dateTime": 1511561767116, "trialdata": {"rt": -1, "stimulus": "<p id=\"stim\">8</p>", "key_press": -1, "trial_type": "single-stim", "trial_index": 176, "time_elapsed": 969020, "internal_node_id": "0.0-129.0-2.0"}}, {"uniqueid": "MTK0599:3XUHV3NRVL5EMBD94CC1JIFD38CH5L", "current_trial": 177, "dateTime": 1511561768136, "trialdata": {"rt": -1, "stimulus": "<p id=\"stim\">7</p>", "key_press": -1, "trial_type": "single-stim", "trial_index": 177, "time_elapsed": 970040, "internal_node_id": "0.0-129.0-3.0"}}, {"uniqueid": "MTK0599:3XUHV3NRVL5EMBD94CC1JIFD38CH5L", "current_trial": 178, "dateTime": 1511561769141, "trialdata": {"rt": -1, "stimulus": "<p id=\"stim\">6</p>", "key_press": -1, "trial_type": "single-stim", "trial_index": 178, "time_elapsed": 971046, "internal_node_id": "0.0-129.0-4.0"}}, {"uniqueid": "MTK0599:3XUHV3NRVL5EMBD94CC1JIFD38CH5L", "current_trial": 179, "dateTime": 1511561770146, "trialdata": {"rt": -1, "stimulus": "<p id=\"stim\">5</p>", "key_press": -1, "trial_type": "single-stim", "trial_index": 179, "time_elapsed": 972050, "internal_node_id": "0.0-129.0-5.0"}}, {"uniqueid": "MTK0599:3XUHV3NRVL5EMBD94CC1JIFD38CH5L", "current_trial": 180, "dateTime": 1511561771163, "trialdata": {"rt": -1, "stimulus": "<p id=\"stim\">4</p>", "key_press": -1, "trial_type": "single-stim", "trial_index": 180, "time_elapsed": 973068, "internal_node_id": "0.0-129.0-6.0"}}, {"uniqueid": "MTK0599:3XUHV3NRVL5EMBD94CC1JIFD38CH5L", "current_trial": 181, "dateTime": 1511561772188, "trialdata": {"rt": -1, "stimulus": "<p id=\"stim\">3</p>", "key_press": -1, "trial_type": "single-stim", "trial_index": 181, "time_elapsed": 974091, "internal_node_id": "0.0-129.0-7.0"}}, {"uniqueid": "MTK0599:3XUHV3NRVL5EMBD94CC1JIFD38CH5L", "current_trial": 182, "dateTime": 1511561773202, "trialdata": {"rt": -1, "stimulus": "<p id=\"stim\">2</p>", "key_press": -1, "trial_type": "single-stim", "trial_index": 182, "time_elapsed": 975107, "internal_node_id": "0.0-129.0-8.0"}}, {"uniqueid": "MTK0599:3XUHV3NRVL5EMBD94CC1JIFD38CH5L", "current_trial": 183, "dateTime": 1511561774208, "trialdata": {"rt": -1, "stimulus": "<p id=\"stim\">1</p>", "key_press": -1, "trial_type": "single-stim", "trial_index": 183, "time_elapsed": 976113, "internal_node_id": "0.0-129.0-9.0"}}, {"uniqueid": "MTK0599:3XUHV3NRVL5EMBD94CC1JIFD38CH5L", "current_trial": 184, "dateTime": 1511561775721, "trialdata": {"rt": -1, "stimulus": "<p id=\"stim\">+</p>", "key_press": -1, "type": "FIXATION", "trial_type": "single-stim", "trial_index": 184, "time_elapsed": 977626, "internal_node_id": "0.0-130.0-0.0"}}, {"uniqueid": "MTK0599:3XUHV3NRVL5EMBD94CC1JIFD38CH5L", "current_trial": 185, "dateTime": 1511561778212, "trialdata": {"rt": -1000, "stimulus": "/static/audio/wordpool/COUCH.wav", "key_press": -1, "type": "PRES_AUD", "word": "couch", "wordID": 385, "conditions": [12, 1600, "a", 12000], "trial": 5, "serialpos": 0, "trial_type": "single-audio", "trial_index": 185, "time_elapsed": 980116, "internal_node_id": "0.0-131.0"}}, {"uniqueid": "MTK0599:3XUHV3NRVL5EMBD94CC1JIFD38CH5L", "current_trial": 186, "dateTime": 1511561780994, "trialdata": {"rt": -1000, "stimulus": "/static/audio/wordpool/MATTRESS.wav", "key_press": -1, "type": "PRES_AUD", "word": "mattress", "wordID": 878, "conditions": [12, 1600, "a", 12000], "trial": 5, "serialpos": 1, "trial_type": "single-audio", "trial_index": 186, "time_elapsed": 982899, "internal_node_id": "0.0-132.0"}}, {"uniqueid": "MTK0599:3XUHV3NRVL5EMBD94CC1JIFD38CH5L", "current_trial": 187, "dateTime": 1511561783608, "trialdata": {"rt": -1000, "stimulus": "/static/audio/wordpool/WASP.wav", "key_press": -1, "type": "PRES_AUD", "word": "wasp", "wordID": 1592, "conditions": [12, 1600, "a", 12000], "trial": 5, "serialpos": 2, "trial_type": "single-audio", "trial_index": 187, "time_elapsed": 985512, "internal_node_id": "0.0-133.0"}}, {"uniqueid": "MTK0599:3XUHV3NRVL5EMBD94CC1JIFD38CH5L", "current_trial": 188, "dateTime": 1511561786421, "trialdata": {"rt": -1000, "stimulus": "/static/audio/wordpool/DENIM.wav", "key_press": -1, "type": "PRES_AUD", "word": "denim", "wordID": 445, "conditions": [12, 1600, "a", 12000], "trial": 5, "serialpos": 3, "trial_type": "single-audio", "trial_index": 188, "time_elapsed": 988326, "internal_node_id": "0.0-134.0"}}, {"uniqueid": "MTK0599:3XUHV3NRVL5EMBD94CC1JIFD38CH5L", "current_trial": 189, "dateTime": 1511561789124, "trialdata": {"rt": -1000, "stimulus": "/static/audio/wordpool/DIME.wav", "key_press": -1, "type": "PRES_AUD", "word": "dime", "wordID": 465, "conditions": [12, 1600, "a", 12000], "trial": 5, "serialpos": 4, "trial_type": "single-audio", "trial_index": 189, "time_elapsed": 991029, "internal_node_id": "0.0-135.0"}}, {"uniqueid": "MTK0599:3XUHV3NRVL5EMBD94CC1JIFD38CH5L", "current_trial": 190, "dateTime": 1511561791565, "trialdata": {"rt": -1000, "stimulus": "/static/audio/wordpool/CAMEL.wav", "key_press": -1, "type": "PRES_AUD", "word": "camel", "wordID": 222, "conditions": [12, 1600, "a", 12000], "trial": 5, "serialpos": 5, "trial_type": "single-audio", "trial_index": 190, "time_elapsed": 993470, "internal_node_id": "0.0-136.0"}}, {"uniqueid": "MTK0599:3XUHV3NRVL5EMBD94CC1JIFD38CH5L", "current_trial": 191, "dateTime": 1511561794254, "trialdata": {"rt": -1000, "stimulus": "/static/audio/wordpool/MILK.wav", "key_press": -1, "type": "PRES_AUD", "word": "milk", "wordID": 894, "conditions": [12, 1600, "a", 12000], "trial": 5, "serialpos": 6, "trial_type": "single-audio", "trial_index": 191, "time_elapsed": 996159, "internal_node_id": "0.0-137.0"}}, {"uniqueid": "MTK0599:3XUHV3NRVL5EMBD94CC1JIFD38CH5L", "current_trial": 192, "dateTime": 1511561796896, "trialdata": {"rt": -1000, "stimulus": "/static/audio/wordpool/BREAST.wav", "key_press": -1, "type": "PRES_AUD", "word": "breast", "wordID": 170, "conditions": [12, 1600, "a", 12000], "trial": 5, "serialpos": 7, "trial_type": "single-audio", "trial_index": 192, "time_elapsed": 998801, "internal_node_id": "0.0-138.0"}}, {"uniqueid": "MTK0599:3XUHV3NRVL5EMBD94CC1JIFD38CH5L", "current_trial": 193, "dateTime": 1511561799493, "trialdata": {"rt": -1000, "stimulus": "/static/audio/wordpool/SKETCH.wav", "key_press": -1, "type": "PRES_AUD", "word": "sketch", "wordID": 1314, "conditions": [12, 1600, "a", 12000], "trial": 5, "serialpos": 8, "trial_type": "single-audio", "trial_index": 193, "time_elapsed": 1001397, "internal_node_id": "0.0-139.0"}}, {"uniqueid": "MTK0599:3XUHV3NRVL5EMBD94CC1JIFD38CH5L", "current_trial": 194, "dateTime": 1511561802118, "trialdata": {"rt": -1000, "stimulus": "/static/audio/wordpool/DONKEY.wav", "key_press": -1, "type": "PRES_AUD", "word": "donkey", "wordID": 483, "conditions": [12, 1600, "a", 12000], "trial": 5, "serialpos": 9, "trial_type": "single-audio", "trial_index": 194, "time_elapsed": 1004022, "internal_node_id": "0.0-140.0"}}, {"uniqueid": "MTK0599:3XUHV3NRVL5EMBD94CC1JIFD38CH5L", "current_trial": 195, "dateTime": 1511561804577, "trialdata": {"rt": -1000, "stimulus": "/static/audio/wordpool/RABBIT.wav", "key_press": -1, "type": "PRES_AUD", "word": "rabbit", "wordID": 1151, "conditions": [12, 1600, "a", 12000], "trial": 5, "serialpos": 10, "trial_type": "single-audio", "trial_index": 195, "time_elapsed": 1006482, "internal_node_id": "0.0-141.0"}}, {"uniqueid": "MTK0599:3XUHV3NRVL5EMBD94CC1JIFD38CH5L", "current_trial": 196, "dateTime": 1511561807229, "trialdata": {"rt": -1000, "stimulus": "/static/audio/wordpool/CONVICT.wav", "key_press": -1, "type": "PRES_AUD", "word": "convict", "wordID": 370, "conditions": [12, 1600, "a", 12000], "trial": 5, "serialpos": 11, "trial_type": "single-audio", "trial_index": 196, "time_elapsed": 1009134, "internal_node_id": "0.0-142.0"}}, {"uniqueid": "MTK0599:3XUHV3NRVL5EMBD94CC1JIFD38CH5L", "current_trial": 197, "dateTime": 1511561808526, "trialdata": {"rt": -1, "stimulus": "", "key_press": -1, "type": "PRE_RECALL_DELAY", "trial_type": "single-stim", "trial_index": 197, "time_elapsed": 1010431, "internal_node_id": "0.0-143.0-0.0"}}, {"uniqueid": "MTK0599:3XUHV3NRVL5EMBD94CC1JIFD38CH5L", "current_trial": 198, "dateTime": 1511561809034, "trialdata": {"rt": -1000, "stimulus": "/static/audio/400Hz.wav", "key_press": -1, "type": "PRE_RECALL_ALERT", "trial_type": "single-audio", "trial_index": 198, "time_elapsed": 1010939, "internal_node_id": "0.0-144.0"}}, {"uniqueid": "MTK0599:3XUHV3NRVL5EMBD94CC1JIFD38CH5L", "current_trial": 199, "dateTime": 1511561869125, "trialdata": {"rt": [4139, 6091, 7848, 9882, 11343, 16633, 21787, 25237, 35385], "recwords": ["convict", "rabbit", "milk", "breast", "jeans", "wasp", "mattress", "couch", "sketch"], "type": "FREE_RECALL", "conditions": [12, 1600, "a", 12000], "trial": 5, "trial_type": "free-recall", "trial_index": 199, "time_elapsed": 1071005, "internal_node_id": "0.0-145.0-0.0"}}, {"uniqueid": "MTK0599:3XUHV3NRVL5EMBD94CC1JIFD38CH5L", "current_trial": 200, "dateTime": 1511561875127, "trialdata": {"rt": 3997, "key_press": 13, "type": "INSTRUCTIONS", "trial_type": "text", "trial_index": 200, "time_elapsed": 1077033, "internal_node_id": "0.0-146.0"}}, {"uniqueid": "MTK0599:3XUHV3NRVL5EMBD94CC1JIFD38CH5L", "current_trial": 201, "dateTime": 1511561901176, "trialdata": {"rt": [3308, 6981, 9704, 14147, 16696, 18726, 22063, 23807], "responses": ["20", "18", "9", "16", "17", "8", "16", "12"], "num1": [4, 7, 4, 3, 3, 1, 3, 2, 6], "num2": [7, 6, 2, 5, 5, 2, 6, 5, 6], "num3": [9, 5, 3, 8, 9, 5, 7, 5, 7], "type": "DISTRACTOR", "conditions": [24, 1600, "a", 24000], "trial": 6, "trial_type": "math-distractor", "trial_index": 201, "time_elapsed": 1103080, "internal_node_id": "0.0-147.0"}}, {"uniqueid": "MTK0599:3XUHV3NRVL5EMBD94CC1JIFD38CH5L", "current_trial": 202, "dateTime": 1511561904189, "trialdata": {"rt": -1, "stimulus": "<p id=\"stim\">10</p>", "key_press": -1, "trial_type": "single-stim", "trial_index": 202, "time_elapsed": 1106093, "internal_node_id": "0.0-148.0-0.0"}}, {"uniqueid": "MTK0599:3XUHV3NRVL5EMBD94CC1JIFD38CH5L", "current_trial": 203, "dateTime": 1511561905195, "trialdata": {"rt": -1, "stimulus": "<p id=\"stim\">9</p>", "key_press": -1, "trial_type": "single-stim", "trial_index": 203, "time_elapsed": 1107100, "internal_node_id": "0.0-148.0-1.0"}}, {"uniqueid": "MTK0599:3XUHV3NRVL5EMBD94CC1JIFD38CH5L", "current_trial": 204, "dateTime": 1511561906213, "trialdata": {"rt": -1, "stimulus": "<p id=\"stim\">8</p>", "key_press": -1, "trial_type": "single-stim", "trial_index": 204, "time_elapsed": 1108118, "internal_node_id": "0.0-148.0-2.0"}}, {"uniqueid": "MTK0599:3XUHV3NRVL5EMBD94CC1JIFD38CH5L", "current_trial": 205, "dateTime": 1511561907232, "trialdata": {"rt": -1, "stimulus": "<p id=\"stim\">7</p>", "key_press": -1, "trial_type": "single-stim", "trial_index": 205, "time_elapsed": 1109137, "internal_node_id": "0.0-148.0-3.0"}}, {"uniqueid": "MTK0599:3XUHV3NRVL5EMBD94CC1JIFD38CH5L", "current_trial": 206, "dateTime": 1511561908238, "trialdata": {"rt": -1, "stimulus": "<p id=\"stim\">6</p>", "key_press": -1, "trial_type": "single-stim", "trial_index": 206, "time_elapsed": 1110142, "internal_node_id": "0.0-148.0-4.0"}}, {"uniqueid": "MTK0599:3XUHV3NRVL5EMBD94CC1JIFD38CH5L", "current_trial": 207, "dateTime": 1511561909256, "trialdata": {"rt": -1, "stimulus": "<p id=\"stim\">5</p>", "key_press": -1, "trial_type": "single-stim", "trial_index": 207, "time_elapsed": 1111161, "internal_node_id": "0.0-148.0-5.0"}}, {"uniqueid": "MTK0599:3XUHV3NRVL5EMBD94CC1JIFD38CH5L", "current_trial": 208, "dateTime": 1511561910275, "trialdata": {"rt": -1, "stimulus": "<p id=\"stim\">4</p>", "key_press": -1, "trial_type": "single-stim", "trial_index": 208, "time_elapsed": 1112179, "internal_node_id": "0.0-148.0-6.0"}}, {"uniqueid": "MTK0599:3XUHV3NRVL5EMBD94CC1JIFD38CH5L", "current_trial": 209, "dateTime": 1511561911296, "trialdata": {"rt": -1, "stimulus": "<p id=\"stim\">3</p>", "key_press": -1, "trial_type": "single-stim", "trial_index": 209, "time_elapsed": 1113200, "internal_node_id": "0.0-148.0-7.0"}}, {"uniqueid": "MTK0599:3XUHV3NRVL5EMBD94CC1JIFD38CH5L", "current_trial": 210, "dateTime": 1511561912315, "trialdata": {"rt": -1, "stimulus": "<p id=\"stim\">2</p>", "key_press": -1, "trial_type": "single-stim", "trial_index": 210, "time_elapsed": 1114219, "internal_node_id": "0.0-148.0-8.0"}}, {"uniqueid": "MTK0599:3XUHV3NRVL5EMBD94CC1JIFD38CH5L", "current_trial": 211, "dateTime": 1511561913333, "trialdata": {"rt": -1, "stimulus": "<p id=\"stim\">1</p>", "key_press": -1, "trial_type": "single-stim", "trial_index": 211, "time_elapsed": 1115236, "internal_node_id": "0.0-148.0-9.0"}}, {"uniqueid": "MTK0599:3XUHV3NRVL5EMBD94CC1JIFD38CH5L", "current_trial": 212, "dateTime": 1511561914845, "trialdata": {"rt": -1, "stimulus": "<p id=\"stim\">+</p>", "key_press": -1, "type": "FIXATION", "trial_type": "single-stim", "trial_index": 212, "time_elapsed": 1116750, "internal_node_id": "0.0-149.0-0.0"}}, {"uniqueid": "MTK0599:3XUHV3NRVL5EMBD94CC1JIFD38CH5L", "current_trial": 213, "dateTime": 1511561917286, "trialdata": {"rt": -1000, "stimulus": "/static/audio/wordpool/FRECKLE.wav", "key_press": -1, "type": "PRES_AUD", "word": "freckle", "wordID": 601, "conditions": [24, 1600, "a", 24000], "trial": 6, "serialpos": 0, "trial_type": "single-audio", "trial_index": 213, "time_elapsed": 1119190, "internal_node_id": "0.0-150.0"}}, {"uniqueid": "MTK0599:3XUHV3NRVL5EMBD94CC1JIFD38CH5L", "current_trial": 214, "dateTime": 1511561919709, "trialdata": {"rt": -1000, "stimulus": "/static/audio/wordpool/BARLEY.wav", "key_press": -1, "type": "PRES_AUD", "word": "barley", "wordID": 87, "conditions": [24, 1600, "a", 24000], "trial": 6, "serialpos": 1, "trial_type": "single-audio", "trial_index": 214, "time_elapsed": 1121614, "internal_node_id": "0.0-151.0"}}, {"uniqueid": "MTK0599:3XUHV3NRVL5EMBD94CC1JIFD38CH5L", "current_trial": 215, "dateTime": 1511561922335, "trialdata": {"rt": -1000, "stimulus": "/static/audio/wordpool/PISTON.wav", "key_press": -1, "type": "PRES_AUD", "word": "piston", "wordID": 1075, "conditions": [24, 1600, "a", 24000], "trial": 6, "serialpos": 2, "trial_type": "single-audio", "trial_index": 215, "time_elapsed": 1124240, "internal_node_id": "0.0-152.0"}}, {"uniqueid": "MTK0599:3XUHV3NRVL5EMBD94CC1JIFD38CH5L", "current_trial": 216, "dateTime": 1511561925067, "trialdata": {"rt": -1000, "stimulus": "/static/audio/wordpool/SEAGULL.wav", "key_press": -1, "type": "PRES_AUD", "word": "seagull", "wordID": 1260, "conditions": [24, 1600, "a", 24000], "trial": 6, "serialpos": 3, "trial_type": "single-audio", "trial_index": 216, "time_elapsed": 1126972, "internal_node_id": "0.0-153.0"}}, {"uniqueid": "MTK0599:3XUHV3NRVL5EMBD94CC1JIFD38CH5L", "current_trial": 217, "dateTime": 1511561927705, "trialdata": {"rt": -1000, "stimulus": "/static/audio/wordpool/HORNET.wav", "key_press": -1, "type": "PRES_AUD", "word": "hornet", "wordID": 717, "conditions": [24, 1600, "a", 24000], "trial": 6, "serialpos": 4, "trial_type": "single-audio", "trial_index": 217, "time_elapsed": 1129610, "internal_node_id": "0.0-154.0"}}, {"uniqueid": "MTK0599:3XUHV3NRVL5EMBD94CC1JIFD38CH5L", "current_trial": 218, "dateTime": 1511561930420, "trialdata": {"rt": -1000, "stimulus": "/static/audio/wordpool/PIMPLE.wav", "key_press": -1, "type": "PRES_AUD", "word": "pimple", "wordID": 1070, "conditions": [24, 1600, "a", 24000], "trial": 6, "serialpos": 5, "trial_type": "single-audio", "trial_index": 218, "time_elapsed": 1132325, "internal_node_id": "0.0-155.0"}}, {"uniqueid": "MTK0599:3XUHV3NRVL5EMBD94CC1JIFD38CH5L", "current_trial": 219, "dateTime": 1511561932830, "trialdata": {"rt": -1000, "stimulus": "/static/audio/wordpool/MAPLE.wav", "key_press": -1, "type": "PRES_AUD", "word": "maple", "wordID": 865, "conditions": [24, 1600, "a", 24000], "trial": 6, "serialpos": 6, "trial_type": "single-audio", "trial_index": 219, "time_elapsed": 1134735, "internal_node_id": "0.0-156.0"}}, {"uniqueid": "MTK0599:3XUHV3NRVL5EMBD94CC1JIFD38CH5L", "current_trial": 220, "dateTime": 1511561935359, "trialdata": {"rt": -1000, "stimulus": "/static/audio/wordpool/JURY.wav", "key_press": -1, "type": "PRES_AUD", "word": "jury", "wordID": 765, "conditions": [24, 1600, "a", 24000], "trial": 6, "serialpos": 7, "trial_type": "single-audio", "trial_index": 220, "time_elapsed": 1137263, "internal_node_id": "0.0-157.0"}}, {"uniqueid": "MTK0599:3XUHV3NRVL5EMBD94CC1JIFD38CH5L", "current_trial": 221, "dateTime": 1511561937781, "trialdata": {"rt": -1000, "stimulus": "/static/audio/wordpool/NECKLACE.wav", "key_press": -1, "type": "PRES_AUD", "word": "necklace", "wordID": 939, "conditions": [24, 1600, "a", 24000], "trial": 6, "serialpos": 8, "trial_type": "single-audio", "trial_index": 221, "time_elapsed": 1139686, "internal_node_id": "0.0-158.0"}}, {"uniqueid": "MTK0599:3XUHV3NRVL5EMBD94CC1JIFD38CH5L", "current_trial": 222, "dateTime": 1511561940562, "trialdata": {"rt": -1000, "stimulus": "/static/audio/wordpool/HANDBAG.wav", "key_press": -1, "type": "PRES_AUD", "word": "handbag", "wordID": 683, "conditions": [24, 1600, "a", 24000], "trial": 6, "serialpos": 9, "trial_type": "single-audio", "trial_index": 222, "time_elapsed": 1142467, "internal_node_id": "0.0-159.0"}}, {"uniqueid": "MTK0599:3XUHV3NRVL5EMBD94CC1JIFD38CH5L", "current_trial": 223, "dateTime": 1511561943156, "trialdata": {"rt": -1000, "stimulus": "/static/audio/wordpool/GALLON.wav", "key_press": -1, "type": "PRES_AUD", "word": "gallon", "wordID": 617, "conditions": [24, 1600, "a", 24000], "trial": 6, "serialpos": 10, "trial_type": "single-audio", "trial_index": 223, "time_elapsed": 1145061, "internal_node_id": "0.0-160.0"}}, {"uniqueid": "MTK0599:3XUHV3NRVL5EMBD94CC1JIFD38CH5L", "current_trial": 224, "dateTime": 1511561945968, "trialdata": {"rt": -1000, "stimulus": "/static/audio/wordpool/BRICK.wav", "key_press": -1, "type": "PRES_AUD", "word": "brick", "wordID": 171, "conditions": [24, 1600, "a", 24000], "trial": 6, "serialpos": 11, "trial_type": "single-audio", "trial_index": 224, "time_elapsed": 1147872, "internal_node_id": "0.0-161.0"}}, {"uniqueid": "MTK0599:3XUHV3NRVL5EMBD94CC1JIFD38CH5L", "current_trial": 225, "dateTime": 1511561948687, "trialdata": {"rt": -1000, "stimulus": "/static/audio/wordpool/INMATE.wav", "key_press": -1, "type": "PRES_AUD", "word": "inmate", "wordID": 737, "conditions": [24, 1600, "a", 24000], "trial": 6, "serialpos": 12, "trial_type": "single-audio", "trial_index": 225, "time_elapsed": 1150591, "internal_node_id": "0.0-162.0"}}, {"uniqueid": "MTK0599:3XUHV3NRVL5EMBD94CC1JIFD38CH5L", "current_trial": 226, "dateTime": 1511561951128, "trialdata": {"rt": -1000, "stimulus": "/static/audio/wordpool/GRILL.wav", "key_press": -1, "type": "PRES_AUD", "word": "grill", "wordID": 660, "conditions": [24, 1600, "a", 24000], "trial": 6, "serialpos": 13, "trial_type": "single-audio", "trial_index": 226, "time_elapsed": 1153033, "internal_node_id": "0.0-163.0"}}, {"uniqueid": "MTK0599:3XUHV3NRVL5EMBD94CC1JIFD38CH5L", "current_trial": 227, "dateTime": 1511561953642, "trialdata": {"rt": -1000, "stimulus": "/static/audio/wordpool/COLLEGE.wav", "key_press": -1, "type": "PRES_AUD", "word": "college", "wordID": 345, "conditions": [24, 1600, "a", 24000], "trial": 6, "serialpos": 14, "trial_type": "single-audio", "trial_index": 227, "time_elapsed": 1155546, "internal_node_id": "0.0-164.0"}}, {"uniqueid": "MTK0599:3XUHV3NRVL5EMBD94CC1JIFD38CH5L", "current_trial": 228, "dateTime": 1511561956082, "trialdata": {"rt": -1000, "stimulus": "/static/audio/wordpool/WHISKERS.wav", "key_press": -1, "type": "PRES_AUD", "word": "whiskers", "wordID": 1604, "conditions": [24, 1600, "a", 24000], "trial": 6, "serialpos": 15, "trial_type": "single-audio", "trial_index": 228, "time_elapsed": 1157986, "internal_node_id": "0.0-165.0"}}, {"uniqueid": "MTK0599:3XUHV3NRVL5EMBD94CC1JIFD38CH5L", "current_trial": 229, "dateTime": 1511561958830, "trialdata": {"rt": -1000, "stimulus": "/static/audio/wordpool/STOVE.wav", "key_press": -1, "type": "PRES_AUD", "word": "stove", "wordID": 1387, "conditions": [24, 1600, "a", 24000], "trial": 6, "serialpos": 16, "trial_type": "single-audio", "trial_index": 229, "time_elapsed": 1160734, "internal_node_id": "0.0-166.0"}}, {"uniqueid": "MTK0599:3XUHV3NRVL5EMBD94CC1JIFD38CH5L", "current_trial": 230, "dateTime": 1511561961437, "trialdata": {"rt": -1000, "stimulus": "/static/audio/wordpool/KITCHEN.wav", "key_press": -1, "type": "PRES_AUD", "word": "kitchen", "wordID": 777, "conditions": [24, 1600, "a", 24000], "trial": 6, "serialpos": 17, "trial_type": "single-audio", "trial_index": 230, "time_elapsed": 1163342, "internal_node_id": "0.0-167.0"}}, {"uniqueid": "MTK0599:3XUHV3NRVL5EMBD94CC1JIFD38CH5L", "current_trial": 231, "dateTime": 1511561963982, "trialdata": {"rt": -1000, "stimulus": "/static/audio/wordpool/CHAPEL.wav", "key_press": -1, "type": "PRES_AUD", "word": "chapel", "wordID": 279, "conditions": [24, 1600, "a", 24000], "trial": 6, "serialpos": 18, "trial_type": "single-audio", "trial_index": 231, "time_elapsed": 1165887, "internal_node_id": "0.0-168.0"}}, {"uniqueid": "MTK0599:3XUHV3NRVL5EMBD94CC1JIFD38CH5L", "current_trial": 232, "dateTime": 1511561966424, "trialdata": {"rt": -1000, "stimulus": "/static/audio/wordpool/PICTURE.wav", "key_press": -1, "type": "PRES_AUD", "word": "picture", "wordID": 1060, "conditions": [24, 1600, "a", 24000], "trial": 6, "serialpos": 19, "trial_type": "single-audio", "trial_index": 232, "time_elapsed": 1168328, "internal_node_id": "0.0-169.0"}}, {"uniqueid": "MTK0599:3XUHV3NRVL5EMBD94CC1JIFD38CH5L", "current_trial": 233, "dateTime": 1511561968861, "trialdata": {"rt": -1000, "stimulus": "/static/audio/wordpool/BUCKET.wav", "key_press": -1, "type": "PRES_AUD", "word": "bucket", "wordID": 183, "conditions": [24, 1600, "a", 24000], "trial": 6, "serialpos": 20, "trial_type": "single-audio", "trial_index": 233, "time_elapsed": 1170766, "internal_node_id": "0.0-170.0"}}, {"uniqueid": "MTK0599:3XUHV3NRVL5EMBD94CC1JIFD38CH5L", "current_trial": 234, "dateTime": 1511561971659, "trialdata": {"rt": -1000, "stimulus": "/static/audio/wordpool/GARBAGE.wav", "key_press": -1, "type": "PRES_AUD", "word": "garbage", "wordID": 621, "conditions": [24, 1600, "a", 24000], "trial": 6, "serialpos": 21, "trial_type": "single-audio", "trial_index": 234, "time_elapsed": 1173564, "internal_node_id": "0.0-171.0"}}, {"uniqueid": "MTK0599:3XUHV3NRVL5EMBD94CC1JIFD38CH5L", "current_trial": 235, "dateTime": 1511561974336, "trialdata": {"rt": -1000, "stimulus": "/static/audio/wordpool/SHOVEL.wav", "key_press": -1, "type": "PRES_AUD", "word": "shovel", "wordID": 1294, "conditions": [24, 1600, "a", 24000], "trial": 6, "serialpos": 22, "trial_type": "single-audio", "trial_index": 235, "time_elapsed": 1176238, "internal_node_id": "0.0-172.0"}}, {"uniqueid": "MTK0599:3XUHV3NRVL5EMBD94CC1JIFD38CH5L", "current_trial": 236, "dateTime": 1511561976868, "trialdata": {"rt": -1000, "stimulus": "/static/audio/wordpool/SKILLET.wav", "key_press": -1, "type": "PRES_AUD", "word": "skillet", "wordID": 1316, "conditions": [24, 1600, "a", 24000], "trial": 6, "serialpos": 23, "trial_type": "single-audio", "trial_index": 236, "time_elapsed": 1178772, "internal_node_id": "0.0-173.0"}}, {"uniqueid": "MTK0599:3XUHV3NRVL5EMBD94CC1JIFD38CH5L", "current_trial": 237, "dateTime": 1511561978210, "trialdata": {"rt": -1, "stimulus": "", "key_press": -1, "type": "PRE_RECALL_DELAY", "trial_type": "single-stim", "trial_index": 237, "time_elapsed": 1180115, "internal_node_id": "0.0-174.0-0.0"}}, {"uniqueid": "MTK0599:3XUHV3NRVL5EMBD94CC1JIFD38CH5L", "current_trial": 238, "dateTime": 1511561978722, "trialdata": {"rt": -1000, "stimulus": "/static/audio/400Hz.wav", "key_press": -1, "type": "PRE_RECALL_ALERT", "trial_type": "single-audio", "trial_index": 238, "time_elapsed": 1180627, "internal_node_id": "0.0-175.0"}}, {"uniqueid": "MTK0599:3XUHV3NRVL5EMBD94CC1JIFD38CH5L", "current_trial": 239, "dateTime": 1511562038786, "trialdata": {"rt": [3658, 5960, 7868, 9741, 14333, 16080, 19122, 22730, 30167, 35844, 38882, 48410, 56472], "recwords": ["chapel", "skillet", "bucket", "kitchen", "bucket", "picture", "pimple", "freckle", "inmate", "necklace", "piston", "handbag", "stove"], "type": "FREE_RECALL", "conditions": [24, 1600, "a", 24000], "trial": 6, "trial_type": "free-recall", "trial_index": 239, "time_elapsed": 1240665, "internal_node_id": "0.0-176.0-0.0"}}, {"uniqueid": "MTK0599:3XUHV3NRVL5EMBD94CC1JIFD38CH5L", "current_trial": 240, "dateTime": 1511562044389, "trialdata": {"rt": 3595, "key_press": 71, "type": "INSTRUCTIONS", "trial_type": "text", "trial_index": 240, "time_elapsed": 1246293, "internal_node_id": "0.0-177.0"}}, {"uniqueid": "MTK0599:3XUHV3NRVL5EMBD94CC1JIFD38CH5L", "current_trial": 241, "dateTime": 1511562058437, "trialdata": {"rt": [2173, 4687, 6061, 9654], "responses": ["15", "17", "12", "18"], "num1": [8, 4, 5, 4, 6], "num2": [2, 4, 5, 5, 5], "num3": [5, 9, 2, 9, 9], "type": "DISTRACTOR", "conditions": [24, 800, "a", 12000], "trial": 7, "trial_type": "math-distractor", "trial_index": 241, "time_elapsed": 1260341, "internal_node_id": "0.0-178.0"}}, {"uniqueid": "MTK0599:3XUHV3NRVL5EMBD94CC1JIFD38CH5L", "current_trial": 242, "dateTime": 1511562061451, "trialdata": {"rt": -1, "stimulus": "<p id=\"stim\">10</p>", "key_press": -1, "trial_type": "single-stim", "trial_index": 242, "time_elapsed": 1263355, "internal_node_id": "0.0-179.0-0.0"}}, {"uniqueid": "MTK0599:3XUHV3NRVL5EMBD94CC1JIFD38CH5L", "current_trial": 243, "dateTime": 1511562062455, "trialdata": {"rt": -1, "stimulus": "<p id=\"stim\">9</p>", "key_press": -1, "trial_type": "single-stim", "trial_index": 243, "time_elapsed": 1264360, "internal_node_id": "0.0-179.0-1.0"}}, {"uniqueid": "MTK0599:3XUHV3NRVL5EMBD94CC1JIFD38CH5L", "current_trial": 244, "dateTime": 1511562063474, "trialdata": {"rt": -1, "stimulus": "<p id=\"stim\">8</p>", "key_press": -1, "trial_type": "single-stim", "trial_index": 244, "time_elapsed": 1265379, "internal_node_id": "0.0-179.0-2.0"}}, {"uniqueid": "MTK0599:3XUHV3NRVL5EMBD94CC1JIFD38CH5L", "current_trial": 245, "dateTime": 1511562064480, "trialdata": {"rt": -1, "stimulus": "<p id=\"stim\">7</p>", "key_press": -1, "trial_type": "single-stim", "trial_index": 245, "time_elapsed": 1266384, "internal_node_id": "0.0-179.0-3.0"}}, {"uniqueid": "MTK0599:3XUHV3NRVL5EMBD94CC1JIFD38CH5L", "current_trial": 246, "dateTime": 1511562065485, "trialdata": {"rt": -1, "stimulus": "<p id=\"stim\">6</p>", "key_press": -1, "trial_type": "single-stim", "trial_index": 246, "time_elapsed": 1267389, "internal_node_id": "0.0-179.0-4.0"}}, {"uniqueid": "MTK0599:3XUHV3NRVL5EMBD94CC1JIFD38CH5L", "current_trial": 247, "dateTime": 1511562066502, "trialdata": {"rt": -1, "stimulus": "<p id=\"stim\">5</p>", "key_press": -1, "trial_type": "single-stim", "trial_index": 247, "time_elapsed": 1268406, "internal_node_id": "0.0-179.0-5.0"}}, {"uniqueid": "MTK0599:3XUHV3NRVL5EMBD94CC1JIFD38CH5L", "current_trial": 248, "dateTime": 1511562067521, "trialdata": {"rt": -1, "stimulus": "<p id=\"stim\">4</p>", "key_press": -1, "trial_type": "single-stim", "trial_index": 248, "time_elapsed": 1269425, "internal_node_id": "0.0-179.0-6.0"}}, {"uniqueid": "MTK0599:3XUHV3NRVL5EMBD94CC1JIFD38CH5L", "current_trial": 249, "dateTime": 1511562068541, "trialdata": {"rt": -1, "stimulus": "<p id=\"stim\">3</p>", "key_press": -1, "trial_type": "single-stim", "trial_index": 249, "time_elapsed": 1270445, "internal_node_id": "0.0-179.0-7.0"}}, {"uniqueid": "MTK0599:3XUHV3NRVL5EMBD94CC1JIFD38CH5L", "current_trial": 250, "dateTime": 1511562069559, "trialdata": {"rt": -1, "stimulus": "<p id=\"stim\">2</p>", "key_press": -1, "trial_type": "single-stim", "trial_index": 250, "time_elapsed": 1271463, "internal_node_id": "0.0-179.0-8.0"}}, {"uniqueid": "MTK0599:3XUHV3NRVL5EMBD94CC1JIFD38CH5L", "current_trial": 251, "dateTime": 1511562070577, "trialdata": {"rt": -1, "stimulus": "<p id=\"stim\">1</p>", "key_press": -1, "trial_type": "single-stim", "trial_index": 251, "time_elapsed": 1272481, "internal_node_id": "0.0-179.0-9.0"}}, {"uniqueid": "MTK0599:3XUHV3NRVL5EMBD94CC1JIFD38CH5L", "current_trial": 252, "dateTime": 1511562072082, "trialdata": {"rt": -1, "stimulus": "<p id=\"stim\">+</p>", "key_press": -1, "type": "FIXATION", "trial_type": "single-stim", "trial_index": 252, "time_elapsed": 1273987, "internal_node_id": "0.0-180.0-0.0"}}, {"uniqueid": "MTK0599:3XUHV3NRVL5EMBD94CC1JIFD38CH5L", "current_trial": 253, "dateTime": 1511562074021, "trialdata": {"rt": -1000, "stimulus": "/static/audio/wordpool/ONION.wav", "key_press": -1, "type": "PRES_AUD", "word": "onion", "wordID": 976, "conditions": [24, 800, "a", 12000], "trial": 7, "serialpos": 0, "trial_type": "single-audio", "trial_index": 253, "time_elapsed": 1275926, "internal_node_id": "0.0-181.0"}}, {"uniqueid": "MTK0599:3XUHV3NRVL5EMBD94CC1JIFD38CH5L", "current_trial": 254, "dateTime": 1511562075783, "trialdata": {"rt": -1000, "stimulus": "/static/audio/wordpool/FRIEND.wav", "key_press": -1, "type": "PRES_AUD", "word": "friend", "wordID": 605, "conditions": [24, 800, "a", 12000], "trial": 7, "serialpos": 1, "trial_type": "single-audio", "trial_index": 254, "time_elapsed": 1277687, "internal_node_id": "0.0-182.0"}}, {"uniqueid": "MTK0599:3XUHV3NRVL5EMBD94CC1JIFD38CH5L", "current_trial": 255, "dateTime": 1511562077515, "trialdata": {"rt": -1000, "stimulus": "/static/audio/wordpool/MASK.wav", "key_press": -1, "type": "PRES_AUD", "word": "mask", "wordID": 875, "conditions": [24, 800, "a", 12000], "trial": 7, "serialpos": 2, "trial_type": "single-audio", "trial_index": 255, "time_elapsed": 1279420, "internal_node_id": "0.0-183.0"}}, {"uniqueid": "MTK0599:3XUHV3NRVL5EMBD94CC1JIFD38CH5L", "current_trial": 256, "dateTime": 1511562079185, "trialdata": {"rt": -1000, "stimulus": "/static/audio/wordpool/PENGUIN.wav", "key_press": -1, "type": "PRES_AUD", "word": "penguin", "wordID": 1043, "conditions": [24, 800, "a", 12000], "trial": 7, "serialpos": 3, "trial_type": "single-audio", "trial_index": 256, "time_elapsed": 1281089, "internal_node_id": "0.0-184.0"}}, {"uniqueid": "MTK0599:3XUHV3NRVL5EMBD94CC1JIFD38CH5L", "current_trial": 257, "dateTime": 1511562081055, "trialdata": {"rt": -1000, "stimulus": "/static/audio/wordpool/JELLO.wav", "key_press": -1, "type": "PRES_AUD", "word": "jello", "wordID": 753, "conditions": [24, 800, "a", 12000], "trial": 7, "serialpos": 4, "trial_type": "single-audio", "trial_index": 257, "time_elapsed": 1282959, "internal_node_id": "0.0-185.0"}}, {"uniqueid": "MTK0599:3XUHV3NRVL5EMBD94CC1JIFD38CH5L", "current_trial": 258, "dateTime": 1511562082706, "trialdata": {"rt": -1000, "stimulus": "/static/audio/wordpool/PLASTER.wav", "key_press": -1, "type": "PRES_AUD", "word": "plaster", "wordID": 1084, "conditions": [24, 800, "a", 12000], "trial": 7, "serialpos": 5, "trial_type": "single-audio", "trial_index": 258, "time_elapsed": 1284611, "internal_node_id": "0.0-186.0"}}, {"uniqueid": "MTK0599:3XUHV3NRVL5EMBD94CC1JIFD38CH5L", "current_trial": 259, "dateTime": 1511562084414, "trialdata": {"rt": -1000, "stimulus": "/static/audio/wordpool/COD.wav", "key_press": -1, "type": "PRES_AUD", "word": "cod", "wordID": 339, "conditions": [24, 800, "a", 12000], "trial": 7, "serialpos": 6, "trial_type": "single-audio", "trial_index": 259, "time_elapsed": 1286318, "internal_node_id": "0.0-187.0"}}, {"uniqueid": "MTK0599:3XUHV3NRVL5EMBD94CC1JIFD38CH5L", "current_trial": 260, "dateTime": 1511562086204, "trialdata": {"rt": -1000, "stimulus": "/static/audio/wordpool/SALMON.wav", "key_press": -1, "type": "PRES_AUD", "word": "salmon", "wordID": 1226, "conditions": [24, 800, "a", 12000], "trial": 7, "serialpos": 7, "trial_type": "single-audio", "trial_index": 260, "time_elapsed": 1288108, "internal_node_id": "0.0-188.0"}}, {"uniqueid": "MTK0599:3XUHV3NRVL5EMBD94CC1JIFD38CH5L", "current_trial": 261, "dateTime": 1511562088044, "trialdata": {"rt": -1000, "stimulus": "/static/audio/wordpool/FRUIT.wav", "key_press": -1, "type": "PRES_AUD", "word": "fruit", "wordID": 609, "conditions": [24, 800, "a", 12000], "trial": 7, "serialpos": 8, "trial_type": "single-audio", "trial_index": 261, "time_elapsed": 1289948, "internal_node_id": "0.0-189.0"}}, {"uniqueid": "MTK0599:3XUHV3NRVL5EMBD94CC1JIFD38CH5L", "current_trial": 262, "dateTime": 1511562089723, "trialdata": {"rt": -1000, "stimulus": "/static/audio/wordpool/GARLIC.wav", "key_press": -1, "type": "PRES_AUD", "word": "garlic", "wordID": 623, "conditions": [24, 800, "a", 12000], "trial": 7, "serialpos": 9, "trial_type": "single-audio", "trial_index": 262, "time_elapsed": 1291626, "internal_node_id": "0.0-190.0"}}, {"uniqueid": "MTK0599:3XUHV3NRVL5EMBD94CC1JIFD38CH5L", "current_trial": 263, "dateTime": 1511562091550, "trialdata": {"rt": -1000, "stimulus": "/static/audio/wordpool/PLAZA.wav", "key_press": -1, "type": "PRES_AUD", "word": "plaza", "wordID": 1087, "conditions": [24, 800, "a", 12000], "trial": 7, "serialpos": 10, "trial_type": "single-audio", "trial_index": 263, "time_elapsed": 1293454, "internal_node_id": "0.0-191.0"}}, {"uniqueid": "MTK0599:3XUHV3NRVL5EMBD94CC1JIFD38CH5L", "current_trial": 264, "dateTime": 1511562093188, "trialdata": {"rt": -1000, "stimulus": "/static/audio/wordpool/OYSTER.wav", "key_press": -1, "type": "PRES_AUD", "word": "oyster", "wordID": 994, "conditions": [24, 800, "a", 12000], "trial": 7, "serialpos": 11, "trial_type": "single-audio", "trial_index": 264, "time_elapsed": 1295092, "internal_node_id": "0.0-192.0"}}, {"uniqueid": "MTK0599:3XUHV3NRVL5EMBD94CC1JIFD38CH5L", "current_trial": 265, "dateTime": 1511562095046, "trialdata": {"rt": -1000, "stimulus": "/static/audio/wordpool/SWIMMER.wav", "key_press": -1, "type": "PRES_AUD", "word": "swimmer", "wordID": 1419, "conditions": [24, 800, "a", 12000], "trial": 7, "serialpos": 12, "trial_type": "single-audio", "trial_index": 265, "time_elapsed": 1296950, "internal_node_id": "0.0-193.0"}}, {"uniqueid": "MTK0599:3XUHV3NRVL5EMBD94CC1JIFD38CH5L", "current_trial": 266, "dateTime": 1511562097003, "trialdata": {"rt": -1000, "stimulus": "/static/audio/wordpool/DIVER.wav", "key_press": -1, "type": "PRES_AUD", "word": "diver", "wordID": 475, "conditions": [24, 800, "a", 12000], "trial": 7, "serialpos": 13, "trial_type": "single-audio", "trial_index": 266, "time_elapsed": 1298907, "internal_node_id": "0.0-194.0"}}, {"uniqueid": "MTK0599:3XUHV3NRVL5EMBD94CC1JIFD38CH5L", "current_trial": 267, "dateTime": 1511562098950, "trialdata": {"rt": -1000, "stimulus": "/static/audio/wordpool/FIDDLE.wav", "key_press": -1, "type": "PRES_AUD", "word": "fiddle", "wordID": 560, "conditions": [24, 800, "a", 12000], "trial": 7, "serialpos": 14, "trial_type": "single-audio", "trial_index": 267, "time_elapsed": 1300854, "internal_node_id": "0.0-195.0"}}, {"uniqueid": "MTK0599:3XUHV3NRVL5EMBD94CC1JIFD38CH5L", "current_trial": 268, "dateTime": 1511562100744, "trialdata": {"rt": -1000, "stimulus": "/static/audio/wordpool/HIKER.wav", "key_press": -1, "type": "PRES_AUD", "word": "hiker", "wordID": 707, "conditions": [24, 800, "a", 12000], "trial": 7, "serialpos": 15, "trial_type": "single-audio", "trial_index": 268, "time_elapsed": 1302649, "internal_node_id": "0.0-196.0"}}, {"uniqueid": "MTK0599:3XUHV3NRVL5EMBD94CC1JIFD38CH5L", "current_trial": 269, "dateTime": 1511562102495, "trialdata": {"rt": -1000, "stimulus": "/static/audio/wordpool/LAVA.wav", "key_press": -1, "type": "PRES_AUD", "word": "lava", "wordID": 803, "conditions": [24, 800, "a", 12000], "trial": 7, "serialpos": 16, "trial_type": "single-audio", "trial_index": 269, "time_elapsed": 1304399, "internal_node_id": "0.0-197.0"}}, {"uniqueid": "MTK0599:3XUHV3NRVL5EMBD94CC1JIFD38CH5L", "current_trial": 270, "dateTime": 1511562104498, "trialdata": {"rt": -1000, "stimulus": "/static/audio/wordpool/THREAD.wav", "key_press": -1, "type": "PRES_AUD", "word": "thread", "wordID": 1459, "conditions": [24, 800, "a", 12000], "trial": 7, "serialpos": 17, "trial_type": "single-audio", "trial_index": 270, "time_elapsed": 1306403, "internal_node_id": "0.0-198.0"}}, {"uniqueid": "MTK0599:3XUHV3NRVL5EMBD94CC1JIFD38CH5L", "current_trial": 271, "dateTime": 1511562106152, "trialdata": {"rt": -1000, "