{"condition": 0, "counterbalance": 1356, "assignmentId": "38F71OA9GU3SGM791L5NXZEMBWTFMX", "workerId": "MTK0924", "hitId": "3VMHWJRYHVN1NE8JPQ2UJWY02S8XFN", "currenttrial": 626, "bonus": 0, "data": [{"uniqueid": "MTK0924:38F71OA9GU3SGM791L5NXZEMBWTFMX", "current_trial": 0, "dateTime": 1512892187804, "trialdata": {"rt": 8432, "key_press": 32, "type": "INSTRUCTIONS", "trial_type": "text", "trial_index": 0, "time_elapsed": 8434, "internal_node_id": "0.0-0.0"}}, {"uniqueid": "MTK0924:38F71OA9GU3SGM791L5NXZEMBWTFMX", "current_trial": 1, "dateTime": 1512892204825, "trialdata": {"rt": 17021, "key_press": 32, "type": "INSTRUCTIONS", "trial_type": "text", "trial_index": 1, "time_elapsed": 25455, "internal_node_id": "0.0-1.0"}}, {"uniqueid": "MTK0924:38F71OA9GU3SGM791L5NXZEMBWTFMX", "current_trial": 2, "dateTime": 1512892223546, "trialdata": {"rt": [18715], "responses": ["ocean"], "type": "AUDIO_TEST", "trial_type": "audio-test", "trial_index": 2, "time_elapsed": 44176, "internal_node_id": "0.0-2.0"}}, {"uniqueid": "MTK0924:38F71OA9GU3SGM791L5NXZEMBWTFMX", "current_trial": 3, "dateTime": 1512892229621, "trialdata": {"rt": [6073], "responses": ["crystal"], "type": "AUDIO_TEST", "trial_type": "audio-test", "trial_index": 3, "time_elapsed": 50251, "internal_node_id": "0.0-3.0"}}, {"uniqueid": "MTK0924:38F71OA9GU3SGM791L5NXZEMBWTFMX", "current_trial": 4, "dateTime": 1512892233547, "trialdata": {"rt": [3924], "responses": ["spice"], "type": "AUDIO_TEST", "trial_type": "audio-test", "trial_index": 4, "time_elapsed": 54177, "internal_node_id": "0.0-4.0"}}, {"uniqueid": "MTK0924:38F71OA9GU3SGM791L5NXZEMBWTFMX", "current_trial": 5, "dateTime": 1512892258231, "trialdata": {"rt": 23928, "responses": "{\"Q0\":\"3:00 AM\",\"Q1\":\"10:30 AM\",\"Q2\":\"5\"}", "type": "SLEEP_SURVEY", "trial_type": "survey-text", "trial_index": 5, "time_elapsed": 78861, "internal_node_id": "0.0-5.0"}}, {"uniqueid": "MTK0924:38F71OA9GU3SGM791L5NXZEMBWTFMX", "current_trial": 6, "dateTime": 1512892293780, "trialdata": {"rt": 34549, "key_press": 13, "type": "INSTRUCTIONS", "trial_type": "text", "trial_index": 6, "time_elapsed": 114410, "internal_node_id": "0.0-6.0"}}, {"uniqueid": "MTK0924:38F71OA9GU3SGM791L5NXZEMBWTFMX", "current_trial": 7, "dateTime": 1512892310060, "trialdata": {"rt": 15778, "key_press": 32, "type": "INSTRUCTIONS", "trial_type": "text", "trial_index": 7, "time_elapsed": 130689, "internal_node_id": "0.0-7.0"}}, {"uniqueid": "MTK0924:38F71OA9GU3SGM791L5NXZEMBWTFMX", "current_trial": 8, "dateTime": 1512892319475, "trialdata": {"rt": 8912, "key_press": 32, "type": "INSTRUCTIONS", "trial_type": "text", "trial_index": 8, "time_elapsed": 140105, "internal_node_id": "0.0-8.0"}}, {"uniqueid": "MTK0924:38F71OA9GU3SGM791L5NXZEMBWTFMX", "current_trial": 9, "dateTime": 1512892338480, "trialdata": {"rt": [6783, 10776, 17965], "responses": ["17", "18", "22"], "num1": [5, 4, 8, 8], "num2": [7, 7, 7, 7], "num3": [5, 7, 7, 2], "type": "DISTRACTOR", "conditions": [18, 1200, "a", 18000], "trial": 0, "trial_type": "math-distractor", "trial_index": 9, "time_elapsed": 159110, "internal_node_id": "0.0-9.0"}}, {"uniqueid": "MTK0924:38F71OA9GU3SGM791L5NXZEMBWTFMX", "current_trial": 10, "dateTime": 1512892341484, "trialdata": {"rt": -1, "stimulus": "<p id=\"stim\">10</p>", "key_press": -1, "trial_type": "single-stim", "trial_index": 10, "time_elapsed": 162114, "internal_node_id": "0.0-10.0-0.0"}}, {"uniqueid": "MTK0924:38F71OA9GU3SGM791L5NXZEMBWTFMX", "current_trial": 11, "dateTime": 1512892342486, "trialdata": {"rt": -1, "stimulus": "<p id=\"stim\">9</p>", "key_press": -1, "trial_type": "single-stim", "trial_index": 11, "time_elapsed": 163116, "internal_node_id": "0.0-10.0-1.0"}}, {"uniqueid": "MTK0924:38F71OA9GU3SGM791L5NXZEMBWTFMX", "current_trial": 12, "dateTime": 1512892343491, "trialdata": {"rt": -1, "stimulus": "<p id=\"stim\">8</p>", "key_press": -1, "trial_type": "single-stim", "trial_index": 12, "time_elapsed": 164121, "internal_node_id": "0.0-10.0-2.0"}}, {"uniqueid": "MTK0924:38F71OA9GU3SGM791L5NXZEMBWTFMX", "current_trial": 13, "dateTime": 1512892344492, "trialdata": {"rt": -1, "stimulus": "<p id=\"stim\">7</p>", "key_press": -1, "trial_type": "single-stim", "trial_index": 13, "time_elapsed": 165122, "internal_node_id": "0.0-10.0-3.0"}}, {"uniqueid": "MTK0924:38F71OA9GU3SGM791L5NXZEMBWTFMX", "current_trial": 14, "dateTime": 1512892345494, "trialdata": {"rt": -1, "stimulus": "<p id=\"stim\">6</p>", "key_press": -1, "trial_type": "single-stim", "trial_index": 14, "time_elapsed": 166124, "internal_node_id": "0.0-10.0-4.0"}}, {"uniqueid": "MTK0924:38F71OA9GU3SGM791L5NXZEMBWTFMX", "current_trial": 15, "dateTime": 1512892346497, "trialdata": {"rt": -1, "stimulus": "<p id=\"stim\">5</p>", "key_press": -1, "trial_type": "single-stim", "trial_index": 15, "time_elapsed": 167127, "internal_node_id": "0.0-10.0-5.0"}}, {"uniqueid": "MTK0924:38F71OA9GU3SGM791L5NXZEMBWTFMX", "current_trial": 16, "dateTime": 1512892347500, "trialdata": {"rt": -1, "stimulus": "<p id=\"stim\">4</p>", "key_press": -1, "trial_type": "single-stim", "trial_index": 16, "time_elapsed": 168130, "internal_node_id": "0.0-10.0-6.0"}}, {"uniqueid": "MTK0924:38F71OA9GU3SGM791L5NXZEMBWTFMX", "current_trial": 17, "dateTime": 1512892348502, "trialdata": {"rt": -1, "stimulus": "<p id=\"stim\">3</p>", "key_press": -1, "trial_type": "single-stim", "trial_index": 17, "time_elapsed": 169132, "internal_node_id": "0.0-10.0-7.0"}}, {"uniqueid": "MTK0924:38F71OA9GU3SGM791L5NXZEMBWTFMX", "current_trial": 18, "dateTime": 1512892349504, "trialdata": {"rt": -1, "stimulus": "<p id=\"stim\">2</p>", "key_press": -1, "trial_type": "single-stim", "trial_index": 18, "time_elapsed": 170134, "internal_node_id": "0.0-10.0-8.0"}}, {"uniqueid": "MTK0924:38F71OA9GU3SGM791L5NXZEMBWTFMX", "current_trial": 19, "dateTime": 1512892350507, "trialdata": {"rt": -1, "stimulus": "<p id=\"stim\">1</p>", "key_press": -1, "trial_type": "single-stim", "trial_index": 19, "time_elapsed": 171137, "internal_node_id": "0.0-10.0-9.0"}}, {"uniqueid": "MTK0924:38F71OA9GU3SGM791L5NXZEMBWTFMX", "current_trial": 20, "dateTime": 1512892352011, "trialdata": {"rt": -1, "stimulus": "<p id=\"stim\">+</p>", "key_press": -1, "type": "FIXATION", "trial_type": "single-stim", "trial_index": 20, "time_elapsed": 172641, "internal_node_id": "0.0-11.0-0.0"}}, {"uniqueid": "MTK0924:38F71OA9GU3SGM791L5NXZEMBWTFMX", "current_trial": 21, "dateTime": 1512892354224, "trialdata": {"rt": -1000, "stimulus": "/static/audio/wordpool/JAPAN.wav", "key_press": -1, "type": "PRES_AUD", "word": "japan", "wordID": 748, "conditions": [18, 1200, "a", 18000], "trial": 0, "serialpos": 0, "trial_type": "single-audio", "trial_index": 21, "time_elapsed": 174854, "internal_node_id": "0.0-12.0"}}, {"uniqueid": "MTK0924:38F71OA9GU3SGM791L5NXZEMBWTFMX", "current_trial": 22, "dateTime": 1512892356485, "trialdata": {"rt": -1000, "stimulus": "/static/audio/wordpool/LASER.wav", "key_press": -1, "type": "PRES_AUD", "word": "laser", "wordID": 800, "conditions": [18, 1200, "a", 18000], "trial": 0, "serialpos": 1, "trial_type": "single-audio", "trial_index": 22, "time_elapsed": 177115, "internal_node_id": "0.0-13.0"}}, {"uniqueid": "MTK0924:38F71OA9GU3SGM791L5NXZEMBWTFMX", "current_trial": 23, "dateTime": 1512892358650, "trialdata": {"rt": -1000, "stimulus": "/static/audio/wordpool/IGLOO.wav", "key_press": -1, "type": "PRES_AUD", "word": "igloo", "wordID": 733, "conditions": [18, 1200, "a", 18000], "trial": 0, "serialpos": 2, "trial_type": "single-audio", "trial_index": 23, "time_elapsed": 179280, "internal_node_id": "0.0-14.0"}}, {"uniqueid": "MTK0924:38F71OA9GU3SGM791L5NXZEMBWTFMX", "current_trial": 24, "dateTime": 1512892360752, "trialdata": {"rt": -1000, "stimulus": "/static/audio/wordpool/KEEPER.wav", "key_press": -1, "type": "PRES_AUD", "word": "keeper", "wordID": 768, "conditions": [18, 1200, "a", 18000], "trial": 0, "serialpos": 3, "trial_type": "single-audio", "trial_index": 24, "time_elapsed": 181382, "internal_node_id": "0.0-15.0"}}, {"uniqueid": "MTK0924:38F71OA9GU3SGM791L5NXZEMBWTFMX", "current_trial": 25, "dateTime": 1512892362912, "trialdata": {"rt": -1000, "stimulus": "/static/audio/wordpool/WRIST.wav", "key_press": -1, "type": "PRES_AUD", "word": "wrist", "wordID": 1625, "conditions": [18, 1200, "a", 18000], "trial": 0, "serialpos": 4, "trial_type": "single-audio", "trial_index": 25, "time_elapsed": 183542, "internal_node_id": "0.0-16.0"}}, {"uniqueid": "MTK0924:38F71OA9GU3SGM791L5NXZEMBWTFMX", "current_trial": 26, "dateTime": 1512892365093, "trialdata": {"rt": -1000, "stimulus": "/static/audio/wordpool/WARDROBE.wav", "key_press": -1, "type": "PRES_AUD", "word": "wardrobe", "wordID": 1586, "conditions": [18, 1200, "a", 18000], "trial": 0, "serialpos": 5, "trial_type": "single-audio", "trial_index": 26, "time_elapsed": 185723, "internal_node_id": "0.0-17.0"}}, {"uniqueid": "MTK0924:38F71OA9GU3SGM791L5NXZEMBWTFMX", "current_trial": 27, "dateTime": 1512892367338, "trialdata": {"rt": -1000, "stimulus": "/static/audio/wordpool/SUITCASE.wav", "key_press": -1, "type": "PRES_AUD", "word": "suitcase", "wordID": 1402, "conditions": [18, 1200, "a", 18000], "trial": 0, "serialpos": 6, "trial_type": "single-audio", "trial_index": 27, "time_elapsed": 187968, "internal_node_id": "0.0-18.0"}}, {"uniqueid": "MTK0924:38F71OA9GU3SGM791L5NXZEMBWTFMX", "current_trial": 28, "dateTime": 1512892369658, "trialdata": {"rt": -1000, "stimulus": "/static/audio/wordpool/SADDLE.wav", "key_press": -1, "type": "PRES_AUD", "word": "saddle", "wordID": 1220, "conditions": [18, 1200, "a", 18000], "trial": 0, "serialpos": 7, "trial_type": "single-audio", "trial_index": 28, "time_elapsed": 190288, "internal_node_id": "0.0-19.0"}}, {"uniqueid": "MTK0924:38F71OA9GU3SGM791L5NXZEMBWTFMX", "current_trial": 29, "dateTime": 1512892371956, "trialdata": {"rt": -1000, "stimulus": "/static/audio/wordpool/PLIERS.wav", "key_press": -1, "type": "PRES_AUD", "word": "pliers", "wordID": 1088, "conditions": [18, 1200, "a", 18000], "trial": 0, "serialpos": 8, "trial_type": "single-audio", "trial_index": 29, "time_elapsed": 192586, "internal_node_id": "0.0-20.0"}}, {"uniqueid": "MTK0924:38F71OA9GU3SGM791L5NXZEMBWTFMX", "current_trial": 30, "dateTime": 1512892374345, "trialdata": {"rt": -1000, "stimulus": "/static/audio/wordpool/LIGHTNING.wav", "key_press": -1, "type": "PRES_AUD", "word": "lightning", "wordID": 819, "conditions": [18, 1200, "a", 18000], "trial": 0, "serialpos": 9, "trial_type": "single-audio", "trial_index": 30, "time_elapsed": 194975, "internal_node_id": "0.0-21.0"}}, {"uniqueid": "MTK0924:38F71OA9GU3SGM791L5NXZEMBWTFMX", "current_trial": 31, "dateTime": 1512892376447, "trialdata": {"rt": -1000, "stimulus": "/static/audio/wordpool/OZONE.wav", "key_press": -1, "type": "PRES_AUD", "word": "ozone", "wordID": 995, "conditions": [18, 1200, "a", 18000], "trial": 0, "serialpos": 10, "trial_type": "single-audio", "trial_index": 31, "time_elapsed": 197076, "internal_node_id": "0.0-22.0"}}, {"uniqueid": "MTK0924:38F71OA9GU3SGM791L5NXZEMBWTFMX", "current_trial": 32, "dateTime": 1512892378473, "trialdata": {"rt": -1000, "stimulus": "/static/audio/wordpool/TWIG.wav", "key_press": -1, "type": "PRES_AUD", "word": "twig", "wordID": 1526, "conditions": [18, 1200, "a", 18000], "trial": 0, "serialpos": 11, "trial_type": "single-audio", "trial_index": 32, "time_elapsed": 199103, "internal_node_id": "0.0-23.0"}}, {"uniqueid": "MTK0924:38F71OA9GU3SGM791L5NXZEMBWTFMX", "current_trial": 33, "dateTime": 1512892380860, "trialdata": {"rt": -1000, "stimulus": "/static/audio/wordpool/SEAGULL.wav", "key_press": -1, "type": "PRES_AUD", "word": "seagull", "wordID": 1260, "conditions": [18, 1200, "a", 18000], "trial": 0, "serialpos": 12, "trial_type": "single-audio", "trial_index": 33, "time_elapsed": 201490, "internal_node_id": "0.0-24.0"}}, {"uniqueid": "MTK0924:38F71OA9GU3SGM791L5NXZEMBWTFMX", "current_trial": 34, "dateTime": 1512892383156, "trialdata": {"rt": -1000, "stimulus": "/static/audio/wordpool/DENIM.wav", "key_press": -1, "type": "PRES_AUD", "word": "denim", "wordID": 445, "conditions": [18, 1200, "a", 18000], "trial": 0, "serialpos": 13, "trial_type": "single-audio", "trial_index": 34, "time_elapsed": 203786, "internal_node_id": "0.0-25.0"}}, {"uniqueid": "MTK0924:38F71OA9GU3SGM791L5NXZEMBWTFMX", "current_trial": 35, "dateTime": 1512892385305, "trialdata": {"rt": -1000, "stimulus": "/static/audio/wordpool/FREEZER.wav", "key_press": -1, "type": "PRES_AUD", "word": "freezer", "wordID": 603, "conditions": [18, 1200, "a", 18000], "trial": 0, "serialpos": 14, "trial_type": "single-audio", "trial_index": 35, "time_elapsed": 205934, "internal_node_id": "0.0-26.0"}}, {"uniqueid": "MTK0924:38F71OA9GU3SGM791L5NXZEMBWTFMX", "current_trial": 36, "dateTime": 1512892387395, "trialdata": {"rt": -1000, "stimulus": "/static/audio/wordpool/TRACTOR.wav", "key_press": -1, "type": "PRES_AUD", "word": "tractor", "wordID": 1492, "conditions": [18, 1200, "a", 18000], "trial": 0, "serialpos": 15, "trial_type": "single-audio", "trial_index": 36, "time_elapsed": 208025, "internal_node_id": "0.0-27.0"}}, {"uniqueid": "MTK0924:38F71OA9GU3SGM791L5NXZEMBWTFMX", "current_trial": 37, "dateTime": 1512892389475, "trialdata": {"rt": -1000, "stimulus": "/static/audio/wordpool/LOVER.wav", "key_press": -1, "type": "PRES_AUD", "word": "lover", "wordID": 845, "conditions": [18, 1200, "a", 18000], "trial": 0, "serialpos": 16, "trial_type": "single-audio", "trial_index": 37, "time_elapsed": 210105, "internal_node_id": "0.0-28.0"}}, {"uniqueid": "MTK0924:38F71OA9GU3SGM791L5NXZEMBWTFMX", "current_trial": 38, "dateTime": 1512892391642, "trialdata": {"rt": -1000, "stimulus": "/static/audio/wordpool/RATTLE.wav", "key_press": -1, "type": "PRES_AUD", "word": "rattle", "wordID": 1169, "conditions": [18, 1200, "a", 18000], "trial": 0, "serialpos": 17, "trial_type": "single-audio", "trial_index": 38, "time_elapsed": 212272, "internal_node_id": "0.0-29.0"}}, {"uniqueid": "MTK0924:38F71OA9GU3SGM791L5NXZEMBWTFMX", "current_trial": 39, "dateTime": 1512892392893, "trialdata": {"rt": -1, "stimulus": "", "key_press": -1, "type": "PRE_RECALL_DELAY", "trial_type": "single-stim", "trial_index": 39, "time_elapsed": 213523, "internal_node_id": "0.0-30.0-0.0"}}, {"uniqueid": "MTK0924:38F71OA9GU3SGM791L5NXZEMBWTFMX", "current_trial": 40, "dateTime": 1512892393394, "trialdata": {"rt": -1000, "stimulus": "/static/audio/400Hz.wav", "key_press": -1, "type": "PRE_RECALL_ALERT", "trial_type": "single-audio", "trial_index": 40, "time_elapsed": 214024, "internal_node_id": "0.0-31.0"}}, {"uniqueid": "MTK0924:38F71OA9GU3SGM791L5NXZEMBWTFMX", "current_trial": 41, "dateTime": 1512892453398, "trialdata": {"rt": [6767, 8545, 14035, 15307, 17196, 20110, 22045, 24543, 26253, 27963, 30561, 32598, 34555, 36614, 50092, 50305, 50474, 50654, 50834, 51003, 51363, 51577, 51801, 52015, 52229, 52454, 52668], "recwords": ["japan", "laser", "suitcase", "saddle", "pliers", "lightning", "ozone", "twig", "seagull", "denim", "freezer", "tractor", "lover", "rattle", "", "", "", "", "", "", "", "", "", "", "", "", ""], "type": "FREE_RECALL", "conditions": [18, 1200, "a", 18000], "trial": 0, "trial_type": "free-recall", "trial_index": 41, "time_elapsed": 274027, "internal_node_id": "0.0-32.0-0.0"}}, {"uniqueid": "MTK0924:38F71OA9GU3SGM791L5NXZEMBWTFMX", "current_trial": 42, "dateTime": 1512892456964, "trialdata": {"rt": 1564, "key_press": 32, "type": "INSTRUCTIONS", "trial_type": "text", "trial_index": 42, "time_elapsed": 277594, "internal_node_id": "0.0-33.0"}}, {"uniqueid": "MTK0924:38F71OA9GU3SGM791L5NXZEMBWTFMX", "current_trial": 43, "dateTime": 1512892476975, "trialdata": {"rt": [6557, 10652, 17166], "responses": ["19", "14", "8"], "num1": [8, 5, 5, 8], "num2": [7, 1, 1, 3], "num3": [4, 8, 2, 5], "type": "DISTRACTOR", "conditions": [18, 1200, "v", 18000], "trial": 1, "trial_type": "math-distractor", "trial_index": 43, "time_elapsed": 297605, "internal_node_id": "0.0-34.0"}}, {"uniqueid": "MTK0924:38F71OA9GU3SGM791L5NXZEMBWTFMX", "current_trial": 44, "dateTime": 1512892479981, "trialdata": {"rt": -1, "stimulus": "<p id=\"stim\">10</p>", "key_press": -1, "trial_type": "single-stim", "trial_index": 44, "time_elapsed": 300611, "internal_node_id": "0.0-35.0-0.0"}}, {"uniqueid": "MTK0924:38F71OA9GU3SGM791L5NXZEMBWTFMX", "current_trial": 45, "dateTime": 1512892480983, "trialdata": {"rt": -1, "stimulus": "<p id=\"stim\">9</p>", "key_press": -1, "trial_type": "single-stim", "trial_index": 45, "time_elapsed": 301613, "internal_node_id": "0.0-35.0-1.0"}}, {"uniqueid": "MTK0924:38F71OA9GU3SGM791L5NXZEMBWTFMX", "current_trial": 46, "dateTime": 1512892481986, "trialdata": {"rt": -1, "stimulus": "<p id=\"stim\">8</p>", "key_press": -1, "trial_type": "single-stim", "trial_index": 46, "time_elapsed": 302616, "internal_node_id": "0.0-35.0-2.0"}}, {"uniqueid": "MTK0924:38F71OA9GU3SGM791L5NXZEMBWTFMX", "current_trial": 47, "dateTime": 1512892482988, "trialdata": {"rt": -1, "stimulus": "<p id=\"stim\">7</p>", "key_press": -1, "trial_type": "single-stim", "trial_index": 47, "time_elapsed": 303618, "internal_node_id": "0.0-35.0-3.0"}}, {"uniqueid": "MTK0924:38F71OA9GU3SGM791L5NXZEMBWTFMX", "current_trial": 48, "dateTime": 1512892483991, "trialdata": {"rt": -1, "stimulus": "<p id=\"stim\">6</p>", "key_press": -1, "trial_type": "single-stim", "trial_index": 48, "time_elapsed": 304621, "internal_node_id": "0.0-35.0-4.0"}}, {"uniqueid": "MTK0924:38F71OA9GU3SGM791L5NXZEMBWTFMX", "current_trial": 49, "dateTime": 1512892484994, "trialdata": {"rt": -1, "stimulus": "<p id=\"stim\">5</p>", "key_press": -1, "trial_type": "single-stim", "trial_index": 49, "time_elapsed": 305624, "internal_node_id": "0.0-35.0-5.0"}}, {"uniqueid": "MTK0924:38F71OA9GU3SGM791L5NXZEMBWTFMX", "current_trial": 50, "dateTime": 1512892485996, "trialdata": {"rt": -1, "stimulus": "<p id=\"stim\">4</p>", "key_press": -1, "trial_type": "single-stim", "trial_index": 50, "time_elapsed": 306626, "internal_node_id": "0.0-35.0-6.0"}}, {"uniqueid": "MTK0924:38F71OA9GU3SGM791L5NXZEMBWTFMX", "current_trial": 51, "dateTime": 1512892486999, "trialdata": {"rt": -1, "stimulus": "<p id=\"stim\">3</p>", "key_press": -1, "trial_type": "single-stim", "trial_index": 51, "time_elapsed": 307629, "internal_node_id": "0.0-35.0-7.0"}}, {"uniqueid": "MTK0924:38F71OA9GU3SGM791L5NXZEMBWTFMX", "current_trial": 52, "dateTime": 1512892488001, "trialdata": {"rt": -1, "stimulus": "<p id=\"stim\">2</p>", "key_press": -1, "trial_type": "single-stim", "trial_index": 52, "time_elapsed": 308631, "internal_node_id": "0.0-35.0-8.0"}}, {"uniqueid": "MTK0924:38F71OA9GU3SGM791L5NXZEMBWTFMX", "current_trial": 53, "dateTime": 1512892489004, "trialdata": {"rt": -1, "stimulus": "<p id=\"stim\">1</p>", "key_press": -1, "trial_type": "single-stim", "trial_index": 53, "time_elapsed": 309634, "internal_node_id": "0.0-35.0-9.0"}}, {"uniqueid": "MTK0924:38F71OA9GU3SGM791L5NXZEMBWTFMX", "current_trial": 54, "dateTime": 1512892490508, "trialdata": {"rt": -1, "stimulus": "<p id=\"stim\">+</p>", "key_press": -1, "type": "FIXATION", "trial_type": "single-stim", "trial_index": 54, "time_elapsed": 311138, "internal_node_id": "0.0-36.0-0.0"}}, {"uniqueid": "MTK0924:38F71OA9GU3SGM791L5NXZEMBWTFMX", "current_trial": 55, "dateTime": 1512892491713, "trialdata": {"rt": -1, "stimulus": "<p id=\"stim\">TWEEZERS</p>", "key_press": -1, "type": "PRES_VIS", "word": "tweezers", "wordID": 1525, "conditions": [18, 1200, "v", 18000], "trial": 1, "serialpos": 0, "trial_type": "single-stim", "trial_index": 55, "time_elapsed": 312343, "internal_node_id": "0.0-37.0"}}, {"uniqueid": "MTK0924:38F71OA9GU3SGM791L5NXZEMBWTFMX", "current_trial": 56, "dateTime": 1512892493937, "trialdata": {"rt": -1, "stimulus": "<p id=\"stim\">MASK</p>", "key_press": -1, "type": "PRES_VIS", "word": "mask", "wordID": 875, "conditions": [18, 1200, "v", 18000], "trial": 1, "serialpos": 1, "trial_type": "single-stim", "trial_index": 56, "time_elapsed": 314567, "internal_node_id": "0.0-38.0"}}, {"uniqueid": "MTK0924:38F71OA9GU3SGM791L5NXZEMBWTFMX", "current_trial": 57, "dateTime": 1512892496283, "trialdata": {"rt": -1, "stimulus": "<p id=\"stim\">ATOM</p>", "key_press": -1, "type": "PRES_VIS", "word": "atom", "wordID": 54, "conditions": [18, 1200, "v", 18000], "trial": 1, "serialpos": 2, "trial_type": "single-stim", "trial_index": 57, "time_elapsed": 316913, "internal_node_id": "0.0-39.0"}}, {"uniqueid": "MTK0924:38F71OA9GU3SGM791L5NXZEMBWTFMX", "current_trial": 58, "dateTime": 1512892498369, "trialdata": {"rt": -1, "stimulus": "<p id=\"stim\">UNCLE</p>", "key_press": -1, "type": "PRES_VIS", "word": "uncle", "wordID": 1535, "conditions": [18, 1200, "v", 18000], "trial": 1, "serialpos": 3, "trial_type": "single-stim", "trial_index": 58, "time_elapsed": 318999, "internal_node_id": "0.0-40.0"}}, {"uniqueid": "MTK0924:38F71OA9GU3SGM791L5NXZEMBWTFMX", "current_trial": 59, "dateTime": 1512892500587, "trialdata": {"rt": -1, "stimulus": "<p id=\"stim\">LAVA</p>", "key_press": -1, "type": "PRES_VIS", "word": "lava", "wordID": 803, "conditions": [18, 1200, "v", 18000], "trial": 1, "serialpos": 4, "trial_type": "single-stim", "trial_index": 59, "time_elapsed": 321217, "internal_node_id": "0.0-41.0"}}, {"uniqueid": "MTK0924:38F71OA9GU3SGM791L5NXZEMBWTFMX", "current_trial": 60, "dateTime": 1512892502678, "trialdata": {"rt": -1, "stimulus": "<p id=\"stim\">MOTEL</p>", "key_press": -1, "type": "PRES_VIS", "word": "motel", "wordID": 918, "conditions": [18, 1200, "v", 18000], "trial": 1, "serialpos": 5, "trial_type": "single-stim", "trial_index": 60, "time_elapsed": 323308, "internal_node_id": "0.0-42.0"}}, {"uniqueid": "MTK0924:38F71OA9GU3SGM791L5NXZEMBWTFMX", "current_trial": 61, "dateTime": 1512892504912, "trialdata": {"rt": -1, "stimulus": "<p id=\"stim\">XEROX</p>", "key_press": -1, "type": "PRES_VIS", "word": "xerox", "wordID": 1627, "conditions": [18, 1200, "v", 18000], "trial": 1, "serialpos": 6, "trial_type": "single-stim", "trial_index": 61, "time_elapsed": 325542, "internal_node_id": "0.0-43.0"}}, {"uniqueid": "MTK0924:38F71OA9GU3SGM791L5NXZEMBWTFMX", "current_trial": 62, "dateTime": 1512892507168, "trialdata": {"rt": -1, "stimulus": "<p id=\"stim\">TUTU</p>", "key_press": -1, "type": "PRES_VIS", "word": "tutu", "wordID": 1523, "conditions": [18, 1200, "v", 18000], "trial": 1, "serialpos": 7, "trial_type": "single-stim", "trial_index": 62, "time_elapsed": 327798, "internal_node_id": "0.0-44.0"}}, {"uniqueid": "MTK0924:38F71OA9GU3SGM791L5NXZEMBWTFMX", "current_trial": 63, "dateTime": 1512892509424, "trialdata": {"rt": -1, "stimulus": "<p id=\"stim\">SERVANT</p>", "key_press": -1, "type": "PRES_VIS", "word": "servant", "wordID": 1270, "conditions": [18, 1200, "v", 18000], "trial": 1, "serialpos": 8, "trial_type": "single-stim", "trial_index": 63, "time_elapsed": 330054, "internal_node_id": "0.0-45.0"}}, {"uniqueid": "MTK0924:38F71OA9GU3SGM791L5NXZEMBWTFMX", "current_trial": 64, "dateTime": 1512892511445, "trialdata": {"rt": -1, "stimulus": "<p id=\"stim\">DANCER</p>", "key_press": -1, "type": "PRES_VIS", "word": "dancer", "wordID": 436, "conditions": [18, 1200, "v", 18000], "trial": 1, "serialpos": 9, "trial_type": "single-stim", "trial_index": 64, "time_elapsed": 332075, "internal_node_id": "0.0-46.0"}}, {"uniqueid": "MTK0924:38F71OA9GU3SGM791L5NXZEMBWTFMX", "current_trial": 65, "dateTime": 1512892513760, "trialdata": {"rt": -1, "stimulus": "<p id=\"stim\">MESSAGE</p>", "key_press": -1, "type": "PRES_VIS", "word": "message", "wordID": 887, "conditions": [18, 1200, "v", 18000], "trial": 1, "serialpos": 10, "trial_type": "single-stim", "trial_index": 65, "time_elapsed": 334390, "internal_node_id": "0.0-47.0"}}, {"uniqueid": "MTK0924:38F71OA9GU3SGM791L5NXZEMBWTFMX", "current_trial": 66, "dateTime": 1512892515989, "trialdata": {"rt": -1, "stimulus": "<p id=\"stim\">LUMBER</p>", "key_press": -1, "type": "PRES_VIS", "word": "lumber", "wordID": 847, "conditions": [18, 1200, "v", 18000], "trial": 1, "serialpos": 11, "trial_type": "single-stim", "trial_index": 66, "time_elapsed": 336619, "internal_node_id": "0.0-48.0"}}, {"uniqueid": "MTK0924:38F71OA9GU3SGM791L5NXZEMBWTFMX", "current_trial": 67, "dateTime": 1512892518197, "trialdata": {"rt": -1, "stimulus": "<p id=\"stim\">DONOR</p>", "key_press": -1, "type": "PRES_VIS", "word": "donor", "wordID": 484, "conditions": [18, 1200, "v", 18000], "trial": 1, "serialpos": 12, "trial_type": "single-stim", "trial_index": 67, "time_elapsed": 338827, "internal_node_id": "0.0-49.0"}}, {"uniqueid": "MTK0924:38F71OA9GU3SGM791L5NXZEMBWTFMX", "current_trial": 68, "dateTime": 1512892520389, "trialdata": {"rt": -1, "stimulus": "<p id=\"stim\">COMPASS</p>", "key_press": -1, "type": "PRES_VIS", "word": "compass", "wordID": 357, "conditions": [18, 1200, "v", 18000], "trial": 1, "serialpos": 13, "trial_type": "single-stim", "trial_index": 68, "time_elapsed": 341018, "internal_node_id": "0.0-50.0"}}, {"uniqueid": "MTK0924:38F71OA9GU3SGM791L5NXZEMBWTFMX", "current_trial": 69, "dateTime": 1512892522793, "trialdata": {"rt": -1, "stimulus": "<p id=\"stim\">COFFEE</p>", "key_press": -1, "type": "PRES_VIS", "word": "coffee", "wordID": 340, "conditions": [18, 1200, "v", 18000], "trial": 1, "serialpos": 14, "trial_type": "single-stim", "trial_index": 69, "time_elapsed": 343423, "internal_node_id": "0.0-51.0"}}, {"uniqueid": "MTK0924:38F71OA9GU3SGM791L5NXZEMBWTFMX", "current_trial": 70, "dateTime": 1512892525087, "trialdata": {"rt": -1, "stimulus": "<p id=\"stim\">CASHEW</p>", "key_press": -1, "type": "PRES_VIS", "word": "cashew", "wordID": 252, "conditions": [18, 1200, "v", 18000], "trial": 1, "serialpos": 15, "trial_type": "single-stim", "trial_index": 70, "time_elapsed": 345717, "internal_node_id": "0.0-52.0"}}, {"uniqueid": "MTK0924:38F71OA9GU3SGM791L5NXZEMBWTFMX", "current_trial": 71, "dateTime": 1512892527295, "trialdata": {"rt": -1, "stimulus": "<p id=\"stim\">DENTIST</p>", "key_press": -1, "type": "PRES_VIS", "word": "dentist", "wordID": 446, "conditions": [18, 1200, "v", 18000], "trial": 1, "serialpos": 16, "trial_type": "single-stim", "trial_index": 71, "time_elapsed": 347925, "internal_node_id": "0.0-53.0"}}, {"uniqueid": "MTK0924:38F71OA9GU3SGM791L5NXZEMBWTFMX", "current_trial": 72, "dateTime": 1512892529566, "trialdata": {"rt": -1, "stimulus": "<p id=\"stim\">GLASS</p>", "key_press": -1, "type": "PRES_VIS", "word": "glass", "wordID": 638, "conditions": [18, 1200, "v", 18000], "trial": 1, "serialpos": 17, "trial_type": "single-stim", "trial_index": 72, "time_elapsed": 350196, "internal_node_id": "0.0-54.0"}}, {"uniqueid": "MTK0924:38F71OA9GU3SGM791L5NXZEMBWTFMX", "current_trial": 73, "dateTime": 1512892531961, "trialdata": {"rt": -1, "stimulus": "", "key_press": -1, "type": "PRE_RECALL_DELAY", "trial_type": "single-stim", "trial_index": 73, "time_elapsed": 352591, "internal_node_id": "0.0-55.0-0.0"}}, {"uniqueid": "MTK0924:38F71OA9GU3SGM791L5NXZEMBWTFMX", "current_trial": 74, "dateTime": 1512892532462, "trialdata": {"rt": -1000, "stimulus": "/static/audio/400Hz.wav", "key_press": -1, "type": "PRE_RECALL_ALERT", "trial_type": "single-audio", "trial_index": 74, "time_elapsed": 353092, "internal_node_id": "0.0-56.0"}}, {"uniqueid": "MTK0924:38F71OA9GU3SGM791L5NXZEMBWTFMX", "current_trial": 75, "dateTime": 1512892592469, "trialdata": {"rt": [7652, 9598, 10858, 12658, 14469, 16427, 20387, 23233, 25202, 27497, 29770, 36609, 39748, 41919, 42932], "recwords": ["tweezers", "mask", "atom", "uncle", "lava", "motel", "tutu", "servant", "dancer", "message", "lumber", "coffee", "cashew", "dentist", "glass"], "type": "FREE_RECALL", "conditions": [18, 1200, "v", 18000], "trial": 1, "trial_type": "free-recall", "trial_index": 75, "time_elapsed": 413098, "internal_node_id": "0.0-57.0-0.0"}}, {"uniqueid": "MTK0924:38F71OA9GU3SGM791L5NXZEMBWTFMX", "current_trial": 76, "dateTime": 1512892598719, "trialdata": {"rt": 4243, "key_press": 32, "type": "INSTRUCTIONS", "trial_type": "text", "trial_index": 76, "time_elapsed": 419347, "internal_node_id": "0.0-58.0"}}, {"uniqueid": "MTK0924:38F71OA9GU3SGM791L5NXZEMBWTFMX", "current_trial": 77, "dateTime": 1512892623726, "trialdata": {"rt": [3618, 7781, 10335, 12326, 14498, 16939, 19065, 21811], "responses": ["19", "14", "18", "5", "18", "10", "17", "7"], "num1": [2, 6, 2, 3, 3, 1, 9, 2, 4], "num2": [9, 3, 7, 1, 7, 8, 1, 2, 4], "num3": [8, 5, 9, 1, 8, 1, 7, 3, 3], "type": "DISTRACTOR", "conditions": [12, 800, "a", 24000], "trial": 2, "trial_type": "math-distractor", "trial_index": 77, "time_elapsed": 444356, "internal_node_id": "0.0-59.0"}}, {"uniqueid": "MTK0924:38F71OA9GU3SGM791L5NXZEMBWTFMX", "current_trial": 78, "dateTime": 1512892626733, "trialdata": {"rt": -1, "stimulus": "<p id=\"stim\">10</p>", "key_press": -1, "trial_type": "single-stim", "trial_index": 78, "time_elapsed": 447363, "internal_node_id": "0.0-60.0-0.0"}}, {"uniqueid": "MTK0924:38F71OA9GU3SGM791L5NXZEMBWTFMX", "current_trial": 79, "dateTime": 1512892627736, "trialdata": {"rt": -1, "stimulus": "<p id=\"stim\">9</p>", "key_press": -1, "trial_type": "single-stim", "trial_index": 79, "time_elapsed": 448366, "internal_node_id": "0.0-60.0-1.0"}}, {"uniqueid": "MTK0924:38F71OA9GU3SGM791L5NXZEMBWTFMX", "current_trial": 80, "dateTime": 1512892628738, "trialdata": {"rt": -1, "stimulus": "<p id=\"stim\">8</p>", "key_press": -1, "trial_type": "single-stim", "trial_index": 80, "time_elapsed": 449368, "internal_node_id": "0.0-60.0-2.0"}}, {"uniqueid": "MTK0924:38F71OA9GU3SGM791L5NXZEMBWTFMX", "current_trial": 81, "dateTime": 1512892629741, "trialdata": {"rt": -1, "stimulus": "<p id=\"stim\">7</p>", "key_press": -1, "trial_type": "single-stim", "trial_index": 81, "time_elapsed": 450371, "internal_node_id": "0.0-60.0-3.0"}}, {"uniqueid": "MTK0924:38F71OA9GU3SGM791L5NXZEMBWTFMX", "current_trial": 82, "dateTime": 1512892630744, "trialdata": {"rt": -1, "stimulus": "<p id=\"stim\">6</p>", "key_press": -1, "trial_type": "single-stim", "trial_index": 82, "time_elapsed": 451374, "internal_node_id": "0.0-60.0-4.0"}}, {"uniqueid": "MTK0924:38F71OA9GU3SGM791L5NXZEMBWTFMX", "current_trial": 83, "dateTime": 1512892631746, "trialdata": {"rt": -1, "stimulus": "<p id=\"stim\">5</p>", "key_press": -1, "trial_type": "single-stim", "trial_index": 83, "time_elapsed": 452376, "internal_node_id": "0.0-60.0-5.0"}}, {"uniqueid": "MTK0924:38F71OA9GU3SGM791L5NXZEMBWTFMX", "current_trial": 84, "dateTime": 1512892632749, "trialdata": {"rt": -1, "stimulus": "<p id=\"stim\">4</p>", "key_press": -1, "trial_type": "single-stim", "trial_index": 84, "time_elapsed": 453379, "internal_node_id": "0.0-60.0-6.0"}}, {"uniqueid": "MTK0924:38F71OA9GU3SGM791L5NXZEMBWTFMX", "current_trial": 85, "dateTime": 1512892633751, "trialdata": {"rt": -1, "stimulus": "<p id=\"stim\">3</p>", "key_press": -1, "trial_type": "single-stim", "trial_index": 85, "time_elapsed": 454381, "internal_node_id": "0.0-60.0-7.0"}}, {"uniqueid": "MTK0924:38F71OA9GU3SGM791L5NXZEMBWTFMX", "current_trial": 86, "dateTime": 1512892634754, "trialdata": {"rt": -1, "stimulus": "<p id=\"stim\">2</p>", "key_press": -1, "trial_type": "single-stim", "trial_index": 86, "time_elapsed": 455384, "internal_node_id": "0.0-60.0-8.0"}}, {"uniqueid": "MTK0924:38F71OA9GU3SGM791L5NXZEMBWTFMX", "current_trial": 87, "dateTime": 1512892635757, "trialdata": {"rt": -1, "stimulus": "<p id=\"stim\">1</p>", "key_press": -1, "trial_type": "single-stim", "trial_index": 87, "time_elapsed": 456387, "internal_node_id": "0.0-60.0-9.0"}}, {"uniqueid": "MTK0924:38F71OA9GU3SGM791L5NXZEMBWTFMX", "current_trial": 88, "dateTime": 1512892637261, "trialdata": {"rt": -1, "stimulus": "<p id=\"stim\">+</p>", "key_press": -1, "type": "FIXATION", "trial_type": "single-stim", "trial_index": 88, "time_elapsed": 457890, "internal_node_id": "0.0-61.0-0.0"}}, {"uniqueid": "MTK0924:38F71OA9GU3SGM791L5NXZEMBWTFMX", "current_trial": 89, "dateTime": 1512892639047, "trialdata": {"rt": -1000, "stimulus": "/static/audio/wordpool/SWIMMER.wav", "key_press": -1, "type": "PRES_AUD", "word": "swimmer", "wordID": 1419, "conditions": [12, 800, "a", 24000], "trial": 2, "serialpos": 0, "trial_type": "single-audio", "trial_index": 89, "time_elapsed": 459677, "internal_node_id": "0.0-62.0"}}, {"uniqueid": "MTK0924:38F71OA9GU3SGM791L5NXZEMBWTFMX", "current_trial": 90, "dateTime": 1512892640944, "trialdata": {"rt": -1000, "stimulus": "/static/audio/wordpool/CASHIER.wav", "key_press": -1, "type": "PRES_AUD", "word": "cashier", "wordID": 253, "conditions": [12, 800, "a", 24000], "trial": 2, "serialpos": 1, "trial_type": "single-audio", "trial_index": 90, "time_elapsed": 461574, "internal_node_id": "0.0-63.0"}}, {"uniqueid": "MTK0924:38F71OA9GU3SGM791L5NXZEMBWTFMX", "current_trial": 91, "dateTime": 1512892642838, "trialdata": {"rt": -1000, "stimulus": "/static/audio/wordpool/SPOON.wav", "key_press": -1, "type": "PRES_AUD", "word": "spoon", "wordID": 1356, "conditions": [12, 800, "a", 24000], "trial": 2, "serialpos": 2, "trial_type": "single-audio", "trial_index": 91, "time_elapsed": 463468, "internal_node_id": "0.0-64.0"}}, {"uniqueid": "MTK0924:38F71OA9GU3SGM791L5NXZEMBWTFMX", "current_trial": 92, "dateTime": 1512892644763, "trialdata": {"rt": -1000, "stimulus": "/static/audio/wordpool/SCRIBBLE.wav", "key_press": -1, "type": "PRES_AUD", "word": "scribble", "wordID": 1255, "conditions": [12, 800, "a", 24000], "trial": 2, "serialpos": 3, "trial_type": "single-audio", "trial_index": 92, "time_elapsed": 465393, "internal_node_id": "0.0-65.0"}}, {"uniqueid": "MTK0924:38F71OA9GU3SGM791L5NXZEMBWTFMX", "current_trial": 93, "dateTime": 1512892646459, "trialdata": {"rt": -1000, "stimulus": "/static/audio/wordpool/CRITIC.wav", "key_press": -1, "type": "PRES_AUD", "word": "critic", "wordID": 409, "conditions": [12, 800, "a", 24000], "trial": 2, "serialpos": 4, "trial_type": "single-audio", "trial_index": 93, "time_elapsed": 467089, "internal_node_id": "0.0-66.0"}}, {"uniqueid": "MTK0924:38F71OA9GU3SGM791L5NXZEMBWTFMX", "current_trial": 94, "dateTime": 1512892648183, "trialdata": {"rt": -1000, "stimulus": "/static/audio/wordpool/OFFICE.wav", "key_press": -1, "type": "PRES_AUD", "word": "office", "wordID": 971, "conditions": [12, 800, "a", 24000], "trial": 2, "serialpos": 5, "trial_type": "single-audio", "trial_index": 94, "time_elapsed": 468813, "internal_node_id": "0.0-67.0"}}, {"uniqueid": "MTK0924:38F71OA9GU3SGM791L5NXZEMBWTFMX", "current_trial": 95, "dateTime": 1512892649905, "trialdata": {"rt": -1000, "stimulus": "/static/audio/wordpool/WAITER.wav", "key_press": -1, "type": "PRES_AUD", "word": "waiter", "wordID": 1579, "conditions": [12, 800, "a", 24000], "trial": 2, "serialpos": 6, "trial_type": "single-audio", "trial_index": 95, "time_elapsed": 470535, "internal_node_id": "0.0-68.0"}}, {"uniqueid": "MTK0924:38F71OA9GU3SGM791L5NXZEMBWTFMX", "current_trial": 96, "dateTime": 1512892651547, "trialdata": {"rt": -1000, "stimulus": "/static/audio/wordpool/WORKER.wav", "key_press": -1, "type": "PRES_AUD", "word": "worker", "wordID": 1620, "conditions": [12, 800, "a", 24000], "trial": 2, "serialpos": 7, "trial_type": "single-audio", "trial_index": 96, "time_elapsed": 472177, "internal_node_id": "0.0-69.0"}}, {"uniqueid": "MTK0924:38F71OA9GU3SGM791L5NXZEMBWTFMX", "current_trial": 97, "dateTime": 1512892653494, "trialdata": {"rt": -1000, "stimulus": "/static/audio/wordpool/STOMACH.wav", "key_press": -1, "type": "PRES_AUD", "word": "stomach", "wordID": 1383, "conditions": [12, 800, "a", 24000], "trial": 2, "serialpos": 8, "trial_type": "single-audio", "trial_index": 97, "time_elapsed": 474124, "internal_node_id": "0.0-70.0"}}, {"uniqueid": "MTK0924:38F71OA9GU3SGM791L5NXZEMBWTFMX", "current_trial": 98, "dateTime": 1512892655240, "trialdata": {"rt": -1000, "stimulus": "/static/audio/wordpool/BARREL.wav", "key_press": -1, "type": "PRES_AUD", "word": "barrel", "wordID": 90, "conditions": [12, 800, "a", 24000], "trial": 2, "serialpos": 9, "trial_type": "single-audio", "trial_index": 98, "time_elapsed": 475870, "internal_node_id": "0.0-71.0"}}, {"uniqueid": "MTK0924:38F71OA9GU3SGM791L5NXZEMBWTFMX", "current_trial": 99, "dateTime": 1512892657099, "trialdata": {"rt": -1000, "stimulus": "/static/audio/wordpool/KITCHEN.wav", "key_press": -1, "type": "PRES_AUD", "word": "kitchen", "wordID": 777, "conditions": [12, 800, "a", 24000], "trial": 2, "serialpos": 10, "trial_type": "single-audio", "trial_index": 99, "time_elapsed": 477729, "internal_node_id": "0.0-72.0"}}, {"uniqueid": "MTK0924:38F71OA9GU3SGM791L5NXZEMBWTFMX", "current_trial": 100, "dateTime": 1512892658950, "trialdata": {"rt": -1000, "stimulus": "/static/audio/wordpool/CUPBOARD.wav", "key_press": -1, "type": "PRES_AUD", "word": "cupboard", "wordID": 424, "conditions": [12, 800, "a", 24000], "trial": 2, "serialpos": 11, "trial_type": "single-audio", "trial_index": 100, "time_elapsed": 479580, "internal_node_id": "0.0-73.0"}}, {"uniqueid": "MTK0924:38F71OA9GU3SGM791L5NXZEMBWTFMX", "current_trial": 101, "dateTime": 1512892660256, "trialdata": {"rt": -1, "stimulus": "", "key_press": -1, "type": "PRE_RECALL_DELAY", "trial_type": "single-stim", "trial_index": 101, "time_elapsed": 480886, "internal_node_id": "0.0-74.0-0.0"}}, {"uniqueid": "MTK0924:38F71OA9GU3SGM791L5NXZEMBWTFMX", "current_trial": 102, "dateTime": 1512892660758, "trialdata": {"rt": -1000, "stimulus": "/static/audio/400Hz.wav", "key_press": -1, "type": "PRE_RECALL_ALERT", "trial_type": "single-audio", "trial_index": 102, "time_elapsed": 481388, "internal_node_id": "0.0-75.0"}}, {"uniqueid": "MTK0924:38F71OA9GU3SGM791L5NXZEMBWTFMX", "current_trial": 103, "dateTime": 1512892720763, "trialdata": {"rt": [14044, 15394, 17970, 19253, 20805, 21998, 24293, 26397, 27725, 31201], "recwords": ["cashier", "spoon", "scribble", "critic", "waiter", "worker", "stomach", "barrel", "kitchen", "cupboard"], "type": "FREE_RECALL", "conditions": [12, 800, "a", 24000], "trial": 2, "trial_type": "free-recall", "trial_index": 103, "time_elapsed": 541392, "internal_node_id": "0.0-76.0-0.0"}}, {"uniqueid": "MTK0924:38F71OA9GU3SGM791L5NXZEMBWTFMX", "current_trial": 104, "dateTime": 1512892724236, "trialdata": {"rt": 1468, "key_press": 32, "type": "INSTRUCTIONS", "trial_type": "text", "trial_index": 104, "time_elapsed": 544866, "internal_node_id": "0.0-77.0"}}, {"uniqueid": "MTK0924:38F71OA9GU3SGM791L5NXZEMBWTFMX", "current_trial": 105, "dateTime": 1512892750239, "trialdata": {"rt": [5536, 7460, 10756, 14626, 16438, 18294, 20904], "responses": ["22", "18", "15", "15", "14", "15", "17"], "num1": [7, 5, 3, 6, 4, 7, 6, 6], "num2": [9, 5, 8, 7, 6, 7, 9, 8], "num3": [6, 8, 4, 2, 4, 1, 2, 3], "type": "DISTRACTOR", "conditions": [12, 1600, "a", 24000], "trial": 3, "trial_type": "math-distractor", "trial_index": 105, "time_elapsed": 570869, "internal_node_id": "0.0-78.0"}}, {"uniqueid": "MTK0924:38F71OA9GU3SGM791L5NXZEMBWTFMX", "current_trial": 106, "dateTime": 1512892753244, "trialdata": {"rt": -1, "stimulus": "<p id=\"stim\">10</p>", "key_press": -1, "trial_type": "single-stim", "trial_index": 106, "time_elapsed": 573874, "internal_node_id": "0.0-79.0-0.0"}}, {"uniqueid": "MTK0924:38F71OA9GU3SGM791L5NXZEMBWTFMX", "current_trial": 107, "dateTime": 1512892754247, "trialdata": {"rt": -1, "stimulus": "<p id=\"stim\">9</p>", "key_press": -1, "trial_type": "single-stim", "trial_index": 107, "time_elapsed": 574877, "internal_node_id": "0.0-79.0-1.0"}}, {"uniqueid": "MTK0924:38F71OA9GU3SGM791L5NXZEMBWTFMX", "current_trial": 108, "dateTime": 1512892755250, "trialdata": {"rt": -1, "stimulus": "<p id=\"stim\">8</p>", "key_press": -1, "trial_type": "single-stim", "trial_index": 108, "time_elapsed": 575880, "internal_node_id": "0.0-79.0-2.0"}}, {"uniqueid": "MTK0924:38F71OA9GU3SGM791L5NXZEMBWTFMX", "current_trial": 109, "dateTime": 1512892756252, "trialdata": {"rt": -1, "stimulus": "<p id=\"stim\">7</p>", "key_press": -1, "trial_type": "single-stim", "trial_index": 109, "time_elapsed": 576882, "internal_node_id": "0.0-79.0-3.0"}}, {"uniqueid": "MTK0924:38F71OA9GU3SGM791L5NXZEMBWTFMX", "current_trial": 110, "dateTime": 1512892757255, "trialdata": {"rt": -1, "stimulus": "<p id=\"stim\">6</p>", "key_press": -1, "trial_type": "single-stim", "trial_index": 110, "time_elapsed": 577885, "internal_node_id": "0.0-79.0-4.0"}}, {"uniqueid": "MTK0924:38F71OA9GU3SGM791L5NXZEMBWTFMX", "current_trial": 111, "dateTime": 1512892758258, "trialdata": {"rt": -1, "stimulus": "<p id=\"stim\">5</p>", "key_press": -1, "trial_type": "single-stim", "trial_index": 111, "time_elapsed": 578888, "internal_node_id": "0.0-79.0-5.0"}}, {"uniqueid": "MTK0924:38F71OA9GU3SGM791L5NXZEMBWTFMX", "current_trial": 112, "dateTime": 1512892759260, "trialdata": {"rt": -1, "stimulus": "<p id=\"stim\">4</p>", "key_press": -1, "trial_type": "single-stim", "trial_index": 112, "time_elapsed": 579890, "internal_node_id": "0.0-79.0-6.0"}}, {"uniqueid": "MTK0924:38F71OA9GU3SGM791L5NXZEMBWTFMX", "current_trial": 113, "dateTime": 1512892760263, "trialdata": {"rt": -1, "stimulus": "<p id=\"stim\">3</p>", "key_press": -1, "trial_type": "single-stim", "trial_index": 113, "time_elapsed": 580893, "internal_node_id": "0.0-79.0-7.0"}}, {"uniqueid": "MTK0924:38F71OA9GU3SGM791L5NXZEMBWTFMX", "current_trial": 114, "dateTime": 1512892761266, "trialdata": {"rt": -1, "stimulus": "<p id=\"stim\">2</p>", "key_press": -1, "trial_type": "single-stim", "trial_index": 114, "time_elapsed": 581896, "internal_node_id": "0.0-79.0-8.0"}}, {"uniqueid": "MTK0924:38F71OA9GU3SGM791L5NXZEMBWTFMX", "current_trial": 115, "dateTime": 1512892762268, "trialdata": {"rt": -1, "stimulus": "<p id=\"stim\">1</p>", "key_press": -1, "trial_type": "single-stim", "trial_index": 115, "time_elapsed": 582898, "internal_node_id": "0.0-79.0-9.0"}}, {"uniqueid": "MTK0924:38F71OA9GU3SGM791L5NXZEMBWTFMX", "current_trial": 116, "dateTime": 1512892763772, "trialdata": {"rt": -1, "stimulus": "<p id=\"stim\">+</p>", "key_press": -1, "type": "FIXATION", "trial_type": "single-stim", "trial_index": 116, "time_elapsed": 584402, "internal_node_id": "0.0-80.0-0.0"}}, {"uniqueid": "MTK0924:38F71OA9GU3SGM791L5NXZEMBWTFMX", "current_trial": 117, "dateTime": 1512892766436, "trialdata": {"rt": -1000, "stimulus": "/static/audio/wordpool/SKILLET.wav", "key_press": -1, "type": "PRES_AUD", "word": "skillet", "wordID": 1316, "conditions": [12, 1600, "a", 24000], "trial": 3, "serialpos": 0, "trial_type": "single-audio", "trial_index": 117, "time_elapsed": 587066, "internal_node_id": "0.0-81.0"}}, {"uniqueid": "MTK0924:38F71OA9GU3SGM791L5NXZEMBWTFMX", "current_trial": 118, "dateTime": 1512892769180, "trialdata": {"rt": -1000, "stimulus": "/static/audio/wordpool/SLOPE.wav", "key_press": -1, "type": "PRES_AUD", "word": "slope", "wordID": 1327, "conditions": [12, 1600, "a", 24000], "trial": 3, "serialpos": 1, "trial_type": "single-audio", "trial_index": 118, "time_elapsed": 589810, "internal_node_id": "0.0-82.0"}}, {"uniqueid": "MTK0924:38F71OA9GU3SGM791L5NXZEMBWTFMX", "current_trial": 119, "dateTime": 1512892771894, "trialdata": {"rt": -1000, "stimulus": "/static/audio/wordpool/TUBA.wav", "key_press": -1, "type": "PRES_AUD", "word": "tuba", "wordID": 1514, "conditions": [12, 1600, "a", 24000], "trial": 3, "serialpos": 2, "trial_type": "single-audio", "trial_index": 119, "time_elapsed": 592524, "internal_node_id": "0.0-83.0"}}, {"uniqueid": "MTK0924:38F71OA9GU3SGM791L5NXZEMBWTFMX", "current_trial": 120, "dateTime": 1512892774427, "trialdata": {"rt": -1000, "stimulus": "/static/audio/wordpool/TRUCK.wav", "key_press": -1, "type": "PRES_AUD", "word": "truck", "wordID": 1511, "conditions": [12, 1600, "a", 24000], "trial": 3, "serialpos": 3, "trial_type": "single-audio", "trial_index": 120, "time_elapsed": 595057, "internal_node_id": "0.0-84.0"}}, {"uniqueid": "MTK0924:38F71OA9GU3SGM791L5NXZEMBWTFMX", "current_trial": 121, "dateTime": 1512892777155, "trialdata": {"rt": -1000, "stimulus": "/static/audio/wordpool/MARROW.wav", "key_press": -1, "type": "PRES_AUD", "word": "marrow", "wordID": 871, "conditions": [12, 1600, "a", 24000], "trial": 3, "serialpos": 4, "trial_type": "single-audio", "trial_index": 121, "time_elapsed": 597785, "internal_node_id": "0.0-85.0"}}, {"uniqueid": "MTK0924:38F71OA9GU3SGM791L5NXZEMBWTFMX", "current_trial": 122, "dateTime": 1512892779936, "trialdata": {"rt": -1000, "stimulus": "/static/audio/wordpool/DINER.wav", "key_press": -1, "type": "PRES_AUD", "word": "diner", "wordID": 466, "conditions": [12, 1600, "a", 24000], "trial": 3, "serialpos": 5, "trial_type": "single-audio", "trial_index": 122, "time_elapsed": 600566, "internal_node_id": "0.0-86.0"}}, {"uniqueid": "MTK0924:38F71OA9GU3SGM791L5NXZEMBWTFMX", "current_trial": 123, "dateTime": 1512892782662, "trialdata": {"rt": -1000, "stimulus": "/static/audio/wordpool/CLOTHES.wav", "key_press": -1, "type": "PRES_AUD", "word": "clothes", "wordID": 326, "conditions": [12, 1600, "a", 24000], "trial": 3, "serialpos": 6, "trial_type": "single-audio", "trial_index": 123, "time_elapsed": 603291, "internal_node_id": "0.0-87.0"}}, {"uniqueid": "MTK0924:38F71OA9GU3SGM791L5NXZEMBWTFMX", "current_trial": 124, "dateTime": 1512892785147, "trialdata": {"rt": -1000, "stimulus": "/static/audio/wordpool/SCISSORS.wav", "key_press": -1, "type": "PRES_AUD", "word": "scissors", "wordID": 1249, "conditions": [12, 1600, "a", 24000], "trial": 3, "serialpos": 7, "trial_type": "single-audio", "trial_index": 124, "time_elapsed": 605777, "internal_node_id": "0.0-88.0"}}, {"uniqueid": "MTK0924:38F71OA9GU3SGM791L5NXZEMBWTFMX", "current_trial": 125, "dateTime": 1512892787584, "trialdata": {"rt": -1000, "stimulus": "/static/audio/wordpool/PIZZA.wav", "key_press": -1, "type": "PRES_AUD", "word": "pizza", "wordID": 1078, "conditions": [12, 1600, "a", 24000], "trial": 3, "serialpos": 8, "trial_type": "single-audio", "trial_index": 125, "time_elapsed": 608214, "internal_node_id": "0.0-89.0"}}, {"uniqueid": "MTK0924:38F71OA9GU3SGM791L5NXZEMBWTFMX", "current_trial": 126, "dateTime": 1512892790267, "trialdata": {"rt": -1000, "stimulus": "/static/audio/wordpool/PASTA.wav", "key_press": -1, "type": "PRES_AUD", "word": "pasta", "wordID": 1020, "conditions": [12, 1600, "a", 24000], "trial": 3, "serialpos": 9, "trial_type": "single-audio", "trial_index": 126, "time_elapsed": 610897, "internal_node_id": "0.0-90.0"}}, {"uniqueid": "MTK0924:38F71OA9GU3SGM791L5NXZEMBWTFMX", "current_trial": 127, "dateTime": 1512892792821, "trialdata": {"rt": -1000, "stimulus": "/static/audio/wordpool/CAPTIVE.wav", "key_press": -1, "type": "PRES_AUD", "word": "captive", "wordID": 239, "conditions": [12, 1600, "a", 24000], "trial": 3, "serialpos": 10, "trial_type": "single-audio", "trial_index": 127, "time_elapsed": 613451, "internal_node_id": "0.0-91.0"}}, {"uniqueid": "MTK0924:38F71OA9GU3SGM791L5NXZEMBWTFMX", "current_trial": 128, "dateTime": 1512892795493, "trialdata": {"rt": -1000, "stimulus": "/static/audio/wordpool/CAFE.wav", "key_press": -1, "type": "PRES_AUD", "word": "cafe", "wordID": 215, "conditions": [12, 1600, "a", 24000], "trial": 3, "serialpos": 11, "trial_type": "single-audio", "trial_index": 128, "time_elapsed": 616123, "internal_node_id": "0.0-92.0"}}, {"uniqueid": "MTK0924:38F71OA9GU3SGM791L5NXZEMBWTFMX", "current_trial": 129, "dateTime": 1512892796730, "trialdata": {"rt": -1, "stimulus": "", "key_press": -1, "type": "PRE_RECALL_DELAY", "trial_type": "single-stim", "trial_index": 129, "time_elapsed": 617360, "internal_node_id": "0.0-93.0-0.0"}}, {"uniqueid": "MTK0924:38F71OA9GU3SGM791L5NXZEMBWTFMX", "current_trial": 130, "dateTime": 1512892797231, "trialdata": {"rt": -1000, "stimulus": "/static/audio/400Hz.wav", "key_press": -1, "type": "PRE_RECALL_ALERT", "trial_type": "single-audio", "trial_index": 130, "time_elapsed": 617861, "internal_node_id": "0.0-94.0"}}, {"uniqueid": "MTK0924:38F71OA9GU3SGM791L5NXZEMBWTFMX", "current_trial": 131, "dateTime": 1512892857531, "trialdata": {"rt": [7105, 9243, 11572, 13563, 27446], "recwords": ["pizza", "pasta", "captive", "cafe", "coffee"], "type": "FREE_RECALL", "conditions": [12, 1600, "a", 24000], "trial": 3, "trial_type": "free-recall", "trial_index": 131, "time_elapsed": 678160, "internal_node_id": "0.0-95.0-0.0"}}, {"uniqueid": "MTK0924:38F71OA9GU3SGM791L5NXZEMBWTFMX", "current_trial": 132, "dateTime": 1512892861072, "trialdata": {"rt": 1539, "key_press": 32, "type": "INSTRUCTIONS", "trial_type": "text", "trial_index": 132, "time_elapsed": 681702, "internal_node_id": "0.0-96.0"}}, {"uniqueid": "MTK0924:38F71OA9GU3SGM791L5NXZEMBWTFMX", "current_trial": 133, "dateTime": 1512892875081, "trialdata": {"rt": [3834, 8357], "responses": ["15", "21"], "num1": [8, 9, 5], "num2": [4, 9, 4], "num3": [3, 3, 3], "type": "DISTRACTOR", "conditions": [24, 1600, "v", 12000], "trial": 4, "trial_type": "math-distractor", "trial_index": 133, "time_elapsed": 695711, "internal_node_id": "0.0-97.0"}}, {"uniqueid": "MTK0924:38F71OA9GU3SGM791L5NXZEMBWTFMX", "current_trial": 134, "dateTime": 1512892878089, "trialdata": {"rt": -1, "stimulus": "<p id=\"stim\">10</p>", "key_press": -1, "trial_type": "single-stim", "trial_index": 134, "time_elapsed": 698719, "internal_node_id": "0.0-98.0-0.0"}}, {"uniqueid": "MTK0924:38F71OA9GU3SGM791L5NXZEMBWTFMX", "current_trial": 135, "dateTime": 1512892879091, "trialdata": {"rt": -1, "stimulus": "<p id=\"stim\">9</p>", "key_press": -1, "trial_type": "single-stim", "trial_index": 135, "time_elapsed": 699721, "internal_node_id": "0.0-98.0-1.0"}}, {"uniqueid": "MTK0924:38F71OA9GU3SGM791L5NXZEMBWTFMX", "current_trial": 136, "dateTime": 1512892880092, "trialdata": {"rt": -1, "stimulus": "<p id=\"stim\">8</p>", "key_press": -1, "trial_type": "single-stim", "trial_index": 136, "time_elapsed": 700722, "internal_node_id": "0.0-98.0-2.0"}}, {"uniqueid": "MTK0924:38F71OA9GU3SGM791L5NXZEMBWTFMX", "current_trial": 137, "dateTime": 1512892881096, "trialdata": {"rt": -1, "stimulus": "<p id=\"stim\">7</p>", "key_press": -1, "trial_type": "single-stim", "trial_index": 137, "time_elapsed": 701726, "internal_node_id": "0.0-98.0-3.0"}}, {"uniqueid": "MTK0924:38F71OA9GU3SGM791L5NXZEMBWTFMX", "current_trial": 138, "dateTime": 1512892882425, "trialdata": {"rt": -1, "stimulus": "<p id=\"stim\">6</p>", "key_press": -1, "trial_type": "single-stim", "trial_index": 138, "time_elapsed": 703055, "internal_node_id": "0.0-98.0-4.0"}}, {"uniqueid": "MTK0924:38F71OA9GU3SGM791L5NXZEMBWTFMX", "current_trial": 139, "dateTime": 1512892883608, "trialdata": {"rt": -1, "stimulus": "<p id=\"stim\">5</p>", "key_press": -1, "trial_type": "single-stim", "trial_index": 139, "time_elapsed": 704238, "internal_node_id": "0.0-98.0-5.0"}}, {"uniqueid": "MTK0924:38F71OA9GU3SGM791L5NXZEMBWTFMX", "current_trial": 140, "dateTime": 1512892885422, "trialdata": {"rt": -1, "stimulus": "<p id=\"stim\">4</p>", "key_press": -1, "trial_type": "single-stim", "trial_index": 140, "time_elapsed": 706052, "internal_node_id": "0.0-98.0-6.0"}}, {"uniqueid": "MTK0924:38F71OA9GU3SGM791L5NXZEMBWTFMX", "current_trial": 141, "dateTime": 1512892886423, "trialdata": {"rt": -1, "stimulus": "<p id=\"stim\">3</p>", "key_press": -1, "trial_type": "single-stim", "trial_index": 141, "time_elapsed": 707053, "internal_node_id": "0.0-98.0-7.0"}}, {"uniqueid": "MTK0924:38F71OA9GU3SGM791L5NXZEMBWTFMX", "current_trial": 142, "dateTime": 1512892887423, "trialdata": {"rt": -1, "stimulus": "<p id=\"stim\">2</p>", "key_press": -1, "trial_type": "single-stim", "trial_index": 142, "time_elapsed": 708053, "internal_node_id": "0.0-98.0-8.0"}}, {"uniqueid": "MTK0924:38F71OA9GU3SGM791L5NXZEMBWTFMX", "current_trial": 143, "dateTime": 1512892888424, "trialdata": {"rt": -1, "stimulus": "<p id=\"stim\">1</p>", "key_press": -1, "trial_type": "single-stim", "trial_index": 143, "time_elapsed": 709054, "internal_node_id": "0.0-98.0-9.0"}}, {"uniqueid": "MTK0924:38F71OA9GU3SGM791L5NXZEMBWTFMX", "current_trial": 144, "dateTime": 1512892889928, "trialdata": {"rt": -1, "stimulus": "<p id=\"stim\">+</p>", "key_press": -1, "type": "FIXATION", "trial_type": "single-stim", "trial_index": 144, "time_elapsed": 710558, "internal_node_id": "0.0-99.0-0.0"}}, {"uniqueid": "MTK0924:38F71OA9GU3SGM791L5NXZEMBWTFMX", "current_trial": 145, "dateTime": 1512892891533, "trialdata": {"rt": -1, "stimulus": "<p id=\"stim\">LABEL</p>", "key_press": -1, "type": "PRES_VIS", "word": "label", "wordID": 789, "conditions": [24, 1600, "v", 12000], "trial": 4, "serialpos": 0, "trial_type": "single-stim", "trial_index": 145, "time_elapsed": 712163, "internal_node_id": "0.0-100.0"}}, {"uniqueid": "MTK0924:38F71OA9GU3SGM791L5NXZEMBWTFMX", "current_trial": 146, "dateTime": 1512892894173, "trialdata": {"rt": -1, "stimulus": "<p id=\"stim\">ARM</p>", "key_press": -1, "type": "PRES_VIS", "word": "arm", "wordID": 37, "conditions": [24, 1600, "v", 12000], "trial": 4, "serialpos": 1, "trial_type": "single-stim", "trial_index": 146, "time_elapsed": 714803, "internal_node_id": "0.0-101.0"}}, {"uniqueid": "MTK0924:38F71OA9GU3SGM791L5NXZEMBWTFMX", "current_trial": 147, "dateTime": 1512892896637, "trialdata": {"rt": -1, "stimulus": "<p id=\"stim\">LEG</p>", "key_press": -1, "type": "PRES_VIS", "word": "leg", "wordID": 808, "conditions": [24, 1600, "v", 12000], "trial": 4, "serialpos": 2, "trial_type": "single-stim", "trial_index": 147, "time_elapsed": 717267, "internal_node_id": "0.0-102.0"}}, {"uniqueid": "MTK0924:38F71OA9GU3SGM791L5NXZEMBWTFMX", "current_trial": 148, "dateTime": 1512892899271, "trialdata": {"rt": -1, "stimulus": "<p id=\"stim\">GRAPE</p>", "key_press": -1, "type": "PRES_VIS", "word": "grape", "wordID": 653, "conditions": [24, 1600, "v", 12000], "trial": 4, "serialpos": 3, "trial_type": "single-stim", "trial_index": 148, "time_elapsed": 719901, "internal_node_id": "0.0-103.0"}}, {"uniqueid": "MTK0924:38F71OA9GU3SGM791L5NXZEMBWTFMX", "current_trial": 149, "dateTime": 1512892901746, "trialdata": {"rt": -1, "stimulus": "<p id=\"stim\">WIDOW</p>", "key_press": -1, "type": "PRES_VIS", "word": "widow", "wordID": 1607, "conditions": [24, 1600, "v", 12000], "trial": 4, "serialpos": 4, "trial_type": "single-stim", "trial_index": 149, "time_elapsed": 722376, "internal_node_id": "0.0-104.0"}}, {"uniqueid": "MTK0924:38F71OA9GU3SGM791L5NXZEMBWTFMX", "current_trial": 150, "dateTime": 1512892904402, "trialdata": {"rt": -1, "stimulus": "<p id=\"stim\">HARP</p>", "key_press": -1, "type": "PRES_VIS", "word": "harp", "wordID": 688, "conditions": [24, 1600, "v", 12000], "trial": 4, "serialpos": 5, "trial_type": "single-stim", "trial_index": 150, "time_elapsed": 725032, "internal_node_id": "0.0-105.0"}}, {"uniqueid": "MTK0924:38F71OA9GU3SGM791L5NXZEMBWTFMX", "current_trial": 151, "dateTime": 1512892906983, "trialdata": {"rt": -1, "stimulus": "<p id=\"stim\">VENUS</p>", "key_press": -1, "type": "PRES_VIS", "word": "venus", "wordID": 1556, "conditions": [24, 1600, "v", 12000], "trial": 4, "serialpos": 6, "trial_type": "single-stim", "trial_index": 151, "time_elapsed": 727613, "internal_node_id": "0.0-106.0"}}, {"uniqueid": "MTK0924:38F71OA9GU3SGM791L5NXZEMBWTFMX", "current_trial": 152, "dateTime": 1512892909415, "trialdata": {"rt": -1, "stimulus": "<p id=\"stim\">GIFT</p>", "key_press": -1, "type": "PRES_VIS", "word": "gift", "wordID": 634, "conditions": [24, 1600, "v", 12000], "trial": 4, "serialpos": 7, "trial_type": "single-stim", "trial_index": 152, "time_elapsed": 730045, "internal_node_id": "0.0-107.0"}}, {"uniqueid": "MTK0924:38F71OA9GU3SGM791L5NXZEMBWTFMX", "current_trial": 153, "dateTime": 1512892912134, "trialdata": {"rt": -1, "stimulus": "<p id=\"stim\">SKETCH</p>", "key_press": -1, "type": "PRES_VIS", "word": "sketch", "wordID": 1314, "conditions": [24, 1600, "v", 12000], "trial": 4, "serialpos": 8, "trial_type": "single-stim", "trial_index": 153, "time_elapsed": 732764, "internal_node_id": "0.0-108.0"}}, {"uniqueid": "MTK0924:38F71OA9GU3SGM791L5NXZEMBWTFMX", "current_trial": 154, "dateTime": 1512892914838, "trialdata": {"rt": -1, "stimulus": "<p id=\"stim\">HOOD</p>", "key_press": -1, "type": "PRES_VIS", "word": "hood", "wordID": 713, "conditions": [24, 1600, "v", 12000], "trial": 4, "serialpos": 9, "trial_type": "single-stim", "trial_index": 154, "time_elapsed": 735468, "internal_node_id": "0.0-109.0"}}, {"uniqueid": "MTK0924:38F71OA9GU3SGM791L5NXZEMBWTFMX", "current_trial": 155, "dateTime": 1512892917590, "trialdata": {"rt": -1, "stimulus": "<p id=\"stim\">BANJO</p>", "key_press": -1, "type": "PRES_VIS", "word": "banjo", "wordID": 81, "conditions": [24, 1600, "v", 12000], "trial": 4, "serialpos": 10, "trial_type": "single-stim", "trial_index": 155, "time_elapsed": 738220, "internal_node_id": "0.0-110.0"}}, {"uniqueid": "MTK0924:38F71OA9GU3SGM791L5NXZEMBWTFMX", "current_trial": 156, "dateTime": 1512892920017, "trialdata": {"rt": -1, "stimulus": "<p id=\"stim\">AIRPORT</p>", "key_press": -1, "type": "PRES_VIS", "word": "airport", "wordID": 12, "conditions": [24, 1600, "v", 12000], "trial": 4, "serialpos": 11, "trial_type": "single-stim", "trial_index": 156, "time_elapsed": 740647, "internal_node_id": "0.0-111.0"}}, {"uniqueid": "MTK0924:38F71OA9GU3SGM791L5NXZEMBWTFMX", "current_trial": 157, "dateTime": 1512892922435, "trialdata": {"rt": -1, "stimulus": "<p id=\"stim\">SALMON</p>", "key_press": -1, "type": "PRES_VIS", "word": "salmon", "wordID": 1226, "conditions": [24, 1600, "v", 12000], "trial": 4, "serialpos": 12, "trial_type": "single-stim", "trial_index": 157, "time_elapsed": 743065, "internal_node_id": "0.0-112.0"}}, {"uniqueid": "MTK0924:38F71OA9GU3SGM791L5NXZEMBWTFMX", "current_trial": 158, "dateTime": 1512892924954, "trialdata": {"rt": -1, "stimulus": "<p id=\"stim\">POCKET</p>", "key_press": -1, "type": "PRES_VIS", "word": "pocket", "wordID": 1092, "conditions": [24, 1600, "v", 12000], "trial": 4, "serialpos": 13, "trial_type": "single-stim", "trial_index": 158, "time_elapsed": 745584, "internal_node_id": "0.0-113.0"}}, {"uniqueid": "MTK0924:38F71OA9GU3SGM791L5NXZEMBWTFMX", "current_trial": 159, "dateTime": 1512892927509, "trialdata": {"rt": -1, "stimulus": "<p id=\"stim\">PADDING</p>", "key_press": -1, "type": "PRES_VIS", "word": "padding", "wordID": 998, "conditions": [24, 1600, "v", 12000], "trial": 4, "serialpos": 14, "trial_type": "single-stim", "trial_index": 159, "time_elapsed": 748139, "internal_node_id": "0.0-114.0"}}, {"uniqueid": "MTK0924:38F71OA9GU3SGM791L5NXZEMBWTFMX", "current_trial": 160, "dateTime": 1512892930308, "trialdata": {"rt": -1, "stimulus": "<p id=\"stim\">PENGUIN</p>", "key_press": -1, "type": "PRES_VIS", "word": "penguin", "wordID": 1043, "conditions": [24, 1600, "v", 12000], "trial": 4, "serialpos": 15, "trial_type": "single-stim", "trial_index": 160, "time_elapsed": 750938, "internal_node_id": "0.0-115.0"}}, {"uniqueid": "MTK0924:38F71OA9GU3SGM791L5NXZEMBWTFMX", "current_trial": 161, "dateTime": 1512892932810, "trialdata": {"rt": -1, "stimulus": "<p id=\"stim\">BUGGY</p>", "key_press": -1, "type": "PRES_VIS", "word": "buggy", "wordID": 187, "conditions": [24, 1600, "v", 12000], "trial": 4, "serialpos": 16, "trial_type": "single-stim", "trial_index": 161, "time_elapsed": 753440, "internal_node_id": "0.0-116.0"}}, {"uniqueid": "MTK0924:38F71OA9GU3SGM791L5NXZEMBWTFMX", "current_trial": 162, "dateTime": 1512892935301, "trialdata": {"rt": -1, "stimulus": "<p id=\"stim\">BLOUSE</p>", "key_press": -1, "type": "PRES_VIS", "word": "blouse", "wordID": 138, "conditions": [24, 1600, "v", 12000], "trial": 4, "serialpos": 17, "trial_type": "single-stim", "trial_index": 162, "time_elapsed": 755931, "internal_node_id": "0.0-117.0"}}, {"uniqueid": "MTK0924:38F71OA9GU3SGM791L5NXZEMBWTFMX", "current_trial": 163, "dateTime": 1512892938085, "trialdata": {"rt": -1, "stimulus": "<p id=\"stim\">YARN</p>", "key_press": -1, "type": "PRES_VIS", "word": "yarn", "wordID": 1630, "conditions": [24, 1600, "v", 12000], "trial": 4, "serialpos": 18, "trial_type": "single-stim", "trial_index": 163, "time_elapsed": 758715, "internal_node_id": "0.0-118.0"}}, {"uniqueid": "MTK0924:38F71OA9GU3SGM791L5NXZEMBWTFMX", "current_trial": 164, "dateTime": 1512892940613, "trialdata": {"rt": -1, "stimulus": "<p id=\"stim\">FINGER</p>", "key_press": -1, "type": "PRES_VIS", "word": "finger", "wordID": 566, "conditions": [24, 1600, "v", 12000], "trial": 4, "serialpos": 19, "trial_type": "single-stim", "trial_index": 164, "time_elapsed": 761243, "internal_node_id": "0.0-119.0"}}, {"uniqueid": "MTK0924:38F71OA9GU3SGM791L5NXZEMBWTFMX", "current_trial": 165, "dateTime": 1512892943119, "trialdata": {"rt": -1, "stimulus": "<p id=\"stim\">TURTLE</p>", "key_press": -1, "type": "PRES_VIS", "word": "turtle", "wordID": 1521, "conditions": [24, 1600, "v", 12000], "trial": 4, "serialpos": 20, "trial_type": "single-stim", "trial_index": 165, "time_elapsed": 763749, "internal_node_id": "0.0-120.0"}}, {"uniqueid": "MTK0924:38F71OA9GU3SGM791L5NXZEMBWTFMX", "current_trial": 166, "dateTime": 1512892945892, "trialdata": {"rt": -1, "stimulus": "<p id=\"stim\">PANTHER</p>", "key_press": -1, "type": "PRES_VIS", "word": "panther", "wordID": 1008, "conditions": [24, 1600, "v", 12000], "trial": 4, "serialpos": 21, "trial_type": "single-stim", "trial_index": 166, "time_elapsed": 766522, "internal_node_id": "0.0-121.0"}}, {"uniqueid": "MTK0924:38F71OA9GU3SGM791L5NXZEMBWTFMX", "current_trial": 167, "dateTime": 1512892948367, "trialdata": {"rt": -1, "stimulus": "<p id=\"stim\">SHIRT</p>", "key_press": -1, "type": "PRES_VIS", "word": "shirt", "wordID": 1286, "conditions": [24, 1600, "v", 12000], "trial": 4, "serialpos": 22, "trial_type": "single-stim", "trial_index": 167, "time_elapsed": 768997, "internal_node_id": "0.0-122.0"}}, {"uniqueid": "MTK0924:38F71OA9GU3SGM791L5NXZEMBWTFMX", "current_trial": 168, "dateTime": 1512892950943, "trialdata": {"rt": -1, "stimulus": "<p id=\"stim\">VAGRANT</p>", "key_press": -1, "type": "PRES_VIS", "word": "vagrant", "wordID": 1543, "conditions": [24, 1600, "v", 12000], "trial": 4, "serialpos": 23, "trial_type": "single-stim", "trial_index": 168, "time_elapsed": 771573, "internal_node_id": "0.0-123.0"}}, {"uniqueid": "MTK0924:38F71OA9GU3SGM791L5NXZEMBWTFMX", "current_trial": 169, "dateTime": 1512892953364, "trialdata": {"rt": -1, "stimulus": "", "key_press": -1, "type": "PRE_RECALL_DELAY", "trial_type": "single-stim", "trial_index": 169, "time_elapsed": 773994, "internal_node_id": "0.0-124.0-0.0"}}, {"uniqueid": "MTK0924:38F71OA9GU3SGM791L5NXZEMBWTFMX", "current_trial": 170, "dateTime": 1512892953865, "trialdata": {"rt": -1000, "stimulus": "/static/audio/400Hz.wav", "key_press": -1, "type": "PRE_RECALL_ALERT", "trial_type": "single-audio", "trial_index": 170, "time_elapsed": 774495, "internal_node_id": "0.0-125.0"}}, {"uniqueid": "MTK0924:38F71OA9GU3SGM791L5NXZEMBWTFMX", "current_trial": 171, "dateTime": 1512893013871, "trialdata": {"rt": [6782, 11890, 19776, 22848, 28754, 31746, 34548, 38136, 41467, 46878, 49286, 54292, 55552, 58162], "recwords": ["leg", "widow", "gift", "sketch", "hood", "airport", "salmon", "padding", "penguin", "blouse", "yarn", "turtle", "finger", "panther"], "type": "FREE_RECALL", "conditions": [24, 1600, "v", 12000], "trial": 4, "trial_type": "free-recall", "trial_index": 171, "time_elapsed": 834500, "internal_node_id": "0.0-126.0-0.0"}}, {"uniqueid": "MTK0924:38F71OA9GU3SGM791L5NXZEMBWTFMX", "current_trial": 172, "dateTime": 1512893024156, "trialdata": {"rt": 8281, "key_press": 32, "type": "INSTRUCTIONS", "trial_type": "text", "trial_index": 172, "time_elapsed": 844786, "internal_node_id": "0.0-127.0"}}, {"uniqueid": "MTK0924:38F71OA9GU3SGM791L5NXZEMBWTFMX", "current_trial": 173, "dateTime": 1512893038162, "trialdata": {"rt": [2903, 4860, 11352], "responses": ["12", "", "13"], "num1": [3, 5, 1, 4], "num2": [7, 2, 4, 5], "num3": [2, 9, 8, 3], "type": "DISTRACTOR", "conditions": [12, 800, "a", 12000], "trial": 5, "trial_type": "math-distractor", "trial_index": 173, "time_elapsed": 858792, "internal_node_id": "0.0-128.0"}}, {"uniqueid": "MTK0924:38F71OA9GU3SGM791L5NXZEMBWTFMX", "current_trial": 174, "dateTime": 1512893041170, "trialdata": {"rt": -1, "stimulus": "<p id=\"stim\">10</p>", "key_press": -1, "trial_type": "single-stim", "trial_index": 174, "time_elapsed": 861800, "internal_node_id": "0.0-129.0-0.0"}}, {"uniqueid": "MTK0924:38F71OA9GU3SGM791L5NXZEMBWTFMX", "current_trial": 175, "dateTime": 1512893042172, "trialdata": {"rt": -1, "stimulus": "<p id=\"stim\">9</p>", "key_press": -1, "trial_type": "single-stim", "trial_index": 175, "time_elapsed": 862802, "internal_node_id": "0.0-129.0-1.0"}}, {"uniqueid": "MTK0924:38F71OA9GU3SGM791L5NXZEMBWTFMX", "current_trial": 176, "dateTime": 1512893043175, "trialdata": {"rt": -1, "stimulus": "<p id=\"stim\">8</p>", "key_press": -1, "trial_type": "single-stim", "trial_index": 176, "time_elapsed": 863805, "internal_node_id": "0.0-129.0-2.0"}}, {"uniqueid": "MTK0924:38F71OA9GU3SGM791L5NXZEMBWTFMX", "current_trial": 177, "dateTime": 1512893044177, "trialdata": {"rt": -1, "stimulus": "<p id=\"stim\">7</p>", "key_press": -1, "trial_type": "single-stim", "trial_index": 177, "time_elapsed": 864807, "internal_node_id": "0.0-129.0-3.0"}}, {"uniqueid": "MTK0924:38F71OA9GU3SGM791L5NXZEMBWTFMX", "current_trial": 178, "dateTime": 1512893045180, "trialdata": {"rt": -1, "stimulus": "<p id=\"stim\">6</p>", "key_press": -1, "trial_type": "single-stim", "trial_index": 178, "time_elapsed": 865810, "internal_node_id": "0.0-129.0-4.0"}}, {"uniqueid": "MTK0924:38F71OA9GU3SGM791L5NXZEMBWTFMX", "current_trial": 179, "dateTime": 1512893046182, "trialdata": {"rt": -1, "stimulus": "<p id=\"stim\">5</p>", "key_press": -1, "trial_type": "single-stim", "trial_index": 179, "time_elapsed": 866812, "internal_node_id": "0.0-129.0-5.0"}}, {"uniqueid": "MTK0924:38F71OA9GU3SGM791L5NXZEMBWTFMX", "current_trial": 180, "dateTime": 1512893047185, "trialdata": {"rt": -1, "stimulus": "<p id=\"stim\">4</p>", "key_press": -1, "trial_type": "single-stim", "trial_index": 180, "time_elapsed": 867815, "internal_node_id": "0.0-129.0-6.0"}}, {"uniqueid": "MTK0924:38F71OA9GU3SGM791L5NXZEMBWTFMX", "current_trial": 181, "dateTime": 1512893048188, "trialdata": {"rt": -1, "stimulus": "<p id=\"stim\">3</p>", "key_press": -1, "trial_type": "single-stim", "trial_index": 181, "time_elapsed": 868818, "internal_node_id": "0.0-129.0-7.0"}}, {"uniqueid": "MTK0924:38F71OA9GU3SGM791L5NXZEMBWTFMX", "current_trial": 182, "dateTime": 1512893049191, "trialdata": {"rt": -1, "stimulus": "<p id=\"stim\">2</p>", "key_press": -1, "trial_type": "single-stim", "trial_index": 182, "time_elapsed": 869820, "internal_node_id": "0.0-129.0-8.0"}}, {"uniqueid": "MTK0924:38F71OA9GU3SGM791L5NXZEMBWTFMX", "current_trial": 183, "dateTime": 1512893050193, "trialdata": {"rt": -1, "stimulus": "<p id=\"stim\">1</p>", "key_press": -1, "trial_type": "single-stim", "trial_index": 183, "time_elapsed": 870823, "internal_node_id": "0.0-129.0-9.0"}}, {"uniqueid": "MTK0924:38F71OA9GU3SGM791L5NXZEMBWTFMX", "current_trial": 184, "dateTime": 1512893051697, "trialdata": {"rt": -1, "stimulus": "<p id=\"stim\">+</p>", "key_press": -1, "type": "FIXATION", "trial_type": "single-stim", "trial_index": 184, "time_elapsed": 872327, "internal_node_id": "0.0-130.0-0.0"}}, {"uniqueid": "MTK0924:38F71OA9GU3SGM791L5NXZEMBWTFMX", "current_trial": 185, "dateTime": 1512893053670, "trialdata": {"rt": -1000, "stimulus": "/static/audio/wordpool/GOBLIN.wav", "key_press": -1, "type": "PRES_AUD", "word": "goblin", "wordID": 644, "conditions": [12, 800, "a", 12000], "trial": 5, "serialpos": 0, "trial_type": "single-audio", "trial_index": 185, "time_elapsed": 874300, "internal_node_id": "0.0-131.0"}}, {"uniqueid": "MTK0924:38F71OA9GU3SGM791L5NXZEMBWTFMX", "current_trial": 186, "dateTime": 1512893055635, "trialdata": {"rt": -1000, "stimulus": "/static/audio/wordpool/FOOT.wav", "key_press": -1, "type": "PRES_AUD", "word": "foot", "wordID": 589, "conditions": [12, 800, "a", 12000], "trial": 5, "serialpos": 1, "trial_type": "single-audio", "trial_index": 186, "time_elapsed": 876265, "internal_node_id": "0.0-132.0"}}, {"uniqueid": "MTK0924:38F71OA9GU3SGM791L5NXZEMBWTFMX", "current_trial": 187, "dateTime": 1512893057312, "trialdata": {"rt": -1000, "stimulus": "/static/audio/wordpool/HOOK.wav", "key_press": -1, "type": "PRES_AUD", "word": "hook", "wordID": 714, "conditions": [12, 800, "a", 12000], "trial": 5, "serialpos": 2, "trial_type": "single-audio", "trial_index": 187, "time_elapsed": 877942, "internal_node_id": "0.0-133.0"}}, {"uniqueid": "MTK0924:38F71OA9GU3SGM791L5NXZEMBWTFMX", "current_trial": 188, "dateTime": 1512893058950, "trialdata": {"rt": -1000, "stimulus": "/static/audio/wordpool/LEOPARD.wav", "key_press": -1, "type": "PRES_AUD", "word": "leopard", "wordID": 811, "conditions": [12, 800, "a", 12000], "trial": 5, "serialpos": 3, "trial_type": "single-audio", "trial_index": 188, "time_elapsed": 879580, "internal_node_id": "0.0-134.0"}}, {"uniqueid": "MTK0924:38F71OA9GU3SGM791L5NXZEMBWTFMX", "current_trial": 189, "dateTime": 1512893060932, "trialdata": {"rt": -1000, "stimulus": "/static/audio/wordpool/CHURCH.wav", "key_press": -1, "type": "PRES_AUD", "word": "church", "wordID": 306, "conditions": [12, 800, "a", 12000], "trial": 5, "serialpos": 4, "trial_type": "single-audio", "trial_index": 189, "time_elapsed": 881562, "internal_node_id": "0.0-135.0"}}, {"uniqueid": "MTK0924:38F71OA9GU3SGM791L5NXZEMBWTFMX", "current_trial": 190, "dateTime": 1512893062694, "trialdata": {"rt": -1000, "stimulus": "/static/audio/wordpool/ROBIN.wav", "key_press": -1, "type": "PRES_AUD", "word": "robin", "wordID": 1198, "conditions": [12, 800, "a", 12000], "trial": 5, "serialpos": 5, "trial_type": "single-audio", "trial_index": 190, "time_elapsed": 883324, "internal_node_id": "0.0-136.0"}}, {"uniqueid": "MTK0924:38F71OA9GU3SGM791L5NXZEMBWTFMX", "current_trial": 191, "dateTime": 1512893064496, "trialdata": {"rt": -1000, "stimulus": "/static/audio/wordpool/DRAGON.wav", "key_press": -1, "type": "PRES_AUD", "word": "dragon", "wordID": 491, "conditions": [12, 800, "a", 12000], "trial": 5, "serialpos": 6, "trial_type": "single-audio", "trial_index": 191, "time_elapsed": 885126, "internal_node_id": "0.0-137.0"}}, {"uniqueid": "MTK0924:38F71OA9GU3SGM791L5NXZEMBWTFMX", "current_trial": 192, "dateTime": 1512893066283, "trialdata": {"rt": -1000, "stimulus": "/static/audio/wordpool/PIANO.wav", "key_press": -1, "type": "PRES_AUD", "word": "piano", "wordID": 1056, "conditions": [12, 800, "a", 12000], "trial": 5, "serialpos": 7, "trial_type": "single-audio", "trial_index": 192, "time_elapsed": 886913, "internal_node_id": "0.0-138.0"}}, {"uniqueid": "MTK0924:38F71OA9GU3SGM791L5NXZEMBWTFMX", "current_trial": 193, "dateTime": 1512893067984, "trialdata": {"rt": -1000, "stimulus": "/static/audio/wordpool/DAISY.wav", "key_press": -1, "type": "PRES_AUD", "word": "daisy", "wordID": 434, "conditions": [12, 800, "a", 12000], "trial": 5, "serialpos": 8, "trial_type": "single-audio", "trial_index": 193, "time_elapsed": 888614, "internal_node_id": "0.0-139.0"}}, {"uniqueid": "MTK0924:38F71OA9GU3SGM791L5NXZEMBWTFMX", "current_trial": 194, "dateTime": 1512893069867, "trialdata": {"rt": -1000, "stimulus": "/static/audio/wordpool/MAILBOX.wav", "key_press": -1, "type": "PRES_AUD", "word": "mailbox", "wordID": 856, "conditions": [12, 800, "a", 12000], "trial": 5, "serialpos": 9, "trial_type": "single-audio", "trial_index": 194, "time_elapsed": 890497, "internal_node_id": "0.0-140.0"}}, {"uniqueid": "MTK0924:38F71OA9GU3SGM791L5NXZEMBWTFMX", "current_trial": 195, "dateTime": 1512893071835, "trialdata": {"rt": -1000, "stimulus": "/static/audio/wordpool/MAILMAN.wav", "key_press": -1, "type": "PRES_AUD", "word": "mailman", "wordID": 857, "conditions": [12, 800, "a", 12000], "trial": 5, "serialpos": 10, "trial_type": "single-audio", "trial_index": 195, "time_elapsed": 892465, "internal_node_id": "0.0-141.0"}}, {"uniqueid": "MTK0924:38F71OA9GU3SGM791L5NXZEMBWTFMX", "current_trial": 196, "dateTime": 1512893073456, "trialdata": {"rt": -1000, "stimulus": "/static/audio/wordpool/PATIENT.wav", "key_press": -1, "type": "PRES_AUD", "word": "patient", "wordID": 1023, "conditions": [12, 800, "a", 12000], "trial": 5, "serialpos": 11, "trial_type": "single-audio", "trial_index": 196, "time_elapsed": 894086, "internal_node_id": "0.0-142.0"}}, {"uniqueid": "MTK0924:38F71OA9GU3SGM791L5NXZEMBWTFMX", "current_trial": 197, "dateTime": 1512893074769, "trialdata": {"rt": -1, "stimulus": "", "key_press": -1, "type": "PRE_RECALL_DELAY", "trial_type": "single-stim", "trial_index": 197, "time_elapsed": 895399, "internal_node_id": "0.0-143.0-0.0"}}, {"uniqueid": "MTK0924:38F71OA9GU3SGM791L5NXZEMBWTFMX", "current_trial": 198, "dateTime": 1512893075270, "trialdata": {"rt": -1000, "stimulus": "/static/audio/400Hz.wav", "key_press": -1, "type": "PRE_RECALL_ALERT", "trial_type": "single-audio", "trial_index": 198, "time_elapsed": 895900, "internal_node_id": "0.0-144.0"}}, {"uniqueid": "MTK0924:38F71OA9GU3SGM791L5NXZEMBWTFMX", "current_trial": 199, "dateTime": 1512893135493, "trialdata": {"rt": [2684, 4338, 6408, 8680], "recwords": ["mailbox", "mailman", "dragon", "patient"], "type": "FREE_RECALL", "conditions": [12, 800, "a", 12000], "trial": 5, "trial_type": "free-recall", "trial_index": 199, "time_elapsed": 956121, "internal_node_id": "0.0-145.0-0.0"}}, {"uniqueid": "MTK0924:38F71OA9GU3SGM791L5NXZEMBWTFMX", "current_trial": 200, "dateTime": 1512893143398, "trialdata": {"rt": 4918, "key_press": 32, "type": "INSTRUCTIONS", "trial_type": "text", "trial_index": 200, "time_elapsed": 964028, "internal_node_id": "0.0-146.0"}}, {"uniqueid": "MTK0924:38F71OA9GU3SGM791L5NXZEMBWTFMX", "current_trial": 201, "dateTime": 1512893169400, "trialdata": {"rt": [2982, 6718, 9001, 13378, 16651, 19081, 20814], "responses": ["9", "15", "10", "16", "17", "10", "12"], "num1": [5, 5, 1, 4, 6, 1, 8, 3], "num2": [2, 7, 6, 5, 3, 4, 2, 1], "num3": [2, 3, 3, 7, 8, 5, 2, 7], "type": "DISTRACTOR", "conditions": [24, 1600, "v", 24000], "trial": 6, "trial_type": "math-distractor", "trial_index": 201, "time_elapsed": 990030, "internal_node_id": "0.0-147.0"}}, {"uniqueid": "MTK0924:38F71OA9GU3SGM791L5NXZEMBWTFMX", "current_trial": 202, "dateTime": 1512893172408, "trialdata": {"rt": -1, "stimulus": "<p id=\"stim\">10</p>", "key_press": -1, "trial_type": "single-stim", "trial_index": 202, "time_elapsed": 993038, "internal_node_id": "0.0-148.0-0.0"}}, {"uniqueid": "MTK0924:38F71OA9GU3SGM791L5NXZEMBWTFMX", "current_trial": 203, "dateTime": 1512893173410, "trialdata": {"rt": -1, "stimulus": "<p id=\"stim\">9</p>", "key_press": -1, "trial_type": "single-stim", "trial_index": 203, "time_elapsed": 994040, "internal_node_id": "0.0-148.0-1.0"}}, {"uniqueid": "MTK0924:38F71OA9GU3SGM791L5NXZEMBWTFMX", "current_trial": 204, "dateTime": 1512893174413, "trialdata": {"rt": -1, "stimulus": "<p id=\"stim\">8</p>", "key_press": -1, "trial_type": "single-stim", "trial_index": 204, "time_elapsed": 995043, "internal_node_id": "0.0-148.0-2.0"}}, {"uniqueid": "MTK0924:38F71OA9GU3SGM791L5NXZEMBWTFMX", "current_trial": 205, "dateTime": 1512893175421, "trialdata": {"rt": -1, "stimulus": "<p id=\"stim\">7</p>", "key_press": -1, "trial_type": "single-stim", "trial_index": 205, "time_elapsed": 996051, "internal_node_id": "0.0-148.0-3.0"}}, {"uniqueid": "MTK0924:38F71OA9GU3SGM791L5NXZEMBWTFMX", "current_trial": 206, "dateTime": 1512893176421, "trialdata": {"rt": -1, "stimulus": "<p id=\"stim\">6</p>", "key_press": -1, "trial_type": "single-stim", "trial_index": 206, "time_elapsed": 997051, "internal_node_id": "0.0-148.0-4.0"}}, {"uniqueid": "MTK0924:38F71OA9GU3SGM791L5NXZEMBWTFMX", "current_trial": 207, "dateTime": 1512893178423, "trialdata": {"rt": -1, "stimulus": "<p id=\"stim\">5</p>", "key_press": -1, "trial_type": "single-stim", "trial_index": 207, "time_elapsed": 999052, "internal_node_id": "0.0-148.0-5.0"}}, {"uniqueid": "MTK0924:38F71OA9GU3SGM791L5NXZEMBWTFMX", "current_trial": 208, "dateTime": 1512893180423, "trialdata": {"rt": -1, "stimulus": "<p id=\"stim\">4</p>", "key_press": -1, "trial_type": "single-stim", "trial_index": 208, "time_elapsed": 1001053, "internal_node_id": "0.0-148.0-6.0"}}, {"uniqueid": "MTK0924:38F71OA9GU3SGM791L5NXZEMBWTFMX", "current_trial": 209, "dateTime": 1512893181426, "trialdata": {"rt": -1, "stimulus": "<p id=\"stim\">3</p>", "key_press": -1, "trial_type": "single-stim", "trial_index": 209, "time_elapsed": 1002055, "internal_node_id": "0.0-148.0-7.0"}}, {"uniqueid": "MTK0924:38F71OA9GU3SGM791L5NXZEMBWTFMX", "current_trial": 210, "dateTime": 1512893182427, "trialdata": {"rt": -1, "stimulus": "<p id=\"stim\">2</p>", "key_press": -1, "trial_type": "single-stim", "trial_index": 210, "time_elapsed": 1003057, "internal_node_id": "0.0-148.0-8.0"}}, {"uniqueid": "MTK0924:38F71OA9GU3SGM791L5NXZEMBWTFMX", "current_trial": 211, "dateTime": 1512893183428, "trialdata": {"rt": -1, "stimulus": "<p id=\"stim\">1</p>", "key_press": -1, "trial_type": "single-stim", "trial_index": 211, "time_elapsed": 1004058, "internal_node_id": "0.0-148.0-9.0"}}, {"uniqueid": "MTK0924:38F71OA9GU3SGM791L5NXZEMBWTFMX", "current_trial": 212, "dateTime": 1512893184930, "trialdata": {"rt": -1, "stimulus": "<p id=\"stim\">+</p>", "key_press": -1, "type": "FIXATION", "trial_type": "single-stim", "trial_index": 212, "time_elapsed": 1005560, "internal_node_id": "0.0-149.0-0.0"}}, {"uniqueid": "MTK0924:38F71OA9GU3SGM791L5NXZEMBWTFMX", "current_trial": 213, "dateTime": 1512893186535, "trialdata": {"rt": -1, "stimulus": "<p id=\"stim\">BRIEFCASE</p>", "key_press": -1, "type": "PRES_VIS", "word": "briefcase", "wordID": 174, "conditions": [24, 1600, "v", 24000], "trial": 6, "serialpos": 0, "trial_type": "single-stim", "trial_index": 213, "time_elapsed": 1007165, "internal_node_id": "0.0-150.0"}}, {"uniqueid": "MTK0924:38F71OA9GU3SGM791L5NXZEMBWTFMX", "current_trial": 214, "dateTime": 1512893189100, "trialdata": {"rt": -1, "stimulus": "<p id=\"stim\">KNAPSACK</p>", "key_press": -1, "type": "PRES_VIS", "word": "knapsack", "wordID": 782, "conditions": [24, 1600, "v", 24000], "trial": 6, "serialpos": 1, "trial_type": "single-stim", "trial_index": 214, "time_elapsed": 1009730, "internal_node_id": "0.0-151.0"}}, {"uniqueid": "MTK0924:38F71OA9GU3SGM791L5NXZEMBWTFMX", "current_trial": 215, "dateTime": 1512893191841, "trialdata": {"rt": -1, "stimulus": "<p id=\"stim\">PAPER</p>", "key_press": -1, "type": "PRES_VIS", "word": "paper", "wordID": 1010, "conditions": [24, 1600, "v", 24000], "trial": 6, "serialpos": 2, "trial_type": "single-stim", "trial_index": 215, "time_elapsed": 1012471, "internal_node_id": "0.0-152.0"}}, {"uniqueid": "MTK0924:38F71OA9GU3SGM791L5NXZEMBWTFMX", "current_trial": 216, "dateTime": 1512893194555, "trialdata": {"rt": -1, "stimulus": "<p id=\"stim\">INMATE</p>", "key_press": -1, "type": "PRES_VIS", "word": "inmate", "wordID": 737, "conditions": [24, 1600, "v", 24000], "trial": 6, "serialpos": 3, "trial_type": "single-stim", "trial_index": 216, "time_elapsed": 1015185, "internal_node_id": "0.0-153.0"}}, {"uniqueid": "MTK0924:38F71OA9GU3SGM791L5NXZEMBWTFMX", "current_trial": 217, "dateTime": 1512893197240, "trialdata": {"rt": -1, "stimulus": "<p id=\"stim\">PREACHER</p>", "key_press": -1, "type": "PRES_VIS", "word": "preacher", "wordID": 1118, "conditions": [24, 1600, "v", 24000], "trial": 6, "serialpos": 4, "trial_type": "single-stim", "trial_index": 217, "time_elapsed": 1017870, "internal_node_id": "0.0-154.0"}}, {"uniqueid": "MTK0924:38F71OA9GU3SGM791L5NXZEMBWTFMX", "current_trial": 218, "dateTime": 1512893199899, "trialdata": {"rt": -1, "stimulus": "<p id=\"stim\">HORNET</p>", "key_press": -1, "type": "PRES_VIS", "word": "hornet", "wordID": 717, "conditions": [24, 1600, "v", 24000], "trial": 6, "serialpos": 5, "trial_type": "single-stim", "trial_index": 218, "time_elapsed": 1020528, "internal_node_id": "0.0-155.0"}}, {"uniqueid": "MTK0924:38F71OA9GU3SGM791L5NXZEMBWTFMX", "current_trial": 219, "dateTime": 1512893202485, "trialdata": {"rt": -1, "stimulus": "<p id=\"stim\">ULCER</p>", "key_press": -1, "type": "PRES_VIS", "word": "ulcer", "wordID": 1532, "conditions": [24, 1600, "v", 24000], "trial": 6, "serialpos": 6, "trial_type": "single-stim", "trial_index": 219, "time_elapsed": 1023115, "internal_node_id": "0.0-156.0"}}, {"uniqueid": "MTK0924:38F71OA9GU3SGM791L5NXZEMBWTFMX", "current_trial": 220, "dateTime": 1512893205205, "trialdata": {"rt": -1, "stimulus": "<p id=\"stim\">ROBBER</p>", "key_press": -1, "type": "PRES_VIS", "word": "robber", "wordID": 1196, "conditions": [24, 1600, "v", 24000], "trial": 6, "serialpos": 7, "trial_type": "single-stim", "trial_index": 220, "time_elapsed": 1025835, "internal_node_id": "0.0-157.0"}}, {"uniqueid": "MTK0924:38F71OA9GU3SGM791L5NXZEMBWTFMX", "current_trial": 221, "dateTime": 1512893207925, "trialdata": {"rt": -1, "stimulus": "<p id=\"stim\">WASP</p>", "key_press": -1, "type": "PRES_VIS", "word": "wasp", "wordID": 1592, "conditions": [24, 1600, "v", 24000], "trial": 6, "serialpos": 8, "trial_type": "single-stim", "trial_index": 221, "time_elapsed": 1028555, "internal_node_id": "0.0-158.0"}}, {"uniqueid": "MTK0924:38F71OA9GU3SGM791L5NXZEMBWTFMX", "current_trial": 222, "dateTime": 1512893210395, "trialdata": {"rt": -1, "stimulus": "<p id=\"stim\">SMOG</p>", "key_press": -1, "type": "PRES_VIS", "word": "smog", "wordID": 1329, "conditions": [24, 1600, "v", 24000], "trial": 6, "serialpos": 9, "trial_type": "single-stim", "trial_index": 222, "time_elapsed": 1031025, "internal_node_id": "0.0-159.0"}}, {"uniqueid": "MTK0924:38F71OA9GU3SGM791L5NXZEMBWTFMX", "current_trial": 223, "dateTime": 1512893212901, "trialdata": {"rt": -1, "stimulus": "<p id=\"stim\">BALLOON</p>", "key_press": -1, "type": "PRES_VIS", "word": "balloon", "wordID": 74, "conditions": [24, 1600, "v", 24000], "trial": 6, "serialpos": 10, "trial_type": "single-stim", "trial_index": 223, "time_elapsed": 1033531, "internal_node_id": "0.0-160.0"}}, {"uniqueid": "MTK0924:38F71OA9GU3SGM791L5NXZEMBWTFMX", "current_trial": 224, "dateTime": 1512893215413, "trialdata": {"rt": -1, "stimulus": "<p id=\"stim\">BANK</p>", "key_press": -1, "type": "PRES_VIS", "word": "bank", "wordID": 82, "conditions": [24, 1600, "v", 24000], "trial": 6, "serialpos": 11, "trial_type": "single-stim", "trial_index": 224, "time_elapsed": 1036043, "internal_node_id": "0.0-161.0"}}, {"uniqueid": "MTK0924:38F71OA9GU3SGM791L5NXZEMBWTFMX", "current_trial": 225, "dateTime": 1512893218137, "trialdata": {"rt": -1, "stimulus": "<p id=\"stim\">WOMAN</p>", "key_press": -1, "type": "PRES_VIS", "word": "woman", "wordID": 1619, "conditions": [24, 1600, "v", 24000], "trial": 6, "serialpos": 12, "trial_type": "single-stim", "trial_index": 225, "time_elapsed": 1038767, "internal_node_id": "0.0-162.0"}}, {"uniqueid": "MTK0924:38F71OA9GU3SGM791L5NXZEMBWTFMX", "current_trial": 226, "dateTime": 1512893220682, "trialdata": {"rt": -1, "stimulus": "<p id=\"stim\">ELBOW</p>", "key_press": -1, "type": "PRES_VIS", "word": "elbow", "wordID": 519, "conditions": [24, 1600, "v", 24000], "trial": 6, "serialpos": 13, "trial_type": "single-stim", "trial_index": 226, "time_elapsed": 1041312, "internal_node_id": "0.0-163.0"}}, {"uniqueid": "MTK0924:38F71OA9GU3SGM791L5NXZEMBWTFMX", "current_trial": 227, "dateTime": 1512893223225, "trialdata": {"rt": -1, "stimulus": "<p id=\"stim\">MATCH</p>", "key_press": -1, "type": "PRES_VIS", "word": "match", "wordID": 877, "conditions": [24, 1600, "v", 24000], "trial": 6, "serialpos": 14, "trial_type": "single-stim", "trial_index": 227, "time_elapsed": 1043855, "internal_node_id": "0.0-164.0"}}, {"uniqueid": "MTK0924:38F71OA9GU3SGM791L5NXZEMBWTFMX", "current_trial": 228, "dateTime": 1512893226015, "trialdata": {"rt": -1, "stimulus": "<p id=\"stim\">TURKEY</p>", "key_press": -1, "type": "PRES_VIS", "word": "turkey", "wordID": 1519, "conditions": [24, 1600, "v", 24000], "trial": 6, "serialpos": 15, "trial_type": "single-stim", "trial_index": 228, "time_elapsed": 1046645, "internal_node_id": "0.0-165.0"}}, {"uniqueid": "MTK0924:38F71OA9GU3SGM791L5NXZEMBWTFMX", "current_trial": 229, "dateTime": 1512893228644, "trialdata": {"rt": -1, "stimulus": "<p id=\"stim\">DAUGHTER</p>", "key_press": -1, "type": "PRES_VIS", "word": "daughter", "wordID": 441, "conditions": [24, 1600, "v", 24000], "trial": 6, "serialpos": 16, "trial_type": "single-stim", "trial_index": 229, "time_elapsed": 1049274, "internal_node_id": "0.0-166.0"}}, {"uniqueid": "MTK0924:38F71OA9GU3SGM791L5NXZEMBWTFMX", "current_trial": 230, "dateTime": 1512893231108, "trialdata": {"rt": -1, "stimulus": "<p id=\"stim\">KIDNEY</p>", "key_press": -1, "type": "PRES_VIS", "word": "kidney", "wordID": 775, "conditions": [24, 1600, "v", 24000], "trial": 6, "serialpos": 17, "trial_type": "single-stim", "trial_index": 230, "time_elapsed": 1051738, "internal_node_id": "0.0-167.0"}}, {"uniqueid": "MTK0924:38F71OA9GU3SGM791L5NXZEMBWTFMX", "current_trial": 231, "dateTime": 1512893233880, "trialdata": {"rt": -1, "stimulus": "<p id=\"stim\">TRANSPLANT</p>", "key_press": -1, "type": "PRES_VIS", "word": "transplant", "wordID": 1495, "conditions": [24, 1600, "v", 24000], "trial": 6, "serialpos": 18, "trial_type": "single-stim", "trial_index": 231, "time_elapsed": 1054510, "internal_node_id": "0.0-168.0"}}, {"uniqueid": "MTK0924:38F71OA9GU3SGM791L5NXZEMBWTFMX", "current_trial": 232, "dateTime": 1512893236515, "trialdata": {"rt": -1, "stimulus": "<p id=\"stim\">TROMBONE</p>", "key_press": -1, "type": "PRES_VIS", "word": "trombone", "wordID": 1507, "conditions": [24, 1600, "v", 24000], "trial": 6, "serialpos": 19, "trial_type": "single-stim", "trial_index": 232, "time_elapsed": 1057145, "internal_node_id": "0.0-169.0"}}, {"uniqueid": "MTK0924:38F71OA9GU3SGM791L5NXZEMBWTFMX", "current_trial": 233, "dateTime": 1512893239224, "trialdata": {"rt": -1, "stimulus": "<p id=\"stim\">CRATER</p>", "key_press": -1, "type": "PRES_VIS", "word": "crater", "wordID": 399, "conditions": [24, 1600, "v", 24000], "trial": 6, "serialpos": 20, "trial_type": "single-stim", "trial_index": 233, "time_elapsed": 1059854, "internal_node_id": "0.0-170.0"}}, {"uniqueid": "MTK0924:38F71OA9GU3SGM791L5NXZEMBWTFMX", "current_trial": 234, "dateTime": 1512893241923, "trialdata": {"rt": -1, "stimulus": "<p id=\"stim\">OUTDOORS</p>", "key_press": -1, "type": "PRES_VIS", "word": "outdoors", "wordID": 986, "conditions": [24, 1600, "v", 24000], "trial": 6, "serialpos": 21, "trial_type": "single-stim", "trial_index": 234, "time_elapsed": 1062553, "internal_node_id": "0.0-171.0"}}, {"uniqueid": "MTK0924:38F71OA9GU3SGM791L5NXZEMBWTFMX", "current_trial": 235, "dateTime": 1512893244632, "trialdata": {"rt": -1, "stimulus": "<p id=\"stim\">PLATE</p>", "key_press": -1, "type": "PRES_VIS", "word": "plate", "wordID": 1085, "conditions": [24, 1600, "v", 24000], "trial": 6, "serialpos": 22, "trial_type": "single-stim", "trial_index": 235, "time_elapsed": 1065262, "internal_node_id": "0.0-172.0"}}, {"uniqueid": "MTK0924:38F71OA9GU3SGM791L5NXZEMBWTFMX", "current_trial": 236, "dateTime": 1512893247422, "trialdata": {"rt": -1, "stimulus": "<p id=\"stim\">FOREHEAD</p>", "key_press": -1, "type": "PRES_VIS", "word": "forehead", "wordID": 591, "conditions": [24, 1600, "v", 24000], "trial": 6, "serialpos": 23, "trial_type": "single-stim", "trial_index": 236, "time_elapsed": 1068052, "internal_node_id": "0.0-173.0"}}, {"uniqueid": "MTK0924:38F71OA9GU3SGM791L5NXZEMBWTFMX", "current_trial": 237, "dateTime": 1512893249597, "trialdata": {"rt": -1, "stimulus": "", "key_press": -1, "type": "PRE_RECALL_DELAY", "trial_type": "single-stim", "trial_index": 237, "time_elapsed": 1070227, "internal_node_id": "0.0-174.0-0.0"}}, {"uniqueid": "MTK0924:38F71OA9GU3SGM791L5NXZEMBWTFMX", "current_trial": 238, "dateTime": 1512893250098, "trialdata": {"rt": -1000, "stimulus": "/static/audio/400Hz.wav", "key_press": -1, "type": "PRE_RECALL_ALERT", "trial_type": "single-audio", "trial_index": 238, "time_elapsed": 1070728, "internal_node_id": "0.0-175.0"}}, {"uniqueid": "MTK0924:38F71OA9GU3SGM791L5NXZEMBWTFMX", "current_trial": 239, "dateTime": 1512893310101, "trialdata": {"rt": [7185, 9537, 16927, 18446, 19673, 21563, 25073, 26850, 30304, 33195, 34466, 36357, 42195, 44963, 47652, 50746, 52434, 58992], "recwords": ["hornet", "ulcer", "robber", "smog", "wasp", "balloon", "woman", "bank", "match", "turkey", "elbow", "daughter", "transplant", "kidney", "trombone", "outdoors", "plate", "forehead"], "type": "FREE_RECALL", "conditions": [24, 1600, "v", 24000], "trial": 6, "trial_type": "free-recall", "trial_index": 239, "time_elapsed": 1130730, "internal_node_id": "0.0-176.0-0.0"}}, {"uniqueid": "MTK0924:38F71OA9GU3SGM791L5NXZEMBWTFMX", "current_trial": 240, "dateTime": 1512893315875, "trialdata": {"rt": 3771, "key_press": 32, "type": "INSTRUCTIONS", "trial_type": "text", "trial_index": 240, "time_elapsed": 1136505, "internal_node_id": "0.0-177.0"}}, {"uniqueid": "MTK0924:38F71OA9GU3SGM791L5NXZEMBWTFMX", "current_trial": 241, "dateTime": 1512893329885, "trialdata": {"rt": [4609, 7399, 10898], "responses": ["13", "18", "12"], "num1": [3, 4, 3, 7], "num2": [4, 7, 1, 7], "num3": [6, 7, 8, 6], "type": "DISTRACTOR", "conditions": [24, 800, "v", 12000], "trial": 7, "trial_type": "math-distractor", "trial_index": 241, "time_elapsed": 1150515, "internal_node_id": "0.0-178.0"}}, {"uniqueid": "MTK0924:38F71OA9GU3SGM791L5NXZEMBWTFMX", "current_trial": 242, "dateTime": 1512893332893, "trialdata": {"rt": -1, "stimulus": "<p id=\"stim\">10</p>", "key_press": -1, "trial_type": "single-stim", "trial_index": 242, "time_elapsed": 1153523, "internal_node_id": "0.0-179.0-0.0"}}, {"uniqueid": "MTK0924:38F71OA9GU3SGM791L5NXZEMBWTFMX", "current_trial": 243, "dateTime": 1512893333895, "trialdata": {"rt": -1, "stimulus": "<p id=\"stim\">9</p>", "key_press": -1, "trial_type": "single-stim", "trial_index": 243, "time_elapsed": 1154525, "internal_node_id": "0.0-179.0-1.0"}}, {"uniqueid": "MTK0924:38F71OA9GU3SGM791L5NXZEMBWTFMX", "current_trial": 244, "dateTime": 1512893334899, "trialdata": {"rt": -1, "stimulus": "<p id=\"stim\">8</p>", "key_press": -1, "trial_type": "single-stim", "trial_index": 244, "time_elapsed": 1155529, "internal_node_id": "0.0-179.0-2.0"}}, {"uniqueid": "MTK0924:38F71OA9GU3SGM791L5NXZEMBWTFMX", "current_trial": 245, "dateTime": 1512893335901, "trialdata": {"rt": -1, "stimulus": "<p id=\"stim\">7</p>", "key_press": -1, "trial_type": "single-stim", "trial_index": 245, "time_elapsed": 1156530, "internal_node_id": "0.0-179.0-3.0"}}, {"uniqueid": "MTK0924:38F71OA9GU3SGM791L5NXZEMBWTFMX", "current_trial": 246, "dateTime": 1512893336903, "trialdata": {"rt": -1, "stimulus": "<p id=\"stim\">6</p>", "key_press": -1, "trial_type": "single-stim", "trial_index": 246, "time_elapsed": 1157533, "internal_node_id": "0.0-179.0-4.0"}}, {"uniqueid": "MTK0924:38F71OA9GU3SGM791L5NXZEMBWTFMX", "current_trial": 247, "dateTime": 1512893337906, "trialdata": {"rt": -1, "stimulus": "<p id=\"stim\">5</p>", "key_press": -1, "trial_type": "single-stim", "trial_index": 247, "time_elapsed": 1158536, "internal_node_id": "0.0-179.0-5.0"}}, {"uniqueid": "MTK0924:38F71OA9GU3SGM791L5NXZEMBWTFMX", "current_trial": 248, "dateTime": 1512893338908, "trialdata": {"rt": -1, "stimulus": "<p id=\"stim\">4</p>", "key_press": -1, "trial_type": "single-stim", "trial_index": 248, "time_elapsed": 1159538, "internal_node_id": "0.0-179.0-6.0"}}, {"uniqueid": "MTK0924:38F71OA9GU3SGM791L5NXZEMBWTFMX", "current_trial": 249, "dateTime": 1512893339911, "trialdata": {"rt": -1, "stimulus": "<p id=\"stim\">3</p>", "key_press": -1, "trial_type": "single-stim", "trial_index": 249, "time_elapsed": 1160541, "internal_node_id": "0.0-179.0-7.0"}}, {"uniqueid": "MTK0924:38F71OA9GU3SGM791L5NXZEMBWTFMX", "current_trial": 250, "dateTime": 1512893340914, "trialdata": {"rt": -1, "stimulus": "<p id=\"stim\">2</p>", "key_press": -1, "trial_type": "single-stim", "trial_index": 250, "time_elapsed": 1161543, "internal_node_id": "0.0-179.0-8.0"}}, {"uniqueid": "MTK0924:38F71OA9GU3SGM791L5NXZEMBWTFMX", "current_trial": 251, "dateTime": 1512893341916, "trialdata": {"rt": -1, "stimulus": "<p id=\"stim\">1</p>", "key_press": -1, "trial_type": "single-stim", "trial_index": 251, "time_elapsed": 1162546, "internal_node_id": "0.0-179.0-9.0"}}, {"uniqueid": "MTK0924:38F71OA9GU3SGM791L5NXZEMBWTFMX", "current_trial": 252, "dateTime": 1512893343420, "trialdata": {"rt": -1, "stimulus": "<p id=\"stim\">+</p>", "key_press": -1, "type": "FIXATION", "trial_type": "single-stim", "trial_index": 252, "time_elapsed": 1164050, "internal_node_id": "0.0-180.0-0.0"}}, {"uniqueid": "MTK0924:38F71OA9GU3SGM791L5NXZEMBWTFMX", "current_trial": 253, "dateTime": 1512893344225, "trialdata": {"rt": -1, "stimulus": "<p id=\"stim\">JUDGE</p>", "key_press": -1, "type": "PRES_VIS", "word": "judge", "wordID": 760, "conditions": [24, 800, "v", 12000], "trial": 7, "serialpos": 0, "trial_type": "single-stim", "trial_index": 253, "time_elapsed": 1164855, "internal_node_id": "0.0-181.0"}}, {"uniqueid": "MTK0924:38F71OA9GU3SGM791L5NXZEMBWTFMX", "current_trial": 254, "dateTime": 1512893346176, "trialdata": {"rt": -1, "stimulus": "<p id=\"stim\">JURY</p>", "key_press": -1, "type": "PRES_VIS", "word": "jury", "wordID": 765, "conditions": [24, 800, "v", 12000], "trial": 7, "serialpos": 1, "trial_type": "single-stim", "trial_index": 254, "time_elapsed": 1166806, "internal_node_id": "0.0-182.0"}}, {"uniqueid": "MTK0924:38F71OA9GU3SGM791L5NXZEMBWTFMX", "current_trial": 255, "dateTime": 1512893347788, "trialdata": {"rt": -1, "stimulus": "<p id=\"stim\">VELVET</p>", "key_press": -1, "type": "PRES_VIS", "word": "velvet", "wordID": 1554, "conditions": [24, 800, "v", 12000], "trial": 7, "serialpos": 2, "trial_type": "single-stim", "trial_index": 255, "time_elapsed": 1168418, "internal_node_id": "0.0-183.0"}}, {"uniqueid": "MTK0924:38F71OA9GU3SGM791L5NXZEMBWTFMX", "current_trial": 256, "dateTime": 1512893349574, "trialdata": {"rt": -1, "stimulus": "<p id=\"stim\">GARLIC</p>", "key_press": -1, "type": "PRES_VIS", "word": "garlic", "wordID": 623, "conditions": [24, 800, "v", 12000], "trial": 7, "serialpos": 3, "trial_type": "single-stim", "trial_index": 256, "time_elapsed": 1170204, "internal_node_id": "0.0-184.0"}}, {"uniqueid": "MTK0924:38F71OA9GU3SGM791L5NXZEMBWTFMX", "current_trial": 257, "dateTime": 1512893351548, "trialdata": {"rt": -1, "stimulus": "<p id=\"stim\">COCOON</p>", "key_press": -1, "type": "PRES_VIS", "word": "cocoon", "wordID": 338, "conditions": [24, 800, "v", 12000], "trial": 7, "serialpos": 4, "trial_type": "single-stim", "trial_index": 257, "time_elapsed": 1172178, "internal_node_id": "0.0-185.0"}}, {"uniqueid": "MTK0924:38F71OA9GU3SGM791L5NXZEMBWTFMX", "current_trial": 258, "dateTime": 1512893353553, "trialdata": {"rt": -1, "stimulus": "<p id=\"stim\">BADGE</p>", "key_press": -1, "type": "PRES_VIS", "word": "badge", "wordID": 67, "conditions": [24, 800, "v", 12000], "trial": 7, "serialpos": 5, "trial_type": "single-stim", "trial_index": 258, "time_elapsed": 1174183, "internal_node_id": "0.0-186.0"}}, {"uniqueid": "MTK0924:38F71OA9GU3SGM791L5NXZEMBWTFMX", "current_trial": 259, "dateTime": 1512893355227, "trialdata": {"rt": -1, "stimulus": "<p id=\"stim\">RABBIT</p>", "key_press": -1, "type": "PRES_VIS", "word": "rabbit", "wordID": 1151, "conditions": [24, 800, "v", 12000], "trial": 7, "serialpos": 6, "trial_type": "single-stim", "trial_index": 259, "time_elapsed": 1175857, "internal_node_id": "0.0-187.0"}}, {"uniqueid": "MTK0924:38F71OA9GU3SGM791L5NXZEMBWTFMX", "current_trial": 260, "dateTime": 1512893357094, "trialdata": {"rt": -1, "stimulus": "<p id=\"stim\">MUFFIN</p>", "key_press": -1, "type": "PRES_VIS", "word": "muffin", "wordID": 928, "conditions": [24, 800, "v", 12000], "trial": 7, "serialpos": 7, "trial_type": "single-stim", "trial_index": 260, "time_elapsed": 1177724, "internal_node_id": "0.0-188.0"}}, {"uniqueid": "MTK0924:38F71OA9GU3SGM791L5NXZEMBWTFMX", "current_trial": 261, "dateTime": 1512893359002, "trialdata": {"rt": -1, "stimulus": "<p id=\"stim\">SPACE</p>", "key_press": -1, "type": "PRES_VIS", "word": "space", "wordID": 1344, "conditions": [24, 800, "v", 12000], "trial": 7, "serialpos": 8, "trial_type": "single-stim", "trial_index": 261, "time_elapsed": 1179632, "internal_node_id": "0.0-189.0"}}, {"uniqueid": "MTK0924:38F71OA9GU3SGM791L5NXZEMBWTFMX", "current_trial": 262, "dateTime": 1512893360779, "trialdata": {"rt": -1, "stimulus": "<p id=\"stim\">SPIDER</p>", "key_press": -1, "type": "PRES_VIS", "word": "spider", "wordID": 1350, "conditions": [24, 800, "v", 12000], "trial": 7, "serialpos": 9, "trial_type": "single-stim", "trial_index": 262, "time_elapsed": 1181409, "internal_node_id": "0.0-190.0"}}, {"uniqueid": "MTK0924:38F71OA9GU3SGM791L5NXZEMBWTFMX", "current_trial": 263, "dateTime": 1512893362603, "trialdata": {"rt": -1, "stimulus": "<p id=\"stim\">BURGLAR</p>", "key_press": -1, "type": "PRES_VIS", "word": "burglar", "wordID": 199, "conditions": [24, 800, "v", 12000], "trial": 7, "serialpos": 10, "trial_type": "single-stim", "trial_index": 263, "time_elapsed": 1183233, "internal_node_id": "0.0-191.0"}}, {"uniqueid": "MTK0924:38F71OA9GU3SGM791L5NXZEMBWTFMX", "current_trial": 264, "dateTime": 1512893364479, "trialdata": {"rt": -1, "stimulus": "<p id=\"stim\">PASTRY</p>", "key_press": -1, "type": "PRES_VIS", "word": "pastry", "wordID": 1021, "conditions": [24, 800, "v", 12000], "trial": 7, "serialpos": 11, "trial_type": "single-stim", "trial_index": 264, "time_elapsed": 1185109, "internal_node_id": "0.0-192.0"}}, {"uniqueid": "MTK0924:38F71OA9GU3SGM791L5NXZEMBWTFMX", "current_trial": 265, "dateTime": 1512893366164, "trialdata": {"rt": -1, "stimulus": "<p id=\"stim\">BEEF</p>", "key_press": -1, "type": "PRES_VIS", "word": "beef", "wordID": 112, "conditions": [24, 800, "v", 12000], "trial": 7, "serialpos": 12, "trial_type": "single-stim", "trial_index": 265, "time_elapsed": 1186794, "internal_node_id": "0.0-193.0"}}, {"uniqueid": "MTK0924:38F71OA9GU3SGM791L5NXZEMBWTFMX", "current_trial": 266, "dateTime": 1512893367983, "trialdata": {"rt": -1, "stimulus": "<p id=\"stim\">PEACH</p>", "key_press": -1, "type": "PRES_VIS", "word": "peach", "wordID": 1030, "conditions": [24, 800, "v", 12000], "trial": 7, "serialpos": 13, "trial_type": "single-stim", "trial_index": 266, "time_elapsed": 1188613, "internal_node_id": "0.0-194.0"}}, {"uniqueid": "MTK0924:38F71OA9GU3SGM791L5NXZEMBWTFMX", "current_trial": 267, "dateTime": 1512893369973, "trialdata": {"rt": -1, "stimulus": "<p id=\"stim\">GARDEN</p>", "key_press": -1, "type": "PRES_VIS", "word": "garden", "wordID": 622, "conditions": [24, 800, "v", 12000], "trial": 7, "serialpos": 14, "trial_type": "single-stim", "trial_index": 267, "time_elapsed": 1190603, "internal_node_id": "0.0-195.0"}}, {"uniqueid": "MTK0924:38F71OA9GU3SGM791L5NXZEMBWTFMX", "current_trial": 268, "dateTime": 1512893371584, "trialdata": {"rt": -1, "stimulus": "<p id=\"stim\">SUPPER</p>", "key_press": -1, "type": "PRES_VIS", "word": "supper", "wordID": 1410, "conditions": [24, 800, "v", 12000], "trial": 7, "serialpos": 15, "trial_type": "single-stim", "trial_index": 268, "time_elapsed": 1192214, "internal_node_id": "0.0-196.0"}}, {"uniqueid": "MTK0924:38F71OA9GU3SGM791L5NXZEMBWTFMX", "current_trial": 269, "dateTime": 1512893373493, "trialdata": {"rt": -1, "stimulus": "<p id=\"stim\">CABBAGE</p>", "key_press": -1, "type": "PRES_VIS", "word": "cabbage", "wordID": 209, "conditions": [24, 800, "v", 12000], "trial": 7, "serialpos": 16, "trial_type": "single-stim", "trial_index": 269, "time_elapsed": 1194123, "internal_node_id": "0.0-197.0"}}, {"uniqueid": "MTK0924:38F71OA9GU3SGM791L5NXZEMBWTFMX", "current_trial": 270, "dateTime": 1512893375231, "trialdata": {"rt": -1, "stimulus": "<p id=\"stim\">TORTOISE</p>", "key_press": -1, "type": "PRES_VIS", "word": "tortoise", "wordID": 1485, "conditions": [24, 800, "v", 12000], "trial": 7, "serialpos": 17, "trial_type": "single-stim", "trial_index": 270, "time_elapsed": 1195861, "internal_node_id": "0.0-198.0"}}, {"uniqueid": "MTK0924:38F71OA9GU3SGM791L5NXZEMBWTFMX", "current_trial": 271, "dateTime": 1512893376851, "trialdata": {"rt": -1, "stimulus": "<p id=\"stim\">RUG</p>", "key_press": -1, "type": "PRES_VIS", "word": "rug", "wo