{"condition": 0, "counterbalance": 76, "assignmentId": "32Q90QCQ1TS5KK7ALY81041I67MKEC", "workerId": "MTK0170", "hitId": "38VTL6WC4AKYLM54OABNGYEWE4Q5YJ", "currenttrial": 625, "bonus": 0, "data": [{"uniqueid": "MTK0170:32Q90QCQ1TS5KK7ALY81041I67MKEC", "current_trial": 0, "dateTime": 1509476093262, "trialdata": {"rt": 4255, "key_press": 13, "type": "INSTRUCTIONS", "trial_type": "text", "trial_index": 0, "time_elapsed": 4255, "internal_node_id": "0.0-0.0"}}, {"uniqueid": "MTK0170:32Q90QCQ1TS5KK7ALY81041I67MKEC", "current_trial": 1, "dateTime": 1509476094310, "trialdata": {"rt": 1040, "key_press": 13, "type": "INSTRUCTIONS", "trial_type": "text", "trial_index": 1, "time_elapsed": 5303, "internal_node_id": "0.0-1.0"}}, {"uniqueid": "MTK0170:32Q90QCQ1TS5KK7ALY81041I67MKEC", "current_trial": 2, "dateTime": 1509476098785, "trialdata": {"rt": [4474], "responses": ["ocean"], "type": "AUDIO_TEST", "trial_type": "audio-test", "trial_index": 2, "time_elapsed": 9778, "internal_node_id": "0.0-2.0"}}, {"uniqueid": "MTK0170:32Q90QCQ1TS5KK7ALY81041I67MKEC", "current_trial": 3, "dateTime": 1509476103454, "trialdata": {"rt": [4666], "responses": ["crystal"], "type": "AUDIO_TEST", "trial_type": "audio-test", "trial_index": 3, "time_elapsed": 14447, "internal_node_id": "0.0-3.0"}}, {"uniqueid": "MTK0170:32Q90QCQ1TS5KK7ALY81041I67MKEC", "current_trial": 4, "dateTime": 1509476107102, "trialdata": {"rt": [3645], "responses": ["spice"], "type": "AUDIO_TEST", "trial_type": "audio-test", "trial_index": 4, "time_elapsed": 18095, "internal_node_id": "0.0-4.0"}}, {"uniqueid": "MTK0170:32Q90QCQ1TS5KK7ALY81041I67MKEC", "current_trial": 5, "dateTime": 1509476109442, "trialdata": {"rt": 1588, "key_press": 32, "type": "INSTRUCTIONS", "trial_type": "text", "trial_index": 5, "time_elapsed": 20435, "internal_node_id": "0.0-5.0"}}, {"uniqueid": "MTK0170:32Q90QCQ1TS5KK7ALY81041I67MKEC", "current_trial": 6, "dateTime": 1509476111420, "trialdata": {"rt": 1976, "key_press": 38, "type": "INSTRUCTIONS", "trial_type": "text", "trial_index": 6, "time_elapsed": 22413, "internal_node_id": "0.0-6.0"}}, {"uniqueid": "MTK0170:32Q90QCQ1TS5KK7ALY81041I67MKEC", "current_trial": 7, "dateTime": 1509476127039, "trialdata": {"rt": 15619, "key_press": 32, "type": "INSTRUCTIONS", "trial_type": "text", "trial_index": 7, "time_elapsed": 38032, "internal_node_id": "0.0-7.0"}}, {"uniqueid": "MTK0170:32Q90QCQ1TS5KK7ALY81041I67MKEC", "current_trial": 8, "dateTime": 1509476133748, "trialdata": {"rt": 6705, "key_press": 32, "type": "INSTRUCTIONS", "trial_type": "text", "trial_index": 8, "time_elapsed": 44741, "internal_node_id": "0.0-8.0"}}, {"uniqueid": "MTK0170:32Q90QCQ1TS5KK7ALY81041I67MKEC", "current_trial": 9, "dateTime": 1509476152757, "trialdata": {"rt": [6188, 7761, 11484, 17466], "responses": ["12 ", "11", "16", "19"], "num1": [6, 1, 5, 7, 6], "num2": [4, 9, 9, 6, 8], "num3": [2, 1, 1, 6, 6], "type": "DISTRACTOR", "conditions": [18, 1200, "v", 18000], "trial": 0, "trial_type": "math-distractor", "trial_index": 9, "time_elapsed": 63750, "internal_node_id": "0.0-9.0"}}, {"uniqueid": "MTK0170:32Q90QCQ1TS5KK7ALY81041I67MKEC", "current_trial": 10, "dateTime": 1509476155762, "trialdata": {"rt": -1, "stimulus": "<p id=\"stim\">10</p>", "key_press": -1, "trial_type": "single-stim", "trial_index": 10, "time_elapsed": 66755, "internal_node_id": "0.0-10.0-0.0"}}, {"uniqueid": "MTK0170:32Q90QCQ1TS5KK7ALY81041I67MKEC", "current_trial": 11, "dateTime": 1509476156768, "trialdata": {"rt": -1, "stimulus": "<p id=\"stim\">9</p>", "key_press": -1, "trial_type": "single-stim", "trial_index": 11, "time_elapsed": 67761, "internal_node_id": "0.0-10.0-1.0"}}, {"uniqueid": "MTK0170:32Q90QCQ1TS5KK7ALY81041I67MKEC", "current_trial": 12, "dateTime": 1509476157772, "trialdata": {"rt": -1, "stimulus": "<p id=\"stim\">8</p>", "key_press": -1, "trial_type": "single-stim", "trial_index": 12, "time_elapsed": 68765, "internal_node_id": "0.0-10.0-2.0"}}, {"uniqueid": "MTK0170:32Q90QCQ1TS5KK7ALY81041I67MKEC", "current_trial": 13, "dateTime": 1509476158777, "trialdata": {"rt": -1, "stimulus": "<p id=\"stim\">7</p>", "key_press": -1, "trial_type": "single-stim", "trial_index": 13, "time_elapsed": 69770, "internal_node_id": "0.0-10.0-3.0"}}, {"uniqueid": "MTK0170:32Q90QCQ1TS5KK7ALY81041I67MKEC", "current_trial": 14, "dateTime": 1509476159782, "trialdata": {"rt": -1, "stimulus": "<p id=\"stim\">6</p>", "key_press": -1, "trial_type": "single-stim", "trial_index": 14, "time_elapsed": 70775, "internal_node_id": "0.0-10.0-4.0"}}, {"uniqueid": "MTK0170:32Q90QCQ1TS5KK7ALY81041I67MKEC", "current_trial": 15, "dateTime": 1509476160787, "trialdata": {"rt": -1, "stimulus": "<p id=\"stim\">5</p>", "key_press": -1, "trial_type": "single-stim", "trial_index": 15, "time_elapsed": 71780, "internal_node_id": "0.0-10.0-5.0"}}, {"uniqueid": "MTK0170:32Q90QCQ1TS5KK7ALY81041I67MKEC", "current_trial": 16, "dateTime": 1509476161789, "trialdata": {"rt": -1, "stimulus": "<p id=\"stim\">4</p>", "key_press": -1, "trial_type": "single-stim", "trial_index": 16, "time_elapsed": 72782, "internal_node_id": "0.0-10.0-6.0"}}, {"uniqueid": "MTK0170:32Q90QCQ1TS5KK7ALY81041I67MKEC", "current_trial": 17, "dateTime": 1509476162792, "trialdata": {"rt": -1, "stimulus": "<p id=\"stim\">3</p>", "key_press": -1, "trial_type": "single-stim", "trial_index": 17, "time_elapsed": 73785, "internal_node_id": "0.0-10.0-7.0"}}, {"uniqueid": "MTK0170:32Q90QCQ1TS5KK7ALY81041I67MKEC", "current_trial": 18, "dateTime": 1509476163798, "trialdata": {"rt": -1, "stimulus": "<p id=\"stim\">2</p>", "key_press": -1, "trial_type": "single-stim", "trial_index": 18, "time_elapsed": 74791, "internal_node_id": "0.0-10.0-8.0"}}, {"uniqueid": "MTK0170:32Q90QCQ1TS5KK7ALY81041I67MKEC", "current_trial": 19, "dateTime": 1509476164804, "trialdata": {"rt": -1, "stimulus": "<p id=\"stim\">1</p>", "key_press": -1, "trial_type": "single-stim", "trial_index": 19, "time_elapsed": 75797, "internal_node_id": "0.0-10.0-9.0"}}, {"uniqueid": "MTK0170:32Q90QCQ1TS5KK7ALY81041I67MKEC", "current_trial": 20, "dateTime": 1509476166305, "trialdata": {"rt": -1, "stimulus": "<p id=\"stim\">+</p>", "key_press": -1, "type": "FIXATION", "trial_type": "single-stim", "trial_index": 20, "time_elapsed": 77298, "internal_node_id": "0.0-11.0-0.0"}}, {"uniqueid": "MTK0170:32Q90QCQ1TS5KK7ALY81041I67MKEC", "current_trial": 21, "dateTime": 1509476167510, "trialdata": {"rt": -1, "stimulus": "<p id=\"stim\">CLAM</p>", "key_press": -1, "type": "PRES_VIS", "word": "clam", "wordID": 314, "conditions": [18, 1200, "v", 18000], "trial": 0, "serialpos": 0, "trial_type": "single-stim", "trial_index": 21, "time_elapsed": 78503, "internal_node_id": "0.0-12.0"}}, {"uniqueid": "MTK0170:32Q90QCQ1TS5KK7ALY81041I67MKEC", "current_trial": 22, "dateTime": 1509476169540, "trialdata": {"rt": -1, "stimulus": "<p id=\"stim\">SPIDER</p>", "key_press": -1, "type": "PRES_VIS", "word": "spider", "wordID": 1350, "conditions": [18, 1200, "v", 18000], "trial": 0, "serialpos": 1, "trial_type": "single-stim", "trial_index": 22, "time_elapsed": 80533, "internal_node_id": "0.0-13.0"}}, {"uniqueid": "MTK0170:32Q90QCQ1TS5KK7ALY81041I67MKEC", "current_trial": 23, "dateTime": 1509476171928, "trialdata": {"rt": -1, "stimulus": "<p id=\"stim\">ROOSTER</p>", "key_press": -1, "type": "PRES_VIS", "word": "rooster", "wordID": 1208, "conditions": [18, 1200, "v", 18000], "trial": 0, "serialpos": 2, "trial_type": "single-stim", "trial_index": 23, "time_elapsed": 82921, "internal_node_id": "0.0-14.0"}}, {"uniqueid": "MTK0170:32Q90QCQ1TS5KK7ALY81041I67MKEC", "current_trial": 24, "dateTime": 1509476174202, "trialdata": {"rt": -1, "stimulus": "<p id=\"stim\">BIKE</p>", "key_press": -1, "type": "PRES_VIS", "word": "bike", "wordID": 124, "conditions": [18, 1200, "v", 18000], "trial": 0, "serialpos": 3, "trial_type": "single-stim", "trial_index": 24, "time_elapsed": 85195, "internal_node_id": "0.0-15.0"}}, {"uniqueid": "MTK0170:32Q90QCQ1TS5KK7ALY81041I67MKEC", "current_trial": 25, "dateTime": 1509476176551, "trialdata": {"rt": -1, "stimulus": "<p id=\"stim\">PEPPER</p>", "key_press": -1, "type": "PRES_VIS", "word": "pepper", "wordID": 1046, "conditions": [18, 1200, "v", 18000], "trial": 0, "serialpos": 4, "trial_type": "single-stim", "trial_index": 25, "time_elapsed": 87544, "internal_node_id": "0.0-16.0"}}, {"uniqueid": "MTK0170:32Q90QCQ1TS5KK7ALY81041I67MKEC", "current_trial": 26, "dateTime": 1509476178663, "trialdata": {"rt": -1, "stimulus": "<p id=\"stim\">HOUND</p>", "key_press": -1, "type": "PRES_VIS", "word": "hound", "wordID": 723, "conditions": [18, 1200, "v", 18000], "trial": 0, "serialpos": 5, "trial_type": "single-stim", "trial_index": 26, "time_elapsed": 89656, "internal_node_id": "0.0-17.0"}}, {"uniqueid": "MTK0170:32Q90QCQ1TS5KK7ALY81041I67MKEC", "current_trial": 27, "dateTime": 1509476181003, "trialdata": {"rt": -1, "stimulus": "<p id=\"stim\">MAMMAL</p>", "key_press": -1, "type": "PRES_VIS", "word": "mammal", "wordID": 860, "conditions": [18, 1200, "v", 18000], "trial": 0, "serialpos": 6, "trial_type": "single-stim", "trial_index": 27, "time_elapsed": 91996, "internal_node_id": "0.0-18.0"}}, {"uniqueid": "MTK0170:32Q90QCQ1TS5KK7ALY81041I67MKEC", "current_trial": 28, "dateTime": 1509476183380, "trialdata": {"rt": -1, "stimulus": "<p id=\"stim\">BULLET</p>", "key_press": -1, "type": "PRES_VIS", "word": "bullet", "wordID": 193, "conditions": [18, 1200, "v", 18000], "trial": 0, "serialpos": 7, "trial_type": "single-stim", "trial_index": 28, "time_elapsed": 94373, "internal_node_id": "0.0-19.0"}}, {"uniqueid": "MTK0170:32Q90QCQ1TS5KK7ALY81041I67MKEC", "current_trial": 29, "dateTime": 1509476185634, "trialdata": {"rt": -1, "stimulus": "<p id=\"stim\">HEDGE</p>", "key_press": -1, "type": "PRES_VIS", "word": "hedge", "wordID": 698, "conditions": [18, 1200, "v", 18000], "trial": 0, "serialpos": 8, "trial_type": "single-stim", "trial_index": 29, "time_elapsed": 96627, "internal_node_id": "0.0-20.0"}}, {"uniqueid": "MTK0170:32Q90QCQ1TS5KK7ALY81041I67MKEC", "current_trial": 30, "dateTime": 1509476187920, "trialdata": {"rt": -1, "stimulus": "<p id=\"stim\">ITEM</p>", "key_press": -1, "type": "PRES_VIS", "word": "item", "wordID": 745, "conditions": [18, 1200, "v", 18000], "trial": 0, "serialpos": 9, "trial_type": "single-stim", "trial_index": 30, "time_elapsed": 98913, "internal_node_id": "0.0-21.0"}}, {"uniqueid": "MTK0170:32Q90QCQ1TS5KK7ALY81041I67MKEC", "current_trial": 31, "dateTime": 1509476190033, "trialdata": {"rt": -1, "stimulus": "<p id=\"stim\">GYMNAST</p>", "key_press": -1, "type": "PRES_VIS", "word": "gymnast", "wordID": 674, "conditions": [18, 1200, "v", 18000], "trial": 0, "serialpos": 10, "trial_type": "single-stim", "trial_index": 31, "time_elapsed": 101026, "internal_node_id": "0.0-22.0"}}, {"uniqueid": "MTK0170:32Q90QCQ1TS5KK7ALY81041I67MKEC", "current_trial": 32, "dateTime": 1509476192267, "trialdata": {"rt": -1, "stimulus": "<p id=\"stim\">RUG</p>", "key_press": -1, "type": "PRES_VIS", "word": "rug", "wordID": 1214, "conditions": [18, 1200, "v", 18000], "trial": 0, "serialpos": 11, "trial_type": "single-stim", "trial_index": 32, "time_elapsed": 103260, "internal_node_id": "0.0-23.0"}}, {"uniqueid": "MTK0170:32Q90QCQ1TS5KK7ALY81041I67MKEC", "current_trial": 33, "dateTime": 1509476194374, "trialdata": {"rt": -1, "stimulus": "<p id=\"stim\">SNAIL</p>", "key_press": -1, "type": "PRES_VIS", "word": "snail", "wordID": 1331, "conditions": [18, 1200, "v", 18000], "trial": 0, "serialpos": 12, "trial_type": "single-stim", "trial_index": 33, "time_elapsed": 105367, "internal_node_id": "0.0-24.0"}}, {"uniqueid": "MTK0170:32Q90QCQ1TS5KK7ALY81041I67MKEC", "current_trial": 34, "dateTime": 1509476196630, "trialdata": {"rt": -1, "stimulus": "<p id=\"stim\">RAZOR</p>", "key_press": -1, "type": "PRES_VIS", "word": "razor", "wordID": 1170, "conditions": [18, 1200, "v", 18000], "trial": 0, "serialpos": 13, "trial_type": "single-stim", "trial_index": 34, "time_elapsed": 107623, "internal_node_id": "0.0-25.0"}}, {"uniqueid": "MTK0170:32Q90QCQ1TS5KK7ALY81041I67MKEC", "current_trial": 35, "dateTime": 1509476198929, "trialdata": {"rt": -1, "stimulus": "<p id=\"stim\">AIRPLANE</p>", "key_press": -1, "type": "PRES_VIS", "word": "airplane", "wordID": 11, "conditions": [18, 1200, "v", 18000], "trial": 0, "serialpos": 14, "trial_type": "single-stim", "trial_index": 35, "time_elapsed": 109922, "internal_node_id": "0.0-26.0"}}, {"uniqueid": "MTK0170:32Q90QCQ1TS5KK7ALY81041I67MKEC", "current_trial": 36, "dateTime": 1509476201162, "trialdata": {"rt": -1, "stimulus": "<p id=\"stim\">REBEL</p>", "key_press": -1, "type": "PRES_VIS", "word": "rebel", "wordID": 1171, "conditions": [18, 1200, "v", 18000], "trial": 0, "serialpos": 15, "trial_type": "single-stim", "trial_index": 36, "time_elapsed": 112155, "internal_node_id": "0.0-27.0"}}, {"uniqueid": "MTK0170:32Q90QCQ1TS5KK7ALY81041I67MKEC", "current_trial": 37, "dateTime": 1509476203234, "trialdata": {"rt": -1, "stimulus": "<p id=\"stim\">REPORT</p>", "key_press": -1, "type": "PRES_VIS", "word": "report", "wordID": 1183, "conditions": [18, 1200, "v", 18000], "trial": 0, "serialpos": 16, "trial_type": "single-stim", "trial_index": 37, "time_elapsed": 114227, "internal_node_id": "0.0-28.0"}}, {"uniqueid": "MTK0170:32Q90QCQ1TS5KK7ALY81041I67MKEC", "current_trial": 38, "dateTime": 1509476205540, "trialdata": {"rt": -1, "stimulus": "<p id=\"stim\">SOFTBALL</p>", "key_press": -1, "type": "PRES_VIS", "word": "softball", "wordID": 1342, "conditions": [18, 1200, "v", 18000], "trial": 0, "serialpos": 17, "trial_type": "single-stim", "trial_index": 38, "time_elapsed": 116533, "internal_node_id": "0.0-29.0"}}, {"uniqueid": "MTK0170:32Q90QCQ1TS5KK7ALY81041I67MKEC", "current_trial": 39, "dateTime": 1509476207606, "trialdata": {"rt": -1, "stimulus": "", "key_press": -1, "type": "PRE_RECALL_DELAY", "trial_type": "single-stim", "trial_index": 39, "time_elapsed": 118599, "internal_node_id": "0.0-30.0-0.0"}}, {"uniqueid": "MTK0170:32Q90QCQ1TS5KK7ALY81041I67MKEC", "current_trial": 40, "dateTime": 1509476208116, "trialdata": {"rt": -1000, "stimulus": "/static/audio/400Hz.wav", "key_press": -1, "type": "PRE_RECALL_ALERT", "trial_type": "single-audio", "trial_index": 40, "time_elapsed": 119109, "internal_node_id": "0.0-31.0"}}, {"uniqueid": "MTK0170:32Q90QCQ1TS5KK7ALY81041I67MKEC", "current_trial": 41, "dateTime": 1509476268130, "trialdata": {"rt": [3262, 4908, 7011, 8351, 10181, 12527, 16030, 19843, 22590, 24452, 29529, 32425, 41204, 43495, 57457, 59667], "recwords": ["softball", "report", "rooster", "clam", "hedge", "razor", "mammal", "spider", "rooster", "hedge", "airplane", "", "razor", "train", "read", "mamma"], "type": "FREE_RECALL", "conditions": [18, 1200, "v", 18000], "trial": 0, "trial_type": "free-recall", "trial_index": 41, "time_elapsed": 179115, "internal_node_id": "0.0-32.0-0.0"}}, {"uniqueid": "MTK0170:32Q90QCQ1TS5KK7ALY81041I67MKEC", "current_trial": 42, "dateTime": 1509476271514, "trialdata": {"rt": 1378, "key_press": 32, "type": "INSTRUCTIONS", "trial_type": "text", "trial_index": 42, "time_elapsed": 182507, "internal_node_id": "0.0-33.0"}}, {"uniqueid": "MTK0170:32Q90QCQ1TS5KK7ALY81041I67MKEC", "current_trial": 43, "dateTime": 1509476291526, "trialdata": {"rt": [2966, 6763, 11741, 16623], "responses": ["8", "15", "15", "18"], "num1": [1, 4, 6, 3, 3], "num2": [4, 8, 2, 9, 4], "num3": [3, 3, 7, 6, 2], "type": "DISTRACTOR", "conditions": [18, 1200, "a", 18000], "trial": 1, "trial_type": "math-distractor", "trial_index": 43, "time_elapsed": 202519, "internal_node_id": "0.0-34.0"}}, {"uniqueid": "MTK0170:32Q90QCQ1TS5KK7ALY81041I67MKEC", "current_trial": 44, "dateTime": 1509476294533, "trialdata": {"rt": -1, "stimulus": "<p id=\"stim\">10</p>", "key_press": -1, "trial_type": "single-stim", "trial_index": 44, "time_elapsed": 205526, "internal_node_id": "0.0-35.0-0.0"}}, {"uniqueid": "MTK0170:32Q90QCQ1TS5KK7ALY81041I67MKEC", "current_trial": 45, "dateTime": 1509476295537, "trialdata": {"rt": -1, "stimulus": "<p id=\"stim\">9</p>", "key_press": -1, "trial_type": "single-stim", "trial_index": 45, "time_elapsed": 206530, "internal_node_id": "0.0-35.0-1.0"}}, {"uniqueid": "MTK0170:32Q90QCQ1TS5KK7ALY81041I67MKEC", "current_trial": 46, "dateTime": 1509476296540, "trialdata": {"rt": -1, "stimulus": "<p id=\"stim\">8</p>", "key_press": -1, "trial_type": "single-stim", "trial_index": 46, "time_elapsed": 207533, "internal_node_id": "0.0-35.0-2.0"}}, {"uniqueid": "MTK0170:32Q90QCQ1TS5KK7ALY81041I67MKEC", "current_trial": 47, "dateTime": 1509476297544, "trialdata": {"rt": -1, "stimulus": "<p id=\"stim\">7</p>", "key_press": -1, "trial_type": "single-stim", "trial_index": 47, "time_elapsed": 208537, "internal_node_id": "0.0-35.0-3.0"}}, {"uniqueid": "MTK0170:32Q90QCQ1TS5KK7ALY81041I67MKEC", "current_trial": 48, "dateTime": 1509476298547, "trialdata": {"rt": -1, "stimulus": "<p id=\"stim\">6</p>", "key_press": -1, "trial_type": "single-stim", "trial_index": 48, "time_elapsed": 209540, "internal_node_id": "0.0-35.0-4.0"}}, {"uniqueid": "MTK0170:32Q90QCQ1TS5KK7ALY81041I67MKEC", "current_trial": 49, "dateTime": 1509476299551, "trialdata": {"rt": -1, "stimulus": "<p id=\"stim\">5</p>", "key_press": -1, "trial_type": "single-stim", "trial_index": 49, "time_elapsed": 210544, "internal_node_id": "0.0-35.0-5.0"}}, {"uniqueid": "MTK0170:32Q90QCQ1TS5KK7ALY81041I67MKEC", "current_trial": 50, "dateTime": 1509476300555, "trialdata": {"rt": -1, "stimulus": "<p id=\"stim\">4</p>", "key_press": -1, "trial_type": "single-stim", "trial_index": 50, "time_elapsed": 211548, "internal_node_id": "0.0-35.0-6.0"}}, {"uniqueid": "MTK0170:32Q90QCQ1TS5KK7ALY81041I67MKEC", "current_trial": 51, "dateTime": 1509476301558, "trialdata": {"rt": -1, "stimulus": "<p id=\"stim\">3</p>", "key_press": -1, "trial_type": "single-stim", "trial_index": 51, "time_elapsed": 212551, "internal_node_id": "0.0-35.0-7.0"}}, {"uniqueid": "MTK0170:32Q90QCQ1TS5KK7ALY81041I67MKEC", "current_trial": 52, "dateTime": 1509476302562, "trialdata": {"rt": -1, "stimulus": "<p id=\"stim\">2</p>", "key_press": -1, "trial_type": "single-stim", "trial_index": 52, "time_elapsed": 213555, "internal_node_id": "0.0-35.0-8.0"}}, {"uniqueid": "MTK0170:32Q90QCQ1TS5KK7ALY81041I67MKEC", "current_trial": 53, "dateTime": 1509476303567, "trialdata": {"rt": -1, "stimulus": "<p id=\"stim\">1</p>", "key_press": -1, "trial_type": "single-stim", "trial_index": 53, "time_elapsed": 214560, "internal_node_id": "0.0-35.0-9.0"}}, {"uniqueid": "MTK0170:32Q90QCQ1TS5KK7ALY81041I67MKEC", "current_trial": 54, "dateTime": 1509476305071, "trialdata": {"rt": -1, "stimulus": "<p id=\"stim\">+</p>", "key_press": -1, "type": "FIXATION", "trial_type": "single-stim", "trial_index": 54, "time_elapsed": 216064, "internal_node_id": "0.0-36.0-0.0"}}, {"uniqueid": "MTK0170:32Q90QCQ1TS5KK7ALY81041I67MKEC", "current_trial": 55, "dateTime": 1509476307299, "trialdata": {"rt": -1000, "stimulus": "/static/audio/wordpool/SCALLOP.wav", "key_press": -1, "type": "PRES_AUD", "word": "scallop", "wordID": 1241, "conditions": [18, 1200, "a", 18000], "trial": 1, "serialpos": 0, "trial_type": "single-audio", "trial_index": 55, "time_elapsed": 218292, "internal_node_id": "0.0-37.0"}}, {"uniqueid": "MTK0170:32Q90QCQ1TS5KK7ALY81041I67MKEC", "current_trial": 56, "dateTime": 1509476309436, "trialdata": {"rt": -1000, "stimulus": "/static/audio/wordpool/BINDER.wav", "key_press": -1, "type": "PRES_AUD", "word": "binder", "wordID": 126, "conditions": [18, 1200, "a", 18000], "trial": 1, "serialpos": 1, "trial_type": "single-audio", "trial_index": 56, "time_elapsed": 220428, "internal_node_id": "0.0-38.0"}}, {"uniqueid": "MTK0170:32Q90QCQ1TS5KK7ALY81041I67MKEC", "current_trial": 57, "dateTime": 1509476311612, "trialdata": {"rt": -1000, "stimulus": "/static/audio/wordpool/RECEIPT.wav", "key_press": -1, "type": "PRES_AUD", "word": "receipt", "wordID": 1172, "conditions": [18, 1200, "a", 18000], "trial": 1, "serialpos": 2, "trial_type": "single-audio", "trial_index": 57, "time_elapsed": 222605, "internal_node_id": "0.0-39.0"}}, {"uniqueid": "MTK0170:32Q90QCQ1TS5KK7ALY81041I67MKEC", "current_trial": 58, "dateTime": 1509476313758, "trialdata": {"rt": -1000, "stimulus": "/static/audio/wordpool/SIDEWALK.wav", "key_press": -1, "type": "PRES_AUD", "word": "sidewalk", "wordID": 1302, "conditions": [18, 1200, "a", 18000], "trial": 1, "serialpos": 3, "trial_type": "single-audio", "trial_index": 58, "time_elapsed": 224751, "internal_node_id": "0.0-40.0"}}, {"uniqueid": "MTK0170:32Q90QCQ1TS5KK7ALY81041I67MKEC", "current_trial": 59, "dateTime": 1509476316130, "trialdata": {"rt": -1000, "stimulus": "/static/audio/wordpool/CAFE.wav", "key_press": -1, "type": "PRES_AUD", "word": "cafe", "wordID": 215, "conditions": [18, 1200, "a", 18000], "trial": 1, "serialpos": 4, "trial_type": "single-audio", "trial_index": 59, "time_elapsed": 227123, "internal_node_id": "0.0-41.0"}}, {"uniqueid": "MTK0170:32Q90QCQ1TS5KK7ALY81041I67MKEC", "current_trial": 60, "dateTime": 1509476318169, "trialdata": {"rt": -1000, "stimulus": "/static/audio/wordpool/SCOTCH.wav", "key_press": -1, "type": "PRES_AUD", "word": "scotch", "wordID": 1250, "conditions": [18, 1200, "a", 18000], "trial": 1, "serialpos": 5, "trial_type": "single-audio", "trial_index": 60, "time_elapsed": 229162, "internal_node_id": "0.0-42.0"}}, {"uniqueid": "MTK0170:32Q90QCQ1TS5KK7ALY81041I67MKEC", "current_trial": 61, "dateTime": 1509476320403, "trialdata": {"rt": -1000, "stimulus": "/static/audio/wordpool/COUNTY.wav", "key_press": -1, "type": "PRES_AUD", "word": "county", "wordID": 388, "conditions": [18, 1200, "a", 18000], "trial": 1, "serialpos": 6, "trial_type": "single-audio", "trial_index": 61, "time_elapsed": 231395, "internal_node_id": "0.0-43.0"}}, {"uniqueid": "MTK0170:32Q90QCQ1TS5KK7ALY81041I67MKEC", "current_trial": 62, "dateTime": 1509476322738, "trialdata": {"rt": -1000, "stimulus": "/static/audio/wordpool/COOK.wav", "key_press": -1, "type": "PRES_AUD", "word": "cook", "wordID": 371, "conditions": [18, 1200, "a", 18000], "trial": 1, "serialpos": 7, "trial_type": "single-audio", "trial_index": 62, "time_elapsed": 233731, "internal_node_id": "0.0-44.0"}}, {"uniqueid": "MTK0170:32Q90QCQ1TS5KK7ALY81041I67MKEC", "current_trial": 63, "dateTime": 1509476324859, "trialdata": {"rt": -1000, "stimulus": "/static/audio/wordpool/FLESH.wav", "key_press": -1, "type": "PRES_AUD", "word": "flesh", "wordID": 578, "conditions": [18, 1200, "a", 18000], "trial": 1, "serialpos": 8, "trial_type": "single-audio", "trial_index": 63, "time_elapsed": 235852, "internal_node_id": "0.0-45.0"}}, {"uniqueid": "MTK0170:32Q90QCQ1TS5KK7ALY81041I67MKEC", "current_trial": 64, "dateTime": 1509476326866, "trialdata": {"rt": -1000, "stimulus": "/static/audio/wordpool/TOURIST.wav", "key_press": -1, "type": "PRES_AUD", "word": "tourist", "wordID": 1487, "conditions": [18, 1200, "a", 18000], "trial": 1, "serialpos": 9, "trial_type": "single-audio", "trial_index": 64, "time_elapsed": 237859, "internal_node_id": "0.0-46.0"}}, {"uniqueid": "MTK0170:32Q90QCQ1TS5KK7ALY81041I67MKEC", "current_trial": 65, "dateTime": 1509476328877, "trialdata": {"rt": -1000, "stimulus": "/static/audio/wordpool/BLOUSE.wav", "key_press": -1, "type": "PRES_AUD", "word": "blouse", "wordID": 138, "conditions": [18, 1200, "a", 18000], "trial": 1, "serialpos": 10, "trial_type": "single-audio", "trial_index": 65, "time_elapsed": 239869, "internal_node_id": "0.0-47.0"}}, {"uniqueid": "MTK0170:32Q90QCQ1TS5KK7ALY81041I67MKEC", "current_trial": 66, "dateTime": 1509476331124, "trialdata": {"rt": -1000, "stimulus": "/static/audio/wordpool/LACE.wav", "key_press": -1, "type": "PRES_AUD", "word": "lace", "wordID": 791, "conditions": [18, 1200, "a", 18000], "trial": 1, "serialpos": 11, "trial_type": "single-audio", "trial_index": 66, "time_elapsed": 242117, "internal_node_id": "0.0-48.0"}}, {"uniqueid": "MTK0170:32Q90QCQ1TS5KK7ALY81041I67MKEC", "current_trial": 67, "dateTime": 1509476333210, "trialdata": {"rt": -1000, "stimulus": "/static/audio/wordpool/CARROT.wav", "key_press": -1, "type": "PRES_AUD", "word": "carrot", "wordID": 248, "conditions": [18, 1200, "a", 18000], "trial": 1, "serialpos": 12, "trial_type": "single-audio", "trial_index": 67, "time_elapsed": 244203, "internal_node_id": "0.0-49.0"}}, {"uniqueid": "MTK0170:32Q90QCQ1TS5KK7ALY81041I67MKEC", "current_trial": 68, "dateTime": 1509476335342, "trialdata": {"rt": -1000, "stimulus": "/static/audio/wordpool/OX.wav", "key_press": -1, "type": "PRES_AUD", "word": "ox", "wordID": 993, "conditions": [18, 1200, "a", 18000], "trial": 1, "serialpos": 13, "trial_type": "single-audio", "trial_index": 68, "time_elapsed": 246331, "internal_node_id": "0.0-50.0"}}, {"uniqueid": "MTK0170:32Q90QCQ1TS5KK7ALY81041I67MKEC", "current_trial": 69, "dateTime": 1509476337729, "trialdata": {"rt": -1000, "stimulus": "/static/audio/wordpool/BRACES.wav", "key_press": -1, "type": "PRES_AUD", "word": "braces", "wordID": 163, "conditions": [18, 1200, "a", 18000], "trial": 1, "serialpos": 14, "trial_type": "single-audio", "trial_index": 69, "time_elapsed": 248722, "internal_node_id": "0.0-51.0"}}, {"uniqueid": "MTK0170:32Q90QCQ1TS5KK7ALY81041I67MKEC", "current_trial": 70, "dateTime": 1509476339841, "trialdata": {"rt": -1000, "stimulus": "/static/audio/wordpool/EGYPT.wav", "key_press": -1, "type": "PRES_AUD", "word": "egypt", "wordID": 518, "conditions": [18, 1200, "a", 18000], "trial": 1, "serialpos": 15, "trial_type": "single-audio", "trial_index": 70, "time_elapsed": 250834, "internal_node_id": "0.0-52.0"}}, {"uniqueid": "MTK0170:32Q90QCQ1TS5KK7ALY81041I67MKEC", "current_trial": 71, "dateTime": 1509476342103, "trialdata": {"rt": 1929.333333333318, "stimulus": "/static/audio/wordpool/HIGHWAY.wav", "key_press": 32, "type": "PRES_AUD", "word": "highway", "wordID": 706, "conditions": [18, 1200, "a", 18000], "trial": 1, "serialpos": 16, "trial_type": "single-audio", "trial_index": 71, "time_elapsed": 253096, "internal_node_id": "0.0-53.0"}}, {"uniqueid": "MTK0170:32Q90QCQ1TS5KK7ALY81041I67MKEC", "current_trial": 72, "dateTime": 1509476344466, "trialdata": {"rt": -1000, "stimulus": "/static/audio/wordpool/BANK.wav", "key_press": -1, "type": "PRES_AUD", "word": "bank", "wordID": 82, "conditions": [18, 1200, "a", 18000], "trial": 1, "serialpos": 17, "trial_type": "single-audio", "trial_index": 72, "time_elapsed": 255459, "internal_node_id": "0.0-54.0"}}, {"uniqueid": "MTK0170:32Q90QCQ1TS5KK7ALY81041I67MKEC", "current_trial": 73, "dateTime": 1509476345799, "trialdata": {"rt": -1, "stimulus": "", "key_press": -1, "type": "PRE_RECALL_DELAY", "trial_type": "single-stim", "trial_index": 73, "time_elapsed": 256792, "internal_node_id": "0.0-55.0-0.0"}}, {"uniqueid": "MTK0170:32Q90QCQ1TS5KK7ALY81041I67MKEC", "current_trial": 74, "dateTime": 1509476346301, "trialdata": {"rt": -1000, "stimulus": "/static/audio/400Hz.wav", "key_press": -1, "type": "PRE_RECALL_ALERT", "trial_type": "single-audio", "trial_index": 74, "time_elapsed": 257294, "internal_node_id": "0.0-56.0"}}, {"uniqueid": "MTK0170:32Q90QCQ1TS5KK7ALY81041I67MKEC", "current_trial": 75, "dateTime": 1509476406311, "trialdata": {"rt": [1573, 3214, 5239, 6499, 8471, 10451, 12088, 14313, 18156, 19690, 23274, 26259, 33332, 38186, 40115, 49822, 52849, 58885], "recwords": ["bank", "cafe", "tourist", "mace", "shirt", "egypt", "clouse", "blouse", "binder", "ox", "paper", "receipt", "ox", "bank", "cafe", "na", "sun", "clam"], "type": "FREE_RECALL", "conditions": [18, 1200, "a", 18000], "trial": 1, "trial_type": "free-recall", "trial_index": 75, "time_elapsed": 317300, "internal_node_id": "0.0-57.0-0.0"}}, {"uniqueid": "MTK0170:32Q90QCQ1TS5KK7ALY81041I67MKEC", "current_trial": 76, "dateTime": 1509476410371, "trialdata": {"rt": 2061, "key_press": 32, "type": "INSTRUCTIONS", "trial_type": "text", "trial_index": 76, "time_elapsed": 321364, "internal_node_id": "0.0-58.0"}}, {"uniqueid": "MTK0170:32Q90QCQ1TS5KK7ALY81041I67MKEC", "current_trial": 77, "dateTime": 1509476423379, "trialdata": {"rt": [5201, 7767], "responses": ["20", "11"], "num1": [6, 2, 5], "num2": [7, 4, 3], "num3": [7, 5, 8], "type": "DISTRACTOR", "conditions": [12, 800, "v", 12000], "trial": 2, "trial_type": "math-distractor", "trial_index": 77, "time_elapsed": 334372, "internal_node_id": "0.0-59.0"}}, {"uniqueid": "MTK0170:32Q90QCQ1TS5KK7ALY81041I67MKEC", "current_trial": 78, "dateTime": 1509476426382, "trialdata": {"rt": -1, "stimulus": "<p id=\"stim\">10</p>", "key_press": -1, "trial_type": "single-stim", "trial_index": 78, "time_elapsed": 337375, "internal_node_id": "0.0-60.0-0.0"}}, {"uniqueid": "MTK0170:32Q90QCQ1TS5KK7ALY81041I67MKEC", "current_trial": 79, "dateTime": 1509476427383, "trialdata": {"rt": 234, "stimulus": "<p id=\"stim\">9</p>", "key_press": 49, "trial_type": "single-stim", "trial_index": 79, "time_elapsed": 338376, "internal_node_id": "0.0-60.0-1.0"}}, {"uniqueid": "MTK0170:32Q90QCQ1TS5KK7ALY81041I67MKEC", "current_trial": 80, "dateTime": 1509476428386, "trialdata": {"rt": -1, "stimulus": "<p id=\"stim\">8</p>", "key_press": -1, "trial_type": "single-stim", "trial_index": 80, "time_elapsed": 339379, "internal_node_id": "0.0-60.0-2.0"}}, {"uniqueid": "MTK0170:32Q90QCQ1TS5KK7ALY81041I67MKEC", "current_trial": 81, "dateTime": 1509476429388, "trialdata": {"rt": -1, "stimulus": "<p id=\"stim\">7</p>", "key_press": -1, "trial_type": "single-stim", "trial_index": 81, "time_elapsed": 340381, "internal_node_id": "0.0-60.0-3.0"}}, {"uniqueid": "MTK0170:32Q90QCQ1TS5KK7ALY81041I67MKEC", "current_trial": 82, "dateTime": 1509476430392, "trialdata": {"rt": -1, "stimulus": "<p id=\"stim\">6</p>", "key_press": -1, "trial_type": "single-stim", "trial_index": 82, "time_elapsed": 341385, "internal_node_id": "0.0-60.0-4.0"}}, {"uniqueid": "MTK0170:32Q90QCQ1TS5KK7ALY81041I67MKEC", "current_trial": 83, "dateTime": 1509476431394, "trialdata": {"rt": -1, "stimulus": "<p id=\"stim\">5</p>", "key_press": -1, "trial_type": "single-stim", "trial_index": 83, "time_elapsed": 342387, "internal_node_id": "0.0-60.0-5.0"}}, {"uniqueid": "MTK0170:32Q90QCQ1TS5KK7ALY81041I67MKEC", "current_trial": 84, "dateTime": 1509476432398, "trialdata": {"rt": -1, "stimulus": "<p id=\"stim\">4</p>", "key_press": -1, "trial_type": "single-stim", "trial_index": 84, "time_elapsed": 343391, "internal_node_id": "0.0-60.0-6.0"}}, {"uniqueid": "MTK0170:32Q90QCQ1TS5KK7ALY81041I67MKEC", "current_trial": 85, "dateTime": 1509476433400, "trialdata": {"rt": -1, "stimulus": "<p id=\"stim\">3</p>", "key_press": -1, "trial_type": "single-stim", "trial_index": 85, "time_elapsed": 344393, "internal_node_id": "0.0-60.0-7.0"}}, {"uniqueid": "MTK0170:32Q90QCQ1TS5KK7ALY81041I67MKEC", "current_trial": 86, "dateTime": 1509476434402, "trialdata": {"rt": -1, "stimulus": "<p id=\"stim\">2</p>", "key_press": -1, "trial_type": "single-stim", "trial_index": 86, "time_elapsed": 345395, "internal_node_id": "0.0-60.0-8.0"}}, {"uniqueid": "MTK0170:32Q90QCQ1TS5KK7ALY81041I67MKEC", "current_trial": 87, "dateTime": 1509476435404, "trialdata": {"rt": -1, "stimulus": "<p id=\"stim\">1</p>", "key_press": -1, "trial_type": "single-stim", "trial_index": 87, "time_elapsed": 346397, "internal_node_id": "0.0-60.0-9.0"}}, {"uniqueid": "MTK0170:32Q90QCQ1TS5KK7ALY81041I67MKEC", "current_trial": 88, "dateTime": 1509476436909, "trialdata": {"rt": -1, "stimulus": "<p id=\"stim\">+</p>", "key_press": -1, "type": "FIXATION", "trial_type": "single-stim", "trial_index": 88, "time_elapsed": 347902, "internal_node_id": "0.0-61.0-0.0"}}, {"uniqueid": "MTK0170:32Q90QCQ1TS5KK7ALY81041I67MKEC", "current_trial": 89, "dateTime": 1509476437714, "trialdata": {"rt": -1, "stimulus": "<p id=\"stim\">PLAYGROUND</p>", "key_press": -1, "type": "PRES_VIS", "word": "playground", "wordID": 1086, "conditions": [12, 800, "v", 12000], "trial": 2, "serialpos": 0, "trial_type": "single-stim", "trial_index": 89, "time_elapsed": 348707, "internal_node_id": "0.0-62.0"}}, {"uniqueid": "MTK0170:32Q90QCQ1TS5KK7ALY81041I67MKEC", "current_trial": 90, "dateTime": 1509476439640, "trialdata": {"rt": -1, "stimulus": "<p id=\"stim\">SALAD</p>", "key_press": -1, "type": "PRES_VIS", "word": "salad", "wordID": 1223, "conditions": [12, 800, "v", 12000], "trial": 2, "serialpos": 1, "trial_type": "single-stim", "trial_index": 90, "time_elapsed": 350633, "internal_node_id": "0.0-63.0"}}, {"uniqueid": "MTK0170:32Q90QCQ1TS5KK7ALY81041I67MKEC", "current_trial": 91, "dateTime": 1509476441597, "trialdata": {"rt": -1, "stimulus": "<p id=\"stim\">FEMALE</p>", "key_press": -1, "type": "PRES_VIS", "word": "female", "wordID": 558, "conditions": [12, 800, "v", 12000], "trial": 2, "serialpos": 2, "trial_type": "single-stim", "trial_index": 91, "time_elapsed": 352590, "internal_node_id": "0.0-64.0"}}, {"uniqueid": "MTK0170:32Q90QCQ1TS5KK7ALY81041I67MKEC", "current_trial": 92, "dateTime": 1509476443379, "trialdata": {"rt": -1, "stimulus": "<p id=\"stim\">COSTUME</p>", "key_press": -1, "type": "PRES_VIS", "word": "costume", "wordID": 382, "conditions": [12, 800, "v", 12000], "trial": 2, "serialpos": 3, "trial_type": "single-stim", "trial_index": 92, "time_elapsed": 354372, "internal_node_id": "0.0-65.0"}}, {"uniqueid": "MTK0170:32Q90QCQ1TS5KK7ALY81041I67MKEC", "current_trial": 93, "dateTime": 1509476445100, "trialdata": {"rt": -1, "stimulus": "<p id=\"stim\">SNACK</p>", "key_press": -1, "type": "PRES_VIS", "word": "snack", "wordID": 1330, "conditions": [12, 800, "v", 12000], "trial": 2, "serialpos": 4, "trial_type": "single-stim", "trial_index": 93, "time_elapsed": 356093, "internal_node_id": "0.0-66.0"}}, {"uniqueid": "MTK0170:32Q90QCQ1TS5KK7ALY81041I67MKEC", "current_trial": 94, "dateTime": 1509476447041, "trialdata": {"rt": -1, "stimulus": "<p id=\"stim\">RIFLE</p>", "key_press": -1, "type": "PRES_VIS", "word": "rifle", "wordID": 1191, "conditions": [12, 800, "v", 12000], "trial": 2, "serialpos": 5, "trial_type": "single-stim", "trial_index": 94, "time_elapsed": 358034, "internal_node_id": "0.0-67.0"}}, {"uniqueid": "MTK0170:32Q90QCQ1TS5KK7ALY81041I67MKEC", "current_trial": 95, "dateTime": 1509476448968, "trialdata": {"rt": -1, "stimulus": "<p id=\"stim\">ULCER</p>", "key_press": -1, "type": "PRES_VIS", "word": "ulcer", "wordID": 1532, "conditions": [12, 800, "v", 12000], "trial": 2, "serialpos": 6, "trial_type": "single-stim", "trial_index": 95, "time_elapsed": 359961, "internal_node_id": "0.0-68.0"}}, {"uniqueid": "MTK0170:32Q90QCQ1TS5KK7ALY81041I67MKEC", "current_trial": 96, "dateTime": 1509476450596, "trialdata": {"rt": -1, "stimulus": "<p id=\"stim\">PARTNER</p>", "key_press": -1, "type": "PRES_VIS", "word": "partner", "wordID": 1016, "conditions": [12, 800, "v", 12000], "trial": 2, "serialpos": 7, "trial_type": "single-stim", "trial_index": 96, "time_elapsed": 361589, "internal_node_id": "0.0-69.0"}}, {"uniqueid": "MTK0170:32Q90QCQ1TS5KK7ALY81041I67MKEC", "current_trial": 97, "dateTime": 1509476452425, "trialdata": {"rt": -1, "stimulus": "<p id=\"stim\">TRUCK</p>", "key_press": -1, "type": "PRES_VIS", "word": "truck", "wordID": 1511, "conditions": [12, 800, "v", 12000], "trial": 2, "serialpos": 8, "trial_type": "single-stim", "trial_index": 97, "time_elapsed": 363418, "internal_node_id": "0.0-70.0"}}, {"uniqueid": "MTK0170:32Q90QCQ1TS5KK7ALY81041I67MKEC", "current_trial": 98, "dateTime": 1509476454324, "trialdata": {"rt": -1, "stimulus": "<p id=\"stim\">DRIVER</p>", "key_press": -1, "type": "PRES_VIS", "word": "driver", "wordID": 498, "conditions": [12, 800, "v", 12000], "trial": 2, "serialpos": 9, "trial_type": "single-stim", "trial_index": 98, "time_elapsed": 365317, "internal_node_id": "0.0-71.0"}}, {"uniqueid": "MTK0170:32Q90QCQ1TS5KK7ALY81041I67MKEC", "current_trial": 99, "dateTime": 1509476455955, "trialdata": {"rt": -1, "stimulus": "<p id=\"stim\">VELVET</p>", "key_press": -1, "type": "PRES_VIS", "word": "velvet", "wordID": 1554, "conditions": [12, 800, "v", 12000], "trial": 2, "serialpos": 10, "trial_type": "single-stim", "trial_index": 99, "time_elapsed": 366948, "internal_node_id": "0.0-72.0"}}, {"uniqueid": "MTK0170:32Q90QCQ1TS5KK7ALY81041I67MKEC", "current_trial": 100, "dateTime": 1509476457690, "trialdata": {"rt": -1, "stimulus": "<p id=\"stim\">FLASK</p>", "key_press": -1, "type": "PRES_VIS", "word": "flask", "wordID": 575, "conditions": [12, 800, "v", 12000], "trial": 2, "serialpos": 11, "trial_type": "single-stim", "trial_index": 100, "time_elapsed": 368683, "internal_node_id": "0.0-73.0"}}, {"uniqueid": "MTK0170:32Q90QCQ1TS5KK7ALY81041I67MKEC", "current_trial": 101, "dateTime": 1509476459920, "trialdata": {"rt": -1, "stimulus": "", "key_press": -1, "type": "PRE_RECALL_DELAY", "trial_type": "single-stim", "trial_index": 101, "time_elapsed": 370913, "internal_node_id": "0.0-74.0-0.0"}}, {"uniqueid": "MTK0170:32Q90QCQ1TS5KK7ALY81041I67MKEC", "current_trial": 102, "dateTime": 1509476460426, "trialdata": {"rt": -1000, "stimulus": "/static/audio/400Hz.wav", "key_press": -1, "type": "PRE_RECALL_ALERT", "trial_type": "single-audio", "trial_index": 102, "time_elapsed": 371419, "internal_node_id": "0.0-75.0"}}, {"uniqueid": "MTK0170:32Q90QCQ1TS5KK7ALY81041I67MKEC", "current_trial": 103, "dateTime": 1509476520432, "trialdata": {"rt": [3770, 5386, 8365, 10171, 11740, 13575, 15522, 17391, 20897, 25506, 35815, 41050, 43073, 45901, 50650, 54896, 58943], "recwords": ["girl", "salad", "playground", "snack", "truck", "driver", "velvet", "flask", "snack", "ulcer", "dress", "salad", "girl", "playground", "velvet", "ulcer", "truck"], "type": "FREE_RECALL", "conditions": [12, 800, "v", 12000], "trial": 2, "trial_type": "free-recall", "trial_index": 103, "time_elapsed": 431421, "internal_node_id": "0.0-76.0-0.0"}}, {"uniqueid": "MTK0170:32Q90QCQ1TS5KK7ALY81041I67MKEC", "current_trial": 104, "dateTime": 1509476524056, "trialdata": {"rt": 1620, "key_press": 32, "type": "INSTRUCTIONS", "trial_type": "text", "trial_index": 104, "time_elapsed": 435049, "internal_node_id": "0.0-77.0"}}, {"uniqueid": "MTK0170:32Q90QCQ1TS5KK7ALY81041I67MKEC", "current_trial": 105, "dateTime": 1509476538065, "trialdata": {"rt": [4436, 6842, 10895], "responses": ["15", "12", "17"], "num1": [6, 1, 6, 2], "num2": [1, 9, 2, 5], "num3": [7, 2, 9, 7], "type": "DISTRACTOR", "conditions": [24, 1600, "v", 12000], "trial": 3, "trial_type": "math-distractor", "trial_index": 105, "time_elapsed": 449058, "internal_node_id": "0.0-78.0"}}, {"uniqueid": "MTK0170:32Q90QCQ1TS5KK7ALY81041I67MKEC", "current_trial": 106, "dateTime": 1509476541074, "trialdata": {"rt": -1, "stimulus": "<p id=\"stim\">10</p>", "key_press": -1, "trial_type": "single-stim", "trial_index": 106, "time_elapsed": 452067, "internal_node_id": "0.0-79.0-0.0"}}, {"uniqueid": "MTK0170:32Q90QCQ1TS5KK7ALY81041I67MKEC", "current_trial": 107, "dateTime": 1509476542078, "trialdata": {"rt": -1, "stimulus": "<p id=\"stim\">9</p>", "key_press": -1, "trial_type": "single-stim", "trial_index": 107, "time_elapsed": 453071, "internal_node_id": "0.0-79.0-1.0"}}, {"uniqueid": "MTK0170:32Q90QCQ1TS5KK7ALY81041I67MKEC", "current_trial": 108, "dateTime": 1509476543081, "trialdata": {"rt": -1, "stimulus": "<p id=\"stim\">8</p>", "key_press": -1, "trial_type": "single-stim", "trial_index": 108, "time_elapsed": 454074, "internal_node_id": "0.0-79.0-2.0"}}, {"uniqueid": "MTK0170:32Q90QCQ1TS5KK7ALY81041I67MKEC", "current_trial": 109, "dateTime": 1509476544086, "trialdata": {"rt": -1, "stimulus": "<p id=\"stim\">7</p>", "key_press": -1, "trial_type": "single-stim", "trial_index": 109, "time_elapsed": 455079, "internal_node_id": "0.0-79.0-3.0"}}, {"uniqueid": "MTK0170:32Q90QCQ1TS5KK7ALY81041I67MKEC", "current_trial": 110, "dateTime": 1509476545090, "trialdata": {"rt": -1, "stimulus": "<p id=\"stim\">6</p>", "key_press": -1, "trial_type": "single-stim", "trial_index": 110, "time_elapsed": 456083, "internal_node_id": "0.0-79.0-4.0"}}, {"uniqueid": "MTK0170:32Q90QCQ1TS5KK7ALY81041I67MKEC", "current_trial": 111, "dateTime": 1509476546095, "trialdata": {"rt": -1, "stimulus": "<p id=\"stim\">5</p>", "key_press": -1, "trial_type": "single-stim", "trial_index": 111, "time_elapsed": 457088, "internal_node_id": "0.0-79.0-5.0"}}, {"uniqueid": "MTK0170:32Q90QCQ1TS5KK7ALY81041I67MKEC", "current_trial": 112, "dateTime": 1509476547101, "trialdata": {"rt": -1, "stimulus": "<p id=\"stim\">4</p>", "key_press": -1, "trial_type": "single-stim", "trial_index": 112, "time_elapsed": 458094, "internal_node_id": "0.0-79.0-6.0"}}, {"uniqueid": "MTK0170:32Q90QCQ1TS5KK7ALY81041I67MKEC", "current_trial": 113, "dateTime": 1509476548102, "trialdata": {"rt": -1, "stimulus": "<p id=\"stim\">3</p>", "key_press": -1, "trial_type": "single-stim", "trial_index": 113, "time_elapsed": 459095, "internal_node_id": "0.0-79.0-7.0"}}, {"uniqueid": "MTK0170:32Q90QCQ1TS5KK7ALY81041I67MKEC", "current_trial": 114, "dateTime": 1509476549107, "trialdata": {"rt": -1, "stimulus": "<p id=\"stim\">2</p>", "key_press": -1, "trial_type": "single-stim", "trial_index": 114, "time_elapsed": 460100, "internal_node_id": "0.0-79.0-8.0"}}, {"uniqueid": "MTK0170:32Q90QCQ1TS5KK7ALY81041I67MKEC", "current_trial": 115, "dateTime": 1509476550110, "trialdata": {"rt": -1, "stimulus": "<p id=\"stim\">1</p>", "key_press": -1, "trial_type": "single-stim", "trial_index": 115, "time_elapsed": 461103, "internal_node_id": "0.0-79.0-9.0"}}, {"uniqueid": "MTK0170:32Q90QCQ1TS5KK7ALY81041I67MKEC", "current_trial": 116, "dateTime": 1509476551612, "trialdata": {"rt": -1, "stimulus": "<p id=\"stim\">+</p>", "key_press": -1, "type": "FIXATION", "trial_type": "single-stim", "trial_index": 116, "time_elapsed": 462605, "internal_node_id": "0.0-80.0-0.0"}}, {"uniqueid": "MTK0170:32Q90QCQ1TS5KK7ALY81041I67MKEC", "current_trial": 117, "dateTime": 1509476553217, "trialdata": {"rt": -1, "stimulus": "<p id=\"stim\">BRIEFCASE</p>", "key_press": -1, "type": "PRES_VIS", "word": "briefcase", "wordID": 174, "conditions": [24, 1600, "v", 12000], "trial": 3, "serialpos": 0, "trial_type": "single-stim", "trial_index": 117, "time_elapsed": 464210, "internal_node_id": "0.0-81.0"}}, {"uniqueid": "MTK0170:32Q90QCQ1TS5KK7ALY81041I67MKEC", "current_trial": 118, "dateTime": 1509476555648, "trialdata": {"rt": -1, "stimulus": "<p id=\"stim\">SUITCASE</p>", "key_press": -1, "type": "PRES_VIS", "word": "suitcase", "wordID": 1402, "conditions": [24, 1600, "v", 12000], "trial": 3, "serialpos": 1, "trial_type": "single-stim", "trial_index": 118, "time_elapsed": 466641, "internal_node_id": "0.0-82.0"}}, {"uniqueid": "MTK0170:32Q90QCQ1TS5KK7ALY81041I67MKEC", "current_trial": 119, "dateTime": 1509476558159, "trialdata": {"rt": -1, "stimulus": "<p id=\"stim\">FOX</p>", "key_press": -1, "type": "PRES_VIS", "word": "fox", "wordID": 597, "conditions": [24, 1600, "v", 12000], "trial": 3, "serialpos": 2, "trial_type": "single-stim", "trial_index": 119, "time_elapsed": 469152, "internal_node_id": "0.0-83.0"}}, {"uniqueid": "MTK0170:32Q90QCQ1TS5KK7ALY81041I67MKEC", "current_trial": 120, "dateTime": 1509476560844, "trialdata": {"rt": -1, "stimulus": "<p id=\"stim\">STALLION</p>", "key_press": -1, "type": "PRES_VIS", "word": "stallion", "wordID": 1368, "conditions": [24, 1600, "v", 12000], "trial": 3, "serialpos": 3, "trial_type": "single-stim", "trial_index": 120, "time_elapsed": 471837, "internal_node_id": "0.0-84.0"}}, {"uniqueid": "MTK0170:32Q90QCQ1TS5KK7ALY81041I67MKEC", "current_trial": 121, "dateTime": 1509476563330, "trialdata": {"rt": -1, "stimulus": "<p id=\"stim\">BEAKER</p>", "key_press": -1, "type": "PRES_VIS", "word": "beaker", "wordID": 103, "conditions": [24, 1600, "v", 12000], "trial": 3, "serialpos": 4, "trial_type": "single-stim", "trial_index": 121, "time_elapsed": 474323, "internal_node_id": "0.0-85.0"}}, {"uniqueid": "MTK0170:32Q90QCQ1TS5KK7ALY81041I67MKEC", "current_trial": 122, "dateTime": 1509476566053, "trialdata": {"rt": -1, "stimulus": "<p id=\"stim\">BLUEPRINT</p>", "key_press": -1, "type": "PRES_VIS", "word": "blueprint", "wordID": 141, "conditions": [24, 1600, "v", 12000], "trial": 3, "serialpos": 5, "trial_type": "single-stim", "trial_index": 122, "time_elapsed": 477046, "internal_node_id": "0.0-86.0"}}, {"uniqueid": "MTK0170:32Q90QCQ1TS5KK7ALY81041I67MKEC", "current_trial": 123, "dateTime": 1509476568670, "trialdata": {"rt": -1, "stimulus": "<p id=\"stim\">VICTIM</p>", "key_press": -1, "type": "PRES_VIS", "word": "victim", "wordID": 1561, "conditions": [24, 1600, "v", 12000], "trial": 3, "serialpos": 6, "trial_type": "single-stim", "trial_index": 123, "time_elapsed": 479663, "internal_node_id": "0.0-87.0"}}, {"uniqueid": "MTK0170:32Q90QCQ1TS5KK7ALY81041I67MKEC", "current_trial": 124, "dateTime": 1509476571215, "trialdata": {"rt": -1, "stimulus": "<p id=\"stim\">PANTHER</p>", "key_press": -1, "type": "PRES_VIS", "word": "panther", "wordID": 1008, "conditions": [24, 1600, "v", 12000], "trial": 3, "serialpos": 7, "trial_type": "single-stim", "trial_index": 124, "time_elapsed": 482208, "internal_node_id": "0.0-88.0"}}, {"uniqueid": "MTK0170:32Q90QCQ1TS5KK7ALY81041I67MKEC", "current_trial": 125, "dateTime": 1509476573706, "trialdata": {"rt": -1, "stimulus": "<p id=\"stim\">TWEEZERS</p>", "key_press": -1, "type": "PRES_VIS", "word": "tweezers", "wordID": 1525, "conditions": [24, 1600, "v", 12000], "trial": 3, "serialpos": 8, "trial_type": "single-stim", "trial_index": 125, "time_elapsed": 484699, "internal_node_id": "0.0-89.0"}}, {"uniqueid": "MTK0170:32Q90QCQ1TS5KK7ALY81041I67MKEC", "current_trial": 126, "dateTime": 1509476576199, "trialdata": {"rt": -1, "stimulus": "<p id=\"stim\">CASHEW</p>", "key_press": -1, "type": "PRES_VIS", "word": "cashew", "wordID": 252, "conditions": [24, 1600, "v", 12000], "trial": 3, "serialpos": 9, "trial_type": "single-stim", "trial_index": 126, "time_elapsed": 487192, "internal_node_id": "0.0-90.0"}}, {"uniqueid": "MTK0170:32Q90QCQ1TS5KK7ALY81041I67MKEC", "current_trial": 127, "dateTime": 1509476578708, "trialdata": {"rt": -1, "stimulus": "<p id=\"stim\">CYCLONE</p>", "key_press": -1, "type": "PRES_VIS", "word": "cyclone", "wordID": 430, "conditions": [24, 1600, "v", 12000], "trial": 3, "serialpos": 10, "trial_type": "single-stim", "trial_index": 127, "time_elapsed": 489701, "internal_node_id": "0.0-91.0"}}, {"uniqueid": "MTK0170:32Q90QCQ1TS5KK7ALY81041I67MKEC", "current_trial": 128, "dateTime": 1509476581333, "trialdata": {"rt": -1, "stimulus": "<p id=\"stim\">PILOT</p>", "key_press": -1, "type": "PRES_VIS", "word": "pilot", "wordID": 1069, "conditions": [24, 1600, "v", 12000], "trial": 3, "serialpos": 11, "trial_type": "single-stim", "trial_index": 128, "time_elapsed": 492326, "internal_node_id": "0.0-92.0"}}, {"uniqueid": "MTK0170:32Q90QCQ1TS5KK7ALY81041I67MKEC", "current_trial": 129, "dateTime": 1509476583879, "trialdata": {"rt": -1, "stimulus": "<p id=\"stim\">OMELET</p>", "key_press": -1, "type": "PRES_VIS", "word": "omelet", "wordID": 975, "conditions": [24, 1600, "v", 12000], "trial": 3, "serialpos": 12, "trial_type": "single-stim", "trial_index": 129, "time_elapsed": 494872, "internal_node_id": "0.0-93.0"}}, {"uniqueid": "MTK0170:32Q90QCQ1TS5KK7ALY81041I67MKEC", "current_trial": 130, "dateTime": 1509476586399, "trialdata": {"rt": -1, "stimulus": "<p id=\"stim\">STONE</p>", "key_press": -1, "type": "PRES_VIS", "word": "stone", "wordID": 1384, "conditions": [24, 1600, "v", 12000], "trial": 3, "serialpos": 13, "trial_type": "single-stim", "trial_index": 130, "time_elapsed": 497392, "internal_node_id": "0.0-94.0"}}, {"uniqueid": "MTK0170:32Q90QCQ1TS5KK7ALY81041I67MKEC", "current_trial": 131, "dateTime": 1509476588868, "trialdata": {"rt": -1, "stimulus": "<p id=\"stim\">FINGER</p>", "key_press": -1, "type": "PRES_VIS", "word": "finger", "wordID": 566, "conditions": [24, 1600, "v", 12000], "trial": 3, "serialpos": 14, "trial_type": "single-stim", "trial_index": 131, "time_elapsed": 499861, "internal_node_id": "0.0-95.0"}}, {"uniqueid": "MTK0170:32Q90QCQ1TS5KK7ALY81041I67MKEC", "current_trial": 132, "dateTime": 1509476591471, "trialdata": {"rt": -1, "stimulus": "<p id=\"stim\">COIN</p>", "key_press": -1, "type": "PRES_VIS", "word": "coin", "wordID": 342, "conditions": [24, 1600, "v", 12000], "trial": 3, "serialpos": 15, "trial_type": "single-stim", "trial_index": 132, "time_elapsed": 502464, "internal_node_id": "0.0-96.0"}}, {"uniqueid": "MTK0170:32Q90QCQ1TS5KK7ALY81041I67MKEC", "current_trial": 133, "dateTime": 1509476593886, "trialdata": {"rt": -1, "stimulus": "<p id=\"stim\">TWIG</p>", "key_press": -1, "type": "PRES_VIS", "word": "twig", "wordID": 1526, "conditions": [24, 1600, "v", 12000], "trial": 3, "serialpos": 16, "trial_type": "single-stim", "trial_index": 133, "time_elapsed": 504879, "internal_node_id": "0.0-97.0"}}, {"uniqueid": "MTK0170:32Q90QCQ1TS5KK7ALY81041I67MKEC", "current_trial": 134, "dateTime": 1509476596661, "trialdata": {"rt": -1, "stimulus": "<p id=\"stim\">ARM</p>", "key_press": -1, "type": "PRES_VIS", "word": "arm", "wordID": 37, "conditions": [24, 1600, "v", 12000], "trial": 3, "serialpos": 17, "trial_type": "single-stim", "trial_index": 134, "time_elapsed": 507654, "internal_node_id": "0.0-98.0"}}, {"uniqueid": "MTK0170:32Q90QCQ1TS5KK7ALY81041I67MKEC", "current_trial": 135, "dateTime": 1509476599428, "trialdata": {"rt": -1, "stimulus": "<p id=\"stim\">COUNTRY</p>", "key_press": -1, "type": "PRES_VIS", "word": "country", "wordID": 387, "conditions": [24, 1600, "v", 12000], "trial": 3, "serialpos": 18, "trial_type": "single-stim", "trial_index": 135, "time_elapsed": 510421, "internal_node_id": "0.0-99.0"}}, {"uniqueid": "MTK0170:32Q90QCQ1TS5KK7ALY81041I67MKEC", "current_trial": 136, "dateTime": 1509476601989, "trialdata": {"rt": -1, "stimulus": "<p id=\"stim\">WORLD</p>", "key_press": -1, "type": "PRES_VIS", "word": "world", "wordID": 1621, "conditions": [24, 1600, "v", 12000], "trial": 3, "serialpos": 19, "trial_type": "single-stim", "trial_index": 136, "time_elapsed": 512982, "internal_node_id": "0.0-100.0"}}, {"uniqueid": "MTK0170:32Q90QCQ1TS5KK7ALY81041I67MKEC", "current_trial": 137, "dateTime": 1509476604593, "trialdata": {"rt": -1, "stimulus": "<p id=\"stim\">LOFT</p>", "key_press": -1, "type": "PRES_VIS", "word": "loft", "wordID": 839, "conditions": [24, 1600, "v", 12000], "trial": 3, "serialpos": 20, "trial_type": "single-stim", "trial_index": 137, "time_elapsed": 515586, "internal_node_id": "0.0-101.0"}}, {"uniqueid": "MTK0170:32Q90QCQ1TS5KK7ALY81041I67MKEC", "current_trial": 138, "dateTime": 1509476607199, "trialdata": {"rt": -1, "stimulus": "<p id=\"stim\">WARDROBE</p>", "key_press": -1, "type": "PRES_VIS", "word": "wardrobe", "wordID": 1586, "conditions": [24, 1600, "v", 12000], "trial": 3, "serialpos": 21, "trial_type": "single-stim", "trial_index": 138, "time_elapsed": 518192, "internal_node_id": "0.0-102.0"}}, {"uniqueid": "MTK0170:32Q90QCQ1TS5KK7ALY81041I67MKEC", "current_trial": 139, "dateTime": 1509476609834, "trialdata": {"rt": -1, "stimulus": "<p id=\"stim\">GIRL</p>", "key_press": -1, "type": "PRES_VIS", "word": "girl", "wordID": 636, "conditions": [24, 1600, "v", 12000], "trial": 3, "serialpos": 22, "trial_type": "single-stim", "trial_index": 139, "time_elapsed": 520827, "internal_node_id": "0.0-103.0"}}, {"uniqueid": "MTK0170:32Q90QCQ1TS5KK7ALY81041I67MKEC", "current_trial": 140, "dateTime": 1509476612462, "trialdata": {"rt": -1, "stimulus": "<p id=\"stim\">CUSTARD</p>", "key_press": -1, "type": "PRES_VIS", "word": "custard", "wordID": 428, "conditions": [24, 1600, "v", 12000], "trial": 3, "serialpos": 23, "trial_type": "single-stim", "trial_index": 140, "time_elapsed": 523455, "internal_node_id": "0.0-104.0"}}, {"uniqueid": "MTK0170:32Q90QCQ1TS5KK7ALY81041I67MKEC", "current_trial": 141, "dateTime": 1509476614674, "trialdata": {"rt": -1, "stimulus": "", "key_press": -1, "type": "PRE_RECALL_DELAY", "trial_type": "single-stim", "trial_index": 141, "time_elapsed": 525667, "internal_node_id": "0.0-105.0-0.0"}}, {"uniqueid": "MTK0170:32Q90QCQ1TS5KK7ALY81041I67MKEC", "current_trial": 142, "dateTime": 1509476615181, "trialdata": {"rt": -1000, "stimulus": "/static/audio/400Hz.wav", "key_press": -1, "type": "PRE_RECALL_ALERT", "trial_type": "single-audio", "trial_index": 142, "time_elapsed": 526172, "internal_node_id": "0.0-106.0"}}, {"uniqueid": "MTK0170:32Q90QCQ1TS5KK7ALY81041I67MKEC", "current_trial": 143, "dateTime": 1509476675189, "trialdata": {"rt": [2273, 5586, 8285, 9965, 15321, 16741, 19189, 21863, 26614, 32668, 41636, 45232, 53761, 56269], "recwords": ["custard", "girl", "cyclone", "pilot", "stallion", "fox", "briefcase", "suitcase", "blueprint", "form", "girl", "cyclone", "drink", "girl"], "type": "FREE_RECALL", "conditions": [24, 1600, "v", 12000], "trial": 3, "trial_type": "free-recall", "trial_index": 143, "time_elapsed": 586178, "internal_node_id": "0.0-107.0-0.0"}}, {"uniqueid": "MTK0170:32Q90QCQ1TS5KK7ALY81041I67MKEC", "current_trial": 144, "dateTime": 1509476678660, "trialdata": {"rt": 1465, "key_press": 32, "type": "INSTRUCTIONS", "trial_type": "text", "trial_index": 144, "time_elapsed": 589649, "internal_node_id": "0.0-108.0"}}, {"uniqueid": "MTK0170:32Q90QCQ1TS5KK7ALY81041I67MKEC", "current_trial": 145, "dateTime": 1509476692668, "trialdata": {"rt": [3756, 10520], "responses": ["12", "17"], "num1": [1, 9, 7], "num2": [8, 3, 3], "num3": [3, 5, 9], "type": "DISTRACTOR", "conditions": [12, 1600, "a", 12000], "trial": 4, "trial_type": "math-distractor", "trial_index": 145, "time_elapsed": 603661, "internal_node_id": "0.0-109.0"}}, {"uniqueid": "MTK0170:32Q90QCQ1TS5KK7ALY81041I67MKEC", "current_trial": 146, "dateTime": 1509476695677, "trialdata": {"rt": -1, "stimulus": "<p id=\"stim\">10</p>", "key_press": -1, "trial_type": "single-stim", "trial_index": 146, "time_elapsed": 606670, "internal_node_id": "0.0-110.0-0.0"}}, {"uniqueid": "MTK0170:32Q90QCQ1TS5KK7ALY81041I67MKEC", "current_trial": 147, "dateTime": 1509476696679, "trialdata": {"rt": -1, "stimulus": "<p id=\"stim\">9</p>", "key_press": -1, "trial_type": "single-stim", "trial_index": 147, "time_elapsed": 607672, "internal_node_id": "0.0-110.0-1.0"}}, {"uniqueid": "MTK0170:32Q90QCQ1TS5KK7ALY81041I67MKEC", "current_trial": 148, "dateTime": 1509476697683, "trialdata": {"rt": -1, "stimulus": "<p id=\"stim\">8</p>", "key_press": -1, "trial_type": "single-stim", "trial_index": 148, "time_elapsed": 608676, "internal_node_id": "0.0-110.0-2.0"}}, {"uniqueid": "MTK0170:32Q90QCQ1TS5KK7ALY81041I67MKEC", "current_trial": 149, "dateTime": 1509476698687, "trialdata": {"rt": -1, "stimulus": "<p id=\"stim\">7</p>", "key_press": -1, "trial_type": "single-stim", "trial_index": 149, "time_elapsed": 609680, "internal_node_id": "0.0-110.0-3.0"}}, {"uniqueid": "MTK0170:32Q90QCQ1TS5KK7ALY81041I67MKEC", "current_trial": 150, "dateTime": 1509476699691, "trialdata": {"rt": -1, "stimulus": "<p id=\"stim\">6</p>", "key_press": -1, "trial_type": "single-stim", "trial_index": 150, "time_elapsed": 610684, "internal_node_id": "0.0-110.0-4.0"}}, {"uniqueid": "MTK0170:32Q90QCQ1TS5KK7ALY81041I67MKEC", "current_trial": 151, "dateTime": 1509476700695, "trialdata": {"rt": -1, "stimulus": "<p id=\"stim\">5</p>", "key_press": -1, "trial_type": "single-stim", "trial_index": 151, "time_elapsed": 611688, "internal_node_id": "0.0-110.0-5.0"}}, {"uniqueid": "MTK0170:32Q90QCQ1TS5KK7ALY81041I67MKEC", "current_trial": 152, "dateTime": 1509476701697, "trialdata": {"rt": -1, "stimulus": "<p id=\"stim\">4</p>", "key_press": -1, "trial_type": "single-stim", "trial_index": 152, "time_elapsed": 612690, "internal_node_id": "0.0-110.0-6.0"}}, {"uniqueid": "MTK0170:32Q90QCQ1TS5KK7ALY81041I67MKEC", "current_trial": 153, "dateTime": 1509476702699, "trialdata": {"rt": -1, "stimulus": "<p id=\"stim\">3</p>", "key_press": -1, "trial_type": "single-stim", "trial_index": 153, "time_elapsed": 613692, "internal_node_id": "0.0-110.0-7.0"}}, {"uniqueid": "MTK0170:32Q90QCQ1TS5KK7ALY81041I67MKEC", "current_trial": 154, "dateTime": 1509476703703, "trialdata": {"rt": -1, "stimulus": "<p id=\"stim\">2</p>", "key_press": -1, "trial_type": "single-stim", "trial_index": 154, "time_elapsed": 614696, "internal_node_id": "0.0-110.0-8.0"}}, {"uniqueid": "MTK0170:32Q90QCQ1TS5KK7ALY81041I67MKEC", "current_trial": 155, "dateTime": 1509476704705, "trialdata": {"rt": -1, "stimulus": "<p id=\"stim\">1</p>", "key_press": -1, "trial_type": "single-stim", "trial_index": 155, "time_elapsed": 615698, "internal_node_id": "0.0-110.0-9.0"}}, {"uniqueid": "MTK0170:32Q90QCQ1TS5KK7ALY81041I67MKEC", "current_trial": 156, "dateTime": 1509476706208, "trialdata": {"rt": -1, "stimulus": "<p id=\"stim\">+</p>", "key_press": -1, "type": "FIXATION", "trial_type": "single-stim", "trial_index": 156, "time_elapsed": 617201, "internal_node_id": "0.0-111.0-0.0"}}, {"uniqueid": "MTK0170:32Q90QCQ1TS5KK7ALY81041I67MKEC", "current_trial": 157, "dateTime": 1509476708726, "trialdata": {"rt": -1000, "stimulus": "/static/audio/wordpool/VALLEY.wav", "key_press": -1, "type": "PRES_AUD", "word": "valley", "wordID": 1544, "conditions": [12, 1600, "a", 12000], "trial": 4, "serialpos": 0, "trial_type": "single-audio", "trial_index": 157, "time_elapsed": 619719, "internal_node_id": "0.0-112.0"}}, {"uniqueid": "MTK0170:32Q90QCQ1TS5KK7ALY81041I67MKEC", "current_trial": 158, "dateTime": 1509476711419, "trialdata": {"rt": -1000, "stimulus": "/static/audio/wordpool/SCALPEL.wav", "key_press": -1, "type": "PRES_AUD", "word": "scalpel", "wordID": 1242, "conditions": [12, 1600, "a", 12000], "trial": 4, "serialpos": 1, "trial_type": "single-audio", "trial_index": 158, "time_elapsed": 622412, "internal_node_id": "0.0-113.0"}}, {"uniqueid": "MTK0170:32Q90QCQ1TS5KK7ALY81041I67MKEC", "current_trial": 159, "dateTime": 1509476714021, "trialdata": {"rt": -1000, "stimulus": "/static/audio/wordpool/ANTLER.wav", "key_press": -1, "type": "PRES_AUD", "word": "antler", "wordID": 28, "conditions": [12, 1600, "a", 12000], "trial": 4, "serialpos": 2, "trial_type": "single-audio", "trial_index": 159, "time_elapsed": 625014, "internal_node_id": "0.0-114.0"}}, {"uniqueid": "MTK0170:32Q90QCQ1TS5KK7ALY81041I67MKEC", "current_trial": 160, "dateTime": 1509476716783, "trialdata": {"rt": -1000, "stimulus": "/static/audio/wordpool/PEANUT.wav", "key_press": -1, "type": "PRES_AUD", "word": "peanut", "wordID": 1031, "conditions": [12, 1600, "a", 12000], "trial": 4, "serialpos": 3, "trial_type": "single-audio", "trial_index": 160, "time_elapsed": 627776, "internal_node_id": "0.0-115.0"}}, {"uniqueid": "MTK0170:32Q90QCQ1TS5KK7ALY81041I67MKEC", "current_trial": 161, "dateTime": 1509476719288, "trialdata": {"rt": -1000, "stimulus": "/static/audio/wordpool/ROD.wav", "key_press": -1, "type": "PRES_AUD", "word": "rod", "wordID": 1202, "conditions": [12, 1600, "a", 12000], "trial": 4, "serialpos": 4, "trial_type": "single-audio", "trial_index": 161, "time_elapsed": 630281, "internal_node_id": "0.0-116.0"}}, {"uniqueid": "MTK0170:32Q90QCQ1TS5KK7ALY81041I67MKEC", "current_trial": 162, "dateTime": 1509476721692, "trialdata": {"rt": 1347.9999999999563, "stimulus": "/static/audio/wordpool/SLIME.wav", "key_press": 112, "type": "PRES_AUD", "word": "slime", "wordID": 1326, "conditions": [12, 1600, "a", 12000], "trial": 4, "serialpos": 5, "trial_type": "single-audio", "trial_index": 162, "time_elapsed": 632684, "internal_node_id": "0.0-117.0"}}, {"uniqueid": "MTK0170:32Q90QCQ1TS5KK7ALY81041I67MKEC", "current_trial": 163, "dateTime": 1509476724458, "trialdata": {"rt": -1000, "stimulus": "/static/audio/wordpool/CANYON.wav", "key_press": -1, "type": "PRES_AUD", "word": "canyon", "wordID": 234, "conditions": [12, 1600, "a", 12000], "trial": 4, "serialpos": 6, "trial_type": "single-audio", "trial_index": 163, "time_elapsed": 635451, "internal_node_id": "0.0-118.0"}}, {"uniqueid": "MTK0170:32Q90QCQ1TS5KK7ALY81041I67MKEC", "current_trial": 164, "dateTime": 1509476727016, "trialdata": {"rt": -1000, "stimulus": "/static/audio/wordpool/SNAKE.wav", "key_press": -1, "type": "PRES_AUD", "word": "snake", "wordID": 1332, "conditions": [12, 1600, "a", 12000], "trial": 4, "serialpos": 7, "trial_type": "single-audio", "trial_index": 164, "time_elapsed": 638009, "internal_node_id": "0.0-119.0"}}, {"uniqueid": "MTK0170:32Q90QCQ1TS5KK7ALY81041I67MKEC", "current_trial": 165, "dateTime": 1509476729807, "trialdata": {"rt": -1000, "stimulus": "/static/audio/wordpool/ORCHID.wav", "key_press": -1, "type": "PRES_AUD", "word": "orchid", "wordID": 981, "conditions": [12, 1600, "a", 12000], "trial": 4, "serialpos": 8, "trial_type": "single-audio", "trial_index": 165, "time_elapsed": 640800, "internal_node_id": "0.0-120.0"}}, {"uniqueid": "MTK0170:32Q90QCQ1TS5KK7ALY81041I67MKEC", "current_trial": 166, "dateTime": 1509476732604, "trialdata": {"rt": -1000, "stimulus": "/static/audio/wordpool/PIZZA.wav", "key_press": -1, "type": "PRES_AUD", "word": "pizza", "wordID": 1078, "conditions": [12, 1600, "a", 12000], "trial": 4, "serialpos": 9, "trial_type": "single-audio", "trial_index": 166, "time_elapsed": 643597, "internal_node_id": "0.0-121.0"}}, {"uniqueid": "MTK0170:32Q90QCQ1TS5KK7ALY81041I67MKEC", "current_trial": 167, "dateTime": 1509476735403, "trialdata": {"rt": -1000, "stimulus": "/static/audio/wordpool/WASP.wav", "key_press": -1, "type": "PRES_AUD", "word": "wasp", "wordID": 1592, "conditions": [12, 1600, "a", 12000], "trial": 4, "serialpos": 10, "trial_type": "single-audio", "trial_index": 167, "time_elapsed": 646396, "internal_node_id": "0.0-122.0"}}, {"uniqueid": "MTK0170:32Q90QCQ1TS5KK7ALY81041I67MKEC", "current_trial": 168, "dateTime": 1509476738150, "trialdata": {"rt": -1000, "stimulus": "/static/audio/wordpool/HORNET.wav", "key_press": -1, "type": "PRES_AUD", "word": "hornet", "wordID": 717, "conditions": [12, 1600, "a", 12000], "trial": 4, "serialpos": 11, "trial_type": "single-audio", "trial_index": 168, "time_elapsed": 649143, "internal_node_id": "0.0-123.0"}}, {"uniqueid": "MTK0170:32Q90QCQ1TS5KK7ALY81041I67MKEC", "current_trial": 169, "dateTime": 1509476739433, "trialdata": {"rt": -1, "stimulus": "", "key_press": -1, "type": "PRE_RECALL_DELAY", "trial_type": "single-stim", "trial_index": 169, "time_elapsed": 650426, "internal_node_id": "0.0-124.0-0.0"}}, {"uniqueid": "MTK0170:32Q90QCQ1TS5KK7ALY81041I67MKEC", "current_trial": 170, "dateTime": 1509476739941, "trialdata": {"rt": -1000, "stimulus": "/static/audio/400Hz.wav", "key_press": -1, "type": "PRE_RECALL_ALERT", "trial_type": "single-audio", "trial_index": 170, "time_elapsed": 650934, "internal_node_id": "0.0-125.0"}}, {"uniqueid": "MTK0170:32Q90QCQ1TS5KK7ALY81041I67MKEC", "current_trial": 171, "dateTime": 1509476799950, "trialdata": {"rt": [1951, 3755, 5561, 6827, 8806, 10767, 13143, 21836, 23933], "recwords": ["wasp", "hornet", "pizza", "snake", "valley", "scalpel", "antler", "fox", "valley"], "type": "FREE_RECALL", "conditions": [12, 1600, "a", 12000], "trial": 4, "trial_type": "free-recall", "trial_index": 171, "time_elapsed": 710939, "internal_node_id": "0.0-126.0-0.0"}}, {"uniqueid": "MTK0170:32Q90QCQ1TS5KK7ALY81041I67MKEC", "current_trial": 172, "dateTime": 1509476804237, "trialdata": {"rt": 2280, "key_press": 13, "type": "INSTRUCTIONS", "trial_type": "text", "trial_index": 172, "time_elapsed": 715230, "internal_node_id": "0.0-127.0"}}, {"uniqueid": "MTK0170:32Q90QCQ1TS5KK7ALY81041I67MKEC", "current_trial": 173, "dateTime": 1509476830242, "trialdata": {"rt": [6603, 9258, 14626, 17763, 20329], "responses": ["22", "14", "17", "12", "10"], "num1": [7, 4, 8, 6, 3, 8], "num2": [9, 1, 2, 3, 4, 3], "num3": [6, 9, 7, 3, 3, 8], "type": "DISTRACTOR", "conditions": [12, 800, "v", 24000], "trial": 5, "trial_type": "math-distractor", "trial_index": 173, "time_elapsed": 741235, "internal_node_id": "0.0-128.0"}}, {"uniqueid": "MTK0170:32Q90QCQ1TS5KK7ALY81041I67MKEC", "current_trial": 174, "dateTime": 1509476833250, "trialdata": {"rt": -1, "stimulus": "<p id=\"stim\">10</p>", "key_press": -1, "trial_type": "single-stim", "trial_index": 174, "time_elapsed": 744243, "internal_node_id": "0.0-129.0-0.0"}}, {"uniqueid": "MTK0170:32Q90QCQ1TS5KK7ALY81041I67MKEC", "current_trial": 175, "dateTime": 1509476834253, "trialdata": {"rt": -1, "stimulus": "<p id=\"stim\">9</p>", "key_press": -1, "trial_type": "single-stim", "trial_index": 175, "time_elapsed": 745246, "internal_node_id": "0.0-129.0-1.0"}}, {"uniqueid": "MTK0170:32Q90QCQ1TS5KK7ALY81041I67MKEC", "current_trial": 176, "dateTime": 1509476835256, "trialdata": {"rt": -1, "stimulus": "<p id=\"stim\">8</p>", "key_press": -1, "trial_type": "single-stim", "trial_index": 176, "time_elapsed": 746249, "internal_node_id": "0.0-129.0-2.0"}}, {"uniqueid": "MTK0170:32Q90QCQ1TS5KK7ALY81041I67MKEC", "current_trial": 177, "dateTime": 1509476836261, "trialdata": {"rt": -1, "stimulus": "<p id=\"stim\">7</p>", "key_press": -1, "trial_type": "single-stim", "trial_index": 177, "time_elapsed": 747254, "internal_node_id": "0.0-129.0-3.0"}}, {"uniqueid": "MTK0170:32Q90QCQ1TS5KK7ALY81041I67MKEC", "current_trial": 178, "dateTime": 1509476837264, "trialdata": {"rt": -1, "stimulus": "<p id=\"stim\">6</p>", "key_press": -1, "trial_type": "single-stim", "trial_index": 178, "time_elapsed": 748257, "internal_node_id": "0.0-129.0-4.0"}}, {"uniqueid": "MTK0170:32Q90QCQ1TS5KK7ALY81041I67MKEC", "current_trial": 179, "dateTime": 1509476838266, "trialdata": {"rt": -1, "stimulus": "<p id=\"stim\">5</p>", "key_press": -1, "trial_type": "single-stim", "trial_index": 179, "time_elapsed": 749259, "internal_node_id": "0.0-129.0-5.0"}}, {"uniqueid": "MTK0170:32Q90QCQ1TS5KK7ALY81041I67MKEC", "current_trial": 180, "dateTime": 1509476839270, "trialdata": {"rt": -1, "stimulus": "<p id=\"stim\">4</p>", "key_press": -1, "trial_type": "single-stim", "trial_index": 180, "time_elapsed": 750263, "internal_node_id": "0.0-129.0-6.0"}}, {"uniqueid": "MTK0170:32Q90QCQ1TS5KK7ALY81041I67MKEC", "current_trial": 181, "dateTime": 1509476840273, "trialdata": {"rt": -1, "stimulus": "<p id=\"stim\">3</p>", "key_press": -1, "trial_type": "single-stim", "trial_index": 181, "time_elapsed": 751266, "internal_node_id": "0.0-129.0-7.0"}}, {"uniqueid": "MTK0170:32Q90QCQ1TS5KK7ALY81041I67MKEC", "current_trial": 182, "dateTime": 1509476841276, "trialdata": {"rt": -1, "stimulus": "<p id=\"stim\">2</p>", "key_press": -1, "trial_type": "single-stim", "trial_index": 182, "time_elapsed": 752269, "internal_node_id": "0.0-129.0-8.0"}}, {"uniqueid": "MTK0170:32Q90QCQ1TS5KK7ALY81041I67MKEC", "current_trial": 183, "dateTime": 1509476842280, "trialdata": {"rt": -1, "stimulus": "<p id=\"stim\">1</p>", "key_press": -1, "trial_type": "single-stim", "trial_index": 183, "time_elapsed": 753273, "internal_node_id": "0.0-129.0-9.0"}}, {"uniqueid": "MTK0170:32Q90QCQ1TS5KK7ALY81041I67MKEC", "current_trial": 184, "dateTime": 1509476843782, "trialdata": {"rt": -1, "stimulus": "<p id=\"stim\">+</p>", "key_press": -1, "type": "FIXATION", "trial_type": "single-stim", "trial_index": 184, "time_elapsed": 754775, "internal_node_id": "0.0-130.0-0.0"}}, {"uniqueid": "MTK0170:32Q90QCQ1TS5KK7ALY81041I67MKEC", "current_trial": 185, "dateTime": 1509476844587, "trialdata": {"rt": -1, "stimulus": "<p id=\"stim\">RATTLE</p>", "key_press": -1, "type": "PRES_VIS", "word": "rattle", "wordID": 1169, "conditions": [12, 800, "v", 24000], "trial": 5, "serialpos": 0, "trial_type": "single-stim", "trial_index": 185, "time_elapsed": 755580, "internal_node_id": "0.0-131.0"}}, {"uniqueid": "MTK0170:32Q90QCQ1TS5KK7ALY81041I67MKEC", "current_trial": 186, "dateTime": 1509476846259, "trialdata": {"rt": -1, "stimulus": "<p id=\"stim\">BADGE</p>", "key_press": -1, "type": "PRES_VIS", "word": "badge", "wordID": 67, "conditions": [12, 800, "v", 24000], "trial": 5, "serialpos": 1, "trial_type": "single-stim", "trial_index": 186, "time_elapsed": 757252, "internal_node_id": "0.0-132.0"}}, {"uniqueid": "MTK0170:32Q90QCQ1TS5KK7ALY81041I67MKEC", "current_trial": 187, "dateTime": 1509476847897, "trialdata": {"rt": -1, "stimulus": "<p id=\"stim\">MARROW</p>", "key_press": -1, "type": "PRES_VIS", "word": "marrow", "wordID": 871, "conditions": [12, 800, "v", 24000], "trial": 5, "serialpos": 2, "trial_type": "single-stim", "trial_index": 187, "time_elapsed": 758890, "internal_node_id": "0.0-133.0"}}, {"uniqueid": "MTK0170:32Q90QCQ1TS5KK7ALY81041I67MKEC", "current_trial": 188, "dateTime": 1509476849536, "trialdata": {"rt": -1, "stimulus": "<p id=\"stim\">PEBBLE</p>", "key_press": -1, "type": "PRES_VIS", "word": "pebble", "wordID": 1034, "conditions": [12, 800, "v", 24000], "trial": 5, "serialpos": 3, "trial_type": "single-stim", "trial_index": 188, "time_elapsed": 760529, "internal_node_id": "0.0-134.0"}}, {"uniqueid": "MTK0170:32Q90QCQ1TS5KK7ALY81041I67MKEC", "current_trial": 189, "dateTime": 1509476851304, "trialdata": {"rt": -1, "stimulus": "<p id=\"stim\">SALT</p>", "key_press": -1, "type": "PRES_VIS", "word": "salt", "wordID": 1228, "conditions": [12, 800, "v", 24000], "trial": 5, "serialpos": 4, "trial_type": "single-stim", "trial_index": 189, "time_elapsed": 762297, "internal_node_id": "0.0-135.0"}}, {"uniqueid": "MTK0170:32Q90QCQ1TS5KK7ALY81041I67MKEC", "current_trial": 190, "dateTime": 1509476853186, "trialdata": {"rt": -1, "stimulus": "<p id=\"stim\">GOBLIN</p>", "key_press": -1, "type": "PRES_VIS", "word": "goblin", "wordID": 644, "conditions": [12, 800, "v", 24000], "trial": 5, "serialpos": 5, "trial_type": "single-stim", "trial_index": 190, "time_elapsed": 764179, "internal_node_id": "0.0-136.0"}}, {"uniqueid": "MTK0170:32Q90QCQ1TS5KK7ALY81041I67MKEC", "current_trial": 191, "dateTime": 1509476854841, "trialdata": {"rt": -1, "stimulus": "<p id=\"stim\">DRAGON</p>", "key_press": -1, "type": "PRES_VIS", "word": "dragon", "wordID": 491, "conditions": [12, 800, "v", 24000], "trial": 5, "serialpos": 6, "trial_type": "single-stim", "trial_index": 191, "time_elapsed": 765834, "internal_node_id": "0.0-137.0"}}, {"uniqueid": "MTK0170:32Q90QCQ1TS5KK7ALY81041I67MKEC", "current_trial": 192, "dateTime": 1509476856592, "trialdata": {"rt": -1, "stimulus": "<p id=\"stim\">HOOD</p>", "key_press": -1, "type": "PRES_VIS", "word": "hood", "wordID": 713, "conditions": [12, 800, "v", 24000], "trial": 5, "serialpos": 7, "trial_type": "single-stim", "trial_index": 192, "time_elapsed": 767585, "internal_node_id": "0.0-138.0"}}, {"uniqueid": "MTK0170:32Q90QCQ1TS5KK7ALY81041I67MKEC", "current_trial": 193, "dateTime": 1509476858587, "trialdata": {"rt": -1, "stimulus": "<p id=\"stim\">JELLY</p>", "key_press": -1, "type": "PRES_VIS", "word": "jelly", "wordID": 754, "conditions": [12, 800, "v", 24000], "trial": 5, "serialpos": 8, "trial_type": "single-stim", "trial_index": 193, "time_elapsed": 769580, "internal_node_id": "0.0-139.0"}}, {"uniqueid": "MTK0170:32Q90QCQ1TS5KK7ALY81041I67MKEC", "current_trial": 194, "dateTime": 1509476860367, "trialdata": {"rt": -1, "stimulus": "<p id=\"stim\">KNIFE</p>", "key_press": -1, "type": "PRES_VIS", "word": "knife", "wordID": 784, "conditions": [12, 800, "v", 24000], "trial": 5, "serialpos": 9, "trial_type": "single-stim", "trial_index": 194, "time_elapsed": 771360, "internal_node_id": "0.0-140.0"}}, {"uniqueid": "MTK0170:32Q90QCQ1TS5KK7ALY81041I67MKEC", "current_trial": 195, "dateTime": 1509476862220, "trialdata": {"rt": -1, "stimulus": "<p id=\"stim\">STICKER</p>", "key_press": -1, "type": "PRES_VIS", "word": "sticker", "wordID": 1381, "conditions": [12, 800, "v", 24000], "trial": 5, "serialpos": 10, "trial_type": "single-stim", "trial_index": 195, "time_elapsed": 773213, "internal_node_id": "0.0-141.0"}}, {"uniqueid": "MTK0170:32Q90QCQ1TS5KK7ALY81041I67MKEC", "current_trial": 196, "dateTime": 1509476864097, "trialdata": {"rt": -1, "stimulus": "<p id=\"stim\">ROCKET</p>", "key_press": -1, "type": "PRES_VIS", "word": "rocket", "wordID": 1201, "conditions": [12, 800, "v", 24000], "trial": 5, "serialpos": 11, "trial_type": "single-stim", "trial_index": 196, "time_elapsed": 775090, "internal_node_id": "0.0-142.0"}}, {"uniqueid": "MTK0170:32Q90QCQ1TS5KK7ALY81041I67MKEC", "current_trial": 197, "dateTime": 1509476866220, "trialdata": {"rt": -1, "stimulus": "", "key_press": -1, "type": "PRE_RECALL_DELAY", "trial_type": "single-stim", "trial_index": 197, "time_elapsed": 777213, "internal_node_id": "0.0-143.0-0.0"}}, {"uniqueid": "MTK0170:32Q90QCQ1TS5KK7ALY81041I67MKEC", "current_trial": 198, "dateTime": 1509476866725, "trialdata": {"rt": -1000, "stimulus": "/static/audio/400Hz.wav", "key_press": -1, "type": "PRE_RECALL_ALERT", "trial_type": "single-audio", "trial_index": 198, "time_elapsed": 777717, "internal_node_id": "0.0-144.0"}}, {"uniqueid": "MTK0170:32Q90QCQ1TS5KK7ALY81041I67MKEC", "current_trial": 199, "dateTime": 1509476926743, "trialdata": {"rt": [2894, 5124, 6424, 8155, 10733, 12671, 14469, 16313, 22538], "recwords": ["goblin", "jelly", "hood", "sticker", "rocket", "marrow", "badge", "pebble", "valley"], "type": "FREE_RECALL", "conditions": [12, 800, "v", 24000], "trial": 5, "trial_type": "free-recall", "trial_index": 199, "time_elapsed": 837724, "internal_node_id": "0.0-145.0-0.0"}}, {"uniqueid": "MTK0170:32Q90QCQ1TS5KK7ALY81041I67MKEC", "current_trial": 200, "dateTime": 1509476939594, "trialdata": {"rt": 10843, "key_press": 13, "type": "INSTRUCTIONS", "trial_type": "text", "trial_index": 200, "time_elapsed": 850583, "internal_node_id": "0.0-146.0"}}, {"uniqueid": "MTK0170:32Q90QCQ1TS5KK7ALY81041I67MKEC", "current_trial": 201, "dateTime": 1509476953602, "trialdata": {"rt": [2325, 5097, 7962], "responses": ["21", "14", "16"], "num1": [3, 6, 6, 9], "num2": [9, 3, 2, 5], "num3": [9, 4, 8, 9], "type": "DISTRACTOR", "conditions": [24, 800, "v", 12000], "trial": 6, "trial_type": "math-distractor", "trial_index": 201, "time_elapsed": 864595, "internal_node_id": "0.0-147.0"}}, {"uniqueid": "MTK0170:32Q90QCQ1TS5KK7ALY81041I67MKEC", "current_trial": 202, "dateTime": 1509476956608, "trialdata": {"rt": -1, "stimulus": "<p id=\"stim\">10</p>", "key_press": -1, "trial_type": "single-stim", "trial_index": 202, "time_elapsed": 867601, "internal_node_id": "0.0-148.0-0.0"}}, {"uniqueid": "MTK0170:32Q90QCQ1TS5KK7ALY81041I67MKEC", "current_trial": 203, "dateTime": 1509476957612, "trialdata": {"rt": -1, "stimulus": "<p id=\"stim\">9</p>", "key_press": -1, "trial_type": "single-stim", "trial_index": 203, "time_elapsed": 868605, "internal_node_id": "0.0-148.0-1.0"}}, {"uniqueid": "MTK0170:32Q90QCQ1TS5KK7ALY81041I67MKEC", "current_trial": 204, "dateTime": 1509476958614, "trialdata": {"rt": -1, "stimulus": "<p id=\"stim\">8</p>", "key_press": -1, "trial_type": "single-stim", "trial_index": 204, "time_elapsed": 869607, "internal_node_id": "0.0-148.0-2.0"}}, {"uniqueid": "MTK0170:32Q90QCQ1TS5KK7ALY81041I67MKEC", "current_trial": 205, "dateTime": 1509476959616, "trialdata": {"rt": 766, "stimulus": "<p id=\"stim\">7</p>", "key_press": 255, "trial_type": "single-stim", "trial_index": 205, "time_elapsed": 870609, "internal_node_id": "0.0-148.0-3.0"}}, {"uniqueid": "MTK0170:32Q90QCQ1TS5KK7ALY81041I67MKEC", "current_trial": 206, "dateTime": 1509476960618, "trialdata": {"rt": 914, "stimulus": "<p id=\"stim\">6</p>", "key_press": 175, "trial_type": "single-stim", "trial_index": 206, "time_elapsed": 871611, "internal_node_id": "0.0-148.0-4.0"}}, {"uniqueid": "MTK0170:32Q90QCQ1TS5KK7ALY81041I67MKEC", "current_trial": 207, "dateTime": 1509476961621, "trialdata": {"rt": 240, "stimulus": "<p id=\"stim\">5</p>", "key_press": 175, "trial_type": "single-stim", "trial_index": 207, "time_elapsed": 872614, "internal_node_id": "0.0-148.0-5.0"}}, {"uniqueid": "MTK0170:32Q90QCQ1TS5KK7ALY81041I67MKEC", "current_trial": 208, "dateTime": 1509476962623, "trialdata": {"rt": 923, "stimulus": "<p id=\"stim\">4</p>", "key_press": 175, "trial_type": "single-stim", "trial_index": 208, "time_elapsed": 873616, "internal_node_id": "0.0-148.0-6.0"}}, {"uniqueid": "MTK0170:32Q90QCQ1TS5KK7ALY81041I67MKEC", "current_trial": 209, "dateTime": 1509476963628, "trialdata": {"rt": -1, "stimulus": "<p id=\"stim\">3</p>", "key_press": -1, "trial_type": "single-stim", "trial_index": 209, "time_elapsed": 874621, "internal_node_id": "0.0-148.0-7.0"}}, {"uniqueid": "MTK0170:32Q90QCQ1TS5KK7ALY81041I67MKEC", "current_trial": 210, "dateTime": 1509476964633, "trialdata": {"rt": -1, "stimulus": "<p id=\"stim\">2</p>", "key_press": -1, "trial_type": "single-stim", "trial_index": 210, "time_elapsed": 875626, "internal_node_id": "0.0-148.0-8.0"}}, {"uniqueid": "MTK0170:32Q90QCQ1TS5KK7ALY81041I67MKEC", "current_trial": 211, "dateTime": 1509476965636, "trialdata": {"rt": -1, "stimulus": "<p id=\"stim\">1</p>", "key_press": -1, "trial_type": "single-stim", "trial_index": 211, "time_elapsed": 876629, "internal_node_id": "0.0-148.0-9.0"}}, {"uniqueid": "MTK0170:32Q90QCQ1TS5KK7ALY81041I67MKEC", "current_trial": 212, "dateTime": 1509476967140, "trialdata": {"rt": -1, "stimulus": "<p id=\"stim\">+</p>", "key_press": -1, "type": "FIXATION", "trial_type": "single-stim", "trial_index": 212, "time_elapsed": 878133, "internal_node_id": "0.0-149.0-0.0"}}, {"uniqueid": "MTK0170:32Q90QCQ1TS5KK7ALY81041I67MKEC", "current_trial": 213, "dateTime": 1509476967942, "trialdata": {"rt": -1, "stimulus": "<p id=\"stim\">LUNCH</p>", "key_press": -1, "type": "PRES_VIS", "word": "lunch", "wordID": 848, "conditions": [24, 800, "v", 12000], "trial": 6, "serialpos": 0, "trial_type": "single-stim", "trial_index": 213, "time_elapsed": 878935, "internal_node_id": "0.0-150.0"}}, {"uniqueid": "MTK0170:32Q90QCQ1TS5KK7ALY81041I67MKEC", "current_trial": 214, "dateTime": 1509476969674, "trialdata": {"rt": -1, "stimulus": "<p id=\"stim\">DANDRUFF</p>", "key_press": -1, "type": "PRES_VIS", "word": "dandruff", "wordID": 438, "conditions": [24, 800, "v", 12000], "trial": 6, "serialpos": 1, "trial_type": "single-stim", "trial_index": 214, "time_elapsed": 880667, "internal_node_id": "0.0-151.0"}}, {"uniqueid": "MTK0170:32Q90QCQ1TS5KK7ALY81041I67MKEC", "current_trial": 215, "dateTime": 1509476971340, "trialdata": {"rt": -1, "stimulus": "<p id=\"stim\">DRUG</p>", "key_press": -1, "type": "PRES_VIS", "word": "drug", "wordID": 500, "conditions": [24, 800, "v", 12000], "trial": 6, "serialpos": 2, "trial_type": "single-stim", "trial_index": 215, "time_elapsed": 882333, "internal_node_id": "0.0-152.0"}}, {"uniqueid": "MTK0170:32Q90QCQ1TS5KK7ALY81041I67MKEC", "current_trial": 216, "dateTime": 1509476973216, "trialdata": {"rt": -1, "stimulus": "<p id=\"stim\">LEOPARD</p>", "key_press": -1, "type": "PRES_VIS", "word": "leopard", "wordID": 811, "conditions": [24, 800, "v", 12000], "trial": 6, "serialpos": 3, "trial_type": "single-stim", "trial_index": 216, "time_elapsed": 884209, "internal_node_id": "0.0-153.0"}}, {"uniqueid": "MTK0170:32Q90QCQ1TS5KK7ALY81041I67MKEC", "current_trial": 217, "dateTime": 1509476974868, "trialdata": {"rt": -1, "stimulus": "<p id=\"stim\">ZEBRA</p>", "key_press": -1, "type": "PRES_VIS", "word": "zebra", "wordID": 1634, "conditions": [24, 800, "v", 12000], "trial": 6, "serialpos": 4, "trial_type": "single-stim", "trial_index": 217, "time_elapsed": 885861, "internal_node_id": "0.0-154.0"}}, {"uniqueid": "MTK0170:32Q90QCQ1TS5KK7ALY81041I67MKEC", "current_trial": 218, "dateTime": 1509476976874, "trialdata": {"rt": -1, "stimulus": "<p id=\"stim\">WASHER</p>", "key_press": -1, "type": "PRES_VIS", "word": "washer", "wordID": 1591, "conditions": [24, 800, "v", 12000], "trial": 6, "serialpos": 5, "trial_type": "single-stim", "trial_index": 218, "time_elapsed": 887867, "internal_node_id": "0.0-155.0"}}, {"uniqueid": "MTK0170:32Q90QCQ1TS5KK7ALY81041I67MKEC", "current_trial": 219, "dateTime": 1509476978658, "trialdata": {"rt": -1, "stimulus": "<p id=\"stim\">FARMER</p>", "key_press": -1, "type": "PRES_VIS", "word": "farmer", "wordID": 552, "conditions": [24, 800, "v", 12000], "trial": 6, "serialpos": 6, "trial_type": "single-stim", "trial_index": 219, "time_elapsed": 889651, "internal_node_id": "0.0-156.0"}}, {"uniqueid": "MTK0170:32Q90QCQ1TS5KK7ALY81041I67MKEC", "current_trial": 220, "dateTime": 1509476980325, "trialdata": {"rt": -1, "stimulus": "<p id=\"stim\">ACTRESS</p>", "key_press": -1, "type": "PRES_VIS", "word": "actress", "wordID": 5, "conditions": [24, 800, "v", 12000], "trial": 6, "serialpos": 7, "trial_type": "single-stim", "trial_index": 220, "time_elapsed": 891318, "internal_node_id": "0.0-157.0"}}, {"uniqueid": "MTK0170:32Q90QCQ1TS5KK7ALY81041I67MKEC", "current_trial": 221, "dateTime": 1509476982250, "trialdata": {"rt": -1, "stimulus": "<p id=\"stim\">FRANCE</p>", "key_press": -1, "type": "PRES_VIS", "word": "france", "wordID": 600, "conditions": [24, 800, "v", 12000], "trial": 6, "serialpos": 8, "trial_type": "single-stim", "trial_index": 221, "time_elapsed": 893243, "internal_node_id": "0.0-158.0"}}, {"uniqueid": "MTK0170:32Q90QCQ1TS5KK7ALY81041I67MKEC", "current_trial": 222, "dateTime": 1509476984095, "trialdata": {"rt": -1, "stimulus": "<p id=\"stim\">CURTAIN</p>", "key_press": -1, "type": "PRES_VIS", "word": "curtain", "wordID": 426, "conditions": [24, 800, "v", 12000], "trial": 6, "serialpos": 9, "trial_type": "single-stim", "trial_index": 222, "time_elapsed": 895088, "internal_node_id": "0.0-159.0"}}, {"uniqueid": "MTK0170:32Q90QCQ1TS5KK7ALY81041I67MKEC", "current_trial": 223, "dateTime": 1509476985876, "trialdata": {"rt": -1, "stimulus": "<p id=\"stim\">SUPPER</p>", "key_press": -1, "type": "PRES_VIS", "word": "supper", "wordID": 1410, "conditions": [24, 800, "v", 12000], "trial": 6, "serialpos": 10, "trial_type": "single-stim", "trial_index": 223, "time_elapsed": 896869, "internal_node_id": "0.0-160.0"}}, {"uniqueid": "MTK0170:32Q90QCQ1TS5KK7ALY81041I67MKEC", "current_trial": 224, "dateTime": 1509476987878, "trialdata": {"rt": -1, "stimulus": "<p id=\"stim\">INMATE</p>", "key_press": -1, "type": "PRES_VIS", "word": "inmate", "wordID": 737, "conditions": [24, 800, "v", 12000], "trial": 6, "serialpos": 11, "trial_type": "single-stim", "trial_index": 224, "time_elapsed": 898871, "internal_node_id": "0.0-161.0"}}, {"uniqueid": "MTK0170:32Q90QCQ1TS5KK7ALY81041I67MKEC", "current_trial": 225, "dateTime": 1509476989562, "trialdata": {"rt": -1, "stimulus": "<p id=\"stim\">NAPKIN</p>", "key_press": -1, "type": "PRES_VIS", "word": "napkin", "wordID": 936, "conditions": [24, 800, "v", 12000], "trial": 6, "serialpos": 12, "trial_type": "single-stim", "trial_index": 225, "time_elapsed": 900555, "internal_node_id": "0.0-162.0"}}, {"uniqueid": "MTK0170:32Q90QCQ1TS5KK7ALY81041I67MKEC", "current_trial": 226, "dateTime": 1509476991487, "trialdata": {"rt": -1, "stimulus": "<p id=\"stim\">RELISH</p>", "key_press": -1, "type": "PRES_VIS", "word": "relish", "wordID": 1182, "conditions": [24, 800, "v", 12000], "trial": 6, "serialpos": 13, "trial_type": "single-stim", "trial_index": 226, "time_elapsed": 902480, "internal_node_id": "0.0-163.0"}}, {"uniqueid": "MTK0170:32Q90QCQ1TS5KK7ALY81041I67MKEC", "current_trial": 227, "dateTime": 1509476993196, "trialdata": {"rt": -1, "stimulus": "<p id=\"stim\">PIMPLE</p>", "key_press": -1, "type": "PRES_VIS", "word": "pimple", "wordID": 1070, "conditions": [24, 800, "v", 12000], "trial": 6, "serialpos": 14, "trial_type": "single-stim", "trial_index": 227, "time_elapsed": 904189, "internal_node_id": "0.0-164.0"}}, {"uniqueid": "MTK0170:32Q90QCQ1TS5KK7ALY81041I67MKEC", "current_trial": 228, "dateTime": 1509476995066, "trialdata": {"rt": -1, "stimulus": "<p id=\"stim\">LADY</p>", "key_press": -1, "type": "PRES_VIS", "word": "lady", "wordID": 793, "conditions": [24, 800, "v", 12000], "trial": 6, "serialpos": 15, "trial_type": "single-stim", "trial_index": 228, "time_elapsed": 906059, "internal_node_id": "0.0-165.0"}}, {"uniqueid": "MTK0170:32Q90QCQ1TS5KK7ALY81041I67MKEC", "current_trial": 229, "dateTime": 1509476996778, "trialdata": {"rt": -1, "stimulus": "<p id=\"stim\">LAKE</p>", "key_press": -1, "type": "PRES_VIS", "word": "lake", "wordID": 795, "conditions": [24, 800, "v", 12000], "trial": 6, "serialpos": 16, "trial_type": "single-stim", "trial_index": 229, "time_elapsed": 907771, "internal_node_id": "0.0-166.0"}}, {"uniqueid": "MTK0170:32Q90QCQ1TS5KK7ALY81041I67MKEC", "current_trial": 230, "dateTime": 1509476998612, "trialdata": {"rt": -1, "stimulus": "<p id=\"stim\">LAGOON</p>", "key_press": -1, "type": "PRES_VIS", "word": "lagoon", "wordID": 794, "conditions": [24, 800, "v", 12000], "trial": 6, "serialpos": 17, "trial_type": "single-stim", "trial_index": 230, "time_elapsed": 909605, "internal_node_id": "0.0-167.0"}}, {"uniqueid": "MTK0170:32Q90QCQ1TS5KK7ALY81041I67MKEC", "current_trial": 231, "dateTime": 1509477000597, "trialdata": {"rt": -1, "stimulus": "<p id=\"stim\">AIRPORT</p>", "key_press": -1, "type": "PRES_VIS", "word": "airport", "wordID": 12, "conditions": [24, 800, "v", 12000], "trial": 6, "serialpos": 18, "trial_type": "single-stim", "trial_index": 231, "time_elapsed": 911590, "internal_node_id": "0.0-168.0"}}, {"uniqueid": "MTK0170:32Q90QCQ1TS5KK7ALY81041I67MKEC", "current_trial": 232, "dateTime": 1509477002292, "trialdata": {"rt": -1, "stimulus": "<p id=\"stim\">ACTOR</p>", "key_press": -1, "type": "PRES_VIS", "word": "actor", "wordID": 4, "conditions": [24, 800, "v", 12000], "trial": 6, "serialpos": 19, "trial_type": "single-stim", "trial_index": 232, "time_elapsed": 913285, "internal_node_id": "0.0-169.0"}}, {"uniqueid": "MTK0170:32Q90QCQ1TS5KK7ALY81041I67MKEC", "current_trial": 233, "dateTime": 1509477004018, "trialdata": {"rt": -1, "stimulus": "<p id=\"stim\">PRINCESS</p>", "key_press": -1, "type": "PRES_VIS", "word": "princess", "wordID": 1124, "conditions": [24, 800, "v", 12000], "trial": 6, "serialpos": 20, "trial_type": "single-stim", "trial_index": 233, "time_elapsed": 915011, "internal_node_id": "0.0-170.0"}}, {"uniqueid": "MTK0170:32Q90QCQ1TS5KK7ALY81041I67MKEC", "current_trial": 234, "dateTime": 1509477005852, "trialdata": {"rt": -1, "stimulus": "<p id=\"stim\">FRECKLE</p>", "key_press": -1, "type": "PRES_VIS", "word": "freckle", "wordID": 601, "conditions": [24, 800, "v", 12000], "trial": 6, "serialpos": 21, "trial_type": "single-stim", "trial_index": 234, "time_elapsed": 916845, "internal_node_id": "0.0-171.0"}}, {"uniqueid": "MTK0170:32Q90QCQ1TS5KK7ALY81041I67MKEC", "current_trial": 235, "dateTime": 1509477007633, "trialdata": {"rt": -1, "stimulus": "<p id=\"stim\">STAR</p>", "key_press": -1, "type": "PRES_VIS", "word": "star", "wordID": 1372, "conditions": [24, 800, "v", 12000], "trial": 6, "serialpos": 22, "trial_type": "single-stim", "trial_index": 235, "time_elapsed": 918626, "internal_node_id": "0.0-172.0"}}, {"uniqueid": "MTK0170:32Q90QCQ1TS5KK7ALY81041I67MKEC", "current_trial": 236, "dateTime": 1509477009600, "trialdata": {"rt": -1, "stimulus": "<p id=\"stim\">BEAST</p>", "key_press": -1, "type": "PRES_VIS", "word": "beast", "wordID": 107, "conditions": [24, 800, "v", 12000], "trial": 6, "serialpos": 23, "trial_type": "single-stim", "trial_index": 236, "time_elapsed": 920593, "internal_node_id": "0.0-173.0"}}, {"uniqueid": "MTK0170:32Q90QCQ1TS5KK7ALY81041I67MKEC", "current_trial": 237, "dateTime": 1509477011884, "trialdata": {"rt": -1, "stimulus": "", "key_press": -1, "type": "PRE_RECALL_DELAY", "trial_type": "single-stim", "trial_index": 237, "time_elapsed": 922877, "internal_node_id": "0.0-174.0-0.0"}}, {"uniqueid": "MTK0170:32Q90QCQ1TS5KK7ALY81041I67MKEC", "current_trial": 238, "dateTime": 1509477012392, "trialdata": {"rt": -1000, "stimulus": "/static/audio/400Hz.wav", "key_press": -1, "type": "PRE_RECALL_ALERT", "trial_type": "single-audio", "trial_index": 238, "time_elapsed": 923384, "internal_node_id": "0.0-175.0"}}, {"uniqueid": "MTK0170:32Q90QCQ1TS5KK7ALY81041I67MKEC", "current_trial": 239, "dateTime": 1509477072401, "trialdata": {"rt": [4422, 5958, 7863, 9116, 10848, 13322, 15263, 17522, 20002, 22217, 25454], "recwords": ["lagoon", "actor", "actress", "star", "farmer", "dandruff", "drugs", "lunch", "zebra", "cartoon", "doll"], "type": "FREE_RECALL", "conditions": [24, 800, "v", 12000], "trial": 6, "trial_type": "free-recall", "trial_index": 239, "time_elapsed": 983390, "internal_node_id": "0.0-176.0-0.0"}}, {"uniqueid": "MTK0170:32Q90QCQ1TS5KK7ALY81041I67MKEC", "current_trial": 240, "dateTime": 1509477076024, "trialdata": {"rt": 1618, "key_press": 13, "type": "INSTRUCTIONS", "trial_type": "text", "trial_index": 240, "time_elapsed": 987017, "internal_node_id": "0.0-177.0"}}, {"uniqueid": "MTK0170:32Q90QCQ1TS5KK7ALY81041I67MKEC", "current_trial": 241, "dateTime": 1509477102030, "trialdata": {"rt": [2725, 6708, 8427, 12063, 14298, 22241], "responses": ["9", "16", "6", "17", "11", "245"], "num1": [5, 6, 2, 9, 2, 7, 9], "num2": [3, 4, 2, 5, 6, 8, 5], "num3": [1, 6, 2, 3, 3, 9, 5], "type": "DISTRACTOR", "conditions": [24, 1600, "v", 24000], "trial": 7, "trial_type": "math-distractor", "trial_index": 241, "time_elapsed": 1013023, "internal_node_id": "0.0-178.0"}}, {"uniqueid": "MTK0170:32Q90QCQ1TS5KK7ALY81041I67MKEC", "current_trial": 242, "dateTime": 1509477105035, "trialdata": {"rt": -1, "stimulus": "<p id=\"stim\">10</p>", "key_press": -1, "trial_type": "single-stim", "trial_index": 242, "time_elapsed": 1016028, "internal_node_id": "0.0-179.0-0.0"}}, {"uniqueid": "MTK0170:32Q90QCQ1TS5KK7ALY81041I67MKEC", "current_trial": 243, "dateTime": 1509477106039, "trialdata": {"rt": -1, "stimulus": "<p id=\"stim\">9</p>", "key_press": -1, "trial_type": "single-stim", "trial_index": 243, "time_elapsed": 1017032, "internal_node_id": "0.0-179.0-1.0"}}, {"uniqueid": "MTK0170:32Q90QCQ1TS5KK7ALY81041I67MKEC", "current_trial": 244, "dateTime": 1509477107042, "trialdata": {"rt": -1, "stimulus": "<p id=\"stim\">8</p>", "key_press": -1, "trial_type": "single-stim", "trial_index": 244, "time_elapsed": 1018035, "internal_node_id": "0.0-179.0-2.0"}}, {"uniqueid": "MTK0170:32Q90QCQ1TS5KK7ALY81041I67MKEC", "current_trial": 245, "dateTime": 1509477108046, "trialdata": {"rt": -1, "stimulus": "<p id=\"stim\">7</p>", "key_press": -1, "trial_type": "single-stim", "trial_index": 245, "time_elapsed": 1019039, "internal_node_id": "0.0-179.0-3.0"}}, {"uniqueid": "MTK0170:32Q90QCQ1TS5KK7ALY81041I67MKEC", "current_trial": 246, "dateTime": 1509477109052, "trialdata": {"rt": -1, "stimulus": "<p id=\"stim\">6</p>", "key_press": -1, "trial_type": "single-stim", "trial_index": 246, "time_elapsed": 1020045, "internal_node_id": "0.0-179.0-4.0"}}, {"uniqueid": "MTK0170:32Q90QCQ1TS5KK7ALY81041I67MKEC", "current_trial": 247, "dateTime": 1509477110058, "trialdata": {"rt": -1, "stimulus": "<p id=\"stim\">5</p>", "key_press": -1, "trial_type": "single-stim", "trial_index": 247, "time_elapsed": 1021051, "internal_node_id": "0.0-179.0-5.0"}}, {"uniqueid": "MTK0170:32Q90QCQ1TS5KK7ALY81041I67MKEC", "current_trial": 248, "dateTime": 1509477111062, "trialdata": {"rt": -1, "stimulus": "<p id=\"stim\">4</p>", "key_press": -1, "trial_type": "single-stim", "trial_index": 248, "time_elapsed": 1022055, "internal_node_id": "0.0-179.0-6.0"}}, {"uniqueid": "MTK0170:32Q90QCQ1TS5KK7ALY81041I67MKEC", "current_trial": 249, "dateTime": 1509477112066, "trialdata": {"rt": -1, "stimulus": "<p id=\"stim\">3</p>", "key_press": -1, "trial_type": "single-stim", "trial_index": 249, "time_elapsed": 1023059, "internal_node_id": "0.0-179.0-7.0"}}, {"uniqueid": "MTK0170:32Q90QCQ1TS5KK7ALY81041I67MKEC", "current_trial": 250, "dateTime": 1509477113068, "trialdata": {"rt": -1, "stimulus": "<p id=\"stim\">2</p>", "key_press": -1, "trial_type": "single-stim", "trial_index": 250, "time_elapsed": 1024061, "internal_node_id": "0.0-179.0-8.0"}}, {"uniqueid": "MTK0170:32Q90QCQ1TS5KK7ALY81041I67MKEC", "current_trial": 251, "dateTime": 1509477114073, "trialdata": {"rt": -1, "stimulus": "<p id=\"stim\">1</p>", "key_press": -1, "trial_type": "single-stim", "trial_index": 251, "time_elapsed": 1025066, "internal_node_id": "0.0-179.0-9.0"}}, {"uniqueid": "MTK0170:32Q90QCQ1TS5KK7ALY81041I67MKEC", "current_trial": 252, "dateTime": 1509477115575, "trialdata": {"rt": -1, "stimulus": "<p id=\"stim\">+</p>", "key_press": -1, "type": "FIXATION", "trial_type": "single-stim", "trial_index": 252, "time_elapsed": 1026568, "internal_node_id": "0.0-180.0-0.0"}}, {"uniqueid": "MTK0170:32Q90QCQ1TS5KK7ALY81041I67MKEC", "current_trial": 253, "dateTime": 1509477117180, "trialdata": {"rt": -1, "stimulus": "<p id=\"stim\">PICTURE</p>", "key_press": -1, "type": "PRES_VIS", "word": "picture", "wordID": 1060, "conditions": [24, 1600, "v", 24000], "trial": 7, "serialpos": 0, "trial_type": "single-stim", "trial_index": 253, "time_elapsed": 1028173, "internal_node_id": "0.0-181.0"}}, {"uniqueid": "MTK0170:32Q90QCQ1TS5KK7ALY81041I67MKEC", "current_trial": 254, "dateTime": 1509477119622, "trialdata": {"rt": -1, "stimulus": "<p id=\"stim\">PARROT</p>", "key_press": -1, "type": "PRES_VIS", "word": "parrot", "wordID": 1014, "conditions": [24, 1600, "v", 24000], "trial": 7, "serialpos": 1, "trial_type": "single-stim", "trial_index": 254, "time_elapsed": 1030615, "internal_node_id": "0.0-182.0"}}, {"uniqueid": "MTK0170:32Q90QCQ1TS5KK7ALY81041I67MKEC", "current_trial": 255, "dateTime": 1509477122288, "trialdata": {"rt": -1, "stimulus": "<p id=\"stim\">WAGON</p>", "key_press": -1, "type": "PRES_VIS", "word": "wagon", "wordID": 1577, "conditions": [24, 1600, "v", 24000], "trial": 7, "serialpos": 2, "trial_type": "single-stim", "trial_index": 255, "time_elapsed": 1033281, "internal_node_id": "0.0-183.0"}}, {"uniqueid": "MTK0170:32Q90QCQ1TS5KK7ALY81041I67MKEC", "current_trial": 256, "dateTime": 1509477124804, "trialdata": {"rt": -1, "stimulus": "<p id=\"stim\">WIFE</p>", "key_press": -1, "type": "PRES_VIS", "word": "wife", "wordID": 1608, "conditions": [24, 1600, "v", 24000], "trial": 7, "serialpos": 3, "trial_type": "single-stim", "trial_index": 256, "time_elapsed": 1035797, "internal_node_id": "0.0-184.0"}}, {"uniqueid": "MTK0170:32Q90QCQ1TS5KK7ALY81041I67MKEC", "current_trial": 257, "dateTime": 1509477127428, "trialdata": {"rt": -1, "stimulus": "<p id=\"stim\">HUSBAND</p>", "key_press": -1, "type": "PRES_VIS", "word": "husband", "wordID": 727, "conditions": [24, 1600, "v", 24000], "trial": 7, "serialpos": 4, "trial_type": "single-stim", "trial_index": 257, "time_elapsed": 1038421, "internal_node_id": "0.0-185.0"}}, {"uniqueid": "MTK0170:32Q90QCQ1TS5KK7ALY81041I67MKEC", "current_trial": 258, "dateTime": 1509477130183, "trialdata": {"rt": -1, "stimulus": "<p id=\"stim\">PORTRAIT</p>", "key_press": -1, "type": "PRES_VIS", "word": "portrait", "wordID": 1110, "conditions": [24, 1600, "v", 24000], "trial": 7, "serialpos": 5, "trial_type": "single-stim", "trial_index": 258, "time_elapsed": 1041176, "internal_node_id": "0.0-186.0"}}, {"uniqueid": "MTK0170:32Q90QCQ1TS5KK7ALY81041I67MKEC", "current_trial": 259, "dateTime": 1509477132615, "trialdata": {"rt": -1, "stimulus": "<p id=\"stim\">SPOOL</p>", "key_press": -1, "type": "PRES_VIS", "word": "spool", "wordID": 1355, "conditions": [24, 1600, "v", 24000], "trial": 7, "serialpos": 6, "trial_type": "single-stim", "trial_index": 259, "time_elapsed": 1043608, "internal_node_id": "0.0-187.0"}}, {"uniqueid": "MTK0170:32Q90QCQ1TS5KK7ALY81041I67MKEC", "current_trial": 260, "dateTime": 1509477135067, "trialdata": {"rt": -1, "stimulus": "<p id=\"stim\">SWITCH</p>", "key_press": -1, "type": "PRES_VIS", "word": "switch", "wordID": 1421, "conditions": [24, 1600, "v", 24000], "trial": 7, "serialpos": 7, "trial_type": "single-stim", "trial_index": 260, "time_elapsed": 1046060, "internal_node_id": "0.0-188.0"}}, {"uniqueid": "MTK0170:32Q90QCQ1TS5KK7ALY81041I67MKEC", "current_trial": 261, "dateTime": 1509477137773, "trialdata": {"rt": -1, "stimulus": "<p id=\"stim\">BLENDER</p>", "key_press": -1, "type": "PRES_VIS", "word": "blender", "wordID": 135, "conditions": [24, 1600, "v", 24000], "trial": 7, "serialpos": 8, "trial_type": "single-stim", "trial_index": 261, "time_elapsed": 1048766, "internal_node_id": "0.0-189.0"}}, {"uniqueid": "MTK0170:32Q90QCQ1TS5KK7ALY81041I67MKEC", "current_trial": 262, "dateTime": 1509477140323, "trialdata": {"rt": -1, "stimulus": "<p id=\"stim\">CRIB</p>", "key_press": -1, "type": "PRES_VIS", "word": "crib", "wordID": 406, "conditions": [24, 1600, "v", 24000], "trial": 7, "serialpos": 9, "trial_type": "single-stim", "trial_index": 262, "time_elapsed": 1051316, "internal_node_id": "0.0-190.0"}}, {"uniqueid": "MTK0170:32Q90QCQ1TS5KK7ALY81041I67MKEC", "current_trial": 263, "dateTime": 1509477142735, "trialdata": {"rt": -1, "stimulus": "<p id=\"stim\">XEROX</p>", "key_press": -1, "type": "PRES_VIS", "word": "xerox", "wordID": 1627, "conditions": [24, 1600, "v", 24000], "trial": 7, "serialpos": 10, "trial_type": "single-stim", "trial_index": 263, "time_elapsed": 1053728, "internal_node_id": "0.0-191.0"}}, {"uniqueid": "MTK0170:32Q90QCQ1TS5KK7ALY81041I67MKEC", "current_trial": 264, "dateTime": 1509477145399, "trialdata": {"rt": -1, "stimulus": "<p id=\"stim\">SHIRT</p>", "key_press": -1, "type": "PRES_VIS", "word": "shirt", "wordID": 1286, "conditions": [24, 1600, "v", 24000], "trial": 7, "serialpos": 11, "trial_type": "single-stim", "trial_index": 264, "time_elapsed": 1056392, "internal_node_id": "0.0-192.0"}}, {"uniqueid": "MTK0170:32Q90QCQ1TS5KK7ALY81041I67MKEC", "current_trial": 265, "dateTime": 1509477148158, "trialdata": {"rt": -1, "stimulus": "<p id=\"stim\">CASHIER</p>", "key_press": -1, "type": "PRES_VIS", "word": "cashier", "wordID": 253, "conditions": [24, 1600, "v", 24000], "trial": 7, "serialpos": 12, "trial_type": "single-stim", "trial_index": 265, "time_elapsed": 1059151, "internal_node_id": "0.0-193.0"}}, {"uniqueid": "MTK0170:32Q90QCQ1TS5KK7ALY81041I67MKEC", "current_trial": 266, "dateTime": 1509477150816, "trialdata": {"rt": -1, "stimulus": "<p id=\"stim\">NECKLACE</p>", "key_press": -1, "type": "PRES_VIS", "word": "necklace", "wordID": 939, "conditions": [24, 1600, "v", 24000], "trial": 7, "serialpos": 13, "trial_type": "single-stim", "trial_index": 266, "time_elapsed": 1061809, "internal_node_id": "0.0-194.0"}}, {"uniqueid": "MTK0170:32Q90QCQ1TS5KK7ALY81041I67MKEC", "current_trial": 267, "dateTime": 1509477153264, "trialdata": {"rt": -1, "stimulus": "<p id=\"stim\">ATLAS</p>", "key_press": -1, "type": "PRES_VIS", "word": "atlas", "wordID": 52, "conditions": [24, 1600, "v", 24000], "trial": 7, "serialpos": 14, "trial_type": "single-stim", "trial_index": 267, "time_elapsed": 1064257, "internal_node_id": "0.0-195.0"}}, {"uniqueid": "MTK0170:32Q90QCQ1TS5KK7ALY81041I67MKEC", "current_trial": 268, "dateTime": 1509477155858, "trialdata": {"rt": -1, "stimulus": "<p id=\"stim\">SCRIBBLE</p>", "key_press": -1, "type": "PRES_VIS", "word": "scribble", "wordID": 1255, "conditions": [24, 1600, "v", 24000], "trial": 7, "serialpos": 15, "trial_type": "single-stim", "trial_index": 268, "time_elapsed": 1066851, "internal_node_id": "0.0-196.0"}}, {"uniqueid": "MTK0170:32Q90QCQ1TS5KK7ALY81041I67MKEC", "current_trial": 269, "dateTime": 1509477158325, "trialdata": {"rt": -1, "stimulus": "<p id=\"stim\">WAITRESS</p>", "key_press": -1, "type": "PRES_VIS", "word": "waitress", "wordID": 1580, "conditions": [24, 1600, "v", 24000], "trial": 7, "serialpos": 16, "trial_type": "single-stim", "trial_index": 269, "time_elapsed": 1069318, "internal_node_id": "0.0-197.0"}}, {"uniqueid": "MTK0170:32Q90QCQ1TS5KK7ALY81041I67MKEC", "current_trial": 270, "dateTime": 1509477160789, "trialdata": {"rt": -1, "stimulus": "<p id=\"stim\">GLOVE</p>", "key_press": -1, "type": "PRES_VIS", "word": "glove", "wordID": 641, "conditions": [24, 1600, "v", 24000], "trial": 7, "serialpos": 17, "trial_type": "single-stim", "trial_index": 270, "time_elapsed": 1071782, "internal_node_id": "0.0-198.0"}}, {"uniqueid": "MTK0170:32Q90QCQ1TS5KK7ALY81041I67MKEC", "current_trial": 271, "dateTime": 1509477163391, "trialdata": {"rt": -1, "stimulus": "<p id=\"stim\">CHILD</p>", "key_press": -1, "type": "PRES_VIS", "word": "child", "wordID": 298, "conditions": [24, 1600, "v", 24000], "trial": 7, "serialpos": 18, "trial_type": "single-stim", "trial_index": 271, "time_elapsed": 1074384, "internal_node_id": "0.0-199.0"}}, {"uniqueid": "MTK0170:32Q90QCQ1TS5KK7ALY81041I67MKEC", "current_trial": 272, "dateTime": 1509477166125, "trialdata": {"rt": -1, "stimulus": "<p id=\"stim\">LAVA</p>", "key_press": -1, "type": "PRES_VIS", "word": "lava", "wordID": 803, "conditions": [24, 1600, "v", 24000], "trial": 7, "serialpos": 19, "trial_type": "single-stim", "