{"condition": 0, "counterbalance": 172, "assignmentId": "3KXIR214I5NSB26R7MQKRM3XEXN24F", "workerId": "MTK0372", "hitId": "3Z56AA6EK47UA9G4AQXHE95P26H6M3", "currenttrial": 626, "bonus": 0, "data": [{"uniqueid": "MTK0372:3KXIR214I5NSB26R7MQKRM3XEXN24F", "current_trial": 0, "dateTime": 1510779045283, "trialdata": {"rt": 14060, "key_press": 68, "type": "INSTRUCTIONS", "trial_type": "text", "trial_index": 0, "time_elapsed": 14061, "internal_node_id": "0.0-0.0"}}, {"uniqueid": "MTK0372:3KXIR214I5NSB26R7MQKRM3XEXN24F", "current_trial": 1, "dateTime": 1510779086832, "trialdata": {"rt": 41545, "key_press": 68, "type": "INSTRUCTIONS", "trial_type": "text", "trial_index": 1, "time_elapsed": 55610, "internal_node_id": "0.0-1.0"}}, {"uniqueid": "MTK0372:3KXIR214I5NSB26R7MQKRM3XEXN24F", "current_trial": 2, "dateTime": 1510779093286, "trialdata": {"rt": [6445], "responses": ["ocean"], "type": "AUDIO_TEST", "trial_type": "audio-test", "trial_index": 2, "time_elapsed": 62064, "internal_node_id": "0.0-2.0"}}, {"uniqueid": "MTK0372:3KXIR214I5NSB26R7MQKRM3XEXN24F", "current_trial": 3, "dateTime": 1510779097901, "trialdata": {"rt": [4608], "responses": ["crystal"], "type": "AUDIO_TEST", "trial_type": "audio-test", "trial_index": 3, "time_elapsed": 66678, "internal_node_id": "0.0-3.0"}}, {"uniqueid": "MTK0372:3KXIR214I5NSB26R7MQKRM3XEXN24F", "current_trial": 4, "dateTime": 1510779101637, "trialdata": {"rt": [3732], "responses": ["spice"], "type": "AUDIO_TEST", "trial_type": "audio-test", "trial_index": 4, "time_elapsed": 70415, "internal_node_id": "0.0-4.0"}}, {"uniqueid": "MTK0372:3KXIR214I5NSB26R7MQKRM3XEXN24F", "current_trial": 5, "dateTime": 1510779114277, "trialdata": {"rt": 11887, "responses": "{\"Q0\":\"4:00 am est\",\"Q1\":\"11:30 am est\",\"Q2\":\"4\"}", "type": "SLEEP_SURVEY", "trial_type": "survey-text", "trial_index": 5, "time_elapsed": 83055, "internal_node_id": "0.0-5.0"}}, {"uniqueid": "MTK0372:3KXIR214I5NSB26R7MQKRM3XEXN24F", "current_trial": 6, "dateTime": 1510779132614, "trialdata": {"rt": 17335, "key_press": 68, "type": "INSTRUCTIONS", "trial_type": "text", "trial_index": 6, "time_elapsed": 101392, "internal_node_id": "0.0-6.0"}}, {"uniqueid": "MTK0372:3KXIR214I5NSB26R7MQKRM3XEXN24F", "current_trial": 7, "dateTime": 1510779142063, "trialdata": {"rt": 8948, "key_press": 68, "type": "INSTRUCTIONS", "trial_type": "text", "trial_index": 7, "time_elapsed": 110841, "internal_node_id": "0.0-7.0"}}, {"uniqueid": "MTK0372:3KXIR214I5NSB26R7MQKRM3XEXN24F", "current_trial": 8, "dateTime": 1510779145234, "trialdata": {"rt": 2669, "key_press": 68, "type": "INSTRUCTIONS", "trial_type": "text", "trial_index": 8, "time_elapsed": 114012, "internal_node_id": "0.0-8.0"}}, {"uniqueid": "MTK0372:3KXIR214I5NSB26R7MQKRM3XEXN24F", "current_trial": 9, "dateTime": 1510779164243, "trialdata": {"rt": [1778, 4520, 5942, 7171, 9004, 10736, 12395, 15813, 17223], "responses": ["11", "12", "11", "11", "10", "19", "24", "23", "25"], "num1": [6, 8, 3, 4, 7, 8, 9, 9, 9, 5], "num2": [2, 3, 2, 2, 1, 9, 6, 6, 9, 8], "num3": [3, 1, 6, 5, 2, 2, 9, 8, 7, 4], "type": "DISTRACTOR", "conditions": [18, 1200, "v", 18000], "trial": 0, "trial_type": "math-distractor", "trial_index": 9, "time_elapsed": 133021, "internal_node_id": "0.0-9.0"}}, {"uniqueid": "MTK0372:3KXIR214I5NSB26R7MQKRM3XEXN24F", "current_trial": 10, "dateTime": 1510779167245, "trialdata": {"rt": -1, "stimulus": "<p id=\"stim\">10</p>", "key_press": -1, "trial_type": "single-stim", "trial_index": 10, "time_elapsed": 136023, "internal_node_id": "0.0-10.0-0.0"}}, {"uniqueid": "MTK0372:3KXIR214I5NSB26R7MQKRM3XEXN24F", "current_trial": 11, "dateTime": 1510779168246, "trialdata": {"rt": -1, "stimulus": "<p id=\"stim\">9</p>", "key_press": -1, "trial_type": "single-stim", "trial_index": 11, "time_elapsed": 137024, "internal_node_id": "0.0-10.0-1.0"}}, {"uniqueid": "MTK0372:3KXIR214I5NSB26R7MQKRM3XEXN24F", "current_trial": 12, "dateTime": 1510779169247, "trialdata": {"rt": 695, "stimulus": "<p id=\"stim\">8</p>", "key_press": 49, "trial_type": "single-stim", "trial_index": 12, "time_elapsed": 138025, "internal_node_id": "0.0-10.0-2.0"}}, {"uniqueid": "MTK0372:3KXIR214I5NSB26R7MQKRM3XEXN24F", "current_trial": 13, "dateTime": 1510779170248, "trialdata": {"rt": 201, "stimulus": "<p id=\"stim\">7</p>", "key_press": 13, "trial_type": "single-stim", "trial_index": 13, "time_elapsed": 139026, "internal_node_id": "0.0-10.0-3.0"}}, {"uniqueid": "MTK0372:3KXIR214I5NSB26R7MQKRM3XEXN24F", "current_trial": 14, "dateTime": 1510779171249, "trialdata": {"rt": -1, "stimulus": "<p id=\"stim\">6</p>", "key_press": -1, "trial_type": "single-stim", "trial_index": 14, "time_elapsed": 140027, "internal_node_id": "0.0-10.0-4.0"}}, {"uniqueid": "MTK0372:3KXIR214I5NSB26R7MQKRM3XEXN24F", "current_trial": 15, "dateTime": 1510779172250, "trialdata": {"rt": -1, "stimulus": "<p id=\"stim\">5</p>", "key_press": -1, "trial_type": "single-stim", "trial_index": 15, "time_elapsed": 141028, "internal_node_id": "0.0-10.0-5.0"}}, {"uniqueid": "MTK0372:3KXIR214I5NSB26R7MQKRM3XEXN24F", "current_trial": 16, "dateTime": 1510779173252, "trialdata": {"rt": -1, "stimulus": "<p id=\"stim\">4</p>", "key_press": -1, "trial_type": "single-stim", "trial_index": 16, "time_elapsed": 142030, "internal_node_id": "0.0-10.0-6.0"}}, {"uniqueid": "MTK0372:3KXIR214I5NSB26R7MQKRM3XEXN24F", "current_trial": 17, "dateTime": 1510779174253, "trialdata": {"rt": -1, "stimulus": "<p id=\"stim\">3</p>", "key_press": -1, "trial_type": "single-stim", "trial_index": 17, "time_elapsed": 143031, "internal_node_id": "0.0-10.0-7.0"}}, {"uniqueid": "MTK0372:3KXIR214I5NSB26R7MQKRM3XEXN24F", "current_trial": 18, "dateTime": 1510779175255, "trialdata": {"rt": -1, "stimulus": "<p id=\"stim\">2</p>", "key_press": -1, "trial_type": "single-stim", "trial_index": 18, "time_elapsed": 144033, "internal_node_id": "0.0-10.0-8.0"}}, {"uniqueid": "MTK0372:3KXIR214I5NSB26R7MQKRM3XEXN24F", "current_trial": 19, "dateTime": 1510779176257, "trialdata": {"rt": -1, "stimulus": "<p id=\"stim\">1</p>", "key_press": -1, "trial_type": "single-stim", "trial_index": 19, "time_elapsed": 145035, "internal_node_id": "0.0-10.0-9.0"}}, {"uniqueid": "MTK0372:3KXIR214I5NSB26R7MQKRM3XEXN24F", "current_trial": 20, "dateTime": 1510779177759, "trialdata": {"rt": -1, "stimulus": "<p id=\"stim\">+</p>", "key_press": -1, "type": "FIXATION", "trial_type": "single-stim", "trial_index": 20, "time_elapsed": 146537, "internal_node_id": "0.0-11.0-0.0"}}, {"uniqueid": "MTK0372:3KXIR214I5NSB26R7MQKRM3XEXN24F", "current_trial": 21, "dateTime": 1510779178960, "trialdata": {"rt": -1, "stimulus": "<p id=\"stim\">ARMY</p>", "key_press": -1, "type": "PRES_VIS", "word": "army", "wordID": 38, "conditions": [18, 1200, "v", 18000], "trial": 0, "serialpos": 0, "trial_type": "single-stim", "trial_index": 21, "time_elapsed": 147738, "internal_node_id": "0.0-12.0"}}, {"uniqueid": "MTK0372:3KXIR214I5NSB26R7MQKRM3XEXN24F", "current_trial": 22, "dateTime": 1510779181220, "trialdata": {"rt": -1, "stimulus": "<p id=\"stim\">PECAN</p>", "key_press": -1, "type": "PRES_VIS", "word": "pecan", "wordID": 1035, "conditions": [18, 1200, "v", 18000], "trial": 0, "serialpos": 1, "trial_type": "single-stim", "trial_index": 22, "time_elapsed": 149998, "internal_node_id": "0.0-13.0"}}, {"uniqueid": "MTK0372:3KXIR214I5NSB26R7MQKRM3XEXN24F", "current_trial": 23, "dateTime": 1510779183591, "trialdata": {"rt": -1, "stimulus": "<p id=\"stim\">SPIDER</p>", "key_press": -1, "type": "PRES_VIS", "word": "spider", "wordID": 1350, "conditions": [18, 1200, "v", 18000], "trial": 0, "serialpos": 2, "trial_type": "single-stim", "trial_index": 23, "time_elapsed": 152369, "internal_node_id": "0.0-14.0"}}, {"uniqueid": "MTK0372:3KXIR214I5NSB26R7MQKRM3XEXN24F", "current_trial": 24, "dateTime": 1510779185623, "trialdata": {"rt": -1, "stimulus": "<p id=\"stim\">GARBAGE</p>", "key_press": -1, "type": "PRES_VIS", "word": "garbage", "wordID": 621, "conditions": [18, 1200, "v", 18000], "trial": 0, "serialpos": 3, "trial_type": "single-stim", "trial_index": 24, "time_elapsed": 154401, "internal_node_id": "0.0-15.0"}}, {"uniqueid": "MTK0372:3KXIR214I5NSB26R7MQKRM3XEXN24F", "current_trial": 25, "dateTime": 1510779187807, "trialdata": {"rt": -1, "stimulus": "<p id=\"stim\">EYELASH</p>", "key_press": -1, "type": "PRES_VIS", "word": "eyelash", "wordID": 545, "conditions": [18, 1200, "v", 18000], "trial": 0, "serialpos": 4, "trial_type": "single-stim", "trial_index": 25, "time_elapsed": 156585, "internal_node_id": "0.0-16.0"}}, {"uniqueid": "MTK0372:3KXIR214I5NSB26R7MQKRM3XEXN24F", "current_trial": 26, "dateTime": 1510779189854, "trialdata": {"rt": -1, "stimulus": "<p id=\"stim\">CRIB</p>", "key_press": -1, "type": "PRES_VIS", "word": "crib", "wordID": 406, "conditions": [18, 1200, "v", 18000], "trial": 0, "serialpos": 5, "trial_type": "single-stim", "trial_index": 26, "time_elapsed": 158632, "internal_node_id": "0.0-17.0"}}, {"uniqueid": "MTK0372:3KXIR214I5NSB26R7MQKRM3XEXN24F", "current_trial": 27, "dateTime": 1510779192072, "trialdata": {"rt": -1, "stimulus": "<p id=\"stim\">PARTNER</p>", "key_press": -1, "type": "PRES_VIS", "word": "partner", "wordID": 1016, "conditions": [18, 1200, "v", 18000], "trial": 0, "serialpos": 6, "trial_type": "single-stim", "trial_index": 27, "time_elapsed": 160850, "internal_node_id": "0.0-18.0"}}, {"uniqueid": "MTK0372:3KXIR214I5NSB26R7MQKRM3XEXN24F", "current_trial": 28, "dateTime": 1510779194105, "trialdata": {"rt": -1, "stimulus": "<p id=\"stim\">DRESSER</p>", "key_press": -1, "type": "PRES_VIS", "word": "dresser", "wordID": 495, "conditions": [18, 1200, "v", 18000], "trial": 0, "serialpos": 7, "trial_type": "single-stim", "trial_index": 28, "time_elapsed": 162883, "internal_node_id": "0.0-19.0"}}, {"uniqueid": "MTK0372:3KXIR214I5NSB26R7MQKRM3XEXN24F", "current_trial": 29, "dateTime": 1510779196150, "trialdata": {"rt": -1, "stimulus": "<p id=\"stim\">JURY</p>", "key_press": -1, "type": "PRES_VIS", "word": "jury", "wordID": 765, "conditions": [18, 1200, "v", 18000], "trial": 0, "serialpos": 8, "trial_type": "single-stim", "trial_index": 29, "time_elapsed": 164928, "internal_node_id": "0.0-20.0"}}, {"uniqueid": "MTK0372:3KXIR214I5NSB26R7MQKRM3XEXN24F", "current_trial": 30, "dateTime": 1510779198241, "trialdata": {"rt": -1, "stimulus": "<p id=\"stim\">INMATE</p>", "key_press": -1, "type": "PRES_VIS", "word": "inmate", "wordID": 737, "conditions": [18, 1200, "v", 18000], "trial": 0, "serialpos": 9, "trial_type": "single-stim", "trial_index": 30, "time_elapsed": 167018, "internal_node_id": "0.0-21.0"}}, {"uniqueid": "MTK0372:3KXIR214I5NSB26R7MQKRM3XEXN24F", "current_trial": 31, "dateTime": 1510779200519, "trialdata": {"rt": -1, "stimulus": "<p id=\"stim\">FREEZER</p>", "key_press": -1, "type": "PRES_VIS", "word": "freezer", "wordID": 603, "conditions": [18, 1200, "v", 18000], "trial": 0, "serialpos": 10, "trial_type": "single-stim", "trial_index": 31, "time_elapsed": 169297, "internal_node_id": "0.0-22.0"}}, {"uniqueid": "MTK0372:3KXIR214I5NSB26R7MQKRM3XEXN24F", "current_trial": 32, "dateTime": 1510779202874, "trialdata": {"rt": -1, "stimulus": "<p id=\"stim\">TRANSPLANT</p>", "key_press": -1, "type": "PRES_VIS", "word": "transplant", "wordID": 1495, "conditions": [18, 1200, "v", 18000], "trial": 0, "serialpos": 11, "trial_type": "single-stim", "trial_index": 32, "time_elapsed": 171652, "internal_node_id": "0.0-23.0"}}, {"uniqueid": "MTK0372:3KXIR214I5NSB26R7MQKRM3XEXN24F", "current_trial": 33, "dateTime": 1510779205244, "trialdata": {"rt": -1, "stimulus": "<p id=\"stim\">DIME</p>", "key_press": -1, "type": "PRES_VIS", "word": "dime", "wordID": 465, "conditions": [18, 1200, "v", 18000], "trial": 0, "serialpos": 12, "trial_type": "single-stim", "trial_index": 33, "time_elapsed": 174022, "internal_node_id": "0.0-24.0"}}, {"uniqueid": "MTK0372:3KXIR214I5NSB26R7MQKRM3XEXN24F", "current_trial": 34, "dateTime": 1510779207536, "trialdata": {"rt": -1, "stimulus": "<p id=\"stim\">CREATURE</p>", "key_press": -1, "type": "PRES_VIS", "word": "creature", "wordID": 402, "conditions": [18, 1200, "v", 18000], "trial": 0, "serialpos": 13, "trial_type": "single-stim", "trial_index": 34, "time_elapsed": 176314, "internal_node_id": "0.0-25.0"}}, {"uniqueid": "MTK0372:3KXIR214I5NSB26R7MQKRM3XEXN24F", "current_trial": 35, "dateTime": 1510779209684, "trialdata": {"rt": -1, "stimulus": "<p id=\"stim\">BUGGY</p>", "key_press": -1, "type": "PRES_VIS", "word": "buggy", "wordID": 187, "conditions": [18, 1200, "v", 18000], "trial": 0, "serialpos": 14, "trial_type": "single-stim", "trial_index": 35, "time_elapsed": 178462, "internal_node_id": "0.0-26.0"}}, {"uniqueid": "MTK0372:3KXIR214I5NSB26R7MQKRM3XEXN24F", "current_trial": 36, "dateTime": 1510779211844, "trialdata": {"rt": -1, "stimulus": "<p id=\"stim\">MARROW</p>", "key_press": -1, "type": "PRES_VIS", "word": "marrow", "wordID": 871, "conditions": [18, 1200, "v", 18000], "trial": 0, "serialpos": 15, "trial_type": "single-stim", "trial_index": 36, "time_elapsed": 180622, "internal_node_id": "0.0-27.0"}}, {"uniqueid": "MTK0372:3KXIR214I5NSB26R7MQKRM3XEXN24F", "current_trial": 37, "dateTime": 1510779213964, "trialdata": {"rt": -1, "stimulus": "<p id=\"stim\">PACKAGE</p>", "key_press": -1, "type": "PRES_VIS", "word": "package", "wordID": 996, "conditions": [18, 1200, "v", 18000], "trial": 0, "serialpos": 16, "trial_type": "single-stim", "trial_index": 37, "time_elapsed": 182742, "internal_node_id": "0.0-28.0"}}, {"uniqueid": "MTK0372:3KXIR214I5NSB26R7MQKRM3XEXN24F", "current_trial": 38, "dateTime": 1510779216261, "trialdata": {"rt": -1, "stimulus": "<p id=\"stim\">PRINCESS</p>", "key_press": -1, "type": "PRES_VIS", "word": "princess", "wordID": 1124, "conditions": [18, 1200, "v", 18000], "trial": 0, "serialpos": 17, "trial_type": "single-stim", "trial_index": 38, "time_elapsed": 185039, "internal_node_id": "0.0-29.0"}}, {"uniqueid": "MTK0372:3KXIR214I5NSB26R7MQKRM3XEXN24F", "current_trial": 39, "dateTime": 1510779218692, "trialdata": {"rt": -1, "stimulus": "", "key_press": -1, "type": "PRE_RECALL_DELAY", "trial_type": "single-stim", "trial_index": 39, "time_elapsed": 187469, "internal_node_id": "0.0-30.0-0.0"}}, {"uniqueid": "MTK0372:3KXIR214I5NSB26R7MQKRM3XEXN24F", "current_trial": 40, "dateTime": 1510779219194, "trialdata": {"rt": -1000, "stimulus": "/static/audio/400Hz.wav", "key_press": -1, "type": "PRE_RECALL_ALERT", "trial_type": "single-audio", "trial_index": 40, "time_elapsed": 187972, "internal_node_id": "0.0-31.0"}}, {"uniqueid": "MTK0372:3KXIR214I5NSB26R7MQKRM3XEXN24F", "current_trial": 41, "dateTime": 1510779279199, "trialdata": {"rt": [2635, 3775, 4500, 6498, 12864, 15227], "recwords": ["princess", "garbage", "spider", "inmate", "eyelash", "freezer"], "type": "FREE_RECALL", "conditions": [18, 1200, "v", 18000], "trial": 0, "trial_type": "free-recall", "trial_index": 41, "time_elapsed": 247975, "internal_node_id": "0.0-32.0-0.0"}}, {"uniqueid": "MTK0372:3KXIR214I5NSB26R7MQKRM3XEXN24F", "current_trial": 42, "dateTime": 1510779282922, "trialdata": {"rt": 1722, "key_press": 68, "type": "INSTRUCTIONS", "trial_type": "text", "trial_index": 42, "time_elapsed": 251700, "internal_node_id": "0.0-33.0"}}, {"uniqueid": "MTK0372:3KXIR214I5NSB26R7MQKRM3XEXN24F", "current_trial": 43, "dateTime": 1510779302925, "trialdata": {"rt": [1929, 3788, 5670, 7989, 9446, 10605, 11692, 13153, 14639, 16242, 17354], "responses": ["21", "19", "27", "8", "16", "19", "11", "15", "8", "16", "19"], "num1": [6, 6, 9, 1, 8, 7, 9, 2, 5, 7, 9, 6], "num2": [8, 4, 9, 6, 7, 3, 1, 6, 1, 1, 8, 9], "num3": [7, 9, 8, 1, 1, 9, 1, 7, 2, 8, 2, 9], "type": "DISTRACTOR", "conditions": [18, 1200, "a", 18000], "trial": 1, "trial_type": "math-distractor", "trial_index": 43, "time_elapsed": 271703, "internal_node_id": "0.0-34.0"}}, {"uniqueid": "MTK0372:3KXIR214I5NSB26R7MQKRM3XEXN24F", "current_trial": 44, "dateTime": 1510779305927, "trialdata": {"rt": -1, "stimulus": "<p id=\"stim\">10</p>", "key_press": -1, "trial_type": "single-stim", "trial_index": 44, "time_elapsed": 274705, "internal_node_id": "0.0-35.0-0.0"}}, {"uniqueid": "MTK0372:3KXIR214I5NSB26R7MQKRM3XEXN24F", "current_trial": 45, "dateTime": 1510779306930, "trialdata": {"rt": -1, "stimulus": "<p id=\"stim\">9</p>", "key_press": -1, "trial_type": "single-stim", "trial_index": 45, "time_elapsed": 275707, "internal_node_id": "0.0-35.0-1.0"}}, {"uniqueid": "MTK0372:3KXIR214I5NSB26R7MQKRM3XEXN24F", "current_trial": 46, "dateTime": 1510779307931, "trialdata": {"rt": -1, "stimulus": "<p id=\"stim\">8</p>", "key_press": -1, "trial_type": "single-stim", "trial_index": 46, "time_elapsed": 276709, "internal_node_id": "0.0-35.0-2.0"}}, {"uniqueid": "MTK0372:3KXIR214I5NSB26R7MQKRM3XEXN24F", "current_trial": 47, "dateTime": 1510779308932, "trialdata": {"rt": -1, "stimulus": "<p id=\"stim\">7</p>", "key_press": -1, "trial_type": "single-stim", "trial_index": 47, "time_elapsed": 277710, "internal_node_id": "0.0-35.0-3.0"}}, {"uniqueid": "MTK0372:3KXIR214I5NSB26R7MQKRM3XEXN24F", "current_trial": 48, "dateTime": 1510779309933, "trialdata": {"rt": -1, "stimulus": "<p id=\"stim\">6</p>", "key_press": -1, "trial_type": "single-stim", "trial_index": 48, "time_elapsed": 278711, "internal_node_id": "0.0-35.0-4.0"}}, {"uniqueid": "MTK0372:3KXIR214I5NSB26R7MQKRM3XEXN24F", "current_trial": 49, "dateTime": 1510779310934, "trialdata": {"rt": -1, "stimulus": "<p id=\"stim\">5</p>", "key_press": -1, "trial_type": "single-stim", "trial_index": 49, "time_elapsed": 279712, "internal_node_id": "0.0-35.0-5.0"}}, {"uniqueid": "MTK0372:3KXIR214I5NSB26R7MQKRM3XEXN24F", "current_trial": 50, "dateTime": 1510779311936, "trialdata": {"rt": -1, "stimulus": "<p id=\"stim\">4</p>", "key_press": -1, "trial_type": "single-stim", "trial_index": 50, "time_elapsed": 280714, "internal_node_id": "0.0-35.0-6.0"}}, {"uniqueid": "MTK0372:3KXIR214I5NSB26R7MQKRM3XEXN24F", "current_trial": 51, "dateTime": 1510779312938, "trialdata": {"rt": -1, "stimulus": "<p id=\"stim\">3</p>", "key_press": -1, "trial_type": "single-stim", "trial_index": 51, "time_elapsed": 281716, "internal_node_id": "0.0-35.0-7.0"}}, {"uniqueid": "MTK0372:3KXIR214I5NSB26R7MQKRM3XEXN24F", "current_trial": 52, "dateTime": 1510779313940, "trialdata": {"rt": -1, "stimulus": "<p id=\"stim\">2</p>", "key_press": -1, "trial_type": "single-stim", "trial_index": 52, "time_elapsed": 282718, "internal_node_id": "0.0-35.0-8.0"}}, {"uniqueid": "MTK0372:3KXIR214I5NSB26R7MQKRM3XEXN24F", "current_trial": 53, "dateTime": 1510779314942, "trialdata": {"rt": -1, "stimulus": "<p id=\"stim\">1</p>", "key_press": -1, "trial_type": "single-stim", "trial_index": 53, "time_elapsed": 283719, "internal_node_id": "0.0-35.0-9.0"}}, {"uniqueid": "MTK0372:3KXIR214I5NSB26R7MQKRM3XEXN24F", "current_trial": 54, "dateTime": 1510779316444, "trialdata": {"rt": -1, "stimulus": "<p id=\"stim\">+</p>", "key_press": -1, "type": "FIXATION", "trial_type": "single-stim", "trial_index": 54, "time_elapsed": 285222, "internal_node_id": "0.0-36.0-0.0"}}, {"uniqueid": "MTK0372:3KXIR214I5NSB26R7MQKRM3XEXN24F", "current_trial": 55, "dateTime": 1510779318626, "trialdata": {"rt": -1000, "stimulus": "/static/audio/wordpool/STREAM.wav", "key_press": -1, "type": "PRES_AUD", "word": "stream", "wordID": 1391, "conditions": [18, 1200, "a", 18000], "trial": 1, "serialpos": 0, "trial_type": "single-audio", "trial_index": 55, "time_elapsed": 287404, "internal_node_id": "0.0-37.0"}}, {"uniqueid": "MTK0372:3KXIR214I5NSB26R7MQKRM3XEXN24F", "current_trial": 56, "dateTime": 1510779320915, "trialdata": {"rt": -1000, "stimulus": "/static/audio/wordpool/PROTON.wav", "key_press": -1, "type": "PRES_AUD", "word": "proton", "wordID": 1131, "conditions": [18, 1200, "a", 18000], "trial": 1, "serialpos": 1, "trial_type": "single-audio", "trial_index": 56, "time_elapsed": 289693, "internal_node_id": "0.0-38.0"}}, {"uniqueid": "MTK0372:3KXIR214I5NSB26R7MQKRM3XEXN24F", "current_trial": 57, "dateTime": 1510779323088, "trialdata": {"rt": -1000, "stimulus": "/static/audio/wordpool/BELLY.wav", "key_press": -1, "type": "PRES_AUD", "word": "belly", "wordID": 118, "conditions": [18, 1200, "a", 18000], "trial": 1, "serialpos": 2, "trial_type": "single-audio", "trial_index": 57, "time_elapsed": 291866, "internal_node_id": "0.0-39.0"}}, {"uniqueid": "MTK0372:3KXIR214I5NSB26R7MQKRM3XEXN24F", "current_trial": 58, "dateTime": 1510779325326, "trialdata": {"rt": -1000, "stimulus": "/static/audio/wordpool/FOX.wav", "key_press": -1, "type": "PRES_AUD", "word": "fox", "wordID": 597, "conditions": [18, 1200, "a", 18000], "trial": 1, "serialpos": 3, "trial_type": "single-audio", "trial_index": 58, "time_elapsed": 294103, "internal_node_id": "0.0-40.0"}}, {"uniqueid": "MTK0372:3KXIR214I5NSB26R7MQKRM3XEXN24F", "current_trial": 59, "dateTime": 1510779327474, "trialdata": {"rt": -1000, "stimulus": "/static/audio/wordpool/FLAG.wav", "key_press": -1, "type": "PRES_AUD", "word": "flag", "wordID": 572, "conditions": [18, 1200, "a", 18000], "trial": 1, "serialpos": 4, "trial_type": "single-audio", "trial_index": 59, "time_elapsed": 296252, "internal_node_id": "0.0-41.0"}}, {"uniqueid": "MTK0372:3KXIR214I5NSB26R7MQKRM3XEXN24F", "current_trial": 60, "dateTime": 1510779329664, "trialdata": {"rt": -1000, "stimulus": "/static/audio/wordpool/TUBA.wav", "key_press": -1, "type": "PRES_AUD", "word": "tuba", "wordID": 1514, "conditions": [18, 1200, "a", 18000], "trial": 1, "serialpos": 5, "trial_type": "single-audio", "trial_index": 60, "time_elapsed": 298442, "internal_node_id": "0.0-42.0"}}, {"uniqueid": "MTK0372:3KXIR214I5NSB26R7MQKRM3XEXN24F", "current_trial": 61, "dateTime": 1510779331875, "trialdata": {"rt": -1000, "stimulus": "/static/audio/wordpool/LADY.wav", "key_press": -1, "type": "PRES_AUD", "word": "lady", "wordID": 793, "conditions": [18, 1200, "a", 18000], "trial": 1, "serialpos": 6, "trial_type": "single-audio", "trial_index": 61, "time_elapsed": 300653, "internal_node_id": "0.0-43.0"}}, {"uniqueid": "MTK0372:3KXIR214I5NSB26R7MQKRM3XEXN24F", "current_trial": 62, "dateTime": 1510779333977, "trialdata": {"rt": -1000, "stimulus": "/static/audio/wordpool/POET.wav", "key_press": -1, "type": "PRES_AUD", "word": "poet", "wordID": 1094, "conditions": [18, 1200, "a", 18000], "trial": 1, "serialpos": 7, "trial_type": "single-audio", "trial_index": 62, "time_elapsed": 302755, "internal_node_id": "0.0-44.0"}}, {"uniqueid": "MTK0372:3KXIR214I5NSB26R7MQKRM3XEXN24F", "current_trial": 63, "dateTime": 1510779336040, "trialdata": {"rt": -1000, "stimulus": "/static/audio/wordpool/BACKBONE.wav", "key_press": -1, "type": "PRES_AUD", "word": "backbone", "wordID": 65, "conditions": [18, 1200, "a", 18000], "trial": 1, "serialpos": 8, "trial_type": "single-audio", "trial_index": 63, "time_elapsed": 304818, "internal_node_id": "0.0-45.0"}}, {"uniqueid": "MTK0372:3KXIR214I5NSB26R7MQKRM3XEXN24F", "current_trial": 64, "dateTime": 1510779338245, "trialdata": {"rt": -1000, "stimulus": "/static/audio/wordpool/PORTRAIT.wav", "key_press": -1, "type": "PRES_AUD", "word": "portrait", "wordID": 1110, "conditions": [18, 1200, "a", 18000], "trial": 1, "serialpos": 9, "trial_type": "single-audio", "trial_index": 64, "time_elapsed": 307023, "internal_node_id": "0.0-46.0"}}, {"uniqueid": "MTK0372:3KXIR214I5NSB26R7MQKRM3XEXN24F", "current_trial": 65, "dateTime": 1510779340506, "trialdata": {"rt": -1000, "stimulus": "/static/audio/wordpool/HAND.wav", "key_press": -1, "type": "PRES_AUD", "word": "hand", "wordID": 682, "conditions": [18, 1200, "a", 18000], "trial": 1, "serialpos": 10, "trial_type": "single-audio", "trial_index": 65, "time_elapsed": 309284, "internal_node_id": "0.0-47.0"}}, {"uniqueid": "MTK0372:3KXIR214I5NSB26R7MQKRM3XEXN24F", "current_trial": 66, "dateTime": 1510779342854, "trialdata": {"rt": -1000, "stimulus": "/static/audio/wordpool/SALAD.wav", "key_press": -1, "type": "PRES_AUD", "word": "salad", "wordID": 1223, "conditions": [18, 1200, "a", 18000], "trial": 1, "serialpos": 11, "trial_type": "single-audio", "trial_index": 66, "time_elapsed": 311632, "internal_node_id": "0.0-48.0"}}, {"uniqueid": "MTK0372:3KXIR214I5NSB26R7MQKRM3XEXN24F", "current_trial": 67, "dateTime": 1510779345150, "trialdata": {"rt": -1000, "stimulus": "/static/audio/wordpool/CHEMIST.wav", "key_press": -1, "type": "PRES_AUD", "word": "chemist", "wordID": 291, "conditions": [18, 1200, "a", 18000], "trial": 1, "serialpos": 12, "trial_type": "single-audio", "trial_index": 67, "time_elapsed": 313928, "internal_node_id": "0.0-49.0"}}, {"uniqueid": "MTK0372:3KXIR214I5NSB26R7MQKRM3XEXN24F", "current_trial": 68, "dateTime": 1510779347153, "trialdata": {"rt": -1000, "stimulus": "/static/audio/wordpool/MOTEL.wav", "key_press": -1, "type": "PRES_AUD", "word": "motel", "wordID": 918, "conditions": [18, 1200, "a", 18000], "trial": 1, "serialpos": 13, "trial_type": "single-audio", "trial_index": 68, "time_elapsed": 315930, "internal_node_id": "0.0-50.0"}}, {"uniqueid": "MTK0372:3KXIR214I5NSB26R7MQKRM3XEXN24F", "current_trial": 69, "dateTime": 1510779349318, "trialdata": {"rt": -1000, "stimulus": "/static/audio/wordpool/SHOVEL.wav", "key_press": -1, "type": "PRES_AUD", "word": "shovel", "wordID": 1294, "conditions": [18, 1200, "a", 18000], "trial": 1, "serialpos": 14, "trial_type": "single-audio", "trial_index": 69, "time_elapsed": 318096, "internal_node_id": "0.0-51.0"}}, {"uniqueid": "MTK0372:3KXIR214I5NSB26R7MQKRM3XEXN24F", "current_trial": 70, "dateTime": 1510779351415, "trialdata": {"rt": -1000, "stimulus": "/static/audio/wordpool/YARN.wav", "key_press": -1, "type": "PRES_AUD", "word": "yarn", "wordID": 1630, "conditions": [18, 1200, "a", 18000], "trial": 1, "serialpos": 15, "trial_type": "single-audio", "trial_index": 70, "time_elapsed": 320193, "internal_node_id": "0.0-52.0"}}, {"uniqueid": "MTK0372:3KXIR214I5NSB26R7MQKRM3XEXN24F", "current_trial": 71, "dateTime": 1510779353815, "trialdata": {"rt": -1000, "stimulus": "/static/audio/wordpool/VALVE.wav", "key_press": -1, "type": "PRES_AUD", "word": "valve", "wordID": 1545, "conditions": [18, 1200, "a", 18000], "trial": 1, "serialpos": 16, "trial_type": "single-audio", "trial_index": 71, "time_elapsed": 322593, "internal_node_id": "0.0-53.0"}}, {"uniqueid": "MTK0372:3KXIR214I5NSB26R7MQKRM3XEXN24F", "current_trial": 72, "dateTime": 1510779355983, "trialdata": {"rt": -1000, "stimulus": "/static/audio/wordpool/SKETCH.wav", "key_press": -1, "type": "PRES_AUD", "word": "sketch", "wordID": 1314, "conditions": [18, 1200, "a", 18000], "trial": 1, "serialpos": 17, "trial_type": "single-audio", "trial_index": 72, "time_elapsed": 324761, "internal_node_id": "0.0-54.0"}}, {"uniqueid": "MTK0372:3KXIR214I5NSB26R7MQKRM3XEXN24F", "current_trial": 73, "dateTime": 1510779357302, "trialdata": {"rt": -1, "stimulus": "", "key_press": -1, "type": "PRE_RECALL_DELAY", "trial_type": "single-stim", "trial_index": 73, "time_elapsed": 326080, "internal_node_id": "0.0-55.0-0.0"}}, {"uniqueid": "MTK0372:3KXIR214I5NSB26R7MQKRM3XEXN24F", "current_trial": 74, "dateTime": 1510779357804, "trialdata": {"rt": -1000, "stimulus": "/static/audio/400Hz.wav", "key_press": -1, "type": "PRE_RECALL_ALERT", "trial_type": "single-audio", "trial_index": 74, "time_elapsed": 326582, "internal_node_id": "0.0-56.0"}}, {"uniqueid": "MTK0372:3KXIR214I5NSB26R7MQKRM3XEXN24F", "current_trial": 75, "dateTime": 1510779417810, "trialdata": {"rt": [1459, 2307, 3049, 4758, 7537, 9031, 15941, 19394], "recwords": ["hand", "sketch", "poet", "lady", "backbone", "poet", "proton", "chemist"], "type": "FREE_RECALL", "conditions": [18, 1200, "a", 18000], "trial": 1, "trial_type": "free-recall", "trial_index": 75, "time_elapsed": 386586, "internal_node_id": "0.0-57.0-0.0"}}, {"uniqueid": "MTK0372:3KXIR214I5NSB26R7MQKRM3XEXN24F", "current_trial": 76, "dateTime": 1510779421267, "trialdata": {"rt": 1450, "key_press": 68, "type": "INSTRUCTIONS", "trial_type": "text", "trial_index": 76, "time_elapsed": 390042, "internal_node_id": "0.0-58.0"}}, {"uniqueid": "MTK0372:3KXIR214I5NSB26R7MQKRM3XEXN24F", "current_trial": 77, "dateTime": 1510779446269, "trialdata": {"rt": [1513, 2883, 4254, 5842, 7408, 8942, 10330, 11581, 12870, 14218, 15212, 16412, 17671, 18846, 19897, 20930, 22246, 23737], "responses": ["11", "10", "27", "18", "14", "20", "15", "14", "21", "21", "9", "24", "12", "8", "11", "14", "21", "7"], "num1": [2, 4, 9, 3, 4, 4, 5, 5, 8, 4, 6, 9, 1, 2, 8, 2, 7, 2, 4], "num2": [6, 1, 7, 8, 2, 7, 6, 7, 6, 9, 2, 9, 6, 1, 2, 8, 9, 1, 4], "num3": [3, 5, 9, 7, 8, 9, 4, 2, 7, 8, 1, 6, 5, 5, 1, 4, 7, 4, 6], "type": "DISTRACTOR", "conditions": [24, 1600, "a", 24000], "trial": 2, "trial_type": "math-distractor", "trial_index": 77, "time_elapsed": 415047, "internal_node_id": "0.0-59.0"}}, {"uniqueid": "MTK0372:3KXIR214I5NSB26R7MQKRM3XEXN24F", "current_trial": 78, "dateTime": 1510779449271, "trialdata": {"rt": -1, "stimulus": "<p id=\"stim\">10</p>", "key_press": -1, "trial_type": "single-stim", "trial_index": 78, "time_elapsed": 418049, "internal_node_id": "0.0-60.0-0.0"}}, {"uniqueid": "MTK0372:3KXIR214I5NSB26R7MQKRM3XEXN24F", "current_trial": 79, "dateTime": 1510779450272, "trialdata": {"rt": -1, "stimulus": "<p id=\"stim\">9</p>", "key_press": -1, "trial_type": "single-stim", "trial_index": 79, "time_elapsed": 419050, "internal_node_id": "0.0-60.0-1.0"}}, {"uniqueid": "MTK0372:3KXIR214I5NSB26R7MQKRM3XEXN24F", "current_trial": 80, "dateTime": 1510779451273, "trialdata": {"rt": -1, "stimulus": "<p id=\"stim\">8</p>", "key_press": -1, "trial_type": "single-stim", "trial_index": 80, "time_elapsed": 420051, "internal_node_id": "0.0-60.0-2.0"}}, {"uniqueid": "MTK0372:3KXIR214I5NSB26R7MQKRM3XEXN24F", "current_trial": 81, "dateTime": 1510779452275, "trialdata": {"rt": -1, "stimulus": "<p id=\"stim\">7</p>", "key_press": -1, "trial_type": "single-stim", "trial_index": 81, "time_elapsed": 421053, "internal_node_id": "0.0-60.0-3.0"}}, {"uniqueid": "MTK0372:3KXIR214I5NSB26R7MQKRM3XEXN24F", "current_trial": 82, "dateTime": 1510779453278, "trialdata": {"rt": -1, "stimulus": "<p id=\"stim\">6</p>", "key_press": -1, "trial_type": "single-stim", "trial_index": 82, "time_elapsed": 422056, "internal_node_id": "0.0-60.0-4.0"}}, {"uniqueid": "MTK0372:3KXIR214I5NSB26R7MQKRM3XEXN24F", "current_trial": 83, "dateTime": 1510779454279, "trialdata": {"rt": -1, "stimulus": "<p id=\"stim\">5</p>", "key_press": -1, "trial_type": "single-stim", "trial_index": 83, "time_elapsed": 423057, "internal_node_id": "0.0-60.0-5.0"}}, {"uniqueid": "MTK0372:3KXIR214I5NSB26R7MQKRM3XEXN24F", "current_trial": 84, "dateTime": 1510779455281, "trialdata": {"rt": -1, "stimulus": "<p id=\"stim\">4</p>", "key_press": -1, "trial_type": "single-stim", "trial_index": 84, "time_elapsed": 424059, "internal_node_id": "0.0-60.0-6.0"}}, {"uniqueid": "MTK0372:3KXIR214I5NSB26R7MQKRM3XEXN24F", "current_trial": 85, "dateTime": 1510779456282, "trialdata": {"rt": -1, "stimulus": "<p id=\"stim\">3</p>", "key_press": -1, "trial_type": "single-stim", "trial_index": 85, "time_elapsed": 425060, "internal_node_id": "0.0-60.0-7.0"}}, {"uniqueid": "MTK0372:3KXIR214I5NSB26R7MQKRM3XEXN24F", "current_trial": 86, "dateTime": 1510779457283, "trialdata": {"rt": -1, "stimulus": "<p id=\"stim\">2</p>", "key_press": -1, "trial_type": "single-stim", "trial_index": 86, "time_elapsed": 426061, "internal_node_id": "0.0-60.0-8.0"}}, {"uniqueid": "MTK0372:3KXIR214I5NSB26R7MQKRM3XEXN24F", "current_trial": 87, "dateTime": 1510779458284, "trialdata": {"rt": -1, "stimulus": "<p id=\"stim\">1</p>", "key_press": -1, "trial_type": "single-stim", "trial_index": 87, "time_elapsed": 427062, "internal_node_id": "0.0-60.0-9.0"}}, {"uniqueid": "MTK0372:3KXIR214I5NSB26R7MQKRM3XEXN24F", "current_trial": 88, "dateTime": 1510779459785, "trialdata": {"rt": -1, "stimulus": "<p id=\"stim\">+</p>", "key_press": -1, "type": "FIXATION", "trial_type": "single-stim", "trial_index": 88, "time_elapsed": 428563, "internal_node_id": "0.0-61.0-0.0"}}, {"uniqueid": "MTK0372:3KXIR214I5NSB26R7MQKRM3XEXN24F", "current_trial": 89, "dateTime": 1510779462203, "trialdata": {"rt": -1000, "stimulus": "/static/audio/wordpool/MARKER.wav", "key_press": -1, "type": "PRES_AUD", "word": "marker", "wordID": 869, "conditions": [24, 1600, "a", 24000], "trial": 2, "serialpos": 0, "trial_type": "single-audio", "trial_index": 89, "time_elapsed": 430981, "internal_node_id": "0.0-62.0"}}, {"uniqueid": "MTK0372:3KXIR214I5NSB26R7MQKRM3XEXN24F", "current_trial": 90, "dateTime": 1510779464689, "trialdata": {"rt": -1000, "stimulus": "/static/audio/wordpool/RELISH.wav", "key_press": -1, "type": "PRES_AUD", "word": "relish", "wordID": 1182, "conditions": [24, 1600, "a", 24000], "trial": 2, "serialpos": 1, "trial_type": "single-audio", "trial_index": 90, "time_elapsed": 433467, "internal_node_id": "0.0-63.0"}}, {"uniqueid": "MTK0372:3KXIR214I5NSB26R7MQKRM3XEXN24F", "current_trial": 91, "dateTime": 1510779467456, "trialdata": {"rt": -1000, "stimulus": "/static/audio/wordpool/BLOUSE.wav", "key_press": -1, "type": "PRES_AUD", "word": "blouse", "wordID": 138, "conditions": [24, 1600, "a", 24000], "trial": 2, "serialpos": 2, "trial_type": "single-audio", "trial_index": 91, "time_elapsed": 436234, "internal_node_id": "0.0-64.0"}}, {"uniqueid": "MTK0372:3KXIR214I5NSB26R7MQKRM3XEXN24F", "current_trial": 92, "dateTime": 1510779469868, "trialdata": {"rt": -1000, "stimulus": "/static/audio/wordpool/NIGHTGOWN.wav", "key_press": -1, "type": "PRES_AUD", "word": "nightgown", "wordID": 952, "conditions": [24, 1600, "a", 24000], "trial": 2, "serialpos": 3, "trial_type": "single-audio", "trial_index": 92, "time_elapsed": 438646, "internal_node_id": "0.0-65.0"}}, {"uniqueid": "MTK0372:3KXIR214I5NSB26R7MQKRM3XEXN24F", "current_trial": 93, "dateTime": 1510779472288, "trialdata": {"rt": -1000, "stimulus": "/static/audio/wordpool/SPOOL.wav", "key_press": -1, "type": "PRES_AUD", "word": "spool", "wordID": 1355, "conditions": [24, 1600, "a", 24000], "trial": 2, "serialpos": 4, "trial_type": "single-audio", "trial_index": 93, "time_elapsed": 441066, "internal_node_id": "0.0-66.0"}}, {"uniqueid": "MTK0372:3KXIR214I5NSB26R7MQKRM3XEXN24F", "current_trial": 94, "dateTime": 1510779474768, "trialdata": {"rt": -1000, "stimulus": "/static/audio/wordpool/TYPIST.wav", "key_press": -1, "type": "PRES_AUD", "word": "typist", "wordID": 1531, "conditions": [24, 1600, "a", 24000], "trial": 2, "serialpos": 5, "trial_type": "single-audio", "trial_index": 94, "time_elapsed": 443546, "internal_node_id": "0.0-67.0"}}, {"uniqueid": "MTK0372:3KXIR214I5NSB26R7MQKRM3XEXN24F", "current_trial": 95, "dateTime": 1510779477227, "trialdata": {"rt": -1000, "stimulus": "/static/audio/wordpool/FIDDLE.wav", "key_press": -1, "type": "PRES_AUD", "word": "fiddle", "wordID": 560, "conditions": [24, 1600, "a", 24000], "trial": 2, "serialpos": 6, "trial_type": "single-audio", "trial_index": 95, "time_elapsed": 446005, "internal_node_id": "0.0-68.0"}}, {"uniqueid": "MTK0372:3KXIR214I5NSB26R7MQKRM3XEXN24F", "current_trial": 96, "dateTime": 1510779479935, "trialdata": {"rt": -1000, "stimulus": "/static/audio/wordpool/CABBAGE.wav", "key_press": -1, "type": "PRES_AUD", "word": "cabbage", "wordID": 209, "conditions": [24, 1600, "a", 24000], "trial": 2, "serialpos": 7, "trial_type": "single-audio", "trial_index": 96, "time_elapsed": 448713, "internal_node_id": "0.0-69.0"}}, {"uniqueid": "MTK0372:3KXIR214I5NSB26R7MQKRM3XEXN24F", "current_trial": 97, "dateTime": 1510779482544, "trialdata": {"rt": -1000, "stimulus": "/static/audio/wordpool/BREAST.wav", "key_press": -1, "type": "PRES_AUD", "word": "breast", "wordID": 170, "conditions": [24, 1600, "a", 24000], "trial": 2, "serialpos": 8, "trial_type": "single-audio", "trial_index": 97, "time_elapsed": 451321, "internal_node_id": "0.0-70.0"}}, {"uniqueid": "MTK0372:3KXIR214I5NSB26R7MQKRM3XEXN24F", "current_trial": 98, "dateTime": 1510779485269, "trialdata": {"rt": -1000, "stimulus": "/static/audio/wordpool/CURTAIN.wav", "key_press": -1, "type": "PRES_AUD", "word": "curtain", "wordID": 426, "conditions": [24, 1600, "a", 24000], "trial": 2, "serialpos": 9, "trial_type": "single-audio", "trial_index": 98, "time_elapsed": 454047, "internal_node_id": "0.0-71.0"}}, {"uniqueid": "MTK0372:3KXIR214I5NSB26R7MQKRM3XEXN24F", "current_trial": 99, "dateTime": 1510779487773, "trialdata": {"rt": -1000, "stimulus": "/static/audio/wordpool/PARSLEY.wav", "key_press": -1, "type": "PRES_AUD", "word": "parsley", "wordID": 1015, "conditions": [24, 1600, "a", 24000], "trial": 2, "serialpos": 10, "trial_type": "single-audio", "trial_index": 99, "time_elapsed": 456551, "internal_node_id": "0.0-72.0"}}, {"uniqueid": "MTK0372:3KXIR214I5NSB26R7MQKRM3XEXN24F", "current_trial": 100, "dateTime": 1510779490378, "trialdata": {"rt": -1000, "stimulus": "/static/audio/wordpool/TOMBSTONE.wav", "key_press": -1, "type": "PRES_AUD", "word": "tombstone", "wordID": 1477, "conditions": [24, 1600, "a", 24000], "trial": 2, "serialpos": 11, "trial_type": "single-audio", "trial_index": 100, "time_elapsed": 459155, "internal_node_id": "0.0-73.0"}}, {"uniqueid": "MTK0372:3KXIR214I5NSB26R7MQKRM3XEXN24F", "current_trial": 101, "dateTime": 1510779493006, "trialdata": {"rt": -1000, "stimulus": "/static/audio/wordpool/FRIEND.wav", "key_press": -1, "type": "PRES_AUD", "word": "friend", "wordID": 605, "conditions": [24, 1600, "a", 24000], "trial": 2, "serialpos": 12, "trial_type": "single-audio", "trial_index": 101, "time_elapsed": 461784, "internal_node_id": "0.0-74.0"}}, {"uniqueid": "MTK0372:3KXIR214I5NSB26R7MQKRM3XEXN24F", "current_trial": 102, "dateTime": 1510779495501, "trialdata": {"rt": -1000, "stimulus": "/static/audio/wordpool/DRAGON.wav", "key_press": -1, "type": "PRES_AUD", "word": "dragon", "wordID": 491, "conditions": [24, 1600, "a", 24000], "trial": 2, "serialpos": 13, "trial_type": "single-audio", "trial_index": 102, "time_elapsed": 464279, "internal_node_id": "0.0-75.0"}}, {"uniqueid": "MTK0372:3KXIR214I5NSB26R7MQKRM3XEXN24F", "current_trial": 103, "dateTime": 1510779497964, "trialdata": {"rt": -1000, "stimulus": "/static/audio/wordpool/BANK.wav", "key_press": -1, "type": "PRES_AUD", "word": "bank", "wordID": 82, "conditions": [24, 1600, "a", 24000], "trial": 2, "serialpos": 14, "trial_type": "single-audio", "trial_index": 103, "time_elapsed": 466742, "internal_node_id": "0.0-76.0"}}, {"uniqueid": "MTK0372:3KXIR214I5NSB26R7MQKRM3XEXN24F", "current_trial": 104, "dateTime": 1510779500414, "trialdata": {"rt": -1000, "stimulus": "/static/audio/wordpool/PIGEON.wav", "key_press": -1, "type": "PRES_AUD", "word": "pigeon", "wordID": 1064, "conditions": [24, 1600, "a", 24000], "trial": 2, "serialpos": 15, "trial_type": "single-audio", "trial_index": 104, "time_elapsed": 469192, "internal_node_id": "0.0-77.0"}}, {"uniqueid": "MTK0372:3KXIR214I5NSB26R7MQKRM3XEXN24F", "current_trial": 105, "dateTime": 1510779502821, "trialdata": {"rt": -1000, "stimulus": "/static/audio/wordpool/SPOON.wav", "key_press": -1, "type": "PRES_AUD", "word": "spoon", "wordID": 1356, "conditions": [24, 1600, "a", 24000], "trial": 2, "serialpos": 16, "trial_type": "single-audio", "trial_index": 105, "time_elapsed": 471598, "internal_node_id": "0.0-78.0"}}, {"uniqueid": "MTK0372:3KXIR214I5NSB26R7MQKRM3XEXN24F", "current_trial": 106, "dateTime": 1510779505485, "trialdata": {"rt": -1000, "stimulus": "/static/audio/wordpool/LION.wav", "key_press": -1, "type": "PRES_AUD", "word": "lion", "wordID": 826, "conditions": [24, 1600, "a", 24000], "trial": 2, "serialpos": 17, "trial_type": "single-audio", "trial_index": 106, "time_elapsed": 474263, "internal_node_id": "0.0-79.0"}}, {"uniqueid": "MTK0372:3KXIR214I5NSB26R7MQKRM3XEXN24F", "current_trial": 107, "dateTime": 1510779508035, "trialdata": {"rt": -1000, "stimulus": "/static/audio/wordpool/UNCLE.wav", "key_press": -1, "type": "PRES_AUD", "word": "uncle", "wordID": 1535, "conditions": [24, 1600, "a", 24000], "trial": 2, "serialpos": 18, "trial_type": "single-audio", "trial_index": 107, "time_elapsed": 476813, "internal_node_id": "0.0-80.0"}}, {"uniqueid": "MTK0372:3KXIR214I5NSB26R7MQKRM3XEXN24F", "current_trial": 108, "dateTime": 1510779510557, "trialdata": {"rt": -1000, "stimulus": "/static/audio/wordpool/GAZELLE.wav", "key_press": -1, "type": "PRES_AUD", "word": "gazelle", "wordID": 627, "conditions": [24, 1600, "a", 24000], "trial": 2, "serialpos": 19, "trial_type": "single-audio", "trial_index": 108, "time_elapsed": 479335, "internal_node_id": "0.0-81.0"}}, {"uniqueid": "MTK0372:3KXIR214I5NSB26R7MQKRM3XEXN24F", "current_trial": 109, "dateTime": 1510779513286, "trialdata": {"rt": -1000, "stimulus": "/static/audio/wordpool/CASKET.wav", "key_press": -1, "type": "PRES_AUD", "word": "casket", "wordID": 254, "conditions": [24, 1600, "a", 24000], "trial": 2, "serialpos": 20, "trial_type": "single-audio", "trial_index": 109, "time_elapsed": 482064, "internal_node_id": "0.0-82.0"}}, {"uniqueid": "MTK0372:3KXIR214I5NSB26R7MQKRM3XEXN24F", "current_trial": 110, "dateTime": 1510779515719, "trialdata": {"rt": -1000, "stimulus": "/static/audio/wordpool/BOX.wav", "key_press": -1, "type": "PRES_AUD", "word": "box", "wordID": 158, "conditions": [24, 1600, "a", 24000], "trial": 2, "serialpos": 21, "trial_type": "single-audio", "trial_index": 110, "time_elapsed": 484497, "internal_node_id": "0.0-83.0"}}, {"uniqueid": "MTK0372:3KXIR214I5NSB26R7MQKRM3XEXN24F", "current_trial": 111, "dateTime": 1510779518241, "trialdata": {"rt": -1000, "stimulus": "/static/audio/wordpool/SODA.wav", "key_press": -1, "type": "PRES_AUD", "word": "soda", "wordID": 1340, "conditions": [24, 1600, "a", 24000], "trial": 2, "serialpos": 22, "trial_type": "single-audio", "trial_index": 111, "time_elapsed": 487019, "internal_node_id": "0.0-84.0"}}, {"uniqueid": "MTK0372:3KXIR214I5NSB26R7MQKRM3XEXN24F", "current_trial": 112, "dateTime": 1510779520918, "trialdata": {"rt": -1000, "stimulus": "/static/audio/wordpool/DRINK.wav", "key_press": -1, "type": "PRES_AUD", "word": "drink", "wordID": 497, "conditions": [24, 1600, "a", 24000], "trial": 2, "serialpos": 23, "trial_type": "single-audio", "trial_index": 112, "time_elapsed": 489696, "internal_node_id": "0.0-85.0"}}, {"uniqueid": "MTK0372:3KXIR214I5NSB26R7MQKRM3XEXN24F", "current_trial": 113, "dateTime": 1510779522276, "trialdata": {"rt": -1, "stimulus": "", "key_press": -1, "type": "PRE_RECALL_DELAY", "trial_type": "single-stim", "trial_index": 113, "time_elapsed": 491054, "internal_node_id": "0.0-86.0-0.0"}}, {"uniqueid": "MTK0372:3KXIR214I5NSB26R7MQKRM3XEXN24F", "current_trial": 114, "dateTime": 1510779522779, "trialdata": {"rt": -1000, "stimulus": "/static/audio/400Hz.wav", "key_press": -1, "type": "PRE_RECALL_ALERT", "trial_type": "single-audio", "trial_index": 114, "time_elapsed": 491557, "internal_node_id": "0.0-87.0"}}, {"uniqueid": "MTK0372:3KXIR214I5NSB26R7MQKRM3XEXN24F", "current_trial": 115, "dateTime": 1510779582786, "trialdata": {"rt": [1721, 2782, 4677, 5623, 9389, 11756, 17600, 28281, 31878], "recwords": ["drink", "tombstone", "casket", "breast", "drink", "pidgeon", "pigeon", "uncle", "friend"], "type": "FREE_RECALL", "conditions": [24, 1600, "a", 24000], "trial": 2, "trial_type": "free-recall", "trial_index": 115, "time_elapsed": 551561, "internal_node_id": "0.0-88.0-0.0"}}, {"uniqueid": "MTK0372:3KXIR214I5NSB26R7MQKRM3XEXN24F", "current_trial": 116, "dateTime": 1510779586512, "trialdata": {"rt": 1725, "key_press": 86, "type": "INSTRUCTIONS", "trial_type": "text", "trial_index": 116, "time_elapsed": 555290, "internal_node_id": "0.0-89.0"}}, {"uniqueid": "MTK0372:3KXIR214I5NSB26R7MQKRM3XEXN24F", "current_trial": 117, "dateTime": 1510779600517, "trialdata": {"rt": [2148, 4392, 5657, 7214, 8368, 10102, 11388], "responses": ["16", "12", "14", "14", "15", "20", "14"], "num1": [6, 2, 1, 4, 7, 9, 6, 4], "num2": [5, 7, 4, 3, 4, 5, 4, 6], "num3": [5, 3, 9, 7, 4, 6, 6, 8], "type": "DISTRACTOR", "conditions": [24, 800, "a", 12000], "trial": 3, "trial_type": "math-distractor", "trial_index": 117, "time_elapsed": 569295, "internal_node_id": "0.0-90.0"}}, {"uniqueid": "MTK0372:3KXIR214I5NSB26R7MQKRM3XEXN24F", "current_trial": 118, "dateTime": 1510779603520, "trialdata": {"rt": -1, "stimulus": "<p id=\"stim\">10</p>", "key_press": -1, "trial_type": "single-stim", "trial_index": 118, "time_elapsed": 572298, "internal_node_id": "0.0-91.0-0.0"}}, {"uniqueid": "MTK0372:3KXIR214I5NSB26R7MQKRM3XEXN24F", "current_trial": 119, "dateTime": 1510779604521, "trialdata": {"rt": -1, "stimulus": "<p id=\"stim\">9</p>", "key_press": -1, "trial_type": "single-stim", "trial_index": 119, "time_elapsed": 573299, "internal_node_id": "0.0-91.0-1.0"}}, {"uniqueid": "MTK0372:3KXIR214I5NSB26R7MQKRM3XEXN24F", "current_trial": 120, "dateTime": 1510779605522, "trialdata": {"rt": -1, "stimulus": "<p id=\"stim\">8</p>", "key_press": -1, "trial_type": "single-stim", "trial_index": 120, "time_elapsed": 574300, "internal_node_id": "0.0-91.0-2.0"}}, {"uniqueid": "MTK0372:3KXIR214I5NSB26R7MQKRM3XEXN24F", "current_trial": 121, "dateTime": 1510779606523, "trialdata": {"rt": -1, "stimulus": "<p id=\"stim\">7</p>", "key_press": -1, "trial_type": "single-stim", "trial_index": 121, "time_elapsed": 575301, "internal_node_id": "0.0-91.0-3.0"}}, {"uniqueid": "MTK0372:3KXIR214I5NSB26R7MQKRM3XEXN24F", "current_trial": 122, "dateTime": 1510779607524, "trialdata": {"rt": -1, "stimulus": "<p id=\"stim\">6</p>", "key_press": -1, "trial_type": "single-stim", "trial_index": 122, "time_elapsed": 576302, "internal_node_id": "0.0-91.0-4.0"}}, {"uniqueid": "MTK0372:3KXIR214I5NSB26R7MQKRM3XEXN24F", "current_trial": 123, "dateTime": 1510779608525, "trialdata": {"rt": -1, "stimulus": "<p id=\"stim\">5</p>", "key_press": -1, "trial_type": "single-stim", "trial_index": 123, "time_elapsed": 577303, "internal_node_id": "0.0-91.0-5.0"}}, {"uniqueid": "MTK0372:3KXIR214I5NSB26R7MQKRM3XEXN24F", "current_trial": 124, "dateTime": 1510779609527, "trialdata": {"rt": -1, "stimulus": "<p id=\"stim\">4</p>", "key_press": -1, "trial_type": "single-stim", "trial_index": 124, "time_elapsed": 578304, "internal_node_id": "0.0-91.0-6.0"}}, {"uniqueid": "MTK0372:3KXIR214I5NSB26R7MQKRM3XEXN24F", "current_trial": 125, "dateTime": 1510779610530, "trialdata": {"rt": -1, "stimulus": "<p id=\"stim\">3</p>", "key_press": -1, "trial_type": "single-stim", "trial_index": 125, "time_elapsed": 579308, "internal_node_id": "0.0-91.0-7.0"}}, {"uniqueid": "MTK0372:3KXIR214I5NSB26R7MQKRM3XEXN24F", "current_trial": 126, "dateTime": 1510779611532, "trialdata": {"rt": -1, "stimulus": "<p id=\"stim\">2</p>", "key_press": -1, "trial_type": "single-stim", "trial_index": 126, "time_elapsed": 580309, "internal_node_id": "0.0-91.0-8.0"}}, {"uniqueid": "MTK0372:3KXIR214I5NSB26R7MQKRM3XEXN24F", "current_trial": 127, "dateTime": 1510779612534, "trialdata": {"rt": -1, "stimulus": "<p id=\"stim\">1</p>", "key_press": -1, "trial_type": "single-stim", "trial_index": 127, "time_elapsed": 581312, "internal_node_id": "0.0-91.0-9.0"}}, {"uniqueid": "MTK0372:3KXIR214I5NSB26R7MQKRM3XEXN24F", "current_trial": 128, "dateTime": 1510779614037, "trialdata": {"rt": -1, "stimulus": "<p id=\"stim\">+</p>", "key_press": -1, "type": "FIXATION", "trial_type": "single-stim", "trial_index": 128, "time_elapsed": 582814, "internal_node_id": "0.0-92.0-0.0"}}, {"uniqueid": "MTK0372:3KXIR214I5NSB26R7MQKRM3XEXN24F", "current_trial": 129, "dateTime": 1510779615829, "trialdata": {"rt": -1000, "stimulus": "/static/audio/wordpool/WORLD.wav", "key_press": -1, "type": "PRES_AUD", "word": "world", "wordID": 1621, "conditions": [24, 800, "a", 12000], "trial": 3, "serialpos": 0, "trial_type": "single-audio", "trial_index": 129, "time_elapsed": 584607, "internal_node_id": "0.0-93.0"}}, {"uniqueid": "MTK0372:3KXIR214I5NSB26R7MQKRM3XEXN24F", "current_trial": 130, "dateTime": 1510779617574, "trialdata": {"rt": -1000, "stimulus": "/static/audio/wordpool/GLASS.wav", "key_press": -1, "type": "PRES_AUD", "word": "glass", "wordID": 638, "conditions": [24, 800, "a", 12000], "trial": 3, "serialpos": 1, "trial_type": "single-audio", "trial_index": 130, "time_elapsed": 586352, "internal_node_id": "0.0-94.0"}}, {"uniqueid": "MTK0372:3KXIR214I5NSB26R7MQKRM3XEXN24F", "current_trial": 131, "dateTime": 1510779619198, "trialdata": {"rt": -1000, "stimulus": "/static/audio/wordpool/CHIPMUNK.wav", "key_press": -1, "type": "PRES_AUD", "word": "chipmunk", "wordID": 303, "conditions": [24, 800, "a", 12000], "trial": 3, "serialpos": 2, "trial_type": "single-audio", "trial_index": 131, "time_elapsed": 587976, "internal_node_id": "0.0-95.0"}}, {"uniqueid": "MTK0372:3KXIR214I5NSB26R7MQKRM3XEXN24F", "current_trial": 132, "dateTime": 1510779620874, "trialdata": {"rt": -1000, "stimulus": "/static/audio/wordpool/AUTHOR.wav", "key_press": -1, "type": "PRES_AUD", "word": "author", "wordID": 60, "conditions": [24, 800, "a", 12000], "trial": 3, "serialpos": 3, "trial_type": "single-audio", "trial_index": 132, "time_elapsed": 589652, "internal_node_id": "0.0-96.0"}}, {"uniqueid": "MTK0372:3KXIR214I5NSB26R7MQKRM3XEXN24F", "current_trial": 133, "dateTime": 1510779622867, "trialdata": {"rt": -1000, "stimulus": "/static/audio/wordpool/MATCH.wav", "key_press": -1, "type": "PRES_AUD", "word": "match", "wordID": 877, "conditions": [24, 800, "a", 12000], "trial": 3, "serialpos": 4, "trial_type": "single-audio", "trial_index": 133, "time_elapsed": 591645, "internal_node_id": "0.0-97.0"}}, {"uniqueid": "MTK0372:3KXIR214I5NSB26R7MQKRM3XEXN24F", "current_trial": 134, "dateTime": 1510779624556, "trialdata": {"rt": -1000, "stimulus": "/static/audio/wordpool/RUST.wav", "key_press": -1, "type": "PRES_AUD", "word": "rust", "wordID": 1218, "conditions": [24, 800, "a", 12000], "trial": 3, "serialpos": 5, "trial_type": "single-audio", "trial_index": 134, "time_elapsed": 593334, "internal_node_id": "0.0-98.0"}}, {"uniqueid": "MTK0372:3KXIR214I5NSB26R7MQKRM3XEXN24F", "current_trial": 135, "dateTime": 1510779626515, "trialdata": {"rt": -1000, "stimulus": "/static/audio/wordpool/FRAME.wav", "key_press": -1, "type": "PRES_AUD", "word": "frame", "wordID": 599, "conditions": [24, 800, "a", 12000], "trial": 3, "serialpos": 6, "trial_type": "single-audio", "trial_index": 135, "time_elapsed": 595293, "internal_node_id": "0.0-99.0"}}, {"uniqueid": "MTK0372:3KXIR214I5NSB26R7MQKRM3XEXN24F", "current_trial": 136, "dateTime": 1510779628173, "trialdata": {"rt": -1000, "stimulus": "/static/audio/wordpool/BEAVER.wav", "key_press": -1, "type": "PRES_AUD", "word": "beaver", "wordID": 108, "conditions": [24, 800, "a", 12000], "trial": 3, "serialpos": 7, "trial_type": "single-audio", "trial_index": 136, "time_elapsed": 596951, "internal_node_id": "0.0-100.0"}}, {"uniqueid": "MTK0372:3KXIR214I5NSB26R7MQKRM3XEXN24F", "current_trial": 137, "dateTime": 1510779630037, "trialdata": {"rt": -1000, "stimulus": "/static/audio/wordpool/HONEY.wav", "key_press": -1, "type": "PRES_AUD", "word": "honey", "wordID": 712, "conditions": [24, 800, "a", 12000], "trial": 3, "serialpos": 8, "trial_type": "single-audio", "trial_index": 137, "time_elapsed": 598815, "internal_node_id": "0.0-101.0"}}, {"uniqueid": "MTK0372:3KXIR214I5NSB26R7MQKRM3XEXN24F", "current_trial": 138, "dateTime": 1510779632019, "trialdata": {"rt": -1000, "stimulus": "/static/audio/wordpool/BROTHER.wav", "key_press": -1, "type": "PRES_AUD", "word": "brother", "wordID": 178, "conditions": [24, 800, "a", 12000], "trial": 3, "serialpos": 9, "trial_type": "single-audio", "trial_index": 138, "time_elapsed": 600797, "internal_node_id": "0.0-102.0"}}, {"uniqueid": "MTK0372:3KXIR214I5NSB26R7MQKRM3XEXN24F", "current_trial": 139, "dateTime": 1510779633731, "trialdata": {"rt": -1000, "stimulus": "/static/audio/wordpool/HUSBAND.wav", "key_press": -1, "type": "PRES_AUD", "word": "husband", "wordID": 727, "conditions": [24, 800, "a", 12000], "trial": 3, "serialpos": 10, "trial_type": "single-audio", "trial_index": 139, "time_elapsed": 602509, "internal_node_id": "0.0-103.0"}}, {"uniqueid": "MTK0372:3KXIR214I5NSB26R7MQKRM3XEXN24F", "current_trial": 140, "dateTime": 1510779635414, "trialdata": {"rt": -1000, "stimulus": "/static/audio/wordpool/SEAL.wav", "key_press": -1, "type": "PRES_AUD", "word": "seal", "wordID": 1261, "conditions": [24, 800, "a", 12000], "trial": 3, "serialpos": 11, "trial_type": "single-audio", "trial_index": 140, "time_elapsed": 604192, "internal_node_id": "0.0-104.0"}}, {"uniqueid": "MTK0372:3KXIR214I5NSB26R7MQKRM3XEXN24F", "current_trial": 141, "dateTime": 1510779637139, "trialdata": {"rt": -1000, "stimulus": "/static/audio/wordpool/TUTU.wav", "key_press": -1, "type": "PRES_AUD", "word": "tutu", "wordID": 1523, "conditions": [24, 800, "a", 12000], "trial": 3, "serialpos": 12, "trial_type": "single-audio", "trial_index": 141, "time_elapsed": 605917, "internal_node_id": "0.0-105.0"}}, {"uniqueid": "MTK0372:3KXIR214I5NSB26R7MQKRM3XEXN24F", "current_trial": 142, "dateTime": 1510779638827, "trialdata": {"rt": -1000, "stimulus": "/static/audio/wordpool/SWORD.wav", "key_press": -1, "type": "PRES_AUD", "word": "sword", "wordID": 1422, "conditions": [24, 800, "a", 12000], "trial": 3, "serialpos": 13, "trial_type": "single-audio", "trial_index": 142, "time_elapsed": 607605, "internal_node_id": "0.0-106.0"}}, {"uniqueid": "MTK0372:3KXIR214I5NSB26R7MQKRM3XEXN24F", "current_trial": 143, "dateTime": 1510779640656, "trialdata": {"rt": -1000, "stimulus": "/static/audio/wordpool/PANTHER.wav", "key_press": -1, "type": "PRES_AUD", "word": "panther", "wordID": 1008, "conditions": [24, 800, "a", 12000], "trial": 3, "serialpos": 14, "trial_type": "single-audio", "trial_index": 143, "time_elapsed": 609434, "internal_node_id": "0.0-107.0"}}, {"uniqueid": "MTK0372:3KXIR214I5NSB26R7MQKRM3XEXN24F", "current_trial": 144, "dateTime": 1510779642588, "trialdata": {"rt": -1000, "stimulus": "/static/audio/wordpool/COSTUME.wav", "key_press": -1, "type": "PRES_AUD", "word": "costume", "wordID": 382, "conditions": [24, 800, "a", 12000], "trial": 3, "serialpos": 15, "trial_type": "single-audio", "trial_index": 144, "time_elapsed": 611366, "internal_node_id": "0.0-108.0"}}, {"uniqueid": "MTK0372:3KXIR214I5NSB26R7MQKRM3XEXN24F", "current_trial": 145, "dateTime": 1510779644302, "trialdata": {"rt": -1000, "stimulus": "/static/audio/wordpool/RECORD.wav", "key_press": -1, "type": "PRES_AUD", "word": "record", "wordID": 1175, "conditions": [24, 800, "a", 12000], "trial": 3, "serialpos": 16, "trial_type": "single-audio", "trial_index": 145, "time_elapsed": 613080, "internal_node_id": "0.0-109.0"}}, {"uniqueid": "MTK0372:3KXIR214I5NSB26R7MQKRM3XEXN24F", "current_trial": 146, "dateTime": 1510779646147, "trialdata": {"rt": -1000, "stimulus": "/static/audio/wordpool/ONION.wav", "key_press": -1, "type": "PRES_AUD", "word": "onion", "wordID": 976, "conditions": [24, 800, "a", 12000], "trial": 3, "serialpos": 17, "trial_type": "single-audio", "trial_index": 146, "time_elapsed": 614925, "internal_node_id": "0.0-110.0"}}, {"uniqueid": "MTK0372:3KXIR214I5NSB26R7MQKRM3XEXN24F", "current_trial": 147, "dateTime": 1510779647804, "trialdata": {"rt": -1000, "stimulus": "/static/audio/wordpool/RABBIT.wav", "key_press": -1, "type": "PRES_AUD", "word": "rabbit", "wordID": 1151, "conditions": [24, 800, "a", 12000], "trial": 3, "serialpos": 18, "trial_type": "single-audio", "trial_index": 147, "time_elapsed": 616582, "internal_node_id": "0.0-111.0"}}, {"uniqueid": "MTK0372:3KXIR214I5NSB26R7MQKRM3XEXN24F", "current_trial": 148, "dateTime": 1510779649517, "trialdata": {"rt": -1000, "stimulus": "/static/audio/wordpool/TORTOISE.wav", "key_press": -1, "type": "PRES_AUD", "word": "tortoise", "wordID": 1485, "conditions": [24, 800, "a", 12000], "trial": 3, "serialpos": 19, "trial_type": "single-audio", "trial_index": 148, "time_elapsed": 618295, "internal_node_id": "0.0-112.0"}}, {"uniqueid": "MTK0372:3KXIR214I5NSB26R7MQKRM3XEXN24F", "current_trial": 149, "dateTime": 1510779651389, "trialdata": {"rt": -1000, "stimulus": "/static/audio/wordpool/GROUND.wav", "key_press": -1, "type": "PRES_AUD", "word": "ground", "wordID": 665, "conditions": [24, 800, "a", 12000], "trial": 3, "serialpos": 20, "trial_type": "single-audio", "trial_index": 149, "time_elapsed": 620167, "internal_node_id": "0.0-113.0"}}, {"uniqueid": "MTK0372:3KXIR214I5NSB26R7MQKRM3XEXN24F", "current_trial": 150, "dateTime": 1510779653263, "trialdata": {"rt": -1000, "stimulus": "/static/audio/wordpool/CROWN.wav", "key_press": -1, "type": "PRES_AUD", "word": "crown", "wordID": 414, "conditions": [24, 800, "a", 12000], "trial": 3, "serialpos": 21, "trial_type": "single-audio", "trial_index": 150, "time_elapsed": 622041, "internal_node_id": "0.0-114.0"}}, {"uniqueid": "MTK0372:3KXIR214I5NSB26R7MQKRM3XEXN24F", "current_trial": 151, "dateTime": 1510779654888, "trialdata": {"rt": -1000, "stimulus": "/static/audio/wordpool/OUTFIT.wav", "key_press": -1, "type": "PRES_AUD", "word": "outfit", "wordID": 987, "conditions": [24, 800, "a", 12000], "trial": 3, "serialpos": 22, "trial_type": "single-audio", "trial_index": 151, "time_elapsed": 623666, "internal_node_id": "0.0-115.0"}}, {"uniqueid": "MTK0372:3KXIR214I5NSB26R7MQKRM3XEXN24F", "current_trial": 152, "dateTime": 1510779656741, "trialdata": {"rt": -1000, "stimulus": "/static/audio/wordpool/MATTRESS.wav", "key_press": -1, "type": "PRES_AUD", "word": "mattress", "wordID": 878, "conditions": [24, 800, "a", 12000], "trial": 3, "serialpos": 23, "trial_type": "single-audio", "trial_index": 152, "time_elapsed": 625519, "internal_node_id": "0.0-116.0"}}, {"uniqueid": "MTK0372:3KXIR214I5NSB26R7MQKRM3XEXN24F", "current_trial": 153, "dateTime": 1510779657947, "trialdata": {"rt": -1, "stimulus": "", "key_press": -1, "type": "PRE_RECALL_DELAY", "trial_type": "single-stim", "trial_index": 153, "time_elapsed": 626725, "internal_node_id": "0.0-117.0-0.0"}}, {"uniqueid": "MTK0372:3KXIR214I5NSB26R7MQKRM3XEXN24F", "current_trial": 154, "dateTime": 1510779658449, "trialdata": {"rt": -1000, "stimulus": "/static/audio/400Hz.wav", "key_press": -1, "type": "PRE_RECALL_ALERT", "trial_type": "single-audio", "trial_index": 154, "time_elapsed": 627226, "internal_node_id": "0.0-118.0"}}, {"uniqueid": "MTK0372:3KXIR214I5NSB26R7MQKRM3XEXN24F", "current_trial": 155, "dateTime": 1510779718454, "trialdata": {"rt": [3880, 5717, 7053], "recwords": ["actress", "mattress", "outfit"], "type": "FREE_RECALL", "conditions": [24, 800, "a", 12000], "trial": 3, "trial_type": "free-recall", "trial_index": 155, "time_elapsed": 687230, "internal_node_id": "0.0-119.0-0.0"}}, {"uniqueid": "MTK0372:3KXIR214I5NSB26R7MQKRM3XEXN24F", "current_trial": 156, "dateTime": 1510780765276, "trialdata": {"rt": 1044821, "key_press": 68, "type": "INSTRUCTIONS", "trial_type": "text", "trial_index": 156, "time_elapsed": 1734054, "internal_node_id": "0.0-120.0"}}, {"uniqueid": "MTK0372:3KXIR214I5NSB26R7MQKRM3XEXN24F", "current_trial": 157, "dateTime": 1510780779278, "trialdata": {"rt": [11649], "responses": ["13."], "num1": [9, 8], "num2": [3, 9], "num3": [1, 6], "type": "DISTRACTOR", "conditions": [12, 800, "a", 12000], "trial": 4, "trial_type": "math-distractor", "trial_index": 157, "time_elapsed": 1748056, "internal_node_id": "0.0-121.0"}}, {"uniqueid": "MTK0372:3KXIR214I5NSB26R7MQKRM3XEXN24F", "current_trial": 158, "dateTime": 1510780782281, "trialdata": {"rt": -1, "stimulus": "<p id=\"stim\">10</p>", "key_press": -1, "trial_type": "single-stim", "trial_index": 158, "time_elapsed": 1751059, "internal_node_id": "0.0-122.0-0.0"}}, {"uniqueid": "MTK0372:3KXIR214I5NSB26R7MQKRM3XEXN24F", "current_trial": 159, "dateTime": 1510780783282, "trialdata": {"rt": -1, "stimulus": "<p id=\"stim\">9</p>", "key_press": -1, "trial_type": "single-stim", "trial_index": 159, "time_elapsed": 1752060, "internal_node_id": "0.0-122.0-1.0"}}, {"uniqueid": "MTK0372:3KXIR214I5NSB26R7MQKRM3XEXN24F", "current_trial": 160, "dateTime": 1510780784283, "trialdata": {"rt": -1, "stimulus": "<p id=\"stim\">8</p>", "key_press": -1, "trial_type": "single-stim", "trial_index": 160, "time_elapsed": 1753061, "internal_node_id": "0.0-122.0-2.0"}}, {"uniqueid": "MTK0372:3KXIR214I5NSB26R7MQKRM3XEXN24F", "current_trial": 161, "dateTime": 1510780785284, "trialdata": {"rt": -1, "stimulus": "<p id=\"stim\">7</p>", "key_press": -1, "trial_type": "single-stim", "trial_index": 161, "time_elapsed": 1754062, "internal_node_id": "0.0-122.0-3.0"}}, {"uniqueid": "MTK0372:3KXIR214I5NSB26R7MQKRM3XEXN24F", "current_trial": 162, "dateTime": 1510780786285, "trialdata": {"rt": -1, "stimulus": "<p id=\"stim\">6</p>", "key_press": -1, "trial_type": "single-stim", "trial_index": 162, "time_elapsed": 1755063, "internal_node_id": "0.0-122.0-4.0"}}, {"uniqueid": "MTK0372:3KXIR214I5NSB26R7MQKRM3XEXN24F", "current_trial": 163, "dateTime": 1510780787287, "trialdata": {"rt": 430, "stimulus": "<p id=\"stim\">5</p>", "key_press": 91, "trial_type": "single-stim", "trial_index": 163, "time_elapsed": 1756064, "internal_node_id": "0.0-122.0-5.0"}}, {"uniqueid": "MTK0372:3KXIR214I5NSB26R7MQKRM3XEXN24F", "current_trial": 164, "dateTime": 1510780788291, "trialdata": {"rt": -1, "stimulus": "<p id=\"stim\">4</p>", "key_press": -1, "trial_type": "single-stim", "trial_index": 164, "time_elapsed": 1757069, "internal_node_id": "0.0-122.0-6.0"}}, {"uniqueid": "MTK0372:3KXIR214I5NSB26R7MQKRM3XEXN24F", "current_trial": 165, "dateTime": 1510780789292, "trialdata": {"rt": -1, "stimulus": "<p id=\"stim\">3</p>", "key_press": -1, "trial_type": "single-stim", "trial_index": 165, "time_elapsed": 1758070, "internal_node_id": "0.0-122.0-7.0"}}, {"uniqueid": "MTK0372:3KXIR214I5NSB26R7MQKRM3XEXN24F", "current_trial": 166, "dateTime": 1510780790293, "trialdata": {"rt": -1, "stimulus": "<p id=\"stim\">2</p>", "key_press": -1, "trial_type": "single-stim", "trial_index": 166, "time_elapsed": 1759071, "internal_node_id": "0.0-122.0-8.0"}}, {"uniqueid": "MTK0372:3KXIR214I5NSB26R7MQKRM3XEXN24F", "current_trial": 167, "dateTime": 1510780791294, "trialdata": {"rt": -1, "stimulus": "<p id=\"stim\">1</p>", "key_press": -1, "trial_type": "single-stim", "trial_index": 167, "time_elapsed": 1760072, "internal_node_id": "0.0-122.0-9.0"}}, {"uniqueid": "MTK0372:3KXIR214I5NSB26R7MQKRM3XEXN24F", "current_trial": 168, "dateTime": 1510780792795, "trialdata": {"rt": -1, "stimulus": "<p id=\"stim\">+</p>", "key_press": -1, "type": "FIXATION", "trial_type": "single-stim", "trial_index": 168, "time_elapsed": 1761573, "internal_node_id": "0.0-123.0-0.0"}}, {"uniqueid": "MTK0372:3KXIR214I5NSB26R7MQKRM3XEXN24F", "current_trial": 169, "dateTime": 1510780794765, "trialdata": {"rt": -1000, "stimulus": "/static/audio/wordpool/PLIERS.wav", "key_press": -1, "type": "PRES_AUD", "word": "pliers", "wordID": 1088, "conditions": [12, 800, "a", 12000], "trial": 4, "serialpos": 0, "trial_type": "single-audio", "trial_index": 169, "time_elapsed": 1763543, "internal_node_id": "0.0-124.0"}}, {"uniqueid": "MTK0372:3KXIR214I5NSB26R7MQKRM3XEXN24F", "current_trial": 170, "dateTime": 1510780796657, "trialdata": {"rt": -1000, "stimulus": "/static/audio/wordpool/FLASK.wav", "key_press": -1, "type": "PRES_AUD", "word": "flask", "wordID": 575, "conditions": [12, 800, "a", 12000], "trial": 4, "serialpos": 1, "trial_type": "single-audio", "trial_index": 170, "time_elapsed": 1765435, "internal_node_id": "0.0-125.0"}}, {"uniqueid": "MTK0372:3KXIR214I5NSB26R7MQKRM3XEXN24F", "current_trial": 171, "dateTime": 1510780798469, "trialdata": {"rt": -1000, "stimulus": "/static/audio/wordpool/BEAKER.wav", "key_press": -1, "type": "PRES_AUD", "word": "beaker", "wordID": 103, "conditions": [12, 800, "a", 12000], "trial": 4, "serialpos": 2, "trial_type": "single-audio", "trial_index": 171, "time_elapsed": 1767247, "internal_node_id": "0.0-126.0"}}, {"uniqueid": "MTK0372:3KXIR214I5NSB26R7MQKRM3XEXN24F", "current_trial": 172, "dateTime": 1510780800206, "trialdata": {"rt": -1000, "stimulus": "/static/audio/wordpool/PIGMENT.wav", "key_press": -1, "type": "PRES_AUD", "word": "pigment", "wordID": 1065, "conditions": [12, 800, "a", 12000], "trial": 4, "serialpos": 3, "trial_type": "single-audio", "trial_index": 172, "time_elapsed": 1768984, "internal_node_id": "0.0-127.0"}}, {"uniqueid": "MTK0372:3KXIR214I5NSB26R7MQKRM3XEXN24F", "current_trial": 173, "dateTime": 1510780802189, "trialdata": {"rt": -1000, "stimulus": "/static/audio/wordpool/TWEEZERS.wav", "key_press": -1, "type": "PRES_AUD", "word": "tweezers", "wordID": 1525, "conditions": [12, 800, "a", 12000], "trial": 4, "serialpos": 4, "trial_type": "single-audio", "trial_index": 173, "time_elapsed": 1770967, "internal_node_id": "0.0-128.0"}}, {"uniqueid": "MTK0372:3KXIR214I5NSB26R7MQKRM3XEXN24F", "current_trial": 174, "dateTime": 1510780804074, "trialdata": {"rt": -1000, "stimulus": "/static/audio/wordpool/DAISY.wav", "key_press": -1, "type": "PRES_AUD", "word": "daisy", "wordID": 434, "conditions": [12, 800, "a", 12000], "trial": 4, "serialpos": 5, "trial_type": "single-audio", "trial_index": 174, "time_elapsed": 1772852, "internal_node_id": "0.0-129.0"}}, {"uniqueid": "MTK0372:3KXIR214I5NSB26R7MQKRM3XEXN24F", "current_trial": 175, "dateTime": 1510780805935, "trialdata": {"rt": -1000, "stimulus": "/static/audio/wordpool/BUREAU.wav", "key_press": -1, "type": "PRES_AUD", "word": "bureau", "wordID": 198, "conditions": [12, 800, "a", 12000], "trial": 4, "serialpos": 6, "trial_type": "single-audio", "trial_index": 175, "time_elapsed": 1774713, "internal_node_id": "0.0-130.0"}}, {"uniqueid": "MTK0372:3KXIR214I5NSB26R7MQKRM3XEXN24F", "current_trial": 176, "dateTime": 1510780807656, "trialdata": {"rt": -1000, "stimulus": "/static/audio/wordpool/STALLION.wav", "key_press": -1, "type": "PRES_AUD", "word": "stallion", "wordID": 1368, "conditions": [12, 800, "a", 12000], "trial": 4, "serialpos": 7, "trial_type": "single-audio", "trial_index": 176, "time_elapsed": 1776434, "internal_node_id": "0.0-131.0"}}, {"uniqueid": "MTK0372:3KXIR214I5NSB26R7MQKRM3XEXN24F", "current_trial": 177, "dateTime": 1510780809604, "trialdata": {"rt": -1000, "stimulus": "/static/audio/wordpool/XEROX.wav", "key_press": -1, "type": "PRES_AUD", "word": "xerox", "wordID": 1627, "conditions": [12, 800, "a", 12000], "trial": 4, "serialpos": 8, "trial_type": "single-audio", "trial_index": 177, "time_elapsed": 1778382, "internal_node_id": "0.0-132.0"}}, {"uniqueid": "MTK0372:3KXIR214I5NSB26R7MQKRM3XEXN24F", "current_trial": 178, "dateTime": 1510780811584, "trialdata": {"rt": -1000, "stimulus": "/static/audio/wordpool/CASHIER.wav", "key_press": -1, "type": "PRES_AUD", "word": "cashier", "wordID": 253, "conditions": [12, 800, "a", 12000], "trial": 4, "serialpos": 9, "trial_type": "single-audio", "trial_index": 178, "time_elapsed": 1780362, "internal_node_id": "0.0-133.0"}}, {"uniqueid": "MTK0372:3KXIR214I5NSB26R7MQKRM3XEXN24F", "current_trial": 179, "dateTime": 1510780813489, "trialdata": {"rt": -1000, "stimulus": "/static/audio/wordpool/COOK.wav", "key_press": -1, "type": "PRES_AUD", "word": "cook", "wordID": 371, "conditions": [12, 800, "a", 12000], "trial": 4, "serialpos": 10, "trial_type": "single-audio", "trial_index": 179, "time_elapsed": 1782267, "internal_node_id": "0.0-134.0"}}, {"uniqueid": "MTK0372:3KXIR214I5NSB26R7MQKRM3XEXN24F", "current_trial": 180, "dateTime": 1510780815216, "trialdata": {"rt": -1000, "stimulus": "/static/audio/wordpool/BLENDER.wav", "key_press": -1, "type": "PRES_AUD", "word": "blender", "wordID": 135, "conditions": [12, 800, "a", 12000], "trial": 4, "serialpos": 11, "trial_type": "single-audio", "trial_index": 180, "time_elapsed": 1783994, "internal_node_id": "0.0-135.0"}}, {"uniqueid": "MTK0372:3KXIR214I5NSB26R7MQKRM3XEXN24F", "current_trial": 181, "dateTime": 1510780816596, "trialdata": {"rt": -1, "stimulus": "", "key_press": -1, "type": "PRE_RECALL_DELAY", "trial_type": "single-stim", "trial_index": 181, "time_elapsed": 1785374, "internal_node_id": "0.0-136.0-0.0"}}, {"uniqueid": "MTK0372:3KXIR214I5NSB26R7MQKRM3XEXN24F", "current_trial": 182, "dateTime": 1510780817097, "trialdata": {"rt": -1000, "stimulus": "/static/audio/400Hz.wav", "key_press": -1, "type": "PRE_RECALL_ALERT", "trial_type": "single-audio", "trial_index": 182, "time_elapsed": 1785875, "internal_node_id": "0.0-137.0"}}, {"uniqueid": "MTK0372:3KXIR214I5NSB26R7MQKRM3XEXN24F", "current_trial": 183, "dateTime": 1510780877101, "trialdata": {"rt": [3441, 4503, 8720, 11177, 11922], "recwords": ["blender", "cook", "hero", "stallion", "cashier"], "type": "FREE_RECALL", "conditions": [12, 800, "a", 12000], "trial": 4, "trial_type": "free-recall", "trial_index": 183, "time_elapsed": 1845877, "internal_node_id": "0.0-138.0-0.0"}}, {"uniqueid": "MTK0372:3KXIR214I5NSB26R7MQKRM3XEXN24F", "current_trial": 184, "dateTime": 1510780889910, "trialdata": {"rt": 10808, "key_press": 68, "type": "INSTRUCTIONS", "trial_type": "text", "trial_index": 184, "time_elapsed": 1858688, "internal_node_id": "0.0-139.0"}}, {"uniqueid": "MTK0372:3KXIR214I5NSB26R7MQKRM3XEXN24F", "current_trial": 185, "dateTime": 1510780903913, "trialdata": {"rt": [2283, 3332, 4669, 6121, 7396, 8325, 9608, 11259], "responses": ["17", "10", "18", "15", "17", "5", "17", "11"], "num1": [8, 6, 9, 2, 1, 2, 3, 1, 7], "num2": [6, 2, 6, 5, 8, 2, 5, 1, 3], "num3": [3, 2, 3, 8, 8, 1, 9, 9, 2], "type": "DISTRACTOR", "conditions": [12, 1600, "a", 12000], "trial": 5, "trial_type": "math-distractor", "trial_index": 185, "time_elapsed": 1872691, "internal_node_id": "0.0-140.0"}}, {"uniqueid": "MTK0372:3KXIR214I5NSB26R7MQKRM3XEXN24F", "current_trial": 186, "dateTime": 1510780906915, "trialdata": {"rt": -1, "stimulus": "<p id=\"stim\">10</p>", "key_press": -1, "trial_type": "single-stim", "trial_index": 186, "time_elapsed": 1875693, "internal_node_id": "0.0-141.0-0.0"}}, {"uniqueid": "MTK0372:3KXIR214I5NSB26R7MQKRM3XEXN24F", "current_trial": 187, "dateTime": 1510780907917, "trialdata": {"rt": -1, "stimulus": "<p id=\"stim\">9</p>", "key_press": -1, "trial_type": "single-stim", "trial_index": 187, "time_elapsed": 1876694, "internal_node_id": "0.0-141.0-1.0"}}, {"uniqueid": "MTK0372:3KXIR214I5NSB26R7MQKRM3XEXN24F", "current_trial": 188, "dateTime": 1510780908919, "trialdata": {"rt": -1, "stimulus": "<p id=\"stim\">8</p>", "key_press": -1, "trial_type": "single-stim", "trial_index": 188, "time_elapsed": 1877697, "internal_node_id": "0.0-141.0-2.0"}}, {"uniqueid": "MTK0372:3KXIR214I5NSB26R7MQKRM3XEXN24F", "current_trial": 189, "dateTime": 1510780909921, "trialdata": {"rt": -1, "stimulus": "<p id=\"stim\">7</p>", "key_press": -1, "trial_type": "single-stim", "trial_index": 189, "time_elapsed": 1878699, "internal_node_id": "0.0-141.0-3.0"}}, {"uniqueid": "MTK0372:3KXIR214I5NSB26R7MQKRM3XEXN24F", "current_trial": 190, "dateTime": 1510780910924, "trialdata": {"rt": -1, "stimulus": "<p id=\"stim\">6</p>", "key_press": -1, "trial_type": "single-stim", "trial_index": 190, "time_elapsed": 1879702, "internal_node_id": "0.0-141.0-4.0"}}, {"uniqueid": "MTK0372:3KXIR214I5NSB26R7MQKRM3XEXN24F", "current_trial": 191, "dateTime": 1510780911925, "trialdata": {"rt": -1, "stimulus": "<p id=\"stim\">5</p>", "key_press": -1, "trial_type": "single-stim", "trial_index": 191, "time_elapsed": 1880703, "internal_node_id": "0.0-141.0-5.0"}}, {"uniqueid": "MTK0372:3KXIR214I5NSB26R7MQKRM3XEXN24F", "current_trial": 192, "dateTime": 1510780912926, "trialdata": {"rt": -1, "stimulus": "<p id=\"stim\">4</p>", "key_press": -1, "trial_type": "single-stim", "trial_index": 192, "time_elapsed": 1881704, "internal_node_id": "0.0-141.0-6.0"}}, {"uniqueid": "MTK0372:3KXIR214I5NSB26R7MQKRM3XEXN24F", "current_trial": 193, "dateTime": 1510780913927, "trialdata": {"rt": -1, "stimulus": "<p id=\"stim\">3</p>", "key_press": -1, "trial_type": "single-stim", "trial_index": 193, "time_elapsed": 1882705, "internal_node_id": "0.0-141.0-7.0"}}, {"uniqueid": "MTK0372:3KXIR214I5NSB26R7MQKRM3XEXN24F", "current_trial": 194, "dateTime": 1510780914929, "trialdata": {"rt": -1, "stimulus": "<p id=\"stim\">2</p>", "key_press": -1, "trial_type": "single-stim", "trial_index": 194, "time_elapsed": 1883707, "internal_node_id": "0.0-141.0-8.0"}}, {"uniqueid": "MTK0372:3KXIR214I5NSB26R7MQKRM3XEXN24F", "current_trial": 195, "dateTime": 1510780915930, "trialdata": {"rt": -1, "stimulus": "<p id=\"stim\">1</p>", "key_press": -1, "trial_type": "single-stim", "trial_index": 195, "time_elapsed": 1884708, "internal_node_id": "0.0-141.0-9.0"}}, {"uniqueid": "MTK0372:3KXIR214I5NSB26R7MQKRM3XEXN24F", "current_trial": 196, "dateTime": 1510780917431, "trialdata": {"rt": -1, "stimulus": "<p id=\"stim\">+</p>", "key_press": -1, "type": "FIXATION", "trial_type": "single-stim", "trial_index": 196, "time_elapsed": 1886209, "internal_node_id": "0.0-142.0-0.0"}}, {"uniqueid": "MTK0372:3KXIR214I5NSB26R7MQKRM3XEXN24F", "current_trial": 197, "dateTime": 1510780920221, "trialdata": {"rt": -1000, "stimulus": "/static/audio/wordpool/SUNRISE.wav", "key_press": -1, "type": "PRES_AUD", "word": "sunrise", "wordID": 1406, "conditions": [12, 1600, "a", 12000], "trial": 5, "serialpos": 0, "trial_type": "single-audio", "trial_index": 197, "time_elapsed": 1888999, "internal_node_id": "0.0-143.0"}}, {"uniqueid": "MTK0372:3KXIR214I5NSB26R7MQKRM3XEXN24F", "current_trial": 198, "dateTime": 1510780922810, "trialdata": {"rt": -1000, "stimulus": "/static/audio/wordpool/SUNSET.wav", "key_press": -1, "type": "PRES_AUD", "word": "sunset", "wordID": 1407, "conditions": [12, 1600, "a", 12000], "trial": 5, "serialpos": 1, "trial_type": "single-audio", "trial_index": 198, "time_elapsed": 1891588, "internal_node_id": "0.0-144.0"}}, {"uniqueid": "MTK0372:3KXIR214I5NSB26R7MQKRM3XEXN24F", "current_trial": 199, "dateTime": 1510780925598, "trialdata": {"rt": -1000, "stimulus": "/static/audio/wordpool/CABIN.wav", "key_press": -1, "type": "PRES_AUD", "word": "cabin", "wordID": 210, "conditions": [12, 1600, "a", 12000], "trial": 5, "serialpos": 2, "trial_type": "single-audio", "trial_index": 199, "time_elapsed": 1894376, "internal_node_id": "0.0-145.0"}}, {"uniqueid": "MTK0372:3KXIR214I5NSB26R7MQKRM3XEXN24F", "current_trial": 200, "dateTime": 1510780928260, "trialdata": {"rt": -1000, "stimulus": "/static/audio/wordpool/JUGGLER.wav", "key_press": -1, "type": "PRES_AUD", "word": "juggler", "wordID": 762, "conditions": [12, 1600, "a", 12000], "trial": 5, "serialpos": 3, "trial_type": "single-audio", "trial_index": 200, "time_elapsed": 1897038, "internal_node_id": "0.0-146.0"}}, {"uniqueid": "MTK0372:3KXIR214I5NSB26R7MQKRM3XEXN24F", "current_trial": 201, "dateTime": 1510780931038, "trialdata": {"rt": -1000, "stimulus": "/static/audio/wordpool/BACON.wav", "key_press": -1, "type": "PRES_AUD", "word": "bacon", "wordID": 66, "conditions": [12, 1600, "a", 12000], "trial": 5, "serialpos": 4, "trial_type": "single-audio", "trial_index": 201, "time_elapsed": 1899816, "internal_node_id": "0.0-147.0"}}, {"uniqueid": "MTK0372:3KXIR214I5NSB26R7MQKRM3XEXN24F", "current_trial": 202, "dateTime": 1510780933795, "trialdata": {"rt": -1000, "stimulus": "/static/audio/wordpool/HOUND.wav", "key_press": -1, "type": "PRES_AUD", "word": "hound", "wordID": 723, "conditions": [12, 1600, "a", 12000], "trial": 5, "serialpos": 5, "trial_type": "single-audio", "trial_index": 202, "time_elapsed": 1902573, "internal_node_id": "0.0-148.0"}}, {"uniqueid": "MTK0372:3KXIR214I5NSB26R7MQKRM3XEXN24F", "current_trial": 203, "dateTime": 1510780936420, "trialdata": {"rt": -1000, "stimulus": "/static/audio/wordpool/BLADE.wav", "key_press": -1, "type": "PRES_AUD", "word": "blade", "wordID": 133, "conditions": [12, 1600, "a", 12000], "trial": 5, "serialpos": 6, "trial_type": "single-audio", "trial_index": 203, "time_elapsed": 1905198, "internal_node_id": "0.0-149.0"}}, {"uniqueid": "MTK0372:3KXIR214I5NSB26R7MQKRM3XEXN24F", "current_trial": 204, "dateTime": 1510780939167, "trialdata": {"rt": -1000, "stimulus": "/static/audio/wordpool/NECKLACE.wav", "key_press": -1, "type": "PRES_AUD", "word": "necklace", "wordID": 939, "conditions": [12, 1600, "a", 12000], "trial": 5, "serialpos": 7, "trial_type": "single-audio", "trial_index": 204, "time_elapsed": 1907945, "internal_node_id": "0.0-150.0"}}, {"uniqueid": "MTK0372:3KXIR214I5NSB26R7MQKRM3XEXN24F", "current_trial": 205, "dateTime": 1510780941815, "trialdata": {"rt": -1000, "stimulus": "/static/audio/wordpool/CREVICE.wav", "key_press": -1, "type": "PRES_AUD", "word": "crevice", "wordID": 404, "conditions": [12, 1600, "a", 12000], "trial": 5, "serialpos": 8, "trial_type": "single-audio", "trial_index": 205, "time_elapsed": 1910593, "internal_node_id": "0.0-151.0"}}, {"uniqueid": "MTK0372:3KXIR214I5NSB26R7MQKRM3XEXN24F", "current_trial": 206, "dateTime": 1510780944265, "trialdata": {"rt": -1000, "stimulus": "/static/audio/wordpool/FRECKLE.wav", "key_press": -1, "type": "PRES_AUD", "word": "freckle", "wordID": 601, "conditions": [12, 1600, "a", 12000], "trial": 5, "serialpos": 9, "trial_type": "single-audio", "trial_index": 206, "time_elapsed": 1913043, "internal_node_id": "0.0-152.0"}}, {"uniqueid": "MTK0372:3KXIR214I5NSB26R7MQKRM3XEXN24F", "current_trial": 207, "dateTime": 1510780946787, "trialdata": {"rt": -1000, "stimulus": "/static/audio/wordpool/LUMBER.wav", "key_press": -1, "type": "PRES_AUD", "word": "lumber", "wordID": 847, "conditions": [12, 1600, "a", 12000], "trial": 5, "serialpos": 10, "trial_type": "single-audio", "trial_index": 207, "time_elapsed": 1915565, "internal_node_id": "0.0-153.0"}}, {"uniqueid": "MTK0372:3KXIR214I5NSB26R7MQKRM3XEXN24F", "current_trial": 208, "dateTime": 1510780949457, "trialdata": {"rt": -1000, "stimulus": "/static/audio/wordpool/HANDBAG.wav", "key_press": -1, "type": "PRES_AUD", "word": "handbag", "wordID": 683, "conditions": [12, 1600, "a", 12000], "trial": 5, "serialpos": 11, "trial_type": "single-audio", "trial_index": 208, "time_elapsed": 1918235, "internal_node_id": "0.0-154.0"}}, {"uniqueid": "MTK0372:3KXIR214I5NSB26R7MQKRM3XEXN24F", "current_trial": 209, "dateTime": 1510780950804, "trialdata": {"rt": -1, "stimulus": "", "key_press": -1, "type": "PRE_RECALL_DELAY", "trial_type": "single-stim", "trial_index": 209, "time_elapsed": 1919582, "internal_node_id": "0.0-155.0-0.0"}}, {"uniqueid": "MTK0372:3KXIR214I5NSB26R7MQKRM3XEXN24F", "current_trial": 210, "dateTime": 1510780951308, "trialdata": {"rt": -1000, "stimulus": "/static/audio/400Hz.wav", "key_press": -1, "type": "PRE_RECALL_ALERT", "trial_type": "single-audio", "trial_index": 210, "time_elapsed": 1920086, "internal_node_id": "0.0-156.0"}}, {"uniqueid": "MTK0372:3KXIR214I5NSB26R7MQKRM3XEXN24F", "current_trial": 211, "dateTime": 1510781011314, "trialdata": {"rt": [2519, 3457, 4273, 5677, 8048, 14182], "recwords": ["handbag", "sunrise", "sunset", "cabin", "jungler", "lumberjack"], "type": "FREE_RECALL", "conditions": [12, 1600, "a", 12000], "trial": 5, "trial_type": "free-recall", "trial_index": 211, "time_elapsed": 1980089, "internal_node_id": "0.0-157.0-0.0"}}, {"uniqueid": "MTK0372:3KXIR214I5NSB26R7MQKRM3XEXN24F", "current_trial": 212, "dateTime": 1510781057560, "trialdata": {"rt": 44244, "key_press": 13, "type": "INSTRUCTIONS", "trial_type": "text", "trial_index": 212, "time_elapsed": 2026338, "internal_node_id": "0.0-158.0"}}, {"uniqueid": "MTK0372:3KXIR214I5NSB26R7MQKRM3XEXN24F", "current_trial": 213, "dateTime": 1510781083564, "trialdata": {"rt": [1786, 2803, 3915, 4954, 5989, 7413, 8644, 10168, 11298, 12237, 13388, 15004, 16371, 17565, 19476, 21219, 22122], "responses": ["12", "21", "12", "15", "11", "12", "20", "20", "18", "18", "13", "13", "22", "13", "19", "25", "24"], "num1": [6, 7, 1, 5, 5, 3, 8, 6, 8, 3, 1, 1, 7, 7, 8, 9, 6, 5], "num2": [5, 7, 3, 6, 2, 4, 8, 9, 1, 7, 5, 3, 7, 5, 3, 7, 6, 4], "num3": [1, 7, 8, 4, 4, 5, 6, 5, 9, 8, 7, 9, 8, 1, 8, 9, 6, 5], "type": "DISTRACTOR", "conditions": [12, 800, "v", 24000], "trial": 6, "trial_type": "math-distractor", "trial_index": 213, "time_elapsed": 2052342, "internal_node_id": "0.0-159.0"}}, {"uniqueid": "MTK0372:3KXIR214I5NSB26R7MQKRM3XEXN24F", "current_trial": 214, "dateTime": 1510781086567, "trialdata": {"rt": -1, "stimulus": "<p id=\"stim\">10</p>", "key_press": -1, "trial_type": "single-stim", "trial_index": 214, "time_elapsed": 2055345, "internal_node_id": "0.0-160.0-0.0"}}, {"uniqueid": "MTK0372:3KXIR214I5NSB26R7MQKRM3XEXN24F", "current_trial": 215, "dateTime": 1510781087568, "trialdata": {"rt": -1, "stimulus": "<p id=\"stim\">9</p>", "key_press": -1, "trial_type": "single-stim", "trial_index": 215, "time_elapsed": 2056346, "internal_node_id": "0.0-160.0-1.0"}}, {"uniqueid": "MTK0372:3KXIR214I5NSB26R7MQKRM3XEXN24F", "current_trial": 216, "dateTime": 1510781088569, "trialdata": {"rt": -1, "stimulus": "<p id=\"stim\">8</p>", "key_press": -1, "trial_type": "single-stim", "trial_index": 216, "time_elapsed": 2057347, "internal_node_id": "0.0-160.0-2.0"}}, {"uniqueid": "MTK0372:3KXIR214I5NSB26R7MQKRM3XEXN24F", "current_trial": 217, "dateTime": 1510781089571, "trialdata": {"rt": -1, "stimulus": "<p id=\"stim\">7</p>", "key_press": -1, "trial_type": "single-stim", "trial_index": 217, "time_elapsed": 2058348, "internal_node_id": "0.0-160.0-3.0"}}, {"uniqueid": "MTK0372:3KXIR214I5NSB26R7MQKRM3XEXN24F", "current_trial": 218, "dateTime": 1510781090572, "trialdata": {"rt": -1, "stimulus": "<p id=\"stim\">6</p>", "key_press": -1, "trial_type": "single-stim", "trial_index": 218, "time_elapsed": 2059350, "internal_node_id": "0.0-160.0-4.0"}}, {"uniqueid": "MTK0372:3KXIR214I5NSB26R7MQKRM3XEXN24F", "current_trial": 219, "dateTime": 1510781091573, "trialdata": {"rt": -1, "stimulus": "<p id=\"stim\">5</p>", "key_press": -1, "trial_type": "single-stim", "trial_index": 219, "time_elapsed": 2060351, "internal_node_id": "0.0-160.0-5.0"}}, {"uniqueid": "MTK0372:3KXIR214I5NSB26R7MQKRM3XEXN24F", "current_trial": 220, "dateTime": 1510781092574, "trialdata": {"rt": -1, "stimulus": "<p id=\"stim\">4</p>", "key_press": -1, "trial_type": "single-stim", "trial_index": 220, "time_elapsed": 2061352, "internal_node_id": "0.0-160.0-6.0"}}, {"uniqueid": "MTK0372:3KXIR214I5NSB26R7MQKRM3XEXN24F", "current_trial": 221, "dateTime": 1510781093575, "trialdata": {"rt": -1, "stimulus": "<p id=\"stim\">3</p>", "key_press": -1, "trial_type": "single-stim", "trial_index": 221, "time_elapsed": 2062353, "internal_node_id": "0.0-160.0-7.0"}}, {"uniqueid": "MTK0372:3KXIR214I5NSB26R7MQKRM3XEXN24F", "current_trial": 222, "dateTime": 1510781094577, "trialdata": {"rt": -1, "stimulus": "<p id=\"stim\">2</p>", "key_press": -1, "trial_type": "single-stim", "trial_index": 222, "time_elapsed": 2063355, "internal_node_id": "0.0-160.0-8.0"}}, {"uniqueid": "MTK0372:3KXIR214I5NSB26R7MQKRM3XEXN24F", "current_trial": 223, "dateTime": 1510781095579, "trialdata": {"rt": -1, "stimulus": "<p id=\"stim\">1</p>", "key_press": -1, "trial_type": "single-stim", "trial_index": 223, "time_elapsed": 2064357, "internal_node_id": "0.0-160.0-9.0"}}, {"uniqueid": "MTK0372:3KXIR214I5NSB26R7MQKRM3XEXN24F", "current_trial": 224, "dateTime": 1510781097082, "trialdata": {"rt": -1, "stimulus": "<p id=\"stim\">+</p>", "key_press": -1, "type": "FIXATION", "trial_type": "single-stim", "trial_index": 224, "time_elapsed": 2065860, "internal_node_id": "0.0-161.0-0.0"}}, {"uniqueid": "MTK0372:3KXIR214I5NSB26R7MQKRM3XEXN24F", "current_trial": 225, "dateTime": 1510781097883, "trialdata": {"rt": -1, "stimulus": "<p id=\"stim\">EMPIRE</p>", "key_press": -1, "type": "PRES_VIS", "word": "empire", "wordID": 529, "conditions": [12, 800, "v", 24000], "trial": 6, "serialpos": 0, "trial_type": "single-stim", "trial_index": 225, "time_elapsed": 2066661, "internal_node_id": "0.0-162.0"}}, {"uniqueid": "MTK0372:3KXIR214I5NSB26R7MQKRM3XEXN24F", "current_trial": 226, "dateTime": 1510781099769, "trialdata": {"rt": -1, "stimulus": "<p id=\"stim\">SCISSORS</p>", "key_press": -1, "type": "PRES_VIS", "word": "scissors", "wordID": 1249, "conditions": [12, 800, "v", 24000], "trial": 6, "serialpos": 1, "trial_type": "single-stim", "trial_index": 226, "time_elapsed": 2068546, "internal_node_id": "0.0-163.0"}}, {"uniqueid": "MTK0372:3KXIR214I5NSB26R7MQKRM3XEXN24F", "current_trial": 227, "dateTime": 1510781101396, "trialdata": {"rt": -1, "stimulus": "<p id=\"stim\">SWIMMER</p>", "key_press": -1, "type": "PRES_VIS", "word": "swimmer", "wordID": 1419, "conditions": [12, 800, "v", 24000], "trial": 6, "serialpos": 2, "trial_type": "single-stim", "trial_index": 227, "time_elapsed": 2070174, "internal_node_id": "0.0-164.0"}}, {"uniqueid": "MTK0372:3KXIR214I5NSB26R7MQKRM3XEXN24F", "current_trial": 228, "dateTime": 1510781103158, "trialdata": {"rt": -1, "stimulus": "<p id=\"stim\">BASEMENT</p>", "key_press": -1, "type": "PRES_VIS", "word": "basement", "wordID": 93, "conditions": [12, 800, "v", 24000], "trial": 6, "serialpos": 3, "trial_type": "single-stim", "trial_index": 228, "time_elapsed": 2071936, "internal_node_id": "0.0-165.0"}}, {"uniqueid": "MTK0372:3KXIR214I5NSB26R7MQKRM3XEXN24F", "current_trial": 229, "dateTime": 1510781105118, "trialdata": {"rt": -1, "stimulus": "<p id=\"stim\">KNIFE</p>", "key_press": -1, "type": "PRES_VIS", "word": "knife", "wordID": 784, "conditions": [12, 800, "v", 24000], "trial": 6, "serialpos": 4, "trial_type": "single-stim", "trial_index": 229, "time_elapsed": 2073895, "internal_node_id": "0.0-166.0"}}, {"uniqueid": "MTK0372:3KXIR214I5NSB26R7MQKRM3XEXN24F", "current_trial": 230, "dateTime": 1510781106728, "trialdata": {"rt": -1, "stimulus": "<p id=\"stim\">GHETTO</p>", "key_press": -1, "type": "PRES_VIS", "word": "ghetto", "wordID": 632, "conditions": [12, 800, "v", 24000], "trial": 6, "serialpos": 5, "trial_type": "single-stim", "trial_index": 230, "time_elapsed": 2075506, "internal_node_id": "0.0-167.0"}}, {"uniqueid": "MTK0372:3KXIR214I5NSB26R7MQKRM3XEXN24F", "current_trial": 231, "dateTime": 1510781108429, "trialdata": {"rt": -1, "stimulus": "<p id=\"stim\">WIDOW</p>", "key_press": -1, "type": "PRES_VIS", "word": "widow", "wordID": 1607, "conditions": [12, 800, "v", 24000], "trial": 6, "serialpos": 6, "trial_type": "single-stim", "trial_index": 231, "time_elapsed": 2077206, "internal_node_id": "0.0-168.0"}}, {"uniqueid": "MTK0372:3KXIR214I5NSB26R7MQKRM3XEXN24F", "current_trial": 232, "dateTime": 1510781110393, "trialdata": {"rt": -1, "stimulus": "<p id=\"stim\">TUNNEL</p>", "key_press": -1, "type": "PRES_VIS", "word": "tunnel", "wordID": 1518, "conditions": [12, 800, "v", 24000], "trial": 6, "serialpos": 7, "trial_type": "single-stim", "trial_index": 232, "time_elapsed": 2079171, "internal_node_id": "0.0-169.0"}}, {"uniqueid": "MTK0372:3KXIR214I5NSB26R7MQKRM3XEXN24F", "current_trial": 233, "dateTime": 1510781112371, "trialdata": {"rt": -1, "stimulus": "<p id=\"stim\">RIVER</p>", "key_press": -1, "type": "PRES_VIS", "word": "river", "wordID": 1193, "conditions": [12, 800, "v", 24000], "trial": 6, "serialpos": 8, "trial_type": "single-stim", "trial_index": 233, "time_elapsed": 2081148, "internal_node_id": "0.0-170.0"}}, {"uniqueid": "MTK0372:3KXIR214I5NSB26R7MQKRM3XEXN24F", "current_trial": 234, "dateTime": 1510781114232, "trialdata": {"rt": -1, "stimulus": "<p id=\"stim\">COBRA</p>", "key_press": -1, "type": "PRES_VIS", "word": "cobra", "wordID": 335, "conditions": [12, 800, "v", 24000], "trial": 6, "serialpos": 9, "trial_type": "single-stim", "trial_index": 234, "time_elapsed": 2083010, "internal_node_id": "0.0-171.0"}}, {"uniqueid": "MTK0372:3KXIR214I5NSB26R7MQKRM3XEXN24F", "current_trial": 235, "dateTime": 1510781116132, "trialdata": {"rt": -1, "stimulus": "<p id=\"stim\">SNAKE</p>", "key_press": -1, "type": "PRES_VIS", "word": "snake", "wordID": 1332, "conditions": [12, 800, "v", 24000], "trial": 6, "serialpos": 10, "trial_type": "single-stim", "trial_index": 235, "time_elapsed": 2084910, "internal_node_id": "0.0-172.0"}}, {"uniqueid": "MTK0372:3KXIR214I5NSB26R7MQKRM3XEXN24F", "current_trial": 236, "dateTime": 1510781118110, "trialdata": {"rt": -1, "stimulus": "<p id=\"stim\">PREACHER</p>", "key_press": -1, "type": "PRES_VIS", "word": "preacher", "wordID": 1118, "conditions": [12, 800, "v", 24000], "trial": 6, "serialpos": 11, "trial_type": "single-stim", "trial_index": 236, "time_elapsed": 2086888, "internal_node_id": "0.0-173.0"}}, {"uniqueid": "MTK0372:3KXIR214I5NSB26R7MQKRM3XEXN24F", "current_trial": 237, "dateTime": 1510781120546, "trialdata": {"rt": -1, "stimulus": "", "key_press": -1, "type": "PRE_RECALL_DELAY", "trial_type": "single-stim", "trial_index": 237, "time_elapsed": 2089324, "internal_node_id": "0.0-174.0-0.0"}}, {"uniqueid": "MTK0372:3KXIR214I5NSB26R7MQKRM3XEXN24F", "current_trial": 238, "dateTime": 1510781121047, "trialdata": {"rt": -1000, "stimulus": "/static/audio/400Hz.wav", "key_press": -1, "type": "PRE_RECALL_ALERT", "trial_type": "single-audio", "trial_index": 238, "time_elapsed": 2089825, "internal_node_id": "0.0-175.0"}}, {"uniqueid": "MTK0372:3KXIR214I5NSB26R7MQKRM3XEXN24F", "current_trial": 239, "dateTime": 1510781181052, "trialdata": {"rt": [2071, 2774, 3678, 4419, 7328, 11142, 14893], "recwords": ["preacher", "snake", "widow", "spider", "cobra", "scissors", "empire"], "type": "FREE_RECALL", "conditions": [12, 800, "v", 24000], "trial": 6, "trial_type": "free-recall", "trial_index": 239, "time_elapsed": 2149827, "internal_node_id": "0.0-176.0-0.0"}}, {"uniqueid": "MTK0372:3KXIR214I5NSB26R7MQKRM3XEXN24F", "current_trial": 240, "dateTime": 1510781454795, "trialdata": {"rt": 271742, "key_press": 68, "type": "INSTRUCTIONS", "trial_type": "text", "trial_index": 240, "time_elapsed": 2423573, "internal_node_id": "0.0-177.0"}}, {"uniqueid": "MTK0372:3KXIR214I5NSB26R7MQKRM3XEXN24F", "current_trial": 241, "dateTime": 1510781468798, "trialdata": {"rt": [1917, 3278, 4353, 5841, 7688, 8752, 10050, 11501], "responses": ["12", "18", "12", "18", "20", "7", "18", "17"], "num1": [3, 7, 6, 9, 7, 3, 3, 8, 5], "num2": [2, 5, 5, 4, 6, 2, 9, 3, 4], "num3": [7, 6, 1, 6, 7, 2, 6, 6, 3], "type": "DISTRACTOR", "conditions": [24, 1600, "v", 12000], "trial": 7, "trial_type": "math-distractor", "trial_index": 241, "time_elapsed": 2437576, "internal_node_id": "0.0-178.0"}}, {"uniqueid": "MTK0372:3KXIR214I5NSB26R7MQKRM3XEXN24F", "current_trial": 242, "dateTime": 1510781471800, "trialdata": {"rt": -1, "stimulus": "<p id=\"stim\">10</p>", "key_press": -1, "trial_type": "single-stim", "trial_index": 242, "time_elapsed": 2440578, "internal_node_id": "0.0-179.0-0.0"}}, {"uniqueid": "MTK0372:3KXIR214I5NSB26R7MQKRM3XEXN24F", "current_trial": 243, "dateTime": 1510781472801, "trialdata": {"rt": -1, "stimulus": "<p id=\"stim\">9</p>", "key_press": -1, "trial_type": "single-stim", "trial_index": 243, "time_elapsed": 2441579, "internal_node_id": "0.0-179.0-1.0"}}, {"uniqueid": "MTK0372:3KXIR214I5NSB26R7MQKRM3XEXN24F", "current_trial": 244, "dateTime": 1510781473802, "trialdata": {"rt": -1, "stimulus": "<p id=\"stim\">8</p>", "key_press": -1, "trial_type": "single-stim", "trial_index": 244, "time_elapsed": 2442580, "internal_node_id": "0.0-179.0-2.0"}}, {"uniqueid": "MTK0372:3KXIR214I5NSB26R7MQKRM3XEXN24F", "current_trial": 245, "dateTime": 1510781474803, "trialdata": {"rt": -1, "stimulus": "<p id=\"stim\">7</p>", "key_press": -1, "trial_type": "single-stim", "trial_index": 245, "time_elapsed": 2443581, "internal_node_id": "0.0-179.0-3.0"}}, {"uniqueid": "MTK0372:3KXIR214I5NSB26R7MQKRM3XEXN24F", "current_trial": 246, "dateTime": 1510781475804, "trialdata": {"rt": -1, "stimulus": "<p id=\"stim\">6</p>", "key_press": -1, "trial_type": "single-stim", "trial_index": 246, "time_elapsed": 2444582, "internal_node_id": "0.0-179.0-4.0"}}, {"uniqueid": "MTK0372:3KXIR214I5NSB26R7MQKRM3XEXN24F", "current_trial": 247, "dateTime": 1510781476805, "trialdata": {"rt": -1, "stimulus": "<p id=\"stim\">5</p>", "key_press": -1, "trial_type": "single-stim", "trial_index": 247, "time_elapsed": 2445583, "internal_node_id": "0.0-179.0-5.0"}}, {"uniqueid": "MTK0372:3KXIR214I5NSB26R7MQKRM3XEXN24F", "current_trial": 248, "dateTime": 1510781477808, "trialdata": {"rt": -1, "stimulus": "<p id=\"stim\">4</p>", "key_press": -1, "trial_type": "single-stim", "trial_index": 248, "time_elapsed": 2446586, "internal_node_id": "0.0-179.0-6.0"}}, {"uniqueid": "MTK0372:3KXIR214I5NSB26R7MQKRM3XEXN24F", "current_trial": 249, "dateTime": 1510781478810, "trialdata": {"rt": -1, "stimulus": "<p id=\"stim\">3</p>", "key_press": -1, "trial_type": "single-stim", "trial_index": 249, "time_elapsed": 2447588, "internal_node_id": "0.0-179.0-7.0"}}, {"uniqueid": "MTK0372:3KXIR214I5NSB26R7MQKRM3XEXN24F", "current_trial": 250, "dateTime": 1510781479826, "trialdata": {"rt": -1, "stimulus": "<p id=\"stim\">2</p>", "key_press": -1, "trial_type": "single-stim", "trial_index": 250, "time_elapsed": 2448603, "internal_node_id": "0.0-179.0-8.0"}}, {"uniqueid": "MTK0372:3KXIR214I5NSB26R7MQKRM3XEXN24F", "current_trial": 251, "dateTime": 1510781480829, "trialdata": {"rt": -1, "stimulus": "<p id=\"stim\">1</p>", "key_press": -1, "trial_type": "single-stim", "trial_index": 251, "time_elapsed": 2449607, "internal_node_id": "0.0-179.0-9.0"}}, {"uniqueid": "MTK0372:3KXIR214I5NSB26R7MQKRM3XEXN24F", "current_trial": 252, "dateTime": 1510781482330, "trialdata": {"rt": -1, "stimulus": "<p id=\"stim\">+</p>", "key_press": -1, "type": "FIXATION", "trial_type": "single-stim", "trial_index": 252, "time_elapsed": 2451108, "internal_node_id": "0.0-180.0-0.0"}}, {"uniqueid": "MTK0372:3KXIR214I5NSB26R7MQKRM3XEXN24F", "current_trial": 253, "dateTime": 1510781483931, "trialdata": {"rt": -1, "stimulus": "<p id=\"stim\">DORM</p>", "key_press": -1, "type": "PRES_VIS", "word": "dorm", "wordID": 487, "conditions": [24, 1600, "v", 12000], "trial": 7, "serialpos": 0, "trial_type": "single-stim", "trial_index": 253, "time_elapsed": 2452709, "internal_node_id": "0.0-181.0"}}, {"uniqueid": "MTK0372:3KXIR214I5NSB26R7MQKRM3XEXN24F", "current_trial": 254, "dateTime": 1510781486697, "trialdata": {"rt": -1, "stimulus": "<p id=\"stim\">MISSILE</p>", "key_press": -1, "type": "PRES_VIS", "word": "missile", "wordID": 899, "conditions": [24, 1600, "v", 12000], "trial": 7, "serialpos": 1, "trial_type": "single-stim", "trial_index": 254, "time_elapsed": 2455475, "internal_node_id": "0.0-182.0"}}, {"uniqueid": "MTK0372:3KXIR214I5NSB26R7MQKRM3XEXN24F", "current_trial": 255, "dateTime": 1510781489171, "trialdata": {"rt": -1, "stimulus": "<p id=\"stim\">ROCKET</p>", "key_press": -1, "type": "PRES_VIS", "word": "rocket", "wordID": 1201, "conditions": [24, 1600, "v", 12000], "trial": 7, "serialpos": 2, "trial_type": "single-stim", "trial_index": 255, "time_elapsed": 2457949, "internal_node_id": "0.0-183.0"}}, {"uniqueid": "MTK0372:3KXIR214I5NSB26R7MQKRM3XEXN24F", "current_trial": 256, "dateTime": 1510781491844, "trialdata": {"rt": -1, "stimulus": "<p id=\"stim\">DRIVER</p>", "key_press": -1, "type": "PRES_VIS", "word": "driver", "wordID": 498, "conditions": [24, 1600, "v", 12000], "trial": 7, "serialpos": 3, "trial_type": "single-stim", "trial_index": 256, "time_elapsed": 2460621, "internal_node_id": "0.0-184.0"}}, {"uniqueid": "MTK0372:3KXIR214I5NSB26R7MQKRM3XEXN24F", "current_trial": 257, "dateTime": 1510781494410, "trialdata": {"rt": -1, "stimulus": "<p id=\"stim\">JUDGE</p>", "key_press": -1, "type": "PRES_VIS", "word": "judge", "wordID": 760, "conditions": [24, 1600, "v", 12000], "trial": 7, "serialpos": 4, "trial_type": "single-stim", "trial_index": 257, "time_elapsed": 2463188, "internal_node_id": "0.0-185.0"}}, {"uniqueid": "MTK0372:3KXIR214I5NSB26R7MQKRM3XEXN24F", "current_trial": 258, "dateTime": 1510781497177, "trialdata": {"rt": -1, "stimulus": "<p id=\"stim\">SHRUB</p>", "key_press": -1, "type": "PRES_VIS", "word": "shrub", "wordID": 1298, "conditions": [24, 1600, "v", 12000], "trial": 7, "serialpos": 5, "trial_type": "single-stim", "trial_index": 258, "time_elapsed": 2465955, "internal_node_id": "0.0-186.0"}}, {"uniqueid": "MTK0372:3KXIR214I5NSB26R7MQKRM3XEXN24F", "current_trial": 259, "dateTime": 1510781499854, "trialdata": {"rt": -1, "stimulus": "<p id=\"stim\">OYSTER</p>", "key_press": -1, "type": "PRES_VIS", "word": "oyster", "wordID": 994, "conditions": [24, 1600, "v", 12000], "trial": 7, "serialpos": 6, "trial_type": "single-stim", "trial_index": 259, "time_elapsed": 2468632, "internal_node_id": "0.0-187.0"}}, {"uniqueid": "MTK0372:3KXIR214I5NSB26R7MQKRM3XEXN24F", "current_trial": 260, "dateTime": 1510781502572, "trialdata": {"rt": -1, "stimulus": "<p id=\"stim\">CLOUD</p>", "key_press": -1, "type": "PRES_VIS", "word": "cloud", "wordID": 327, "conditions": [24, 1600, "v", 12000], "trial": 7, "serialpos": 7, "trial_type": "single-stim", "trial_index": 260, "time_elapsed": 2471350, "internal_node_id": "0.0-188.0"}}, {"uniqueid": "MTK0372:3KXIR214I5NSB26R7MQKRM3XEXN24F", "current_trial": 261, "dateTime": 1510781505269, "trialdata": {"rt": -1, "stimulus": "<p id=\"stim\">THREAD</p>", "key_press": -1, "type": "PRES_VIS", "word": "thread", "wordID": 1459, "conditions": [24, 1600, "v", 12000], "trial": 7, "serialpos": 8, "trial_type": "single-stim", "trial_index": 261, "time_elapsed": 2474047, "internal_node_id": "0.0-189.0"}}, {"uniqueid": "MTK0372:3KXIR214I5NSB26R7MQKRM3XEXN24F", "current_trial": 262, "dateTime": 1510781507722, "trialdata": {"rt": -1, "stimulus": "<p id=\"stim\">STUDENT</p>", "key_press": -1, "type": "PRES_VIS", "word": "student", "wordID": 1394, "conditions": [24, 1600, "v", 12000], "trial": 7, "serialpos": 9, "trial_type": "single-stim", "trial_index": 262, "time_elapsed": 2476500, "internal_node_id": "0.0-190.0"}}, {"uniqueid": "MTK0372:3KXIR214I5NSB26R7MQKRM3XEXN24F", "current_trial": 263, "dateTime": 1510781510341, "trialdata": {"rt": -1, "stimulus": "<p id=\"stim\">DOLPHIN</p>", "key_press": -1, "type": "PRES_VIS", "word": "dolphin", "wordID": 482, "conditions": [24, 1600, "v", 12000], "trial": 7, "serialpos": 10, "trial_type": "single-stim", "trial_index": 263, "time_elapsed": 2479119, "internal_node_id": "0.0-191.0"}}, {"uniqueid": "MTK0372:3KXIR214I5NSB26R7MQKRM3XEXN24F", "current_trial": 264, "dateTime": 1510781512851, "trialdata": {"rt": -1, "stimulus": "<p id=\"stim\">ROBIN</p>", "key_press": -1, "type": "PRES_VIS", "word": "robin", "wordID": 1198, "conditions": [24, 1600, "v", 12000], "trial": 7, "serialpos": 11, "trial_type": "single-stim", "trial_index": 264, "time_elapsed": 2481629, "internal_node_id": "0.0-192.0"}}, {"uniqueid": "MTK0372:3KXIR214I5NSB26R7MQKRM3XEXN24F", "current_trial": 265, "dateTime": 1510781515474, "trialdata": {"rt": -1, "stimulus": "<p id=\"stim\">MESSAGE</p>", "key_press": -1, "type": "PRES_VIS", "word": "message", "wordID": 887, "conditions": [24, 1600, "v", 12000], "trial": 7, "serialpos": 12, "trial_type": "single-stim", "trial_index": 265, "time_elapsed": 2484251, "internal_node_id": "0.0-193.0"}}, {"uniqueid": "MTK0372:3KXIR214I5NSB26R7MQKRM3XEXN24F", "current_trial": 266, "dateTime": 1510781517970, "trialdata": {"rt": -1, "stimulus": "<p id=\"stim\">LAVA</p>", "key_press": -1, "type": "PRES_VIS", "word": "lava", "wordID": 803, "conditions": [24, 1600, "v", 12000], "trial": 7, "serialpos": 13, "trial_type": "single-stim", "trial_index": 266, "time_elapsed": 2486748, "internal_node_id": "0.0-194.0"}}, {"uniqueid": "MTK0372:3KXIR214I5NSB26R7MQKRM3XEXN24F", "current_trial": 267, "dateTime": 1510781520628, "trialdata": {"rt": -1, "stimulus": "<p id=\"stim\">OINTMENT</p>", "key_press": -1, "type": "PRES_VIS", "word": "ointment", "wordID": 973, "conditions": [24, 1600, "v", 12000], "trial": 7, "serialpos": 14, "trial_type": "single-stim", "trial_index": 267, "time_elapsed": 2489406, "internal_node_id": "0.0-195.0"}}, {"uniqueid": "MTK0372:3KXIR214I5NSB26R7MQKRM3XEXN24F", "current_trial": 268, "dateTime": 1510781523262, "trialdata": {"rt": -1, "stimulus": "<p id=\"stim\">SLUG</p>", "key_press": -1, "type": "PRES_VIS", "word": "slug", "wordID": 1328, "conditions": [24, 1600, "v", 12000], "trial": 7, "serialpos": 15, "trial_type": "single-stim", "trial_index": 268, "time_elapsed": 2492040, "internal_node_id": "0.0-196.0"}}, {"uniqueid": "MTK0372:3KXIR214I5NSB26R7MQKRM3XEXN24F", "current_trial": 269, "dateTime": 1510781526045, "trialdata": {"rt": -1, "stimulus": "<p id=\"stim\">HATCHET</p>", "key_press": -1, "type": "PRES_VIS", "word": "hatchet", "wordID": 690, "conditions": [24, 1600, "v", 12000], "trial": 7, "serialpos": 16, "trial_type": "single-stim", "trial_index": 269, "time_elapsed": 2494823, "i