{"condition": 0, "counterbalance": 216, "assignmentId": "3Z7ISHFUH12J0EW58WPBV9T90OSZ8S", "workerId": "MTK0317", "hitId": "3W9XHF7WGK25MJRDLRSUA65ZX8ZTKW", "currenttrial": 626, "bonus": 0, "data": [{"uniqueid": "MTK0317:3Z7ISHFUH12J0EW58WPBV9T90OSZ8S", "current_trial": 0, "dateTime": 1510702314736, "trialdata": {"rt": 2601, "key_press": 71, "type": "INSTRUCTIONS", "trial_type": "text", "trial_index": 0, "time_elapsed": 2625, "internal_node_id": "0.0-0.0"}}, {"uniqueid": "MTK0317:3Z7ISHFUH12J0EW58WPBV9T90OSZ8S", "current_trial": 1, "dateTime": 1510702329085, "trialdata": {"rt": 14343, "key_press": 66, "type": "INSTRUCTIONS", "trial_type": "text", "trial_index": 1, "time_elapsed": 16975, "internal_node_id": "0.0-1.0"}}, {"uniqueid": "MTK0317:3Z7ISHFUH12J0EW58WPBV9T90OSZ8S", "current_trial": 2, "dateTime": 1510702363957, "trialdata": {"rt": [34804], "responses": ["ocean"], "type": "AUDIO_TEST", "trial_type": "audio-test", "trial_index": 2, "time_elapsed": 51847, "internal_node_id": "0.0-2.0"}}, {"uniqueid": "MTK0317:3Z7ISHFUH12J0EW58WPBV9T90OSZ8S", "current_trial": 3, "dateTime": 1510702376685, "trialdata": {"rt": [12719], "responses": ["crystal"], "type": "AUDIO_TEST", "trial_type": "audio-test", "trial_index": 3, "time_elapsed": 64574, "internal_node_id": "0.0-3.0"}}, {"uniqueid": "MTK0317:3Z7ISHFUH12J0EW58WPBV9T90OSZ8S", "current_trial": 4, "dateTime": 1510702387772, "trialdata": {"rt": [11079], "responses": ["spice"], "type": "AUDIO_TEST", "trial_type": "audio-test", "trial_index": 4, "time_elapsed": 75662, "internal_node_id": "0.0-4.0"}}, {"uniqueid": "MTK0317:3Z7ISHFUH12J0EW58WPBV9T90OSZ8S", "current_trial": 5, "dateTime": 1510702417801, "trialdata": {"rt": 29272, "responses": "{\"Q0\":\"10 PM\",\"Q1\":\"6 AM\",\"Q2\":\"5\"}", "type": "SLEEP_SURVEY", "trial_type": "survey-text", "trial_index": 5, "time_elapsed": 105691, "internal_node_id": "0.0-5.0"}}, {"uniqueid": "MTK0317:3Z7ISHFUH12J0EW58WPBV9T90OSZ8S", "current_trial": 6, "dateTime": 1510702460781, "trialdata": {"rt": 41977, "key_press": 32, "type": "INSTRUCTIONS", "trial_type": "text", "trial_index": 6, "time_elapsed": 148670, "internal_node_id": "0.0-6.0"}}, {"uniqueid": "MTK0317:3Z7ISHFUH12J0EW58WPBV9T90OSZ8S", "current_trial": 7, "dateTime": 1510702470555, "trialdata": {"rt": 9273, "key_press": 32, "type": "INSTRUCTIONS", "trial_type": "text", "trial_index": 7, "time_elapsed": 158445, "internal_node_id": "0.0-7.0"}}, {"uniqueid": "MTK0317:3Z7ISHFUH12J0EW58WPBV9T90OSZ8S", "current_trial": 8, "dateTime": 1510702474596, "trialdata": {"rt": 3539, "key_press": 32, "type": "INSTRUCTIONS", "trial_type": "text", "trial_index": 8, "time_elapsed": 162486, "internal_node_id": "0.0-8.0"}}, {"uniqueid": "MTK0317:3Z7ISHFUH12J0EW58WPBV9T90OSZ8S", "current_trial": 9, "dateTime": 1510702493607, "trialdata": {"rt": [], "responses": [], "num1": [6], "num2": [7], "num3": [2], "type": "DISTRACTOR", "conditions": [18, 1200, "v", 18000], "trial": 0, "trial_type": "math-distractor", "trial_index": 9, "time_elapsed": 181497, "internal_node_id": "0.0-9.0"}}, {"uniqueid": "MTK0317:3Z7ISHFUH12J0EW58WPBV9T90OSZ8S", "current_trial": 10, "dateTime": 1510702496611, "trialdata": {"rt": -1, "stimulus": "<p id=\"stim\">10</p>", "key_press": -1, "trial_type": "single-stim", "trial_index": 10, "time_elapsed": 184501, "internal_node_id": "0.0-10.0-0.0"}}, {"uniqueid": "MTK0317:3Z7ISHFUH12J0EW58WPBV9T90OSZ8S", "current_trial": 11, "dateTime": 1510702497614, "trialdata": {"rt": -1, "stimulus": "<p id=\"stim\">9</p>", "key_press": -1, "trial_type": "single-stim", "trial_index": 11, "time_elapsed": 185504, "internal_node_id": "0.0-10.0-1.0"}}, {"uniqueid": "MTK0317:3Z7ISHFUH12J0EW58WPBV9T90OSZ8S", "current_trial": 12, "dateTime": 1510702498616, "trialdata": {"rt": -1, "stimulus": "<p id=\"stim\">8</p>", "key_press": -1, "trial_type": "single-stim", "trial_index": 12, "time_elapsed": 186506, "internal_node_id": "0.0-10.0-2.0"}}, {"uniqueid": "MTK0317:3Z7ISHFUH12J0EW58WPBV9T90OSZ8S", "current_trial": 13, "dateTime": 1510702499618, "trialdata": {"rt": -1, "stimulus": "<p id=\"stim\">7</p>", "key_press": -1, "trial_type": "single-stim", "trial_index": 13, "time_elapsed": 187508, "internal_node_id": "0.0-10.0-3.0"}}, {"uniqueid": "MTK0317:3Z7ISHFUH12J0EW58WPBV9T90OSZ8S", "current_trial": 14, "dateTime": 1510702500620, "trialdata": {"rt": -1, "stimulus": "<p id=\"stim\">6</p>", "key_press": -1, "trial_type": "single-stim", "trial_index": 14, "time_elapsed": 188510, "internal_node_id": "0.0-10.0-4.0"}}, {"uniqueid": "MTK0317:3Z7ISHFUH12J0EW58WPBV9T90OSZ8S", "current_trial": 15, "dateTime": 1510702501623, "trialdata": {"rt": -1, "stimulus": "<p id=\"stim\">5</p>", "key_press": -1, "trial_type": "single-stim", "trial_index": 15, "time_elapsed": 189513, "internal_node_id": "0.0-10.0-5.0"}}, {"uniqueid": "MTK0317:3Z7ISHFUH12J0EW58WPBV9T90OSZ8S", "current_trial": 16, "dateTime": 1510702502625, "trialdata": {"rt": -1, "stimulus": "<p id=\"stim\">4</p>", "key_press": -1, "trial_type": "single-stim", "trial_index": 16, "time_elapsed": 190514, "internal_node_id": "0.0-10.0-6.0"}}, {"uniqueid": "MTK0317:3Z7ISHFUH12J0EW58WPBV9T90OSZ8S", "current_trial": 17, "dateTime": 1510702503627, "trialdata": {"rt": -1, "stimulus": "<p id=\"stim\">3</p>", "key_press": -1, "trial_type": "single-stim", "trial_index": 17, "time_elapsed": 191516, "internal_node_id": "0.0-10.0-7.0"}}, {"uniqueid": "MTK0317:3Z7ISHFUH12J0EW58WPBV9T90OSZ8S", "current_trial": 18, "dateTime": 1510702504629, "trialdata": {"rt": -1, "stimulus": "<p id=\"stim\">2</p>", "key_press": -1, "trial_type": "single-stim", "trial_index": 18, "time_elapsed": 192518, "internal_node_id": "0.0-10.0-8.0"}}, {"uniqueid": "MTK0317:3Z7ISHFUH12J0EW58WPBV9T90OSZ8S", "current_trial": 19, "dateTime": 1510702505630, "trialdata": {"rt": -1, "stimulus": "<p id=\"stim\">1</p>", "key_press": -1, "trial_type": "single-stim", "trial_index": 19, "time_elapsed": 193520, "internal_node_id": "0.0-10.0-9.0"}}, {"uniqueid": "MTK0317:3Z7ISHFUH12J0EW58WPBV9T90OSZ8S", "current_trial": 20, "dateTime": 1510702507133, "trialdata": {"rt": -1, "stimulus": "<p id=\"stim\">+</p>", "key_press": -1, "type": "FIXATION", "trial_type": "single-stim", "trial_index": 20, "time_elapsed": 195022, "internal_node_id": "0.0-11.0-0.0"}}, {"uniqueid": "MTK0317:3Z7ISHFUH12J0EW58WPBV9T90OSZ8S", "current_trial": 21, "dateTime": 1510702508335, "trialdata": {"rt": -1, "stimulus": "<p id=\"stim\">SKETCH</p>", "key_press": -1, "type": "PRES_VIS", "word": "sketch", "wordID": 1314, "conditions": [18, 1200, "v", 18000], "trial": 0, "serialpos": 0, "trial_type": "single-stim", "trial_index": 21, "time_elapsed": 196224, "internal_node_id": "0.0-12.0"}}, {"uniqueid": "MTK0317:3Z7ISHFUH12J0EW58WPBV9T90OSZ8S", "current_trial": 22, "dateTime": 1510702510388, "trialdata": {"rt": -1, "stimulus": "<p id=\"stim\">ZIPPER</p>", "key_press": -1, "type": "PRES_VIS", "word": "zipper", "wordID": 1635, "conditions": [18, 1200, "v", 18000], "trial": 0, "serialpos": 1, "trial_type": "single-stim", "trial_index": 22, "time_elapsed": 198278, "internal_node_id": "0.0-13.0"}}, {"uniqueid": "MTK0317:3Z7ISHFUH12J0EW58WPBV9T90OSZ8S", "current_trial": 23, "dateTime": 1510702512715, "trialdata": {"rt": -1, "stimulus": "<p id=\"stim\">MONEY</p>", "key_press": -1, "type": "PRES_VIS", "word": "money", "wordID": 907, "conditions": [18, 1200, "v", 18000], "trial": 0, "serialpos": 2, "trial_type": "single-stim", "trial_index": 23, "time_elapsed": 200605, "internal_node_id": "0.0-14.0"}}, {"uniqueid": "MTK0317:3Z7ISHFUH12J0EW58WPBV9T90OSZ8S", "current_trial": 24, "dateTime": 1510702514973, "trialdata": {"rt": -1, "stimulus": "<p id=\"stim\">SNAIL</p>", "key_press": -1, "type": "PRES_VIS", "word": "snail", "wordID": 1331, "conditions": [18, 1200, "v", 18000], "trial": 0, "serialpos": 3, "trial_type": "single-stim", "trial_index": 24, "time_elapsed": 202862, "internal_node_id": "0.0-15.0"}}, {"uniqueid": "MTK0317:3Z7ISHFUH12J0EW58WPBV9T90OSZ8S", "current_trial": 25, "dateTime": 1510702517263, "trialdata": {"rt": -1, "stimulus": "<p id=\"stim\">CASKET</p>", "key_press": -1, "type": "PRES_VIS", "word": "casket", "wordID": 254, "conditions": [18, 1200, "v", 18000], "trial": 0, "serialpos": 4, "trial_type": "single-stim", "trial_index": 25, "time_elapsed": 205152, "internal_node_id": "0.0-16.0"}}, {"uniqueid": "MTK0317:3Z7ISHFUH12J0EW58WPBV9T90OSZ8S", "current_trial": 26, "dateTime": 1510702519589, "trialdata": {"rt": -1, "stimulus": "<p id=\"stim\">LAVA</p>", "key_press": -1, "type": "PRES_VIS", "word": "lava", "wordID": 803, "conditions": [18, 1200, "v", 18000], "trial": 0, "serialpos": 5, "trial_type": "single-stim", "trial_index": 26, "time_elapsed": 207479, "internal_node_id": "0.0-17.0"}}, {"uniqueid": "MTK0317:3Z7ISHFUH12J0EW58WPBV9T90OSZ8S", "current_trial": 27, "dateTime": 1510702521738, "trialdata": {"rt": -1, "stimulus": "<p id=\"stim\">ICEBERG</p>", "key_press": -1, "type": "PRES_VIS", "word": "iceberg", "wordID": 730, "conditions": [18, 1200, "v", 18000], "trial": 0, "serialpos": 6, "trial_type": "single-stim", "trial_index": 27, "time_elapsed": 209628, "internal_node_id": "0.0-18.0"}}, {"uniqueid": "MTK0317:3Z7ISHFUH12J0EW58WPBV9T90OSZ8S", "current_trial": 28, "dateTime": 1510702523944, "trialdata": {"rt": -1, "stimulus": "<p id=\"stim\">TROMBONE</p>", "key_press": -1, "type": "PRES_VIS", "word": "trombone", "wordID": 1507, "conditions": [18, 1200, "v", 18000], "trial": 0, "serialpos": 7, "trial_type": "single-stim", "trial_index": 28, "time_elapsed": 211833, "internal_node_id": "0.0-19.0"}}, {"uniqueid": "MTK0317:3Z7ISHFUH12J0EW58WPBV9T90OSZ8S", "current_trial": 29, "dateTime": 1510702526228, "trialdata": {"rt": -1, "stimulus": "<p id=\"stim\">CLIMBER</p>", "key_press": -1, "type": "PRES_VIS", "word": "climber", "wordID": 322, "conditions": [18, 1200, "v", 18000], "trial": 0, "serialpos": 8, "trial_type": "single-stim", "trial_index": 29, "time_elapsed": 214118, "internal_node_id": "0.0-20.0"}}, {"uniqueid": "MTK0317:3Z7ISHFUH12J0EW58WPBV9T90OSZ8S", "current_trial": 30, "dateTime": 1510702528382, "trialdata": {"rt": -1, "stimulus": "<p id=\"stim\">FLEET</p>", "key_press": -1, "type": "PRES_VIS", "word": "fleet", "wordID": 577, "conditions": [18, 1200, "v", 18000], "trial": 0, "serialpos": 9, "trial_type": "single-stim", "trial_index": 30, "time_elapsed": 216271, "internal_node_id": "0.0-21.0"}}, {"uniqueid": "MTK0317:3Z7ISHFUH12J0EW58WPBV9T90OSZ8S", "current_trial": 31, "dateTime": 1510702530421, "trialdata": {"rt": -1, "stimulus": "<p id=\"stim\">ROOSTER</p>", "key_press": -1, "type": "PRES_VIS", "word": "rooster", "wordID": 1208, "conditions": [18, 1200, "v", 18000], "trial": 0, "serialpos": 10, "trial_type": "single-stim", "trial_index": 31, "time_elapsed": 218311, "internal_node_id": "0.0-22.0"}}, {"uniqueid": "MTK0317:3Z7ISHFUH12J0EW58WPBV9T90OSZ8S", "current_trial": 32, "dateTime": 1510702532821, "trialdata": {"rt": -1, "stimulus": "<p id=\"stim\">DIVER</p>", "key_press": -1, "type": "PRES_VIS", "word": "diver", "wordID": 475, "conditions": [18, 1200, "v", 18000], "trial": 0, "serialpos": 11, "trial_type": "single-stim", "trial_index": 32, "time_elapsed": 220710, "internal_node_id": "0.0-23.0"}}, {"uniqueid": "MTK0317:3Z7ISHFUH12J0EW58WPBV9T90OSZ8S", "current_trial": 33, "dateTime": 1510702535083, "trialdata": {"rt": -1, "stimulus": "<p id=\"stim\">MATTRESS</p>", "key_press": -1, "type": "PRES_VIS", "word": "mattress", "wordID": 878, "conditions": [18, 1200, "v", 18000], "trial": 0, "serialpos": 12, "trial_type": "single-stim", "trial_index": 33, "time_elapsed": 222972, "internal_node_id": "0.0-24.0"}}, {"uniqueid": "MTK0317:3Z7ISHFUH12J0EW58WPBV9T90OSZ8S", "current_trial": 34, "dateTime": 1510702537185, "trialdata": {"rt": -1, "stimulus": "<p id=\"stim\">CHAPEL</p>", "key_press": -1, "type": "PRES_VIS", "word": "chapel", "wordID": 279, "conditions": [18, 1200, "v", 18000], "trial": 0, "serialpos": 13, "trial_type": "single-stim", "trial_index": 34, "time_elapsed": 225075, "internal_node_id": "0.0-25.0"}}, {"uniqueid": "MTK0317:3Z7ISHFUH12J0EW58WPBV9T90OSZ8S", "current_trial": 35, "dateTime": 1510702539319, "trialdata": {"rt": -1, "stimulus": "<p id=\"stim\">SCRIBBLE</p>", "key_press": -1, "type": "PRES_VIS", "word": "scribble", "wordID": 1255, "conditions": [18, 1200, "v", 18000], "trial": 0, "serialpos": 14, "trial_type": "single-stim", "trial_index": 35, "time_elapsed": 227209, "internal_node_id": "0.0-26.0"}}, {"uniqueid": "MTK0317:3Z7ISHFUH12J0EW58WPBV9T90OSZ8S", "current_trial": 36, "dateTime": 1510702541685, "trialdata": {"rt": -1, "stimulus": "<p id=\"stim\">WRENCH</p>", "key_press": -1, "type": "PRES_VIS", "word": "wrench", "wordID": 1624, "conditions": [18, 1200, "v", 18000], "trial": 0, "serialpos": 15, "trial_type": "single-stim", "trial_index": 36, "time_elapsed": 229574, "internal_node_id": "0.0-27.0"}}, {"uniqueid": "MTK0317:3Z7ISHFUH12J0EW58WPBV9T90OSZ8S", "current_trial": 37, "dateTime": 1510702543971, "trialdata": {"rt": -1, "stimulus": "<p id=\"stim\">BEAKER</p>", "key_press": -1, "type": "PRES_VIS", "word": "beaker", "wordID": 103, "conditions": [18, 1200, "v", 18000], "trial": 0, "serialpos": 16, "trial_type": "single-stim", "trial_index": 37, "time_elapsed": 231860, "internal_node_id": "0.0-28.0"}}, {"uniqueid": "MTK0317:3Z7ISHFUH12J0EW58WPBV9T90OSZ8S", "current_trial": 38, "dateTime": 1510702546240, "trialdata": {"rt": -1, "stimulus": "<p id=\"stim\">DOLPHIN</p>", "key_press": -1, "type": "PRES_VIS", "word": "dolphin", "wordID": 482, "conditions": [18, 1200, "v", 18000], "trial": 0, "serialpos": 17, "trial_type": "single-stim", "trial_index": 38, "time_elapsed": 234129, "internal_node_id": "0.0-29.0"}}, {"uniqueid": "MTK0317:3Z7ISHFUH12J0EW58WPBV9T90OSZ8S", "current_trial": 39, "dateTime": 1510702548524, "trialdata": {"rt": -1, "stimulus": "", "key_press": -1, "type": "PRE_RECALL_DELAY", "trial_type": "single-stim", "trial_index": 39, "time_elapsed": 236413, "internal_node_id": "0.0-30.0-0.0"}}, {"uniqueid": "MTK0317:3Z7ISHFUH12J0EW58WPBV9T90OSZ8S", "current_trial": 40, "dateTime": 1510702549053, "trialdata": {"rt": -1000, "stimulus": "/static/audio/400Hz.wav", "key_press": -1, "type": "PRE_RECALL_ALERT", "trial_type": "single-audio", "trial_index": 40, "time_elapsed": 236943, "internal_node_id": "0.0-31.0"}}, {"uniqueid": "MTK0317:3Z7ISHFUH12J0EW58WPBV9T90OSZ8S", "current_trial": 41, "dateTime": 1510702609064, "trialdata": {"rt": [6428, 9669, 37586], "recwords": ["sketch", "zipper", "chappel"], "type": "FREE_RECALL", "conditions": [18, 1200, "v", 18000], "trial": 0, "trial_type": "free-recall", "trial_index": 41, "time_elapsed": 296948, "internal_node_id": "0.0-32.0-0.0"}}, {"uniqueid": "MTK0317:3Z7ISHFUH12J0EW58WPBV9T90OSZ8S", "current_trial": 42, "dateTime": 1510702612876, "trialdata": {"rt": 1809, "key_press": 32, "type": "INSTRUCTIONS", "trial_type": "text", "trial_index": 42, "time_elapsed": 300766, "internal_node_id": "0.0-33.0"}}, {"uniqueid": "MTK0317:3Z7ISHFUH12J0EW58WPBV9T90OSZ8S", "current_trial": 43, "dateTime": 1510702632880, "trialdata": {"rt": [], "responses": [], "num1": [6], "num2": [3], "num3": [7], "type": "DISTRACTOR", "conditions": [18, 1200, "a", 18000], "trial": 1, "trial_type": "math-distractor", "trial_index": 43, "time_elapsed": 320770, "internal_node_id": "0.0-34.0"}}, {"uniqueid": "MTK0317:3Z7ISHFUH12J0EW58WPBV9T90OSZ8S", "current_trial": 44, "dateTime": 1510702635884, "trialdata": {"rt": -1, "stimulus": "<p id=\"stim\">10</p>", "key_press": -1, "trial_type": "single-stim", "trial_index": 44, "time_elapsed": 323773, "internal_node_id": "0.0-35.0-0.0"}}, {"uniqueid": "MTK0317:3Z7ISHFUH12J0EW58WPBV9T90OSZ8S", "current_trial": 45, "dateTime": 1510702636885, "trialdata": {"rt": -1, "stimulus": "<p id=\"stim\">9</p>", "key_press": -1, "trial_type": "single-stim", "trial_index": 45, "time_elapsed": 324774, "internal_node_id": "0.0-35.0-1.0"}}, {"uniqueid": "MTK0317:3Z7ISHFUH12J0EW58WPBV9T90OSZ8S", "current_trial": 46, "dateTime": 1510702637887, "trialdata": {"rt": -1, "stimulus": "<p id=\"stim\">8</p>", "key_press": -1, "trial_type": "single-stim", "trial_index": 46, "time_elapsed": 325776, "internal_node_id": "0.0-35.0-2.0"}}, {"uniqueid": "MTK0317:3Z7ISHFUH12J0EW58WPBV9T90OSZ8S", "current_trial": 47, "dateTime": 1510702638892, "trialdata": {"rt": -1, "stimulus": "<p id=\"stim\">7</p>", "key_press": -1, "trial_type": "single-stim", "trial_index": 47, "time_elapsed": 326781, "internal_node_id": "0.0-35.0-3.0"}}, {"uniqueid": "MTK0317:3Z7ISHFUH12J0EW58WPBV9T90OSZ8S", "current_trial": 48, "dateTime": 1510702639893, "trialdata": {"rt": -1, "stimulus": "<p id=\"stim\">6</p>", "key_press": -1, "trial_type": "single-stim", "trial_index": 48, "time_elapsed": 327782, "internal_node_id": "0.0-35.0-4.0"}}, {"uniqueid": "MTK0317:3Z7ISHFUH12J0EW58WPBV9T90OSZ8S", "current_trial": 49, "dateTime": 1510702640895, "trialdata": {"rt": -1, "stimulus": "<p id=\"stim\">5</p>", "key_press": -1, "trial_type": "single-stim", "trial_index": 49, "time_elapsed": 328784, "internal_node_id": "0.0-35.0-5.0"}}, {"uniqueid": "MTK0317:3Z7ISHFUH12J0EW58WPBV9T90OSZ8S", "current_trial": 50, "dateTime": 1510702641897, "trialdata": {"rt": -1, "stimulus": "<p id=\"stim\">4</p>", "key_press": -1, "trial_type": "single-stim", "trial_index": 50, "time_elapsed": 329786, "internal_node_id": "0.0-35.0-6.0"}}, {"uniqueid": "MTK0317:3Z7ISHFUH12J0EW58WPBV9T90OSZ8S", "current_trial": 51, "dateTime": 1510702642898, "trialdata": {"rt": -1, "stimulus": "<p id=\"stim\">3</p>", "key_press": -1, "trial_type": "single-stim", "trial_index": 51, "time_elapsed": 330787, "internal_node_id": "0.0-35.0-7.0"}}, {"uniqueid": "MTK0317:3Z7ISHFUH12J0EW58WPBV9T90OSZ8S", "current_trial": 52, "dateTime": 1510702643900, "trialdata": {"rt": -1, "stimulus": "<p id=\"stim\">2</p>", "key_press": -1, "trial_type": "single-stim", "trial_index": 52, "time_elapsed": 331789, "internal_node_id": "0.0-35.0-8.0"}}, {"uniqueid": "MTK0317:3Z7ISHFUH12J0EW58WPBV9T90OSZ8S", "current_trial": 53, "dateTime": 1510702644902, "trialdata": {"rt": -1, "stimulus": "<p id=\"stim\">1</p>", "key_press": -1, "trial_type": "single-stim", "trial_index": 53, "time_elapsed": 332791, "internal_node_id": "0.0-35.0-9.0"}}, {"uniqueid": "MTK0317:3Z7ISHFUH12J0EW58WPBV9T90OSZ8S", "current_trial": 54, "dateTime": 1510702646404, "trialdata": {"rt": -1, "stimulus": "<p id=\"stim\">+</p>", "key_press": -1, "type": "FIXATION", "trial_type": "single-stim", "trial_index": 54, "time_elapsed": 334293, "internal_node_id": "0.0-36.0-0.0"}}, {"uniqueid": "MTK0317:3Z7ISHFUH12J0EW58WPBV9T90OSZ8S", "current_trial": 55, "dateTime": 1510702648758, "trialdata": {"rt": -1000, "stimulus": "/static/audio/wordpool/BALLOON.wav", "key_press": -1, "type": "PRES_AUD", "word": "balloon", "wordID": 74, "conditions": [18, 1200, "a", 18000], "trial": 1, "serialpos": 0, "trial_type": "single-audio", "trial_index": 55, "time_elapsed": 336648, "internal_node_id": "0.0-37.0"}}, {"uniqueid": "MTK0317:3Z7ISHFUH12J0EW58WPBV9T90OSZ8S", "current_trial": 56, "dateTime": 1510702651038, "trialdata": {"rt": -1000, "stimulus": "/static/audio/wordpool/HATCHET.wav", "key_press": -1, "type": "PRES_AUD", "word": "hatchet", "wordID": 690, "conditions": [18, 1200, "a", 18000], "trial": 1, "serialpos": 1, "trial_type": "single-audio", "trial_index": 56, "time_elapsed": 338928, "internal_node_id": "0.0-38.0"}}, {"uniqueid": "MTK0317:3Z7ISHFUH12J0EW58WPBV9T90OSZ8S", "current_trial": 57, "dateTime": 1510702653270, "trialdata": {"rt": -1000, "stimulus": "/static/audio/wordpool/BLUEPRINT.wav", "key_press": -1, "type": "PRES_AUD", "word": "blueprint", "wordID": 141, "conditions": [18, 1200, "a", 18000], "trial": 1, "serialpos": 2, "trial_type": "single-audio", "trial_index": 57, "time_elapsed": 341160, "internal_node_id": "0.0-39.0"}}, {"uniqueid": "MTK0317:3Z7ISHFUH12J0EW58WPBV9T90OSZ8S", "current_trial": 58, "dateTime": 1510702655326, "trialdata": {"rt": -1000, "stimulus": "/static/audio/wordpool/LUNCH.wav", "key_press": -1, "type": "PRES_AUD", "word": "lunch", "wordID": 848, "conditions": [18, 1200, "a", 18000], "trial": 1, "serialpos": 3, "trial_type": "single-audio", "trial_index": 58, "time_elapsed": 343216, "internal_node_id": "0.0-40.0"}}, {"uniqueid": "MTK0317:3Z7ISHFUH12J0EW58WPBV9T90OSZ8S", "current_trial": 59, "dateTime": 1510702657662, "trialdata": {"rt": -1000, "stimulus": "/static/audio/wordpool/PIZZA.wav", "key_press": -1, "type": "PRES_AUD", "word": "pizza", "wordID": 1078, "conditions": [18, 1200, "a", 18000], "trial": 1, "serialpos": 4, "trial_type": "single-audio", "trial_index": 59, "time_elapsed": 345552, "internal_node_id": "0.0-41.0"}}, {"uniqueid": "MTK0317:3Z7ISHFUH12J0EW58WPBV9T90OSZ8S", "current_trial": 60, "dateTime": 1510702659781, "trialdata": {"rt": -1000, "stimulus": "/static/audio/wordpool/FARMER.wav", "key_press": -1, "type": "PRES_AUD", "word": "farmer", "wordID": 552, "conditions": [18, 1200, "a", 18000], "trial": 1, "serialpos": 5, "trial_type": "single-audio", "trial_index": 60, "time_elapsed": 347671, "internal_node_id": "0.0-42.0"}}, {"uniqueid": "MTK0317:3Z7ISHFUH12J0EW58WPBV9T90OSZ8S", "current_trial": 61, "dateTime": 1510702661904, "trialdata": {"rt": -1000, "stimulus": "/static/audio/wordpool/LETTUCE.wav", "key_press": -1, "type": "PRES_AUD", "word": "lettuce", "wordID": 813, "conditions": [18, 1200, "a", 18000], "trial": 1, "serialpos": 6, "trial_type": "single-audio", "trial_index": 61, "time_elapsed": 349794, "internal_node_id": "0.0-43.0"}}, {"uniqueid": "MTK0317:3Z7ISHFUH12J0EW58WPBV9T90OSZ8S", "current_trial": 62, "dateTime": 1510702663917, "trialdata": {"rt": -1000, "stimulus": "/static/audio/wordpool/FLESH.wav", "key_press": -1, "type": "PRES_AUD", "word": "flesh", "wordID": 578, "conditions": [18, 1200, "a", 18000], "trial": 1, "serialpos": 7, "trial_type": "single-audio", "trial_index": 62, "time_elapsed": 351807, "internal_node_id": "0.0-44.0"}}, {"uniqueid": "MTK0317:3Z7ISHFUH12J0EW58WPBV9T90OSZ8S", "current_trial": 63, "dateTime": 1510702666236, "trialdata": {"rt": -1000, "stimulus": "/static/audio/wordpool/BEAST.wav", "key_press": -1, "type": "PRES_AUD", "word": "beast", "wordID": 107, "conditions": [18, 1200, "a", 18000], "trial": 1, "serialpos": 8, "trial_type": "single-audio", "trial_index": 63, "time_elapsed": 354126, "internal_node_id": "0.0-45.0"}}, {"uniqueid": "MTK0317:3Z7ISHFUH12J0EW58WPBV9T90OSZ8S", "current_trial": 64, "dateTime": 1510702668557, "trialdata": {"rt": -1000, "stimulus": "/static/audio/wordpool/DORM.wav", "key_press": -1, "type": "PRES_AUD", "word": "dorm", "wordID": 487, "conditions": [18, 1200, "a", 18000], "trial": 1, "serialpos": 9, "trial_type": "single-audio", "trial_index": 64, "time_elapsed": 356447, "internal_node_id": "0.0-46.0"}}, {"uniqueid": "MTK0317:3Z7ISHFUH12J0EW58WPBV9T90OSZ8S", "current_trial": 65, "dateTime": 1510702670792, "trialdata": {"rt": -1000, "stimulus": "/static/audio/wordpool/PISTON.wav", "key_press": -1, "type": "PRES_AUD", "word": "piston", "wordID": 1075, "conditions": [18, 1200, "a", 18000], "trial": 1, "serialpos": 10, "trial_type": "single-audio", "trial_index": 65, "time_elapsed": 358682, "internal_node_id": "0.0-47.0"}}, {"uniqueid": "MTK0317:3Z7ISHFUH12J0EW58WPBV9T90OSZ8S", "current_trial": 66, "dateTime": 1510702672911, "trialdata": {"rt": -1000, "stimulus": "/static/audio/wordpool/VIKING.wav", "key_press": -1, "type": "PRES_AUD", "word": "viking", "wordID": 1564, "conditions": [18, 1200, "a", 18000], "trial": 1, "serialpos": 11, "trial_type": "single-audio", "trial_index": 66, "time_elapsed": 360801, "internal_node_id": "0.0-48.0"}}, {"uniqueid": "MTK0317:3Z7ISHFUH12J0EW58WPBV9T90OSZ8S", "current_trial": 67, "dateTime": 1510702675031, "trialdata": {"rt": -1000, "stimulus": "/static/audio/wordpool/PASTRY.wav", "key_press": -1, "type": "PRES_AUD", "word": "pastry", "wordID": 1021, "conditions": [18, 1200, "a", 18000], "trial": 1, "serialpos": 12, "trial_type": "single-audio", "trial_index": 67, "time_elapsed": 362921, "internal_node_id": "0.0-49.0"}}, {"uniqueid": "MTK0317:3Z7ISHFUH12J0EW58WPBV9T90OSZ8S", "current_trial": 68, "dateTime": 1510702677106, "trialdata": {"rt": -1000, "stimulus": "/static/audio/wordpool/NEUTRON.wav", "key_press": -1, "type": "PRES_AUD", "word": "neutron", "wordID": 946, "conditions": [18, 1200, "a", 18000], "trial": 1, "serialpos": 13, "trial_type": "single-audio", "trial_index": 68, "time_elapsed": 364996, "internal_node_id": "0.0-50.0"}}, {"uniqueid": "MTK0317:3Z7ISHFUH12J0EW58WPBV9T90OSZ8S", "current_trial": 69, "dateTime": 1510702679265, "trialdata": {"rt": -1000, "stimulus": "/static/audio/wordpool/NAPKIN.wav", "key_press": -1, "type": "PRES_AUD", "word": "napkin", "wordID": 936, "conditions": [18, 1200, "a", 18000], "trial": 1, "serialpos": 14, "trial_type": "single-audio", "trial_index": 69, "time_elapsed": 367155, "internal_node_id": "0.0-51.0"}}, {"uniqueid": "MTK0317:3Z7ISHFUH12J0EW58WPBV9T90OSZ8S", "current_trial": 70, "dateTime": 1510702681429, "trialdata": {"rt": -1000, "stimulus": "/static/audio/wordpool/CATTLE.wav", "key_press": -1, "type": "PRES_AUD", "word": "cattle", "wordID": 260, "conditions": [18, 1200, "a", 18000], "trial": 1, "serialpos": 15, "trial_type": "single-audio", "trial_index": 70, "time_elapsed": 369319, "internal_node_id": "0.0-52.0"}}, {"uniqueid": "MTK0317:3Z7ISHFUH12J0EW58WPBV9T90OSZ8S", "current_trial": 71, "dateTime": 1510702683584, "trialdata": {"rt": -1000, "stimulus": "/static/audio/wordpool/UMPIRE.wav", "key_press": -1, "type": "PRES_AUD", "word": "umpire", "wordID": 1534, "conditions": [18, 1200, "a", 18000], "trial": 1, "serialpos": 16, "trial_type": "single-audio", "trial_index": 71, "time_elapsed": 371474, "internal_node_id": "0.0-53.0"}}, {"uniqueid": "MTK0317:3Z7ISHFUH12J0EW58WPBV9T90OSZ8S", "current_trial": 72, "dateTime": 1510702685686, "trialdata": {"rt": -1000, "stimulus": "/static/audio/wordpool/PILOT.wav", "key_press": -1, "type": "PRES_AUD", "word": "pilot", "wordID": 1069, "conditions": [18, 1200, "a", 18000], "trial": 1, "serialpos": 17, "trial_type": "single-audio", "trial_index": 72, "time_elapsed": 373576, "internal_node_id": "0.0-54.0"}}, {"uniqueid": "MTK0317:3Z7ISHFUH12J0EW58WPBV9T90OSZ8S", "current_trial": 73, "dateTime": 1510702687051, "trialdata": {"rt": -1, "stimulus": "", "key_press": -1, "type": "PRE_RECALL_DELAY", "trial_type": "single-stim", "trial_index": 73, "time_elapsed": 374941, "internal_node_id": "0.0-55.0-0.0"}}, {"uniqueid": "MTK0317:3Z7ISHFUH12J0EW58WPBV9T90OSZ8S", "current_trial": 74, "dateTime": 1510702687554, "trialdata": {"rt": -1000, "stimulus": "/static/audio/400Hz.wav", "key_press": -1, "type": "PRE_RECALL_ALERT", "trial_type": "single-audio", "trial_index": 74, "time_elapsed": 375444, "internal_node_id": "0.0-56.0"}}, {"uniqueid": "MTK0317:3Z7ISHFUH12J0EW58WPBV9T90OSZ8S", "current_trial": 75, "dateTime": 1510702747563, "trialdata": {"rt": [1621, 1777, 3677, 3865, 7936, 14269, 18428, 21985, 24173, 28031, 30502, 32470, 35390], "recwords": ["ba", "", "ba", "", "ba", "hatchet", "pirate", "viking", "farmer", "ballon", "hatchet", "lunch", "blueprint"], "type": "FREE_RECALL", "conditions": [18, 1200, "a", 18000], "trial": 1, "trial_type": "free-recall", "trial_index": 75, "time_elapsed": 435449, "internal_node_id": "0.0-57.0-0.0"}}, {"uniqueid": "MTK0317:3Z7ISHFUH12J0EW58WPBV9T90OSZ8S", "current_trial": 76, "dateTime": 1510702752804, "trialdata": {"rt": 3229, "key_press": 32, "type": "INSTRUCTIONS", "trial_type": "text", "trial_index": 76, "time_elapsed": 440686, "internal_node_id": "0.0-58.0"}}, {"uniqueid": "MTK0317:3Z7ISHFUH12J0EW58WPBV9T90OSZ8S", "current_trial": 77, "dateTime": 1510702777808, "trialdata": {"rt": [], "responses": [], "num1": [2], "num2": [7], "num3": [1], "type": "DISTRACTOR", "conditions": [12, 1600, "a", 24000], "trial": 2, "trial_type": "math-distractor", "trial_index": 77, "time_elapsed": 465698, "internal_node_id": "0.0-59.0"}}, {"uniqueid": "MTK0317:3Z7ISHFUH12J0EW58WPBV9T90OSZ8S", "current_trial": 78, "dateTime": 1510702780812, "trialdata": {"rt": -1, "stimulus": "<p id=\"stim\">10</p>", "key_press": -1, "trial_type": "single-stim", "trial_index": 78, "time_elapsed": 468701, "internal_node_id": "0.0-60.0-0.0"}}, {"uniqueid": "MTK0317:3Z7ISHFUH12J0EW58WPBV9T90OSZ8S", "current_trial": 79, "dateTime": 1510702781814, "trialdata": {"rt": -1, "stimulus": "<p id=\"stim\">9</p>", "key_press": -1, "trial_type": "single-stim", "trial_index": 79, "time_elapsed": 469704, "internal_node_id": "0.0-60.0-1.0"}}, {"uniqueid": "MTK0317:3Z7ISHFUH12J0EW58WPBV9T90OSZ8S", "current_trial": 80, "dateTime": 1510702782816, "trialdata": {"rt": -1, "stimulus": "<p id=\"stim\">8</p>", "key_press": -1, "trial_type": "single-stim", "trial_index": 80, "time_elapsed": 470705, "internal_node_id": "0.0-60.0-2.0"}}, {"uniqueid": "MTK0317:3Z7ISHFUH12J0EW58WPBV9T90OSZ8S", "current_trial": 81, "dateTime": 1510702783818, "trialdata": {"rt": -1, "stimulus": "<p id=\"stim\">7</p>", "key_press": -1, "trial_type": "single-stim", "trial_index": 81, "time_elapsed": 471707, "internal_node_id": "0.0-60.0-3.0"}}, {"uniqueid": "MTK0317:3Z7ISHFUH12J0EW58WPBV9T90OSZ8S", "current_trial": 82, "dateTime": 1510702784819, "trialdata": {"rt": -1, "stimulus": "<p id=\"stim\">6</p>", "key_press": -1, "trial_type": "single-stim", "trial_index": 82, "time_elapsed": 472709, "internal_node_id": "0.0-60.0-4.0"}}, {"uniqueid": "MTK0317:3Z7ISHFUH12J0EW58WPBV9T90OSZ8S", "current_trial": 83, "dateTime": 1510702785821, "trialdata": {"rt": -1, "stimulus": "<p id=\"stim\">5</p>", "key_press": -1, "trial_type": "single-stim", "trial_index": 83, "time_elapsed": 473710, "internal_node_id": "0.0-60.0-5.0"}}, {"uniqueid": "MTK0317:3Z7ISHFUH12J0EW58WPBV9T90OSZ8S", "current_trial": 84, "dateTime": 1510702786824, "trialdata": {"rt": -1, "stimulus": "<p id=\"stim\">4</p>", "key_press": -1, "trial_type": "single-stim", "trial_index": 84, "time_elapsed": 474713, "internal_node_id": "0.0-60.0-6.0"}}, {"uniqueid": "MTK0317:3Z7ISHFUH12J0EW58WPBV9T90OSZ8S", "current_trial": 85, "dateTime": 1510702787826, "trialdata": {"rt": -1, "stimulus": "<p id=\"stim\">3</p>", "key_press": -1, "trial_type": "single-stim", "trial_index": 85, "time_elapsed": 475715, "internal_node_id": "0.0-60.0-7.0"}}, {"uniqueid": "MTK0317:3Z7ISHFUH12J0EW58WPBV9T90OSZ8S", "current_trial": 86, "dateTime": 1510702788829, "trialdata": {"rt": -1, "stimulus": "<p id=\"stim\">2</p>", "key_press": -1, "trial_type": "single-stim", "trial_index": 86, "time_elapsed": 476718, "internal_node_id": "0.0-60.0-8.0"}}, {"uniqueid": "MTK0317:3Z7ISHFUH12J0EW58WPBV9T90OSZ8S", "current_trial": 87, "dateTime": 1510702789830, "trialdata": {"rt": -1, "stimulus": "<p id=\"stim\">1</p>", "key_press": -1, "trial_type": "single-stim", "trial_index": 87, "time_elapsed": 477719, "internal_node_id": "0.0-60.0-9.0"}}, {"uniqueid": "MTK0317:3Z7ISHFUH12J0EW58WPBV9T90OSZ8S", "current_trial": 88, "dateTime": 1510702791331, "trialdata": {"rt": -1, "stimulus": "<p id=\"stim\">+</p>", "key_press": -1, "type": "FIXATION", "trial_type": "single-stim", "trial_index": 88, "time_elapsed": 479221, "internal_node_id": "0.0-61.0-0.0"}}, {"uniqueid": "MTK0317:3Z7ISHFUH12J0EW58WPBV9T90OSZ8S", "current_trial": 89, "dateTime": 1510702793922, "trialdata": {"rt": -1000, "stimulus": "/static/audio/wordpool/COMPASS.wav", "key_press": -1, "type": "PRES_AUD", "word": "compass", "wordID": 357, "conditions": [12, 1600, "a", 24000], "trial": 2, "serialpos": 0, "trial_type": "single-audio", "trial_index": 89, "time_elapsed": 481812, "internal_node_id": "0.0-62.0"}}, {"uniqueid": "MTK0317:3Z7ISHFUH12J0EW58WPBV9T90OSZ8S", "current_trial": 90, "dateTime": 1510702796537, "trialdata": {"rt": -1000, "stimulus": "/static/audio/wordpool/PEBBLE.wav", "key_press": -1, "type": "PRES_AUD", "word": "pebble", "wordID": 1034, "conditions": [12, 1600, "a", 24000], "trial": 2, "serialpos": 1, "trial_type": "single-audio", "trial_index": 90, "time_elapsed": 484427, "internal_node_id": "0.0-63.0"}}, {"uniqueid": "MTK0317:3Z7ISHFUH12J0EW58WPBV9T90OSZ8S", "current_trial": 91, "dateTime": 1510702799069, "trialdata": {"rt": -1000, "stimulus": "/static/audio/wordpool/SHIRT.wav", "key_press": -1, "type": "PRES_AUD", "word": "shirt", "wordID": 1286, "conditions": [12, 1600, "a", 24000], "trial": 2, "serialpos": 2, "trial_type": "single-audio", "trial_index": 91, "time_elapsed": 486959, "internal_node_id": "0.0-64.0"}}, {"uniqueid": "MTK0317:3Z7ISHFUH12J0EW58WPBV9T90OSZ8S", "current_trial": 92, "dateTime": 1510702801767, "trialdata": {"rt": -1000, "stimulus": "/static/audio/wordpool/SCISSORS.wav", "key_press": -1, "type": "PRES_AUD", "word": "scissors", "wordID": 1249, "conditions": [12, 1600, "a", 24000], "trial": 2, "serialpos": 3, "trial_type": "single-audio", "trial_index": 92, "time_elapsed": 489657, "internal_node_id": "0.0-65.0"}}, {"uniqueid": "MTK0317:3Z7ISHFUH12J0EW58WPBV9T90OSZ8S", "current_trial": 93, "dateTime": 1510702804238, "trialdata": {"rt": -1000, "stimulus": "/static/audio/wordpool/SCALPEL.wav", "key_press": -1, "type": "PRES_AUD", "word": "scalpel", "wordID": 1242, "conditions": [12, 1600, "a", 24000], "trial": 2, "serialpos": 4, "trial_type": "single-audio", "trial_index": 93, "time_elapsed": 492128, "internal_node_id": "0.0-66.0"}}, {"uniqueid": "MTK0317:3Z7ISHFUH12J0EW58WPBV9T90OSZ8S", "current_trial": 94, "dateTime": 1510702806890, "trialdata": {"rt": -1000, "stimulus": "/static/audio/wordpool/LEOPARD.wav", "key_press": -1, "type": "PRES_AUD", "word": "leopard", "wordID": 811, "conditions": [12, 1600, "a", 24000], "trial": 2, "serialpos": 5, "trial_type": "single-audio", "trial_index": 94, "time_elapsed": 494780, "internal_node_id": "0.0-67.0"}}, {"uniqueid": "MTK0317:3Z7ISHFUH12J0EW58WPBV9T90OSZ8S", "current_trial": 95, "dateTime": 1510702809454, "trialdata": {"rt": -1000, "stimulus": "/static/audio/wordpool/JUDGE.wav", "key_press": -1, "type": "PRES_AUD", "word": "judge", "wordID": 760, "conditions": [12, 1600, "a", 24000], "trial": 2, "serialpos": 6, "trial_type": "single-audio", "trial_index": 95, "time_elapsed": 497344, "internal_node_id": "0.0-68.0"}}, {"uniqueid": "MTK0317:3Z7ISHFUH12J0EW58WPBV9T90OSZ8S", "current_trial": 96, "dateTime": 1510702812070, "trialdata": {"rt": -1000, "stimulus": "/static/audio/wordpool/WAITER.wav", "key_press": -1, "type": "PRES_AUD", "word": "waiter", "wordID": 1579, "conditions": [12, 1600, "a", 24000], "trial": 2, "serialpos": 7, "trial_type": "single-audio", "trial_index": 96, "time_elapsed": 499960, "internal_node_id": "0.0-69.0"}}, {"uniqueid": "MTK0317:3Z7ISHFUH12J0EW58WPBV9T90OSZ8S", "current_trial": 97, "dateTime": 1510702814666, "trialdata": {"rt": -1000, "stimulus": "/static/audio/wordpool/KEEPER.wav", "key_press": -1, "type": "PRES_AUD", "word": "keeper", "wordID": 768, "conditions": [12, 1600, "a", 24000], "trial": 2, "serialpos": 8, "trial_type": "single-audio", "trial_index": 97, "time_elapsed": 502556, "internal_node_id": "0.0-70.0"}}, {"uniqueid": "MTK0317:3Z7ISHFUH12J0EW58WPBV9T90OSZ8S", "current_trial": 98, "dateTime": 1510702817124, "trialdata": {"rt": -1000, "stimulus": "/static/audio/wordpool/BLOUSE.wav", "key_press": -1, "type": "PRES_AUD", "word": "blouse", "wordID": 138, "conditions": [12, 1600, "a", 24000], "trial": 2, "serialpos": 9, "trial_type": "single-audio", "trial_index": 98, "time_elapsed": 505014, "internal_node_id": "0.0-71.0"}}, {"uniqueid": "MTK0317:3Z7ISHFUH12J0EW58WPBV9T90OSZ8S", "current_trial": 99, "dateTime": 1510702819921, "trialdata": {"rt": -1000, "stimulus": "/static/audio/wordpool/FIDDLE.wav", "key_press": -1, "type": "PRES_AUD", "word": "fiddle", "wordID": 560, "conditions": [12, 1600, "a", 24000], "trial": 2, "serialpos": 10, "trial_type": "single-audio", "trial_index": 99, "time_elapsed": 507811, "internal_node_id": "0.0-72.0"}}, {"uniqueid": "MTK0317:3Z7ISHFUH12J0EW58WPBV9T90OSZ8S", "current_trial": 100, "dateTime": 1510702822521, "trialdata": {"rt": -1000, "stimulus": "/static/audio/wordpool/BLACKBOARD.wav", "key_press": -1, "type": "PRES_AUD", "word": "blackboard", "wordID": 132, "conditions": [12, 1600, "a", 24000], "trial": 2, "serialpos": 11, "trial_type": "single-audio", "trial_index": 100, "time_elapsed": 510411, "internal_node_id": "0.0-73.0"}}, {"uniqueid": "MTK0317:3Z7ISHFUH12J0EW58WPBV9T90OSZ8S", "current_trial": 101, "dateTime": 1510702823895, "trialdata": {"rt": -1, "stimulus": "", "key_press": -1, "type": "PRE_RECALL_DELAY", "trial_type": "single-stim", "trial_index": 101, "time_elapsed": 511785, "internal_node_id": "0.0-74.0-0.0"}}, {"uniqueid": "MTK0317:3Z7ISHFUH12J0EW58WPBV9T90OSZ8S", "current_trial": 102, "dateTime": 1510702824405, "trialdata": {"rt": -1000, "stimulus": "/static/audio/400Hz.wav", "key_press": -1, "type": "PRE_RECALL_ALERT", "trial_type": "single-audio", "trial_index": 102, "time_elapsed": 512295, "internal_node_id": "0.0-75.0"}}, {"uniqueid": "MTK0317:3Z7ISHFUH12J0EW58WPBV9T90OSZ8S", "current_trial": 103, "dateTime": 1510702884418, "trialdata": {"rt": [4867, 7232, 11118, 13683, 15672, 18850, 22578, 32876], "recwords": ["judge", "waiter", "blackboard", "fiddle", "compass", "pebble", "leopard", "scissors"], "type": "FREE_RECALL", "conditions": [12, 1600, "a", 24000], "trial": 2, "trial_type": "free-recall", "trial_index": 103, "time_elapsed": 572301, "internal_node_id": "0.0-76.0-0.0"}}, {"uniqueid": "MTK0317:3Z7ISHFUH12J0EW58WPBV9T90OSZ8S", "current_trial": 104, "dateTime": 1510702891044, "trialdata": {"rt": 4624, "key_press": 32, "type": "INSTRUCTIONS", "trial_type": "text", "trial_index": 104, "time_elapsed": 578934, "internal_node_id": "0.0-77.0"}}, {"uniqueid": "MTK0317:3Z7ISHFUH12J0EW58WPBV9T90OSZ8S", "current_trial": 105, "dateTime": 1510702917049, "trialdata": {"rt": [], "responses": [], "num1": [2], "num2": [6], "num3": [2], "type": "DISTRACTOR", "conditions": [12, 800, "a", 24000], "trial": 3, "trial_type": "math-distractor", "trial_index": 105, "time_elapsed": 604939, "internal_node_id": "0.0-78.0"}}, {"uniqueid": "MTK0317:3Z7ISHFUH12J0EW58WPBV9T90OSZ8S", "current_trial": 106, "dateTime": 1510702920052, "trialdata": {"rt": -1, "stimulus": "<p id=\"stim\">10</p>", "key_press": -1, "trial_type": "single-stim", "trial_index": 106, "time_elapsed": 607941, "internal_node_id": "0.0-79.0-0.0"}}, {"uniqueid": "MTK0317:3Z7ISHFUH12J0EW58WPBV9T90OSZ8S", "current_trial": 107, "dateTime": 1510702921053, "trialdata": {"rt": -1, "stimulus": "<p id=\"stim\">9</p>", "key_press": -1, "trial_type": "single-stim", "trial_index": 107, "time_elapsed": 608943, "internal_node_id": "0.0-79.0-1.0"}}, {"uniqueid": "MTK0317:3Z7ISHFUH12J0EW58WPBV9T90OSZ8S", "current_trial": 108, "dateTime": 1510702922056, "trialdata": {"rt": -1, "stimulus": "<p id=\"stim\">8</p>", "key_press": -1, "trial_type": "single-stim", "trial_index": 108, "time_elapsed": 609945, "internal_node_id": "0.0-79.0-2.0"}}, {"uniqueid": "MTK0317:3Z7ISHFUH12J0EW58WPBV9T90OSZ8S", "current_trial": 109, "dateTime": 1510702923057, "trialdata": {"rt": -1, "stimulus": "<p id=\"stim\">7</p>", "key_press": -1, "trial_type": "single-stim", "trial_index": 109, "time_elapsed": 610947, "internal_node_id": "0.0-79.0-3.0"}}, {"uniqueid": "MTK0317:3Z7ISHFUH12J0EW58WPBV9T90OSZ8S", "current_trial": 110, "dateTime": 1510702924059, "trialdata": {"rt": -1, "stimulus": "<p id=\"stim\">6</p>", "key_press": -1, "trial_type": "single-stim", "trial_index": 110, "time_elapsed": 611949, "internal_node_id": "0.0-79.0-4.0"}}, {"uniqueid": "MTK0317:3Z7ISHFUH12J0EW58WPBV9T90OSZ8S", "current_trial": 111, "dateTime": 1510702925061, "trialdata": {"rt": -1, "stimulus": "<p id=\"stim\">5</p>", "key_press": -1, "trial_type": "single-stim", "trial_index": 111, "time_elapsed": 612950, "internal_node_id": "0.0-79.0-5.0"}}, {"uniqueid": "MTK0317:3Z7ISHFUH12J0EW58WPBV9T90OSZ8S", "current_trial": 112, "dateTime": 1510702926062, "trialdata": {"rt": -1, "stimulus": "<p id=\"stim\">4</p>", "key_press": -1, "trial_type": "single-stim", "trial_index": 112, "time_elapsed": 613952, "internal_node_id": "0.0-79.0-6.0"}}, {"uniqueid": "MTK0317:3Z7ISHFUH12J0EW58WPBV9T90OSZ8S", "current_trial": 113, "dateTime": 1510702927065, "trialdata": {"rt": -1, "stimulus": "<p id=\"stim\">3</p>", "key_press": -1, "trial_type": "single-stim", "trial_index": 113, "time_elapsed": 614954, "internal_node_id": "0.0-79.0-7.0"}}, {"uniqueid": "MTK0317:3Z7ISHFUH12J0EW58WPBV9T90OSZ8S", "current_trial": 114, "dateTime": 1510702928066, "trialdata": {"rt": -1, "stimulus": "<p id=\"stim\">2</p>", "key_press": -1, "trial_type": "single-stim", "trial_index": 114, "time_elapsed": 615956, "internal_node_id": "0.0-79.0-8.0"}}, {"uniqueid": "MTK0317:3Z7ISHFUH12J0EW58WPBV9T90OSZ8S", "current_trial": 115, "dateTime": 1510702929068, "trialdata": {"rt": -1, "stimulus": "<p id=\"stim\">1</p>", "key_press": -1, "trial_type": "single-stim", "trial_index": 115, "time_elapsed": 616957, "internal_node_id": "0.0-79.0-9.0"}}, {"uniqueid": "MTK0317:3Z7ISHFUH12J0EW58WPBV9T90OSZ8S", "current_trial": 116, "dateTime": 1510702930570, "trialdata": {"rt": -1, "stimulus": "<p id=\"stim\">+</p>", "key_press": -1, "type": "FIXATION", "trial_type": "single-stim", "trial_index": 116, "time_elapsed": 618459, "internal_node_id": "0.0-80.0-0.0"}}, {"uniqueid": "MTK0317:3Z7ISHFUH12J0EW58WPBV9T90OSZ8S", "current_trial": 117, "dateTime": 1510702932355, "trialdata": {"rt": -1000, "stimulus": "/static/audio/wordpool/DENTIST.wav", "key_press": -1, "type": "PRES_AUD", "word": "dentist", "wordID": 446, "conditions": [12, 800, "a", 24000], "trial": 3, "serialpos": 0, "trial_type": "single-audio", "trial_index": 117, "time_elapsed": 620245, "internal_node_id": "0.0-81.0"}}, {"uniqueid": "MTK0317:3Z7ISHFUH12J0EW58WPBV9T90OSZ8S", "current_trial": 118, "dateTime": 1510702934224, "trialdata": {"rt": -1000, "stimulus": "/static/audio/wordpool/BROTHER.wav", "key_press": -1, "type": "PRES_AUD", "word": "brother", "wordID": 178, "conditions": [12, 800, "a", 24000], "trial": 3, "serialpos": 1, "trial_type": "single-audio", "trial_index": 118, "time_elapsed": 622114, "internal_node_id": "0.0-82.0"}}, {"uniqueid": "MTK0317:3Z7ISHFUH12J0EW58WPBV9T90OSZ8S", "current_trial": 119, "dateTime": 1510702936030, "trialdata": {"rt": -1000, "stimulus": "/static/audio/wordpool/OMELET.wav", "key_press": -1, "type": "PRES_AUD", "word": "omelet", "wordID": 975, "conditions": [12, 800, "a", 24000], "trial": 3, "serialpos": 2, "trial_type": "single-audio", "trial_index": 119, "time_elapsed": 623920, "internal_node_id": "0.0-83.0"}}, {"uniqueid": "MTK0317:3Z7ISHFUH12J0EW58WPBV9T90OSZ8S", "current_trial": 120, "dateTime": 1510702937677, "trialdata": {"rt": -1000, "stimulus": "/static/audio/wordpool/FOOT.wav", "key_press": -1, "type": "PRES_AUD", "word": "foot", "wordID": 589, "conditions": [12, 800, "a", 24000], "trial": 3, "serialpos": 3, "trial_type": "single-audio", "trial_index": 120, "time_elapsed": 625567, "internal_node_id": "0.0-84.0"}}, {"uniqueid": "MTK0317:3Z7ISHFUH12J0EW58WPBV9T90OSZ8S", "current_trial": 121, "dateTime": 1510702939299, "trialdata": {"rt": -1000, "stimulus": "/static/audio/wordpool/CHEST.wav", "key_press": -1, "type": "PRES_AUD", "word": "chest", "wordID": 294, "conditions": [12, 800, "a", 24000], "trial": 3, "serialpos": 4, "trial_type": "single-audio", "trial_index": 121, "time_elapsed": 627189, "internal_node_id": "0.0-85.0"}}, {"uniqueid": "MTK0317:3Z7ISHFUH12J0EW58WPBV9T90OSZ8S", "current_trial": 122, "dateTime": 1510702941276, "trialdata": {"rt": -1000, "stimulus": "/static/audio/wordpool/ANTLER.wav", "key_press": -1, "type": "PRES_AUD", "word": "antler", "wordID": 28, "conditions": [12, 800, "a", 24000], "trial": 3, "serialpos": 5, "trial_type": "single-audio", "trial_index": 122, "time_elapsed": 629166, "internal_node_id": "0.0-86.0"}}, {"uniqueid": "MTK0317:3Z7ISHFUH12J0EW58WPBV9T90OSZ8S", "current_trial": 123, "dateTime": 1510702943093, "trialdata": {"rt": -1000, "stimulus": "/static/audio/wordpool/CABIN.wav", "key_press": -1, "type": "PRES_AUD", "word": "cabin", "wordID": 210, "conditions": [12, 800, "a", 24000], "trial": 3, "serialpos": 6, "trial_type": "single-audio", "trial_index": 123, "time_elapsed": 630983, "internal_node_id": "0.0-87.0"}}, {"uniqueid": "MTK0317:3Z7ISHFUH12J0EW58WPBV9T90OSZ8S", "current_trial": 124, "dateTime": 1510702945024, "trialdata": {"rt": -1000, "stimulus": "/static/audio/wordpool/TOMBSTONE.wav", "key_press": -1, "type": "PRES_AUD", "word": "tombstone", "wordID": 1477, "conditions": [12, 800, "a", 24000], "trial": 3, "serialpos": 7, "trial_type": "single-audio", "trial_index": 124, "time_elapsed": 632914, "internal_node_id": "0.0-88.0"}}, {"uniqueid": "MTK0317:3Z7ISHFUH12J0EW58WPBV9T90OSZ8S", "current_trial": 125, "dateTime": 1510702946983, "trialdata": {"rt": -1000, "stimulus": "/static/audio/wordpool/STATUE.wav", "key_press": -1, "type": "PRES_AUD", "word": "statue", "wordID": 1373, "conditions": [12, 800, "a", 24000], "trial": 3, "serialpos": 8, "trial_type": "single-audio", "trial_index": 125, "time_elapsed": 634873, "internal_node_id": "0.0-89.0"}}, {"uniqueid": "MTK0317:3Z7ISHFUH12J0EW58WPBV9T90OSZ8S", "current_trial": 126, "dateTime": 1510702948754, "trialdata": {"rt": -1000, "stimulus": "/static/audio/wordpool/COUSIN.wav", "key_press": -1, "type": "PRES_AUD", "word": "cousin", "wordID": 391, "conditions": [12, 800, "a", 24000], "trial": 3, "serialpos": 9, "trial_type": "single-audio", "trial_index": 126, "time_elapsed": 636644, "internal_node_id": "0.0-90.0"}}, {"uniqueid": "MTK0317:3Z7ISHFUH12J0EW58WPBV9T90OSZ8S", "current_trial": 127, "dateTime": 1510702950709, "trialdata": {"rt": -1000, "stimulus": "/static/audio/wordpool/WIFE.wav", "key_press": -1, "type": "PRES_AUD", "word": "wife", "wordID": 1608, "conditions": [12, 800, "a", 24000], "trial": 3, "serialpos": 10, "trial_type": "single-audio", "trial_index": 127, "time_elapsed": 638599, "internal_node_id": "0.0-91.0"}}, {"uniqueid": "MTK0317:3Z7ISHFUH12J0EW58WPBV9T90OSZ8S", "current_trial": 128, "dateTime": 1510702952646, "trialdata": {"rt": -1000, "stimulus": "/static/audio/wordpool/ROBOT.wav", "key_press": -1, "type": "PRES_AUD", "word": "robot", "wordID": 1199, "conditions": [12, 800, "a", 24000], "trial": 3, "serialpos": 11, "trial_type": "single-audio", "trial_index": 128, "time_elapsed": 640536, "internal_node_id": "0.0-92.0"}}, {"uniqueid": "MTK0317:3Z7ISHFUH12J0EW58WPBV9T90OSZ8S", "current_trial": 129, "dateTime": 1510702953864, "trialdata": {"rt": -1, "stimulus": "", "key_press": -1, "type": "PRE_RECALL_DELAY", "trial_type": "single-stim", "trial_index": 129, "time_elapsed": 641754, "internal_node_id": "0.0-93.0-0.0"}}, {"uniqueid": "MTK0317:3Z7ISHFUH12J0EW58WPBV9T90OSZ8S", "current_trial": 130, "dateTime": 1510702954366, "trialdata": {"rt": -1000, "stimulus": "/static/audio/400Hz.wav", "key_press": -1, "type": "PRE_RECALL_ALERT", "trial_type": "single-audio", "trial_index": 130, "time_elapsed": 642256, "internal_node_id": "0.0-94.0"}}, {"uniqueid": "MTK0317:3Z7ISHFUH12J0EW58WPBV9T90OSZ8S", "current_trial": 131, "dateTime": 1510703014375, "trialdata": {"rt": [4395, 6628, 7970, 10274, 16129], "recwords": ["dentist", "brother", "wife", "robot", "toombstone"], "type": "FREE_RECALL", "conditions": [12, 800, "a", 24000], "trial": 3, "trial_type": "free-recall", "trial_index": 131, "time_elapsed": 702259, "internal_node_id": "0.0-95.0-0.0"}}, {"uniqueid": "MTK0317:3Z7ISHFUH12J0EW58WPBV9T90OSZ8S", "current_trial": 132, "dateTime": 1510703207020, "trialdata": {"rt": 190637, "key_press": 32, "type": "INSTRUCTIONS", "trial_type": "text", "trial_index": 132, "time_elapsed": 894910, "internal_node_id": "0.0-96.0"}}, {"uniqueid": "MTK0317:3Z7ISHFUH12J0EW58WPBV9T90OSZ8S", "current_trial": 133, "dateTime": 1510703233025, "trialdata": {"rt": [7883, 13859, 17107, 20228, 23059], "responses": ["10 ", "21", "13", "17", "13"], "num1": [1, 7, 1, 8, 9, 3], "num2": [1, 9, 6, 7, 1, 4], "num3": [8, 5, 6, 2, 3, 3], "type": "DISTRACTOR", "conditions": [24, 1600, "v", 24000], "trial": 4, "trial_type": "math-distractor", "trial_index": 133, "time_elapsed": 920915, "internal_node_id": "0.0-97.0"}}, {"uniqueid": "MTK0317:3Z7ISHFUH12J0EW58WPBV9T90OSZ8S", "current_trial": 134, "dateTime": 1510703236028, "trialdata": {"rt": -1, "stimulus": "<p id=\"stim\">10</p>", "key_press": -1, "trial_type": "single-stim", "trial_index": 134, "time_elapsed": 923917, "internal_node_id": "0.0-98.0-0.0"}}, {"uniqueid": "MTK0317:3Z7ISHFUH12J0EW58WPBV9T90OSZ8S", "current_trial": 135, "dateTime": 1510703237030, "trialdata": {"rt": -1, "stimulus": "<p id=\"stim\">9</p>", "key_press": -1, "trial_type": "single-stim", "trial_index": 135, "time_elapsed": 924919, "internal_node_id": "0.0-98.0-1.0"}}, {"uniqueid": "MTK0317:3Z7ISHFUH12J0EW58WPBV9T90OSZ8S", "current_trial": 136, "dateTime": 1510703238032, "trialdata": {"rt": -1, "stimulus": "<p id=\"stim\">8</p>", "key_press": -1, "trial_type": "single-stim", "trial_index": 136, "time_elapsed": 925921, "internal_node_id": "0.0-98.0-2.0"}}, {"uniqueid": "MTK0317:3Z7ISHFUH12J0EW58WPBV9T90OSZ8S", "current_trial": 137, "dateTime": 1510703239034, "trialdata": {"rt": -1, "stimulus": "<p id=\"stim\">7</p>", "key_press": -1, "trial_type": "single-stim", "trial_index": 137, "time_elapsed": 926923, "internal_node_id": "0.0-98.0-3.0"}}, {"uniqueid": "MTK0317:3Z7ISHFUH12J0EW58WPBV9T90OSZ8S", "current_trial": 138, "dateTime": 1510703240037, "trialdata": {"rt": -1, "stimulus": "<p id=\"stim\">6</p>", "key_press": -1, "trial_type": "single-stim", "trial_index": 138, "time_elapsed": 927926, "internal_node_id": "0.0-98.0-4.0"}}, {"uniqueid": "MTK0317:3Z7ISHFUH12J0EW58WPBV9T90OSZ8S", "current_trial": 139, "dateTime": 1510703241039, "trialdata": {"rt": -1, "stimulus": "<p id=\"stim\">5</p>", "key_press": -1, "trial_type": "single-stim", "trial_index": 139, "time_elapsed": 928928, "internal_node_id": "0.0-98.0-5.0"}}, {"uniqueid": "MTK0317:3Z7ISHFUH12J0EW58WPBV9T90OSZ8S", "current_trial": 140, "dateTime": 1510703242040, "trialdata": {"rt": -1, "stimulus": "<p id=\"stim\">4</p>", "key_press": -1, "trial_type": "single-stim", "trial_index": 140, "time_elapsed": 929929, "internal_node_id": "0.0-98.0-6.0"}}, {"uniqueid": "MTK0317:3Z7ISHFUH12J0EW58WPBV9T90OSZ8S", "current_trial": 141, "dateTime": 1510703243043, "trialdata": {"rt": -1, "stimulus": "<p id=\"stim\">3</p>", "key_press": -1, "trial_type": "single-stim", "trial_index": 141, "time_elapsed": 930932, "internal_node_id": "0.0-98.0-7.0"}}, {"uniqueid": "MTK0317:3Z7ISHFUH12J0EW58WPBV9T90OSZ8S", "current_trial": 142, "dateTime": 1510703244044, "trialdata": {"rt": -1, "stimulus": "<p id=\"stim\">2</p>", "key_press": -1, "trial_type": "single-stim", "trial_index": 142, "time_elapsed": 931933, "internal_node_id": "0.0-98.0-8.0"}}, {"uniqueid": "MTK0317:3Z7ISHFUH12J0EW58WPBV9T90OSZ8S", "current_trial": 143, "dateTime": 1510703245049, "trialdata": {"rt": -1, "stimulus": "<p id=\"stim\">1</p>", "key_press": -1, "trial_type": "single-stim", "trial_index": 143, "time_elapsed": 932935, "internal_node_id": "0.0-98.0-9.0"}}, {"uniqueid": "MTK0317:3Z7ISHFUH12J0EW58WPBV9T90OSZ8S", "current_trial": 144, "dateTime": 1510703246552, "trialdata": {"rt": -1, "stimulus": "<p id=\"stim\">+</p>", "key_press": -1, "type": "FIXATION", "trial_type": "single-stim", "trial_index": 144, "time_elapsed": 934441, "internal_node_id": "0.0-99.0-0.0"}}, {"uniqueid": "MTK0317:3Z7ISHFUH12J0EW58WPBV9T90OSZ8S", "current_trial": 145, "dateTime": 1510703248154, "trialdata": {"rt": -1, "stimulus": "<p id=\"stim\">INMATE</p>", "key_press": -1, "type": "PRES_VIS", "word": "inmate", "wordID": 737, "conditions": [24, 1600, "v", 24000], "trial": 4, "serialpos": 0, "trial_type": "single-stim", "trial_index": 145, "time_elapsed": 936043, "internal_node_id": "0.0-100.0"}}, {"uniqueid": "MTK0317:3Z7ISHFUH12J0EW58WPBV9T90OSZ8S", "current_trial": 146, "dateTime": 1510703250621, "trialdata": {"rt": -1, "stimulus": "<p id=\"stim\">STOVE</p>", "key_press": -1, "type": "PRES_VIS", "word": "stove", "wordID": 1387, "conditions": [24, 1600, "v", 24000], "trial": 4, "serialpos": 1, "trial_type": "single-stim", "trial_index": 146, "time_elapsed": 938510, "internal_node_id": "0.0-101.0"}}, {"uniqueid": "MTK0317:3Z7ISHFUH12J0EW58WPBV9T90OSZ8S", "current_trial": 147, "dateTime": 1510703253285, "trialdata": {"rt": -1, "stimulus": "<p id=\"stim\">WRIST</p>", "key_press": -1, "type": "PRES_VIS", "word": "wrist", "wordID": 1625, "conditions": [24, 1600, "v", 24000], "trial": 4, "serialpos": 2, "trial_type": "single-stim", "trial_index": 147, "time_elapsed": 941174, "internal_node_id": "0.0-102.0"}}, {"uniqueid": "MTK0317:3Z7ISHFUH12J0EW58WPBV9T90OSZ8S", "current_trial": 148, "dateTime": 1510703256079, "trialdata": {"rt": -1, "stimulus": "<p id=\"stim\">SERVER</p>", "key_press": -1, "type": "PRES_VIS", "word": "server", "wordID": 1271, "conditions": [24, 1600, "v", 24000], "trial": 4, "serialpos": 3, "trial_type": "single-stim", "trial_index": 148, "time_elapsed": 943964, "internal_node_id": "0.0-103.0"}}, {"uniqueid": "MTK0317:3Z7ISHFUH12J0EW58WPBV9T90OSZ8S", "current_trial": 149, "dateTime": 1510703258549, "trialdata": {"rt": -1, "stimulus": "<p id=\"stim\">TURNIP</p>", "key_press": -1, "type": "PRES_VIS", "word": "turnip", "wordID": 1520, "conditions": [24, 1600, "v", 24000], "trial": 4, "serialpos": 4, "trial_type": "single-stim", "trial_index": 149, "time_elapsed": 946438, "internal_node_id": "0.0-104.0"}}, {"uniqueid": "MTK0317:3Z7ISHFUH12J0EW58WPBV9T90OSZ8S", "current_trial": 150, "dateTime": 1510703260994, "trialdata": {"rt": -1, "stimulus": "<p id=\"stim\">EXPERT</p>", "key_press": -1, "type": "PRES_VIS", "word": "expert", "wordID": 542, "conditions": [24, 1600, "v", 24000], "trial": 4, "serialpos": 5, "trial_type": "single-stim", "trial_index": 150, "time_elapsed": 948883, "internal_node_id": "0.0-105.0"}}, {"uniqueid": "MTK0317:3Z7ISHFUH12J0EW58WPBV9T90OSZ8S", "current_trial": 151, "dateTime": 1510703263510, "trialdata": {"rt": -1, "stimulus": "<p id=\"stim\">DINER</p>", "key_press": -1, "type": "PRES_VIS", "word": "diner", "wordID": 466, "conditions": [24, 1600, "v", 24000], "trial": 4, "serialpos": 6, "trial_type": "single-stim", "trial_index": 151, "time_elapsed": 951399, "internal_node_id": "0.0-106.0"}}, {"uniqueid": "MTK0317:3Z7ISHFUH12J0EW58WPBV9T90OSZ8S", "current_trial": 152, "dateTime": 1510703266163, "trialdata": {"rt": -1, "stimulus": "<p id=\"stim\">SUNRISE</p>", "key_press": -1, "type": "PRES_VIS", "word": "sunrise", "wordID": 1406, "conditions": [24, 1600, "v", 24000], "trial": 4, "serialpos": 7, "trial_type": "single-stim", "trial_index": 152, "time_elapsed": 954052, "internal_node_id": "0.0-107.0"}}, {"uniqueid": "MTK0317:3Z7ISHFUH12J0EW58WPBV9T90OSZ8S", "current_trial": 153, "dateTime": 1510703268592, "trialdata": {"rt": -1, "stimulus": "<p id=\"stim\">SUNSET</p>", "key_press": -1, "type": "PRES_VIS", "word": "sunset", "wordID": 1407, "conditions": [24, 1600, "v", 24000], "trial": 4, "serialpos": 8, "trial_type": "single-stim", "trial_index": 153, "time_elapsed": 956481, "internal_node_id": "0.0-108.0"}}, {"uniqueid": "MTK0317:3Z7ISHFUH12J0EW58WPBV9T90OSZ8S", "current_trial": 154, "dateTime": 1510703271391, "trialdata": {"rt": -1, "stimulus": "<p id=\"stim\">TOASTER</p>", "key_press": -1, "type": "PRES_VIS", "word": "toaster", "wordID": 1471, "conditions": [24, 1600, "v", 24000], "trial": 4, "serialpos": 9, "trial_type": "single-stim", "trial_index": 154, "time_elapsed": 959280, "internal_node_id": "0.0-109.0"}}, {"uniqueid": "MTK0317:3Z7ISHFUH12J0EW58WPBV9T90OSZ8S", "current_trial": 155, "dateTime": 1510703274175, "trialdata": {"rt": -1, "stimulus": "<p id=\"stim\">CUSTARD</p>", "key_press": -1, "type": "PRES_VIS", "word": "custard", "wordID": 428, "conditions": [24, 1600, "v", 24000], "trial": 4, "serialpos": 10, "trial_type": "single-stim", "trial_index": 155, "time_elapsed": 962065, "internal_node_id": "0.0-110.0"}}, {"uniqueid": "MTK0317:3Z7ISHFUH12J0EW58WPBV9T90OSZ8S", "current_trial": 156, "dateTime": 1510703276603, "trialdata": {"rt": -1, "stimulus": "<p id=\"stim\">PIMPLE</p>", "key_press": -1, "type": "PRES_VIS", "word": "pimple", "wordID": 1070, "conditions": [24, 1600, "v", 24000], "trial": 4, "serialpos": 11, "trial_type": "single-stim", "trial_index": 156, "time_elapsed": 964492, "internal_node_id": "0.0-111.0"}}, {"uniqueid": "MTK0317:3Z7ISHFUH12J0EW58WPBV9T90OSZ8S", "current_trial": 157, "dateTime": 1510703279074, "trialdata": {"rt": -1, "stimulus": "<p id=\"stim\">CHAUFFEUR</p>", "key_press": -1, "type": "PRES_VIS", "word": "chauffeur", "wordID": 282, "conditions": [24, 1600, "v", 24000], "trial": 4, "serialpos": 12, "trial_type": "single-stim", "trial_index": 157, "time_elapsed": 966963, "internal_node_id": "0.0-112.0"}}, {"uniqueid": "MTK0317:3Z7ISHFUH12J0EW58WPBV9T90OSZ8S", "current_trial": 158, "dateTime": 1510703281734, "trialdata": {"rt": -1, "stimulus": "<p id=\"stim\">RABBIT</p>", "key_press": -1, "type": "PRES_VIS", "word": "rabbit", "wordID": 1151, "conditions": [24, 1600, "v", 24000], "trial": 4, "serialpos": 13, "trial_type": "single-stim", "trial_index": 158, "time_elapsed": 969623, "internal_node_id": "0.0-113.0"}}, {"uniqueid": "MTK0317:3Z7ISHFUH12J0EW58WPBV9T90OSZ8S", "current_trial": 159, "dateTime": 1510703284343, "trialdata": {"rt": -1, "stimulus": "<p id=\"stim\">YACHT</p>", "key_press": -1, "type": "PRES_VIS", "word": "yacht", "wordID": 1628, "conditions": [24, 1600, "v", 24000], "trial": 4, "serialpos": 14, "trial_type": "single-stim", "trial_index": 159, "time_elapsed": 972233, "internal_node_id": "0.0-114.0"}}, {"uniqueid": "MTK0317:3Z7ISHFUH12J0EW58WPBV9T90OSZ8S", "current_trial": 160, "dateTime": 1510703286847, "trialdata": {"rt": -1, "stimulus": "<p id=\"stim\">MOTOR</p>", "key_press": -1, "type": "PRES_VIS", "word": "motor", "wordID": 921, "conditions": [24, 1600, "v", 24000], "trial": 4, "serialpos": 15, "trial_type": "single-stim", "trial_index": 160, "time_elapsed": 974736, "internal_node_id": "0.0-115.0"}}, {"uniqueid": "MTK0317:3Z7ISHFUH12J0EW58WPBV9T90OSZ8S", "current_trial": 161, "dateTime": 1510703289309, "trialdata": {"rt": -1, "stimulus": "<p id=\"stim\">TROUT</p>", "key_press": -1, "type": "PRES_VIS", "word": "trout", "wordID": 1510, "conditions": [24, 1600, "v", 24000], "trial": 4, "serialpos": 16, "trial_type": "single-stim", "trial_index": 161, "time_elapsed": 977198, "internal_node_id": "0.0-116.0"}}, {"uniqueid": "MTK0317:3Z7ISHFUH12J0EW58WPBV9T90OSZ8S", "current_trial": 162, "dateTime": 1510703292003, "trialdata": {"rt": -1, "stimulus": "<p id=\"stim\">SHOULDER</p>", "key_press": -1, "type": "PRES_VIS", "word": "shoulder", "wordID": 1293, "conditions": [24, 1600, "v", 24000], "trial": 4, "serialpos": 17, "trial_type": "single-stim", "trial_index": 162, "time_elapsed": 979892, "internal_node_id": "0.0-117.0"}}, {"uniqueid": "MTK0317:3Z7ISHFUH12J0EW58WPBV9T90OSZ8S", "current_trial": 163, "dateTime": 1510703294567, "trialdata": {"rt": -1, "stimulus": "<p id=\"stim\">BEAVER</p>", "key_press": -1, "type": "PRES_VIS", "word": "beaver", "wordID": 108, "conditions": [24, 1600, "v", 24000], "trial": 4, "serialpos": 18, "trial_type": "single-stim", "trial_index": 163, "time_elapsed": 982457, "internal_node_id": "0.0-118.0"}}, {"uniqueid": "MTK0317:3Z7ISHFUH12J0EW58WPBV9T90OSZ8S", "current_trial": 164, "dateTime": 1510703297332, "trialdata": {"rt": -1, "stimulus": "<p id=\"stim\">CROSS</p>", "key_press": -1, "type": "PRES_VIS", "word": "cross", "wordID": 412, "conditions": [24, 1600, "v", 24000], "trial": 4, "serialpos": 19, "trial_type": "single-stim", "trial_index": 164, "time_elapsed": 985222, "internal_node_id": "0.0-119.0"}}, {"uniqueid": "MTK0317:3Z7ISHFUH12J0EW58WPBV9T90OSZ8S", "current_trial": 165, "dateTime": 1510703300033, "trialdata": {"rt": -1, "stimulus": "<p id=\"stim\">KIDNEY</p>", "key_press": -1, "type": "PRES_VIS", "word": "kidney", "wordID": 775, "conditions": [24, 1600, "v", 24000], "trial": 4, "serialpos": 20, "trial_type": "single-stim", "trial_index": 165, "time_elapsed": 987922, "internal_node_id": "0.0-120.0"}}, {"uniqueid": "MTK0317:3Z7ISHFUH12J0EW58WPBV9T90OSZ8S", "current_trial": 166, "dateTime": 1510703302757, "trialdata": {"rt": -1, "stimulus": "<p id=\"stim\">WORLD</p>", "key_press": -1, "type": "PRES_VIS", "word": "world", "wordID": 1621, "conditions": [24, 1600, "v", 24000], "trial": 4, "serialpos": 21, "trial_type": "single-stim", "trial_index": 166, "time_elapsed": 990646, "internal_node_id": "0.0-121.0"}}, {"uniqueid": "MTK0317:3Z7ISHFUH12J0EW58WPBV9T90OSZ8S", "current_trial": 167, "dateTime": 1510703305540, "trialdata": {"rt": -1, "stimulus": "<p id=\"stim\">GLOBE</p>", "key_press": -1, "type": "PRES_VIS", "word": "globe", "wordID": 640, "conditions": [24, 1600, "v", 24000], "trial": 4, "serialpos": 22, "trial_type": "single-stim", "trial_index": 167, "time_elapsed": 993429, "internal_node_id": "0.0-122.0"}}, {"uniqueid": "MTK0317:3Z7ISHFUH12J0EW58WPBV9T90OSZ8S", "current_trial": 168, "dateTime": 1510703308216, "trialdata": {"rt": -1, "stimulus": "<p id=\"stim\">HAND</p>", "key_press": -1, "type": "PRES_VIS", "word": "hand", "wordID": 682, "conditions": [24, 1600, "v", 24000], "trial": 4, "serialpos": 23, "trial_type": "single-stim", "trial_index": 168, "time_elapsed": 996105, "internal_node_id": "0.0-123.0"}}, {"uniqueid": "MTK0317:3Z7ISHFUH12J0EW58WPBV9T90OSZ8S", "current_trial": 169, "dateTime": 1510703310408, "trialdata": {"rt": -1, "stimulus": "", "key_press": -1, "type": "PRE_RECALL_DELAY", "trial_type": "single-stim", "trial_index": 169, "time_elapsed": 998297, "internal_node_id": "0.0-124.0-0.0"}}, {"uniqueid": "MTK0317:3Z7ISHFUH12J0EW58WPBV9T90OSZ8S", "current_trial": 170, "dateTime": 1510703310913, "trialdata": {"rt": -1000, "stimulus": "/static/audio/400Hz.wav", "key_press": -1, "type": "PRE_RECALL_ALERT", "trial_type": "single-audio", "trial_index": 170, "time_elapsed": 998803, "internal_node_id": "0.0-125.0"}}, {"uniqueid": "MTK0317:3Z7ISHFUH12J0EW58WPBV9T90OSZ8S", "current_trial": 171, "dateTime": 1510703370926, "trialdata": {"rt": [9387, 12040, 14185, 19967, 23017], "recwords": ["inmate", "stove", "wrist", "globe", "chauffer"], "type": "FREE_RECALL", "conditions": [24, 1600, "v", 24000], "trial": 4, "trial_type": "free-recall", "trial_index": 171, "time_elapsed": 1058809, "internal_node_id": "0.0-126.0-0.0"}}, {"uniqueid": "MTK0317:3Z7ISHFUH12J0EW58WPBV9T90OSZ8S", "current_trial": 172, "dateTime": 1510703383228, "trialdata": {"rt": 10300, "key_press": 32, "type": "INSTRUCTIONS", "trial_type": "text", "trial_index": 172, "time_elapsed": 1071118, "internal_node_id": "0.0-127.0"}}, {"uniqueid": "MTK0317:3Z7ISHFUH12J0EW58WPBV9T90OSZ8S", "current_trial": 173, "dateTime": 1510703409233, "trialdata": {"rt": [4988, 11236, 13835, 16100, 18068, 20708, 23052], "responses": ["10", "21", "12", "24", "9", "19", "10"], "num1": [5, 3, 2, 8, 4, 8, 2, 9], "num2": [1, 9, 1, 8, 4, 2, 5, 6], "num3": [4, 9, 9, 8, 1, 9, 3, 2], "type": "DISTRACTOR", "conditions": [12, 1600, "v", 24000], "trial": 5, "trial_type": "math-distractor", "trial_index": 173, "time_elapsed": 1097123, "internal_node_id": "0.0-128.0"}}, {"uniqueid": "MTK0317:3Z7ISHFUH12J0EW58WPBV9T90OSZ8S", "current_trial": 174, "dateTime": 1510703412237, "trialdata": {"rt": -1, "stimulus": "<p id=\"stim\">10</p>", "key_press": -1, "trial_type": "single-stim", "trial_index": 174, "time_elapsed": 1100127, "internal_node_id": "0.0-129.0-0.0"}}, {"uniqueid": "MTK0317:3Z7ISHFUH12J0EW58WPBV9T90OSZ8S", "current_trial": 175, "dateTime": 1510703413239, "trialdata": {"rt": -1, "stimulus": "<p id=\"stim\">9</p>", "key_press": -1, "trial_type": "single-stim", "trial_index": 175, "time_elapsed": 1101128, "internal_node_id": "0.0-129.0-1.0"}}, {"uniqueid": "MTK0317:3Z7ISHFUH12J0EW58WPBV9T90OSZ8S", "current_trial": 176, "dateTime": 1510703414241, "trialdata": {"rt": -1, "stimulus": "<p id=\"stim\">8</p>", "key_press": -1, "trial_type": "single-stim", "trial_index": 176, "time_elapsed": 1102130, "internal_node_id": "0.0-129.0-2.0"}}, {"uniqueid": "MTK0317:3Z7ISHFUH12J0EW58WPBV9T90OSZ8S", "current_trial": 177, "dateTime": 1510703415243, "trialdata": {"rt": -1, "stimulus": "<p id=\"stim\">7</p>", "key_press": -1, "trial_type": "single-stim", "trial_index": 177, "time_elapsed": 1103132, "internal_node_id": "0.0-129.0-3.0"}}, {"uniqueid": "MTK0317:3Z7ISHFUH12J0EW58WPBV9T90OSZ8S", "current_trial": 178, "dateTime": 1510703416244, "trialdata": {"rt": -1, "stimulus": "<p id=\"stim\">6</p>", "key_press": -1, "trial_type": "single-stim", "trial_index": 178, "time_elapsed": 1104134, "internal_node_id": "0.0-129.0-4.0"}}, {"uniqueid": "MTK0317:3Z7ISHFUH12J0EW58WPBV9T90OSZ8S", "current_trial": 179, "dateTime": 1510703417247, "trialdata": {"rt": -1, "stimulus": "<p id=\"stim\">5</p>", "key_press": -1, "trial_type": "single-stim", "trial_index": 179, "time_elapsed": 1105137, "internal_node_id": "0.0-129.0-5.0"}}, {"uniqueid": "MTK0317:3Z7ISHFUH12J0EW58WPBV9T90OSZ8S", "current_trial": 180, "dateTime": 1510703418249, "trialdata": {"rt": -1, "stimulus": "<p id=\"stim\">4</p>", "key_press": -1, "trial_type": "single-stim", "trial_index": 180, "time_elapsed": 1106138, "internal_node_id": "0.0-129.0-6.0"}}, {"uniqueid": "MTK0317:3Z7ISHFUH12J0EW58WPBV9T90OSZ8S", "current_trial": 181, "dateTime": 1510703419251, "trialdata": {"rt": -1, "stimulus": "<p id=\"stim\">3</p>", "key_press": -1, "trial_type": "single-stim", "trial_index": 181, "time_elapsed": 1107140, "internal_node_id": "0.0-129.0-7.0"}}, {"uniqueid": "MTK0317:3Z7ISHFUH12J0EW58WPBV9T90OSZ8S", "current_trial": 182, "dateTime": 1510703420253, "trialdata": {"rt": -1, "stimulus": "<p id=\"stim\">2</p>", "key_press": -1, "trial_type": "single-stim", "trial_index": 182, "time_elapsed": 1108142, "internal_node_id": "0.0-129.0-8.0"}}, {"uniqueid": "MTK0317:3Z7ISHFUH12J0EW58WPBV9T90OSZ8S", "current_trial": 183, "dateTime": 1510703421258, "trialdata": {"rt": -1, "stimulus": "<p id=\"stim\">1</p>", "key_press": -1, "trial_type": "single-stim", "trial_index": 183, "time_elapsed": 1109147, "internal_node_id": "0.0-129.0-9.0"}}, {"uniqueid": "MTK0317:3Z7ISHFUH12J0EW58WPBV9T90OSZ8S", "current_trial": 184, "dateTime": 1510703422760, "trialdata": {"rt": -1, "stimulus": "<p id=\"stim\">+</p>", "key_press": -1, "type": "FIXATION", "trial_type": "single-stim", "trial_index": 184, "time_elapsed": 1110649, "internal_node_id": "0.0-130.0-0.0"}}, {"uniqueid": "MTK0317:3Z7ISHFUH12J0EW58WPBV9T90OSZ8S", "current_trial": 185, "dateTime": 1510703424363, "trialdata": {"rt": -1, "stimulus": "<p id=\"stim\">SALMON</p>", "key_press": -1, "type": "PRES_VIS", "word": "salmon", "wordID": 1226, "conditions": [12, 1600, "v", 24000], "trial": 5, "serialpos": 0, "trial_type": "single-stim", "trial_index": 185, "time_elapsed": 1112252, "internal_node_id": "0.0-131.0"}}, {"uniqueid": "MTK0317:3Z7ISHFUH12J0EW58WPBV9T90OSZ8S", "current_trial": 186, "dateTime": 1510703426780, "trialdata": {"rt": -1, "stimulus": "<p id=\"stim\">PEACH</p>", "key_press": -1, "type": "PRES_VIS", "word": "peach", "wordID": 1030, "conditions": [12, 1600, "v", 24000], "trial": 5, "serialpos": 1, "trial_type": "single-stim", "trial_index": 186, "time_elapsed": 1114670, "internal_node_id": "0.0-132.0"}}, {"uniqueid": "MTK0317:3Z7ISHFUH12J0EW58WPBV9T90OSZ8S", "current_trial": 187, "dateTime": 1510703429567, "trialdata": {"rt": -1, "stimulus": "<p id=\"stim\">RATTLE</p>", "key_press": -1, "type": "PRES_VIS", "word": "rattle", "wordID": 1169, "conditions": [12, 1600, "v", 24000], "trial": 5, "serialpos": 2, "trial_type": "single-stim", "trial_index": 187, "time_elapsed": 1117456, "internal_node_id": "0.0-133.0"}}, {"uniqueid": "MTK0317:3Z7ISHFUH12J0EW58WPBV9T90OSZ8S", "current_trial": 188, "dateTime": 1510703432151, "trialdata": {"rt": -1, "stimulus": "<p id=\"stim\">MARKET</p>", "key_press": -1, "type": "PRES_VIS", "word": "market", "wordID": 870, "conditions": [12, 1600, "v", 24000], "trial": 5, "serialpos": 3, "trial_type": "single-stim", "trial_index": 188, "time_elapsed": 1120041, "internal_node_id": "0.0-134.0"}}, {"uniqueid": "MTK0317:3Z7ISHFUH12J0EW58WPBV9T90OSZ8S", "current_trial": 189, "dateTime": 1510703434799, "trialdata": {"rt": -1, "stimulus": "<p id=\"stim\">AGENT</p>", "key_press": -1, "type": "PRES_VIS", "word": "agent", "wordID": 9, "conditions": [12, 1600, "v", 24000], "trial": 5, "serialpos": 4, "trial_type": "single-stim", "trial_index": 189, "time_elapsed": 1122689, "internal_node_id": "0.0-135.0"}}, {"uniqueid": "MTK0317:3Z7ISHFUH12J0EW58WPBV9T90OSZ8S", "current_trial": 190, "dateTime": 1510703437246, "trialdata": {"rt": -1, "stimulus": "<p id=\"stim\">HUSBAND</p>", "key_press": -1, "type": "PRES_VIS", "word": "husband", "wordID": 727, "conditions": [12, 1600, "v", 24000], "trial": 5, "serialpos": 5, "trial_type": "single-stim", "trial_index": 190, "time_elapsed": 1125136, "internal_node_id": "0.0-136.0"}}, {"uniqueid": "MTK0317:3Z7ISHFUH12J0EW58WPBV9T90OSZ8S", "current_trial": 191, "dateTime": 1510703439841, "trialdata": {"rt": -1, "stimulus": "<p id=\"stim\">CHIPMUNK</p>", "key_press": -1, "type": "PRES_VIS", "word": "chipmunk", "wordID": 303, "conditions": [12, 1600, "v", 24000], "trial": 5, "serialpos": 6, "trial_type": "single-stim", "trial_index": 191, "time_elapsed": 1127730, "internal_node_id": "0.0-137.0"}}, {"uniqueid": "MTK0317:3Z7ISHFUH12J0EW58WPBV9T90OSZ8S", "current_trial": 192, "dateTime": 1510703442560, "trialdata": {"rt": -1, "stimulus": "<p id=\"stim\">JELLO</p>", "key_press": -1, "type": "PRES_VIS", "word": "jello", "wordID": 753, "conditions": [12, 1600, "v", 24000], "trial": 5, "serialpos": 7, "trial_type": "single-stim", "trial_index": 192, "time_elapsed": 1130450, "internal_node_id": "0.0-138.0"}}, {"uniqueid": "MTK0317:3Z7ISHFUH12J0EW58WPBV9T90OSZ8S", "current_trial": 193, "dateTime": 1510703444989, "trialdata": {"rt": -1, "stimulus": "<p id=\"stim\">JELLY</p>", "key_press": -1, "type": "PRES_VIS", "word": "jelly", "wordID": 754, "conditions": [12, 1600, "v", 24000], "trial": 5, "serialpos": 8, "trial_type": "single-stim", "trial_index": 193, "time_elapsed": 1132878, "internal_node_id": "0.0-139.0"}}, {"uniqueid": "MTK0317:3Z7ISHFUH12J0EW58WPBV9T90OSZ8S", "current_trial": 194, "dateTime": 1510703447677, "trialdata": {"rt": -1, "stimulus": "<p id=\"stim\">LOVER</p>", "key_press": -1, "type": "PRES_VIS", "word": "lover", "wordID": 845, "conditions": [12, 1600, "v", 24000], "trial": 5, "serialpos": 9, "trial_type": "single-stim", "trial_index": 194, "time_elapsed": 1135566, "internal_node_id": "0.0-140.0"}}, {"uniqueid": "MTK0317:3Z7ISHFUH12J0EW58WPBV9T90OSZ8S", "current_trial": 195, "dateTime": 1510703450297, "trialdata": {"rt": -1, "stimulus": "<p id=\"stim\">PRINCESS</p>", "key_press": -1, "type": "PRES_VIS", "word": "princess", "wordID": 1124, "conditions": [12, 1600, "v", 24000], "trial": 5, "serialpos": 10, "trial_type": "single-stim", "trial_index": 195, "time_elapsed": 1138186, "internal_node_id": "0.0-141.0"}}, {"uniqueid": "MTK0317:3Z7ISHFUH12J0EW58WPBV9T90OSZ8S", "current_trial": 196, "dateTime": 1510703452898, "trialdata": {"rt": -1, "stimulus": "<p id=\"stim\">PEANUT</p>", "key_press": -1, "type": "PRES_VIS", "word": "peanut", "wordID": 1031, "conditions": [12, 1600, "v", 24000], "trial": 5, "serialpos": 11, "trial_type": "single-stim", "trial_index": 196, "time_elapsed": 1140788, "internal_node_id": "0.0-142.0"}}, {"uniqueid": "MTK0317:3Z7ISHFUH12J0EW58WPBV9T90OSZ8S", "current_trial": 197, "dateTime": 1510703455154, "trialdata": {"rt": -1, "stimulus": "", "key_press": -1, "type": "PRE_RECALL_DELAY", "trial_type": "single-stim", "trial_index": 197, "time_elapsed": 1143043, "internal_node_id": "0.0-143.0-0.0"}}, {"uniqueid": "MTK0317:3Z7ISHFUH12J0EW58WPBV9T90OSZ8S", "current_trial": 198, "dateTime": 1510703455656, "trialdata": {"rt": -1000, "stimulus": "/static/audio/400Hz.wav", "key_press": -1, "type": "PRE_RECALL_ALERT", "trial_type": "single-audio", "trial_index": 198, "time_elapsed": 1143546, "internal_node_id": "0.0-144.0"}}, {"uniqueid": "MTK0317:3Z7ISHFUH12J0EW58WPBV9T90OSZ8S", "current_trial": 199, "dateTime": 1510703515667, "trialdata": {"rt": [3305, 3480, 11529, 17849, 21505, 24369], "recwords": ["jr", "", "jello", "husband", "salmon", "peach"], "type": "FREE_RECALL", "conditions": [12, 1600, "v", 24000], "trial": 5, "trial_type": "free-recall", "trial_index": 199, "time_elapsed": 1203550, "internal_node_id": "0.0-145.0-0.0"}}, {"uniqueid": "MTK0317:3Z7ISHFUH12J0EW58WPBV9T90OSZ8S", "current_trial": 200, "dateTime": 1510703518612, "trialdata": {"rt": 943, "key_press": 32, "type": "INSTRUCTIONS", "trial_type": "text", "trial_index": 200, "time_elapsed": 1206501, "internal_node_id": "0.0-146.0"}}, {"uniqueid": "MTK0317:3Z7ISHFUH12J0EW58WPBV9T90OSZ8S", "current_trial": 201, "dateTime": 1510703544617, "trialdata": {"rt": [3931, 8212, 10643, 13923, 16107, 18843, 21659, 23875], "responses": ["12", "22", "18", "18", "11", "17", "19", "8"], "num1": [6, 7, 6, 6, 3, 2, 9, 2, 4], "num2": [5, 9, 4, 5, 1, 6, 2, 5, 4], "num3": [1, 6, 8, 7, 7, 9, 8, 1, 1], "type": "DISTRACTOR", "conditions": [12, 800, "v", 24000], "trial": 6, "trial_type": "math-distractor", "trial_index": 201, "time_elapsed": 1232507, "internal_node_id": "0.0-147.0"}}, {"uniqueid": "MTK0317:3Z7ISHFUH12J0EW58WPBV9T90OSZ8S", "current_trial": 202, "dateTime": 1510703547620, "trialdata": {"rt": -1, "stimulus": "<p id=\"stim\">10</p>", "key_press": -1, "trial_type": "single-stim", "trial_index": 202, "time_elapsed": 1235510, "internal_node_id": "0.0-148.0-0.0"}}, {"uniqueid": "MTK0317:3Z7ISHFUH12J0EW58WPBV9T90OSZ8S", "current_trial": 203, "dateTime": 1510703548622, "trialdata": {"rt": -1, "stimulus": "<p id=\"stim\">9</p>", "key_press": -1, "trial_type": "single-stim", "trial_index": 203, "time_elapsed": 1236511, "internal_node_id": "0.0-148.0-1.0"}}, {"uniqueid": "MTK0317:3Z7ISHFUH12J0EW58WPBV9T90OSZ8S", "current_trial": 204, "dateTime": 1510703549624, "trialdata": {"rt": -1, "stimulus": "<p id=\"stim\">8</p>", "key_press": -1, "trial_type": "single-stim", "trial_index": 204, "time_elapsed": 1237514, "internal_node_id": "0.0-148.0-2.0"}}, {"uniqueid": "MTK0317:3Z7ISHFUH12J0EW58WPBV9T90OSZ8S", "current_trial": 205, "dateTime": 1510703550625, "trialdata": {"rt": -1, "stimulus": "<p id=\"stim\">7</p>", "key_press": -1, "trial_type": "single-stim", "trial_index": 205, "time_elapsed": 1238514, "internal_node_id": "0.0-148.0-3.0"}}, {"uniqueid": "MTK0317:3Z7ISHFUH12J0EW58WPBV9T90OSZ8S", "current_trial": 206, "dateTime": 1510703551628, "trialdata": {"rt": -1, "stimulus": "<p id=\"stim\">6</p>", "key_press": -1, "trial_type": "single-stim", "trial_index": 206, "time_elapsed": 1239517, "internal_node_id": "0.0-148.0-4.0"}}, {"uniqueid": "MTK0317:3Z7ISHFUH12J0EW58WPBV9T90OSZ8S", "current_trial": 207, "dateTime": 1510703552632, "trialdata": {"rt": -1, "stimulus": "<p id=\"stim\">5</p>", "key_press": -1, "trial_type": "single-stim", "trial_index": 207, "time_elapsed": 1240522, "internal_node_id": "0.0-148.0-5.0"}}, {"uniqueid": "MTK0317:3Z7ISHFUH12J0EW58WPBV9T90OSZ8S", "current_trial": 208, "dateTime": 1510703553635, "trialdata": {"rt": -1, "stimulus": "<p id=\"stim\">4</p>", "key_press": -1, "trial_type": "single-stim", "trial_index": 208, "time_elapsed": 1241524, "internal_node_id": "0.0-148.0-6.0"}}, {"uniqueid": "MTK0317:3Z7ISHFUH12J0EW58WPBV9T90OSZ8S", "current_trial": 209, "dateTime": 1510703554636, "trialdata": {"rt": -1, "stimulus": "<p id=\"stim\">3</p>", "key_press": -1, "trial_type": "single-stim", "trial_index": 209, "time_elapsed": 1242525, "internal_node_id": "0.0-148.0-7.0"}}, {"uniqueid": "MTK0317:3Z7ISHFUH12J0EW58WPBV9T90OSZ8S", "current_trial": 210, "dateTime": 1510703555638, "trialdata": {"rt": -1, "stimulus": "<p id=\"stim\">2</p>", "key_press": -1, "trial_type": "single-stim", "trial_index": 210, "time_elapsed": 1243527, "internal_node_id": "0.0-148.0-8.0"}}, {"uniqueid": "MTK0317:3Z7ISHFUH12J0EW58WPBV9T90OSZ8S", "current_trial": 211, "dateTime": 1510703556640, "trialdata": {"rt": -1, "stimulus": "<p id=\"stim\">1</p>", "key_press": -1, "trial_type": "single-stim", "trial_index": 211, "time_elapsed": 1244529, "internal_node_id": "0.0-148.0-9.0"}}, {"uniqueid": "MTK0317:3Z7ISHFUH12J0EW58WPBV9T90OSZ8S", "current_trial": 212, "dateTime": 1510703558142, "trialdata": {"rt": -1, "stimulus": "<p id=\"stim\">+</p>", "key_press": -1, "type": "FIXATION", "trial_type": "single-stim", "trial_index": 212, "time_elapsed": 1246031, "internal_node_id": "0.0-149.0-0.0"}}, {"uniqueid": "MTK0317:3Z7ISHFUH12J0EW58WPBV9T90OSZ8S", "current_trial": 213, "dateTime": 1510703558944, "trialdata": {"rt": -1, "stimulus": "<p id=\"stim\">PORK</p>", "key_press": -1, "type": "PRES_VIS", "word": "pork", "wordID": 1107, "conditions": [12, 800, "v", 24000], "trial": 6, "serialpos": 0, "trial_type": "single-stim", "trial_index": 213, "time_elapsed": 1246833, "internal_node_id": "0.0-150.0"}}, {"uniqueid": "MTK0317:3Z7ISHFUH12J0EW58WPBV9T90OSZ8S", "current_trial": 214, "dateTime": 1510703560612, "trialdata": {"rt": -1, "stimulus": "<p id=\"stim\">TURKEY</p>", "key_press": -1, "type": "PRES_VIS", "word": "turkey", "wordID": 1519, "conditions": [12, 800, "v", 24000], "trial": 6, "serialpos": 1, "trial_type": "single-stim", "trial_index": 214, "time_elapsed": 1248501, "internal_node_id": "0.0-151.0"}}, {"uniqueid": "MTK0317:3Z7ISHFUH12J0EW58WPBV9T90OSZ8S", "current_trial": 215, "dateTime": 1510703562251, "trialdata": {"rt": -1, "stimulus": "<p id=\"stim\">CHILD</p>", "key_press": -1, "type": "PRES_VIS", "word": "child", "wordID": 298, "conditions": [12, 800, "v", 24000], "trial": 6, "serialpos": 2, "trial_type": "single-stim", "trial_index": 215, "time_elapsed": 1250140, "internal_node_id": "0.0-152.0"}}, {"uniqueid": "MTK0317:3Z7ISHFUH12J0EW58WPBV9T90OSZ8S", "current_trial": 216, "dateTime": 1510703564133, "trialdata": {"rt": -1, "stimulus": "<p id=\"stim\">PACKAGE</p>", "key_press": -1, "type": "PRES_VIS", "word": "package", "wordID": 996, "conditions": [12, 800, "v", 24000], "trial": 6, "serialpos": 3, "trial_type": "single-stim", "trial_index": 216, "time_elapsed": 1252022, "internal_node_id": "0.0-153.0"}}, {"uniqueid": "MTK0317:3Z7ISHFUH12J0EW58WPBV9T90OSZ8S", "current_trial": 217, "dateTime": 1510703566017, "trialdata": {"rt": -1, "stimulus": "<p id=\"stim\">HOUND</p>", "key_press": -1, "type": "PRES_VIS", "word": "hound", "wordID": 723, "conditions": [12, 800, "v", 24000], "trial": 6, "serialpos": 4, "trial_type": "single-stim", "trial_index": 217, "time_elapsed": 1253906, "internal_node_id": "0.0-154.0"}}, {"uniqueid": "MTK0317:3Z7ISHFUH12J0EW58WPBV9T90OSZ8S", "current_trial": 218, "dateTime": 1510703567641, "trialdata": {"rt": -1, "stimulus": "<p id=\"stim\">SURVEY</p>", "key_press": -1, "type": "PRES_VIS", "word": "survey", "wordID": 1413, "conditions": [12, 800, "v", 24000], "trial": 6, "serialpos": 5, "trial_type": "single-stim", "trial_index": 218, "time_elapsed": 1255530, "internal_node_id": "0.0-155.0"}}, {"uniqueid": "MTK0317:3Z7ISHFUH12J0EW58WPBV9T90OSZ8S", "current_trial": 219, "dateTime": 1510703569389, "trialdata": {"rt": -1, "stimulus": "<p id=\"stim\">INFANT</p>", "key_press": -1, "type": "PRES_VIS", "word": "infant", "wordID": 736, "conditions": [12, 800, "v", 24000], "trial": 6, "serialpos": 6, "trial_type": "single-stim", "trial_index": 219, "time_elapsed": 1257278, "internal_node_id": "0.0-156.0"}}, {"uniqueid": "MTK0317:3Z7ISHFUH12J0EW58WPBV9T90OSZ8S", "current_trial": 220, "dateTime": 1510703571359, "trialdata": {"rt": -1, "stimulus": "<p id=\"stim\">PLIERS</p>", "key_press": -1, "type": "PRES_VIS", "word": "pliers", "wordID": 1088, "conditions": [12, 800, "v", 24000], "trial": 6, "serialpos": 7, "trial_type": "single-stim", "trial_index": 220, "time_elapsed": 1259248, "internal_node_id": "0.0-157.0"}}, {"uniqueid": "MTK0317:3Z7ISHFUH12J0EW58WPBV9T90OSZ8S", "current_trial": 221, "dateTime": 1510703573275, "trialdata": {"rt": -1, "stimulus": "<p id=\"stim\">GIFT</p>", "key_press": -1, "type": "PRES_VIS", "word": "gift", "wordID": 634, "conditions": [12, 800, "v", 24000], "trial": 6, "serialpos": 8, "trial_type": "single-stim", "trial_index": 221, "time_elapsed": 1261165, "internal_node_id": "0.0-158.0"}}, {"uniqueid": "MTK0317:3Z7ISHFUH12J0EW58WPBV9T90OSZ8S", "current_trial": 222, "dateTime": 1510703575090, "trialdata": {"rt": -1, "stimulus": "<p id=\"stim\">STAMP</p>", "key_press": -1, "type": "PRES_VIS", "word": "stamp", "wordID": 1369, "conditions": [12, 800, "v", 24000], "trial": 6, "serialpos": 9, "trial_type": "single-stim", "trial_index": 222, "time_elapsed": 1262979, "internal_node_id": "0.0-159.0"}}, {"uniqueid": "MTK0317:3Z7ISHFUH12J0EW58WPBV9T90OSZ8S", "current_trial": 223, "dateTime": 1510703576940, "trialdata": {"rt": -1, "stimulus": "<p id=\"stim\">WINDOW</p>", "key_press": -1, "type": "PRES_VIS", "word": "window", "wordID": 1610, "conditions": [12, 800, "v", 24000], "trial": 6, "serialpos": 10, "trial_type": "single-stim", "trial_index": 223, "time_elapsed": 1264829, "internal_node_id": "0.0-160.0"}}, {"uniqueid": "MTK0317:3Z7ISHFUH12J0EW58WPBV9T90OSZ8S", "current_trial": 224, "dateTime": 1510703578731, "trialdata": {"rt": -1, "stimulus": "<p id=\"stim\">BINDER</p>", "key_press": -1, "type": "PRES_VIS", "word": "binder", "wordID": 126, "conditions": [12, 800, "v", 24000], "trial": 6, "serialpos": 11, "trial_type": "single-stim", "trial_index": 224, "time_elapsed": 1266620, "internal_node_id": "0.0-161.0"}}, {"uniqueid": "MTK0317:3Z7ISHFUH12J0EW58WPBV9T90OSZ8S", "current_trial": 225, "dateTime": 1510703580946, "trialdata": {"rt": -1, "stimulus": "", "key_press": -1, "type": "PRE_RECALL_DELAY", "trial_type": "single-stim", "trial_index": 225, "time_elapsed": 1268835, "internal_node_id": "0.0-162.0-0.0"}}, {"uniqueid": "MTK0317:3Z7ISHFUH12J0EW58WPBV9T90OSZ8S", "current_trial": 226, "dateTime": 1510703581448, "trialdata": {"rt": -1000, "stimulus": "/static/audio/400Hz.wav", "key_press": -1, "type": "PRE_RECALL_ALERT", "trial_type": "single-audio", "trial_index": 226, "time_elapsed": 1269337, "internal_node_id": "0.0-163.0"}}, {"uniqueid": "MTK0317:3Z7ISHFUH12J0EW58WPBV9T90OSZ8S", "current_trial": 227, "dateTime": 1510703641458, "trialdata": {"rt": [5345, 9673, 12889, 15313, 18032, 21184, 24384, 27848], "recwords": ["window", "binder", "pork", "gift", "child", "infant", "pliers", "turkey"], "type": "FREE_RECALL", "conditions": [12, 800, "v", 24000], "trial": 6, "trial_type": "free-recall", "trial_index": 227, "time_elapsed": 1329341, "internal_node_id": "0.0-164.0-0.0"}}, {"uniqueid": "MTK0317:3Z7ISHFUH12J0EW58WPBV9T90OSZ8S", "current_trial": 228, "dateTime": 1510703645907, "trialdata": {"rt": 2446, "key_press": 32, "type": "INSTRUCTIONS", "trial_type": "text", "trial_index": 228, "time_elapsed": 1333797, "internal_node_id": "0.0-165.0"}}, {"uniqueid": "MTK0317:3Z7ISHFUH12J0EW58WPBV9T90OSZ8S", "current_trial": 229, "dateTime": 1510703659912, "trialdata": {"rt": [2939, 6796, 9187], "responses": ["17", "17", "14"], "num1": [6, 6, 1, 5], "num2": [4, 3, 6, 4], "num3": [7, 8, 7, 4], "type": "DISTRACTOR", "conditions": [24, 1600, "v", 12000], "trial": 7, "trial_type": "math-distractor", "trial_index": 229, "time_elapsed": 1347802, "internal_node_id": "0.0-166.0"}}, {"uniqueid": "MTK0317:3Z7ISHFUH12J0EW58WPBV9T90OSZ8S", "current_trial": 230, "dateTime": 1510703662915, "trialdata": {"rt": -1, "stimulus": "<p id=\"stim\">10</p>", "key_press": -1, "trial_type": "single-stim", "trial_index": 230, "time_elapsed": 1350804, "internal_node_id": "0.0-167.0-0.0"}}, {"uniqueid": "MTK0317:3Z7ISHFUH12J0EW58WPBV9T90OSZ8S", "current_trial": 231, "dateTime": 1510703663918, "trialdata": {"rt": -1, "stimulus": "<p id=\"stim\">9</p>", "key_press": -1, "trial_type": "single-stim", "trial_index": 231, "time_elapsed": 1351807, "internal_node_id": "0.0-167.0-1.0"}}, {"uniqueid": "MTK0317:3Z7ISHFUH12J0EW58WPBV9T90OSZ8S", "current_trial": 232, "dateTime": 1510703664920, "trialdata": {"rt": -1, "stimulus": "<p id=\"stim\">8</p>", "key_press": -1, "trial_type": "single-stim", "trial_index": 232, "time_elapsed": 1352809, "internal_node_id": "0.0-167.0-2.0"}}, {"uniqueid": "MTK0317:3Z7ISHFUH12J0EW58WPBV9T90OSZ8S", "current_trial": 233, "dateTime": 1510703665924, "trialdata": {"rt": -1, "stimulus": "<p id=\"stim\">7</p>", "key_press": -1, "trial_type": "single-stim", "trial_index": 233, "time_elapsed": 1353813, "internal_node_id": "0.0-167.0-3.0"}}, {"uniqueid": "MTK0317:3Z7ISHFUH12J0EW58WPBV9T90OSZ8S", "current_trial": 234, "dateTime": 1510703666926, "trialdata": {"rt": -1, "stimulus": "<p id=\"stim\">6</p>", "key_press": -1, "trial_type": "single-stim", "trial_index": 234, "time_elapsed": 1354815, "internal_node_id": "0.0-167.0-4.0"}}, {"uniqueid": "MTK0317:3Z7ISHFUH12J0EW58WPBV9T90OSZ8S", "current_trial": 235, "dateTime": 1510703667928, "trialdata": {"rt": -1, "stimulus": "<p id=\"stim\">5</p>", "key_press": -1, "trial_type": "single-stim", "trial_index": 235, "time_elapsed": 1355818, "internal_node_id": "0.0-167.0-5.0"}}, {"uniqueid": "MTK0317:3Z7ISHFUH12J0EW58WPBV9T90OSZ8S", "current_trial": 236, "dateTime": 1510703668930, "trialdata": {"rt": -1, "stimulus": "<p id=\"stim\">4</p>", "key_press": -1, "trial_type": "single-stim", "trial_index": 236, "time_elapsed": 1356819, "internal_node_id": "0.0-167.0-6.0"}}, {"uniqueid": "MTK0317:3Z7ISHFUH12J0EW58WPBV9T90OSZ8S", "current_trial": 237, "dateTime": 1510703669932, "trialdata": {"rt": -1, "stimulus": "<p id=\"stim\">3</p>", "key_press": -1, "trial_type": "single-stim", "trial_index": 237, "time_elapsed": 1357821, "internal_node_id": "0.0-167.0-7.0"}}, {"uniqueid": "MTK0317:3Z7ISHFUH12J0EW58WPBV9T90OSZ8S", "current_trial": 238, "dateTime": 1510703670934, "trialdata": {"rt": -1, "stimulus": "<p id=\"stim\">2</p>", "key_press": -1, "trial_type": "single-stim", "trial_index": 238, "time_elapsed": 1358823, "internal_node_id": "0.0-167.0-8.0"}}, {"uniqueid": "MTK0317:3Z7ISHFUH12J0EW58WPBV9T90OSZ8S", "current_trial": 239, "dateTime": 1510703671936, "trialdata": {"rt": -1, "stimulus": "<p id=\"stim\">1</p>", "key_press": -1, "trial_type": "single-stim", "trial_index": 239, "time_elapsed": 1359825, "internal_node_id": "0.0-167.0-9.0"}}, {"uniqueid": "MTK0317:3Z7ISHFUH12J0EW58WPBV9T90OSZ8S", "current_trial": 240, "dateTime": 1510703673439, "trialdata": {"rt": -1, "stimulus": "<p id=\"stim\">+</p>", "key_press": -1, "type": "FIXATION", "trial_type": "single-stim", "trial_index": 240, "time_elapsed": 1361328, "internal_node_id": "0.0-168.0-0.0"}}, {"uniqueid": "MTK0317:3Z7ISHFUH12J0EW58WPBV9T90OSZ8S", "current_trial": 241, "dateTime": 1510703675041, "trialdata": {"rt": -1, "stimulus": "<p id=\"stim\">RIVER</p>", "key_press": -1, "type": "PRES_VIS", "word": "river", "wordID": 1193, "conditions": [24, 1600, "v", 12000], "trial": 7, "serialpos": 0, "trial_type": "single-stim", "trial_index": 241, "time_elapsed": 1362930, "internal_node_id": "0.0-169.0"}}, {"uniqueid": "MTK0317:3Z7ISHFUH12J0EW58WPBV9T90OSZ8S", "current_trial": 242, "dateTime": 1510703677785, "trialdata": {"rt": -1, "stimulus": "<p id=\"stim\">POPCORN</p>", "key_press": -1, "type": "PRES_VIS", "word": "popcorn", "wordID": 1103, "conditions": [24, 1600, "v", 12000], "trial": 7, "serialpos": 1, "trial_type": "single-stim", "trial_index": 242, "time_elapsed": 1365674, "internal_node_id": "0.0-170.0"}}, {"uniqueid": "MTK0317:3Z7ISHFUH12J0EW58WPBV9T90OSZ8S", "current_trial": 243, "dateTime": 1510703680294, "trialdata": {"rt": -1, "stimulus": "<p id=\"stim\">CONCERT</p>", "key_press": -1, "type": "PRES_VIS", "word": "concert", "wordID": 359, "conditions": [24, 1600, "v", 12000], "trial": 7, "serialpos": 2, "trial_type": "single-stim", "trial_index": 243, "time_elapsed": 1368183, "internal_node_id": "0.0-171.0"}}, {"uniqueid": "MTK0317:3Z7ISHFUH12J0EW58WPBV9T90OSZ8S", "current_trial": 244, "dateTime": 1510703682924, "trialdata": {"rt": -1, "stimulus": "<p id=\"stim\">FLOWER</p>", "key_press": -1, "type": "PRES_VIS", "word": "flower", "wordID": 583, "conditions": [24, 1600, "v", 12000], "trial": 7, "serialpos": 3, "trial_type": "single-stim", "trial_index": 244, "time_elapsed": 1370813, "internal_node_id": "0.0-172.0"}}, {"uniqueid": "MTK0317:3Z7ISHFUH12J0EW58WPBV9T90OSZ8S", "current_trial": 245, "dateTime": 1510703685607, "trialdata": {"rt": -1, "stimulus": "<p id=\"stim\">GRAVEL</p>", "key_press": -1, "type": "PRES_VIS", "word": "gravel", "wordID": 658, "conditions": [24, 1600, "v", 12000], "trial": 7, "serialpos": 4, "trial_type": "single-stim", "trial_index": 245, "time_elapsed": 1373497, "internal_node_id": "0.0-173.0"}}, {"uniqueid": "MTK0317:3Z7ISHFUH12J0EW58WPBV9T90OSZ8S", "current_trial": 246, "dateTime": 1510703688072, "trialdata": {"rt": -1, "stimulus": "<p id=\"stim\">ROBBER</p>", "key_press": -1, "type": "PRES_VIS", "word": "robber", "wordID": 1196, "conditions": [24, 1600, "v", 12000], "trial": 7, "serialpos": 5, "trial_type": "single-stim", "trial_index": 246, "time_elapsed": 1375962, "internal_node_id": "0.0-174.0"}}, {"uniqueid": "MTK0317:3Z7ISHFUH12J0EW58WPBV9T90OSZ8S", "current_trial": 247, "dateTime": 1510703690650, "trialdata": {"rt": -1, "stimulus": "<p id=\"stim\">CASHIER</p>", "key_press": -1, "type": "PRES_VIS", "word": "cashier", "wordID": 253, "conditions": [24, 1600, "v", 12000], "trial": 7, "serialpos": 6, "trial_type": "single-stim", "trial_index": 247, "time_elapsed": 1378539, "internal_node_id": "0.0-175.0"}}, {"uniqueid": "MTK0317:3Z7ISHFUH12J0EW58WPBV9T90OSZ8S", "current_trial": 248, "dateTime": 1510703693314, "trialdata": {"rt": -1, "stimulus": "<p id=\"stim\">SLIME</p>", "key_press": -1, "type": "PRES_VIS", "word": "slime", "wordID": 1326, "conditions": [24, 1600, "v", 12000], "trial": 7, "serialpos": 7, "trial_type": "single-stim", "trial_index": 248, "time_elapsed": 1381203, "internal_node_id": "0.0-176.0"}}, {"uniqueid": "MTK0317:3Z7ISHFUH12J0EW58WPBV9T90OSZ8S", "current_trial": 249, "dateTime": 1510703696046, "trialdata": {"rt": -1, "stimulus": "<p id=\"stim\">BROOK</p>", "key_press": -1, "type": "PRES_VIS", "word": "brook", "wordID": 176, "conditions": [24, 1600, "v", 12000], "trial": 7, "serialpos": 8, "trial_type": "single-stim", "trial_index": 249, "time_elapsed": 1383935, "internal_node_id": "0.0-177.0"}}, {"uniqueid": "MTK0317:3Z7ISHFUH12J0EW58WPBV9T90OSZ8S", "current_trial": 250, "dateTime": 1510703698515, "trialdata": {"rt": -1, "stimulus": "<p id=\"stim\">TRENCH</p>", "key_press": -1, "type": "PRES_VIS", "word": "trench", "wordID": 1502, "conditions": [24, 1600, "v", 12000], "trial": 7, "serialpos": 9, "trial_type": "single-stim", "trial_index": 250, "time_elapsed": 1386404, "internal_node_id": "0.0-178.0"}}, {"uniqueid": "MTK0317:3Z7ISHFUH12J0EW58WPBV9T90OSZ8S", "current_trial": 251, "dateTime": 1510703700947, "trialdata": {"rt": -1, "stimulus": "<p id=\"stim\">PARENT</p>", "key_press": -1, "type": "PRES_VIS", "word": "parent", "wordID": 1012, "conditions": [24, 1600, "v", 12000], "trial": 7, "serialpos": 10, "trial_type": "single-stim", "trial_index": 251, "time_elapsed": 1388837, "internal_node_id": "0.0-179.0"}}, {"uniqueid": "MTK0317:3Z7ISHFUH12J0EW58WPBV9T90OSZ8S", "current_trial": 252, "dateTime": 1510703703612, "trialdata": {"rt": -1, "stimulus": "<p id=\"stim\">BOUQUET</p>", "key_press": -1, "type": "PRES_VIS", "word": "bouquet", "wordID": 156, "conditions": [24, 1600, "v", 12000], "trial": 7, "serialpos": 11, "trial_type": "single-stim", "trial_index": 252, "time_elapsed": 1391501, "internal_node_id": "0.0-180.0"}}, {"uniqueid": "MTK0317:3Z7ISHFUH12J0EW58WPBV9T90OSZ8S", "current_trial": 253, "dateTime": 1510703706307, "trialdata": {"rt": -1, "stimulus": "<p id=\"stim\">POWDER</p>", "key_press": -1, "type": "PRES_VIS", "word": "powder", "wordID": 1116, "conditions": [24, 1600, "v", 12000], "trial": 7, "serialpos": 12, "trial_type": "single-stim", "trial_index": 253, "time_elapsed": 1394197, "internal_node_id": "0.0-181.0"}}, {"uniqueid": "MTK0317:3Z7ISHFUH12J0EW58WPBV9T90OSZ8S", "current_trial": 254, "dateTime": 1510703708840, "trialdata": {"rt": -1, "stimulus": "<p id=\"stim\">CHEMIST</p>", "key_press": -1, "type": "PRES_VIS", "word": "chemist", "wordID": 291, "conditions": [24, 1600, "v", 12000], "trial": 7, "serialpos": 13, "trial_type": "single-stim", "trial_index": 254, "time_elapsed": 1396729, "internal_node_id": "0.0-182.0"}}, {"uniqueid": "MTK0317:3Z7ISHFUH12J0EW58WPBV9T90OSZ8S", "current_trial": 255, "dateTime": 1510703711579, "trialdata": {"rt": -1, "stimulus": "<p id=\"stim\">DONOR</p>", "key_press": -1, "type": "PRES_VIS", "word": "donor", "wordID": 484, "conditions": [24, 1600, "v", 12000], "trial": 7, "serialpos": 14, "trial_type": "single-stim", "trial_index": 255, "time_elapsed": 1399468, "internal_node_id": "0.0-183.0"}}, {"uniqueid": "MTK0317:3Z7ISHFUH12J0EW58WPBV9T90OSZ8S", "current_trial": 256, "dateTime": 1510703714290, "trialdata": {"rt": -1, "stimulus": "<p id=\"stim\">FRIEND</p>", "key_press": -1, "type": "PRES_VIS", "word": "friend", "wordID": 605, "conditions": [24, 1600, "v", 12000], "trial": 7, "serialpos": 15, "trial_type": "single-stim", "trial_index": 256, "time_elapsed": 1402179, "internal_node_id": "0.0-184.0"}}, {"uniqueid": "MTK0317:3Z7ISHFUH12J0EW58WPBV9T90OSZ8S", "current_trial": 257, "dateTime": 1510703716853, "trialdata": {"rt": -1, "stimulus": "<p id=\"stim\">PIANO</p>", "key_press": -1, "type": "PRES_VIS", "word": "piano", "wordID": 1056, "conditions": [24, 1600, "v", 12000], "trial": 7, "serialpos": 16, "trial_type": "single-stim", "trial_index": 257, "time_elapsed": 1404743, "internal_node_id": "0.0-185.0"}}, {"uniqueid": "MTK0317:3Z7ISHFUH12J0EW58WPBV9T90OSZ8S", "current_trial": 258, "dateTime": 1510703719495, "trialdata": {"rt": -1, "stimulus": "<p id=\"stim\">MAMMAL</p>", "key_press": -1, "type": "PRES_VIS", "word": "mammal", "wordID": 860, "conditions": [24, 1600, "v", 12000], "trial": 7, "serialpos": 17, "trial_type": "single-stim", "trial_index": 258, "time_elapsed": 1407384, "internal_node_id": "0.0-186.0"}}, {"uniqueid": "MTK0317:3Z7ISHFUH12J0EW58WPBV9T90OSZ8S", "current_trial": 259, "dateTime": 1510703722172, "trialdata": {"rt": -1, "stimulus": "<p id=\"stim\">BLOCKADE</p>", "key_press": -1, "type": "PRES_VIS", "word": "blockade", "wordID": 136, "conditions": [24, 1600, "v", 12000], "trial": 7, "serialpos": 18, "trial_type": "single-stim", "trial_index": 259, "time_elapsed": 1410062, "internal_node_id": "0.0-187.0"}}, {"uniqueid": "MTK0317:3Z7ISHFUH12J0EW58WPBV9T90OSZ8S", "current_trial": 260, "dateTime": 1510703724679, "trialdata": {"rt": -1, "stimulus": "<p id=\"stim\">VAGRANT</p>", "key_press": -1, "type": "PRES_VIS", "word": "vagrant", "wordID": 1543, "conditions": [24, 1600, "v", 12000], "trial": 7, "serialpos": 19, "trial_type": "single-stim", "trial_index": 260, "time_elapsed": 1412569, "internal_node_id": "0.0-188.0"}}, {"uniqueid": "MTK0317:3Z7ISHFUH12J0EW58WPBV9T90OSZ8S", "current_trial": 261, "dateTime": 1510703727111, "trialdata": {"rt": -1, "stimulus": "<p id=\"stim\">HOOK</p>", "key_press": -1, "type": "PRES_VIS", "word": "hook", "wordID": 714, "conditions": [24, 1600, "v", 12000], "trial": 7, "serialpos": 20, "trial_type": "single-stim", "trial_index": 261, "time_elapsed": 1415000, "internal_node_id": "0.0-189.0"}}, {"uniqueid": "MTK0317:3Z7ISHFUH12J0EW58WPBV9T90OSZ8S", "current_trial": 262, "dateTime": 1510703729855, "trialdata": {"rt": -1, "stimulus": "<p id=\"stim\">TUBA</p>", "key_press": -1, "type": "PRES_VIS", "word": "tuba", "wordID": 1514, "conditions": [24, 1600, "v", 12000], "trial": 7, "serialpos": 21, "trial_type": "single-stim", "trial_index": 262, "time_elapsed": 1417744, "internal_node_id": "0.0-190.0"}}, {"uniqueid": "MTK0317:3Z7ISHFUH12J0EW58WPBV9T90OSZ8S", "current_trial": 263, "dateTime": 1510703732377, "trialdata": {"rt": -1, "stimulus": "<p id=\"stim\">CANDY</p>", "key_press": -1, "type": "PRES_VIS", "word": "candy", "wordID": 229, "conditions": [24, 1600, "v", 12000], "trial": 7, "serialpos": 22, "trial_type": "single-stim", "trial_index": 263, "time_elapsed": 1420266, "internal_node_id": "0.0-191.0"}}, {"uniqueid": "MTK0317:3Z7ISHFUH12J0EW58WPBV9T90OSZ8S", "current_trial": 264, "dateTime": 1510703734816, "trialdata": {"rt": -1, "stimulus": "<p id=\"stim\">SODA</p>", "key_press": -1, "type": "PRES_VIS", "word": "soda", "wordID": 1340, "conditions": [24, 1600, "v", 12000], "trial": 7, "serialpos": 23, "trial_type": "single-stim", "trial_index": 264, "time_elapsed": 1422705, "internal_node_id": "0.0-192.0"}}, {"uniqueid": "MTK0317:3Z7ISHFUH12J0EW58WPBV9T90OSZ8S", "current_trial": 265, "dateTime": 1510703736921, "trialdata": {"rt": -1, "stimulus": "", "key_press": -1, "type": "PRE_RECALL_DELAY", "trial_type": "single-stim", "trial_index": 265, "time_elapsed": 1424810, "internal_node_id": "0.0-193.0-0.0"}}, {"uniqueid": "MTK0317:3Z7ISHFUH12J0EW58WPBV9T90OSZ8S", "current_trial": 266, "dateTime": 1510703737425, "trialdata": {"rt": -1000, "stimulus": "/static/audio/400Hz.wav", "key_press": -1, "type": "PRE_RECALL_ALERT", "trial_type": "single-audio", "trial_index": 266, "time_elapsed": 1425314, "internal_node_id": "0.0-194.0"}}, {"uniqueid": "MTK0317:3Z7ISHFUH12J0EW58WPBV9T90OSZ8S", "current_trial": 267, "dateTime": 1510703797438, "trialdata": {"rt": [4311, 6742, 8662, 12335, 15174, 16734, 18375, 22999, 30951, 34511], "recwords": ["powder", "parent", "tuba", "trench", "river", "slime", "brook", "candy", "flowers", "gravel"], "type": "FREE_RECALL", "conditions": [24, 1600, "v", 12000], "trial": 7, "trial_type": "free-recall", "trial_index": 267, "time_elapsed": 1485320, "internal_node_id": "0.0-195.0-0.0"}}, {"uniqueid": "MTK0317:3Z7ISHFUH12J0EW58WPBV9T90OSZ8S", "current_trial": 268, "dateTime": 1510703800140, "trialdata": {"rt": 700, "key_press": 32, "type": "INSTRUCTIONS", "trial_type": "text", "trial_index": 268, "time_elapsed": 1488030, "internal_node_id": "0.0-196.0"}}, {"uniqueid": "MTK0317:3Z7ISHFUH12J0EW58WPBV9T90OSZ8S", "current_trial": 269, "dateTime": 1510703826145, "trialdata": {"rt": [3139, 5244, 7475, 9516, 12371, 14187, 18443, 20116, 22067], "responses": ["16", "11", "16", "15", "11", "12", "17", "9", "20"], "num1": [8, 3, 8, 5, 3, 4, 9, 2, 7, 7], "num2": [4, 1, 2, 3, 2, 2, 2, 2, 7, 7], "num3": [4, 7, 6, 7, 6, 6, 6, 5, 6, 2], "type": "DISTRACTOR", "conditions": [24, 800, "v", 24000], "trial": 8, "trial_type": "math-distractor", "trial_index": 269, "time_elapsed": 1514035, "internal_node_id": "0.0-197.0"}}, {"uniqueid": "MTK0317:3Z7ISHFUH12J0EW58WPBV9T90OSZ8S", "current_trial": 270, "dateTime": 1510703829148, "trialdata": {"rt": -1, "stimulus": "<p id=\"stim\">10</p>", "key_press": -1, "trial_type": "single-stim", "trial_index": 270, "time_elapsed": 1517038, "internal_node_id": "0.0-198.0-0.0"}}, {"uniqueid": "MTK0317:3Z7ISHFUH12J0EW58WPBV9T90OSZ8S", "current_trial": 271, "dateTime": 1510703830151, "trialdata": {"rt": -1, "stimulus": "<p id=\"stim\">9</p>", "key_press": -1, "trial_type": "single-stim", "trial_index": 271, "time_elapsed": 1518040, "internal_node_id": "0.0-198.0-1.0"}}, {"uniqueid": "MTK0317:3Z7ISHFUH12J0EW58WPBV9T90OSZ8S", "current_trial": 272, "dateTime": 1510703831154, "trialdata": {"rt": -1, "stimulus": "<p id=\"stim\">8</p>", "key_press": -1, "trial_type": "single-stim", "trial_index": 272, "time_elapsed": 1519043, "internal_node_id": "0.0-198.0-2.0"}}, {"uniqueid": "MTK0317:3Z7ISHFUH12J0EW58WPBV9T90OSZ8S", "current_trial": 273, "dateTime": 1510703832157, "trialdata": {"rt": -1, "stimulus": "<p id=\"stim\">7</p>", "key_press": -1, "trial_type": "single-stim", "trial_index": 273, "time_elapsed": 1520046, "internal_node_id": "0.0-198.0-3.0"}}, {"uniqueid": "MTK0317:3Z7ISHFUH12J0EW58WPBV9T90OSZ8S", "current_trial": 274, "dateTime": 1510703833159, "trialdata": {"rt": -1, "stimulus": "<p id=\"stim\">6</p>", "key_press": -1, "trial_type": "single-stim", "trial_index": 274, "time_elapsed": 1521048, "internal_node_id": "0.0-198.0-4.0"}}, {"uniqueid": "MTK0317:3Z7ISHFUH12J0EW58WPBV9T90OSZ8S", "current_trial": 275, "dateTime": 1510703834162, "trialdata": {"rt": -1, "stimulus": "<p id=\"stim\">5</p>", "key_press": -1, "trial_type": "single-stim", "trial_index": 275, "time_elapsed": 1522051, "internal_node_id": "0.0-198.0-5.0"}}, {"uniqueid": "MTK0317:3Z7ISHFUH12J0