{"condition": 0, "counterbalance": 1148, "assignmentId": "3LRKMWOKB6O8EZUGSFGALIG6HUJZ2N", "workerId": "MTK0768", "hitId": "3XABXM4AJ1C8Z2XKVY1WFWLLILL8QX", "currenttrial": 626, "bonus": 0, "data": [{"uniqueid": "MTK0768:3LRKMWOKB6O8EZUGSFGALIG6HUJZ2N", "current_trial": 0, "dateTime": 1512751852685, "trialdata": {"rt": 11021, "key_press": 13, "type": "INSTRUCTIONS", "trial_type": "text", "trial_index": 0, "time_elapsed": 11021, "internal_node_id": "0.0-0.0"}}, {"uniqueid": "MTK0768:3LRKMWOKB6O8EZUGSFGALIG6HUJZ2N", "current_trial": 1, "dateTime": 1512751867390, "trialdata": {"rt": 14702, "key_press": 32, "type": "INSTRUCTIONS", "trial_type": "text", "trial_index": 1, "time_elapsed": 25725, "internal_node_id": "0.0-1.0"}}, {"uniqueid": "MTK0768:3LRKMWOKB6O8EZUGSFGALIG6HUJZ2N", "current_trial": 2, "dateTime": 1512751876612, "trialdata": {"rt": [9214], "responses": ["ocean"], "type": "AUDIO_TEST", "trial_type": "audio-test", "trial_index": 2, "time_elapsed": 34948, "internal_node_id": "0.0-2.0"}}, {"uniqueid": "MTK0768:3LRKMWOKB6O8EZUGSFGALIG6HUJZ2N", "current_trial": 3, "dateTime": 1512751883613, "trialdata": {"rt": [6997], "responses": ["crystal"], "type": "AUDIO_TEST", "trial_type": "audio-test", "trial_index": 3, "time_elapsed": 41949, "internal_node_id": "0.0-3.0"}}, {"uniqueid": "MTK0768:3LRKMWOKB6O8EZUGSFGALIG6HUJZ2N", "current_trial": 4, "dateTime": 1512751890269, "trialdata": {"rt": [6651], "responses": ["spice"], "type": "AUDIO_TEST", "trial_type": "audio-test", "trial_index": 4, "time_elapsed": 48604, "internal_node_id": "0.0-4.0"}}, {"uniqueid": "MTK0768:3LRKMWOKB6O8EZUGSFGALIG6HUJZ2N", "current_trial": 5, "dateTime": 1512751907283, "trialdata": {"rt": 16262, "responses": "{\"Q0\":\"12am\",\"Q1\":\"6am\",\"Q2\":\"4\"}", "type": "SLEEP_SURVEY", "trial_type": "survey-text", "trial_index": 5, "time_elapsed": 65619, "internal_node_id": "0.0-5.0"}}, {"uniqueid": "MTK0768:3LRKMWOKB6O8EZUGSFGALIG6HUJZ2N", "current_trial": 6, "dateTime": 1512751990740, "trialdata": {"rt": 82456, "key_press": 32, "type": "INSTRUCTIONS", "trial_type": "text", "trial_index": 6, "time_elapsed": 149076, "internal_node_id": "0.0-6.0"}}, {"uniqueid": "MTK0768:3LRKMWOKB6O8EZUGSFGALIG6HUJZ2N", "current_trial": 7, "dateTime": 1512752003649, "trialdata": {"rt": 12409, "key_press": 32, "type": "INSTRUCTIONS", "trial_type": "text", "trial_index": 7, "time_elapsed": 161985, "internal_node_id": "0.0-7.0"}}, {"uniqueid": "MTK0768:3LRKMWOKB6O8EZUGSFGALIG6HUJZ2N", "current_trial": 8, "dateTime": 1512752013931, "trialdata": {"rt": 9781, "key_press": 32, "type": "INSTRUCTIONS", "trial_type": "text", "trial_index": 8, "time_elapsed": 172267, "internal_node_id": "0.0-8.0"}}, {"uniqueid": "MTK0768:3LRKMWOKB6O8EZUGSFGALIG6HUJZ2N", "current_trial": 9, "dateTime": 1512752032935, "trialdata": {"rt": [7043, 10044, 13476, 16444], "responses": ["24", "17", "26", "16"], "num1": [7, 8, 8, 9, 3], "num2": [9, 4, 9, 5, 5], "num3": [8, 5, 9, 2, 3], "type": "DISTRACTOR", "conditions": [18, 1200, "v", 18000], "trial": 0, "trial_type": "math-distractor", "trial_index": 9, "time_elapsed": 191271, "internal_node_id": "0.0-9.0"}}, {"uniqueid": "MTK0768:3LRKMWOKB6O8EZUGSFGALIG6HUJZ2N", "current_trial": 10, "dateTime": 1512752035936, "trialdata": {"rt": -1, "stimulus": "<p id=\"stim\">10</p>", "key_press": -1, "trial_type": "single-stim", "trial_index": 10, "time_elapsed": 194272, "internal_node_id": "0.0-10.0-0.0"}}, {"uniqueid": "MTK0768:3LRKMWOKB6O8EZUGSFGALIG6HUJZ2N", "current_trial": 11, "dateTime": 1512752036937, "trialdata": {"rt": -1, "stimulus": "<p id=\"stim\">9</p>", "key_press": -1, "trial_type": "single-stim", "trial_index": 11, "time_elapsed": 195273, "internal_node_id": "0.0-10.0-1.0"}}, {"uniqueid": "MTK0768:3LRKMWOKB6O8EZUGSFGALIG6HUJZ2N", "current_trial": 12, "dateTime": 1512752037937, "trialdata": {"rt": -1, "stimulus": "<p id=\"stim\">8</p>", "key_press": -1, "trial_type": "single-stim", "trial_index": 12, "time_elapsed": 196273, "internal_node_id": "0.0-10.0-2.0"}}, {"uniqueid": "MTK0768:3LRKMWOKB6O8EZUGSFGALIG6HUJZ2N", "current_trial": 13, "dateTime": 1512752038937, "trialdata": {"rt": -1, "stimulus": "<p id=\"stim\">7</p>", "key_press": -1, "trial_type": "single-stim", "trial_index": 13, "time_elapsed": 197273, "internal_node_id": "0.0-10.0-3.0"}}, {"uniqueid": "MTK0768:3LRKMWOKB6O8EZUGSFGALIG6HUJZ2N", "current_trial": 14, "dateTime": 1512752039937, "trialdata": {"rt": -1, "stimulus": "<p id=\"stim\">6</p>", "key_press": -1, "trial_type": "single-stim", "trial_index": 14, "time_elapsed": 198273, "internal_node_id": "0.0-10.0-4.0"}}, {"uniqueid": "MTK0768:3LRKMWOKB6O8EZUGSFGALIG6HUJZ2N", "current_trial": 15, "dateTime": 1512752040938, "trialdata": {"rt": -1, "stimulus": "<p id=\"stim\">5</p>", "key_press": -1, "trial_type": "single-stim", "trial_index": 15, "time_elapsed": 199274, "internal_node_id": "0.0-10.0-5.0"}}, {"uniqueid": "MTK0768:3LRKMWOKB6O8EZUGSFGALIG6HUJZ2N", "current_trial": 16, "dateTime": 1512752041938, "trialdata": {"rt": -1, "stimulus": "<p id=\"stim\">4</p>", "key_press": -1, "trial_type": "single-stim", "trial_index": 16, "time_elapsed": 200274, "internal_node_id": "0.0-10.0-6.0"}}, {"uniqueid": "MTK0768:3LRKMWOKB6O8EZUGSFGALIG6HUJZ2N", "current_trial": 17, "dateTime": 1512752042938, "trialdata": {"rt": -1, "stimulus": "<p id=\"stim\">3</p>", "key_press": -1, "trial_type": "single-stim", "trial_index": 17, "time_elapsed": 201274, "internal_node_id": "0.0-10.0-7.0"}}, {"uniqueid": "MTK0768:3LRKMWOKB6O8EZUGSFGALIG6HUJZ2N", "current_trial": 18, "dateTime": 1512752043938, "trialdata": {"rt": -1, "stimulus": "<p id=\"stim\">2</p>", "key_press": -1, "trial_type": "single-stim", "trial_index": 18, "time_elapsed": 202274, "internal_node_id": "0.0-10.0-8.0"}}, {"uniqueid": "MTK0768:3LRKMWOKB6O8EZUGSFGALIG6HUJZ2N", "current_trial": 19, "dateTime": 1512752044938, "trialdata": {"rt": -1, "stimulus": "<p id=\"stim\">1</p>", "key_press": -1, "trial_type": "single-stim", "trial_index": 19, "time_elapsed": 203274, "internal_node_id": "0.0-10.0-9.0"}}, {"uniqueid": "MTK0768:3LRKMWOKB6O8EZUGSFGALIG6HUJZ2N", "current_trial": 20, "dateTime": 1512752046439, "trialdata": {"rt": -1, "stimulus": "<p id=\"stim\">+</p>", "key_press": -1, "type": "FIXATION", "trial_type": "single-stim", "trial_index": 20, "time_elapsed": 204775, "internal_node_id": "0.0-11.0-0.0"}}, {"uniqueid": "MTK0768:3LRKMWOKB6O8EZUGSFGALIG6HUJZ2N", "current_trial": 21, "dateTime": 1512752047640, "trialdata": {"rt": -1, "stimulus": "<p id=\"stim\">HEDGE</p>", "key_press": -1, "type": "PRES_VIS", "word": "hedge", "wordID": 698, "conditions": [18, 1200, "v", 18000], "trial": 0, "serialpos": 0, "trial_type": "single-stim", "trial_index": 21, "time_elapsed": 205976, "internal_node_id": "0.0-12.0"}}, {"uniqueid": "MTK0768:3LRKMWOKB6O8EZUGSFGALIG6HUJZ2N", "current_trial": 22, "dateTime": 1512752049893, "trialdata": {"rt": -1, "stimulus": "<p id=\"stim\">THIEF</p>", "key_press": -1, "type": "PRES_VIS", "word": "thief", "wordID": 1455, "conditions": [18, 1200, "v", 18000], "trial": 0, "serialpos": 1, "trial_type": "single-stim", "trial_index": 22, "time_elapsed": 208229, "internal_node_id": "0.0-13.0"}}, {"uniqueid": "MTK0768:3LRKMWOKB6O8EZUGSFGALIG6HUJZ2N", "current_trial": 23, "dateTime": 1512752052252, "trialdata": {"rt": -1, "stimulus": "<p id=\"stim\">ICING</p>", "key_press": -1, "type": "PRES_VIS", "word": "icing", "wordID": 731, "conditions": [18, 1200, "v", 18000], "trial": 0, "serialpos": 2, "trial_type": "single-stim", "trial_index": 23, "time_elapsed": 210588, "internal_node_id": "0.0-14.0"}}, {"uniqueid": "MTK0768:3LRKMWOKB6O8EZUGSFGALIG6HUJZ2N", "current_trial": 24, "dateTime": 1512752054334, "trialdata": {"rt": -1, "stimulus": "<p id=\"stim\">RAFT</p>", "key_press": -1, "type": "PRES_VIS", "word": "raft", "wordID": 1158, "conditions": [18, 1200, "v", 18000], "trial": 0, "serialpos": 3, "trial_type": "single-stim", "trial_index": 24, "time_elapsed": 212670, "internal_node_id": "0.0-15.0"}}, {"uniqueid": "MTK0768:3LRKMWOKB6O8EZUGSFGALIG6HUJZ2N", "current_trial": 25, "dateTime": 1512752056694, "trialdata": {"rt": -1, "stimulus": "<p id=\"stim\">BUTCHER</p>", "key_press": -1, "type": "PRES_VIS", "word": "butcher", "wordID": 202, "conditions": [18, 1200, "v", 18000], "trial": 0, "serialpos": 4, "trial_type": "single-stim", "trial_index": 25, "time_elapsed": 215030, "internal_node_id": "0.0-16.0"}}, {"uniqueid": "MTK0768:3LRKMWOKB6O8EZUGSFGALIG6HUJZ2N", "current_trial": 26, "dateTime": 1512752058800, "trialdata": {"rt": -1, "stimulus": "<p id=\"stim\">HUMAN</p>", "key_press": -1, "type": "PRES_VIS", "word": "human", "wordID": 725, "conditions": [18, 1200, "v", 18000], "trial": 0, "serialpos": 5, "trial_type": "single-stim", "trial_index": 26, "time_elapsed": 217136, "internal_node_id": "0.0-17.0"}}, {"uniqueid": "MTK0768:3LRKMWOKB6O8EZUGSFGALIG6HUJZ2N", "current_trial": 27, "dateTime": 1512752061040, "trialdata": {"rt": -1, "stimulus": "<p id=\"stim\">PILOT</p>", "key_press": -1, "type": "PRES_VIS", "word": "pilot", "wordID": 1069, "conditions": [18, 1200, "v", 18000], "trial": 0, "serialpos": 6, "trial_type": "single-stim", "trial_index": 27, "time_elapsed": 219376, "internal_node_id": "0.0-18.0"}}, {"uniqueid": "MTK0768:3LRKMWOKB6O8EZUGSFGALIG6HUJZ2N", "current_trial": 28, "dateTime": 1512752063192, "trialdata": {"rt": -1, "stimulus": "<p id=\"stim\">BLACKBOARD</p>", "key_press": -1, "type": "PRES_VIS", "word": "blackboard", "wordID": 132, "conditions": [18, 1200, "v", 18000], "trial": 0, "serialpos": 7, "trial_type": "single-stim", "trial_index": 28, "time_elapsed": 221528, "internal_node_id": "0.0-19.0"}}, {"uniqueid": "MTK0768:3LRKMWOKB6O8EZUGSFGALIG6HUJZ2N", "current_trial": 29, "dateTime": 1512752065394, "trialdata": {"rt": -1, "stimulus": "<p id=\"stim\">STAR</p>", "key_press": -1, "type": "PRES_VIS", "word": "star", "wordID": 1372, "conditions": [18, 1200, "v", 18000], "trial": 0, "serialpos": 8, "trial_type": "single-stim", "trial_index": 29, "time_elapsed": 223730, "internal_node_id": "0.0-20.0"}}, {"uniqueid": "MTK0768:3LRKMWOKB6O8EZUGSFGALIG6HUJZ2N", "current_trial": 30, "dateTime": 1512752067468, "trialdata": {"rt": -1, "stimulus": "<p id=\"stim\">SCRIBBLE</p>", "key_press": -1, "type": "PRES_VIS", "word": "scribble", "wordID": 1255, "conditions": [18, 1200, "v", 18000], "trial": 0, "serialpos": 9, "trial_type": "single-stim", "trial_index": 30, "time_elapsed": 225804, "internal_node_id": "0.0-21.0"}}, {"uniqueid": "MTK0768:3LRKMWOKB6O8EZUGSFGALIG6HUJZ2N", "current_trial": 31, "dateTime": 1512752069580, "trialdata": {"rt": -1, "stimulus": "<p id=\"stim\">RIVER</p>", "key_press": -1, "type": "PRES_VIS", "word": "river", "wordID": 1193, "conditions": [18, 1200, "v", 18000], "trial": 0, "serialpos": 10, "trial_type": "single-stim", "trial_index": 31, "time_elapsed": 227916, "internal_node_id": "0.0-22.0"}}, {"uniqueid": "MTK0768:3LRKMWOKB6O8EZUGSFGALIG6HUJZ2N", "current_trial": 32, "dateTime": 1512752071617, "trialdata": {"rt": -1, "stimulus": "<p id=\"stim\">PANTHER</p>", "key_press": -1, "type": "PRES_VIS", "word": "panther", "wordID": 1008, "conditions": [18, 1200, "v", 18000], "trial": 0, "serialpos": 11, "trial_type": "single-stim", "trial_index": 32, "time_elapsed": 229953, "internal_node_id": "0.0-23.0"}}, {"uniqueid": "MTK0768:3LRKMWOKB6O8EZUGSFGALIG6HUJZ2N", "current_trial": 33, "dateTime": 1512752073826, "trialdata": {"rt": -1, "stimulus": "<p id=\"stim\">POCKET</p>", "key_press": -1, "type": "PRES_VIS", "word": "pocket", "wordID": 1092, "conditions": [18, 1200, "v", 18000], "trial": 0, "serialpos": 12, "trial_type": "single-stim", "trial_index": 33, "time_elapsed": 232162, "internal_node_id": "0.0-24.0"}}, {"uniqueid": "MTK0768:3LRKMWOKB6O8EZUGSFGALIG6HUJZ2N", "current_trial": 34, "dateTime": 1512752076005, "trialdata": {"rt": -1, "stimulus": "<p id=\"stim\">BLADE</p>", "key_press": -1, "type": "PRES_VIS", "word": "blade", "wordID": 133, "conditions": [18, 1200, "v", 18000], "trial": 0, "serialpos": 13, "trial_type": "single-stim", "trial_index": 34, "time_elapsed": 234340, "internal_node_id": "0.0-25.0"}}, {"uniqueid": "MTK0768:3LRKMWOKB6O8EZUGSFGALIG6HUJZ2N", "current_trial": 35, "dateTime": 1512752078285, "trialdata": {"rt": -1, "stimulus": "<p id=\"stim\">COMPASS</p>", "key_press": -1, "type": "PRES_VIS", "word": "compass", "wordID": 357, "conditions": [18, 1200, "v", 18000], "trial": 0, "serialpos": 14, "trial_type": "single-stim", "trial_index": 35, "time_elapsed": 236621, "internal_node_id": "0.0-26.0"}}, {"uniqueid": "MTK0768:3LRKMWOKB6O8EZUGSFGALIG6HUJZ2N", "current_trial": 36, "dateTime": 1512752080376, "trialdata": {"rt": -1, "stimulus": "<p id=\"stim\">FARMER</p>", "key_press": -1, "type": "PRES_VIS", "word": "farmer", "wordID": 552, "conditions": [18, 1200, "v", 18000], "trial": 0, "serialpos": 15, "trial_type": "single-stim", "trial_index": 36, "time_elapsed": 238712, "internal_node_id": "0.0-27.0"}}, {"uniqueid": "MTK0768:3LRKMWOKB6O8EZUGSFGALIG6HUJZ2N", "current_trial": 37, "dateTime": 1512752082520, "trialdata": {"rt": -1, "stimulus": "<p id=\"stim\">COCKTAIL</p>", "key_press": -1, "type": "PRES_VIS", "word": "cocktail", "wordID": 337, "conditions": [18, 1200, "v", 18000], "trial": 0, "serialpos": 16, "trial_type": "single-stim", "trial_index": 37, "time_elapsed": 240856, "internal_node_id": "0.0-28.0"}}, {"uniqueid": "MTK0768:3LRKMWOKB6O8EZUGSFGALIG6HUJZ2N", "current_trial": 38, "dateTime": 1512752084839, "trialdata": {"rt": -1, "stimulus": "<p id=\"stim\">CHIPMUNK</p>", "key_press": -1, "type": "PRES_VIS", "word": "chipmunk", "wordID": 303, "conditions": [18, 1200, "v", 18000], "trial": 0, "serialpos": 17, "trial_type": "single-stim", "trial_index": 38, "time_elapsed": 243175, "internal_node_id": "0.0-29.0"}}, {"uniqueid": "MTK0768:3LRKMWOKB6O8EZUGSFGALIG6HUJZ2N", "current_trial": 39, "dateTime": 1512752087168, "trialdata": {"rt": -1, "stimulus": "", "key_press": -1, "type": "PRE_RECALL_DELAY", "trial_type": "single-stim", "trial_index": 39, "time_elapsed": 245504, "internal_node_id": "0.0-30.0-0.0"}}, {"uniqueid": "MTK0768:3LRKMWOKB6O8EZUGSFGALIG6HUJZ2N", "current_trial": 40, "dateTime": 1512752087670, "trialdata": {"rt": -1000, "stimulus": "/static/audio/400Hz.wav", "key_press": -1, "type": "PRE_RECALL_ALERT", "trial_type": "single-audio", "trial_index": 40, "time_elapsed": 246006, "internal_node_id": "0.0-31.0"}}, {"uniqueid": "MTK0768:3LRKMWOKB6O8EZUGSFGALIG6HUJZ2N", "current_trial": 41, "dateTime": 1512752147672, "trialdata": {"rt": [3647, 8332, 10369, 16901, 21062, 36597, 47917, 58893], "recwords": ["cocktai", "chipmunk", "farmer", "hedge", "river", "thief", "cocktail", "farmer"], "type": "FREE_RECALL", "conditions": [18, 1200, "v", 18000], "trial": 0, "trial_type": "free-recall", "trial_index": 41, "time_elapsed": 306007, "internal_node_id": "0.0-32.0-0.0"}}, {"uniqueid": "MTK0768:3LRKMWOKB6O8EZUGSFGALIG6HUJZ2N", "current_trial": 42, "dateTime": 1512752151395, "trialdata": {"rt": 1723, "key_press": 32, "type": "INSTRUCTIONS", "trial_type": "text", "trial_index": 42, "time_elapsed": 309731, "internal_node_id": "0.0-33.0"}}, {"uniqueid": "MTK0768:3LRKMWOKB6O8EZUGSFGALIG6HUJZ2N", "current_trial": 43, "dateTime": 1512752171396, "trialdata": {"rt": [2142, 4135, 6551, 8871, 11087, 13983], "responses": ["12", "10", "6", "16", "22", "19"], "num1": [8, 2, 3, 5, 9, 6, 4], "num2": [1, 6, 2, 8, 6, 6, 4], "num3": [3, 2, 1, 3, 7, 7, 6], "type": "DISTRACTOR", "conditions": [18, 1200, "a", 18000], "trial": 1, "trial_type": "math-distractor", "trial_index": 43, "time_elapsed": 329732, "internal_node_id": "0.0-34.0"}}, {"uniqueid": "MTK0768:3LRKMWOKB6O8EZUGSFGALIG6HUJZ2N", "current_trial": 44, "dateTime": 1512752174396, "trialdata": {"rt": -1, "stimulus": "<p id=\"stim\">10</p>", "key_press": -1, "trial_type": "single-stim", "trial_index": 44, "time_elapsed": 332732, "internal_node_id": "0.0-35.0-0.0"}}, {"uniqueid": "MTK0768:3LRKMWOKB6O8EZUGSFGALIG6HUJZ2N", "current_trial": 45, "dateTime": 1512752175396, "trialdata": {"rt": -1, "stimulus": "<p id=\"stim\">9</p>", "key_press": -1, "trial_type": "single-stim", "trial_index": 45, "time_elapsed": 333732, "internal_node_id": "0.0-35.0-1.0"}}, {"uniqueid": "MTK0768:3LRKMWOKB6O8EZUGSFGALIG6HUJZ2N", "current_trial": 46, "dateTime": 1512752176396, "trialdata": {"rt": -1, "stimulus": "<p id=\"stim\">8</p>", "key_press": -1, "trial_type": "single-stim", "trial_index": 46, "time_elapsed": 334732, "internal_node_id": "0.0-35.0-2.0"}}, {"uniqueid": "MTK0768:3LRKMWOKB6O8EZUGSFGALIG6HUJZ2N", "current_trial": 47, "dateTime": 1512752177396, "trialdata": {"rt": -1, "stimulus": "<p id=\"stim\">7</p>", "key_press": -1, "trial_type": "single-stim", "trial_index": 47, "time_elapsed": 335732, "internal_node_id": "0.0-35.0-3.0"}}, {"uniqueid": "MTK0768:3LRKMWOKB6O8EZUGSFGALIG6HUJZ2N", "current_trial": 48, "dateTime": 1512752178396, "trialdata": {"rt": -1, "stimulus": "<p id=\"stim\">6</p>", "key_press": -1, "trial_type": "single-stim", "trial_index": 48, "time_elapsed": 336732, "internal_node_id": "0.0-35.0-4.0"}}, {"uniqueid": "MTK0768:3LRKMWOKB6O8EZUGSFGALIG6HUJZ2N", "current_trial": 49, "dateTime": 1512752179396, "trialdata": {"rt": -1, "stimulus": "<p id=\"stim\">5</p>", "key_press": -1, "trial_type": "single-stim", "trial_index": 49, "time_elapsed": 337732, "internal_node_id": "0.0-35.0-5.0"}}, {"uniqueid": "MTK0768:3LRKMWOKB6O8EZUGSFGALIG6HUJZ2N", "current_trial": 50, "dateTime": 1512752180396, "trialdata": {"rt": -1, "stimulus": "<p id=\"stim\">4</p>", "key_press": -1, "trial_type": "single-stim", "trial_index": 50, "time_elapsed": 338732, "internal_node_id": "0.0-35.0-6.0"}}, {"uniqueid": "MTK0768:3LRKMWOKB6O8EZUGSFGALIG6HUJZ2N", "current_trial": 51, "dateTime": 1512752181396, "trialdata": {"rt": -1, "stimulus": "<p id=\"stim\">3</p>", "key_press": -1, "trial_type": "single-stim", "trial_index": 51, "time_elapsed": 339732, "internal_node_id": "0.0-35.0-7.0"}}, {"uniqueid": "MTK0768:3LRKMWOKB6O8EZUGSFGALIG6HUJZ2N", "current_trial": 52, "dateTime": 1512752182396, "trialdata": {"rt": -1, "stimulus": "<p id=\"stim\">2</p>", "key_press": -1, "trial_type": "single-stim", "trial_index": 52, "time_elapsed": 340732, "internal_node_id": "0.0-35.0-8.0"}}, {"uniqueid": "MTK0768:3LRKMWOKB6O8EZUGSFGALIG6HUJZ2N", "current_trial": 53, "dateTime": 1512752183396, "trialdata": {"rt": -1, "stimulus": "<p id=\"stim\">1</p>", "key_press": -1, "trial_type": "single-stim", "trial_index": 53, "time_elapsed": 341732, "internal_node_id": "0.0-35.0-9.0"}}, {"uniqueid": "MTK0768:3LRKMWOKB6O8EZUGSFGALIG6HUJZ2N", "current_trial": 54, "dateTime": 1512752184896, "trialdata": {"rt": -1, "stimulus": "<p id=\"stim\">+</p>", "key_press": -1, "type": "FIXATION", "trial_type": "single-stim", "trial_index": 54, "time_elapsed": 343232, "internal_node_id": "0.0-36.0-0.0"}}, {"uniqueid": "MTK0768:3LRKMWOKB6O8EZUGSFGALIG6HUJZ2N", "current_trial": 55, "dateTime": 1512752187246, "trialdata": {"rt": -1000, "stimulus": "/static/audio/wordpool/PLASTER.wav", "key_press": -1, "type": "PRES_AUD", "word": "plaster", "wordID": 1084, "conditions": [18, 1200, "a", 18000], "trial": 1, "serialpos": 0, "trial_type": "single-audio", "trial_index": 55, "time_elapsed": 345582, "internal_node_id": "0.0-37.0"}}, {"uniqueid": "MTK0768:3LRKMWOKB6O8EZUGSFGALIG6HUJZ2N", "current_trial": 56, "dateTime": 1512752189295, "trialdata": {"rt": -1000, "stimulus": "/static/audio/wordpool/KIDNEY.wav", "key_press": -1, "type": "PRES_AUD", "word": "kidney", "wordID": 775, "conditions": [18, 1200, "a", 18000], "trial": 1, "serialpos": 1, "trial_type": "single-audio", "trial_index": 56, "time_elapsed": 347631, "internal_node_id": "0.0-38.0"}}, {"uniqueid": "MTK0768:3LRKMWOKB6O8EZUGSFGALIG6HUJZ2N", "current_trial": 57, "dateTime": 1512752191385, "trialdata": {"rt": -1000, "stimulus": "/static/audio/wordpool/GARLIC.wav", "key_press": -1, "type": "PRES_AUD", "word": "garlic", "wordID": 623, "conditions": [18, 1200, "a", 18000], "trial": 1, "serialpos": 2, "trial_type": "single-audio", "trial_index": 57, "time_elapsed": 349721, "internal_node_id": "0.0-39.0"}}, {"uniqueid": "MTK0768:3LRKMWOKB6O8EZUGSFGALIG6HUJZ2N", "current_trial": 58, "dateTime": 1512752193541, "trialdata": {"rt": -1000, "stimulus": "/static/audio/wordpool/SISTER.wav", "key_press": -1, "type": "PRES_AUD", "word": "sister", "wordID": 1311, "conditions": [18, 1200, "a", 18000], "trial": 1, "serialpos": 3, "trial_type": "single-audio", "trial_index": 58, "time_elapsed": 351877, "internal_node_id": "0.0-40.0"}}, {"uniqueid": "MTK0768:3LRKMWOKB6O8EZUGSFGALIG6HUJZ2N", "current_trial": 59, "dateTime": 1512752195864, "trialdata": {"rt": -1000, "stimulus": "/static/audio/wordpool/BUCKET.wav", "key_press": -1, "type": "PRES_AUD", "word": "bucket", "wordID": 183, "conditions": [18, 1200, "a", 18000], "trial": 1, "serialpos": 4, "trial_type": "single-audio", "trial_index": 59, "time_elapsed": 354200, "internal_node_id": "0.0-41.0"}}, {"uniqueid": "MTK0768:3LRKMWOKB6O8EZUGSFGALIG6HUJZ2N", "current_trial": 60, "dateTime": 1512752198138, "trialdata": {"rt": -1000, "stimulus": "/static/audio/wordpool/SIBLING.wav", "key_press": -1, "type": "PRES_AUD", "word": "sibling", "wordID": 1300, "conditions": [18, 1200, "a", 18000], "trial": 1, "serialpos": 5, "trial_type": "single-audio", "trial_index": 60, "time_elapsed": 356474, "internal_node_id": "0.0-42.0"}}, {"uniqueid": "MTK0768:3LRKMWOKB6O8EZUGSFGALIG6HUJZ2N", "current_trial": 61, "dateTime": 1512752200398, "trialdata": {"rt": -1000, "stimulus": "/static/audio/wordpool/SHIRT.wav", "key_press": -1, "type": "PRES_AUD", "word": "shirt", "wordID": 1286, "conditions": [18, 1200, "a", 18000], "trial": 1, "serialpos": 6, "trial_type": "single-audio", "trial_index": 61, "time_elapsed": 358734, "internal_node_id": "0.0-43.0"}}, {"uniqueid": "MTK0768:3LRKMWOKB6O8EZUGSFGALIG6HUJZ2N", "current_trial": 62, "dateTime": 1512752202487, "trialdata": {"rt": -1000, "stimulus": "/static/audio/wordpool/SHORTS.wav", "key_press": -1, "type": "PRES_AUD", "word": "shorts", "wordID": 1292, "conditions": [18, 1200, "a", 18000], "trial": 1, "serialpos": 7, "trial_type": "single-audio", "trial_index": 62, "time_elapsed": 360823, "internal_node_id": "0.0-44.0"}}, {"uniqueid": "MTK0768:3LRKMWOKB6O8EZUGSFGALIG6HUJZ2N", "current_trial": 63, "dateTime": 1512752204827, "trialdata": {"rt": -1000, "stimulus": "/static/audio/wordpool/TUBA.wav", "key_press": -1, "type": "PRES_AUD", "word": "tuba", "wordID": 1514, "conditions": [18, 1200, "a", 18000], "trial": 1, "serialpos": 8, "trial_type": "single-audio", "trial_index": 63, "time_elapsed": 363163, "internal_node_id": "0.0-45.0"}}, {"uniqueid": "MTK0768:3LRKMWOKB6O8EZUGSFGALIG6HUJZ2N", "current_trial": 64, "dateTime": 1512752207086, "trialdata": {"rt": -1000, "stimulus": "/static/audio/wordpool/PROTON.wav", "key_press": -1, "type": "PRES_AUD", "word": "proton", "wordID": 1131, "conditions": [18, 1200, "a", 18000], "trial": 1, "serialpos": 9, "trial_type": "single-audio", "trial_index": 64, "time_elapsed": 365422, "internal_node_id": "0.0-46.0"}}, {"uniqueid": "MTK0768:3LRKMWOKB6O8EZUGSFGALIG6HUJZ2N", "current_trial": 65, "dateTime": 1512752209327, "trialdata": {"rt": -1000, "stimulus": "/static/audio/wordpool/DENTIST.wav", "key_press": -1, "type": "PRES_AUD", "word": "dentist", "wordID": 446, "conditions": [18, 1200, "a", 18000], "trial": 1, "serialpos": 10, "trial_type": "single-audio", "trial_index": 65, "time_elapsed": 367663, "internal_node_id": "0.0-47.0"}}, {"uniqueid": "MTK0768:3LRKMWOKB6O8EZUGSFGALIG6HUJZ2N", "current_trial": 66, "dateTime": 1512752211584, "trialdata": {"rt": -1000, "stimulus": "/static/audio/wordpool/BIKE.wav", "key_press": -1, "type": "PRES_AUD", "word": "bike", "wordID": 124, "conditions": [18, 1200, "a", 18000], "trial": 1, "serialpos": 11, "trial_type": "single-audio", "trial_index": 66, "time_elapsed": 369920, "internal_node_id": "0.0-48.0"}}, {"uniqueid": "MTK0768:3LRKMWOKB6O8EZUGSFGALIG6HUJZ2N", "current_trial": 67, "dateTime": 1512752213686, "trialdata": {"rt": -1000, "stimulus": "/static/audio/wordpool/BUREAU.wav", "key_press": -1, "type": "PRES_AUD", "word": "bureau", "wordID": 198, "conditions": [18, 1200, "a", 18000], "trial": 1, "serialpos": 12, "trial_type": "single-audio", "trial_index": 67, "time_elapsed": 372022, "internal_node_id": "0.0-49.0"}}, {"uniqueid": "MTK0768:3LRKMWOKB6O8EZUGSFGALIG6HUJZ2N", "current_trial": 68, "dateTime": 1512752215774, "trialdata": {"rt": -1000, "stimulus": "/static/audio/wordpool/SHELTER.wav", "key_press": -1, "type": "PRES_AUD", "word": "shelter", "wordID": 1281, "conditions": [18, 1200, "a", 18000], "trial": 1, "serialpos": 13, "trial_type": "single-audio", "trial_index": 68, "time_elapsed": 374110, "internal_node_id": "0.0-50.0"}}, {"uniqueid": "MTK0768:3LRKMWOKB6O8EZUGSFGALIG6HUJZ2N", "current_trial": 69, "dateTime": 1512752218110, "trialdata": {"rt": -1000, "stimulus": "/static/audio/wordpool/ATLAS.wav", "key_press": -1, "type": "PRES_AUD", "word": "atlas", "wordID": 52, "conditions": [18, 1200, "a", 18000], "trial": 1, "serialpos": 14, "trial_type": "single-audio", "trial_index": 69, "time_elapsed": 376446, "internal_node_id": "0.0-51.0"}}, {"uniqueid": "MTK0768:3LRKMWOKB6O8EZUGSFGALIG6HUJZ2N", "current_trial": 70, "dateTime": 1512752220179, "trialdata": {"rt": -1000, "stimulus": "/static/audio/wordpool/BLENDER.wav", "key_press": -1, "type": "PRES_AUD", "word": "blender", "wordID": 135, "conditions": [18, 1200, "a", 18000], "trial": 1, "serialpos": 15, "trial_type": "single-audio", "trial_index": 70, "time_elapsed": 378515, "internal_node_id": "0.0-52.0"}}, {"uniqueid": "MTK0768:3LRKMWOKB6O8EZUGSFGALIG6HUJZ2N", "current_trial": 71, "dateTime": 1512752222493, "trialdata": {"rt": -1000, "stimulus": "/static/audio/wordpool/SIDEWALK.wav", "key_press": -1, "type": "PRES_AUD", "word": "sidewalk", "wordID": 1302, "conditions": [18, 1200, "a", 18000], "trial": 1, "serialpos": 16, "trial_type": "single-audio", "trial_index": 71, "time_elapsed": 380829, "internal_node_id": "0.0-53.0"}}, {"uniqueid": "MTK0768:3LRKMWOKB6O8EZUGSFGALIG6HUJZ2N", "current_trial": 72, "dateTime": 1512752224543, "trialdata": {"rt": -1000, "stimulus": "/static/audio/wordpool/KETCHUP.wav", "key_press": -1, "type": "PRES_AUD", "word": "ketchup", "wordID": 770, "conditions": [18, 1200, "a", 18000], "trial": 1, "serialpos": 17, "trial_type": "single-audio", "trial_index": 72, "time_elapsed": 382879, "internal_node_id": "0.0-54.0"}}, {"uniqueid": "MTK0768:3LRKMWOKB6O8EZUGSFGALIG6HUJZ2N", "current_trial": 73, "dateTime": 1512752225813, "trialdata": {"rt": -1, "stimulus": "", "key_press": -1, "type": "PRE_RECALL_DELAY", "trial_type": "single-stim", "trial_index": 73, "time_elapsed": 384149, "internal_node_id": "0.0-55.0-0.0"}}, {"uniqueid": "MTK0768:3LRKMWOKB6O8EZUGSFGALIG6HUJZ2N", "current_trial": 74, "dateTime": 1512752226313, "trialdata": {"rt": -1000, "stimulus": "/static/audio/400Hz.wav", "key_press": -1, "type": "PRE_RECALL_ALERT", "trial_type": "single-audio", "trial_index": 74, "time_elapsed": 384649, "internal_node_id": "0.0-56.0"}}, {"uniqueid": "MTK0768:3LRKMWOKB6O8EZUGSFGALIG6HUJZ2N", "current_trial": 75, "dateTime": 1512752286316, "trialdata": {"rt": [7497, 11786, 18809, 23339, 26950, 30569, 32385, 35795, 38370, 42978, 47090, 49865], "recwords": ["ketchup", "sidewalk", "blender", "catcher", "sidewaqlk", "sibling", "shirt", "shorts", "sister", "tuba", "dentist", "bike"], "type": "FREE_RECALL", "conditions": [18, 1200, "a", 18000], "trial": 1, "trial_type": "free-recall", "trial_index": 75, "time_elapsed": 444650, "internal_node_id": "0.0-57.0-0.0"}}, {"uniqueid": "MTK0768:3LRKMWOKB6O8EZUGSFGALIG6HUJZ2N", "current_trial": 76, "dateTime": 1512752291647, "trialdata": {"rt": 3326, "key_press": 13, "type": "INSTRUCTIONS", "trial_type": "text", "trial_index": 76, "time_elapsed": 449979, "internal_node_id": "0.0-58.0"}}, {"uniqueid": "MTK0768:3LRKMWOKB6O8EZUGSFGALIG6HUJZ2N", "current_trial": 77, "dateTime": 1512752304648, "trialdata": {"rt": [3188, 5195, 8563, 10459], "responses": ["12", "13", "19", "16"], "num1": [4, 6, 8, 5, 5], "num2": [7, 2, 4, 2, 8], "num3": [1, 5, 7, 9, 2], "type": "DISTRACTOR", "conditions": [24, 800, "v", 12000], "trial": 2, "trial_type": "math-distractor", "trial_index": 77, "time_elapsed": 462984, "internal_node_id": "0.0-59.0"}}, {"uniqueid": "MTK0768:3LRKMWOKB6O8EZUGSFGALIG6HUJZ2N", "current_trial": 78, "dateTime": 1512752307649, "trialdata": {"rt": -1, "stimulus": "<p id=\"stim\">10</p>", "key_press": -1, "trial_type": "single-stim", "trial_index": 78, "time_elapsed": 465985, "internal_node_id": "0.0-60.0-0.0"}}, {"uniqueid": "MTK0768:3LRKMWOKB6O8EZUGSFGALIG6HUJZ2N", "current_trial": 79, "dateTime": 1512752308649, "trialdata": {"rt": -1, "stimulus": "<p id=\"stim\">9</p>", "key_press": -1, "trial_type": "single-stim", "trial_index": 79, "time_elapsed": 466985, "internal_node_id": "0.0-60.0-1.0"}}, {"uniqueid": "MTK0768:3LRKMWOKB6O8EZUGSFGALIG6HUJZ2N", "current_trial": 80, "dateTime": 1512752309653, "trialdata": {"rt": -1, "stimulus": "<p id=\"stim\">8</p>", "key_press": -1, "trial_type": "single-stim", "trial_index": 80, "time_elapsed": 467989, "internal_node_id": "0.0-60.0-2.0"}}, {"uniqueid": "MTK0768:3LRKMWOKB6O8EZUGSFGALIG6HUJZ2N", "current_trial": 81, "dateTime": 1512752310653, "trialdata": {"rt": -1, "stimulus": "<p id=\"stim\">7</p>", "key_press": -1, "trial_type": "single-stim", "trial_index": 81, "time_elapsed": 468989, "internal_node_id": "0.0-60.0-3.0"}}, {"uniqueid": "MTK0768:3LRKMWOKB6O8EZUGSFGALIG6HUJZ2N", "current_trial": 82, "dateTime": 1512752311653, "trialdata": {"rt": -1, "stimulus": "<p id=\"stim\">6</p>", "key_press": -1, "trial_type": "single-stim", "trial_index": 82, "time_elapsed": 469989, "internal_node_id": "0.0-60.0-4.0"}}, {"uniqueid": "MTK0768:3LRKMWOKB6O8EZUGSFGALIG6HUJZ2N", "current_trial": 83, "dateTime": 1512752312653, "trialdata": {"rt": -1, "stimulus": "<p id=\"stim\">5</p>", "key_press": -1, "trial_type": "single-stim", "trial_index": 83, "time_elapsed": 470989, "internal_node_id": "0.0-60.0-5.0"}}, {"uniqueid": "MTK0768:3LRKMWOKB6O8EZUGSFGALIG6HUJZ2N", "current_trial": 84, "dateTime": 1512752313653, "trialdata": {"rt": -1, "stimulus": "<p id=\"stim\">4</p>", "key_press": -1, "trial_type": "single-stim", "trial_index": 84, "time_elapsed": 471989, "internal_node_id": "0.0-60.0-6.0"}}, {"uniqueid": "MTK0768:3LRKMWOKB6O8EZUGSFGALIG6HUJZ2N", "current_trial": 85, "dateTime": 1512752314653, "trialdata": {"rt": -1, "stimulus": "<p id=\"stim\">3</p>", "key_press": -1, "trial_type": "single-stim", "trial_index": 85, "time_elapsed": 472989, "internal_node_id": "0.0-60.0-7.0"}}, {"uniqueid": "MTK0768:3LRKMWOKB6O8EZUGSFGALIG6HUJZ2N", "current_trial": 86, "dateTime": 1512752315653, "trialdata": {"rt": -1, "stimulus": "<p id=\"stim\">2</p>", "key_press": -1, "trial_type": "single-stim", "trial_index": 86, "time_elapsed": 473989, "internal_node_id": "0.0-60.0-8.0"}}, {"uniqueid": "MTK0768:3LRKMWOKB6O8EZUGSFGALIG6HUJZ2N", "current_trial": 87, "dateTime": 1512752316653, "trialdata": {"rt": -1, "stimulus": "<p id=\"stim\">1</p>", "key_press": -1, "trial_type": "single-stim", "trial_index": 87, "time_elapsed": 474989, "internal_node_id": "0.0-60.0-9.0"}}, {"uniqueid": "MTK0768:3LRKMWOKB6O8EZUGSFGALIG6HUJZ2N", "current_trial": 88, "dateTime": 1512752318153, "trialdata": {"rt": -1, "stimulus": "<p id=\"stim\">+</p>", "key_press": -1, "type": "FIXATION", "trial_type": "single-stim", "trial_index": 88, "time_elapsed": 476489, "internal_node_id": "0.0-61.0-0.0"}}, {"uniqueid": "MTK0768:3LRKMWOKB6O8EZUGSFGALIG6HUJZ2N", "current_trial": 89, "dateTime": 1512752318953, "trialdata": {"rt": -1, "stimulus": "<p id=\"stim\">COSTUME</p>", "key_press": -1, "type": "PRES_VIS", "word": "costume", "wordID": 382, "conditions": [24, 800, "v", 12000], "trial": 2, "serialpos": 0, "trial_type": "single-stim", "trial_index": 89, "time_elapsed": 477289, "internal_node_id": "0.0-62.0"}}, {"uniqueid": "MTK0768:3LRKMWOKB6O8EZUGSFGALIG6HUJZ2N", "current_trial": 90, "dateTime": 1512752320615, "trialdata": {"rt": -1, "stimulus": "<p id=\"stim\">POPCORN</p>", "key_press": -1, "type": "PRES_VIS", "word": "popcorn", "wordID": 1103, "conditions": [24, 800, "v", 12000], "trial": 2, "serialpos": 1, "trial_type": "single-stim", "trial_index": 90, "time_elapsed": 478951, "internal_node_id": "0.0-63.0"}}, {"uniqueid": "MTK0768:3LRKMWOKB6O8EZUGSFGALIG6HUJZ2N", "current_trial": 91, "dateTime": 1512752322309, "trialdata": {"rt": -1, "stimulus": "<p id=\"stim\">STALLION</p>", "key_press": -1, "type": "PRES_VIS", "word": "stallion", "wordID": 1368, "conditions": [24, 800, "v", 12000], "trial": 2, "serialpos": 2, "trial_type": "single-stim", "trial_index": 91, "time_elapsed": 480645, "internal_node_id": "0.0-64.0"}}, {"uniqueid": "MTK0768:3LRKMWOKB6O8EZUGSFGALIG6HUJZ2N", "current_trial": 92, "dateTime": 1512752324229, "trialdata": {"rt": -1, "stimulus": "<p id=\"stim\">FIREPLACE</p>", "key_press": -1, "type": "PRES_VIS", "word": "fireplace", "wordID": 569, "conditions": [24, 800, "v", 12000], "trial": 2, "serialpos": 3, "trial_type": "single-stim", "trial_index": 92, "time_elapsed": 482565, "internal_node_id": "0.0-65.0"}}, {"uniqueid": "MTK0768:3LRKMWOKB6O8EZUGSFGALIG6HUJZ2N", "current_trial": 93, "dateTime": 1512752325910, "trialdata": {"rt": -1, "stimulus": "<p id=\"stim\">WAITRESS</p>", "key_press": -1, "type": "PRES_VIS", "word": "waitress", "wordID": 1580, "conditions": [24, 800, "v", 12000], "trial": 2, "serialpos": 4, "trial_type": "single-stim", "trial_index": 93, "time_elapsed": 484245, "internal_node_id": "0.0-66.0"}}, {"uniqueid": "MTK0768:3LRKMWOKB6O8EZUGSFGALIG6HUJZ2N", "current_trial": 94, "dateTime": 1512752327893, "trialdata": {"rt": -1, "stimulus": "<p id=\"stim\">RABBIT</p>", "key_press": -1, "type": "PRES_VIS", "word": "rabbit", "wordID": 1151, "conditions": [24, 800, "v", 12000], "trial": 2, "serialpos": 5, "trial_type": "single-stim", "trial_index": 94, "time_elapsed": 486228, "internal_node_id": "0.0-67.0"}}, {"uniqueid": "MTK0768:3LRKMWOKB6O8EZUGSFGALIG6HUJZ2N", "current_trial": 95, "dateTime": 1512752329866, "trialdata": {"rt": -1, "stimulus": "<p id=\"stim\">ROOSTER</p>", "key_press": -1, "type": "PRES_VIS", "word": "rooster", "wordID": 1208, "conditions": [24, 800, "v", 12000], "trial": 2, "serialpos": 6, "trial_type": "single-stim", "trial_index": 95, "time_elapsed": 488202, "internal_node_id": "0.0-68.0"}}, {"uniqueid": "MTK0768:3LRKMWOKB6O8EZUGSFGALIG6HUJZ2N", "current_trial": 96, "dateTime": 1512752331800, "trialdata": {"rt": -1, "stimulus": "<p id=\"stim\">POLICE</p>", "key_press": -1, "type": "PRES_VIS", "word": "police", "wordID": 1097, "conditions": [24, 800, "v", 12000], "trial": 2, "serialpos": 7, "trial_type": "single-stim", "trial_index": 96, "time_elapsed": 490136, "internal_node_id": "0.0-69.0"}}, {"uniqueid": "MTK0768:3LRKMWOKB6O8EZUGSFGALIG6HUJZ2N", "current_trial": 97, "dateTime": 1512752333662, "trialdata": {"rt": -1, "stimulus": "<p id=\"stim\">SURVEY</p>", "key_press": -1, "type": "PRES_VIS", "word": "survey", "wordID": 1413, "conditions": [24, 800, "v", 12000], "trial": 2, "serialpos": 8, "trial_type": "single-stim", "trial_index": 97, "time_elapsed": 491998, "internal_node_id": "0.0-70.0"}}, {"uniqueid": "MTK0768:3LRKMWOKB6O8EZUGSFGALIG6HUJZ2N", "current_trial": 98, "dateTime": 1512752335279, "trialdata": {"rt": -1, "stimulus": "<p id=\"stim\">CREATURE</p>", "key_press": -1, "type": "PRES_VIS", "word": "creature", "wordID": 402, "conditions": [24, 800, "v", 12000], "trial": 2, "serialpos": 9, "trial_type": "single-stim", "trial_index": 98, "time_elapsed": 493615, "internal_node_id": "0.0-71.0"}}, {"uniqueid": "MTK0768:3LRKMWOKB6O8EZUGSFGALIG6HUJZ2N", "current_trial": 99, "dateTime": 1512752337095, "trialdata": {"rt": -1, "stimulus": "<p id=\"stim\">SILK</p>", "key_press": -1, "type": "PRES_VIS", "word": "silk", "wordID": 1306, "conditions": [24, 800, "v", 12000], "trial": 2, "serialpos": 10, "trial_type": "single-stim", "trial_index": 99, "time_elapsed": 495431, "internal_node_id": "0.0-72.0"}}, {"uniqueid": "MTK0768:3LRKMWOKB6O8EZUGSFGALIG6HUJZ2N", "current_trial": 100, "dateTime": 1512752338789, "trialdata": {"rt": -1, "stimulus": "<p id=\"stim\">KITCHEN</p>", "key_press": -1, "type": "PRES_VIS", "word": "kitchen", "wordID": 777, "conditions": [24, 800, "v", 12000], "trial": 2, "serialpos": 11, "trial_type": "single-stim", "trial_index": 100, "time_elapsed": 497125, "internal_node_id": "0.0-73.0"}}, {"uniqueid": "MTK0768:3LRKMWOKB6O8EZUGSFGALIG6HUJZ2N", "current_trial": 101, "dateTime": 1512752340654, "trialdata": {"rt": -1, "stimulus": "<p id=\"stim\">EGYPT</p>", "key_press": -1, "type": "PRES_VIS", "word": "egypt", "wordID": 518, "conditions": [24, 800, "v", 12000], "trial": 2, "serialpos": 12, "trial_type": "single-stim", "trial_index": 101, "time_elapsed": 498990, "internal_node_id": "0.0-74.0"}}, {"uniqueid": "MTK0768:3LRKMWOKB6O8EZUGSFGALIG6HUJZ2N", "current_trial": 102, "dateTime": 1512752342520, "trialdata": {"rt": -1, "stimulus": "<p id=\"stim\">OFFICE</p>", "key_press": -1, "type": "PRES_VIS", "word": "office", "wordID": 971, "conditions": [24, 800, "v", 12000], "trial": 2, "serialpos": 13, "trial_type": "single-stim", "trial_index": 102, "time_elapsed": 500856, "internal_node_id": "0.0-75.0"}}, {"uniqueid": "MTK0768:3LRKMWOKB6O8EZUGSFGALIG6HUJZ2N", "current_trial": 103, "dateTime": 1512752344229, "trialdata": {"rt": -1, "stimulus": "<p id=\"stim\">SPACE</p>", "key_press": -1, "type": "PRES_VIS", "word": "space", "wordID": 1344, "conditions": [24, 800, "v", 12000], "trial": 2, "serialpos": 14, "trial_type": "single-stim", "trial_index": 103, "time_elapsed": 502565, "internal_node_id": "0.0-76.0"}}, {"uniqueid": "MTK0768:3LRKMWOKB6O8EZUGSFGALIG6HUJZ2N", "current_trial": 104, "dateTime": 1512752346005, "trialdata": {"rt": -1, "stimulus": "<p id=\"stim\">INFANT</p>", "key_press": -1, "type": "PRES_VIS", "word": "infant", "wordID": 736, "conditions": [24, 800, "v", 12000], "trial": 2, "serialpos": 15, "trial_type": "single-stim", "trial_index": 104, "time_elapsed": 504341, "internal_node_id": "0.0-77.0"}}, {"uniqueid": "MTK0768:3LRKMWOKB6O8EZUGSFGALIG6HUJZ2N", "current_trial": 105, "dateTime": 1512752347656, "trialdata": {"rt": -1, "stimulus": "<p id=\"stim\">CONCERT</p>", "key_press": -1, "type": "PRES_VIS", "word": "concert", "wordID": 359, "conditions": [24, 800, "v", 12000], "trial": 2, "serialpos": 16, "trial_type": "single-stim", "trial_index": 105, "time_elapsed": 505992, "internal_node_id": "0.0-78.0"}}, {"uniqueid": "MTK0768:3LRKMWOKB6O8EZUGSFGALIG6HUJZ2N", "current_trial": 106, "dateTime": 1512752349587, "trialdata": {"rt": -1, "stimulus": "<p id=\"stim\">ROCKET</p>", "key_press": -1, "type": "PRES_VIS", "word": "rocket", "wordID": 1201, "conditions": [24, 800, "v", 12000], "trial": 2, "serialpos": 17, "trial_type": "single-stim", "trial_index": 106, "time_elapsed": 507923, "internal_node_id": "0.0-79.0"}}, {"uniqueid": "MTK0768:3LRKMWOKB6O8EZUGSFGALIG6HUJZ2N", "current_trial": 107, "dateTime": 1512752351387, "trialdata": {"rt": -1, "stimulus": "<p id=\"stim\">DRAGON</p>", "key_press": -1, "type": "PRES_VIS", "word": "dragon", "wordID": 491, "conditions": [24, 800, "v", 12000], "trial": 2, "serialpos": 18, "trial_type": "single-stim", "trial_index": 107, "time_elapsed": 509723, "internal_node_id": "0.0-80.0"}}, {"uniqueid": "MTK0768:3LRKMWOKB6O8EZUGSFGALIG6HUJZ2N", "current_trial": 108, "dateTime": 1512752353265, "trialdata": {"rt": -1, "stimulus": "<p id=\"stim\">GOBLIN</p>", "key_press": -1, "type": "PRES_VIS", "word": "goblin", "wordID": 644, "conditions": [24, 800, "v", 12000], "trial": 2, "serialpos": 19, "trial_type": "single-stim", "trial_index": 108, "time_elapsed": 511601, "internal_node_id": "0.0-81.0"}}, {"uniqueid": "MTK0768:3LRKMWOKB6O8EZUGSFGALIG6HUJZ2N", "current_trial": 109, "dateTime": 1512752354903, "trialdata": {"rt": -1, "stimulus": "<p id=\"stim\">PARENT</p>", "key_press": -1, "type": "PRES_VIS", "word": "parent", "wordID": 1012, "conditions": [24, 800, "v", 12000], "trial": 2, "serialpos": 20, "trial_type": "single-stim", "trial_index": 109, "time_elapsed": 513239, "internal_node_id": "0.0-82.0"}}, {"uniqueid": "MTK0768:3LRKMWOKB6O8EZUGSFGALIG6HUJZ2N", "current_trial": 110, "dateTime": 1512752356802, "trialdata": {"rt": -1, "stimulus": "<p id=\"stim\">BABY</p>", "key_press": -1, "type": "PRES_VIS", "word": "baby", "wordID": 63, "conditions": [24, 800, "v", 12000], "trial": 2, "serialpos": 21, "trial_type": "single-stim", "trial_index": 110, "time_elapsed": 515138, "internal_node_id": "0.0-83.0"}}, {"uniqueid": "MTK0768:3LRKMWOKB6O8EZUGSFGALIG6HUJZ2N", "current_trial": 111, "dateTime": 1512752358636, "trialdata": {"rt": -1, "stimulus": "<p id=\"stim\">GLOVE</p>", "key_press": -1, "type": "PRES_VIS", "word": "glove", "wordID": 641, "conditions": [24, 800, "v", 12000], "trial": 2, "serialpos": 22, "trial_type": "single-stim", "trial_index": 111, "time_elapsed": 516972, "internal_node_id": "0.0-84.0"}}, {"uniqueid": "MTK0768:3LRKMWOKB6O8EZUGSFGALIG6HUJZ2N", "current_trial": 112, "dateTime": 1512752360461, "trialdata": {"rt": -1, "stimulus": "<p id=\"stim\">EUROPE</p>", "key_press": -1, "type": "PRES_VIS", "word": "europe", "wordID": 540, "conditions": [24, 800, "v", 12000], "trial": 2, "serialpos": 23, "trial_type": "single-stim", "trial_index": 112, "time_elapsed": 518797, "internal_node_id": "0.0-85.0"}}, {"uniqueid": "MTK0768:3LRKMWOKB6O8EZUGSFGALIG6HUJZ2N", "current_trial": 113, "dateTime": 1512752362850, "trialdata": {"rt": -1, "stimulus": "", "key_press": -1, "type": "PRE_RECALL_DELAY", "trial_type": "single-stim", "trial_index": 113, "time_elapsed": 521186, "internal_node_id": "0.0-86.0-0.0"}}, {"uniqueid": "MTK0768:3LRKMWOKB6O8EZUGSFGALIG6HUJZ2N", "current_trial": 114, "dateTime": 1512752363359, "trialdata": {"rt": -1000, "stimulus": "/static/audio/400Hz.wav", "key_press": -1, "type": "PRE_RECALL_ALERT", "trial_type": "single-audio", "trial_index": 114, "time_elapsed": 521695, "internal_node_id": "0.0-87.0"}}, {"uniqueid": "MTK0768:3LRKMWOKB6O8EZUGSFGALIG6HUJZ2N", "current_trial": 115, "dateTime": 1512752423362, "trialdata": {"rt": [2634, 7461, 9601, 12691, 14870, 16975, 20837, 24651, 28678, 33100, 36659, 47196], "recwords": ["glove", "europe", "infant", "baby", "glove", "mother", "silk", "rabbit", "firelpace", "creature", "rooster", "waist"], "type": "FREE_RECALL", "conditions": [24, 800, "v", 12000], "trial": 2, "trial_type": "free-recall", "trial_index": 115, "time_elapsed": 581696, "internal_node_id": "0.0-88.0-0.0"}}, {"uniqueid": "MTK0768:3LRKMWOKB6O8EZUGSFGALIG6HUJZ2N", "current_trial": 116, "dateTime": 1512752427187, "trialdata": {"rt": 1825, "key_press": 13, "type": "INSTRUCTIONS", "trial_type": "text", "trial_index": 116, "time_elapsed": 585523, "internal_node_id": "0.0-89.0"}}, {"uniqueid": "MTK0768:3LRKMWOKB6O8EZUGSFGALIG6HUJZ2N", "current_trial": 117, "dateTime": 1512752441190, "trialdata": {"rt": [2237, 4780, 6437, 9597, 11813], "responses": ["10", "10", "11", "13", "17"], "num1": [5, 2, 9, 4, 2, 2], "num2": [4, 1, 1, 2, 9, 8], "num3": [1, 7, 1, 7, 6, 8], "type": "DISTRACTOR", "conditions": [24, 1600, "a", 12000], "trial": 3, "trial_type": "math-distractor", "trial_index": 117, "time_elapsed": 599526, "internal_node_id": "0.0-90.0"}}, {"uniqueid": "MTK0768:3LRKMWOKB6O8EZUGSFGALIG6HUJZ2N", "current_trial": 118, "dateTime": 1512752444190, "trialdata": {"rt": -1, "stimulus": "<p id=\"stim\">10</p>", "key_press": -1, "trial_type": "single-stim", "trial_index": 118, "time_elapsed": 602526, "internal_node_id": "0.0-91.0-0.0"}}, {"uniqueid": "MTK0768:3LRKMWOKB6O8EZUGSFGALIG6HUJZ2N", "current_trial": 119, "dateTime": 1512752445191, "trialdata": {"rt": -1, "stimulus": "<p id=\"stim\">9</p>", "key_press": -1, "trial_type": "single-stim", "trial_index": 119, "time_elapsed": 603527, "internal_node_id": "0.0-91.0-1.0"}}, {"uniqueid": "MTK0768:3LRKMWOKB6O8EZUGSFGALIG6HUJZ2N", "current_trial": 120, "dateTime": 1512752446191, "trialdata": {"rt": -1, "stimulus": "<p id=\"stim\">8</p>", "key_press": -1, "trial_type": "single-stim", "trial_index": 120, "time_elapsed": 604527, "internal_node_id": "0.0-91.0-2.0"}}, {"uniqueid": "MTK0768:3LRKMWOKB6O8EZUGSFGALIG6HUJZ2N", "current_trial": 121, "dateTime": 1512752447191, "trialdata": {"rt": -1, "stimulus": "<p id=\"stim\">7</p>", "key_press": -1, "trial_type": "single-stim", "trial_index": 121, "time_elapsed": 605527, "internal_node_id": "0.0-91.0-3.0"}}, {"uniqueid": "MTK0768:3LRKMWOKB6O8EZUGSFGALIG6HUJZ2N", "current_trial": 122, "dateTime": 1512752448191, "trialdata": {"rt": -1, "stimulus": "<p id=\"stim\">6</p>", "key_press": -1, "trial_type": "single-stim", "trial_index": 122, "time_elapsed": 606527, "internal_node_id": "0.0-91.0-4.0"}}, {"uniqueid": "MTK0768:3LRKMWOKB6O8EZUGSFGALIG6HUJZ2N", "current_trial": 123, "dateTime": 1512752449191, "trialdata": {"rt": -1, "stimulus": "<p id=\"stim\">5</p>", "key_press": -1, "trial_type": "single-stim", "trial_index": 123, "time_elapsed": 607527, "internal_node_id": "0.0-91.0-5.0"}}, {"uniqueid": "MTK0768:3LRKMWOKB6O8EZUGSFGALIG6HUJZ2N", "current_trial": 124, "dateTime": 1512752450192, "trialdata": {"rt": -1, "stimulus": "<p id=\"stim\">4</p>", "key_press": -1, "trial_type": "single-stim", "trial_index": 124, "time_elapsed": 608528, "internal_node_id": "0.0-91.0-6.0"}}, {"uniqueid": "MTK0768:3LRKMWOKB6O8EZUGSFGALIG6HUJZ2N", "current_trial": 125, "dateTime": 1512752451192, "trialdata": {"rt": -1, "stimulus": "<p id=\"stim\">3</p>", "key_press": -1, "trial_type": "single-stim", "trial_index": 125, "time_elapsed": 609528, "internal_node_id": "0.0-91.0-7.0"}}, {"uniqueid": "MTK0768:3LRKMWOKB6O8EZUGSFGALIG6HUJZ2N", "current_trial": 126, "dateTime": 1512752452192, "trialdata": {"rt": -1, "stimulus": "<p id=\"stim\">2</p>", "key_press": -1, "trial_type": "single-stim", "trial_index": 126, "time_elapsed": 610528, "internal_node_id": "0.0-91.0-8.0"}}, {"uniqueid": "MTK0768:3LRKMWOKB6O8EZUGSFGALIG6HUJZ2N", "current_trial": 127, "dateTime": 1512752453194, "trialdata": {"rt": -1, "stimulus": "<p id=\"stim\">1</p>", "key_press": -1, "trial_type": "single-stim", "trial_index": 127, "time_elapsed": 611530, "internal_node_id": "0.0-91.0-9.0"}}, {"uniqueid": "MTK0768:3LRKMWOKB6O8EZUGSFGALIG6HUJZ2N", "current_trial": 128, "dateTime": 1512752454695, "trialdata": {"rt": -1, "stimulus": "<p id=\"stim\">+</p>", "key_press": -1, "type": "FIXATION", "trial_type": "single-stim", "trial_index": 128, "time_elapsed": 613031, "internal_node_id": "0.0-92.0-0.0"}}, {"uniqueid": "MTK0768:3LRKMWOKB6O8EZUGSFGALIG6HUJZ2N", "current_trial": 129, "dateTime": 1512752457419, "trialdata": {"rt": -1000, "stimulus": "/static/audio/wordpool/DIME.wav", "key_press": -1, "type": "PRES_AUD", "word": "dime", "wordID": 465, "conditions": [24, 1600, "a", 12000], "trial": 3, "serialpos": 0, "trial_type": "single-audio", "trial_index": 129, "time_elapsed": 615755, "internal_node_id": "0.0-93.0"}}, {"uniqueid": "MTK0768:3LRKMWOKB6O8EZUGSFGALIG6HUJZ2N", "current_trial": 130, "dateTime": 1512752460051, "trialdata": {"rt": -1000, "stimulus": "/static/audio/wordpool/DAISY.wav", "key_press": -1, "type": "PRES_AUD", "word": "daisy", "wordID": 434, "conditions": [24, 1600, "a", 12000], "trial": 3, "serialpos": 1, "trial_type": "single-audio", "trial_index": 130, "time_elapsed": 618387, "internal_node_id": "0.0-94.0"}}, {"uniqueid": "MTK0768:3LRKMWOKB6O8EZUGSFGALIG6HUJZ2N", "current_trial": 131, "dateTime": 1512752462586, "trialdata": {"rt": -1000, "stimulus": "/static/audio/wordpool/LEG.wav", "key_press": -1, "type": "PRES_AUD", "word": "leg", "wordID": 808, "conditions": [24, 1600, "a", 12000], "trial": 3, "serialpos": 2, "trial_type": "single-audio", "trial_index": 131, "time_elapsed": 620922, "internal_node_id": "0.0-95.0"}}, {"uniqueid": "MTK0768:3LRKMWOKB6O8EZUGSFGALIG6HUJZ2N", "current_trial": 132, "dateTime": 1512752465066, "trialdata": {"rt": -1000, "stimulus": "/static/audio/wordpool/PARTNER.wav", "key_press": -1, "type": "PRES_AUD", "word": "partner", "wordID": 1016, "conditions": [24, 1600, "a", 12000], "trial": 3, "serialpos": 3, "trial_type": "single-audio", "trial_index": 132, "time_elapsed": 623402, "internal_node_id": "0.0-96.0"}}, {"uniqueid": "MTK0768:3LRKMWOKB6O8EZUGSFGALIG6HUJZ2N", "current_trial": 133, "dateTime": 1512752467696, "trialdata": {"rt": -1000, "stimulus": "/static/audio/wordpool/WORKER.wav", "key_press": -1, "type": "PRES_AUD", "word": "worker", "wordID": 1620, "conditions": [24, 1600, "a", 12000], "trial": 3, "serialpos": 4, "trial_type": "single-audio", "trial_index": 133, "time_elapsed": 626032, "internal_node_id": "0.0-97.0"}}, {"uniqueid": "MTK0768:3LRKMWOKB6O8EZUGSFGALIG6HUJZ2N", "current_trial": 134, "dateTime": 1512752470356, "trialdata": {"rt": -1000, "stimulus": "/static/audio/wordpool/HIGHWAY.wav", "key_press": -1, "type": "PRES_AUD", "word": "highway", "wordID": 706, "conditions": [24, 1600, "a", 12000], "trial": 3, "serialpos": 5, "trial_type": "single-audio", "trial_index": 134, "time_elapsed": 628692, "internal_node_id": "0.0-98.0"}}, {"uniqueid": "MTK0768:3LRKMWOKB6O8EZUGSFGALIG6HUJZ2N", "current_trial": 135, "dateTime": 1512752472996, "trialdata": {"rt": -1000, "stimulus": "/static/audio/wordpool/FLOWER.wav", "key_press": -1, "type": "PRES_AUD", "word": "flower", "wordID": 583, "conditions": [24, 1600, "a", 12000], "trial": 3, "serialpos": 6, "trial_type": "single-audio", "trial_index": 135, "time_elapsed": 631332, "internal_node_id": "0.0-99.0"}}, {"uniqueid": "MTK0768:3LRKMWOKB6O8EZUGSFGALIG6HUJZ2N", "current_trial": 136, "dateTime": 1512752475496, "trialdata": {"rt": -1000, "stimulus": "/static/audio/wordpool/MESSAGE.wav", "key_press": -1, "type": "PRES_AUD", "word": "message", "wordID": 887, "conditions": [24, 1600, "a", 12000], "trial": 3, "serialpos": 7, "trial_type": "single-audio", "trial_index": 136, "time_elapsed": 633832, "internal_node_id": "0.0-100.0"}}, {"uniqueid": "MTK0768:3LRKMWOKB6O8EZUGSFGALIG6HUJZ2N", "current_trial": 137, "dateTime": 1512752477922, "trialdata": {"rt": -1000, "stimulus": "/static/audio/wordpool/HEART.wav", "key_press": -1, "type": "PRES_AUD", "word": "heart", "wordID": 696, "conditions": [24, 1600, "a", 12000], "trial": 3, "serialpos": 8, "trial_type": "single-audio", "trial_index": 137, "time_elapsed": 636258, "internal_node_id": "0.0-101.0"}}, {"uniqueid": "MTK0768:3LRKMWOKB6O8EZUGSFGALIG6HUJZ2N", "current_trial": 138, "dateTime": 1512752480547, "trialdata": {"rt": -1000, "stimulus": "/static/audio/wordpool/BLOUSE.wav", "key_press": -1, "type": "PRES_AUD", "word": "blouse", "wordID": 138, "conditions": [24, 1600, "a", 12000], "trial": 3, "serialpos": 9, "trial_type": "single-audio", "trial_index": 138, "time_elapsed": 638883, "internal_node_id": "0.0-102.0"}}, {"uniqueid": "MTK0768:3LRKMWOKB6O8EZUGSFGALIG6HUJZ2N", "current_trial": 139, "dateTime": 1512752483272, "trialdata": {"rt": -1000, "stimulus": "/static/audio/wordpool/GRAPE.wav", "key_press": -1, "type": "PRES_AUD", "word": "grape", "wordID": 653, "conditions": [24, 1600, "a", 12000], "trial": 3, "serialpos": 10, "trial_type": "single-audio", "trial_index": 139, "time_elapsed": 641608, "internal_node_id": "0.0-103.0"}}, {"uniqueid": "MTK0768:3LRKMWOKB6O8EZUGSFGALIG6HUJZ2N", "current_trial": 140, "dateTime": 1512752485816, "trialdata": {"rt": -1000, "stimulus": "/static/audio/wordpool/APPLE.wav", "key_press": -1, "type": "PRES_AUD", "word": "apple", "wordID": 32, "conditions": [24, 1600, "a", 12000], "trial": 3, "serialpos": 11, "trial_type": "single-audio", "trial_index": 140, "time_elapsed": 644152, "internal_node_id": "0.0-104.0"}}, {"uniqueid": "MTK0768:3LRKMWOKB6O8EZUGSFGALIG6HUJZ2N", "current_trial": 141, "dateTime": 1512752488506, "trialdata": {"rt": -1000, "stimulus": "/static/audio/wordpool/FOX.wav", "key_press": -1, "type": "PRES_AUD", "word": "fox", "wordID": 597, "conditions": [24, 1600, "a", 12000], "trial": 3, "serialpos": 12, "trial_type": "single-audio", "trial_index": 141, "time_elapsed": 646842, "internal_node_id": "0.0-105.0"}}, {"uniqueid": "MTK0768:3LRKMWOKB6O8EZUGSFGALIG6HUJZ2N", "current_trial": 142, "dateTime": 1512752491186, "trialdata": {"rt": -1000, "stimulus": "/static/audio/wordpool/WIDOW.wav", "key_press": -1, "type": "PRES_AUD", "word": "widow", "wordID": 1607, "conditions": [24, 1600, "a", 12000], "trial": 3, "serialpos": 13, "trial_type": "single-audio", "trial_index": 142, "time_elapsed": 649522, "internal_node_id": "0.0-106.0"}}, {"uniqueid": "MTK0768:3LRKMWOKB6O8EZUGSFGALIG6HUJZ2N", "current_trial": 143, "dateTime": 1512752493676, "trialdata": {"rt": -1000, "stimulus": "/static/audio/wordpool/SODA.wav", "key_press": -1, "type": "PRES_AUD", "word": "soda", "wordID": 1340, "conditions": [24, 1600, "a", 12000], "trial": 3, "serialpos": 14, "trial_type": "single-audio", "trial_index": 143, "time_elapsed": 652012, "internal_node_id": "0.0-107.0"}}, {"uniqueid": "MTK0768:3LRKMWOKB6O8EZUGSFGALIG6HUJZ2N", "current_trial": 144, "dateTime": 1512752496406, "trialdata": {"rt": -1000, "stimulus": "/static/audio/wordpool/PRIMATE.wav", "key_press": -1, "type": "PRES_AUD", "word": "primate", "wordID": 1122, "conditions": [24, 1600, "a", 12000], "trial": 3, "serialpos": 15, "trial_type": "single-audio", "trial_index": 144, "time_elapsed": 654742, "internal_node_id": "0.0-108.0"}}, {"uniqueid": "MTK0768:3LRKMWOKB6O8EZUGSFGALIG6HUJZ2N", "current_trial": 145, "dateTime": 1512752498851, "trialdata": {"rt": -1000, "stimulus": "/static/audio/wordpool/FOREST.wav", "key_press": -1, "type": "PRES_AUD", "word": "forest", "wordID": 592, "conditions": [24, 1600, "a", 12000], "trial": 3, "serialpos": 16, "trial_type": "single-audio", "trial_index": 145, "time_elapsed": 657187, "internal_node_id": "0.0-109.0"}}, {"uniqueid": "MTK0768:3LRKMWOKB6O8EZUGSFGALIG6HUJZ2N", "current_trial": 146, "dateTime": 1512752501561, "trialdata": {"rt": -1000, "stimulus": "/static/audio/wordpool/BANK.wav", "key_press": -1, "type": "PRES_AUD", "word": "bank", "wordID": 82, "conditions": [24, 1600, "a", 12000], "trial": 3, "serialpos": 17, "trial_type": "single-audio", "trial_index": 146, "time_elapsed": 659897, "internal_node_id": "0.0-110.0"}}, {"uniqueid": "MTK0768:3LRKMWOKB6O8EZUGSFGALIG6HUJZ2N", "current_trial": 147, "dateTime": 1512752504331, "trialdata": {"rt": -1000, "stimulus": "/static/audio/wordpool/BANKER.wav", "key_press": -1, "type": "PRES_AUD", "word": "banker", "wordID": 83, "conditions": [24, 1600, "a", 12000], "trial": 3, "serialpos": 18, "trial_type": "single-audio", "trial_index": 147, "time_elapsed": 662667, "internal_node_id": "0.0-111.0"}}, {"uniqueid": "MTK0768:3LRKMWOKB6O8EZUGSFGALIG6HUJZ2N", "current_trial": 148, "dateTime": 1512752506908, "trialdata": {"rt": -1000, "stimulus": "/static/audio/wordpool/PAPER.wav", "key_press": -1, "type": "PRES_AUD", "word": "paper", "wordID": 1010, "conditions": [24, 1600, "a", 12000], "trial": 3, "serialpos": 19, "trial_type": "single-audio", "trial_index": 148, "time_elapsed": 665244, "internal_node_id": "0.0-112.0"}}, {"uniqueid": "MTK0768:3LRKMWOKB6O8EZUGSFGALIG6HUJZ2N", "current_trial": 149, "dateTime": 1512752509450, "trialdata": {"rt": -1000, "stimulus": "/static/audio/wordpool/TRENCH.wav", "key_press": -1, "type": "PRES_AUD", "word": "trench", "wordID": 1502, "conditions": [24, 1600, "a", 12000], "trial": 3, "serialpos": 20, "trial_type": "single-audio", "trial_index": 149, "time_elapsed": 667786, "internal_node_id": "0.0-113.0"}}, {"uniqueid": "MTK0768:3LRKMWOKB6O8EZUGSFGALIG6HUJZ2N", "current_trial": 150, "dateTime": 1512752512084, "trialdata": {"rt": -1000, "stimulus": "/static/audio/wordpool/SLIME.wav", "key_press": -1, "type": "PRES_AUD", "word": "slime", "wordID": 1326, "conditions": [24, 1600, "a", 12000], "trial": 3, "serialpos": 21, "trial_type": "single-audio", "trial_index": 150, "time_elapsed": 670420, "internal_node_id": "0.0-114.0"}}, {"uniqueid": "MTK0768:3LRKMWOKB6O8EZUGSFGALIG6HUJZ2N", "current_trial": 151, "dateTime": 1512752514631, "trialdata": {"rt": -1000, "stimulus": "/static/audio/wordpool/GUARD.wav", "key_press": -1, "type": "PRES_AUD", "word": "guard", "wordID": 666, "conditions": [24, 1600, "a", 12000], "trial": 3, "serialpos": 22, "trial_type": "single-audio", "trial_index": 151, "time_elapsed": 672967, "internal_node_id": "0.0-115.0"}}, {"uniqueid": "MTK0768:3LRKMWOKB6O8EZUGSFGALIG6HUJZ2N", "current_trial": 152, "dateTime": 1512752517101, "trialdata": {"rt": -1000, "stimulus": "/static/audio/wordpool/SNAKE.wav", "key_press": -1, "type": "PRES_AUD", "word": "snake", "wordID": 1332, "conditions": [24, 1600, "a", 12000], "trial": 3, "serialpos": 23, "trial_type": "single-audio", "trial_index": 152, "time_elapsed": 675437, "internal_node_id": "0.0-116.0"}}, {"uniqueid": "MTK0768:3LRKMWOKB6O8EZUGSFGALIG6HUJZ2N", "current_trial": 153, "dateTime": 1512752518317, "trialdata": {"rt": -1, "stimulus": "", "key_press": -1, "type": "PRE_RECALL_DELAY", "trial_type": "single-stim", "trial_index": 153, "time_elapsed": 676653, "internal_node_id": "0.0-117.0-0.0"}}, {"uniqueid": "MTK0768:3LRKMWOKB6O8EZUGSFGALIG6HUJZ2N", "current_trial": 154, "dateTime": 1512752518817, "trialdata": {"rt": -1000, "stimulus": "/static/audio/400Hz.wav", "key_press": -1, "type": "PRE_RECALL_ALERT", "trial_type": "single-audio", "trial_index": 154, "time_elapsed": 677153, "internal_node_id": "0.0-118.0"}}, {"uniqueid": "MTK0768:3LRKMWOKB6O8EZUGSFGALIG6HUJZ2N", "current_trial": 155, "dateTime": 1512752578821, "trialdata": {"rt": [4217, 6370, 8920, 12772, 16831, 20881, 23089, 27483, 31329, 35777, 40344, 47129, 54545, 58578], "recwords": ["snake", "guard", "paper", "leg", "worker", "bank", "banker", "soda", "water", "flower", "message", "fox", "primate", "daisy"], "type": "FREE_RECALL", "conditions": [24, 1600, "a", 12000], "trial": 3, "trial_type": "free-recall", "trial_index": 155, "time_elapsed": 737155, "internal_node_id": "0.0-119.0-0.0"}}, {"uniqueid": "MTK0768:3LRKMWOKB6O8EZUGSFGALIG6HUJZ2N", "current_trial": 156, "dateTime": 1512752583092, "trialdata": {"rt": 2271, "key_press": 13, "type": "INSTRUCTIONS", "trial_type": "text", "trial_index": 156, "time_elapsed": 741428, "internal_node_id": "0.0-120.0"}}, {"uniqueid": "MTK0768:3LRKMWOKB6O8EZUGSFGALIG6HUJZ2N", "current_trial": 157, "dateTime": 1512752597094, "trialdata": {"rt": [2885, 4861, 6925, 10181], "responses": ["19", "16", "13", "20"], "num1": [2, 4, 3, 8, 6], "num2": [8, 5, 5, 3, 5], "num3": [9, 7, 5, 9, 3], "type": "DISTRACTOR", "conditions": [24, 1600, "v", 12000], "trial": 4, "trial_type": "math-distractor", "trial_index": 157, "time_elapsed": 755430, "internal_node_id": "0.0-121.0"}}, {"uniqueid": "MTK0768:3LRKMWOKB6O8EZUGSFGALIG6HUJZ2N", "current_trial": 158, "dateTime": 1512752600095, "trialdata": {"rt": -1, "stimulus": "<p id=\"stim\">10</p>", "key_press": -1, "trial_type": "single-stim", "trial_index": 158, "time_elapsed": 758430, "internal_node_id": "0.0-122.0-0.0"}}, {"uniqueid": "MTK0768:3LRKMWOKB6O8EZUGSFGALIG6HUJZ2N", "current_trial": 159, "dateTime": 1512752601095, "trialdata": {"rt": -1, "stimulus": "<p id=\"stim\">9</p>", "key_press": -1, "trial_type": "single-stim", "trial_index": 159, "time_elapsed": 759431, "internal_node_id": "0.0-122.0-1.0"}}, {"uniqueid": "MTK0768:3LRKMWOKB6O8EZUGSFGALIG6HUJZ2N", "current_trial": 160, "dateTime": 1512752602095, "trialdata": {"rt": -1, "stimulus": "<p id=\"stim\">8</p>", "key_press": -1, "trial_type": "single-stim", "trial_index": 160, "time_elapsed": 760431, "internal_node_id": "0.0-122.0-2.0"}}, {"uniqueid": "MTK0768:3LRKMWOKB6O8EZUGSFGALIG6HUJZ2N", "current_trial": 161, "dateTime": 1512752603095, "trialdata": {"rt": -1, "stimulus": "<p id=\"stim\">7</p>", "key_press": -1, "trial_type": "single-stim", "trial_index": 161, "time_elapsed": 761431, "internal_node_id": "0.0-122.0-3.0"}}, {"uniqueid": "MTK0768:3LRKMWOKB6O8EZUGSFGALIG6HUJZ2N", "current_trial": 162, "dateTime": 1512752604095, "trialdata": {"rt": -1, "stimulus": "<p id=\"stim\">6</p>", "key_press": -1, "trial_type": "single-stim", "trial_index": 162, "time_elapsed": 762431, "internal_node_id": "0.0-122.0-4.0"}}, {"uniqueid": "MTK0768:3LRKMWOKB6O8EZUGSFGALIG6HUJZ2N", "current_trial": 163, "dateTime": 1512752605095, "trialdata": {"rt": -1, "stimulus": "<p id=\"stim\">5</p>", "key_press": -1, "trial_type": "single-stim", "trial_index": 163, "time_elapsed": 763431, "internal_node_id": "0.0-122.0-5.0"}}, {"uniqueid": "MTK0768:3LRKMWOKB6O8EZUGSFGALIG6HUJZ2N", "current_trial": 164, "dateTime": 1512752606095, "trialdata": {"rt": -1, "stimulus": "<p id=\"stim\">4</p>", "key_press": -1, "trial_type": "single-stim", "trial_index": 164, "time_elapsed": 764431, "internal_node_id": "0.0-122.0-6.0"}}, {"uniqueid": "MTK0768:3LRKMWOKB6O8EZUGSFGALIG6HUJZ2N", "current_trial": 165, "dateTime": 1512752607095, "trialdata": {"rt": -1, "stimulus": "<p id=\"stim\">3</p>", "key_press": -1, "trial_type": "single-stim", "trial_index": 165, "time_elapsed": 765431, "internal_node_id": "0.0-122.0-7.0"}}, {"uniqueid": "MTK0768:3LRKMWOKB6O8EZUGSFGALIG6HUJZ2N", "current_trial": 166, "dateTime": 1512752608095, "trialdata": {"rt": -1, "stimulus": "<p id=\"stim\">2</p>", "key_press": -1, "trial_type": "single-stim", "trial_index": 166, "time_elapsed": 766431, "internal_node_id": "0.0-122.0-8.0"}}, {"uniqueid": "MTK0768:3LRKMWOKB6O8EZUGSFGALIG6HUJZ2N", "current_trial": 167, "dateTime": 1512752609095, "trialdata": {"rt": -1, "stimulus": "<p id=\"stim\">1</p>", "key_press": -1, "trial_type": "single-stim", "trial_index": 167, "time_elapsed": 767431, "internal_node_id": "0.0-122.0-9.0"}}, {"uniqueid": "MTK0768:3LRKMWOKB6O8EZUGSFGALIG6HUJZ2N", "current_trial": 168, "dateTime": 1512752610595, "trialdata": {"rt": -1, "stimulus": "<p id=\"stim\">+</p>", "key_press": -1, "type": "FIXATION", "trial_type": "single-stim", "trial_index": 168, "time_elapsed": 768931, "internal_node_id": "0.0-123.0-0.0"}}, {"uniqueid": "MTK0768:3LRKMWOKB6O8EZUGSFGALIG6HUJZ2N", "current_trial": 169, "dateTime": 1512752612195, "trialdata": {"rt": -1, "stimulus": "<p id=\"stim\">POISON</p>", "key_press": -1, "type": "PRES_VIS", "word": "poison", "wordID": 1095, "conditions": [24, 1600, "v", 12000], "trial": 4, "serialpos": 0, "trial_type": "single-stim", "trial_index": 169, "time_elapsed": 770531, "internal_node_id": "0.0-124.0"}}, {"uniqueid": "MTK0768:3LRKMWOKB6O8EZUGSFGALIG6HUJZ2N", "current_trial": 170, "dateTime": 1512752614709, "trialdata": {"rt": -1, "stimulus": "<p id=\"stim\">PORK</p>", "key_press": -1, "type": "PRES_VIS", "word": "pork", "wordID": 1107, "conditions": [24, 1600, "v", 12000], "trial": 4, "serialpos": 1, "trial_type": "single-stim", "trial_index": 170, "time_elapsed": 773045, "internal_node_id": "0.0-125.0"}}, {"uniqueid": "MTK0768:3LRKMWOKB6O8EZUGSFGALIG6HUJZ2N", "current_trial": 171, "dateTime": 1512752617251, "trialdata": {"rt": -1, "stimulus": "<p id=\"stim\">BRIEFCASE</p>", "key_press": -1, "type": "PRES_VIS", "word": "briefcase", "wordID": 174, "conditions": [24, 1600, "v", 12000], "trial": 4, "serialpos": 2, "trial_type": "single-stim", "trial_index": 171, "time_elapsed": 775587, "internal_node_id": "0.0-126.0"}}, {"uniqueid": "MTK0768:3LRKMWOKB6O8EZUGSFGALIG6HUJZ2N", "current_trial": 172, "dateTime": 1512752619986, "trialdata": {"rt": -1, "stimulus": "<p id=\"stim\">HANDBAG</p>", "key_press": -1, "type": "PRES_VIS", "word": "handbag", "wordID": 683, "conditions": [24, 1600, "v", 12000], "trial": 4, "serialpos": 3, "trial_type": "single-stim", "trial_index": 172, "time_elapsed": 778322, "internal_node_id": "0.0-127.0"}}, {"uniqueid": "MTK0768:3LRKMWOKB6O8EZUGSFGALIG6HUJZ2N", "current_trial": 173, "dateTime": 1512752622620, "trialdata": {"rt": -1, "stimulus": "<p id=\"stim\">VICTIM</p>", "key_press": -1, "type": "PRES_VIS", "word": "victim", "wordID": 1561, "conditions": [24, 1600, "v", 12000], "trial": 4, "serialpos": 4, "trial_type": "single-stim", "trial_index": 173, "time_elapsed": 780956, "internal_node_id": "0.0-128.0"}}, {"uniqueid": "MTK0768:3LRKMWOKB6O8EZUGSFGALIG6HUJZ2N", "current_trial": 174, "dateTime": 1512752625097, "trialdata": {"rt": -1, "stimulus": "<p id=\"stim\">WOMAN</p>", "key_press": -1, "type": "PRES_VIS", "word": "woman", "wordID": 1619, "conditions": [24, 1600, "v", 12000], "trial": 4, "serialpos": 5, "trial_type": "single-stim", "trial_index": 174, "time_elapsed": 783433, "internal_node_id": "0.0-129.0"}}, {"uniqueid": "MTK0768:3LRKMWOKB6O8EZUGSFGALIG6HUJZ2N", "current_trial": 175, "dateTime": 1512752627887, "trialdata": {"rt": -1, "stimulus": "<p id=\"stim\">FRAME</p>", "key_press": -1, "type": "PRES_VIS", "word": "frame", "wordID": 599, "conditions": [24, 1600, "v", 12000], "trial": 4, "serialpos": 6, "trial_type": "single-stim", "trial_index": 175, "time_elapsed": 786223, "internal_node_id": "0.0-130.0"}}, {"uniqueid": "MTK0768:3LRKMWOKB6O8EZUGSFGALIG6HUJZ2N", "current_trial": 176, "dateTime": 1512752630393, "trialdata": {"rt": -1, "stimulus": "<p id=\"stim\">MILK</p>", "key_press": -1, "type": "PRES_VIS", "word": "milk", "wordID": 894, "conditions": [24, 1600, "v", 12000], "trial": 4, "serialpos": 7, "trial_type": "single-stim", "trial_index": 176, "time_elapsed": 788729, "internal_node_id": "0.0-131.0"}}, {"uniqueid": "MTK0768:3LRKMWOKB6O8EZUGSFGALIG6HUJZ2N", "current_trial": 177, "dateTime": 1512752633036, "trialdata": {"rt": -1, "stimulus": "<p id=\"stim\">WARDROBE</p>", "key_press": -1, "type": "PRES_VIS", "word": "wardrobe", "wordID": 1586, "conditions": [24, 1600, "v", 12000], "trial": 4, "serialpos": 8, "trial_type": "single-stim", "trial_index": 177, "time_elapsed": 791372, "internal_node_id": "0.0-132.0"}}, {"uniqueid": "MTK0768:3LRKMWOKB6O8EZUGSFGALIG6HUJZ2N", "current_trial": 178, "dateTime": 1512752635543, "trialdata": {"rt": -1, "stimulus": "<p id=\"stim\">GIRL</p>", "key_press": -1, "type": "PRES_VIS", "word": "girl", "wordID": 636, "conditions": [24, 1600, "v", 12000], "trial": 4, "serialpos": 9, "trial_type": "single-stim", "trial_index": 178, "time_elapsed": 793879, "internal_node_id": "0.0-133.0"}}, {"uniqueid": "MTK0768:3LRKMWOKB6O8EZUGSFGALIG6HUJZ2N", "current_trial": 179, "dateTime": 1512752638039, "trialdata": {"rt": -1, "stimulus": "<p id=\"stim\">TRACTOR</p>", "key_press": -1, "type": "PRES_VIS", "word": "tractor", "wordID": 1492, "conditions": [24, 1600, "v", 12000], "trial": 4, "serialpos": 10, "trial_type": "single-stim", "trial_index": 179, "time_elapsed": 796375, "internal_node_id": "0.0-134.0"}}, {"uniqueid": "MTK0768:3LRKMWOKB6O8EZUGSFGALIG6HUJZ2N", "current_trial": 180, "dateTime": 1512752640584, "trialdata": {"rt": -1, "stimulus": "<p id=\"stim\">STICKER</p>", "key_press": -1, "type": "PRES_VIS", "word": "sticker", "wordID": 1381, "conditions": [24, 1600, "v", 12000], "trial": 4, "serialpos": 11, "trial_type": "single-stim", "trial_index": 180, "time_elapsed": 798920, "internal_node_id": "0.0-135.0"}}, {"uniqueid": "MTK0768:3LRKMWOKB6O8EZUGSFGALIG6HUJZ2N", "current_trial": 181, "dateTime": 1512752643373, "trialdata": {"rt": -1, "stimulus": "<p id=\"stim\">FRIEND</p>", "key_press": -1, "type": "PRES_VIS", "word": "friend", "wordID": 605, "conditions": [24, 1600, "v", 12000], "trial": 4, "serialpos": 12, "trial_type": "single-stim", "trial_index": 181, "time_elapsed": 801709, "internal_node_id": "0.0-136.0"}}, {"uniqueid": "MTK0768:3LRKMWOKB6O8EZUGSFGALIG6HUJZ2N", "current_trial": 182, "dateTime": 1512752645993, "trialdata": {"rt": -1, "stimulus": "<p id=\"stim\">ARMY</p>", "key_press": -1, "type": "PRES_VIS", "word": "army", "wordID": 38, "conditions": [24, 1600, "v", 12000], "trial": 4, "serialpos": 13, "trial_type": "single-stim", "trial_index": 182, "time_elapsed": 804329, "internal_node_id": "0.0-137.0"}}, {"uniqueid": "MTK0768:3LRKMWOKB6O8EZUGSFGALIG6HUJZ2N", "current_trial": 183, "dateTime": 1512752648482, "trialdata": {"rt": -1, "stimulus": "<p id=\"stim\">CAPTIVE</p>", "key_press": -1, "type": "PRES_VIS", "word": "captive", "wordID": 239, "conditions": [24, 1600, "v", 12000], "trial": 4, "serialpos": 14, "trial_type": "single-stim", "trial_index": 183, "time_elapsed": 806818, "internal_node_id": "0.0-138.0"}}, {"uniqueid": "MTK0768:3LRKMWOKB6O8EZUGSFGALIG6HUJZ2N", "current_trial": 184, "dateTime": 1512752651079, "trialdata": {"rt": -1, "stimulus": "<p id=\"stim\">TURTLE</p>", "key_press": -1, "type": "PRES_VIS", "word": "turtle", "wordID": 1521, "conditions": [24, 1600, "v", 12000], "trial": 4, "serialpos": 15, "trial_type": "single-stim", "trial_index": 184, "time_elapsed": 809415, "internal_node_id": "0.0-139.0"}}, {"uniqueid": "MTK0768:3LRKMWOKB6O8EZUGSFGALIG6HUJZ2N", "current_trial": 185, "dateTime": 1512752653793, "trialdata": {"rt": -1, "stimulus": "<p id=\"stim\">LOVER</p>", "key_press": -1, "type": "PRES_VIS", "word": "lover", "wordID": 845, "conditions": [24, 1600, "v", 12000], "trial": 4, "serialpos": 16, "trial_type": "single-stim", "trial_index": 185, "time_elapsed": 812128, "internal_node_id": "0.0-140.0"}}, {"uniqueid": "MTK0768:3LRKMWOKB6O8EZUGSFGALIG6HUJZ2N", "current_trial": 186, "dateTime": 1512752656244, "trialdata": {"rt": -1, "stimulus": "<p id=\"stim\">PUDDLE</p>", "key_press": -1, "type": "PRES_VIS", "word": "puddle", "wordID": 1139, "conditions": [24, 1600, "v", 12000], "trial": 4, "serialpos": 17, "trial_type": "single-stim", "trial_index": 186, "time_elapsed": 814580, "internal_node_id": "0.0-141.0"}}, {"uniqueid": "MTK0768:3LRKMWOKB6O8EZUGSFGALIG6HUJZ2N", "current_trial": 187, "dateTime": 1512752658944, "trialdata": {"rt": -1, "stimulus": "<p id=\"stim\">ROD</p>", "key_press": -1, "type": "PRES_VIS", "word": "rod", "wordID": 1202, "conditions": [24, 1600, "v", 12000], "trial": 4, "serialpos": 18, "trial_type": "single-stim", "trial_index": 187, "time_elapsed": 817280, "internal_node_id": "0.0-142.0"}}, {"uniqueid": "MTK0768:3LRKMWOKB6O8EZUGSFGALIG6HUJZ2N", "current_trial": 188, "dateTime": 1512752661738, "trialdata": {"rt": -1, "stimulus": "<p id=\"stim\">SPOOL</p>", "key_press": -1, "type": "PRES_VIS", "word": "spool", "wordID": 1355, "conditions": [24, 1600, "v", 12000], "trial": 4, "serialpos": 19, "trial_type": "single-stim", "trial_index": 188, "time_elapsed": 820073, "internal_node_id": "0.0-143.0"}}, {"uniqueid": "MTK0768:3LRKMWOKB6O8EZUGSFGALIG6HUJZ2N", "current_trial": 189, "dateTime": 1512752664271, "trialdata": {"rt": -1, "stimulus": "<p id=\"stim\">HATCHET</p>", "key_press": -1, "type": "PRES_VIS", "word": "hatchet", "wordID": 690, "conditions": [24, 1600, "v", 12000], "trial": 4, "serialpos": 20, "trial_type": "single-stim", "trial_index": 189, "time_elapsed": 822607, "internal_node_id": "0.0-144.0"}}, {"uniqueid": "MTK0768:3LRKMWOKB6O8EZUGSFGALIG6HUJZ2N", "current_trial": 190, "dateTime": 1512752666944, "trialdata": {"rt": -1, "stimulus": "<p id=\"stim\">BREAST</p>", "key_press": -1, "type": "PRES_VIS", "word": "breast", "wordID": 170, "conditions": [24, 1600, "v", 12000], "trial": 4, "serialpos": 21, "trial_type": "single-stim", "trial_index": 190, "time_elapsed": 825280, "internal_node_id": "0.0-145.0"}}, {"uniqueid": "MTK0768:3LRKMWOKB6O8EZUGSFGALIG6HUJZ2N", "current_trial": 191, "dateTime": 1512752669423, "trialdata": {"rt": -1, "stimulus": "<p id=\"stim\">OYSTER</p>", "key_press": -1, "type": "PRES_VIS", "word": "oyster", "wordID": 994, "conditions": [24, 1600, "v", 12000], "trial": 4, "serialpos": 22, "trial_type": "single-stim", "trial_index": 191, "time_elapsed": 827759, "internal_node_id": "0.0-146.0"}}, {"uniqueid": "MTK0768:3LRKMWOKB6O8EZUGSFGALIG6HUJZ2N", "current_trial": 192, "dateTime": 1512752672120, "trialdata": {"rt": -1, "stimulus": "<p id=\"stim\">SWAMP</p>", "key_press": -1, "type": "PRES_VIS", "word": "swamp", "wordID": 1415, "conditions": [24, 1600, "v", 12000], "trial": 4, "serialpos": 23, "trial_type": "single-stim", "trial_index": 192, "time_elapsed": 830456, "internal_node_id": "0.0-147.0"}}, {"uniqueid": "MTK0768:3LRKMWOKB6O8EZUGSFGALIG6HUJZ2N", "current_trial": 193, "dateTime": 1512752674439, "trialdata": {"rt": -1, "stimulus": "", "key_press": -1, "type": "PRE_RECALL_DELAY", "trial_type": "single-stim", "trial_index": 193, "time_elapsed": 832775, "internal_node_id": "0.0-148.0-0.0"}}, {"uniqueid": "MTK0768:3LRKMWOKB6O8EZUGSFGALIG6HUJZ2N", "current_trial": 194, "dateTime": 1512752674944, "trialdata": {"rt": -1000, "stimulus": "/static/audio/400Hz.wav", "key_press": -1, "type": "PRE_RECALL_ALERT", "trial_type": "single-audio", "trial_index": 194, "time_elapsed": 833280, "internal_node_id": "0.0-149.0"}}, {"uniqueid": "MTK0768:3LRKMWOKB6O8EZUGSFGALIG6HUJZ2N", "current_trial": 195, "dateTime": 1512752734948, "trialdata": {"rt": [5700, 7777, 9546, 12807, 16713, 18712, 22629, 26290, 29493, 34163, 38251, 47795, 54987], "recwords": ["oyster", "swamp", "woman", "poison", "milk", "spool", "hatchet", "tractor", "army", "pork", "victim", "frame", "turtle"], "type": "FREE_RECALL", "conditions": [24, 1600, "v", 12000], "trial": 4, "trial_type": "free-recall", "trial_index": 195, "time_elapsed": 893281, "internal_node_id": "0.0-150.0-0.0"}}, {"uniqueid": "MTK0768:3LRKMWOKB6O8EZUGSFGALIG6HUJZ2N", "current_trial": 196, "dateTime": 1512752738387, "trialdata": {"rt": 1439, "key_press": 13, "type": "INSTRUCTIONS", "trial_type": "text", "trial_index": 196, "time_elapsed": 896723, "internal_node_id": "0.0-151.0"}}, {"uniqueid": "MTK0768:3LRKMWOKB6O8EZUGSFGALIG6HUJZ2N", "current_trial": 197, "dateTime": 1512752764389, "trialdata": {"rt": [1967, 4262, 6478, 9119, 11055, 12607, 14439, 16719, 18687, 20568, 22742], "responses": ["15", "19", "17", "22", "15", "10", "15", "21", "9", "14", "19"], "num1": [6, 8, 6, 7, 9, 4, 1, 5, 5, 7, 6, 6], "num2": [4, 8, 3, 8, 2, 5, 9, 8, 3, 2, 9, 1], "num3": [5, 3, 8, 7, 4, 1, 5, 9, 1, 5, 2, 2], "type": "DISTRACTOR", "conditions": [24, 800, "a", 24000], "trial": 5, "trial_type": "math-distractor", "trial_index": 197, "time_elapsed": 922725, "internal_node_id": "0.0-152.0"}}, {"uniqueid": "MTK0768:3LRKMWOKB6O8EZUGSFGALIG6HUJZ2N", "current_trial": 198, "dateTime": 1512752767389, "trialdata": {"rt": -1, "stimulus": "<p id=\"stim\">10</p>", "key_press": -1, "trial_type": "single-stim", "trial_index": 198, "time_elapsed": 925725, "internal_node_id": "0.0-153.0-0.0"}}, {"uniqueid": "MTK0768:3LRKMWOKB6O8EZUGSFGALIG6HUJZ2N", "current_trial": 199, "dateTime": 1512752768390, "trialdata": {"rt": -1, "stimulus": "<p id=\"stim\">9</p>", "key_press": -1, "trial_type": "single-stim", "trial_index": 199, "time_elapsed": 926726, "internal_node_id": "0.0-153.0-1.0"}}, {"uniqueid": "MTK0768:3LRKMWOKB6O8EZUGSFGALIG6HUJZ2N", "current_trial": 200, "dateTime": 1512752769390, "trialdata": {"rt": -1, "stimulus": "<p id=\"stim\">8</p>", "key_press": -1, "trial_type": "single-stim", "trial_index": 200, "time_elapsed": 927726, "internal_node_id": "0.0-153.0-2.0"}}, {"uniqueid": "MTK0768:3LRKMWOKB6O8EZUGSFGALIG6HUJZ2N", "current_trial": 201, "dateTime": 1512752770390, "trialdata": {"rt": -1, "stimulus": "<p id=\"stim\">7</p>", "key_press": -1, "trial_type": "single-stim", "trial_index": 201, "time_elapsed": 928726, "internal_node_id": "0.0-153.0-3.0"}}, {"uniqueid": "MTK0768:3LRKMWOKB6O8EZUGSFGALIG6HUJZ2N", "current_trial": 202, "dateTime": 1512752771392, "trialdata": {"rt": -1, "stimulus": "<p id=\"stim\">6</p>", "key_press": -1, "trial_type": "single-stim", "trial_index": 202, "time_elapsed": 929728, "internal_node_id": "0.0-153.0-4.0"}}, {"uniqueid": "MTK0768:3LRKMWOKB6O8EZUGSFGALIG6HUJZ2N", "current_trial": 203, "dateTime": 1512752772393, "trialdata": {"rt": -1, "stimulus": "<p id=\"stim\">5</p>", "key_press": -1, "trial_type": "single-stim", "trial_index": 203, "time_elapsed": 930729, "internal_node_id": "0.0-153.0-5.0"}}, {"uniqueid": "MTK0768:3LRKMWOKB6O8EZUGSFGALIG6HUJZ2N", "current_trial": 204, "dateTime": 1512752773393, "trialdata": {"rt": -1, "stimulus": "<p id=\"stim\">4</p>", "key_press": -1, "trial_type": "single-stim", "trial_index": 204, "time_elapsed": 931729, "internal_node_id": "0.0-153.0-6.0"}}, {"uniqueid": "MTK0768:3LRKMWOKB6O8EZUGSFGALIG6HUJZ2N", "current_trial": 205, "dateTime": 1512752774393, "trialdata": {"rt": -1, "stimulus": "<p id=\"stim\">3</p>", "key_press": -1, "trial_type": "single-stim", "trial_index": 205, "time_elapsed": 932729, "internal_node_id": "0.0-153.0-7.0"}}, {"uniqueid": "MTK0768:3LRKMWOKB6O8EZUGSFGALIG6HUJZ2N", "current_trial": 206, "dateTime": 1512752775393, "trialdata": {"rt": -1, "stimulus": "<p id=\"stim\">2</p>", "key_press": -1, "trial_type": "single-stim", "trial_index": 206, "time_elapsed": 933729, "internal_node_id": "0.0-153.0-8.0"}}, {"uniqueid": "MTK0768:3LRKMWOKB6O8EZUGSFGALIG6HUJZ2N", "current_trial": 207, "dateTime": 1512752776393, "trialdata": {"rt": -1, "stimulus": "<p id=\"stim\">1</p>", "key_press": -1, "trial_type": "single-stim", "trial_index": 207, "time_elapsed": 934729, "internal_node_id": "0.0-153.0-9.0"}}, {"uniqueid": "MTK0768:3LRKMWOKB6O8EZUGSFGALIG6HUJZ2N", "current_trial": 208, "dateTime": 1512752777894, "trialdata": {"rt": -1, "stimulus": "<p id=\"stim\">+</p>", "key_press": -1, "type": "FIXATION", "trial_type": "single-stim", "trial_index": 208, "time_elapsed": 936230, "internal_node_id": "0.0-154.0-0.0"}}, {"uniqueid": "MTK0768:3LRKMWOKB6O8EZUGSFGALIG6HUJZ2N", "current_trial": 209, "dateTime": 1512752779764, "trialdata": {"rt": -1000, "stimulus": "/static/audio/wordpool/PLAID.wav", "key_press": -1, "type": "PRES_AUD", "word": "plaid", "wordID": 1079, "conditions": [24, 800, "a", 24000], "trial": 5, "serialpos": 0, "trial_type": "single-audio", "trial_index": 209, "time_elapsed": 938100, "internal_node_id": "0.0-155.0"}}, {"uniqueid": "MTK0768:3LRKMWOKB6O8EZUGSFGALIG6HUJZ2N", "current_trial": 210, "dateTime": 1512752781554, "trialdata": {"rt": -1000, "stimulus": "/static/audio/wordpool/GYMNAST.wav", "key_press": -1, "type": "PRES_AUD", "word": "gymnast", "wordID": 674, "conditions": [24, 800, "a", 24000], "trial": 5, "serialpos": 1, "trial_type": "single-audio", "trial_index": 210, "time_elapsed": 939890, "internal_node_id": "0.0-156.0"}}, {"uniqueid": "MTK0768:3LRKMWOKB6O8EZUGSFGALIG6HUJZ2N", "current_trial": 211, "dateTime": 1512752783454, "trialdata": {"rt": -1000, "stimulus": "/static/audio/wordpool/SWIMMER.wav", "key_press": -1, "type": "PRES_AUD", "word": "swimmer", "wordID": 1419, "conditions": [24, 800, "a", 24000], "trial": 5, "serialpos": 2, "trial_type": "single-audio", "trial_index": 211, "time_elapsed": 941790, "internal_node_id": "0.0-157.0"}}, {"uniqueid": "MTK0768:3LRKMWOKB6O8EZUGSFGALIG6HUJZ2N", "current_trial": 212, "dateTime": 1512752785231, "trialdata": {"rt": -1000, "stimulus": "/static/audio/wordpool/DASHBOARD.wav", "key_press": -1, "type": "PRES_AUD", "word": "dashboard", "wordID": 440, "conditions": [24, 800, "a", 24000], "trial": 5, "serialpos": 3, "trial_type": "single-audio", "trial_index": 212, "time_elapsed": 943567, "internal_node_id": "0.0-158.0"}}, {"uniqueid": "MTK0768:3LRKMWOKB6O8EZUGSFGALIG6HUJZ2N", "current_trial": 213, "dateTime": 1512752786904, "trialdata": {"rt": -1000, "stimulus": "/static/audio/wordpool/PICNIC.wav", "key_press": -1, "type": "PRES_AUD", "word": "picnic", "wordID": 1059, "conditions": [24, 800, "a", 24000], "trial": 5, "serialpos": 4, "trial_type": "single-audio", "trial_index": 213, "time_elapsed": 945240, "internal_node_id": "0.0-159.0"}}, {"uniqueid": "MTK0768:3LRKMWOKB6O8EZUGSFGALIG6HUJZ2N", "current_trial": 214, "dateTime": 1512752788679, "trialdata": {"rt": -1000, "stimulus": "/static/audio/wordpool/OINTMENT.wav", "key_press": -1, "type": "PRES_AUD", "word": "ointment", "wordID": 973, "conditions": [24, 800, "a", 24000], "trial": 5, "serialpos": 5, "trial_type": "single-audio", "trial_index": 214, "time_elapsed": 947015, "internal_node_id": "0.0-160.0"}}, {"uniqueid": "MTK0768:3LRKMWOKB6O8EZUGSFGALIG6HUJZ2N", "current_trial": 215, "dateTime": 1512752790507, "trialdata": {"rt": -1000, "stimulus": "/static/audio/wordpool/VELVET.wav", "key_press": -1, "type": "PRES_AUD", "word": "velvet", "wordID": 1554, "conditions": [24, 800, "a", 24000], "trial": 5, "serialpos": 6, "trial_type": "single-audio", "trial_index": 215, "time_elapsed": 948843, "internal_node_id": "0.0-161.0"}}, {"uniqueid": "MTK0768:3LRKMWOKB6O8EZUGSFGALIG6HUJZ2N", "current_trial": 216, "dateTime": 1512752792384, "trialdata": {"rt": -1000, "stimulus": "/static/audio/wordpool/COCOON.wav", "key_press": -1, "type": "PRES_AUD", "word": "cocoon", "wordID": 338, "conditions": [24, 800, "a", 24000], "trial": 5, "serialpos": 7, "trial_type": "single-audio", "trial_index": 216, "time_elapsed": 950720, "internal_node_id": "0.0-162.0"}}, {"uniqueid": "MTK0768:3LRKMWOKB6O8EZUGSFGALIG6HUJZ2N", "current_trial": 217, "dateTime": 1512752794285, "trialdata": {"rt": -1000, "stimulus": "/static/audio/wordpool/LAPEL.wav", "key_press": -1, "type": "PRES_AUD", "word": "lapel", "wordID": 799, "conditions": [24, 800, "a", 24000], "trial": 5, "serialpos": 8, "trial_type": "single-audio", "trial_index": 217, "time_elapsed": 952621, "internal_node_id": "0.0-163.0"}}, {"uniqueid": "MTK0768:3LRKMWOKB6O8EZUGSFGALIG6HUJZ2N", "current_trial": 218, "dateTime": 1512752795940, "trialdata": {"rt": -1000, "stimulus": "/static/audio/wordpool/SCARF.wav", "key_press": -1, "type": "PRES_AUD", "word": "scarf", "wordID": 1245, "conditions": [24, 800, "a", 24000], "trial": 5, "serialpos": 9, "trial_type": "single-audio", "trial_index": 218, "time_elapsed": 954276, "internal_node_id": "0.0-164.0"}}, {"uniqueid": "MTK0768:3LRKMWOKB6O8EZUGSFGALIG6HUJZ2N", "current_trial": 219, "dateTime": 1512752797720, "trialdata": {"rt": -1000, "stimulus": "/static/audio/wordpool/MASK.wav", "key_press": -1, "type": "PRES_AUD", "word": "mask", "wordID": 875, "conditions": [24, 800, "a", 24000], "trial": 5, "serialpos": 10, "trial_type": "single-audio", "trial_index": 219, "time_elapsed": 956056, "internal_node_id": "0.0-165.0"}}, {"uniqueid": "MTK0768:3LRKMWOKB6O8EZUGSFGALIG6HUJZ2N", "current_trial": 220, "dateTime": 1512752799390, "trialdata": {"rt": -1000, "stimulus": "/static/audio/wordpool/EMPIRE.wav", "key_press": -1, "type": "PRES_AUD", "word": "empire", "wordID": 529, "conditions": [24, 800, "a", 24000], "trial": 5, "serialpos": 11, "trial_type": "single-audio", "trial_index": 220, "time_elapsed": 957726, "internal_node_id": "0.0-166.0"}}, {"uniqueid": "MTK0768:3LRKMWOKB6O8EZUGSFGALIG6HUJZ2N", "current_trial": 221, "dateTime": 1512752801287, "trialdata": {"rt": -1000, "stimulus": "/static/audio/wordpool/BASEMENT.wav", "key_press": -1, "type": "PRES_AUD", "word": "basement", "wordID": 93, "conditions": [24, 800, "a", 24000], "trial": 5, "serialpos": 12, "trial_type": "single-audio", "trial_index": 221, "time_elapsed": 959623, "internal_node_id": "0.0-167.0"}}, {"uniqueid": "MTK0768:3LRKMWOKB6O8EZUGSFGALIG6HUJZ2N", "current_trial": 222, "dateTime": 1512752802937, "trialdata": {"rt": -1000, "stimulus": "/static/audio/wordpool/BURGLAR.wav", "key_press": -1, "type": "PRES_AUD", "word": "burglar", "wordID": 199, "conditions": [24, 800, "a", 24000], "trial": 5, "serialpos": 13, "trial_type": "single-audio", "trial_index": 222, "time_elapsed": 961273, "internal_node_id": "0.0-168.0"}}, {"uniqueid": "MTK0768:3LRKMWOKB6O8EZUGSFGALIG6HUJZ2N", "current_trial": 223, "dateTime": 1512752804895, "trialdata": {"rt": -1000, "stimulus": "/static/audio/wordpool/ROBBER.wav", "key_press": -1, "type": "PRES_AUD", "word": "robber", "wordID": 1196, "conditions": [24, 800, "a", 24000], "trial": 5, "serialpos": 14, "trial_type": "single-audio", "trial_index": 223, "time_elapsed": 963231, "internal_node_id": "0.0-169.0"}}, {"uniqueid": "MTK0768:3LRKMWOKB6O8EZUGSFGALIG6HUJZ2N", "current_trial": 224, "dateTime": 1512752806560, "trialdata": {"rt": -1000, "stimulus": "/static/audio/wordpool/ACTOR.wav", "key_press": -1, "type": "PRES_AUD", "word": "actor", "wordID": 4, "conditions": [24, 800, "a", 24000], "trial": 5, "serialpos": 15, "trial_type": "single-audio", "trial_index": 224, "time_elapsed": 964896, "internal_node_id": "0.0-170.0"}}, {"uniqueid": "MTK0768:3LRKMWOKB6O8EZUGSFGALIG6HUJZ2N", "current_trial": 225, "dateTime": 1512752808480, "trialdata": {"rt": -1000, "stimulus": "/static/audio/wordpool/PARSLEY.wav", "key_press": -1, "type": "PRES_AUD", "word": "parsley", "wordID": 1015, "conditions": [24, 800, "a", 24000], "trial": 5, "serialpos": 16, "trial_type": "single-audio", "trial_index": 225, "time_elapsed": 966816, "internal_node_id": "0.0-171.0"}}, {"uniqueid": "MTK0768:3LRKMWOKB6O8EZUGSFGALIG6HUJZ2N", "current_trial": 226, "dateTime": 1512752810476, "trialdata": {"rt": -1000, "stimulus": "/static/audio/wordpool/MISTER.wav", "key_press": -1, "type": "PRES_AUD", "word": "mister", "wordID": 900, "conditions": [24, 800, "a", 24000], "trial": 5, "serialpos": 17, "trial_type": "single-audio", "trial_index": 226, "time_elapsed": 968812, "internal_node_id": "0.0-172.0"}}, {"uniqueid": "MTK0768:3LRKMWOKB6O8EZUGSFGALIG6HUJZ2N", "current_trial": 227, "dateTime": 1512752812120, "trialdata": {"rt": -1000, "stimulus": "/static/audio/wordpool/SALAD.wav", "key_press": -1, "type": "PRES_AUD", "word": "salad", "wordID": 1223, "conditions": [24, 800, "a", 24000], "trial": 5, "serialpos": 18, "trial_type": "single-audio", "trial_index": 227, "time_elapsed": 970456, "internal_node_id": "0.0-173.0"}}, {"uniqueid": "MTK0768:3LRKMWOKB6O8EZUGSFGALIG6HUJZ2N", "current_trial": 228, "dateTime": 1512752813983, "trialdata": {"rt": -1000, "stimulus": "/static/audio/wordpool/BANQUET.wav", "key_press": -1, "type": "PRES_AUD", "word": "banquet", "wordID": 85, "conditions": [24, 800, "a", 24000], "trial": 5, "serialpos": 19, "trial_type": "single-audio", "trial_index": 228, "time_elapsed": 972319, "internal_node_id": "0.0-174.0"}}, {"uniqueid": "MTK0768:3LRKMWOKB6O8EZUGSFGALIG6HUJZ2N", "current_trial": 229, "dateTime": 1512752815733, "trialdata": {"rt": -1000, "stimulus": "/static/audio/wordpool/AIRPORT.wav", "key_press": -1, "type": "PRES_AUD", "word": "airport", "wordID": 12, "conditions": [24, 800, "a", 24000], "trial": 5, "serialpos": 20, "trial_type": "single-audio", "trial_index": 229, "time_elapsed": 974069, "internal_node_id": "0.0-175.0"}}, {"uniqueid": "MTK0768:3LRKMWOKB6O8EZUGSFGALIG6HUJZ2N", "current_trial": 230, "dateTime": 1512752817523, "trialdata": {"rt": -1000, "stimulus": "/static/audio/wordpool/DOUGHNUT.wav", "key_press": -1, "type": "PRES_AUD", "word": "doughnut", "wordID": 489, "conditions": [24, 800, "a", 24000], "trial": 5, "serialpos": 21, "trial_type": "single-audio", "trial_index": 230, "time_elapsed": 975859, "internal_node_id": "0.0-176.0"}}, {"uniqueid": "MTK0768:3LRKMWOKB6O8EZUGSFGALIG6HUJZ2N", "current_trial": 231, "dateTime": 1512752819432, "trialdata": {"rt": -1000, "stimulus": "/static/audio/wordpool/ONION.wav", "key_press": -1, "type": "PRES_AUD", "word": "onion", "wordID": 976, "conditions": [24, 800, "a", 24000], "trial": 5, "serialpos": 22, "trial_type": "single-audio", "trial_index": 231, "time_elapsed": 977768, "internal_node_id": "0.0-177.0"}}, {"uniqueid": "MTK0768:3LRKMWOKB6O8EZUGSFGALIG6HUJZ2N", "current_trial": 232, "dateTime": 1512752821309, "trialdata": {"rt": -1000, "stimulus": "/static/audio/wordpool/GLASS.wav", "key_press": -1, "type": "PRES_AUD", "word": "glass", "wordID": 638, "conditions": [24, 800, "a", 24000], "trial": 5, "serialpos": 23, "trial_type": "single-audio", "trial_index": 232, "time_elapsed": 979645, "internal_node_id": "0.0-178.0"}}, {"uniqueid": "MTK0768:3LRKMWOKB6O8EZUGSFGALIG6HUJZ2N", "current_trial": 233, "dateTime": 1512752822589, "trialdata": {"rt": -1, "stimulus": "", "key_press": -1, "type": "PRE_RECALL_DELAY", "trial_type": "single-stim", "trial_index": 233, "time_elapsed": 980925, "internal_node_id": "0.0-179.0-0.0"}}, {"uniqueid": "MTK0768:3LRKMWOKB6O8EZUGSFGALIG6HUJZ2N", "current_trial": 234, "dateTime": 1512752823097, "trialdata": {"rt": -1000, "stimulus": "/static/audio/400Hz.wav", "key_press": -1, "type": "PRE_RECALL_ALERT", "trial_type": "single-audio", "trial_index": 234, "time_elapsed": 981433, "internal_node_id": "0.0-180.0"}}, {"uniqueid": "MTK0768:3LRKMWOKB6O8EZUGSFGALIG6HUJZ2N", "current_trial": 235, "dateTime": 1512752883099, "trialdata": {"rt": [4389, 8785, 11342, 15142, 17130, 24855, 28784, 31674, 34818, 39874, 46265, 52121], "recwords": ["onion", "doughnut", "glass", "lapel", "mister", "parsley", "basement", "velvet", "ointment", "picnic", "plaid", "cocoon"], "type": "FREE_RECALL", "conditions": [24, 800, "a", 24000], "trial": 5, "trial_type": "free-recall", "trial_index": 235, "time_elapsed": 1041432, "internal_node_id": "0.0-181.0-0.0"}}, {"uniqueid": "MTK0768:3LRKMWOKB6O8EZUGSFGALIG6HUJZ2N", "current_trial": 236, "dateTime": 1512752886618, "trialdata": {"rt": 1519, "key_press": 13, "type": "INSTRUCTIONS", "trial_type": "text", "trial_index": 236, "time_elapsed": 1044954, "internal_node_id": "0.0-182.0"}}, {"uniqueid": "MTK0768:3LRKMWOKB6O8EZUGSFGALIG6HUJZ2N", "current_trial": 237, "dateTime": 1512752900621, "trialdata": {"rt": [8294, 11958], "responses": ["21", "22"], "num1": [9, 4, 4], "num2": [4, 9, 2], "num3": [8, 9, 7], "type": "DISTRACTOR", "conditions": [12, 800, "a", 12000], "trial": 6, "trial_type": "math-distractor", "trial_index": 237, "time_elapsed": 1058956, "internal_node_id": "0.0-183.0"}}, {"uniqueid": "MTK0768:3LRKMWOKB6O8EZUGSFGALIG6HUJZ2N", "current_trial": 238, "dateTime": 1512752903621, "trialdata": {"rt": -1, "stimulus": "<p id=\"stim\">10</p>", "key_press": -1, "trial_type": "single-stim", "trial_index": 238, "time_elapsed": 1061957, "internal_node_id": "0.0-184.0-0.0"}}, {"uniqueid": "MTK0768:3LRKMWOKB6O8EZUGSFGALIG6HUJZ2N", "current_trial": 239, "dateTime": 1512752904621, "trialdata": {"rt": -1, "stimulus": "<p id=\"stim\">9</p>", "key_press": -1, "trial_type": "single-stim", "trial_index": 239, "time_elapsed": 1062957, "internal_node_id": "0.0-184.0-1.0"}}, {"uniqueid": "MTK0768:3LRKMWOKB6O8EZUGSFGALIG6HUJZ2N", "current_trial": 240, "dateTime": 1512752905621, "trialdata": {"rt": -1, "stimulus": "<p id=\"stim\">8</p>", "key_press": -1, "trial_type": "single-stim", "trial_index": 240, "time_elapsed": 1063957, "internal_node_id": "0.0-184.0-2.0"}}, {"uniqueid": "MTK0768:3LRKMWOKB6O8EZUGSFGALIG6HUJZ2N", "current_trial": 241, "dateTime": 1512752906621, "trialdata": {"rt": -1, "stimulus": "<p id=\"stim\">7</p>", "key_press": -1, "trial_type": "single-stim", "trial_index": 241, "time_elapsed": 1064957, "internal_node_id": "0.0-184.0-3.0"}}, {"uniqueid": "MTK0768:3LRKMWOKB6O8EZUGSFGALIG6HUJZ2N", "current_trial": 242, "dateTime": 1512752907621, "trialdata": {"rt": -1, "stimulus": "<p id=\"stim\">6</p>", "key_press": -1, "trial_type": "single-stim", "trial_index": 242, "time_elapsed": 1065957, "internal_node_id": "0.0-184.0-4.0"}}, {"uniqueid": "MTK0768:3LRKMWOKB6O8EZUGSFGALIG6HUJZ2N", "current_trial": 243, "dateTime": 1512752908621, "trialdata": {"rt": -1, "stimulus": "<p id=\"stim\">5</p>", "key_press": -1, "trial_type": "single-stim", "trial_index": 243, "time_elapsed": 1066957, "internal_node_id": "0.0-184.0-5.0"}}, {"uniqueid": "MTK0768:3LRKMWOKB6O8EZUGSFGALIG6HUJZ2N", "current_trial": 244, "dateTime": 1512752909621, "trialdata": {"rt": -1, "stimulus": "<p id=\"stim\">4</p>", "key_press": -1, "trial_type": "single-stim", "trial_index": 244, "time_elapsed": 1067957, "internal_node_id": "0.0-184.0-6.0"}}, {"uniqueid": "MTK0768:3LRKMWOKB6O8EZUGSFGALIG6HUJZ2N", "current_trial": 245, "dateTime": 1512752910621, "trialdata": {"rt": -1, "stimulus": "<p id=\"stim\">3</p>", "key_press": -1, "trial_type": "single-stim", "trial_index": 245, "time_elapsed": 1068957, "internal_node_id": "0.0-184.0-7.0"}}, {"uniqueid": "MTK0768:3LRKMWOKB6O8EZUGSFGALIG6HUJZ2N", "current_trial": 246, "dateTime": 1512752911621, "trialdata": {"rt": -1, "stimulus": "<p id=\"stim\">2</p>", "key_press": -1, "trial_type": "single-stim", "trial_index": 246, "time_elapsed": 1069957, "internal_node_id": "0.0-184.0-8.0"}}, {"uniqueid": "MTK0768:3LRKMWOKB6O8EZUGSFGALIG6HUJZ2N", "current_trial": 247, "dateTime": 1512752912621, "trialdata": {"rt": -1, "stimulus": "<p id=\"stim\">1</p>", "key_press": -1, "trial_type": "single-stim", "trial_index": 247, "time_elapsed": 1070957, "internal_node_id": "0.0-184.0-9.0"}}, {"uniqueid": "MTK0768:3LRKMWOKB6O8EZUGSFGALIG6HUJZ2N", "current_trial": 248, "dateTime": 1512752914121, "trialdata": {"rt": -1, "stimulus": "<p id=\"stim\">+</p>", "key_press": -1, "type": "FIXATION", "trial_type": "single-stim", "trial_index": 248, "time_elapsed": 1072457, "internal_node_id": "0.0-185.0-0.0"}}, {"uniqueid": "MTK0768:3LRKMWOKB6O8EZUGSFGALIG6HUJZ2N", "current_trial": 249, "dateTime": 1512752915861, "trialdata": {"rt": -1000, "stimulus": "/static/audio/wordpool/SWORD.wav", "key_press": -1, "type": "PRES_AUD", "word": "sword", "wordID": 1422, "conditions": [12, 800, "a", 12000], "trial": 6, "serialpos": 0, "trial_type": "single-audio", "trial_index": 249, "time_elapsed": 1074197, "internal_node_id": "0.0-186.0"}}, {"uniqueid": "MTK0768:3LRKMWOKB6O8EZUGSFGALIG6HUJZ2N", "current_trial": 250, "dateTime": 1512752917541, "trialdata": {"rt": -1000, "stimulus": "/static/audio/wordpool/BADGE.wav", "key_press": -1, "type": "PRES_AUD", "word": "badge", "wordID": 67, "conditions": [12, 800, "a", 12000], "trial": 6, "serialpos": 1, "trial_type": "single-audio", "trial_index": 250, "time_elapsed": 1075877, "internal_node_id": "0.0-187.0"}}, {"uniqueid": "MTK0768:3LRKMWOKB6O8EZUGSFGALIG6HUJZ2N", "current_trial": 251, "dateTime": 1512752919501, "trialdata": {"rt": -1000, "stimulus": "/static/audio/wordpool/PERMIT.wav", "key_press": -1, "type": "PRES_AUD", "word": "permit", "wordID": 1050, "conditions": [12, 800, "a", 12000], "trial": 6, "serialpos": 2, "trial_type": "single-audio", "trial_index": 251, "time_elapsed": 1077837, "internal_node_id": "0.0-188.0"}}, {"uniqueid": "MTK0768:3LRKMWOKB6O8EZUGSFGALIG6HUJZ2N", "current_trial": 252, "dateTime": 1512752921110, "trialdata": {"rt": -1000, "stimulus": "/static/audio/wordpool/DORM.wav", "key_press": -1, "type": "PRES_AUD", "word": "dorm", "wordID": 487, "conditions": [12, 800, "a", 12000], "trial": 6, "serialpos": 3, "trial_type": "single-audio", "trial_index": 252, "time_elapsed": 1079446, "internal_node_id": "0.0-189.0"}}, {"uniqueid": "MTK0768:3LRKMWOKB6O8EZUGSFGALIG6HUJZ2N", "current_trial": 253, "dateTime": 1512752922860, "trialdata": {"rt": -1000, "stimulus": "/static/audio/wordpool/GRILL.wav", "key_press": -1, "type": "PRES_AUD", "word": "grill", "wordID": 660, "conditions": [12, 800, "a", 12000], "trial": 6, "serialpos": 4, "trial_type": "single-audio", "trial_index": 253, "time_elapsed": 1081196, "internal_node_id": "0.0-190.0"}}, {"uniqueid": "MTK0768:3LRKMWOKB6O8EZUGSFGALIG6HUJZ2N", "current_trial": 254, "dateTime": 1512752924724, "trialdata": {"rt": -1000, "stimulus": "/static/audio/wordpool/LASER.wav", "key_press": -1, "type": "PRES_AUD", "word": "laser", "wordID": 800, "conditions": [12, 800, "a", 12000], "trial": 6, "serialpos": 5, "trial_type": "single-audio", "trial_index": 254, "time_elapsed": 1083060, "internal_node_id": "0.0-191.0"}}, {"uniqueid": "MTK0768:3LRKMWOKB6O8EZUGSFGALIG6HUJZ2N", "current_trial": 255, "dateTime": 1512752926711, "trialdata": {"rt": -1000, "stimulus": "/static/audio/wordpool/COLLEGE.wav", "key_press": -1, "type": "PRES_AUD", "word": "college", "wordID": 345, "conditions": [12, 800, "a", 12000], "trial": 6, "serialpos": 6, "trial_type": "single-audio", "trial_index": 255, "time_elapsed": 1085047, "internal_node_id": "0.0-192.0"}}, {"uniqueid": "MTK0768:3LRKMWOKB6O8EZUGSFGALIG6HUJZ2N", "current_trial": 256, "dateTime": 1512752928487, "trialdata": {"rt": -1000, "stimulus": "/static/audio/wordpool/SPOON.wav", "key_press": -1, "type": "PRES_AUD", "word": "spoon", "wordID": 1356, "conditions": [12, 800, "a", 12000], "trial": 6, "serialpos": 7, "trial_type": "single-audio", "trial_index": 256, "time_elapsed": 1086823, "internal_node_id": "0.0-193.0"}}, {"uniqueid": "MTK0768:3LRKMWOKB6O8EZUGSFGALIG6HUJZ2N", "current_trial": 257, "dateTime": 1512752930187, "trialdata": {"rt": -1000, "stimulus": "/static/audio/wordpool/SANDWICH.wav", "key_press": -1, "type": "PRES_AUD", "word": "sandwich", "wordID": 1231, "conditions": [12, 800, "a", 12000], "trial": 6, "serialpos": 8, "trial_type": "single-audio", "trial_index": 257, "time_elapsed": 1088523, "internal_node_id": "0.0-194.0"}}, {"uniqueid": "MTK0768:3LRKMWOKB6O8EZUGSFGALIG6HUJZ2N", "current_trial": 258, "dateTime": 1512752931797, "trialdata": {"rt": -1000, "stimulus": "/static/audio/wordpool/SNACK.wav", "key_press": -1, "type": "PRES_AUD", "word": "snack", "wordID": 1330, "conditions": [12, 800, "a", 12000], "trial": 6, "serialpos": 9, "trial_type": "single-audio", "trial_index": 258, "time_elapsed": 1090133, "internal_node_id": "0.0-195.0"}}, {"uniqueid": "MTK0768:3LRKMWOKB6O8EZUGSFGALIG6HUJZ2N", "current_trial": 259, "dateTime": 1512752933425, "trialdata": {"rt": -1000, "stimulus": "/static/audio/wordpool/STUDENT.wav", "key_press": -1, "type": "PRES_AUD", "word": "student", "wordID": 1394, "conditions": [12, 800, "a", 12000], "trial": 6, "serialpos": 10, "trial_type": "single-audio", "trial_index": 259, "time_elapsed": 1091761, "internal_node_id": "0.0-196.0"}}, {"uniqueid": "MTK0768:3LRKMWOKB6O8EZUGSFGALIG6HUJZ2N", "current_trial": 260, "dateTime": 1512752935405, "trialdata": {"rt": -1000, "stimulus": "/static/audio/wordpool/GANGSTER.wav", "key_press": -1, "type": "PRES_AUD", "word": "gangster", "wordID": 619, "conditions": [12, 800, "a", 12000], "trial": 6, "serialpos": 11, "trial_type": "single-audio", "trial_index": 260, "time_elapsed": 1093741, "internal_node_id": "0.0-197.0"}}, {"uniqueid": "MTK0768:3LRKMWOKB6O8EZUGSFGALIG6HUJZ2N", "current_trial": 261, "dateTime": 1512752936668, "trialdata": {"rt": -1, "stimulus": "", "key_press": -1, "type": "PRE_RECALL_DELAY", "trial_type": "single-stim", "trial_index": 261, "time_elapsed": 1095004, "internal_node_id": "0.0-198.0-0.0"}}, {"uniqueid": "MTK0768:3LRKMWOKB6O8EZUGSFGALIG6HUJZ2N", "current_trial": 262, "dateTime": 1512752937168, "trialdata": {"rt": -1000, "stimulus": "/static/audio/400Hz.wav", "key_press": -1, "type": "PRE_RECALL_ALERT", "trial_type": "single-audio", "trial_index": 262, "time_elapsed": 1095504, "internal_node_id": "0.0-199.0"}}, {"uniqueid": "MTK0768:3LRKMWOKB6O8EZUGSFGALIG6HUJZ2N", "current_trial": 263, "dateTime": 1512752997172, "trialdata": {"rt": [5682, 9239, 16149, 18221, 20522, 24775, 29401, 32385, 37282, 45026], "recwords": ["student", "sandwich", "gangster", "grill", "college", "spoon", "dorm", "badge", "sword", "badge"], "type": "FREE_RECALL", "conditions": [12, 800, "a", 12000], "trial": 6, "trial_type": "free-recall", "trial_index": 263, "time_elapsed": 1155505, "internal_node_id": "0.0-200.0-0.0"}}, {"uniqueid": "MTK0768:3LRKMWOKB6O8EZUGSFGALIG6HUJZ2N", "current_trial": 264, "dateTime": 1512753000892, "trialdata": {"rt": 1720, "key_press": 13, "type": "INSTRUCTIONS", "trial_type": "text", "trial_index": 264, "time_elapsed": 1159228, "internal_node_id": "0.0-201.0"}}, {"uniqueid": "MTK0768:3LRKMWOKB6O8EZUGSFGALIG6HUJZ2N", "current_trial": 265, "dateTime": 1512753026893, "trialdata": {"rt": [2557, 4630, 6422, 8374, 11582, 14086, 15846, 18774, 21086, 23854], "responses": ["13", "19", "17", "21", "11", "14", "8", "12", "8", "16"], "num1": [2, 8, 8, 4, 4, 7, 6, 6, 4, 5, 6], "num2": [6, 4, 2, 8, 1, 5, 1, 1, 3, 8, 5], "num3": [5, 7, 7, 9, 6, 4, 1, 5, 1, 4, 9], "type": "DISTRACTOR", "conditions": [12, 800, "a", 24000], "trial": 7, "trial_type": "math-distractor", "trial_index": 265, "time_elapsed": 1185229, "internal_node_id": "0.0-202.0"}}, {"uniqueid": "MTK0768:3LRKMWOKB6O8EZUGSFGALIG6HUJZ2N", "current_trial": 266, "dateTime": 1512753029893, "trialdata": {"rt": -1, "stimulus": "<p id=\"stim\">10</p>", "key_press": -1, "trial_type": "single-stim", "trial_index": 266, "time_elapsed": 1188229, "internal_node_id": "0.0-203.0-0.0"}}, {"uniqueid": "MTK0768:3LRKMWOKB6O8EZUGSFGALIG6HUJZ2N", "current_trial": 267, "dateTime": 1512753030893, "trialdata": {"rt": -1, "stimulus": "<p id=\"stim\">9</p>", "key_press": -1, "trial_type": "single-stim", "trial_index": 267, "time_elapsed": 1189229, "internal_node_id": "0.0-203.0-1.0"}}, {"uniqueid": "MTK0768:3LRKMWOKB6O8EZUGSFGALIG6HUJZ2