{"condition": 0, "counterbalance": 826, "assignmentId": "39KFRKBFIO2MGG9GJRCOEOA79YHYOQ", "workerId": "MTK0243", "hitId": "3HYV4299H03J2Z7FM76WLFW7ZY78ER", "currenttrial": 626, "bonus": 0, "data": [{"uniqueid": "MTK0243:39KFRKBFIO2MGG9GJRCOEOA79YHYOQ", "current_trial": 0, "dateTime": 1510678394821, "trialdata": {"rt": 2174, "key_press": 76, "type": "INSTRUCTIONS", "trial_type": "text", "trial_index": 0, "time_elapsed": 2177, "internal_node_id": "0.0-0.0"}}, {"uniqueid": "MTK0243:39KFRKBFIO2MGG9GJRCOEOA79YHYOQ", "current_trial": 1, "dateTime": 1510678401453, "trialdata": {"rt": 6626, "key_press": 68, "type": "INSTRUCTIONS", "trial_type": "text", "trial_index": 1, "time_elapsed": 8809, "internal_node_id": "0.0-1.0"}}, {"uniqueid": "MTK0243:39KFRKBFIO2MGG9GJRCOEOA79YHYOQ", "current_trial": 2, "dateTime": 1510678405227, "trialdata": {"rt": [3729], "responses": ["ocean"], "type": "AUDIO_TEST", "trial_type": "audio-test", "trial_index": 2, "time_elapsed": 12584, "internal_node_id": "0.0-2.0"}}, {"uniqueid": "MTK0243:39KFRKBFIO2MGG9GJRCOEOA79YHYOQ", "current_trial": 3, "dateTime": 1510678408003, "trialdata": {"rt": [2766], "responses": ["crystal"], "type": "AUDIO_TEST", "trial_type": "audio-test", "trial_index": 3, "time_elapsed": 15360, "internal_node_id": "0.0-3.0"}}, {"uniqueid": "MTK0243:39KFRKBFIO2MGG9GJRCOEOA79YHYOQ", "current_trial": 4, "dateTime": 1510678410278, "trialdata": {"rt": [2266], "responses": ["spice"], "type": "AUDIO_TEST", "trial_type": "audio-test", "trial_index": 4, "time_elapsed": 17635, "internal_node_id": "0.0-4.0"}}, {"uniqueid": "MTK0243:39KFRKBFIO2MGG9GJRCOEOA79YHYOQ", "current_trial": 5, "dateTime": 1510678419007, "trialdata": {"rt": 7976, "responses": "{\"Q0\":\"12:00 AM\",\"Q1\":\"8:30 AM\",\"Q2\":\"5\"}", "type": "SLEEP_SURVEY", "trial_type": "survey-text", "trial_index": 5, "time_elapsed": 26364, "internal_node_id": "0.0-5.0"}}, {"uniqueid": "MTK0243:39KFRKBFIO2MGG9GJRCOEOA79YHYOQ", "current_trial": 6, "dateTime": 1510678437420, "trialdata": {"rt": 17410, "key_press": 13, "type": "INSTRUCTIONS", "trial_type": "text", "trial_index": 6, "time_elapsed": 44777, "internal_node_id": "0.0-6.0"}}, {"uniqueid": "MTK0243:39KFRKBFIO2MGG9GJRCOEOA79YHYOQ", "current_trial": 7, "dateTime": 1510678443160, "trialdata": {"rt": 5238, "key_press": 13, "type": "INSTRUCTIONS", "trial_type": "text", "trial_index": 7, "time_elapsed": 50517, "internal_node_id": "0.0-7.0"}}, {"uniqueid": "MTK0243:39KFRKBFIO2MGG9GJRCOEOA79YHYOQ", "current_trial": 8, "dateTime": 1510678444776, "trialdata": {"rt": 1114, "key_press": 13, "type": "INSTRUCTIONS", "trial_type": "text", "trial_index": 8, "time_elapsed": 52133, "internal_node_id": "0.0-8.0"}}, {"uniqueid": "MTK0243:39KFRKBFIO2MGG9GJRCOEOA79YHYOQ", "current_trial": 9, "dateTime": 1510678463795, "trialdata": {"rt": [2164, 4064, 5671, 7839, 9507, 11543, 13415, 14651, 16639], "responses": ["16", "17", "18", "18", "22", "16", "17", "6", "19"], "num1": [3, 4, 5, 4, 9, 7, 3, 1, 5, 4], "num2": [5, 5, 4, 7, 9, 5, 8, 1, 6, 2], "num3": [8, 8, 9, 7, 4, 4, 6, 4, 8, 4], "type": "DISTRACTOR", "conditions": [18, 1200, "v", 18000], "trial": 0, "trial_type": "math-distractor", "trial_index": 9, "time_elapsed": 71151, "internal_node_id": "0.0-9.0"}}, {"uniqueid": "MTK0243:39KFRKBFIO2MGG9GJRCOEOA79YHYOQ", "current_trial": 10, "dateTime": 1510678466802, "trialdata": {"rt": -1, "stimulus": "<p id=\"stim\">10</p>", "key_press": -1, "trial_type": "single-stim", "trial_index": 10, "time_elapsed": 74158, "internal_node_id": "0.0-10.0-0.0"}}, {"uniqueid": "MTK0243:39KFRKBFIO2MGG9GJRCOEOA79YHYOQ", "current_trial": 11, "dateTime": 1510678467803, "trialdata": {"rt": -1, "stimulus": "<p id=\"stim\">9</p>", "key_press": -1, "trial_type": "single-stim", "trial_index": 11, "time_elapsed": 75160, "internal_node_id": "0.0-10.0-1.0"}}, {"uniqueid": "MTK0243:39KFRKBFIO2MGG9GJRCOEOA79YHYOQ", "current_trial": 12, "dateTime": 1510678468806, "trialdata": {"rt": -1, "stimulus": "<p id=\"stim\">8</p>", "key_press": -1, "trial_type": "single-stim", "trial_index": 12, "time_elapsed": 76163, "internal_node_id": "0.0-10.0-2.0"}}, {"uniqueid": "MTK0243:39KFRKBFIO2MGG9GJRCOEOA79YHYOQ", "current_trial": 13, "dateTime": 1510678469806, "trialdata": {"rt": -1, "stimulus": "<p id=\"stim\">7</p>", "key_press": -1, "trial_type": "single-stim", "trial_index": 13, "time_elapsed": 77163, "internal_node_id": "0.0-10.0-3.0"}}, {"uniqueid": "MTK0243:39KFRKBFIO2MGG9GJRCOEOA79YHYOQ", "current_trial": 14, "dateTime": 1510678470808, "trialdata": {"rt": -1, "stimulus": "<p id=\"stim\">6</p>", "key_press": -1, "trial_type": "single-stim", "trial_index": 14, "time_elapsed": 78165, "internal_node_id": "0.0-10.0-4.0"}}, {"uniqueid": "MTK0243:39KFRKBFIO2MGG9GJRCOEOA79YHYOQ", "current_trial": 15, "dateTime": 1510678471808, "trialdata": {"rt": -1, "stimulus": "<p id=\"stim\">5</p>", "key_press": -1, "trial_type": "single-stim", "trial_index": 15, "time_elapsed": 79165, "internal_node_id": "0.0-10.0-5.0"}}, {"uniqueid": "MTK0243:39KFRKBFIO2MGG9GJRCOEOA79YHYOQ", "current_trial": 16, "dateTime": 1510678472809, "trialdata": {"rt": -1, "stimulus": "<p id=\"stim\">4</p>", "key_press": -1, "trial_type": "single-stim", "trial_index": 16, "time_elapsed": 80166, "internal_node_id": "0.0-10.0-6.0"}}, {"uniqueid": "MTK0243:39KFRKBFIO2MGG9GJRCOEOA79YHYOQ", "current_trial": 17, "dateTime": 1510678473811, "trialdata": {"rt": -1, "stimulus": "<p id=\"stim\">3</p>", "key_press": -1, "trial_type": "single-stim", "trial_index": 17, "time_elapsed": 81167, "internal_node_id": "0.0-10.0-7.0"}}, {"uniqueid": "MTK0243:39KFRKBFIO2MGG9GJRCOEOA79YHYOQ", "current_trial": 18, "dateTime": 1510678474812, "trialdata": {"rt": -1, "stimulus": "<p id=\"stim\">2</p>", "key_press": -1, "trial_type": "single-stim", "trial_index": 18, "time_elapsed": 82169, "internal_node_id": "0.0-10.0-8.0"}}, {"uniqueid": "MTK0243:39KFRKBFIO2MGG9GJRCOEOA79YHYOQ", "current_trial": 19, "dateTime": 1510678475816, "trialdata": {"rt": -1, "stimulus": "<p id=\"stim\">1</p>", "key_press": -1, "trial_type": "single-stim", "trial_index": 19, "time_elapsed": 83171, "internal_node_id": "0.0-10.0-9.0"}}, {"uniqueid": "MTK0243:39KFRKBFIO2MGG9GJRCOEOA79YHYOQ", "current_trial": 20, "dateTime": 1510678477319, "trialdata": {"rt": -1, "stimulus": "<p id=\"stim\">+</p>", "key_press": -1, "type": "FIXATION", "trial_type": "single-stim", "trial_index": 20, "time_elapsed": 84676, "internal_node_id": "0.0-11.0-0.0"}}, {"uniqueid": "MTK0243:39KFRKBFIO2MGG9GJRCOEOA79YHYOQ", "current_trial": 21, "dateTime": 1510678478521, "trialdata": {"rt": -1, "stimulus": "<p id=\"stim\">BANKER</p>", "key_press": -1, "type": "PRES_VIS", "word": "banker", "wordID": 83, "conditions": [18, 1200, "v", 18000], "trial": 0, "serialpos": 0, "trial_type": "single-stim", "trial_index": 21, "time_elapsed": 85877, "internal_node_id": "0.0-12.0"}}, {"uniqueid": "MTK0243:39KFRKBFIO2MGG9GJRCOEOA79YHYOQ", "current_trial": 22, "dateTime": 1510678480745, "trialdata": {"rt": -1, "stimulus": "<p id=\"stim\">CONCERT</p>", "key_press": -1, "type": "PRES_VIS", "word": "concert", "wordID": 359, "conditions": [18, 1200, "v", 18000], "trial": 0, "serialpos": 1, "trial_type": "single-stim", "trial_index": 22, "time_elapsed": 88102, "internal_node_id": "0.0-13.0"}}, {"uniqueid": "MTK0243:39KFRKBFIO2MGG9GJRCOEOA79YHYOQ", "current_trial": 23, "dateTime": 1510678482871, "trialdata": {"rt": -1, "stimulus": "<p id=\"stim\">ATLAS</p>", "key_press": -1, "type": "PRES_VIS", "word": "atlas", "wordID": 52, "conditions": [18, 1200, "v", 18000], "trial": 0, "serialpos": 2, "trial_type": "single-stim", "trial_index": 23, "time_elapsed": 90227, "internal_node_id": "0.0-14.0"}}, {"uniqueid": "MTK0243:39KFRKBFIO2MGG9GJRCOEOA79YHYOQ", "current_trial": 24, "dateTime": 1510678485030, "trialdata": {"rt": -1, "stimulus": "<p id=\"stim\">CHEMIST</p>", "key_press": -1, "type": "PRES_VIS", "word": "chemist", "wordID": 291, "conditions": [18, 1200, "v", 18000], "trial": 0, "serialpos": 3, "trial_type": "single-stim", "trial_index": 24, "time_elapsed": 92387, "internal_node_id": "0.0-15.0"}}, {"uniqueid": "MTK0243:39KFRKBFIO2MGG9GJRCOEOA79YHYOQ", "current_trial": 25, "dateTime": 1510678487283, "trialdata": {"rt": -1, "stimulus": "<p id=\"stim\">CROWN</p>", "key_press": -1, "type": "PRES_VIS", "word": "crown", "wordID": 414, "conditions": [18, 1200, "v", 18000], "trial": 0, "serialpos": 4, "trial_type": "single-stim", "trial_index": 25, "time_elapsed": 94640, "internal_node_id": "0.0-16.0"}}, {"uniqueid": "MTK0243:39KFRKBFIO2MGG9GJRCOEOA79YHYOQ", "current_trial": 26, "dateTime": 1510678489561, "trialdata": {"rt": -1, "stimulus": "<p id=\"stim\">ONION</p>", "key_press": -1, "type": "PRES_VIS", "word": "onion", "wordID": 976, "conditions": [18, 1200, "v", 18000], "trial": 0, "serialpos": 5, "trial_type": "single-stim", "trial_index": 26, "time_elapsed": 96918, "internal_node_id": "0.0-17.0"}}, {"uniqueid": "MTK0243:39KFRKBFIO2MGG9GJRCOEOA79YHYOQ", "current_trial": 27, "dateTime": 1510678491594, "trialdata": {"rt": -1, "stimulus": "<p id=\"stim\">DONOR</p>", "key_press": -1, "type": "PRES_VIS", "word": "donor", "wordID": 484, "conditions": [18, 1200, "v", 18000], "trial": 0, "serialpos": 6, "trial_type": "single-stim", "trial_index": 27, "time_elapsed": 98950, "internal_node_id": "0.0-18.0"}}, {"uniqueid": "MTK0243:39KFRKBFIO2MGG9GJRCOEOA79YHYOQ", "current_trial": 28, "dateTime": 1510678493735, "trialdata": {"rt": -1, "stimulus": "<p id=\"stim\">MARSH</p>", "key_press": -1, "type": "PRES_VIS", "word": "marsh", "wordID": 873, "conditions": [18, 1200, "v", 18000], "trial": 0, "serialpos": 7, "trial_type": "single-stim", "trial_index": 28, "time_elapsed": 101091, "internal_node_id": "0.0-19.0"}}, {"uniqueid": "MTK0243:39KFRKBFIO2MGG9GJRCOEOA79YHYOQ", "current_trial": 29, "dateTime": 1510678495891, "trialdata": {"rt": -1, "stimulus": "<p id=\"stim\">LUGGAGE</p>", "key_press": -1, "type": "PRES_VIS", "word": "luggage", "wordID": 846, "conditions": [18, 1200, "v", 18000], "trial": 0, "serialpos": 8, "trial_type": "single-stim", "trial_index": 29, "time_elapsed": 103248, "internal_node_id": "0.0-20.0"}}, {"uniqueid": "MTK0243:39KFRKBFIO2MGG9GJRCOEOA79YHYOQ", "current_trial": 30, "dateTime": 1510678498040, "trialdata": {"rt": -1, "stimulus": "<p id=\"stim\">TREAT</p>", "key_press": -1, "type": "PRES_VIS", "word": "treat", "wordID": 1500, "conditions": [18, 1200, "v", 18000], "trial": 0, "serialpos": 9, "trial_type": "single-stim", "trial_index": 30, "time_elapsed": 105397, "internal_node_id": "0.0-21.0"}}, {"uniqueid": "MTK0243:39KFRKBFIO2MGG9GJRCOEOA79YHYOQ", "current_trial": 31, "dateTime": 1510678500382, "trialdata": {"rt": -1, "stimulus": "<p id=\"stim\">TYPIST</p>", "key_press": -1, "type": "PRES_VIS", "word": "typist", "wordID": 1531, "conditions": [18, 1200, "v", 18000], "trial": 0, "serialpos": 10, "trial_type": "single-stim", "trial_index": 31, "time_elapsed": 107739, "internal_node_id": "0.0-22.0"}}, {"uniqueid": "MTK0243:39KFRKBFIO2MGG9GJRCOEOA79YHYOQ", "current_trial": 32, "dateTime": 1510678502602, "trialdata": {"rt": -1, "stimulus": "<p id=\"stim\">CLOTHES</p>", "key_press": -1, "type": "PRES_VIS", "word": "clothes", "wordID": 326, "conditions": [18, 1200, "v", 18000], "trial": 0, "serialpos": 11, "trial_type": "single-stim", "trial_index": 32, "time_elapsed": 109958, "internal_node_id": "0.0-23.0"}}, {"uniqueid": "MTK0243:39KFRKBFIO2MGG9GJRCOEOA79YHYOQ", "current_trial": 33, "dateTime": 1510678505003, "trialdata": {"rt": -1, "stimulus": "<p id=\"stim\">FIREPLACE</p>", "key_press": -1, "type": "PRES_VIS", "word": "fireplace", "wordID": 569, "conditions": [18, 1200, "v", 18000], "trial": 0, "serialpos": 12, "trial_type": "single-stim", "trial_index": 33, "time_elapsed": 112360, "internal_node_id": "0.0-24.0"}}, {"uniqueid": "MTK0243:39KFRKBFIO2MGG9GJRCOEOA79YHYOQ", "current_trial": 34, "dateTime": 1510678507155, "trialdata": {"rt": -1, "stimulus": "<p id=\"stim\">CARROT</p>", "key_press": -1, "type": "PRES_VIS", "word": "carrot", "wordID": 248, "conditions": [18, 1200, "v", 18000], "trial": 0, "serialpos": 13, "trial_type": "single-stim", "trial_index": 34, "time_elapsed": 114512, "internal_node_id": "0.0-25.0"}}, {"uniqueid": "MTK0243:39KFRKBFIO2MGG9GJRCOEOA79YHYOQ", "current_trial": 35, "dateTime": 1510678509216, "trialdata": {"rt": -1, "stimulus": "<p id=\"stim\">ICING</p>", "key_press": -1, "type": "PRES_VIS", "word": "icing", "wordID": 731, "conditions": [18, 1200, "v", 18000], "trial": 0, "serialpos": 14, "trial_type": "single-stim", "trial_index": 35, "time_elapsed": 116573, "internal_node_id": "0.0-26.0"}}, {"uniqueid": "MTK0243:39KFRKBFIO2MGG9GJRCOEOA79YHYOQ", "current_trial": 36, "dateTime": 1510678511599, "trialdata": {"rt": -1, "stimulus": "<p id=\"stim\">CHAMPAGNE</p>", "key_press": -1, "type": "PRES_VIS", "word": "champagne", "wordID": 277, "conditions": [18, 1200, "v", 18000], "trial": 0, "serialpos": 15, "trial_type": "single-stim", "trial_index": 36, "time_elapsed": 118956, "internal_node_id": "0.0-27.0"}}, {"uniqueid": "MTK0243:39KFRKBFIO2MGG9GJRCOEOA79YHYOQ", "current_trial": 37, "dateTime": 1510678513843, "trialdata": {"rt": -1, "stimulus": "<p id=\"stim\">PIMPLE</p>", "key_press": -1, "type": "PRES_VIS", "word": "pimple", "wordID": 1070, "conditions": [18, 1200, "v", 18000], "trial": 0, "serialpos": 16, "trial_type": "single-stim", "trial_index": 37, "time_elapsed": 121200, "internal_node_id": "0.0-28.0"}}, {"uniqueid": "MTK0243:39KFRKBFIO2MGG9GJRCOEOA79YHYOQ", "current_trial": 38, "dateTime": 1510678515860, "trialdata": {"rt": -1, "stimulus": "<p id=\"stim\">PRIMATE</p>", "key_press": -1, "type": "PRES_VIS", "word": "primate", "wordID": 1122, "conditions": [18, 1200, "v", 18000], "trial": 0, "serialpos": 17, "trial_type": "single-stim", "trial_index": 38, "time_elapsed": 123216, "internal_node_id": "0.0-29.0"}}, {"uniqueid": "MTK0243:39KFRKBFIO2MGG9GJRCOEOA79YHYOQ", "current_trial": 39, "dateTime": 1510678518092, "trialdata": {"rt": -1, "stimulus": "", "key_press": -1, "type": "PRE_RECALL_DELAY", "trial_type": "single-stim", "trial_index": 39, "time_elapsed": 125449, "internal_node_id": "0.0-30.0-0.0"}}, {"uniqueid": "MTK0243:39KFRKBFIO2MGG9GJRCOEOA79YHYOQ", "current_trial": 40, "dateTime": 1510678518596, "trialdata": {"rt": -1000, "stimulus": "/static/audio/400Hz.wav", "key_press": -1, "type": "PRE_RECALL_ALERT", "trial_type": "single-audio", "trial_index": 40, "time_elapsed": 125953, "internal_node_id": "0.0-31.0"}}, {"uniqueid": "MTK0243:39KFRKBFIO2MGG9GJRCOEOA79YHYOQ", "current_trial": 41, "dateTime": 1510678578620, "trialdata": {"rt": [2144, 3047, 4879, 6735, 7463, 16654, 40393, 46589, 58964], "recwords": ["primate", "icing", "fireplace", "typist", "icing", "donor", "pimple", "", ""], "type": "FREE_RECALL", "conditions": [18, 1200, "v", 18000], "trial": 0, "trial_type": "free-recall", "trial_index": 41, "time_elapsed": 185966, "internal_node_id": "0.0-32.0-0.0"}}, {"uniqueid": "MTK0243:39KFRKBFIO2MGG9GJRCOEOA79YHYOQ", "current_trial": 42, "dateTime": 1510678585724, "trialdata": {"rt": 5102, "key_press": 13, "type": "INSTRUCTIONS", "trial_type": "text", "trial_index": 42, "time_elapsed": 193081, "internal_node_id": "0.0-33.0"}}, {"uniqueid": "MTK0243:39KFRKBFIO2MGG9GJRCOEOA79YHYOQ", "current_trial": 43, "dateTime": 1510678605737, "trialdata": {"rt": [1844, 3444, 5704, 7436, 9271, 10603, 12659, 14287, 15979, 17331], "responses": ["14", "13", "12", "9", "12", "11", "24", "17", "18", "17"], "num1": [5, 5, 2, 1, 3, 1, 8, 6, 6, 4, 1], "num2": [5, 6, 6, 4, 2, 2, 9, 2, 9, 4, 9], "num3": [4, 2, 4, 4, 7, 8, 7, 9, 3, 9, 8], "type": "DISTRACTOR", "conditions": [18, 1200, "a", 18000], "trial": 1, "trial_type": "math-distractor", "trial_index": 43, "time_elapsed": 213094, "internal_node_id": "0.0-34.0"}}, {"uniqueid": "MTK0243:39KFRKBFIO2MGG9GJRCOEOA79YHYOQ", "current_trial": 44, "dateTime": 1510678608739, "trialdata": {"rt": -1, "stimulus": "<p id=\"stim\">10</p>", "key_press": -1, "trial_type": "single-stim", "trial_index": 44, "time_elapsed": 216095, "internal_node_id": "0.0-35.0-0.0"}}, {"uniqueid": "MTK0243:39KFRKBFIO2MGG9GJRCOEOA79YHYOQ", "current_trial": 45, "dateTime": 1510678609739, "trialdata": {"rt": -1, "stimulus": "<p id=\"stim\">9</p>", "key_press": -1, "trial_type": "single-stim", "trial_index": 45, "time_elapsed": 217096, "internal_node_id": "0.0-35.0-1.0"}}, {"uniqueid": "MTK0243:39KFRKBFIO2MGG9GJRCOEOA79YHYOQ", "current_trial": 46, "dateTime": 1510678610742, "trialdata": {"rt": -1, "stimulus": "<p id=\"stim\">8</p>", "key_press": -1, "trial_type": "single-stim", "trial_index": 46, "time_elapsed": 218098, "internal_node_id": "0.0-35.0-2.0"}}, {"uniqueid": "MTK0243:39KFRKBFIO2MGG9GJRCOEOA79YHYOQ", "current_trial": 47, "dateTime": 1510678611744, "trialdata": {"rt": -1, "stimulus": "<p id=\"stim\">7</p>", "key_press": -1, "trial_type": "single-stim", "trial_index": 47, "time_elapsed": 219100, "internal_node_id": "0.0-35.0-3.0"}}, {"uniqueid": "MTK0243:39KFRKBFIO2MGG9GJRCOEOA79YHYOQ", "current_trial": 48, "dateTime": 1510678612744, "trialdata": {"rt": -1, "stimulus": "<p id=\"stim\">6</p>", "key_press": -1, "trial_type": "single-stim", "trial_index": 48, "time_elapsed": 220101, "internal_node_id": "0.0-35.0-4.0"}}, {"uniqueid": "MTK0243:39KFRKBFIO2MGG9GJRCOEOA79YHYOQ", "current_trial": 49, "dateTime": 1510678613746, "trialdata": {"rt": -1, "stimulus": "<p id=\"stim\">5</p>", "key_press": -1, "trial_type": "single-stim", "trial_index": 49, "time_elapsed": 221103, "internal_node_id": "0.0-35.0-5.0"}}, {"uniqueid": "MTK0243:39KFRKBFIO2MGG9GJRCOEOA79YHYOQ", "current_trial": 50, "dateTime": 1510678614748, "trialdata": {"rt": -1, "stimulus": "<p id=\"stim\">4</p>", "key_press": -1, "trial_type": "single-stim", "trial_index": 50, "time_elapsed": 222104, "internal_node_id": "0.0-35.0-6.0"}}, {"uniqueid": "MTK0243:39KFRKBFIO2MGG9GJRCOEOA79YHYOQ", "current_trial": 51, "dateTime": 1510678615751, "trialdata": {"rt": -1, "stimulus": "<p id=\"stim\">3</p>", "key_press": -1, "trial_type": "single-stim", "trial_index": 51, "time_elapsed": 223107, "internal_node_id": "0.0-35.0-7.0"}}, {"uniqueid": "MTK0243:39KFRKBFIO2MGG9GJRCOEOA79YHYOQ", "current_trial": 52, "dateTime": 1510678616754, "trialdata": {"rt": -1, "stimulus": "<p id=\"stim\">2</p>", "key_press": -1, "trial_type": "single-stim", "trial_index": 52, "time_elapsed": 224110, "internal_node_id": "0.0-35.0-8.0"}}, {"uniqueid": "MTK0243:39KFRKBFIO2MGG9GJRCOEOA79YHYOQ", "current_trial": 53, "dateTime": 1510678617756, "trialdata": {"rt": -1, "stimulus": "<p id=\"stim\">1</p>", "key_press": -1, "trial_type": "single-stim", "trial_index": 53, "time_elapsed": 225113, "internal_node_id": "0.0-35.0-9.0"}}, {"uniqueid": "MTK0243:39KFRKBFIO2MGG9GJRCOEOA79YHYOQ", "current_trial": 54, "dateTime": 1510678619259, "trialdata": {"rt": -1, "stimulus": "<p id=\"stim\">+</p>", "key_press": -1, "type": "FIXATION", "trial_type": "single-stim", "trial_index": 54, "time_elapsed": 226616, "internal_node_id": "0.0-36.0-0.0"}}, {"uniqueid": "MTK0243:39KFRKBFIO2MGG9GJRCOEOA79YHYOQ", "current_trial": 55, "dateTime": 1510678621561, "trialdata": {"rt": -1000, "stimulus": "/static/audio/wordpool/LIZARD.wav", "key_press": -1, "type": "PRES_AUD", "word": "lizard", "wordID": 833, "conditions": [18, 1200, "a", 18000], "trial": 1, "serialpos": 0, "trial_type": "single-audio", "trial_index": 55, "time_elapsed": 228917, "internal_node_id": "0.0-37.0"}}, {"uniqueid": "MTK0243:39KFRKBFIO2MGG9GJRCOEOA79YHYOQ", "current_trial": 56, "dateTime": 1510678623834, "trialdata": {"rt": -1000, "stimulus": "/static/audio/wordpool/STOVE.wav", "key_press": -1, "type": "PRES_AUD", "word": "stove", "wordID": 1387, "conditions": [18, 1200, "a", 18000], "trial": 1, "serialpos": 1, "trial_type": "single-audio", "trial_index": 56, "time_elapsed": 231190, "internal_node_id": "0.0-38.0"}}, {"uniqueid": "MTK0243:39KFRKBFIO2MGG9GJRCOEOA79YHYOQ", "current_trial": 57, "dateTime": 1510678626146, "trialdata": {"rt": -1000, "stimulus": "/static/audio/wordpool/MUFFIN.wav", "key_press": -1, "type": "PRES_AUD", "word": "muffin", "wordID": 928, "conditions": [18, 1200, "a", 18000], "trial": 1, "serialpos": 2, "trial_type": "single-audio", "trial_index": 57, "time_elapsed": 233502, "internal_node_id": "0.0-39.0"}}, {"uniqueid": "MTK0243:39KFRKBFIO2MGG9GJRCOEOA79YHYOQ", "current_trial": 58, "dateTime": 1510678628197, "trialdata": {"rt": -1000, "stimulus": "/static/audio/wordpool/SHELF.wav", "key_press": -1, "type": "PRES_AUD", "word": "shelf", "wordID": 1279, "conditions": [18, 1200, "a", 18000], "trial": 1, "serialpos": 3, "trial_type": "single-audio", "trial_index": 58, "time_elapsed": 235554, "internal_node_id": "0.0-40.0"}}, {"uniqueid": "MTK0243:39KFRKBFIO2MGG9GJRCOEOA79YHYOQ", "current_trial": 59, "dateTime": 1510678630438, "trialdata": {"rt": -1000, "stimulus": "/static/audio/wordpool/PREACHER.wav", "key_press": -1, "type": "PRES_AUD", "word": "preacher", "wordID": 1118, "conditions": [18, 1200, "a", 18000], "trial": 1, "serialpos": 4, "trial_type": "single-audio", "trial_index": 59, "time_elapsed": 237795, "internal_node_id": "0.0-41.0"}}, {"uniqueid": "MTK0243:39KFRKBFIO2MGG9GJRCOEOA79YHYOQ", "current_trial": 60, "dateTime": 1510678632453, "trialdata": {"rt": -1000, "stimulus": "/static/audio/wordpool/PADDING.wav", "key_press": -1, "type": "PRES_AUD", "word": "padding", "wordID": 998, "conditions": [18, 1200, "a", 18000], "trial": 1, "serialpos": 5, "trial_type": "single-audio", "trial_index": 60, "time_elapsed": 239810, "internal_node_id": "0.0-42.0"}}, {"uniqueid": "MTK0243:39KFRKBFIO2MGG9GJRCOEOA79YHYOQ", "current_trial": 61, "dateTime": 1510678634687, "trialdata": {"rt": -1000, "stimulus": "/static/audio/wordpool/COFFEE.wav", "key_press": -1, "type": "PRES_AUD", "word": "coffee", "wordID": 340, "conditions": [18, 1200, "a", 18000], "trial": 1, "serialpos": 6, "trial_type": "single-audio", "trial_index": 61, "time_elapsed": 242043, "internal_node_id": "0.0-43.0"}}, {"uniqueid": "MTK0243:39KFRKBFIO2MGG9GJRCOEOA79YHYOQ", "current_trial": 62, "dateTime": 1510678637030, "trialdata": {"rt": -1000, "stimulus": "/static/audio/wordpool/YARN.wav", "key_press": -1, "type": "PRES_AUD", "word": "yarn", "wordID": 1630, "conditions": [18, 1200, "a", 18000], "trial": 1, "serialpos": 7, "trial_type": "single-audio", "trial_index": 62, "time_elapsed": 244387, "internal_node_id": "0.0-44.0"}}, {"uniqueid": "MTK0243:39KFRKBFIO2MGG9GJRCOEOA79YHYOQ", "current_trial": 63, "dateTime": 1510678639404, "trialdata": {"rt": -1000, "stimulus": "/static/audio/wordpool/MARROW.wav", "key_press": -1, "type": "PRES_AUD", "word": "marrow", "wordID": 871, "conditions": [18, 1200, "a", 18000], "trial": 1, "serialpos": 8, "trial_type": "single-audio", "trial_index": 63, "time_elapsed": 246761, "internal_node_id": "0.0-45.0"}}, {"uniqueid": "MTK0243:39KFRKBFIO2MGG9GJRCOEOA79YHYOQ", "current_trial": 64, "dateTime": 1510678641678, "trialdata": {"rt": -1000, "stimulus": "/static/audio/wordpool/VELVET.wav", "key_press": -1, "type": "PRES_AUD", "word": "velvet", "wordID": 1554, "conditions": [18, 1200, "a", 18000], "trial": 1, "serialpos": 9, "trial_type": "single-audio", "trial_index": 64, "time_elapsed": 249035, "internal_node_id": "0.0-46.0"}}, {"uniqueid": "MTK0243:39KFRKBFIO2MGG9GJRCOEOA79YHYOQ", "current_trial": 65, "dateTime": 1510678643953, "trialdata": {"rt": -1000, "stimulus": "/static/audio/wordpool/WORKER.wav", "key_press": -1, "type": "PRES_AUD", "word": "worker", "wordID": 1620, "conditions": [18, 1200, "a", 18000], "trial": 1, "serialpos": 10, "trial_type": "single-audio", "trial_index": 65, "time_elapsed": 251310, "internal_node_id": "0.0-47.0"}}, {"uniqueid": "MTK0243:39KFRKBFIO2MGG9GJRCOEOA79YHYOQ", "current_trial": 66, "dateTime": 1510678645981, "trialdata": {"rt": -1000, "stimulus": "/static/audio/wordpool/CARRIAGE.wav", "key_press": -1, "type": "PRES_AUD", "word": "carriage", "wordID": 247, "conditions": [18, 1200, "a", 18000], "trial": 1, "serialpos": 11, "trial_type": "single-audio", "trial_index": 66, "time_elapsed": 253338, "internal_node_id": "0.0-48.0"}}, {"uniqueid": "MTK0243:39KFRKBFIO2MGG9GJRCOEOA79YHYOQ", "current_trial": 67, "dateTime": 1510678648094, "trialdata": {"rt": -1000, "stimulus": "/static/audio/wordpool/HOOK.wav", "key_press": -1, "type": "PRES_AUD", "word": "hook", "wordID": 714, "conditions": [18, 1200, "a", 18000], "trial": 1, "serialpos": 12, "trial_type": "single-audio", "trial_index": 67, "time_elapsed": 255451, "internal_node_id": "0.0-49.0"}}, {"uniqueid": "MTK0243:39KFRKBFIO2MGG9GJRCOEOA79YHYOQ", "current_trial": 68, "dateTime": 1510678650454, "trialdata": {"rt": -1000, "stimulus": "/static/audio/wordpool/SCARECROW.wav", "key_press": -1, "type": "PRES_AUD", "word": "scarecrow", "wordID": 1244, "conditions": [18, 1200, "a", 18000], "trial": 1, "serialpos": 13, "trial_type": "single-audio", "trial_index": 68, "time_elapsed": 257810, "internal_node_id": "0.0-50.0"}}, {"uniqueid": "MTK0243:39KFRKBFIO2MGG9GJRCOEOA79YHYOQ", "current_trial": 69, "dateTime": 1510678652838, "trialdata": {"rt": -1000, "stimulus": "/static/audio/wordpool/CLOUD.wav", "key_press": -1, "type": "PRES_AUD", "word": "cloud", "wordID": 327, "conditions": [18, 1200, "a", 18000], "trial": 1, "serialpos": 14, "trial_type": "single-audio", "trial_index": 69, "time_elapsed": 260195, "internal_node_id": "0.0-51.0"}}, {"uniqueid": "MTK0243:39KFRKBFIO2MGG9GJRCOEOA79YHYOQ", "current_trial": 70, "dateTime": 1510678655008, "trialdata": {"rt": -1000, "stimulus": "/static/audio/wordpool/NIGHTGOWN.wav", "key_press": -1, "type": "PRES_AUD", "word": "nightgown", "wordID": 952, "conditions": [18, 1200, "a", 18000], "trial": 1, "serialpos": 15, "trial_type": "single-audio", "trial_index": 70, "time_elapsed": 262365, "internal_node_id": "0.0-52.0"}}, {"uniqueid": "MTK0243:39KFRKBFIO2MGG9GJRCOEOA79YHYOQ", "current_trial": 71, "dateTime": 1510678657024, "trialdata": {"rt": -1000, "stimulus": "/static/audio/wordpool/INMATE.wav", "key_press": -1, "type": "PRES_AUD", "word": "inmate", "wordID": 737, "conditions": [18, 1200, "a", 18000], "trial": 1, "serialpos": 16, "trial_type": "single-audio", "trial_index": 71, "time_elapsed": 264381, "internal_node_id": "0.0-53.0"}}, {"uniqueid": "MTK0243:39KFRKBFIO2MGG9GJRCOEOA79YHYOQ", "current_trial": 72, "dateTime": 1510678659314, "trialdata": {"rt": -1000, "stimulus": "/static/audio/wordpool/ROD.wav", "key_press": -1, "type": "PRES_AUD", "word": "rod", "wordID": 1202, "conditions": [18, 1200, "a", 18000], "trial": 1, "serialpos": 17, "trial_type": "single-audio", "trial_index": 72, "time_elapsed": 266671, "internal_node_id": "0.0-54.0"}}, {"uniqueid": "MTK0243:39KFRKBFIO2MGG9GJRCOEOA79YHYOQ", "current_trial": 73, "dateTime": 1510678660662, "trialdata": {"rt": -1, "stimulus": "", "key_press": -1, "type": "PRE_RECALL_DELAY", "trial_type": "single-stim", "trial_index": 73, "time_elapsed": 268019, "internal_node_id": "0.0-55.0-0.0"}}, {"uniqueid": "MTK0243:39KFRKBFIO2MGG9GJRCOEOA79YHYOQ", "current_trial": 74, "dateTime": 1510678661163, "trialdata": {"rt": -1000, "stimulus": "/static/audio/400Hz.wav", "key_press": -1, "type": "PRE_RECALL_ALERT", "trial_type": "single-audio", "trial_index": 74, "time_elapsed": 268520, "internal_node_id": "0.0-56.0"}}, {"uniqueid": "MTK0243:39KFRKBFIO2MGG9GJRCOEOA79YHYOQ", "current_trial": 75, "dateTime": 1510678721180, "trialdata": {"rt": [1420, 2787, 4535, 8491, 10827, 11631, 48489], "recwords": ["rod", "inmate", "nightgown", "lizard", "scarecrow", "cloud", "preacher"], "type": "FREE_RECALL", "conditions": [18, 1200, "a", 18000], "trial": 1, "trial_type": "free-recall", "trial_index": 75, "time_elapsed": 328530, "internal_node_id": "0.0-57.0-0.0"}}, {"uniqueid": "MTK0243:39KFRKBFIO2MGG9GJRCOEOA79YHYOQ", "current_trial": 76, "dateTime": 1510678725127, "trialdata": {"rt": 1936, "key_press": 32, "type": "INSTRUCTIONS", "trial_type": "text", "trial_index": 76, "time_elapsed": 332474, "internal_node_id": "0.0-58.0"}}, {"uniqueid": "MTK0243:39KFRKBFIO2MGG9GJRCOEOA79YHYOQ", "current_trial": 77, "dateTime": 1510678738134, "trialdata": {"rt": [1328, 4352, 5916, 7800, 8960, 11900], "responses": ["5", "15", "15", "13", "11", "9"], "num1": [2, 5, 1, 4, 2, 3, 1], "num2": [2, 3, 7, 6, 7, 5, 2], "num3": [1, 7, 7, 3, 2, 2, 5], "type": "DISTRACTOR", "conditions": [12, 800, "a", 12000], "trial": 2, "trial_type": "math-distractor", "trial_index": 77, "time_elapsed": 345491, "internal_node_id": "0.0-59.0"}}, {"uniqueid": "MTK0243:39KFRKBFIO2MGG9GJRCOEOA79YHYOQ", "current_trial": 78, "dateTime": 1510678741135, "trialdata": {"rt": -1, "stimulus": "<p id=\"stim\">10</p>", "key_press": -1, "trial_type": "single-stim", "trial_index": 78, "time_elapsed": 348492, "internal_node_id": "0.0-60.0-0.0"}}, {"uniqueid": "MTK0243:39KFRKBFIO2MGG9GJRCOEOA79YHYOQ", "current_trial": 79, "dateTime": 1510678742137, "trialdata": {"rt": -1, "stimulus": "<p id=\"stim\">9</p>", "key_press": -1, "trial_type": "single-stim", "trial_index": 79, "time_elapsed": 349494, "internal_node_id": "0.0-60.0-1.0"}}, {"uniqueid": "MTK0243:39KFRKBFIO2MGG9GJRCOEOA79YHYOQ", "current_trial": 80, "dateTime": 1510678743139, "trialdata": {"rt": -1, "stimulus": "<p id=\"stim\">8</p>", "key_press": -1, "trial_type": "single-stim", "trial_index": 80, "time_elapsed": 350496, "internal_node_id": "0.0-60.0-2.0"}}, {"uniqueid": "MTK0243:39KFRKBFIO2MGG9GJRCOEOA79YHYOQ", "current_trial": 81, "dateTime": 1510678744141, "trialdata": {"rt": -1, "stimulus": "<p id=\"stim\">7</p>", "key_press": -1, "trial_type": "single-stim", "trial_index": 81, "time_elapsed": 351497, "internal_node_id": "0.0-60.0-3.0"}}, {"uniqueid": "MTK0243:39KFRKBFIO2MGG9GJRCOEOA79YHYOQ", "current_trial": 82, "dateTime": 1510678745142, "trialdata": {"rt": -1, "stimulus": "<p id=\"stim\">6</p>", "key_press": -1, "trial_type": "single-stim", "trial_index": 82, "time_elapsed": 352499, "internal_node_id": "0.0-60.0-4.0"}}, {"uniqueid": "MTK0243:39KFRKBFIO2MGG9GJRCOEOA79YHYOQ", "current_trial": 83, "dateTime": 1510678746144, "trialdata": {"rt": -1, "stimulus": "<p id=\"stim\">5</p>", "key_press": -1, "trial_type": "single-stim", "trial_index": 83, "time_elapsed": 353500, "internal_node_id": "0.0-60.0-5.0"}}, {"uniqueid": "MTK0243:39KFRKBFIO2MGG9GJRCOEOA79YHYOQ", "current_trial": 84, "dateTime": 1510678747145, "trialdata": {"rt": -1, "stimulus": "<p id=\"stim\">4</p>", "key_press": -1, "trial_type": "single-stim", "trial_index": 84, "time_elapsed": 354502, "internal_node_id": "0.0-60.0-6.0"}}, {"uniqueid": "MTK0243:39KFRKBFIO2MGG9GJRCOEOA79YHYOQ", "current_trial": 85, "dateTime": 1510678748146, "trialdata": {"rt": -1, "stimulus": "<p id=\"stim\">3</p>", "key_press": -1, "trial_type": "single-stim", "trial_index": 85, "time_elapsed": 355503, "internal_node_id": "0.0-60.0-7.0"}}, {"uniqueid": "MTK0243:39KFRKBFIO2MGG9GJRCOEOA79YHYOQ", "current_trial": 86, "dateTime": 1510678749148, "trialdata": {"rt": -1, "stimulus": "<p id=\"stim\">2</p>", "key_press": -1, "trial_type": "single-stim", "trial_index": 86, "time_elapsed": 356505, "internal_node_id": "0.0-60.0-8.0"}}, {"uniqueid": "MTK0243:39KFRKBFIO2MGG9GJRCOEOA79YHYOQ", "current_trial": 87, "dateTime": 1510678750150, "trialdata": {"rt": -1, "stimulus": "<p id=\"stim\">1</p>", "key_press": -1, "trial_type": "single-stim", "trial_index": 87, "time_elapsed": 357507, "internal_node_id": "0.0-60.0-9.0"}}, {"uniqueid": "MTK0243:39KFRKBFIO2MGG9GJRCOEOA79YHYOQ", "current_trial": 88, "dateTime": 1510678751651, "trialdata": {"rt": -1, "stimulus": "<p id=\"stim\">+</p>", "key_press": -1, "type": "FIXATION", "trial_type": "single-stim", "trial_index": 88, "time_elapsed": 359008, "internal_node_id": "0.0-61.0-0.0"}}, {"uniqueid": "MTK0243:39KFRKBFIO2MGG9GJRCOEOA79YHYOQ", "current_trial": 89, "dateTime": 1510678753302, "trialdata": {"rt": -1000, "stimulus": "/static/audio/wordpool/SCOTCH.wav", "key_press": -1, "type": "PRES_AUD", "word": "scotch", "wordID": 1250, "conditions": [12, 800, "a", 12000], "trial": 2, "serialpos": 0, "trial_type": "single-audio", "trial_index": 89, "time_elapsed": 360658, "internal_node_id": "0.0-62.0"}}, {"uniqueid": "MTK0243:39KFRKBFIO2MGG9GJRCOEOA79YHYOQ", "current_trial": 90, "dateTime": 1510678755180, "trialdata": {"rt": -1000, "stimulus": "/static/audio/wordpool/BRANDY.wav", "key_press": -1, "type": "PRES_AUD", "word": "brandy", "wordID": 168, "conditions": [12, 800, "a", 12000], "trial": 2, "serialpos": 1, "trial_type": "single-audio", "trial_index": 90, "time_elapsed": 362537, "internal_node_id": "0.0-63.0"}}, {"uniqueid": "MTK0243:39KFRKBFIO2MGG9GJRCOEOA79YHYOQ", "current_trial": 91, "dateTime": 1510678757154, "trialdata": {"rt": -1000, "stimulus": "/static/audio/wordpool/CITRUS.wav", "key_press": -1, "type": "PRES_AUD", "word": "citrus", "wordID": 312, "conditions": [12, 800, "a", 12000], "trial": 2, "serialpos": 2, "trial_type": "single-audio", "trial_index": 91, "time_elapsed": 364511, "internal_node_id": "0.0-64.0"}}, {"uniqueid": "MTK0243:39KFRKBFIO2MGG9GJRCOEOA79YHYOQ", "current_trial": 92, "dateTime": 1510678758888, "trialdata": {"rt": -1000, "stimulus": "/static/audio/wordpool/WHISTLE.wav", "key_press": -1, "type": "PRES_AUD", "word": "whistle", "wordID": 1605, "conditions": [12, 800, "a", 12000], "trial": 2, "serialpos": 3, "trial_type": "single-audio", "trial_index": 92, "time_elapsed": 366244, "internal_node_id": "0.0-65.0"}}, {"uniqueid": "MTK0243:39KFRKBFIO2MGG9GJRCOEOA79YHYOQ", "current_trial": 93, "dateTime": 1510678760542, "trialdata": {"rt": -1000, "stimulus": "/static/audio/wordpool/FEMALE.wav", "key_press": -1, "type": "PRES_AUD", "word": "female", "wordID": 558, "conditions": [12, 800, "a", 12000], "trial": 2, "serialpos": 4, "trial_type": "single-audio", "trial_index": 93, "time_elapsed": 367898, "internal_node_id": "0.0-66.0"}}, {"uniqueid": "MTK0243:39KFRKBFIO2MGG9GJRCOEOA79YHYOQ", "current_trial": 94, "dateTime": 1510678762427, "trialdata": {"rt": -1000, "stimulus": "/static/audio/wordpool/SHOULDER.wav", "key_press": -1, "type": "PRES_AUD", "word": "shoulder", "wordID": 1293, "conditions": [12, 800, "a", 12000], "trial": 2, "serialpos": 5, "trial_type": "single-audio", "trial_index": 94, "time_elapsed": 369784, "internal_node_id": "0.0-67.0"}}, {"uniqueid": "MTK0243:39KFRKBFIO2MGG9GJRCOEOA79YHYOQ", "current_trial": 95, "dateTime": 1510678764236, "trialdata": {"rt": -1000, "stimulus": "/static/audio/wordpool/PEANUT.wav", "key_press": -1, "type": "PRES_AUD", "word": "peanut", "wordID": 1031, "conditions": [12, 800, "a", 12000], "trial": 2, "serialpos": 6, "trial_type": "single-audio", "trial_index": 95, "time_elapsed": 371593, "internal_node_id": "0.0-68.0"}}, {"uniqueid": "MTK0243:39KFRKBFIO2MGG9GJRCOEOA79YHYOQ", "current_trial": 96, "dateTime": 1510678766233, "trialdata": {"rt": -1000, "stimulus": "/static/audio/wordpool/FRECKLE.wav", "key_press": -1, "type": "PRES_AUD", "word": "freckle", "wordID": 601, "conditions": [12, 800, "a", 12000], "trial": 2, "serialpos": 7, "trial_type": "single-audio", "trial_index": 96, "time_elapsed": 373590, "internal_node_id": "0.0-69.0"}}, {"uniqueid": "MTK0243:39KFRKBFIO2MGG9GJRCOEOA79YHYOQ", "current_trial": 97, "dateTime": 1510678768059, "trialdata": {"rt": -1000, "stimulus": "/static/audio/wordpool/CONVICT.wav", "key_press": -1, "type": "PRES_AUD", "word": "convict", "wordID": 370, "conditions": [12, 800, "a", 12000], "trial": 2, "serialpos": 8, "trial_type": "single-audio", "trial_index": 97, "time_elapsed": 375416, "internal_node_id": "0.0-70.0"}}, {"uniqueid": "MTK0243:39KFRKBFIO2MGG9GJRCOEOA79YHYOQ", "current_trial": 98, "dateTime": 1510678769746, "trialdata": {"rt": -1000, "stimulus": "/static/audio/wordpool/PECAN.wav", "key_press": -1, "type": "PRES_AUD", "word": "pecan", "wordID": 1035, "conditions": [12, 800, "a", 12000], "trial": 2, "serialpos": 9, "trial_type": "single-audio", "trial_index": 98, "time_elapsed": 377103, "internal_node_id": "0.0-71.0"}}, {"uniqueid": "MTK0243:39KFRKBFIO2MGG9GJRCOEOA79YHYOQ", "current_trial": 99, "dateTime": 1510678771450, "trialdata": {"rt": -1000, "stimulus": "/static/audio/wordpool/APRON.wav", "key_press": -1, "type": "PRES_AUD", "word": "apron", "wordID": 34, "conditions": [12, 800, "a", 12000], "trial": 2, "serialpos": 10, "trial_type": "single-audio", "trial_index": 99, "time_elapsed": 378807, "internal_node_id": "0.0-72.0"}}, {"uniqueid": "MTK0243:39KFRKBFIO2MGG9GJRCOEOA79YHYOQ", "current_trial": 100, "dateTime": 1510678773214, "trialdata": {"rt": -1000, "stimulus": "/static/audio/wordpool/WORLD.wav", "key_press": -1, "type": "PRES_AUD", "word": "world", "wordID": 1621, "conditions": [12, 800, "a", 12000], "trial": 2, "serialpos": 11, "trial_type": "single-audio", "trial_index": 100, "time_elapsed": 380570, "internal_node_id": "0.0-73.0"}}, {"uniqueid": "MTK0243:39KFRKBFIO2MGG9GJRCOEOA79YHYOQ", "current_trial": 101, "dateTime": 1510678774505, "trialdata": {"rt": -1, "stimulus": "", "key_press": -1, "type": "PRE_RECALL_DELAY", "trial_type": "single-stim", "trial_index": 101, "time_elapsed": 381862, "internal_node_id": "0.0-74.0-0.0"}}, {"uniqueid": "MTK0243:39KFRKBFIO2MGG9GJRCOEOA79YHYOQ", "current_trial": 102, "dateTime": 1510678775007, "trialdata": {"rt": -1000, "stimulus": "/static/audio/400Hz.wav", "key_press": -1, "type": "PRE_RECALL_ALERT", "trial_type": "single-audio", "trial_index": 102, "time_elapsed": 382363, "internal_node_id": "0.0-75.0"}}, {"uniqueid": "MTK0243:39KFRKBFIO2MGG9GJRCOEOA79YHYOQ", "current_trial": 103, "dateTime": 1510678835022, "trialdata": {"rt": [2661, 4105, 5661, 8465, 10016, 11464, 13120, 14448, 27892, 55330, 58022], "recwords": ["world", "apron", "pecan", "female", "shoulder", "citrus", "brandy", "scotch", "peanut", "", ""], "type": "FREE_RECALL", "conditions": [12, 800, "a", 12000], "trial": 2, "trial_type": "free-recall", "trial_index": 103, "time_elapsed": 442372, "internal_node_id": "0.0-76.0-0.0"}}, {"uniqueid": "MTK0243:39KFRKBFIO2MGG9GJRCOEOA79YHYOQ", "current_trial": 104, "dateTime": 1510678840080, "trialdata": {"rt": 3058, "key_press": 32, "type": "INSTRUCTIONS", "trial_type": "text", "trial_index": 104, "time_elapsed": 447437, "internal_node_id": "0.0-77.0"}}, {"uniqueid": "MTK0243:39KFRKBFIO2MGG9GJRCOEOA79YHYOQ", "current_trial": 105, "dateTime": 1510678854092, "trialdata": {"rt": [3154, 4145, 6236, 7972, 9832], "responses": ["12", "5", "23", "17", "22"], "num1": [2, 2, 8, 2, 9, 1], "num2": [6, 1, 6, 6, 7, 7], "num3": [4, 2, 9, 9, 6, 5], "type": "DISTRACTOR", "conditions": [12, 800, "v", 12000], "trial": 3, "trial_type": "math-distractor", "trial_index": 105, "time_elapsed": 461449, "internal_node_id": "0.0-78.0"}}, {"uniqueid": "MTK0243:39KFRKBFIO2MGG9GJRCOEOA79YHYOQ", "current_trial": 106, "dateTime": 1510678857094, "trialdata": {"rt": -1, "stimulus": "<p id=\"stim\">10</p>", "key_press": -1, "trial_type": "single-stim", "trial_index": 106, "time_elapsed": 464451, "internal_node_id": "0.0-79.0-0.0"}}, {"uniqueid": "MTK0243:39KFRKBFIO2MGG9GJRCOEOA79YHYOQ", "current_trial": 107, "dateTime": 1510678858096, "trialdata": {"rt": -1, "stimulus": "<p id=\"stim\">9</p>", "key_press": -1, "trial_type": "single-stim", "trial_index": 107, "time_elapsed": 465453, "internal_node_id": "0.0-79.0-1.0"}}, {"uniqueid": "MTK0243:39KFRKBFIO2MGG9GJRCOEOA79YHYOQ", "current_trial": 108, "dateTime": 1510678859097, "trialdata": {"rt": -1, "stimulus": "<p id=\"stim\">8</p>", "key_press": -1, "trial_type": "single-stim", "trial_index": 108, "time_elapsed": 466454, "internal_node_id": "0.0-79.0-2.0"}}, {"uniqueid": "MTK0243:39KFRKBFIO2MGG9GJRCOEOA79YHYOQ", "current_trial": 109, "dateTime": 1510678860097, "trialdata": {"rt": -1, "stimulus": "<p id=\"stim\">7</p>", "key_press": -1, "trial_type": "single-stim", "trial_index": 109, "time_elapsed": 467454, "internal_node_id": "0.0-79.0-3.0"}}, {"uniqueid": "MTK0243:39KFRKBFIO2MGG9GJRCOEOA79YHYOQ", "current_trial": 110, "dateTime": 1510678861098, "trialdata": {"rt": -1, "stimulus": "<p id=\"stim\">6</p>", "key_press": -1, "trial_type": "single-stim", "trial_index": 110, "time_elapsed": 468455, "internal_node_id": "0.0-79.0-4.0"}}, {"uniqueid": "MTK0243:39KFRKBFIO2MGG9GJRCOEOA79YHYOQ", "current_trial": 111, "dateTime": 1510678862099, "trialdata": {"rt": -1, "stimulus": "<p id=\"stim\">5</p>", "key_press": -1, "trial_type": "single-stim", "trial_index": 111, "time_elapsed": 469456, "internal_node_id": "0.0-79.0-5.0"}}, {"uniqueid": "MTK0243:39KFRKBFIO2MGG9GJRCOEOA79YHYOQ", "current_trial": 112, "dateTime": 1510678863101, "trialdata": {"rt": -1, "stimulus": "<p id=\"stim\">4</p>", "key_press": -1, "trial_type": "single-stim", "trial_index": 112, "time_elapsed": 470457, "internal_node_id": "0.0-79.0-6.0"}}, {"uniqueid": "MTK0243:39KFRKBFIO2MGG9GJRCOEOA79YHYOQ", "current_trial": 113, "dateTime": 1510678864102, "trialdata": {"rt": -1, "stimulus": "<p id=\"stim\">3</p>", "key_press": -1, "trial_type": "single-stim", "trial_index": 113, "time_elapsed": 471458, "internal_node_id": "0.0-79.0-7.0"}}, {"uniqueid": "MTK0243:39KFRKBFIO2MGG9GJRCOEOA79YHYOQ", "current_trial": 114, "dateTime": 1510678865103, "trialdata": {"rt": -1, "stimulus": "<p id=\"stim\">2</p>", "key_press": -1, "trial_type": "single-stim", "trial_index": 114, "time_elapsed": 472459, "internal_node_id": "0.0-79.0-8.0"}}, {"uniqueid": "MTK0243:39KFRKBFIO2MGG9GJRCOEOA79YHYOQ", "current_trial": 115, "dateTime": 1510678866104, "trialdata": {"rt": -1, "stimulus": "<p id=\"stim\">1</p>", "key_press": -1, "trial_type": "single-stim", "trial_index": 115, "time_elapsed": 473461, "internal_node_id": "0.0-79.0-9.0"}}, {"uniqueid": "MTK0243:39KFRKBFIO2MGG9GJRCOEOA79YHYOQ", "current_trial": 116, "dateTime": 1510678867606, "trialdata": {"rt": -1, "stimulus": "<p id=\"stim\">+</p>", "key_press": -1, "type": "FIXATION", "trial_type": "single-stim", "trial_index": 116, "time_elapsed": 474962, "internal_node_id": "0.0-80.0-0.0"}}, {"uniqueid": "MTK0243:39KFRKBFIO2MGG9GJRCOEOA79YHYOQ", "current_trial": 117, "dateTime": 1510678868407, "trialdata": {"rt": -1, "stimulus": "<p id=\"stim\">SALMON</p>", "key_press": -1, "type": "PRES_VIS", "word": "salmon", "wordID": 1226, "conditions": [12, 800, "v", 12000], "trial": 3, "serialpos": 0, "trial_type": "single-stim", "trial_index": 117, "time_elapsed": 475764, "internal_node_id": "0.0-81.0"}}, {"uniqueid": "MTK0243:39KFRKBFIO2MGG9GJRCOEOA79YHYOQ", "current_trial": 118, "dateTime": 1510678870201, "trialdata": {"rt": -1, "stimulus": "<p id=\"stim\">SLOPE</p>", "key_press": -1, "type": "PRES_VIS", "word": "slope", "wordID": 1327, "conditions": [12, 800, "v", 12000], "trial": 3, "serialpos": 1, "trial_type": "single-stim", "trial_index": 118, "time_elapsed": 477558, "internal_node_id": "0.0-82.0"}}, {"uniqueid": "MTK0243:39KFRKBFIO2MGG9GJRCOEOA79YHYOQ", "current_trial": 119, "dateTime": 1510678872154, "trialdata": {"rt": -1, "stimulus": "<p id=\"stim\">CABBAGE</p>", "key_press": -1, "type": "PRES_VIS", "word": "cabbage", "wordID": 209, "conditions": [12, 800, "v", 12000], "trial": 3, "serialpos": 2, "trial_type": "single-stim", "trial_index": 119, "time_elapsed": 479511, "internal_node_id": "0.0-83.0"}}, {"uniqueid": "MTK0243:39KFRKBFIO2MGG9GJRCOEOA79YHYOQ", "current_trial": 120, "dateTime": 1510678873841, "trialdata": {"rt": -1, "stimulus": "<p id=\"stim\">CREVICE</p>", "key_press": -1, "type": "PRES_VIS", "word": "crevice", "wordID": 404, "conditions": [12, 800, "v", 12000], "trial": 3, "serialpos": 3, "trial_type": "single-stim", "trial_index": 120, "time_elapsed": 481198, "internal_node_id": "0.0-84.0"}}, {"uniqueid": "MTK0243:39KFRKBFIO2MGG9GJRCOEOA79YHYOQ", "current_trial": 121, "dateTime": 1510678875480, "trialdata": {"rt": -1, "stimulus": "<p id=\"stim\">CRATER</p>", "key_press": -1, "type": "PRES_VIS", "word": "crater", "wordID": 399, "conditions": [12, 800, "v", 12000], "trial": 3, "serialpos": 4, "trial_type": "single-stim", "trial_index": 121, "time_elapsed": 482837, "internal_node_id": "0.0-85.0"}}, {"uniqueid": "MTK0243:39KFRKBFIO2MGG9GJRCOEOA79YHYOQ", "current_trial": 122, "dateTime": 1510678877335, "trialdata": {"rt": -1, "stimulus": "<p id=\"stim\">DUST</p>", "key_press": -1, "type": "PRES_VIS", "word": "dust", "wordID": 507, "conditions": [12, 800, "v", 12000], "trial": 3, "serialpos": 5, "trial_type": "single-stim", "trial_index": 122, "time_elapsed": 484692, "internal_node_id": "0.0-86.0"}}, {"uniqueid": "MTK0243:39KFRKBFIO2MGG9GJRCOEOA79YHYOQ", "current_trial": 123, "dateTime": 1510678879038, "trialdata": {"rt": -1, "stimulus": "<p id=\"stim\">KNIFE</p>", "key_press": -1, "type": "PRES_VIS", "word": "knife", "wordID": 784, "conditions": [12, 800, "v", 12000], "trial": 3, "serialpos": 6, "trial_type": "single-stim", "trial_index": 123, "time_elapsed": 486395, "internal_node_id": "0.0-87.0"}}, {"uniqueid": "MTK0243:39KFRKBFIO2MGG9GJRCOEOA79YHYOQ", "current_trial": 124, "dateTime": 1510678880854, "trialdata": {"rt": -1, "stimulus": "<p id=\"stim\">TERMITE</p>", "key_press": -1, "type": "PRES_VIS", "word": "termite", "wordID": 1450, "conditions": [12, 800, "v", 12000], "trial": 3, "serialpos": 7, "trial_type": "single-stim", "trial_index": 124, "time_elapsed": 488211, "internal_node_id": "0.0-88.0"}}, {"uniqueid": "MTK0243:39KFRKBFIO2MGG9GJRCOEOA79YHYOQ", "current_trial": 125, "dateTime": 1510678882473, "trialdata": {"rt": -1, "stimulus": "<p id=\"stim\">RAZOR</p>", "key_press": -1, "type": "PRES_VIS", "word": "razor", "wordID": 1170, "conditions": [12, 800, "v", 12000], "trial": 3, "serialpos": 8, "trial_type": "single-stim", "trial_index": 125, "time_elapsed": 489829, "internal_node_id": "0.0-89.0"}}, {"uniqueid": "MTK0243:39KFRKBFIO2MGG9GJRCOEOA79YHYOQ", "current_trial": 126, "dateTime": 1510678884393, "trialdata": {"rt": -1, "stimulus": "<p id=\"stim\">BLADE</p>", "key_press": -1, "type": "PRES_VIS", "word": "blade", "wordID": 133, "conditions": [12, 800, "v", 12000], "trial": 3, "serialpos": 9, "trial_type": "single-stim", "trial_index": 126, "time_elapsed": 491750, "internal_node_id": "0.0-90.0"}}, {"uniqueid": "MTK0243:39KFRKBFIO2MGG9GJRCOEOA79YHYOQ", "current_trial": 127, "dateTime": 1510678886126, "trialdata": {"rt": -1, "stimulus": "<p id=\"stim\">OYSTER</p>", "key_press": -1, "type": "PRES_VIS", "word": "oyster", "wordID": 994, "conditions": [12, 800, "v", 12000], "trial": 3, "serialpos": 10, "trial_type": "single-stim", "trial_index": 127, "time_elapsed": 493482, "internal_node_id": "0.0-91.0"}}, {"uniqueid": "MTK0243:39KFRKBFIO2MGG9GJRCOEOA79YHYOQ", "current_trial": 128, "dateTime": 1510678888093, "trialdata": {"rt": -1, "stimulus": "<p id=\"stim\">LUMBER</p>", "key_press": -1, "type": "PRES_VIS", "word": "lumber", "wordID": 847, "conditions": [12, 800, "v", 12000], "trial": 3, "serialpos": 11, "trial_type": "single-stim", "trial_index": 128, "time_elapsed": 495450, "internal_node_id": "0.0-92.0"}}, {"uniqueid": "MTK0243:39KFRKBFIO2MGG9GJRCOEOA79YHYOQ", "current_trial": 129, "dateTime": 1510678890386, "trialdata": {"rt": -1, "stimulus": "", "key_press": -1, "type": "PRE_RECALL_DELAY", "trial_type": "single-stim", "trial_index": 129, "time_elapsed": 497743, "internal_node_id": "0.0-93.0-0.0"}}, {"uniqueid": "MTK0243:39KFRKBFIO2MGG9GJRCOEOA79YHYOQ", "current_trial": 130, "dateTime": 1510678890888, "trialdata": {"rt": -1000, "stimulus": "/static/audio/400Hz.wav", "key_press": -1, "type": "PRE_RECALL_ALERT", "trial_type": "single-audio", "trial_index": 130, "time_elapsed": 498244, "internal_node_id": "0.0-94.0"}}, {"uniqueid": "MTK0243:39KFRKBFIO2MGG9GJRCOEOA79YHYOQ", "current_trial": 131, "dateTime": 1510678950899, "trialdata": {"rt": [1988, 3156, 5564, 6204, 11224, 15372], "recwords": ["oyster", "lumber", "razor", "blade", "cabbage", "salmon"], "type": "FREE_RECALL", "conditions": [12, 800, "v", 12000], "trial": 3, "trial_type": "free-recall", "trial_index": 131, "time_elapsed": 558252, "internal_node_id": "0.0-95.0-0.0"}}, {"uniqueid": "MTK0243:39KFRKBFIO2MGG9GJRCOEOA79YHYOQ", "current_trial": 132, "dateTime": 1510678971985, "trialdata": {"rt": 19086, "key_press": 32, "type": "INSTRUCTIONS", "trial_type": "text", "trial_index": 132, "time_elapsed": 579342, "internal_node_id": "0.0-96.0"}}, {"uniqueid": "MTK0243:39KFRKBFIO2MGG9GJRCOEOA79YHYOQ", "current_trial": 133, "dateTime": 1510678997996, "trialdata": {"rt": [1749, 3045, 4389, 5669, 6789, 8349, 10665, 12249, 13833, 15385, 17297, 19189, 21200, 22656], "responses": ["10", "15", "15", "6", "7", "17", "16", "6", "12", "16", "7", "16", "10", "11"], "num1": [2, 4, 8, 2, 5, 4, 4, 1, 1, 2, 2, 8, 3, 2, 5], "num2": [6, 9, 5, 3, 1, 6, 4, 3, 7, 6, 4, 4, 5, 5, 3], "num3": [2, 2, 3, 1, 1, 7, 8, 2, 4, 8, 1, 4, 2, 4, 4], "type": "DISTRACTOR", "conditions": [12, 800, "v", 24000], "trial": 4, "trial_type": "math-distractor", "trial_index": 133, "time_elapsed": 605353, "internal_node_id": "0.0-97.0"}}, {"uniqueid": "MTK0243:39KFRKBFIO2MGG9GJRCOEOA79YHYOQ", "current_trial": 134, "dateTime": 1510679000997, "trialdata": {"rt": -1, "stimulus": "<p id=\"stim\">10</p>", "key_press": -1, "trial_type": "single-stim", "trial_index": 134, "time_elapsed": 608354, "internal_node_id": "0.0-98.0-0.0"}}, {"uniqueid": "MTK0243:39KFRKBFIO2MGG9GJRCOEOA79YHYOQ", "current_trial": 135, "dateTime": 1510679001999, "trialdata": {"rt": -1, "stimulus": "<p id=\"stim\">9</p>", "key_press": -1, "trial_type": "single-stim", "trial_index": 135, "time_elapsed": 609355, "internal_node_id": "0.0-98.0-1.0"}}, {"uniqueid": "MTK0243:39KFRKBFIO2MGG9GJRCOEOA79YHYOQ", "current_trial": 136, "dateTime": 1510679003000, "trialdata": {"rt": -1, "stimulus": "<p id=\"stim\">8</p>", "key_press": -1, "trial_type": "single-stim", "trial_index": 136, "time_elapsed": 610356, "internal_node_id": "0.0-98.0-2.0"}}, {"uniqueid": "MTK0243:39KFRKBFIO2MGG9GJRCOEOA79YHYOQ", "current_trial": 137, "dateTime": 1510679004001, "trialdata": {"rt": -1, "stimulus": "<p id=\"stim\">7</p>", "key_press": -1, "trial_type": "single-stim", "trial_index": 137, "time_elapsed": 611358, "internal_node_id": "0.0-98.0-3.0"}}, {"uniqueid": "MTK0243:39KFRKBFIO2MGG9GJRCOEOA79YHYOQ", "current_trial": 138, "dateTime": 1510679005003, "trialdata": {"rt": -1, "stimulus": "<p id=\"stim\">6</p>", "key_press": -1, "trial_type": "single-stim", "trial_index": 138, "time_elapsed": 612360, "internal_node_id": "0.0-98.0-4.0"}}, {"uniqueid": "MTK0243:39KFRKBFIO2MGG9GJRCOEOA79YHYOQ", "current_trial": 139, "dateTime": 1510679006005, "trialdata": {"rt": -1, "stimulus": "<p id=\"stim\">5</p>", "key_press": -1, "trial_type": "single-stim", "trial_index": 139, "time_elapsed": 613361, "internal_node_id": "0.0-98.0-5.0"}}, {"uniqueid": "MTK0243:39KFRKBFIO2MGG9GJRCOEOA79YHYOQ", "current_trial": 140, "dateTime": 1510679007007, "trialdata": {"rt": -1, "stimulus": "<p id=\"stim\">4</p>", "key_press": -1, "trial_type": "single-stim", "trial_index": 140, "time_elapsed": 614363, "internal_node_id": "0.0-98.0-6.0"}}, {"uniqueid": "MTK0243:39KFRKBFIO2MGG9GJRCOEOA79YHYOQ", "current_trial": 141, "dateTime": 1510679008009, "trialdata": {"rt": -1, "stimulus": "<p id=\"stim\">3</p>", "key_press": -1, "trial_type": "single-stim", "trial_index": 141, "time_elapsed": 615365, "internal_node_id": "0.0-98.0-7.0"}}, {"uniqueid": "MTK0243:39KFRKBFIO2MGG9GJRCOEOA79YHYOQ", "current_trial": 142, "dateTime": 1510679009010, "trialdata": {"rt": -1, "stimulus": "<p id=\"stim\">2</p>", "key_press": -1, "trial_type": "single-stim", "trial_index": 142, "time_elapsed": 616367, "internal_node_id": "0.0-98.0-8.0"}}, {"uniqueid": "MTK0243:39KFRKBFIO2MGG9GJRCOEOA79YHYOQ", "current_trial": 143, "dateTime": 1510679010011, "trialdata": {"rt": -1, "stimulus": "<p id=\"stim\">1</p>", "key_press": -1, "trial_type": "single-stim", "trial_index": 143, "time_elapsed": 617368, "internal_node_id": "0.0-98.0-9.0"}}, {"uniqueid": "MTK0243:39KFRKBFIO2MGG9GJRCOEOA79YHYOQ", "current_trial": 144, "dateTime": 1510679011512, "trialdata": {"rt": -1, "stimulus": "<p id=\"stim\">+</p>", "key_press": -1, "type": "FIXATION", "trial_type": "single-stim", "trial_index": 144, "time_elapsed": 618868, "internal_node_id": "0.0-99.0-0.0"}}, {"uniqueid": "MTK0243:39KFRKBFIO2MGG9GJRCOEOA79YHYOQ", "current_trial": 145, "dateTime": 1510679012313, "trialdata": {"rt": -1, "stimulus": "<p id=\"stim\">TILE</p>", "key_press": -1, "type": "PRES_VIS", "word": "tile", "wordID": 1467, "conditions": [12, 800, "v", 24000], "trial": 4, "serialpos": 0, "trial_type": "single-stim", "trial_index": 145, "time_elapsed": 619670, "internal_node_id": "0.0-100.0"}}, {"uniqueid": "MTK0243:39KFRKBFIO2MGG9GJRCOEOA79YHYOQ", "current_trial": 146, "dateTime": 1510679014059, "trialdata": {"rt": -1, "stimulus": "<p id=\"stim\">PIZZA</p>", "key_press": -1, "type": "PRES_VIS", "word": "pizza", "wordID": 1078, "conditions": [12, 800, "v", 24000], "trial": 4, "serialpos": 1, "trial_type": "single-stim", "trial_index": 146, "time_elapsed": 621415, "internal_node_id": "0.0-101.0"}}, {"uniqueid": "MTK0243:39KFRKBFIO2MGG9GJRCOEOA79YHYOQ", "current_trial": 147, "dateTime": 1510679016019, "trialdata": {"rt": -1, "stimulus": "<p id=\"stim\">COUNTY</p>", "key_press": -1, "type": "PRES_VIS", "word": "county", "wordID": 388, "conditions": [12, 800, "v", 24000], "trial": 4, "serialpos": 2, "trial_type": "single-stim", "trial_index": 147, "time_elapsed": 623376, "internal_node_id": "0.0-102.0"}}, {"uniqueid": "MTK0243:39KFRKBFIO2MGG9GJRCOEOA79YHYOQ", "current_trial": 148, "dateTime": 1510679017986, "trialdata": {"rt": -1, "stimulus": "<p id=\"stim\">ELBOW</p>", "key_press": -1, "type": "PRES_VIS", "word": "elbow", "wordID": 519, "conditions": [12, 800, "v", 24000], "trial": 4, "serialpos": 3, "trial_type": "single-stim", "trial_index": 148, "time_elapsed": 625342, "internal_node_id": "0.0-103.0"}}, {"uniqueid": "MTK0243:39KFRKBFIO2MGG9GJRCOEOA79YHYOQ", "current_trial": 149, "dateTime": 1510679019780, "trialdata": {"rt": -1, "stimulus": "<p id=\"stim\">SWIMMER</p>", "key_press": -1, "type": "PRES_VIS", "word": "swimmer", "wordID": 1419, "conditions": [12, 800, "v", 24000], "trial": 4, "serialpos": 4, "trial_type": "single-stim", "trial_index": 149, "time_elapsed": 627136, "internal_node_id": "0.0-104.0"}}, {"uniqueid": "MTK0243:39KFRKBFIO2MGG9GJRCOEOA79YHYOQ", "current_trial": 150, "dateTime": 1510679021747, "trialdata": {"rt": -1, "stimulus": "<p id=\"stim\">SHORTCAKE</p>", "key_press": -1, "type": "PRES_VIS", "word": "shortcake", "wordID": 1291, "conditions": [12, 800, "v", 24000], "trial": 4, "serialpos": 5, "trial_type": "single-stim", "trial_index": 150, "time_elapsed": 629103, "internal_node_id": "0.0-105.0"}}, {"uniqueid": "MTK0243:39KFRKBFIO2MGG9GJRCOEOA79YHYOQ", "current_trial": 151, "dateTime": 1510679023609, "trialdata": {"rt": -1, "stimulus": "<p id=\"stim\">PASTRY</p>", "key_press": -1, "type": "PRES_VIS", "word": "pastry", "wordID": 1021, "conditions": [12, 800, "v", 24000], "trial": 4, "serialpos": 6, "trial_type": "single-stim", "trial_index": 151, "time_elapsed": 630966, "internal_node_id": "0.0-106.0"}}, {"uniqueid": "MTK0243:39KFRKBFIO2MGG9GJRCOEOA79YHYOQ", "current_trial": 152, "dateTime": 1510679025265, "trialdata": {"rt": -1, "stimulus": "<p id=\"stim\">OX</p>", "key_press": -1, "type": "PRES_VIS", "word": "ox", "wordID": 993, "conditions": [12, 800, "v", 24000], "trial": 4, "serialpos": 7, "trial_type": "single-stim", "trial_index": 152, "time_elapsed": 632622, "internal_node_id": "0.0-107.0"}}, {"uniqueid": "MTK0243:39KFRKBFIO2MGG9GJRCOEOA79YHYOQ", "current_trial": 153, "dateTime": 1510679027080, "trialdata": {"rt": -1, "stimulus": "<p id=\"stim\">SPARROW</p>", "key_press": -1, "type": "PRES_VIS", "word": "sparrow", "wordID": 1346, "conditions": [12, 800, "v", 24000], "trial": 4, "serialpos": 8, "trial_type": "single-stim", "trial_index": 153, "time_elapsed": 634436, "internal_node_id": "0.0-108.0"}}, {"uniqueid": "MTK0243:39KFRKBFIO2MGG9GJRCOEOA79YHYOQ", "current_trial": 154, "dateTime": 1510679029012, "trialdata": {"rt": -1, "stimulus": "<p id=\"stim\">CATCHER</p>", "key_press": -1, "type": "PRES_VIS", "word": "catcher", "wordID": 257, "conditions": [12, 800, "v", 24000], "trial": 4, "serialpos": 9, "trial_type": "single-stim", "trial_index": 154, "time_elapsed": 636368, "internal_node_id": "0.0-109.0"}}, {"uniqueid": "MTK0243:39KFRKBFIO2MGG9GJRCOEOA79YHYOQ", "current_trial": 155, "dateTime": 1510679030868, "trialdata": {"rt": -1, "stimulus": "<p id=\"stim\">LILY</p>", "key_press": -1, "type": "PRES_VIS", "word": "lily", "wordID": 820, "conditions": [12, 800, "v", 24000], "trial": 4, "serialpos": 10, "trial_type": "single-stim", "trial_index": 155, "time_elapsed": 638225, "internal_node_id": "0.0-110.0"}}, {"uniqueid": "MTK0243:39KFRKBFIO2MGG9GJRCOEOA79YHYOQ", "current_trial": 156, "dateTime": 1510679032688, "trialdata": {"rt": -1, "stimulus": "<p id=\"stim\">LEG</p>", "key_press": -1, "type": "PRES_VIS", "word": "leg", "wordID": 808, "conditions": [12, 800, "v", 24000], "trial": 4, "serialpos": 11, "trial_type": "single-stim", "trial_index": 156, "time_elapsed": 640045, "internal_node_id": "0.0-111.0"}}, {"uniqueid": "MTK0243:39KFRKBFIO2MGG9GJRCOEOA79YHYOQ", "current_trial": 157, "dateTime": 1510679035057, "trialdata": {"rt": -1, "stimulus": "", "key_press": -1, "type": "PRE_RECALL_DELAY", "trial_type": "single-stim", "trial_index": 157, "time_elapsed": 642414, "internal_node_id": "0.0-112.0-0.0"}}, {"uniqueid": "MTK0243:39KFRKBFIO2MGG9GJRCOEOA79YHYOQ", "current_trial": 158, "dateTime": 1510679035559, "trialdata": {"rt": -1000, "stimulus": "/static/audio/400Hz.wav", "key_press": -1, "type": "PRE_RECALL_ALERT", "trial_type": "single-audio", "trial_index": 158, "time_elapsed": 642916, "internal_node_id": "0.0-113.0"}}, {"uniqueid": "MTK0243:39KFRKBFIO2MGG9GJRCOEOA79YHYOQ", "current_trial": 159, "dateTime": 1510679095576, "trialdata": {"rt": [1468, 2852, 5859, 6627, 14051, 15679, 20890], "recwords": ["leg", "ox", "shortcake", "pastry", "tile", "county", "leg"], "type": "FREE_RECALL", "conditions": [12, 800, "v", 24000], "trial": 4, "trial_type": "free-recall", "trial_index": 159, "time_elapsed": 702926, "internal_node_id": "0.0-114.0-0.0"}}, {"uniqueid": "MTK0243:39KFRKBFIO2MGG9GJRCOEOA79YHYOQ", "current_trial": 160, "dateTime": 1510679099358, "trialdata": {"rt": 1778, "key_press": 32, "type": "INSTRUCTIONS", "trial_type": "text", "trial_index": 160, "time_elapsed": 706714, "internal_node_id": "0.0-115.0"}}, {"uniqueid": "MTK0243:39KFRKBFIO2MGG9GJRCOEOA79YHYOQ", "current_trial": 161, "dateTime": 1510679113364, "trialdata": {"rt": [2173, 3833, 6173, 7561, 9053, 10861, 11949], "responses": ["12", "16", "19", "15", "19", "22", "4"], "num1": [1, 6, 5, 6, 2, 6, 1, 6], "num2": [2, 1, 6, 3, 9, 8, 2, 3], "num3": [9, 9, 8, 6, 8, 8, 1, 4], "type": "DISTRACTOR", "conditions": [24, 800, "a", 12000], "trial": 5, "trial_type": "math-distractor", "trial_index": 161, "time_elapsed": 720721, "internal_node_id": "0.0-116.0"}}, {"uniqueid": "MTK0243:39KFRKBFIO2MGG9GJRCOEOA79YHYOQ", "current_trial": 162, "dateTime": 1510679116372, "trialdata": {"rt": -1, "stimulus": "<p id=\"stim\">10</p>", "key_press": -1, "trial_type": "single-stim", "trial_index": 162, "time_elapsed": 723728, "internal_node_id": "0.0-117.0-0.0"}}, {"uniqueid": "MTK0243:39KFRKBFIO2MGG9GJRCOEOA79YHYOQ", "current_trial": 163, "dateTime": 1510679117377, "trialdata": {"rt": -1, "stimulus": "<p id=\"stim\">9</p>", "key_press": -1, "trial_type": "single-stim", "trial_index": 163, "time_elapsed": 724734, "internal_node_id": "0.0-117.0-1.0"}}, {"uniqueid": "MTK0243:39KFRKBFIO2MGG9GJRCOEOA79YHYOQ", "current_trial": 164, "dateTime": 1510679118383, "trialdata": {"rt": -1, "stimulus": "<p id=\"stim\">8</p>", "key_press": -1, "trial_type": "single-stim", "trial_index": 164, "time_elapsed": 725740, "internal_node_id": "0.0-117.0-2.0"}}, {"uniqueid": "MTK0243:39KFRKBFIO2MGG9GJRCOEOA79YHYOQ", "current_trial": 165, "dateTime": 1510679119385, "trialdata": {"rt": -1, "stimulus": "<p id=\"stim\">7</p>", "key_press": -1, "trial_type": "single-stim", "trial_index": 165, "time_elapsed": 726741, "internal_node_id": "0.0-117.0-3.0"}}, {"uniqueid": "MTK0243:39KFRKBFIO2MGG9GJRCOEOA79YHYOQ", "current_trial": 166, "dateTime": 1510679120386, "trialdata": {"rt": -1, "stimulus": "<p id=\"stim\">6</p>", "key_press": -1, "trial_type": "single-stim", "trial_index": 166, "time_elapsed": 727743, "internal_node_id": "0.0-117.0-4.0"}}, {"uniqueid": "MTK0243:39KFRKBFIO2MGG9GJRCOEOA79YHYOQ", "current_trial": 167, "dateTime": 1510679121389, "trialdata": {"rt": -1, "stimulus": "<p id=\"stim\">5</p>", "key_press": -1, "trial_type": "single-stim", "trial_index": 167, "time_elapsed": 728746, "internal_node_id": "0.0-117.0-5.0"}}, {"uniqueid": "MTK0243:39KFRKBFIO2MGG9GJRCOEOA79YHYOQ", "current_trial": 168, "dateTime": 1510679122393, "trialdata": {"rt": -1, "stimulus": "<p id=\"stim\">4</p>", "key_press": -1, "trial_type": "single-stim", "trial_index": 168, "time_elapsed": 729749, "internal_node_id": "0.0-117.0-6.0"}}, {"uniqueid": "MTK0243:39KFRKBFIO2MGG9GJRCOEOA79YHYOQ", "current_trial": 169, "dateTime": 1510679123397, "trialdata": {"rt": -1, "stimulus": "<p id=\"stim\">3</p>", "key_press": -1, "trial_type": "single-stim", "trial_index": 169, "time_elapsed": 730753, "internal_node_id": "0.0-117.0-7.0"}}, {"uniqueid": "MTK0243:39KFRKBFIO2MGG9GJRCOEOA79YHYOQ", "current_trial": 170, "dateTime": 1510679124398, "trialdata": {"rt": -1, "stimulus": "<p id=\"stim\">2</p>", "key_press": -1, "trial_type": "single-stim", "trial_index": 170, "time_elapsed": 731755, "internal_node_id": "0.0-117.0-8.0"}}, {"uniqueid": "MTK0243:39KFRKBFIO2MGG9GJRCOEOA79YHYOQ", "current_trial": 171, "dateTime": 1510679125399, "trialdata": {"rt": -1, "stimulus": "<p id=\"stim\">1</p>", "key_press": -1, "trial_type": "single-stim", "trial_index": 171, "time_elapsed": 732756, "internal_node_id": "0.0-117.0-9.0"}}, {"uniqueid": "MTK0243:39KFRKBFIO2MGG9GJRCOEOA79YHYOQ", "current_trial": 172, "dateTime": 1510679126902, "trialdata": {"rt": -1, "stimulus": "<p id=\"stim\">+</p>", "key_press": -1, "type": "FIXATION", "trial_type": "single-stim", "trial_index": 172, "time_elapsed": 734258, "internal_node_id": "0.0-118.0-0.0"}}, {"uniqueid": "MTK0243:39KFRKBFIO2MGG9GJRCOEOA79YHYOQ", "current_trial": 173, "dateTime": 1510679128602, "trialdata": {"rt": -1000, "stimulus": "/static/audio/wordpool/BOUQUET.wav", "key_press": -1, "type": "PRES_AUD", "word": "bouquet", "wordID": 156, "conditions": [24, 800, "a", 12000], "trial": 5, "serialpos": 0, "trial_type": "single-audio", "trial_index": 173, "time_elapsed": 735958, "internal_node_id": "0.0-119.0"}}, {"uniqueid": "MTK0243:39KFRKBFIO2MGG9GJRCOEOA79YHYOQ", "current_trial": 174, "dateTime": 1510679130306, "trialdata": {"rt": -1000, "stimulus": "/static/audio/wordpool/REBEL.wav", "key_press": -1, "type": "PRES_AUD", "word": "rebel", "wordID": 1171, "conditions": [24, 800, "a", 12000], "trial": 5, "serialpos": 1, "trial_type": "single-audio", "trial_index": 174, "time_elapsed": 737663, "internal_node_id": "0.0-120.0"}}, {"uniqueid": "MTK0243:39KFRKBFIO2MGG9GJRCOEOA79YHYOQ", "current_trial": 175, "dateTime": 1510679132181, "trialdata": {"rt": -1000, "stimulus": "/static/audio/wordpool/CUSTARD.wav", "key_press": -1, "type": "PRES_AUD", "word": "custard", "wordID": 428, "conditions": [24, 800, "a", 12000], "trial": 5, "serialpos": 2, "trial_type": "single-audio", "trial_index": 175, "time_elapsed": 739538, "internal_node_id": "0.0-121.0"}}, {"uniqueid": "MTK0243:39KFRKBFIO2MGG9GJRCOEOA79YHYOQ", "current_trial": 176, "dateTime": 1510679133881, "trialdata": {"rt": -1000, "stimulus": "/static/audio/wordpool/STATUE.wav", "key_press": -1, "type": "PRES_AUD", "word": "statue", "wordID": 1373, "conditions": [24, 800, "a", 12000], "trial": 5, "serialpos": 3, "trial_type": "single-audio", "trial_index": 176, "time_elapsed": 741238, "internal_node_id": "0.0-122.0"}}, {"uniqueid": "MTK0243:39KFRKBFIO2MGG9GJRCOEOA79YHYOQ", "current_trial": 177, "dateTime": 1510679135509, "trialdata": {"rt": -1000, "stimulus": "/static/audio/wordpool/TOMBSTONE.wav", "key_press": -1, "type": "PRES_AUD", "word": "tombstone", "wordID": 1477, "conditions": [24, 800, "a", 12000], "trial": 5, "serialpos": 4, "trial_type": "single-audio", "trial_index": 177, "time_elapsed": 742866, "internal_node_id": "0.0-123.0"}}, {"uniqueid": "MTK0243:39KFRKBFIO2MGG9GJRCOEOA79YHYOQ", "current_trial": 178, "dateTime": 1510679137354, "trialdata": {"rt": -1000, "stimulus": "/static/audio/wordpool/MISSILE.wav", "key_press": -1, "type": "PRES_AUD", "word": "missile", "wordID": 899, "conditions": [24, 800, "a", 12000], "trial": 5, "serialpos": 5, "trial_type": "single-audio", "trial_index": 178, "time_elapsed": 744710, "internal_node_id": "0.0-124.0"}}, {"uniqueid": "MTK0243:39KFRKBFIO2MGG9GJRCOEOA79YHYOQ", "current_trial": 179, "dateTime": 1510679139193, "trialdata": {"rt": -1000, "stimulus": "/static/audio/wordpool/PROTON.wav", "key_press": -1, "type": "PRES_AUD", "word": "proton", "wordID": 1131, "conditions": [24, 800, "a", 12000], "trial": 5, "serialpos": 6, "trial_type": "single-audio", "trial_index": 179, "time_elapsed": 746550, "internal_node_id": "0.0-125.0"}}, {"uniqueid": "MTK0243:39KFRKBFIO2MGG9GJRCOEOA79YHYOQ", "current_trial": 180, "dateTime": 1510679141079, "trialdata": {"rt": -1000, "stimulus": "/static/audio/wordpool/JAPAN.wav", "key_press": -1, "type": "PRES_AUD", "word": "japan", "wordID": 748, "conditions": [24, 800, "a", 12000], "trial": 5, "serialpos": 7, "trial_type": "single-audio", "trial_index": 180, "time_elapsed": 748435, "internal_node_id": "0.0-126.0"}}, {"uniqueid": "MTK0243:39KFRKBFIO2MGG9GJRCOEOA79YHYOQ", "current_trial": 181, "dateTime": 1510679143051, "trialdata": {"rt": -1000, "stimulus": "/static/audio/wordpool/DRUG.wav", "key_press": -1, "type": "PRES_AUD", "word": "drug", "wordID": 500, "conditions": [24, 800, "a", 12000], "trial": 5, "serialpos": 8, "trial_type": "single-audio", "trial_index": 181, "time_elapsed": 750407, "internal_node_id": "0.0-127.0"}}, {"uniqueid": "MTK0243:39KFRKBFIO2MGG9GJRCOEOA79YHYOQ", "current_trial": 182, "dateTime": 1510679145053, "trialdata": {"rt": -1000, "stimulus": "/static/audio/wordpool/WIFE.wav", "key_press": -1, "type": "PRES_AUD", "word": "wife", "wordID": 1608, "conditions": [24, 800, "a", 12000], "trial": 5, "serialpos": 9, "trial_type": "single-audio", "trial_index": 182, "time_elapsed": 752409, "internal_node_id": "0.0-128.0"}}, {"uniqueid": "MTK0243:39KFRKBFIO2MGG9GJRCOEOA79YHYOQ", "current_trial": 183, "dateTime": 1510679146826, "trialdata": {"rt": -1000, "stimulus": "/static/audio/wordpool/ASIA.wav", "key_press": -1, "type": "PRES_AUD", "word": "asia", "wordID": 45, "conditions": [24, 800, "a", 12000], "trial": 5, "serialpos": 10, "trial_type": "single-audio", "trial_index": 183, "time_elapsed": 754183, "internal_node_id": "0.0-129.0"}}, {"uniqueid": "MTK0243:39KFRKBFIO2MGG9GJRCOEOA79YHYOQ", "current_trial": 184, "dateTime": 1510679148501, "trialdata": {"rt": -1000, "stimulus": "/static/audio/wordpool/POLICE.wav", "key_press": -1, "type": "PRES_AUD", "word": "police", "wordID": 1097, "conditions": [24, 800, "a", 12000], "trial": 5, "serialpos": 11, "trial_type": "single-audio", "trial_index": 184, "time_elapsed": 755857, "internal_node_id": "0.0-130.0"}}, {"uniqueid": "MTK0243:39KFRKBFIO2MGG9GJRCOEOA79YHYOQ", "current_trial": 185, "dateTime": 1510679150464, "trialdata": {"rt": -1000, "stimulus": "/static/audio/wordpool/CANYON.wav", "key_press": -1, "type": "PRES_AUD", "word": "canyon", "wordID": 234, "conditions": [24, 800, "a", 12000], "trial": 5, "serialpos": 12, "trial_type": "single-audio", "trial_index": 185, "time_elapsed": 757820, "internal_node_id": "0.0-131.0"}}, {"uniqueid": "MTK0243:39KFRKBFIO2MGG9GJRCOEOA79YHYOQ", "current_trial": 186, "dateTime": 1510679152114, "trialdata": {"rt": -1000, "stimulus": "/static/audio/wordpool/PLIERS.wav", "key_press": -1, "type": "PRES_AUD", "word": "pliers", "wordID": 1088, "conditions": [24, 800, "a", 12000], "trial": 5, "serialpos": 13, "trial_type": "single-audio", "trial_index": 186, "time_elapsed": 759470, "internal_node_id": "0.0-132.0"}}, {"uniqueid": "MTK0243:39KFRKBFIO2MGG9GJRCOEOA79YHYOQ", "current_trial": 187, "dateTime": 1510679153977, "trialdata": {"rt": -1000, "stimulus": "/static/audio/wordpool/PERMIT.wav", "key_press": -1, "type": "PRES_AUD", "word": "permit", "wordID": 1050, "conditions": [24, 800, "a", 12000], "trial": 5, "serialpos": 14, "trial_type": "single-audio", "trial_index": 187, "time_elapsed": 761334, "internal_node_id": "0.0-133.0"}}, {"uniqueid": "MTK0243:39KFRKBFIO2MGG9GJRCOEOA79YHYOQ", "current_trial": 188, "dateTime": 1510679155698, "trialdata": {"rt": -1000, "stimulus": "/static/audio/wordpool/BANK.wav", "key_press": -1, "type": "PRES_AUD", "word": "bank", "wordID": 82, "conditions": [24, 800, "a", 12000], "trial": 5, "serialpos": 15, "trial_type": "single-audio", "trial_index": 188, "time_elapsed": 763055, "internal_node_id": "0.0-134.0"}}, {"uniqueid": "MTK0243:39KFRKBFIO2MGG9GJRCOEOA79YHYOQ", "current_trial": 189, "dateTime": 1510679157579, "trialdata": {"rt": -1000, "stimulus": "/static/audio/wordpool/CABIN.wav", "key_press": -1, "type": "PRES_AUD", "word": "cabin", "wordID": 210, "conditions": [24, 800, "a", 12000], "trial": 5, "serialpos": 16, "trial_type": "single-audio", "trial_index": 189, "time_elapsed": 764936, "internal_node_id": "0.0-135.0"}}, {"uniqueid": "MTK0243:39KFRKBFIO2MGG9GJRCOEOA79YHYOQ", "current_trial": 190, "dateTime": 1510679159482, "trialdata": {"rt": -1000, "stimulus": "/static/audio/wordpool/AWARD.wav", "key_press": -1, "type": "PRES_AUD", "word": "award", "wordID": 62, "conditions": [24, 800, "a", 12000], "trial": 5, "serialpos": 17, "trial_type": "single-audio", "trial_index": 190, "time_elapsed": 766838, "internal_node_id": "0.0-136.0"}}, {"uniqueid": "MTK0243:39KFRKBFIO2MGG9GJRCOEOA79YHYOQ", "current_trial": 191, "dateTime": 1510679161109, "trialdata": {"rt": -1000, "stimulus": "/static/audio/wordpool/SEAGULL.wav", "key_press": -1, "type": "PRES_AUD", "word": "seagull", "wordID": 1260, "conditions": [24, 800, "a", 12000], "trial": 5, "serialpos": 18, "trial_type": "single-audio", "trial_index": 191, "time_elapsed": 768465, "internal_node_id": "0.0-137.0"}}, {"uniqueid": "MTK0243:39KFRKBFIO2MGG9GJRCOEOA79YHYOQ", "current_trial": 192, "dateTime": 1510679162960, "trialdata": {"rt": -1000, "stimulus": "/static/audio/wordpool/LEOPARD.wav", "key_press": -1, "type": "PRES_AUD", "word": "leopard", "wordID": 811, "conditions": [24, 800, "a", 12000], "trial": 5, "serialpos": 19, "trial_type": "single-audio", "trial_index": 192, "time_elapsed": 770316, "internal_node_id": "0.0-138.0"}}, {"uniqueid": "MTK0243:39KFRKBFIO2MGG9GJRCOEOA79YHYOQ", "current_trial": 193, "dateTime": 1510679164871, "trialdata": {"rt": -1000, "stimulus": "/static/audio/wordpool/SCISSORS.wav", "key_press": -1, "type": "PRES_AUD", "word": "scissors", "wordID": 1249, "conditions": [24, 800, "a", 12000], "trial": 5, "serialpos": 20, "trial_type": "single-audio", "trial_index": 193, "time_elapsed": 772228, "internal_node_id": "0.0-139.0"}}, {"uniqueid": "MTK0243:39KFRKBFIO2MGG9GJRCOEOA79YHYOQ", "current_trial": 194, "dateTime": 1510679166508, "trialdata": {"rt": -1000, "stimulus": "/static/audio/wordpool/PANTHER.wav", "key_press": -1, "type": "PRES_AUD", "word": "panther", "wordID": 1008, "conditions": [24, 800, "a", 12000], "trial": 5, "serialpos": 21, "trial_type": "single-audio", "trial_index": 194, "time_elapsed": 773864, "internal_node_id": "0.0-140.0"}}, {"uniqueid": "MTK0243:39KFRKBFIO2MGG9GJRCOEOA79YHYOQ", "current_trial": 195, "dateTime": 1510679168424, "trialdata": {"rt": -1000, "stimulus": "/static/audio/wordpool/POSSUM.wav", "key_press": -1, "type": "PRES_AUD", "word": "possum", "wordID": 1111, "conditions": [24, 800, "a", 12000], "trial": 5, "serialpos": 22, "trial_type": "single-audio", "trial_index": 195, "time_elapsed": 775780, "internal_node_id": "0.0-141.0"}}, {"uniqueid": "MTK0243:39KFRKBFIO2MGG9GJRCOEOA79YHYOQ", "current_trial": 196, "dateTime": 1510679170041, "trialdata": {"rt": -1000, "stimulus": "/static/audio/wordpool/ZIPPER.wav", "key_press": -1, "type": "PRES_AUD", "word": "zipper", "wordID": 1635, "conditions": [24, 800, "a", 12000], "trial": 5, "serialpos": 23, "trial_type": "single-audio", "trial_index": 196, "time_elapsed": 777398, "internal_node_id": "0.0-142.0"}}, {"uniqueid": "MTK0243:39KFRKBFIO2MGG9GJRCOEOA79YHYOQ", "current_trial": 197, "dateTime": 1510679171262, "trialdata": {"rt": -1, "stimulus": "", "key_press": -1, "type": "PRE_RECALL_DELAY", "trial_type": "single-stim", "trial_index": 197, "time_elapsed": 778618, "internal_node_id": "0.0-143.0-0.0"}}, {"uniqueid": "MTK0243:39KFRKBFIO2MGG9GJRCOEOA79YHYOQ", "current_trial": 198, "dateTime": 1510679171764, "trialdata": {"rt": -1000, "stimulus": "/static/audio/400Hz.wav", "key_press": -1, "type": "PRE_RECALL_ALERT", "trial_type": "single-audio", "trial_index": 198, "time_elapsed": 779121, "internal_node_id": "0.0-144.0"}}, {"uniqueid": "MTK0243:39KFRKBFIO2MGG9GJRCOEOA79YHYOQ", "current_trial": 199, "dateTime": 1510679231774, "trialdata": {"rt": [3087, 4322, 5830, 7830, 8942, 10961, 11689, 13621, 22457, 27249, 28424, 40064], "recwords": ["possum", "zipper", "award", "leopard", "panther", "cabin", "bank", "scissors", "japan", "missile", "proton", "asia"], "type": "FREE_RECALL", "conditions": [24, 800, "a", 12000], "trial": 5, "trial_type": "free-recall", "trial_index": 199, "time_elapsed": 839129, "internal_node_id": "0.0-145.0-0.0"}}, {"uniqueid": "MTK0243:39KFRKBFIO2MGG9GJRCOEOA79YHYOQ", "current_trial": 200, "dateTime": 1510679235419, "trialdata": {"rt": 1643, "key_press": 32, "type": "INSTRUCTIONS", "trial_type": "text", "trial_index": 200, "time_elapsed": 842776, "internal_node_id": "0.0-146.0"}}, {"uniqueid": "MTK0243:39KFRKBFIO2MGG9GJRCOEOA79YHYOQ", "current_trial": 201, "dateTime": 1510679261433, "trialdata": {"rt": [2108, 3227, 4263, 5575, 7122, 9190, 10594, 11934, 13730, 15266, 16674, 18774, 20170, 21302, 23882], "responses": ["19", "8", "12", "13", "22", "12", "16", "7", "17", "10", "18", "13", "10", "11", "23"], "num1": [4, 3, 5, 3, 8, 7, 5, 2, 7, 7, 7, 2, 1, 1, 5, 9], "num2": [9, 4, 5, 7, 8, 4, 5, 1, 8, 2, 8, 5, 5, 3, 9, 5], "num3": [6, 1, 2, 3, 7, 1, 6, 4, 2, 1, 3, 4, 3, 7, 9, 8], "type": "DISTRACTOR", "conditions": [24, 1600, "a", 24000], "trial": 6, "trial_type": "math-distractor", "trial_index": 201, "time_elapsed": 868790, "internal_node_id": "0.0-147.0"}}, {"uniqueid": "MTK0243:39KFRKBFIO2MGG9GJRCOEOA79YHYOQ", "current_trial": 202, "dateTime": 1510679264440, "trialdata": {"rt": -1, "stimulus": "<p id=\"stim\">10</p>", "key_press": -1, "trial_type": "single-stim", "trial_index": 202, "time_elapsed": 871796, "internal_node_id": "0.0-148.0-0.0"}}, {"uniqueid": "MTK0243:39KFRKBFIO2MGG9GJRCOEOA79YHYOQ", "current_trial": 203, "dateTime": 1510679265442, "trialdata": {"rt": -1, "stimulus": "<p id=\"stim\">9</p>", "key_press": -1, "trial_type": "single-stim", "trial_index": 203, "time_elapsed": 872798, "internal_node_id": "0.0-148.0-1.0"}}, {"uniqueid": "MTK0243:39KFRKBFIO2MGG9GJRCOEOA79YHYOQ", "current_trial": 204, "dateTime": 1510679266446, "trialdata": {"rt": -1, "stimulus": "<p id=\"stim\">8</p>", "key_press": -1, "trial_type": "single-stim", "trial_index": 204, "time_elapsed": 873802, "internal_node_id": "0.0-148.0-2.0"}}, {"uniqueid": "MTK0243:39KFRKBFIO2MGG9GJRCOEOA79YHYOQ", "current_trial": 205, "dateTime": 1510679267447, "trialdata": {"rt": -1, "stimulus": "<p id=\"stim\">7</p>", "key_press": -1, "trial_type": "single-stim", "trial_index": 205, "time_elapsed": 874804, "internal_node_id": "0.0-148.0-3.0"}}, {"uniqueid": "MTK0243:39KFRKBFIO2MGG9GJRCOEOA79YHYOQ", "current_trial": 206, "dateTime": 1510679268450, "trialdata": {"rt": -1, "stimulus": "<p id=\"stim\">6</p>", "key_press": -1, "trial_type": "single-stim", "trial_index": 206, "time_elapsed": 875807, "internal_node_id": "0.0-148.0-4.0"}}, {"uniqueid": "MTK0243:39KFRKBFIO2MGG9GJRCOEOA79YHYOQ", "current_trial": 207, "dateTime": 1510679269450, "trialdata": {"rt": -1, "stimulus": "<p id=\"stim\">5</p>", "key_press": -1, "trial_type": "single-stim", "trial_index": 207, "time_elapsed": 876807, "internal_node_id": "0.0-148.0-5.0"}}, {"uniqueid": "MTK0243:39KFRKBFIO2MGG9GJRCOEOA79YHYOQ", "current_trial": 208, "dateTime": 1510679270456, "trialdata": {"rt": -1, "stimulus": "<p id=\"stim\">4</p>", "key_press": -1, "trial_type": "single-stim", "trial_index": 208, "time_elapsed": 877813, "internal_node_id": "0.0-148.0-6.0"}}, {"uniqueid": "MTK0243:39KFRKBFIO2MGG9GJRCOEOA79YHYOQ", "current_trial": 209, "dateTime": 1510679271461, "trialdata": {"rt": -1, "stimulus": "<p id=\"stim\">3</p>", "key_press": -1, "trial_type": "single-stim", "trial_index": 209, "time_elapsed": 878818, "internal_node_id": "0.0-148.0-7.0"}}, {"uniqueid": "MTK0243:39KFRKBFIO2MGG9GJRCOEOA79YHYOQ", "current_trial": 210, "dateTime": 1510679272463, "trialdata": {"rt": -1, "stimulus": "<p id=\"stim\">2</p>", "key_press": -1, "trial_type": "single-stim", "trial_index": 210, "time_elapsed": 879819, "internal_node_id": "0.0-148.0-8.0"}}, {"uniqueid": "MTK0243:39KFRKBFIO2MGG9GJRCOEOA79YHYOQ", "current_trial": 211, "dateTime": 1510679273467, "trialdata": {"rt": -1, "stimulus": "<p id=\"stim\">1</p>", "key_press": -1, "trial_type": "single-stim", "trial_index": 211, "time_elapsed": 880824, "internal_node_id": "0.0-148.0-9.0"}}, {"uniqueid": "MTK0243:39KFRKBFIO2MGG9GJRCOEOA79YHYOQ", "current_trial": 212, "dateTime": 1510679274971, "trialdata": {"rt": -1, "stimulus": "<p id=\"stim\">+</p>", "key_press": -1, "type": "FIXATION", "trial_type": "single-stim", "trial_index": 212, "time_elapsed": 882327, "internal_node_id": "0.0-149.0-0.0"}}, {"uniqueid": "MTK0243:39KFRKBFIO2MGG9GJRCOEOA79YHYOQ", "current_trial": 213, "dateTime": 1510679277442, "trialdata": {"rt": -1000, "stimulus": "/static/audio/wordpool/FLOWER.wav", "key_press": -1, "type": "PRES_AUD", "word": "flower", "wordID": 583, "conditions": [24, 1600, "a", 24000], "trial": 6, "serialpos": 0, "trial_type": "single-audio", "trial_index": 213, "time_elapsed": 884799, "internal_node_id": "0.0-150.0"}}, {"uniqueid": "MTK0243:39KFRKBFIO2MGG9GJRCOEOA79YHYOQ", "current_trial": 214, "dateTime": 1510679280128, "trialdata": {"rt": -1000, "stimulus": "/static/audio/wordpool/WOMAN.wav", "key_press": -1, "type": "PRES_AUD", "word": "woman", "wordID": 1619, "conditions": [24, 1600, "a", 24000], "trial": 6, "serialpos": 1, "trial_type": "single-audio", "trial_index": 214, "time_elapsed": 887485, "internal_node_id": "0.0-151.0"}}, {"uniqueid": "MTK0243:39KFRKBFIO2MGG9GJRCOEOA79YHYOQ", "current_trial": 215, "dateTime": 1510679282690, "trialdata": {"rt": -1000, "stimulus": "/static/audio/wordpool/FARMER.wav", "key_press": -1, "type": "PRES_AUD", "word": "farmer", "wordID": 552, "conditions": [24, 1600, "a", 24000], "trial": 6, "serialpos": 2, "trial_type": "single-audio", "trial_index": 215, "time_elapsed": 890047, "internal_node_id": "0.0-152.0"}}, {"uniqueid": "MTK0243:39KFRKBFIO2MGG9GJRCOEOA79YHYOQ", "current_trial": 216, "dateTime": 1510679285461, "trialdata": {"rt": -1000, "stimulus": "/static/audio/wordpool/ORCHID.wav", "key_press": -1, "type": "PRES_AUD", "word": "orchid", "wordID": 981, "conditions": [24, 1600, "a", 24000], "trial": 6, "serialpos": 3, "trial_type": "single-audio", "trial_index": 216, "time_elapsed": 892817, "internal_node_id": "0.0-153.0"}}, {"uniqueid": "MTK0243:39KFRKBFIO2MGG9GJRCOEOA79YHYOQ", "current_trial": 217, "dateTime": 1510679287899, "trialdata": {"rt": -1000, "stimulus": "/static/audio/wordpool/OMELET.wav", "key_press": -1, "type": "PRES_AUD", "word": "omelet", "wordID": 975, "conditions": [24, 1600, "a", 24000], "trial": 6, "serialpos": 4, "trial_type": "single-audio", "trial_index": 217, "time_elapsed": 895256, "internal_node_id": "0.0-154.0"}}, {"uniqueid": "MTK0243:39KFRKBFIO2MGG9GJRCOEOA79YHYOQ", "current_trial": 218, "dateTime": 1510679290696, "trialdata": {"rt": -1000, "stimulus": "/static/audio/wordpool/TUBA.wav", "key_press": -1, "type": "PRES_AUD", "word": "tuba", "wordID": 1514, "conditions": [24, 1600, "a", 24000], "trial": 6, "serialpos": 5, "trial_type": "single-audio", "trial_index": 218, "time_elapsed": 898053, "internal_node_id": "0.0-155.0"}}, {"uniqueid": "MTK0243:39KFRKBFIO2MGG9GJRCOEOA79YHYOQ", "current_trial": 219, "dateTime": 1510679293394, "trialdata": {"rt": -1000, "stimulus": "/static/audio/wordpool/SNACK.wav", "key_press": -1, "type": "PRES_AUD", "word": "snack", "wordID": 1330, "conditions": [24, 1600, "a", 24000], "trial": 6, "serialpos": 6, "trial_type": "single-audio", "trial_index": 219, "time_elapsed": 900750, "internal_node_id": "0.0-156.0"}}, {"uniqueid": "MTK0243:39KFRKBFIO2MGG9GJRCOEOA79YHYOQ", "current_trial": 220, "dateTime": 1510679295959, "trialdata": {"rt": -1000, "stimulus": "/static/audio/wordpool/LUNCH.wav", "key_press": -1, "type": "PRES_AUD", "word": "lunch", "wordID": 848, "conditions": [24, 1600, "a", 24000], "trial": 6, "serialpos": 7, "trial_type": "single-audio", "trial_index": 220, "time_elapsed": 903316, "internal_node_id": "0.0-157.0"}}, {"uniqueid": "MTK0243:39KFRKBFIO2MGG9GJRCOEOA79YHYOQ", "current_trial": 221, "dateTime": 1510679298600, "trialdata": {"rt": -1000, "stimulus": "/static/audio/wordpool/REPORT.wav", "key_press": -1, "type": "PRES_AUD", "word": "report", "wordID": 1183, "conditions": [24, 1600, "a", 24000], "trial": 6, "serialpos": 8, "trial_type": "single-audio", "trial_index": 221, "time_elapsed": 905956, "internal_node_id": "0.0-158.0"}}, {"uniqueid": "MTK0243:39KFRKBFIO2MGG9GJRCOEOA79YHYOQ", "current_trial": 222, "dateTime": 1510679301385, "trialdata": {"rt": -1000, "stimulus": "/static/audio/wordpool/DANDRUFF.wav", "key_press": -1, "type": "PRES_AUD", "word": "dandruff", "wordID": 438, "conditions": [24, 1600, "a", 24000], "trial": 6, "serialpos": 9, "trial_type": "single-audio", "trial_index": 222, "time_elapsed": 908741, "internal_node_id": "0.0-159.0"}}, {"uniqueid": "MTK0243:39KFRKBFIO2MGG9GJRCOEOA79YHYOQ", "current_trial": 223, "dateTime": 1510679303843, "trialdata": {"rt": -1000, "stimulus": "/static/audio/wordpool/TROMBONE.wav", "key_press": -1, "type": "PRES_AUD", "word": "trombone", "wordID": 1507, "conditions": [24, 1600, "a", 24000], "trial": 6, "serialpos": 10, "trial_type": "single-audio", "trial_index": 223, "time_elapsed": 911199, "internal_node_id": "0.0-160.0"}}, {"uniqueid": "MTK0243:39KFRKBFIO2MGG9GJRCOEOA79YHYOQ", "current_trial": 224, "dateTime": 1510679306619, "trialdata": {"rt": -1000, "stimulus": "/static/audio/wordpool/UNCLE.wav", "key_press": -1, "type": "PRES_AUD", "word": "uncle", "wordID": 1535, "conditions": [24, 1600, "a", 24000], "trial": 6, "serialpos": 11, "trial_type": "single-audio", "trial_index": 224, "time_elapsed": 913975, "internal_node_id": "0.0-161.0"}}, {"uniqueid": "MTK0243:39KFRKBFIO2MGG9GJRCOEOA79YHYOQ", "current_trial": 225, "dateTime": 1510679309310, "trialdata": {"rt": -1000, "stimulus": "/static/audio/wordpool/RIFLE.wav", "key_press": -1, "type": "PRES_AUD", "word": "rifle", "wordID": 1191, "conditions": [24, 1600, "a", 24000], "trial": 6, "serialpos": 12, "trial_type": "single-audio", "trial_index": 225, "time_elapsed": 916666, "internal_node_id": "0.0-162.0"}}, {"uniqueid": "MTK0243:39KFRKBFIO2MGG9GJRCOEOA79YHYOQ", "current_trial": 226, "dateTime": 1510679311791, "trialdata": {"rt": -1000, "stimulus": "/static/audio/wordpool/SILK.wav", "key_press": -1, "type": "PRES_AUD", "word": "silk", "wordID": 1306, "conditions": [24, 1600, "a", 24000], "trial": 6, "serialpos": 13, "trial_type": "single-audio", "trial_index": 226, "time_elapsed": 919147, "internal_node_id": "0.0-163.0"}}, {"uniqueid": "MTK0243:39KFRKBFIO2MGG9GJRCOEOA79YHYOQ", "current_trial": 227, "dateTime": 1510679314247, "trialdata": {"rt": -1000, "stimulus": "/static/audio/wordpool/TOASTER.wav", "key_press": -1, "type": "PRES_AUD", "word": "toaster", "wordID": 1471, "conditions": [24, 1600, "a", 24000], "trial": 6, "serialpos": 14, "trial_type": "single-audio", "trial_index": 227, "time_elapsed": 921604, "internal_node_id": "0.0-164.0"}}, {"uniqueid": "MTK0243:39KFRKBFIO2MGG9GJRCOEOA79YHYOQ", "current_trial": 228, "dateTime": 1510679316808, "trialdata": {"rt": -1000, "stimulus": "/static/audio/wordpool/HEDGE.wav", "key_press": -1, "type": "PRES_AUD", "word": "hedge", "wordID": 698, "conditions": [24, 1600, "a", 24000], "trial": 6, "serialpos": 15, "trial_type": "single-audio", "trial_index": 228, "time_elapsed": 924164, "internal_node_id": "0.0-165.0"}}, {"uniqueid": "MTK0243:39KFRKBFIO2MGG9GJRCOEOA79YHYOQ", "current_trial": 229, "dateTime": 1510679319440, "trialdata": {"rt": -1000, "stimulus": "/static/audio/wordpool/DINER.wav", "key_press": -1, "type": "PRES_AUD", "word": "diner", "wordID": 466, "conditions": [24, 1600, "a", 24000], "trial": 6, "serialpos": 16, "trial_type": "single-audio", "trial_index": 229, "time_elapsed": 926796, "internal_node_id": "0.0-166.0"}}, {"uniqueid": "MTK0243:39KFRKBFIO2MGG9GJRCOEOA79YHYOQ", "current_trial": 230, "dateTime": 1510679321953, "trialdata": {"rt": -1000, "stimulus": "/static/audio/wordpool/CAFE.wav", "key_press": -1, "type": "PRES_AUD", "word": "cafe", "wordID": 215, "conditions": [24, 1600, "a", 24000], "trial": 6, "serialpos": 17, "trial_type": "single-audio", "trial_index": 230, "time_elapsed": 929309, "internal_node_id": "0.0-167.0"}}, {"uniqueid": "MTK0243:39KFRKBFIO2MGG9GJRCOEOA79YHYOQ", "current_trial": 231, "dateTime": 1510679324717, "trialdata": {"rt": -1000, "stimulus": "/static/audio/wordpool/CHEST.wav", "key_press": -1, "type": "PRES_AUD", "word": "chest", "wordID": 294, "conditions": [24, 1600, "a", 24000], "trial": 6, "serialpos": 18, "trial_type": "single-audio", "trial_index": 231, "time_elapsed": 932074, "internal_node_id": "0.0-168.0"}}, {"uniqueid": "MTK0243:39KFRKBFIO2MGG9GJRCOEOA79YHYOQ", "current_trial": 232, "dateTime": 1510679327342, "trialdata": {"rt": -1000, "stimulus": "/static/audio/wordpool/FOX.wav", "key_press": -1, "type": "PRES_AUD", "word": "fox", "wordID": 597, "conditions": [24, 1600, "a", 24000], "trial": 6, "serialpos": 19, "trial_type": "single-audio", "trial_index": 232, "time_elapsed": 934699, "internal_node_id": "0.0-169.0"}}, {"uniqueid": "MTK0243:39KFRKBFIO2MGG9GJRCOEOA79YHYOQ", "current_trial": 233, "dateTime": 1510679330111, "trialdata": {"rt": -1000, "stimulus": "/static/audio/wordpool/FLEET.wav", "key_press": -1, "type": "PRES_AUD", "word": "fleet", "wordID": 577, "conditions": [24, 1600, "a", 24000], "trial": 6, "serialpos": 20, "trial_type": "single-audio", "trial_index": 233, "time_elapsed": 937468, "internal_node_id": "0.0-170.0"}}, {"uniqueid": "MTK0243:39KFRKBFIO2MGG9GJRCOEOA79YHYOQ", "current_trial": 234, "dateTime": 1510679332782, "trialdata": {"rt": -1000, "stimulus": "/static/audio/wordpool/TRACTOR.wav", "key_press": -1, "type": "PRES_AUD", "word": "tractor", "wordID": 1492, "conditions": [24, 1600, "a", 24000], "trial": 6, "serialpos": 21, "trial_type": "single-audio", "trial_index": 234, "time_elapsed": 940139, "internal_node_id": "0.0-171.0"}}, {"uniqueid": "MTK0243:39KFRKBFIO2MGG9GJRCOEOA79YHYOQ", "current_trial": 235, "dateTime": 1510679335504, "trialdata": {"rt": -1000, "stimulus": "/static/audio/wordpool/FOREHEAD.wav", "key_press": -1, "type": "PRES_AUD", "word": "forehead", "wordID": 591, "conditions": [24, 1600, "a", 24000], "trial": 6, "serialpos": 22, "trial_type": "single-audio", "trial_index": 235, "time_elapsed": 942861, "internal_node_id": "0.0-172.0"}}, {"uniqueid": "MTK0243:39KFRKBFIO2MGG9GJRCOEOA79YHYOQ", "current_trial": 236, "dateTime": 1510679338218, "trialdata": {"rt": -1000, "stimulus": "/static/audio/wordpool/BUTCHER.wav", "key_press": -1, "type": "PRES_AUD", "word": "butcher", "wordID": 202, "conditions": [24, 1600, "a", 24000], "trial": 6, "serialpos": 23, "trial_type": "single-audio", "trial_index": 236, "time_elapsed": 945574, "internal_node_id": "0.0-173.0"}}, {"uniqueid": "MTK0243:39KFRKBFIO2MGG9GJRCOEOA79YHYOQ", "current_trial": 237, "dateTime": 1510679339457, "trialdata": {"rt": -1, "stimulus": "", "key_press": -1, "type": "PRE_RECALL_DELAY", "trial_type": "single-stim", "trial_index": 237, "time_elapsed": 946814, "internal_node_id": "0.0-174.0-0.0"}}, {"uniqueid": "MTK0243:39KFRKBFIO2MGG9GJRCOEOA79YHYOQ", "current_trial": 238, "dateTime": 1510679339959, "trialdata": {"rt": -1000, "stimulus": "/static/audio/400Hz.wav", "key_press": -1, "type": "PRE_RECALL_ALERT", "trial_type": "single-audio", "trial_index": 238, "time_elapsed": 947315, "internal_node_id": "0.0-175.0"}}, {"uniqueid": "MTK0243:39KFRKBFIO2MGG9GJRCOEOA79YHYOQ", "current_trial": 239, "dateTime": 1510679399969, "trialdata": {"rt": [1842, 3478, 4702, 7310, 11409, 13165, 25571, 45820, 47283], "recwords": ["butcher", "forehead", "fleet", "fox", "tuba", "snack", "rifle", "flower", "orchid"], "type": "FREE_RECALL", "conditions": [24, 1600, "a", 24000], "trial": 6, "trial_type": "free-recall", "trial_index": 239, "time_elapsed": 1007320, "internal_node_id": "0.0-176.0-0.0"}}, {"uniqueid": "MTK0243:39KFRKBFIO2MGG9GJRCOEOA79YHYOQ", "current_trial": 240, "dateTime": 1510679748076, "trialdata": {"rt": 346103, "key_press": 32, "type": "INSTRUCTIONS", "trial_type": "text", "trial_index": 240, "time_elapsed": 1355432, "internal_node_id": "0.0-177.0"}}, {"uniqueid": "MTK0243:39KFRKBFIO2MGG9GJRCOEOA79YHYOQ", "current_trial": 241, "dateTime": 1510679774094, "trialdata": {"rt": [2576, 3817, 5705, 7197, 9145, 10833, 12345, 13637, 14825, 16217, 17688, 18848, 20388, 23132], "responses": ["14", "17", "24", "22", "14", "14", "14", "10", "12", "12", "17", "12", "11", "20"], "num1": [6, 9, 6, 8, 3, 2, 3, 1, 4, 9, 3, 4, 4, 7, 9], "num2": [3, 1, 9, 9, 7, 4, 5, 6, 5, 2, 7, 7, 6, 4, 7], "num3": [5, 7, 9, 5, 1, 8, 6, 3, 3, 1, 7, 1, 1, 9, 5], "type": "DISTRACTOR", "conditions": [12, 1600, "v", 24000], "trial": 7, "trial_type": "math-distractor", "trial_index": 241, "time_elapsed": 1381451, "internal_node_id": "0.0-178.0"}}, {"uniqueid": "MTK0243:39KFRKBFIO2MGG9GJRCOEOA79YHYOQ", "current_trial": 242, "dateTime": 1510679777104, "trialdata": {"rt": -1, "stimulus": "<p id=\"stim\">10</p>", "key_press": -1, "trial_type": "single-stim", "trial_index": 242, "time_elapsed": 1384459, "internal_node_id": "0.0-179.0-0.0"}}, {"uniqueid": "MTK0243:39KFRKBFIO2MGG9GJRCOEOA79YHYOQ", "current_trial": 243, "dateTime": 1510679778109, "trialdata": {"rt": -1, "stimulus": "<p id=\"stim\">9</p>", "key_press": -1, "trial_type": "single-stim", "trial_index": 243, "time_elapsed": 1385464, "internal_node_id": "0.0-179.0-1.0"}}, {"uniqueid": "MTK0243:39KFRKBFIO2MGG9GJRCOEOA79YHYOQ", "current_trial": 244, "dateTime": 1510679779115, "trialdata": {"rt": -1, "stimulus": "<p id=\"stim\">8</p>", "key_press": -1, "trial_type": "single-stim", "trial_index": 244, "time_elapsed": 1386471, "internal_node_id": "0.0-179.0-2.0"}}, {"uniqueid": "MTK0243:39KFRKBFIO2MGG9GJRCOEOA79YHYOQ", "current_trial": 245, "dateTime": 1510679780119, "trialdata": {"rt": -1, "stimulus": "<p id=\"stim\">7</p>", "key_press": -1, "trial_type": "single-stim", "trial_index": 245, "time_elapsed": 1387475, "internal_node_id": "0.0-179.0-3.0"}}, {"uniqueid": "MTK0243:39KFRKBFIO2MGG9GJRCOEOA79YHYOQ", "current_trial": 246, "dateTime": 1510679781123, "trialdata": {"rt": -1, "stimulus": "<p id=\"stim\">6</p>", "key_press": -1, "trial_type": "single-stim", "trial_index": 246, "time_elapsed": 1388479, "internal_node_id": "0.0-179.0-4.0"}}, {"uniqueid": "MTK0243:39KFRKBFIO2MGG9GJRCOEOA79YHYOQ", "current_trial": 247, "dateTime": 1510679782129, "trialdata": {"rt": -1, "stimulus": "<p id=\"stim\">5</p>", "key_press": -1, "trial_type": "single-stim", "trial_index": 247, "time_elapsed": 1389485, "internal_node_id": "0.0-179.0-5.0"}}, {"uniqueid": "MTK0243:39KFRKBFIO2MGG9GJRCOEOA79YHYOQ", "current_trial": 248, "dateTime": 1510679783134, "trialdata": {"rt": -1, "stimulus": "<p id=\"stim\">4</p>", "key_press": -1, "trial_type": "single-stim", "trial_index": 248, "time_elapsed": 1390490, "internal_node_id": "0.0-179.0-6.0"}}, {"uniqueid": "MTK0243:39KFRKBFIO2MGG9GJRCOEOA79YHYOQ", "current_trial": 249, "dateTime": 1510679784137, "trialdata": {"rt": -1, "stimulus": "<p id=\"stim\">3</p>", "key_press": -1, "trial_type": "single-stim", "trial_index": 249, "time_elapsed": 1391493, "internal_node_id": "0.0-179.0-7.0"}}, {"uniqueid": "MTK0243:39KFRKBFIO2MGG9GJRCOEOA79YHYOQ", "current_trial": 250, "dateTime": 1510679785140, "trialdata": {"rt": -1, "stimulus": "<p id=\"stim\">2</p>", "key_press": -1, "trial_type": "single-stim", "trial_index": 250, "time_elapsed": 1392496, "internal_node_id": "0.0-179.0-8.0"}}, {"uniqueid": "MTK0243:39KFRKBFIO2MGG9GJRCOEOA79YHYOQ", "current_trial": 251, "dateTime": 1510679786145, "trialdata": {"rt": -1, "stimulus": "<p id=\"stim\">1</p>", "key_press": -1, "trial_type": "single-stim", "trial_index": 251, "time_elapsed": 1393501, "internal_node_id": "0.0-179.0-9.0"}}, {"uniqueid": "MTK0243:39KFRKBFIO2MGG9GJRCOEOA79YHYOQ", "current_trial": 252, "dateTime": 1510679787650, "trialdata": {"rt": -1, "stimulus": "<p id=\"stim\">+</p>", "key_press": -1, "type": "FIXATION", "trial_type": "single-stim", "trial_index": 252, "time_elapsed": 1395006, "internal_node_id": "0.0-180.0-0.0"}}, {"uniqueid": "MTK0243:39KFRKBFIO2MGG9GJRCOEOA79YHYOQ", "current_trial": 253, "dateTime": 1510679789254, "trialdata": {"rt": -1, "stimulus": "<p id=\"stim\">EMPIRE</p>", "key_press": -1, "type": "PRES_VIS", "word": "empire", "wordID": 529, "conditions": [12, 1600, "v", 24000], "trial": 7, "serialpos": 0, "trial_type": "single-stim", "trial_index": 253, "time_elapsed": 1396611, "internal_node_id": "0.0-181.0"}}, {"uniqueid": "MTK0243:39KFRKBFIO2MGG9GJRCOEOA79YHYOQ", "current_trial": 254, "dateTime": 1510679791941, "trialdata": {"rt": -1, "stimulus": "<p id=\"stim\">BULLET</p>", "key_press": -1, "type": "PRES_VIS", "word": "bullet", "wordID": 193, "conditions": [12, 1600, "v", 24000], "trial": 7, "serialpos": 1, "trial_type": "single-stim", "trial_index": 254, "time_elapsed": 1399297, "internal_node_id": "0.0-182.0"}}, {"uniqueid": "MTK0243:39KFRKBFIO2MGG9GJRCOEOA79YHYOQ", "current_trial": 255, "dateTime": 1510679794580, "trialdata": {"rt": -1, "stimulus": "<p id=\"stim\">FIDDLE</p>", "key_press": -1, "type": "PRES_VIS", "word": "fiddle", "wordID": 560, "conditions": [12, 1600, "v", 24000], "trial": 7, "serialpos": 2, "trial_type": "single-stim", "trial_index": 255, "time_elapsed": 1401936, "internal_node_id": "0.0-183.0"}}, {"uniqueid": "MTK0243:39KFRKBFIO2MGG9GJRCOEOA79YHYOQ", "current_trial": 256, "dateTime": 1510679797226, "trialdata": {"rt": -1, "stimulus": "<p id=\"stim\">HELMET</p>", "key_press": -1, "type": "PRES_VIS", "word": "helmet", "wordID": 701, "conditions": [12, 1600, "v", 24000], "trial": 7, "serialpos": 3, "trial_type": "single-stim", "trial_index": 256, "time_elapsed": 1404582, "internal_node_id": "0.0-184.0"}}, {"uniqueid": "MTK0243:39KFRKBFIO2MGG9GJRCOEOA79YHYOQ", "current_trial": 257, "dateTime": 1510679799691, "trialdata": {"rt": -1, "stimulus": "<p id=\"stim\">CLAM</p>", "key_press": -1, "type": "PRES_VIS", "word": "clam", "wordID": 314, "conditions": [12, 1600, "v", 24000], "trial": 7, "serialpos": 4, "trial_type": "single-stim", "trial_index": 257, "time_elapsed": 1407048, "internal_node_id": "0.0-185.0"}}, {"uniqueid": "MTK0243:39KFRKBFIO2MGG9GJRCOEOA79YHYOQ", "current_trial": 258, "dateTime": 1510679802197, "trialdata": {"rt": -1, "stimulus": "<p id=\"stim\">HAND</p>", "key_press": -1, "type": "PRES_VIS", "word": "hand", "wordID": 682, "conditions": [12, 1600, "v", 24000], "trial": 7, "serialpos": 5, "trial_type": "single-stim", "trial_index": 258, "time_elapsed": 1409554, "internal_node_id": "0.0-186.0"}}, {"uniqueid": "MTK0243:39KFRKBFIO2MGG9GJRCOEOA79YHYOQ", "current_trial": 259, "dateTime": 1510679804836, "trialdata": {"rt": -1, "stimulus": "<p id=\"stim\">SKILLET</p>", "key_press": -1, "type": "PRES_VIS", "word": "skillet", "wordID": 1316, "conditions": [12, 1600, "v", 24000], "trial": 7, "serialpos": 6, "trial_type": "single-stim", "trial_index": 259, "time_elapsed": 1412192, "internal_node_id": "0.0-187.0"}}, {"uniqueid": "MTK0243:39KFRKBFIO2MGG9GJRCOEOA79YHYOQ", "current_trial": 260, "dateTime": 1510679807402, "trialdata": {"rt": -1, "stimulus": "<p id=\"stim\">SPOON</p>", "key_press": -1, "type": "PRES_VIS", "word": "spoon", "wordID": 1356, "conditions": [12, 1600, "v", 24000], "trial": 7, "serialpos": 7, "trial_type": "single-stim", "trial_index": 260, "time_elapsed": 1414759, "internal_node_id": "0.0-188.0"}}, {"uniqueid": "MTK0243:39KFRKBFIO2MGG9GJRCOEOA79YHYOQ", "current_trial": 261, "dateTime": 1510679810114, "trialdata": {"rt": -1, "stimulus": "<p id=\"stim\">SWAMP</p>", "key_press": -1, "type": "PRES_VIS", "word": "swamp", "wordID": 1415, "conditions": [12, 1600, "v", 24000], "trial": 7, "serialpos": 8, "trial_type": "single-stim", "trial_index": 261, "time_elapsed": 1417471, "internal_node_id": "0.0-189.0"}}, {"uniqueid": "MTK0243:39KFRKBFIO2MGG9GJRCOEOA79YHYOQ", "current_trial": 262, "dateTime": 1510679812545, "trialdata": {"rt": -1, "stimulus": "<p id=\"stim\">TURTLE</p>", "key_press": -1, "type": "PRES_VIS", "word": "turtle", "wordID": 1521, "conditions": [12, 1600, "v", 24000], "trial": 7, "serialpos": 9, "trial_type": "single-stim", "trial_index": 262, "time_elapsed": 1419901, "internal_node_id": "0.0-190.0"}}, {"uniqueid": "MTK0243:39KFRKBFIO2MGG9GJRCOEOA79YHYOQ", "current_trial": 263, "dateTime": 1510679815086, "trialdata": {"rt": -1, "stimulus": "<p id=\"stim\">SCALLOP</p>", "key_press": -1, "type": "PRES_VIS", "word": "scallop", "wordID": 1241, "conditions": [12, 1600, "v", 24000], "trial": 7, "serialpos": 10, "trial_type": "single-stim", "trial_index": 263, "time_elapsed": 1422442, "internal_node_id": "0.0-191.0"}}, {"uniqueid": "MTK0243:39KFRKBFIO2MGG9GJRCOEOA79YHYOQ", "current_trial": 264, "dateTime": 1510679817682, "trialdata": {"rt": -1, "stimulus": "<p id=\"stim\">SCARF</p>", "key_press": -1, "type": "PRES_VIS", "word": "scarf", "wordID": 1245, "conditions": [12, 1600, "v", 24000], "trial": 7, "serialpos": 11, "trial_type": "single-stim", "trial_index": 264, "time_elapsed": 1425038, "internal_node_id": "0.0-192.0"}}, {"uniqueid": "MTK0243:39KFRKBFIO2MGG9GJRCOEOA79YHYOQ", "current_trial": 265, "dateTime": 1510679820003, "trialdata": {"rt": -1, "stimulus": "", "key_press": -1, "type": "PRE_RECALL_DELAY", "trial_type": "single-stim", "trial_index": 265, "time_elapsed": 1427360, "internal_node_id": "0.0-193.0-0.0"}}, {"uniqueid": "MTK0243:39KFRKBFIO2MGG9GJRCOEOA79YHYOQ", "current_trial": 266, "dateTime": 1510679820508, "trialdata": {"rt": -1000, "stimulus": "/static/audio/400Hz.wav", "key_press": -1, "type": "PRE_RECALL_ALERT", "trial_type": "single-audio", "trial_index": 266, "time_elapsed": 1427865, "internal_node_id": "0.0-194.0"}}, {"uniqueid": "MTK0243:39KFRKBFIO2MGG9GJRCOEOA79YHYOQ", "current_trial": 267, "dateTime": 1510679880532, "trialdata": {"rt": [1651, 3387, 4787, 7111, 9390, 13326, 18758], "recwords": ["scarf", "scallop", "turtle", "spoon", "skillet", "swamp", "empire"], "type": "FREE_RECALL", "conditions": [12, 1600, "v", 24000], "trial": 7, "trial_type": "free-recall", "trial_index": 267, "time_elapsed": 1487874, "internal_node_id": "0.0-195.0-0.0"}}, {"uniqueid": "MTK0243:39KFRKBFIO2MGG9GJRCOEOA79YHYOQ", "current_trial": 268, "dateTime": 1510680048525, "trialdata": {"rt": 165990, "key_press": 32, "type": "INSTRUCTIONS", "trial_type": "text", "trial_index": 268, "time_elapsed": 1655881, "internal_node_id": "0.0-196.0"}}, {"uniqueid": "MTK0243:39KFRKBFIO2MGG9GJRCOEOA79YHYOQ", "current_trial": 269, "dateTime": 1510680062539, "trialdata": {"rt": [1651, 2831, 4387, 5823, 6727, 8143, 9362, 11202], "responses": ["12", "14", "14", "13", "12", "15", "7", "19"], "num1": [3, 1, 6, 2, 5, 2, 1, 9, 1], "num2": [2, 9, 1, 2, 5, 8, 5, 4, 8], "num3": [7, 4, 7, 9, 2, 5, 1, 6, 4], "type": "DISTRACTOR", "conditions": [24, 1600, "v", 12000], "trial": 8, "trial_type": "math-distractor", "trial_index": 269, "time_elapsed": 1669896, "internal_node_id": "0.0-197.0"}}, {"uniqueid": "MTK0243:39KFRKBFIO2MGG9GJRCOEOA79YHYOQ", "current_trial": 270, "dateTime": 1510680065540, "trialdata": {"rt": -1, "stimulus": "<p id=\"stim\">10</p>", "key_press": -1, "trial_type": "single-stim"