{"condition": 0, "counterbalance": 82, "assignmentId": "352YTHGROWKWQS99Q7TREQ9Z1NM4HS", "workerId": "MTK0029", "hitId": "3S1WOPCJFG08MG3YDB3NA55LEPNJE3", "currenttrial": 625, "bonus": 0, "data": [{"uniqueid": "MTK0029:352YTHGROWKWQS99Q7TREQ9Z1NM4HS", "current_trial": 0, "dateTime": 1509046742078, "trialdata": {"rt": 4227, "key_press": 32, "type": "INSTRUCTIONS", "trial_type": "text", "trial_index": 0, "time_elapsed": 4234, "internal_node_id": "0.0-0.0"}}, {"uniqueid": "MTK0029:352YTHGROWKWQS99Q7TREQ9Z1NM4HS", "current_trial": 1, "dateTime": 1509046753347, "trialdata": {"rt": 11267, "key_press": 75, "type": "INSTRUCTIONS", "trial_type": "text", "trial_index": 1, "time_elapsed": 15504, "internal_node_id": "0.0-1.0"}}, {"uniqueid": "MTK0029:352YTHGROWKWQS99Q7TREQ9Z1NM4HS", "current_trial": 2, "dateTime": 1509046762994, "trialdata": {"rt": [9610], "responses": ["ocean"], "type": "AUDIO_TEST", "trial_type": "audio-test", "trial_index": 2, "time_elapsed": 25151, "internal_node_id": "0.0-2.0"}}, {"uniqueid": "MTK0029:352YTHGROWKWQS99Q7TREQ9Z1NM4HS", "current_trial": 3, "dateTime": 1509046776907, "trialdata": {"rt": [13901], "responses": ["crystal"], "type": "AUDIO_TEST", "trial_type": "audio-test", "trial_index": 3, "time_elapsed": 39064, "internal_node_id": "0.0-3.0"}}, {"uniqueid": "MTK0029:352YTHGROWKWQS99Q7TREQ9Z1NM4HS", "current_trial": 4, "dateTime": 1509046784995, "trialdata": {"rt": [8081], "responses": ["spice"], "type": "AUDIO_TEST", "trial_type": "audio-test", "trial_index": 4, "time_elapsed": 47152, "internal_node_id": "0.0-4.0"}}, {"uniqueid": "MTK0029:352YTHGROWKWQS99Q7TREQ9Z1NM4HS", "current_trial": 5, "dateTime": 1509046788931, "trialdata": {"rt": 3182, "key_press": 32, "type": "INSTRUCTIONS", "trial_type": "text", "trial_index": 5, "time_elapsed": 51088, "internal_node_id": "0.0-5.0"}}, {"uniqueid": "MTK0029:352YTHGROWKWQS99Q7TREQ9Z1NM4HS", "current_trial": 6, "dateTime": 1509046829824, "trialdata": {"rt": 40892, "key_press": 32, "type": "INSTRUCTIONS", "trial_type": "text", "trial_index": 6, "time_elapsed": 91981, "internal_node_id": "0.0-6.0"}}, {"uniqueid": "MTK0029:352YTHGROWKWQS99Q7TREQ9Z1NM4HS", "current_trial": 7, "dateTime": 1509046839852, "trialdata": {"rt": 10027, "key_press": 32, "type": "INSTRUCTIONS", "trial_type": "text", "trial_index": 7, "time_elapsed": 102009, "internal_node_id": "0.0-7.0"}}, {"uniqueid": "MTK0029:352YTHGROWKWQS99Q7TREQ9Z1NM4HS", "current_trial": 8, "dateTime": 1509046846338, "trialdata": {"rt": 6486, "key_press": 32, "type": "INSTRUCTIONS", "trial_type": "text", "trial_index": 8, "time_elapsed": 108495, "internal_node_id": "0.0-8.0"}}, {"uniqueid": "MTK0029:352YTHGROWKWQS99Q7TREQ9Z1NM4HS", "current_trial": 9, "dateTime": 1509046865346, "trialdata": {"rt": [4227, 10504, 13440, 15566], "responses": ["11", "15", "10", "11"], "num1": [6, 3, 1, 1, 2], "num2": [3, 8, 4, 6, 6], "num3": [2, 4, 5, 4, 6], "type": "DISTRACTOR", "conditions": [18, 1200, "v", 18000], "trial": 0, "trial_type": "math-distractor", "trial_index": 9, "time_elapsed": 127502, "internal_node_id": "0.0-9.0"}}, {"uniqueid": "MTK0029:352YTHGROWKWQS99Q7TREQ9Z1NM4HS", "current_trial": 10, "dateTime": 1509046868355, "trialdata": {"rt": -1, "stimulus": "<p id=\"stim\">10</p>", "key_press": -1, "trial_type": "single-stim", "trial_index": 10, "time_elapsed": 130512, "internal_node_id": "0.0-10.0-0.0"}}, {"uniqueid": "MTK0029:352YTHGROWKWQS99Q7TREQ9Z1NM4HS", "current_trial": 11, "dateTime": 1509046869358, "trialdata": {"rt": -1, "stimulus": "<p id=\"stim\">9</p>", "key_press": -1, "trial_type": "single-stim", "trial_index": 11, "time_elapsed": 131515, "internal_node_id": "0.0-10.0-1.0"}}, {"uniqueid": "MTK0029:352YTHGROWKWQS99Q7TREQ9Z1NM4HS", "current_trial": 12, "dateTime": 1509046870363, "trialdata": {"rt": -1, "stimulus": "<p id=\"stim\">8</p>", "key_press": -1, "trial_type": "single-stim", "trial_index": 12, "time_elapsed": 132520, "internal_node_id": "0.0-10.0-2.0"}}, {"uniqueid": "MTK0029:352YTHGROWKWQS99Q7TREQ9Z1NM4HS", "current_trial": 13, "dateTime": 1509046871366, "trialdata": {"rt": -1, "stimulus": "<p id=\"stim\">7</p>", "key_press": -1, "trial_type": "single-stim", "trial_index": 13, "time_elapsed": 133523, "internal_node_id": "0.0-10.0-3.0"}}, {"uniqueid": "MTK0029:352YTHGROWKWQS99Q7TREQ9Z1NM4HS", "current_trial": 14, "dateTime": 1509046872371, "trialdata": {"rt": -1, "stimulus": "<p id=\"stim\">6</p>", "key_press": -1, "trial_type": "single-stim", "trial_index": 14, "time_elapsed": 134527, "internal_node_id": "0.0-10.0-4.0"}}, {"uniqueid": "MTK0029:352YTHGROWKWQS99Q7TREQ9Z1NM4HS", "current_trial": 15, "dateTime": 1509046873375, "trialdata": {"rt": -1, "stimulus": "<p id=\"stim\">5</p>", "key_press": -1, "trial_type": "single-stim", "trial_index": 15, "time_elapsed": 135532, "internal_node_id": "0.0-10.0-5.0"}}, {"uniqueid": "MTK0029:352YTHGROWKWQS99Q7TREQ9Z1NM4HS", "current_trial": 16, "dateTime": 1509046874380, "trialdata": {"rt": -1, "stimulus": "<p id=\"stim\">4</p>", "key_press": -1, "trial_type": "single-stim", "trial_index": 16, "time_elapsed": 136537, "internal_node_id": "0.0-10.0-6.0"}}, {"uniqueid": "MTK0029:352YTHGROWKWQS99Q7TREQ9Z1NM4HS", "current_trial": 17, "dateTime": 1509046875384, "trialdata": {"rt": -1, "stimulus": "<p id=\"stim\">3</p>", "key_press": -1, "trial_type": "single-stim", "trial_index": 17, "time_elapsed": 137541, "internal_node_id": "0.0-10.0-7.0"}}, {"uniqueid": "MTK0029:352YTHGROWKWQS99Q7TREQ9Z1NM4HS", "current_trial": 18, "dateTime": 1509046876388, "trialdata": {"rt": -1, "stimulus": "<p id=\"stim\">2</p>", "key_press": -1, "trial_type": "single-stim", "trial_index": 18, "time_elapsed": 138545, "internal_node_id": "0.0-10.0-8.0"}}, {"uniqueid": "MTK0029:352YTHGROWKWQS99Q7TREQ9Z1NM4HS", "current_trial": 19, "dateTime": 1509046877392, "trialdata": {"rt": -1, "stimulus": "<p id=\"stim\">1</p>", "key_press": -1, "trial_type": "single-stim", "trial_index": 19, "time_elapsed": 139549, "internal_node_id": "0.0-10.0-9.0"}}, {"uniqueid": "MTK0029:352YTHGROWKWQS99Q7TREQ9Z1NM4HS", "current_trial": 20, "dateTime": 1509046878896, "trialdata": {"rt": -1, "stimulus": "<p id=\"stim\">+</p>", "key_press": -1, "type": "FIXATION", "trial_type": "single-stim", "trial_index": 20, "time_elapsed": 141053, "internal_node_id": "0.0-11.0-0.0"}}, {"uniqueid": "MTK0029:352YTHGROWKWQS99Q7TREQ9Z1NM4HS", "current_trial": 21, "dateTime": 1509046880097, "trialdata": {"rt": -1, "stimulus": "<p id=\"stim\">FLESH</p>", "key_press": -1, "type": "PRES_VIS", "word": "flesh", "wordID": 578, "conditions": [18, 1200, "v", 18000], "trial": 0, "serialpos": 0, "trial_type": "single-stim", "trial_index": 21, "time_elapsed": 142254, "internal_node_id": "0.0-12.0"}}, {"uniqueid": "MTK0029:352YTHGROWKWQS99Q7TREQ9Z1NM4HS", "current_trial": 22, "dateTime": 1509046882169, "trialdata": {"rt": -1, "stimulus": "<p id=\"stim\">STREAM</p>", "key_press": -1, "type": "PRES_VIS", "word": "stream", "wordID": 1391, "conditions": [18, 1200, "v", 18000], "trial": 0, "serialpos": 1, "trial_type": "single-stim", "trial_index": 22, "time_elapsed": 144326, "internal_node_id": "0.0-13.0"}}, {"uniqueid": "MTK0029:352YTHGROWKWQS99Q7TREQ9Z1NM4HS", "current_trial": 23, "dateTime": 1509046884242, "trialdata": {"rt": -1, "stimulus": "<p id=\"stim\">CREATURE</p>", "key_press": -1, "type": "PRES_VIS", "word": "creature", "wordID": 402, "conditions": [18, 1200, "v", 18000], "trial": 0, "serialpos": 2, "trial_type": "single-stim", "trial_index": 23, "time_elapsed": 146399, "internal_node_id": "0.0-14.0"}}, {"uniqueid": "MTK0029:352YTHGROWKWQS99Q7TREQ9Z1NM4HS", "current_trial": 24, "dateTime": 1509046886460, "trialdata": {"rt": -1, "stimulus": "<p id=\"stim\">SMOG</p>", "key_press": -1, "type": "PRES_VIS", "word": "smog", "wordID": 1329, "conditions": [18, 1200, "v", 18000], "trial": 0, "serialpos": 3, "trial_type": "single-stim", "trial_index": 24, "time_elapsed": 148617, "internal_node_id": "0.0-15.0"}}, {"uniqueid": "MTK0029:352YTHGROWKWQS99Q7TREQ9Z1NM4HS", "current_trial": 25, "dateTime": 1509046888531, "trialdata": {"rt": -1, "stimulus": "<p id=\"stim\">YARN</p>", "key_press": -1, "type": "PRES_VIS", "word": "yarn", "wordID": 1630, "conditions": [18, 1200, "v", 18000], "trial": 0, "serialpos": 4, "trial_type": "single-stim", "trial_index": 25, "time_elapsed": 150688, "internal_node_id": "0.0-16.0"}}, {"uniqueid": "MTK0029:352YTHGROWKWQS99Q7TREQ9Z1NM4HS", "current_trial": 26, "dateTime": 1509046890802, "trialdata": {"rt": -1, "stimulus": "<p id=\"stim\">LACE</p>", "key_press": -1, "type": "PRES_VIS", "word": "lace", "wordID": 791, "conditions": [18, 1200, "v", 18000], "trial": 0, "serialpos": 5, "trial_type": "single-stim", "trial_index": 26, "time_elapsed": 152959, "internal_node_id": "0.0-17.0"}}, {"uniqueid": "MTK0029:352YTHGROWKWQS99Q7TREQ9Z1NM4HS", "current_trial": 27, "dateTime": 1509046892966, "trialdata": {"rt": -1, "stimulus": "<p id=\"stim\">WINDOW</p>", "key_press": -1, "type": "PRES_VIS", "word": "window", "wordID": 1610, "conditions": [18, 1200, "v", 18000], "trial": 0, "serialpos": 6, "trial_type": "single-stim", "trial_index": 27, "time_elapsed": 155123, "internal_node_id": "0.0-18.0"}}, {"uniqueid": "MTK0029:352YTHGROWKWQS99Q7TREQ9Z1NM4HS", "current_trial": 28, "dateTime": 1509046895150, "trialdata": {"rt": -1, "stimulus": "<p id=\"stim\">ICING</p>", "key_press": -1, "type": "PRES_VIS", "word": "icing", "wordID": 731, "conditions": [18, 1200, "v", 18000], "trial": 0, "serialpos": 7, "trial_type": "single-stim", "trial_index": 28, "time_elapsed": 157307, "internal_node_id": "0.0-19.0"}}, {"uniqueid": "MTK0029:352YTHGROWKWQS99Q7TREQ9Z1NM4HS", "current_trial": 29, "dateTime": 1509046897547, "trialdata": {"rt": -1, "stimulus": "<p id=\"stim\">ACTRESS</p>", "key_press": -1, "type": "PRES_VIS", "word": "actress", "wordID": 5, "conditions": [18, 1200, "v", 18000], "trial": 0, "serialpos": 8, "trial_type": "single-stim", "trial_index": 29, "time_elapsed": 159704, "internal_node_id": "0.0-20.0"}}, {"uniqueid": "MTK0029:352YTHGROWKWQS99Q7TREQ9Z1NM4HS", "current_trial": 30, "dateTime": 1509046899620, "trialdata": {"rt": -1, "stimulus": "<p id=\"stim\">CLAM</p>", "key_press": -1, "type": "PRES_VIS", "word": "clam", "wordID": 314, "conditions": [18, 1200, "v", 18000], "trial": 0, "serialpos": 9, "trial_type": "single-stim", "trial_index": 30, "time_elapsed": 161777, "internal_node_id": "0.0-21.0"}}, {"uniqueid": "MTK0029:352YTHGROWKWQS99Q7TREQ9Z1NM4HS", "current_trial": 31, "dateTime": 1509046901698, "trialdata": {"rt": -1, "stimulus": "<p id=\"stim\">SWAMP</p>", "key_press": -1, "type": "PRES_VIS", "word": "swamp", "wordID": 1415, "conditions": [18, 1200, "v", 18000], "trial": 0, "serialpos": 10, "trial_type": "single-stim", "trial_index": 31, "time_elapsed": 163855, "internal_node_id": "0.0-22.0"}}, {"uniqueid": "MTK0029:352YTHGROWKWQS99Q7TREQ9Z1NM4HS", "current_trial": 32, "dateTime": 1509046903979, "trialdata": {"rt": -1, "stimulus": "<p id=\"stim\">MOTEL</p>", "key_press": -1, "type": "PRES_VIS", "word": "motel", "wordID": 918, "conditions": [18, 1200, "v", 18000], "trial": 0, "serialpos": 11, "trial_type": "single-stim", "trial_index": 32, "time_elapsed": 166136, "internal_node_id": "0.0-23.0"}}, {"uniqueid": "MTK0029:352YTHGROWKWQS99Q7TREQ9Z1NM4HS", "current_trial": 33, "dateTime": 1509046906335, "trialdata": {"rt": -1, "stimulus": "<p id=\"stim\">COBRA</p>", "key_press": -1, "type": "PRES_VIS", "word": "cobra", "wordID": 335, "conditions": [18, 1200, "v", 18000], "trial": 0, "serialpos": 12, "trial_type": "single-stim", "trial_index": 33, "time_elapsed": 168492, "internal_node_id": "0.0-24.0"}}, {"uniqueid": "MTK0029:352YTHGROWKWQS99Q7TREQ9Z1NM4HS", "current_trial": 34, "dateTime": 1509046908347, "trialdata": {"rt": -1, "stimulus": "<p id=\"stim\">ASIA</p>", "key_press": -1, "type": "PRES_VIS", "word": "asia", "wordID": 45, "conditions": [18, 1200, "v", 18000], "trial": 0, "serialpos": 13, "trial_type": "single-stim", "trial_index": 34, "time_elapsed": 170504, "internal_node_id": "0.0-25.0"}}, {"uniqueid": "MTK0029:352YTHGROWKWQS99Q7TREQ9Z1NM4HS", "current_trial": 35, "dateTime": 1509046910491, "trialdata": {"rt": -1, "stimulus": "<p id=\"stim\">PADDING</p>", "key_press": -1, "type": "PRES_VIS", "word": "padding", "wordID": 998, "conditions": [18, 1200, "v", 18000], "trial": 0, "serialpos": 14, "trial_type": "single-stim", "trial_index": 35, "time_elapsed": 172648, "internal_node_id": "0.0-26.0"}}, {"uniqueid": "MTK0029:352YTHGROWKWQS99Q7TREQ9Z1NM4HS", "current_trial": 36, "dateTime": 1509046912746, "trialdata": {"rt": -1, "stimulus": "<p id=\"stim\">VIRUS</p>", "key_press": -1, "type": "PRES_VIS", "word": "virus", "wordID": 1571, "conditions": [18, 1200, "v", 18000], "trial": 0, "serialpos": 15, "trial_type": "single-stim", "trial_index": 36, "time_elapsed": 174901, "internal_node_id": "0.0-27.0"}}, {"uniqueid": "MTK0029:352YTHGROWKWQS99Q7TREQ9Z1NM4HS", "current_trial": 37, "dateTime": 1509046914933, "trialdata": {"rt": -1, "stimulus": "<p id=\"stim\">TUBA</p>", "key_press": -1, "type": "PRES_VIS", "word": "tuba", "wordID": 1514, "conditions": [18, 1200, "v", 18000], "trial": 0, "serialpos": 16, "trial_type": "single-stim", "trial_index": 37, "time_elapsed": 177090, "internal_node_id": "0.0-28.0"}}, {"uniqueid": "MTK0029:352YTHGROWKWQS99Q7TREQ9Z1NM4HS", "current_trial": 38, "dateTime": 1509046917005, "trialdata": {"rt": -1, "stimulus": "<p id=\"stim\">MESSAGE</p>", "key_press": -1, "type": "PRES_VIS", "word": "message", "wordID": 887, "conditions": [18, 1200, "v", 18000], "trial": 0, "serialpos": 17, "trial_type": "single-stim", "trial_index": 38, "time_elapsed": 179162, "internal_node_id": "0.0-29.0"}}, {"uniqueid": "MTK0029:352YTHGROWKWQS99Q7TREQ9Z1NM4HS", "current_trial": 39, "dateTime": 1509046919512, "trialdata": {"rt": -1, "stimulus": "", "key_press": -1, "type": "PRE_RECALL_DELAY", "trial_type": "single-stim", "trial_index": 39, "time_elapsed": 181669, "internal_node_id": "0.0-30.0-0.0"}}, {"uniqueid": "MTK0029:352YTHGROWKWQS99Q7TREQ9Z1NM4HS", "current_trial": 40, "dateTime": 1509046920018, "trialdata": {"rt": -1000, "stimulus": "/static/audio/400Hz.wav", "key_press": -1, "type": "PRE_RECALL_ALERT", "trial_type": "single-audio", "trial_index": 40, "time_elapsed": 182175, "internal_node_id": "0.0-31.0"}}, {"uniqueid": "MTK0029:352YTHGROWKWQS99Q7TREQ9Z1NM4HS", "current_trial": 41, "dateTime": 1509046980024, "trialdata": {"rt": [3123, 5137, 6925, 8894, 10840, 12933, 14621, 23519, 32069], "recwords": ["flesh", "stream", "asia", "cobra", "message", "smog", "tuba", "padding", "creature"], "type": "FREE_RECALL", "conditions": [18, 1200, "v", 18000], "trial": 0, "trial_type": "free-recall", "trial_index": 41, "time_elapsed": 242181, "internal_node_id": "0.0-32.0-0.0"}}, {"uniqueid": "MTK0029:352YTHGROWKWQS99Q7TREQ9Z1NM4HS", "current_trial": 42, "dateTime": 1509046983590, "trialdata": {"rt": 1563, "key_press": 32, "type": "INSTRUCTIONS", "trial_type": "text", "trial_index": 42, "time_elapsed": 245747, "internal_node_id": "0.0-33.0"}}, {"uniqueid": "MTK0029:352YTHGROWKWQS99Q7TREQ9Z1NM4HS", "current_trial": 43, "dateTime": 1509047003598, "trialdata": {"rt": [9784, 13013, 15916], "responses": ["14", "6", "18"], "num1": [6, 1, 4, 5], "num2": [7, 2, 7, 2], "num3": [1, 3, 7, 1], "type": "DISTRACTOR", "conditions": [18, 1200, "a", 18000], "trial": 1, "trial_type": "math-distractor", "trial_index": 43, "time_elapsed": 265754, "internal_node_id": "0.0-34.0"}}, {"uniqueid": "MTK0029:352YTHGROWKWQS99Q7TREQ9Z1NM4HS", "current_trial": 44, "dateTime": 1509047006604, "trialdata": {"rt": -1, "stimulus": "<p id=\"stim\">10</p>", "key_press": -1, "trial_type": "single-stim", "trial_index": 44, "time_elapsed": 268761, "internal_node_id": "0.0-35.0-0.0"}}, {"uniqueid": "MTK0029:352YTHGROWKWQS99Q7TREQ9Z1NM4HS", "current_trial": 45, "dateTime": 1509047007608, "trialdata": {"rt": -1, "stimulus": "<p id=\"stim\">9</p>", "key_press": -1, "trial_type": "single-stim", "trial_index": 45, "time_elapsed": 269765, "internal_node_id": "0.0-35.0-1.0"}}, {"uniqueid": "MTK0029:352YTHGROWKWQS99Q7TREQ9Z1NM4HS", "current_trial": 46, "dateTime": 1509047008613, "trialdata": {"rt": -1, "stimulus": "<p id=\"stim\">8</p>", "key_press": -1, "trial_type": "single-stim", "trial_index": 46, "time_elapsed": 270769, "internal_node_id": "0.0-35.0-2.0"}}, {"uniqueid": "MTK0029:352YTHGROWKWQS99Q7TREQ9Z1NM4HS", "current_trial": 47, "dateTime": 1509047009617, "trialdata": {"rt": -1, "stimulus": "<p id=\"stim\">7</p>", "key_press": -1, "trial_type": "single-stim", "trial_index": 47, "time_elapsed": 271774, "internal_node_id": "0.0-35.0-3.0"}}, {"uniqueid": "MTK0029:352YTHGROWKWQS99Q7TREQ9Z1NM4HS", "current_trial": 48, "dateTime": 1509047010621, "trialdata": {"rt": -1, "stimulus": "<p id=\"stim\">6</p>", "key_press": -1, "trial_type": "single-stim", "trial_index": 48, "time_elapsed": 272778, "internal_node_id": "0.0-35.0-4.0"}}, {"uniqueid": "MTK0029:352YTHGROWKWQS99Q7TREQ9Z1NM4HS", "current_trial": 49, "dateTime": 1509047011626, "trialdata": {"rt": -1, "stimulus": "<p id=\"stim\">5</p>", "key_press": -1, "trial_type": "single-stim", "trial_index": 49, "time_elapsed": 273783, "internal_node_id": "0.0-35.0-5.0"}}, {"uniqueid": "MTK0029:352YTHGROWKWQS99Q7TREQ9Z1NM4HS", "current_trial": 50, "dateTime": 1509047012630, "trialdata": {"rt": -1, "stimulus": "<p id=\"stim\">4</p>", "key_press": -1, "trial_type": "single-stim", "trial_index": 50, "time_elapsed": 274787, "internal_node_id": "0.0-35.0-6.0"}}, {"uniqueid": "MTK0029:352YTHGROWKWQS99Q7TREQ9Z1NM4HS", "current_trial": 51, "dateTime": 1509047013631, "trialdata": {"rt": -1, "stimulus": "<p id=\"stim\">3</p>", "key_press": -1, "trial_type": "single-stim", "trial_index": 51, "time_elapsed": 275788, "internal_node_id": "0.0-35.0-7.0"}}, {"uniqueid": "MTK0029:352YTHGROWKWQS99Q7TREQ9Z1NM4HS", "current_trial": 52, "dateTime": 1509047014632, "trialdata": {"rt": -1, "stimulus": "<p id=\"stim\">2</p>", "key_press": -1, "trial_type": "single-stim", "trial_index": 52, "time_elapsed": 276789, "internal_node_id": "0.0-35.0-8.0"}}, {"uniqueid": "MTK0029:352YTHGROWKWQS99Q7TREQ9Z1NM4HS", "current_trial": 53, "dateTime": 1509047015637, "trialdata": {"rt": -1, "stimulus": "<p id=\"stim\">1</p>", "key_press": -1, "trial_type": "single-stim", "trial_index": 53, "time_elapsed": 277794, "internal_node_id": "0.0-35.0-9.0"}}, {"uniqueid": "MTK0029:352YTHGROWKWQS99Q7TREQ9Z1NM4HS", "current_trial": 54, "dateTime": 1509047017140, "trialdata": {"rt": -1, "stimulus": "<p id=\"stim\">+</p>", "key_press": -1, "type": "FIXATION", "trial_type": "single-stim", "trial_index": 54, "time_elapsed": 279297, "internal_node_id": "0.0-36.0-0.0"}}, {"uniqueid": "MTK0029:352YTHGROWKWQS99Q7TREQ9Z1NM4HS", "current_trial": 55, "dateTime": 1509047019143, "trialdata": {"rt": -1000, "stimulus": "/static/audio/wordpool/BALLOON.wav", "key_press": -1, "type": "PRES_AUD", "word": "balloon", "wordID": 74, "conditions": [18, 1200, "a", 18000], "trial": 1, "serialpos": 0, "trial_type": "single-audio", "trial_index": 55, "time_elapsed": 281300, "internal_node_id": "0.0-37.0"}}, {"uniqueid": "MTK0029:352YTHGROWKWQS99Q7TREQ9Z1NM4HS", "current_trial": 56, "dateTime": 1509047021291, "trialdata": {"rt": -1000, "stimulus": "/static/audio/wordpool/BRANCH.wav", "key_press": -1, "type": "PRES_AUD", "word": "branch", "wordID": 167, "conditions": [18, 1200, "a", 18000], "trial": 1, "serialpos": 1, "trial_type": "single-audio", "trial_index": 56, "time_elapsed": 283448, "internal_node_id": "0.0-38.0"}}, {"uniqueid": "MTK0029:352YTHGROWKWQS99Q7TREQ9Z1NM4HS", "current_trial": 57, "dateTime": 1509047023381, "trialdata": {"rt": -1000, "stimulus": "/static/audio/wordpool/SKILLET.wav", "key_press": -1, "type": "PRES_AUD", "word": "skillet", "wordID": 1316, "conditions": [18, 1200, "a", 18000], "trial": 1, "serialpos": 2, "trial_type": "single-audio", "trial_index": 57, "time_elapsed": 285538, "internal_node_id": "0.0-39.0"}}, {"uniqueid": "MTK0029:352YTHGROWKWQS99Q7TREQ9Z1NM4HS", "current_trial": 58, "dateTime": 1509047025687, "trialdata": {"rt": -1000, "stimulus": "/static/audio/wordpool/VALLEY.wav", "key_press": -1, "type": "PRES_AUD", "word": "valley", "wordID": 1544, "conditions": [18, 1200, "a", 18000], "trial": 1, "serialpos": 3, "trial_type": "single-audio", "trial_index": 58, "time_elapsed": 287844, "internal_node_id": "0.0-40.0"}}, {"uniqueid": "MTK0029:352YTHGROWKWQS99Q7TREQ9Z1NM4HS", "current_trial": 59, "dateTime": 1509047027853, "trialdata": {"rt": -1000, "stimulus": "/static/audio/wordpool/PUPPY.wav", "key_press": -1, "type": "PRES_AUD", "word": "puppy", "wordID": 1143, "conditions": [18, 1200, "a", 18000], "trial": 1, "serialpos": 4, "trial_type": "single-audio", "trial_index": 59, "time_elapsed": 290010, "internal_node_id": "0.0-41.0"}}, {"uniqueid": "MTK0029:352YTHGROWKWQS99Q7TREQ9Z1NM4HS", "current_trial": 60, "dateTime": 1509047029995, "trialdata": {"rt": -1000, "stimulus": "/static/audio/wordpool/MAPLE.wav", "key_press": -1, "type": "PRES_AUD", "word": "maple", "wordID": 865, "conditions": [18, 1200, "a", 18000], "trial": 1, "serialpos": 5, "trial_type": "single-audio", "trial_index": 60, "time_elapsed": 292152, "internal_node_id": "0.0-42.0"}}, {"uniqueid": "MTK0029:352YTHGROWKWQS99Q7TREQ9Z1NM4HS", "current_trial": 61, "dateTime": 1509047032001, "trialdata": {"rt": -1000, "stimulus": "/static/audio/wordpool/BLOUSE.wav", "key_press": -1, "type": "PRES_AUD", "word": "blouse", "wordID": 138, "conditions": [18, 1200, "a", 18000], "trial": 1, "serialpos": 6, "trial_type": "single-audio", "trial_index": 61, "time_elapsed": 294158, "internal_node_id": "0.0-43.0"}}, {"uniqueid": "MTK0029:352YTHGROWKWQS99Q7TREQ9Z1NM4HS", "current_trial": 62, "dateTime": 1509047034038, "trialdata": {"rt": -1000, "stimulus": "/static/audio/wordpool/HAND.wav", "key_press": -1, "type": "PRES_AUD", "word": "hand", "wordID": 682, "conditions": [18, 1200, "a", 18000], "trial": 1, "serialpos": 7, "trial_type": "single-audio", "trial_index": 62, "time_elapsed": 296195, "internal_node_id": "0.0-44.0"}}, {"uniqueid": "MTK0029:352YTHGROWKWQS99Q7TREQ9Z1NM4HS", "current_trial": 63, "dateTime": 1509047036058, "trialdata": {"rt": -1000, "stimulus": "/static/audio/wordpool/LIVER.wav", "key_press": -1, "type": "PRES_AUD", "word": "liver", "wordID": 832, "conditions": [18, 1200, "a", 18000], "trial": 1, "serialpos": 8, "trial_type": "single-audio", "trial_index": 63, "time_elapsed": 298215, "internal_node_id": "0.0-45.0"}}, {"uniqueid": "MTK0029:352YTHGROWKWQS99Q7TREQ9Z1NM4HS", "current_trial": 64, "dateTime": 1509047038206, "trialdata": {"rt": -1000, "stimulus": "/static/audio/wordpool/TILE.wav", "key_press": -1, "type": "PRES_AUD", "word": "tile", "wordID": 1467, "conditions": [18, 1200, "a", 18000], "trial": 1, "serialpos": 9, "trial_type": "single-audio", "trial_index": 64, "time_elapsed": 300363, "internal_node_id": "0.0-46.0"}}, {"uniqueid": "MTK0029:352YTHGROWKWQS99Q7TREQ9Z1NM4HS", "current_trial": 65, "dateTime": 1509047040557, "trialdata": {"rt": -1000, "stimulus": "/static/audio/wordpool/SPARROW.wav", "key_press": -1, "type": "PRES_AUD", "word": "sparrow", "wordID": 1346, "conditions": [18, 1200, "a", 18000], "trial": 1, "serialpos": 10, "trial_type": "single-audio", "trial_index": 65, "time_elapsed": 302714, "internal_node_id": "0.0-47.0"}}, {"uniqueid": "MTK0029:352YTHGROWKWQS99Q7TREQ9Z1NM4HS", "current_trial": 66, "dateTime": 1509047042868, "trialdata": {"rt": -1000, "stimulus": "/static/audio/wordpool/SPOON.wav", "key_press": -1, "type": "PRES_AUD", "word": "spoon", "wordID": 1356, "conditions": [18, 1200, "a", 18000], "trial": 1, "serialpos": 11, "trial_type": "single-audio", "trial_index": 66, "time_elapsed": 305024, "internal_node_id": "0.0-48.0"}}, {"uniqueid": "MTK0029:352YTHGROWKWQS99Q7TREQ9Z1NM4HS", "current_trial": 67, "dateTime": 1509047045251, "trialdata": {"rt": -1000, "stimulus": "/static/audio/wordpool/MAILBOX.wav", "key_press": -1, "type": "PRES_AUD", "word": "mailbox", "wordID": 856, "conditions": [18, 1200, "a", 18000], "trial": 1, "serialpos": 12, "trial_type": "single-audio", "trial_index": 67, "time_elapsed": 307405, "internal_node_id": "0.0-49.0"}}, {"uniqueid": "MTK0029:352YTHGROWKWQS99Q7TREQ9Z1NM4HS", "current_trial": 68, "dateTime": 1509047047629, "trialdata": {"rt": -1000, "stimulus": "/static/audio/wordpool/OMELET.wav", "key_press": -1, "type": "PRES_AUD", "word": "omelet", "wordID": 975, "conditions": [18, 1200, "a", 18000], "trial": 1, "serialpos": 13, "trial_type": "single-audio", "trial_index": 68, "time_elapsed": 309786, "internal_node_id": "0.0-50.0"}}, {"uniqueid": "MTK0029:352YTHGROWKWQS99Q7TREQ9Z1NM4HS", "current_trial": 69, "dateTime": 1509047049722, "trialdata": {"rt": -1000, "stimulus": "/static/audio/wordpool/JELLY.wav", "key_press": -1, "type": "PRES_AUD", "word": "jelly", "wordID": 754, "conditions": [18, 1200, "a", 18000], "trial": 1, "serialpos": 14, "trial_type": "single-audio", "trial_index": 69, "time_elapsed": 311879, "internal_node_id": "0.0-51.0"}}, {"uniqueid": "MTK0029:352YTHGROWKWQS99Q7TREQ9Z1NM4HS", "current_trial": 70, "dateTime": 1509047051830, "trialdata": {"rt": -1000, "stimulus": "/static/audio/wordpool/SNAIL.wav", "key_press": -1, "type": "PRES_AUD", "word": "snail", "wordID": 1331, "conditions": [18, 1200, "a", 18000], "trial": 1, "serialpos": 15, "trial_type": "single-audio", "trial_index": 70, "time_elapsed": 313987, "internal_node_id": "0.0-52.0"}}, {"uniqueid": "MTK0029:352YTHGROWKWQS99Q7TREQ9Z1NM4HS", "current_trial": 71, "dateTime": 1509047054096, "trialdata": {"rt": -1000, "stimulus": "/static/audio/wordpool/PREACHER.wav", "key_press": -1, "type": "PRES_AUD", "word": "preacher", "wordID": 1118, "conditions": [18, 1200, "a", 18000], "trial": 1, "serialpos": 16, "trial_type": "single-audio", "trial_index": 71, "time_elapsed": 316253, "internal_node_id": "0.0-53.0"}}, {"uniqueid": "MTK0029:352YTHGROWKWQS99Q7TREQ9Z1NM4HS", "current_trial": 72, "dateTime": 1509047056139, "trialdata": {"rt": -1000, "stimulus": "/static/audio/wordpool/SLUG.wav", "key_press": -1, "type": "PRES_AUD", "word": "slug", "wordID": 1328, "conditions": [18, 1200, "a", 18000], "trial": 1, "serialpos": 17, "trial_type": "single-audio", "trial_index": 72, "time_elapsed": 318296, "internal_node_id": "0.0-54.0"}}, {"uniqueid": "MTK0029:352YTHGROWKWQS99Q7TREQ9Z1NM4HS", "current_trial": 73, "dateTime": 1509047057403, "trialdata": {"rt": -1, "stimulus": "", "key_press": -1, "type": "PRE_RECALL_DELAY", "trial_type": "single-stim", "trial_index": 73, "time_elapsed": 319560, "internal_node_id": "0.0-55.0-0.0"}}, {"uniqueid": "MTK0029:352YTHGROWKWQS99Q7TREQ9Z1NM4HS", "current_trial": 74, "dateTime": 1509047057908, "trialdata": {"rt": -1000, "stimulus": "/static/audio/400Hz.wav", "key_press": -1, "type": "PRE_RECALL_ALERT", "trial_type": "single-audio", "trial_index": 74, "time_elapsed": 320065, "internal_node_id": "0.0-56.0"}}, {"uniqueid": "MTK0029:352YTHGROWKWQS99Q7TREQ9Z1NM4HS", "current_trial": 75, "dateTime": 1509047117911, "trialdata": {"rt": [3293, 4969, 6972, 9211, 11989, 15274, 19257, 22441, 25142, 27841, 37628, 45638, 54976], "recwords": ["slug", "snail", "preacher", "branch", "balloon", "liver", "puppy", "omelette", "jelly", "snail", "blouse", "river", "skillet"], "type": "FREE_RECALL", "conditions": [18, 1200, "a", 18000], "trial": 1, "trial_type": "free-recall", "trial_index": 75, "time_elapsed": 380068, "internal_node_id": "0.0-57.0-0.0"}}, {"uniqueid": "MTK0029:352YTHGROWKWQS99Q7TREQ9Z1NM4HS", "current_trial": 76, "dateTime": 1509047156682, "trialdata": {"rt": 36770, "key_press": 32, "type": "INSTRUCTIONS", "trial_type": "text", "trial_index": 76, "time_elapsed": 418839, "internal_node_id": "0.0-58.0"}}, {"uniqueid": "MTK0029:352YTHGROWKWQS99Q7TREQ9Z1NM4HS", "current_trial": 77, "dateTime": 1509047181686, "trialdata": {"rt": [3520, 6584, 10957, 19766], "responses": ["15", "13", "20", "23"], "num1": [4, 2, 3, 9, 1], "num2": [7, 9, 9, 5, 3], "num3": [4, 2, 8, 9, 6], "type": "DISTRACTOR", "conditions": [12, 800, "a", 24000], "trial": 2, "trial_type": "math-distractor", "trial_index": 77, "time_elapsed": 443843, "internal_node_id": "0.0-59.0"}}, {"uniqueid": "MTK0029:352YTHGROWKWQS99Q7TREQ9Z1NM4HS", "current_trial": 78, "dateTime": 1509047184687, "trialdata": {"rt": -1, "stimulus": "<p id=\"stim\">10</p>", "key_press": -1, "trial_type": "single-stim", "trial_index": 78, "time_elapsed": 446844, "internal_node_id": "0.0-60.0-0.0"}}, {"uniqueid": "MTK0029:352YTHGROWKWQS99Q7TREQ9Z1NM4HS", "current_trial": 79, "dateTime": 1509047185689, "trialdata": {"rt": -1, "stimulus": "<p id=\"stim\">9</p>", "key_press": -1, "trial_type": "single-stim", "trial_index": 79, "time_elapsed": 447846, "internal_node_id": "0.0-60.0-1.0"}}, {"uniqueid": "MTK0029:352YTHGROWKWQS99Q7TREQ9Z1NM4HS", "current_trial": 80, "dateTime": 1509047186692, "trialdata": {"rt": -1, "stimulus": "<p id=\"stim\">8</p>", "key_press": -1, "trial_type": "single-stim", "trial_index": 80, "time_elapsed": 448849, "internal_node_id": "0.0-60.0-2.0"}}, {"uniqueid": "MTK0029:352YTHGROWKWQS99Q7TREQ9Z1NM4HS", "current_trial": 81, "dateTime": 1509047187695, "trialdata": {"rt": -1, "stimulus": "<p id=\"stim\">7</p>", "key_press": -1, "trial_type": "single-stim", "trial_index": 81, "time_elapsed": 449852, "internal_node_id": "0.0-60.0-3.0"}}, {"uniqueid": "MTK0029:352YTHGROWKWQS99Q7TREQ9Z1NM4HS", "current_trial": 82, "dateTime": 1509047188696, "trialdata": {"rt": -1, "stimulus": "<p id=\"stim\">6</p>", "key_press": -1, "trial_type": "single-stim", "trial_index": 82, "time_elapsed": 450853, "internal_node_id": "0.0-60.0-4.0"}}, {"uniqueid": "MTK0029:352YTHGROWKWQS99Q7TREQ9Z1NM4HS", "current_trial": 83, "dateTime": 1509047189698, "trialdata": {"rt": -1, "stimulus": "<p id=\"stim\">5</p>", "key_press": -1, "trial_type": "single-stim", "trial_index": 83, "time_elapsed": 451855, "internal_node_id": "0.0-60.0-5.0"}}, {"uniqueid": "MTK0029:352YTHGROWKWQS99Q7TREQ9Z1NM4HS", "current_trial": 84, "dateTime": 1509047190699, "trialdata": {"rt": -1, "stimulus": "<p id=\"stim\">4</p>", "key_press": -1, "trial_type": "single-stim", "trial_index": 84, "time_elapsed": 452856, "internal_node_id": "0.0-60.0-6.0"}}, {"uniqueid": "MTK0029:352YTHGROWKWQS99Q7TREQ9Z1NM4HS", "current_trial": 85, "dateTime": 1509047191701, "trialdata": {"rt": -1, "stimulus": "<p id=\"stim\">3</p>", "key_press": -1, "trial_type": "single-stim", "trial_index": 85, "time_elapsed": 453858, "internal_node_id": "0.0-60.0-7.0"}}, {"uniqueid": "MTK0029:352YTHGROWKWQS99Q7TREQ9Z1NM4HS", "current_trial": 86, "dateTime": 1509047192702, "trialdata": {"rt": -1, "stimulus": "<p id=\"stim\">2</p>", "key_press": -1, "trial_type": "single-stim", "trial_index": 86, "time_elapsed": 454859, "internal_node_id": "0.0-60.0-8.0"}}, {"uniqueid": "MTK0029:352YTHGROWKWQS99Q7TREQ9Z1NM4HS", "current_trial": 87, "dateTime": 1509047193704, "trialdata": {"rt": -1, "stimulus": "<p id=\"stim\">1</p>", "key_press": -1, "trial_type": "single-stim", "trial_index": 87, "time_elapsed": 455861, "internal_node_id": "0.0-60.0-9.0"}}, {"uniqueid": "MTK0029:352YTHGROWKWQS99Q7TREQ9Z1NM4HS", "current_trial": 88, "dateTime": 1509047195207, "trialdata": {"rt": -1, "stimulus": "<p id=\"stim\">+</p>", "key_press": -1, "type": "FIXATION", "trial_type": "single-stim", "trial_index": 88, "time_elapsed": 457364, "internal_node_id": "0.0-61.0-0.0"}}, {"uniqueid": "MTK0029:352YTHGROWKWQS99Q7TREQ9Z1NM4HS", "current_trial": 89, "dateTime": 1509047197036, "trialdata": {"rt": -1000, "stimulus": "/static/audio/wordpool/BUTCHER.wav", "key_press": -1, "type": "PRES_AUD", "word": "butcher", "wordID": 202, "conditions": [12, 800, "a", 24000], "trial": 2, "serialpos": 0, "trial_type": "single-audio", "trial_index": 89, "time_elapsed": 459193, "internal_node_id": "0.0-62.0"}}, {"uniqueid": "MTK0029:352YTHGROWKWQS99Q7TREQ9Z1NM4HS", "current_trial": 90, "dateTime": 1509047198817, "trialdata": {"rt": -1000, "stimulus": "/static/audio/wordpool/FIDDLE.wav", "key_press": -1, "type": "PRES_AUD", "word": "fiddle", "wordID": 560, "conditions": [12, 800, "a", 24000], "trial": 2, "serialpos": 1, "trial_type": "single-audio", "trial_index": 90, "time_elapsed": 460974, "internal_node_id": "0.0-63.0"}}, {"uniqueid": "MTK0029:352YTHGROWKWQS99Q7TREQ9Z1NM4HS", "current_trial": 91, "dateTime": 1509047200540, "trialdata": {"rt": -1000, "stimulus": "/static/audio/wordpool/VENUS.wav", "key_press": -1, "type": "PRES_AUD", "word": "venus", "wordID": 1556, "conditions": [12, 800, "a", 24000], "trial": 2, "serialpos": 2, "trial_type": "single-audio", "trial_index": 91, "time_elapsed": 462697, "internal_node_id": "0.0-64.0"}}, {"uniqueid": "MTK0029:352YTHGROWKWQS99Q7TREQ9Z1NM4HS", "current_trial": 92, "dateTime": 1509047202362, "trialdata": {"rt": -1000, "stimulus": "/static/audio/wordpool/BROTHER.wav", "key_press": -1, "type": "PRES_AUD", "word": "brother", "wordID": 178, "conditions": [12, 800, "a", 24000], "trial": 2, "serialpos": 3, "trial_type": "single-audio", "trial_index": 92, "time_elapsed": 464519, "internal_node_id": "0.0-65.0"}}, {"uniqueid": "MTK0029:352YTHGROWKWQS99Q7TREQ9Z1NM4HS", "current_trial": 93, "dateTime": 1509047204315, "trialdata": {"rt": -1000, "stimulus": "/static/audio/wordpool/AIRPLANE.wav", "key_press": -1, "type": "PRES_AUD", "word": "airplane", "wordID": 11, "conditions": [12, 800, "a", 24000], "trial": 2, "serialpos": 4, "trial_type": "single-audio", "trial_index": 93, "time_elapsed": 466472, "internal_node_id": "0.0-66.0"}}, {"uniqueid": "MTK0029:352YTHGROWKWQS99Q7TREQ9Z1NM4HS", "current_trial": 94, "dateTime": 1509047206097, "trialdata": {"rt": -1000, "stimulus": "/static/audio/wordpool/ROOSTER.wav", "key_press": -1, "type": "PRES_AUD", "word": "rooster", "wordID": 1208, "conditions": [12, 800, "a", 24000], "trial": 2, "serialpos": 5, "trial_type": "single-audio", "trial_index": 94, "time_elapsed": 468254, "internal_node_id": "0.0-67.0"}}, {"uniqueid": "MTK0029:352YTHGROWKWQS99Q7TREQ9Z1NM4HS", "current_trial": 95, "dateTime": 1509047207879, "trialdata": {"rt": -1000, "stimulus": "/static/audio/wordpool/CASHIER.wav", "key_press": -1, "type": "PRES_AUD", "word": "cashier", "wordID": 253, "conditions": [12, 800, "a", 24000], "trial": 2, "serialpos": 6, "trial_type": "single-audio", "trial_index": 95, "time_elapsed": 470036, "internal_node_id": "0.0-68.0"}}, {"uniqueid": "MTK0029:352YTHGROWKWQS99Q7TREQ9Z1NM4HS", "current_trial": 96, "dateTime": 1509047209499, "trialdata": {"rt": -1000, "stimulus": "/static/audio/wordpool/CHAPEL.wav", "key_press": -1, "type": "PRES_AUD", "word": "chapel", "wordID": 279, "conditions": [12, 800, "a", 24000], "trial": 2, "serialpos": 7, "trial_type": "single-audio", "trial_index": 96, "time_elapsed": 471656, "internal_node_id": "0.0-69.0"}}, {"uniqueid": "MTK0029:352YTHGROWKWQS99Q7TREQ9Z1NM4HS", "current_trial": 97, "dateTime": 1509047211183, "trialdata": {"rt": -1000, "stimulus": "/static/audio/wordpool/BANQUET.wav", "key_press": -1, "type": "PRES_AUD", "word": "banquet", "wordID": 85, "conditions": [12, 800, "a", 24000], "trial": 2, "serialpos": 8, "trial_type": "single-audio", "trial_index": 97, "time_elapsed": 473339, "internal_node_id": "0.0-70.0"}}, {"uniqueid": "MTK0029:352YTHGROWKWQS99Q7TREQ9Z1NM4HS", "current_trial": 98, "dateTime": 1509047213018, "trialdata": {"rt": -1000, "stimulus": "/static/audio/wordpool/ARM.wav", "key_press": -1, "type": "PRES_AUD", "word": "arm", "wordID": 37, "conditions": [12, 800, "a", 24000], "trial": 2, "serialpos": 9, "trial_type": "single-audio", "trial_index": 98, "time_elapsed": 475174, "internal_node_id": "0.0-71.0"}}, {"uniqueid": "MTK0029:352YTHGROWKWQS99Q7TREQ9Z1NM4HS", "current_trial": 99, "dateTime": 1509047214815, "trialdata": {"rt": -1000, "stimulus": "/static/audio/wordpool/SHOULDER.wav", "key_press": -1, "type": "PRES_AUD", "word": "shoulder", "wordID": 1293, "conditions": [12, 800, "a", 24000], "trial": 2, "serialpos": 10, "trial_type": "single-audio", "trial_index": 99, "time_elapsed": 476972, "internal_node_id": "0.0-72.0"}}, {"uniqueid": "MTK0029:352YTHGROWKWQS99Q7TREQ9Z1NM4HS", "current_trial": 100, "dateTime": 1509047216627, "trialdata": {"rt": -1000, "stimulus": "/static/audio/wordpool/TROMBONE.wav", "key_press": -1, "type": "PRES_AUD", "word": "trombone", "wordID": 1507, "conditions": [12, 800, "a", 24000], "trial": 2, "serialpos": 11, "trial_type": "single-audio", "trial_index": 100, "time_elapsed": 478784, "internal_node_id": "0.0-73.0"}}, {"uniqueid": "MTK0029:352YTHGROWKWQS99Q7TREQ9Z1NM4HS", "current_trial": 101, "dateTime": 1509047217887, "trialdata": {"rt": -1, "stimulus": "", "key_press": -1, "type": "PRE_RECALL_DELAY", "trial_type": "single-stim", "trial_index": 101, "time_elapsed": 480044, "internal_node_id": "0.0-74.0-0.0"}}, {"uniqueid": "MTK0029:352YTHGROWKWQS99Q7TREQ9Z1NM4HS", "current_trial": 102, "dateTime": 1509047218392, "trialdata": {"rt": -1000, "stimulus": "/static/audio/400Hz.wav", "key_press": -1, "type": "PRE_RECALL_ALERT", "trial_type": "single-audio", "trial_index": 102, "time_elapsed": 480549, "internal_node_id": "0.0-75.0"}}, {"uniqueid": "MTK0029:352YTHGROWKWQS99Q7TREQ9Z1NM4HS", "current_trial": 103, "dateTime": 1509047278399, "trialdata": {"rt": [1885, 4079, 7218, 10368, 16769, 19267], "recwords": ["arm", "shoulder", "trombone", "banker", "cashier", "venus"], "type": "FREE_RECALL", "conditions": [12, 800, "a", 24000], "trial": 2, "trial_type": "free-recall", "trial_index": 103, "time_elapsed": 540556, "internal_node_id": "0.0-76.0-0.0"}}, {"uniqueid": "MTK0029:352YTHGROWKWQS99Q7TREQ9Z1NM4HS", "current_trial": 104, "dateTime": 1509047282446, "trialdata": {"rt": 2046, "key_press": 32, "type": "INSTRUCTIONS", "trial_type": "text", "trial_index": 104, "time_elapsed": 544603, "internal_node_id": "0.0-77.0"}}, {"uniqueid": "MTK0029:352YTHGROWKWQS99Q7TREQ9Z1NM4HS", "current_trial": 105, "dateTime": 1509047296452, "trialdata": {"rt": [3803, 9248], "responses": ["19", "13"], "num1": [9, 7, 4], "num2": [8, 1, 1], "num3": [2, 5, 4], "type": "DISTRACTOR", "conditions": [24, 1600, "v", 12000], "trial": 3, "trial_type": "math-distractor", "trial_index": 105, "time_elapsed": 558609, "internal_node_id": "0.0-78.0"}}, {"uniqueid": "MTK0029:352YTHGROWKWQS99Q7TREQ9Z1NM4HS", "current_trial": 106, "dateTime": 1509047299458, "trialdata": {"rt": -1, "stimulus": "<p id=\"stim\">10</p>", "key_press": -1, "trial_type": "single-stim", "trial_index": 106, "time_elapsed": 561615, "internal_node_id": "0.0-79.0-0.0"}}, {"uniqueid": "MTK0029:352YTHGROWKWQS99Q7TREQ9Z1NM4HS", "current_trial": 107, "dateTime": 1509047300462, "trialdata": {"rt": -1, "stimulus": "<p id=\"stim\">9</p>", "key_press": -1, "trial_type": "single-stim", "trial_index": 107, "time_elapsed": 562619, "internal_node_id": "0.0-79.0-1.0"}}, {"uniqueid": "MTK0029:352YTHGROWKWQS99Q7TREQ9Z1NM4HS", "current_trial": 108, "dateTime": 1509047301468, "trialdata": {"rt": -1, "stimulus": "<p id=\"stim\">8</p>", "key_press": -1, "trial_type": "single-stim", "trial_index": 108, "time_elapsed": 563624, "internal_node_id": "0.0-79.0-2.0"}}, {"uniqueid": "MTK0029:352YTHGROWKWQS99Q7TREQ9Z1NM4HS", "current_trial": 109, "dateTime": 1509047302471, "trialdata": {"rt": -1, "stimulus": "<p id=\"stim\">7</p>", "key_press": -1, "trial_type": "single-stim", "trial_index": 109, "time_elapsed": 564628, "internal_node_id": "0.0-79.0-3.0"}}, {"uniqueid": "MTK0029:352YTHGROWKWQS99Q7TREQ9Z1NM4HS", "current_trial": 110, "dateTime": 1509047303476, "trialdata": {"rt": -1, "stimulus": "<p id=\"stim\">6</p>", "key_press": -1, "trial_type": "single-stim", "trial_index": 110, "time_elapsed": 565633, "internal_node_id": "0.0-79.0-4.0"}}, {"uniqueid": "MTK0029:352YTHGROWKWQS99Q7TREQ9Z1NM4HS", "current_trial": 111, "dateTime": 1509047304479, "trialdata": {"rt": -1, "stimulus": "<p id=\"stim\">5</p>", "key_press": -1, "trial_type": "single-stim", "trial_index": 111, "time_elapsed": 566636, "internal_node_id": "0.0-79.0-5.0"}}, {"uniqueid": "MTK0029:352YTHGROWKWQS99Q7TREQ9Z1NM4HS", "current_trial": 112, "dateTime": 1509047305484, "trialdata": {"rt": -1, "stimulus": "<p id=\"stim\">4</p>", "key_press": -1, "trial_type": "single-stim", "trial_index": 112, "time_elapsed": 567641, "internal_node_id": "0.0-79.0-6.0"}}, {"uniqueid": "MTK0029:352YTHGROWKWQS99Q7TREQ9Z1NM4HS", "current_trial": 113, "dateTime": 1509047306488, "trialdata": {"rt": -1, "stimulus": "<p id=\"stim\">3</p>", "key_press": -1, "trial_type": "single-stim", "trial_index": 113, "time_elapsed": 568645, "internal_node_id": "0.0-79.0-7.0"}}, {"uniqueid": "MTK0029:352YTHGROWKWQS99Q7TREQ9Z1NM4HS", "current_trial": 114, "dateTime": 1509047307493, "trialdata": {"rt": -1, "stimulus": "<p id=\"stim\">2</p>", "key_press": -1, "trial_type": "single-stim", "trial_index": 114, "time_elapsed": 569650, "internal_node_id": "0.0-79.0-8.0"}}, {"uniqueid": "MTK0029:352YTHGROWKWQS99Q7TREQ9Z1NM4HS", "current_trial": 115, "dateTime": 1509047308496, "trialdata": {"rt": -1, "stimulus": "<p id=\"stim\">1</p>", "key_press": -1, "trial_type": "single-stim", "trial_index": 115, "time_elapsed": 570653, "internal_node_id": "0.0-79.0-9.0"}}, {"uniqueid": "MTK0029:352YTHGROWKWQS99Q7TREQ9Z1NM4HS", "current_trial": 116, "dateTime": 1509047310000, "trialdata": {"rt": -1, "stimulus": "<p id=\"stim\">+</p>", "key_press": -1, "type": "FIXATION", "trial_type": "single-stim", "trial_index": 116, "time_elapsed": 572157, "internal_node_id": "0.0-80.0-0.0"}}, {"uniqueid": "MTK0029:352YTHGROWKWQS99Q7TREQ9Z1NM4HS", "current_trial": 117, "dateTime": 1509047311602, "trialdata": {"rt": -1, "stimulus": "<p id=\"stim\">LUGGAGE</p>", "key_press": -1, "type": "PRES_VIS", "word": "luggage", "wordID": 846, "conditions": [24, 1600, "v", 12000], "trial": 3, "serialpos": 0, "trial_type": "single-stim", "trial_index": 117, "time_elapsed": 573759, "internal_node_id": "0.0-81.0"}}, {"uniqueid": "MTK0029:352YTHGROWKWQS99Q7TREQ9Z1NM4HS", "current_trial": 118, "dateTime": 1509047314012, "trialdata": {"rt": -1, "stimulus": "<p id=\"stim\">HANDBAG</p>", "key_press": -1, "type": "PRES_VIS", "word": "handbag", "wordID": 683, "conditions": [24, 1600, "v", 12000], "trial": 3, "serialpos": 1, "trial_type": "single-stim", "trial_index": 118, "time_elapsed": 576169, "internal_node_id": "0.0-82.0"}}, {"uniqueid": "MTK0029:352YTHGROWKWQS99Q7TREQ9Z1NM4HS", "current_trial": 119, "dateTime": 1509047316769, "trialdata": {"rt": -1, "stimulus": "<p id=\"stim\">APPLE</p>", "key_press": -1, "type": "PRES_VIS", "word": "apple", "wordID": 32, "conditions": [24, 1600, "v", 12000], "trial": 3, "serialpos": 2, "trial_type": "single-stim", "trial_index": 119, "time_elapsed": 578926, "internal_node_id": "0.0-83.0"}}, {"uniqueid": "MTK0029:352YTHGROWKWQS99Q7TREQ9Z1NM4HS", "current_trial": 120, "dateTime": 1509047319294, "trialdata": {"rt": -1, "stimulus": "<p id=\"stim\">CANAL</p>", "key_press": -1, "type": "PRES_VIS", "word": "canal", "wordID": 225, "conditions": [24, 1600, "v", 12000], "trial": 3, "serialpos": 3, "trial_type": "single-stim", "trial_index": 120, "time_elapsed": 581451, "internal_node_id": "0.0-84.0"}}, {"uniqueid": "MTK0029:352YTHGROWKWQS99Q7TREQ9Z1NM4HS", "current_trial": 121, "dateTime": 1509047321867, "trialdata": {"rt": -1, "stimulus": "<p id=\"stim\">LAGOON</p>", "key_press": -1, "type": "PRES_VIS", "word": "lagoon", "wordID": 794, "conditions": [24, 1600, "v", 12000], "trial": 3, "serialpos": 4, "trial_type": "single-stim", "trial_index": 121, "time_elapsed": 584024, "internal_node_id": "0.0-85.0"}}, {"uniqueid": "MTK0029:352YTHGROWKWQS99Q7TREQ9Z1NM4HS", "current_trial": 122, "dateTime": 1509047324588, "trialdata": {"rt": -1, "stimulus": "<p id=\"stim\">PEACH</p>", "key_press": -1, "type": "PRES_VIS", "word": "peach", "wordID": 1030, "conditions": [24, 1600, "v", 12000], "trial": 3, "serialpos": 5, "trial_type": "single-stim", "trial_index": 122, "time_elapsed": 586745, "internal_node_id": "0.0-86.0"}}, {"uniqueid": "MTK0029:352YTHGROWKWQS99Q7TREQ9Z1NM4HS", "current_trial": 123, "dateTime": 1509047327056, "trialdata": {"rt": -1, "stimulus": "<p id=\"stim\">QUAIL</p>", "key_press": -1, "type": "PRES_VIS", "word": "quail", "wordID": 1146, "conditions": [24, 1600, "v", 12000], "trial": 3, "serialpos": 6, "trial_type": "single-stim", "trial_index": 123, "time_elapsed": 589213, "internal_node_id": "0.0-87.0"}}, {"uniqueid": "MTK0029:352YTHGROWKWQS99Q7TREQ9Z1NM4HS", "current_trial": 124, "dateTime": 1509047329784, "trialdata": {"rt": -1, "stimulus": "<p id=\"stim\">CONVICT</p>", "key_press": -1, "type": "PRES_VIS", "word": "convict", "wordID": 370, "conditions": [24, 1600, "v", 12000], "trial": 3, "serialpos": 7, "trial_type": "single-stim", "trial_index": 124, "time_elapsed": 591941, "internal_node_id": "0.0-88.0"}}, {"uniqueid": "MTK0029:352YTHGROWKWQS99Q7TREQ9Z1NM4HS", "current_trial": 125, "dateTime": 1509047332295, "trialdata": {"rt": -1, "stimulus": "<p id=\"stim\">ROBBER</p>", "key_press": -1, "type": "PRES_VIS", "word": "robber", "wordID": 1196, "conditions": [24, 1600, "v", 12000], "trial": 3, "serialpos": 8, "trial_type": "single-stim", "trial_index": 125, "time_elapsed": 594452, "internal_node_id": "0.0-89.0"}}, {"uniqueid": "MTK0029:352YTHGROWKWQS99Q7TREQ9Z1NM4HS", "current_trial": 126, "dateTime": 1509047334766, "trialdata": {"rt": -1, "stimulus": "<p id=\"stim\">THREAD</p>", "key_press": -1, "type": "PRES_VIS", "word": "thread", "wordID": 1459, "conditions": [24, 1600, "v", 12000], "trial": 3, "serialpos": 9, "trial_type": "single-stim", "trial_index": 126, "time_elapsed": 596922, "internal_node_id": "0.0-90.0"}}, {"uniqueid": "MTK0029:352YTHGROWKWQS99Q7TREQ9Z1NM4HS", "current_trial": 127, "dateTime": 1509047337556, "trialdata": {"rt": -1, "stimulus": "<p id=\"stim\">TURTLE</p>", "key_press": -1, "type": "PRES_VIS", "word": "turtle", "wordID": 1521, "conditions": [24, 1600, "v", 12000], "trial": 3, "serialpos": 10, "trial_type": "single-stim", "trial_index": 127, "time_elapsed": 599713, "internal_node_id": "0.0-91.0"}}, {"uniqueid": "MTK0029:352YTHGROWKWQS99Q7TREQ9Z1NM4HS", "current_trial": 128, "dateTime": 1509047340018, "trialdata": {"rt": -1, "stimulus": "<p id=\"stim\">FLASK</p>", "key_press": -1, "type": "PRES_VIS", "word": "flask", "wordID": 575, "conditions": [24, 1600, "v", 12000], "trial": 3, "serialpos": 11, "trial_type": "single-stim", "trial_index": 128, "time_elapsed": 602175, "internal_node_id": "0.0-92.0"}}, {"uniqueid": "MTK0029:352YTHGROWKWQS99Q7TREQ9Z1NM4HS", "current_trial": 129, "dateTime": 1509047342561, "trialdata": {"rt": -1, "stimulus": "<p id=\"stim\">DINER</p>", "key_press": -1, "type": "PRES_VIS", "word": "diner", "wordID": 466, "conditions": [24, 1600, "v", 12000], "trial": 3, "serialpos": 12, "trial_type": "single-stim", "trial_index": 129, "time_elapsed": 604717, "internal_node_id": "0.0-93.0"}}, {"uniqueid": "MTK0029:352YTHGROWKWQS99Q7TREQ9Z1NM4HS", "current_trial": 130, "dateTime": 1509047345144, "trialdata": {"rt": -1, "stimulus": "<p id=\"stim\">SOFTBALL</p>", "key_press": -1, "type": "PRES_VIS", "word": "softball", "wordID": 1342, "conditions": [24, 1600, "v", 12000], "trial": 3, "serialpos": 13, "trial_type": "single-stim", "trial_index": 130, "time_elapsed": 607301, "internal_node_id": "0.0-94.0"}}, {"uniqueid": "MTK0029:352YTHGROWKWQS99Q7TREQ9Z1NM4HS", "current_trial": 131, "dateTime": 1509047347559, "trialdata": {"rt": -1, "stimulus": "<p id=\"stim\">TWIG</p>", "key_press": -1, "type": "PRES_VIS", "word": "twig", "wordID": 1526, "conditions": [24, 1600, "v", 12000], "trial": 3, "serialpos": 14, "trial_type": "single-stim", "trial_index": 131, "time_elapsed": 609715, "internal_node_id": "0.0-95.0"}}, {"uniqueid": "MTK0029:352YTHGROWKWQS99Q7TREQ9Z1NM4HS", "current_trial": 132, "dateTime": 1509047350026, "trialdata": {"rt": -1, "stimulus": "<p id=\"stim\">FIREPLACE</p>", "key_press": -1, "type": "PRES_VIS", "word": "fireplace", "wordID": 569, "conditions": [24, 1600, "v", 12000], "trial": 3, "serialpos": 15, "trial_type": "single-stim", "trial_index": 132, "time_elapsed": 612182, "internal_node_id": "0.0-96.0"}}, {"uniqueid": "MTK0029:352YTHGROWKWQS99Q7TREQ9Z1NM4HS", "current_trial": 133, "dateTime": 1509047352446, "trialdata": {"rt": -1, "stimulus": "<p id=\"stim\">CRIB</p>", "key_press": -1, "type": "PRES_VIS", "word": "crib", "wordID": 406, "conditions": [24, 1600, "v", 12000], "trial": 3, "serialpos": 16, "trial_type": "single-stim", "trial_index": 133, "time_elapsed": 614603, "internal_node_id": "0.0-97.0"}}, {"uniqueid": "MTK0029:352YTHGROWKWQS99Q7TREQ9Z1NM4HS", "current_trial": 134, "dateTime": 1509047355180, "trialdata": {"rt": -1, "stimulus": "<p id=\"stim\">DIME</p>", "key_press": -1, "type": "PRES_VIS", "word": "dime", "wordID": 465, "conditions": [24, 1600, "v", 12000], "trial": 3, "serialpos": 17, "trial_type": "single-stim", "trial_index": 134, "time_elapsed": 617337, "internal_node_id": "0.0-98.0"}}, {"uniqueid": "MTK0029:352YTHGROWKWQS99Q7TREQ9Z1NM4HS", "current_trial": 135, "dateTime": 1509047357856, "trialdata": {"rt": -1, "stimulus": "<p id=\"stim\">DAUGHTER</p>", "key_press": -1, "type": "PRES_VIS", "word": "daughter", "wordID": 441, "conditions": [24, 1600, "v", 12000], "trial": 3, "serialpos": 18, "trial_type": "single-stim", "trial_index": 135, "time_elapsed": 620013, "internal_node_id": "0.0-99.0"}}, {"uniqueid": "MTK0029:352YTHGROWKWQS99Q7TREQ9Z1NM4HS", "current_trial": 136, "dateTime": 1509047360273, "trialdata": {"rt": -1, "stimulus": "<p id=\"stim\">MISTER</p>", "key_press": -1, "type": "PRES_VIS", "word": "mister", "wordID": 900, "conditions": [24, 1600, "v", 12000], "trial": 3, "serialpos": 19, "trial_type": "single-stim", "trial_index": 136, "time_elapsed": 622429, "internal_node_id": "0.0-100.0"}}, {"uniqueid": "MTK0029:352YTHGROWKWQS99Q7TREQ9Z1NM4HS", "current_trial": 137, "dateTime": 1509047363034, "trialdata": {"rt": -1, "stimulus": "<p id=\"stim\">INFANT</p>", "key_press": -1, "type": "PRES_VIS", "word": "infant", "wordID": 736, "conditions": [24, 1600, "v", 12000], "trial": 3, "serialpos": 20, "trial_type": "single-stim", "trial_index": 137, "time_elapsed": 625191, "internal_node_id": "0.0-101.0"}}, {"uniqueid": "MTK0029:352YTHGROWKWQS99Q7TREQ9Z1NM4HS", "current_trial": 138, "dateTime": 1509047365687, "trialdata": {"rt": -1, "stimulus": "<p id=\"stim\">BEAST</p>", "key_press": -1, "type": "PRES_VIS", "word": "beast", "wordID": 107, "conditions": [24, 1600, "v", 12000], "trial": 3, "serialpos": 21, "trial_type": "single-stim", "trial_index": 138, "time_elapsed": 627843, "internal_node_id": "0.0-102.0"}}, {"uniqueid": "MTK0029:352YTHGROWKWQS99Q7TREQ9Z1NM4HS", "current_trial": 139, "dateTime": 1509047368305, "trialdata": {"rt": -1, "stimulus": "<p id=\"stim\">MONSTER</p>", "key_press": -1, "type": "PRES_VIS", "word": "monster", "wordID": 911, "conditions": [24, 1600, "v", 12000], "trial": 3, "serialpos": 22, "trial_type": "single-stim", "trial_index": 139, "time_elapsed": 630462, "internal_node_id": "0.0-103.0"}}, {"uniqueid": "MTK0029:352YTHGROWKWQS99Q7TREQ9Z1NM4HS", "current_trial": 140, "dateTime": 1509047370865, "trialdata": {"rt": -1, "stimulus": "<p id=\"stim\">BEEF</p>", "key_press": -1, "type": "PRES_VIS", "word": "beef", "wordID": 112, "conditions": [24, 1600, "v", 12000], "trial": 3, "serialpos": 23, "trial_type": "single-stim", "trial_index": 140, "time_elapsed": 633022, "internal_node_id": "0.0-104.0"}}, {"uniqueid": "MTK0029:352YTHGROWKWQS99Q7TREQ9Z1NM4HS", "current_trial": 141, "dateTime": 1509047373315, "trialdata": {"rt": -1, "stimulus": "", "key_press": -1, "type": "PRE_RECALL_DELAY", "trial_type": "single-stim", "trial_index": 141, "time_elapsed": 635472, "internal_node_id": "0.0-105.0-0.0"}}, {"uniqueid": "MTK0029:352YTHGROWKWQS99Q7TREQ9Z1NM4HS", "current_trial": 142, "dateTime": 1509047373820, "trialdata": {"rt": -1000, "stimulus": "/static/audio/400Hz.wav", "key_press": -1, "type": "PRE_RECALL_ALERT", "trial_type": "single-audio", "trial_index": 142, "time_elapsed": 635977, "internal_node_id": "0.0-106.0"}}, {"uniqueid": "MTK0029:352YTHGROWKWQS99Q7TREQ9Z1NM4HS", "current_trial": 143, "dateTime": 1509047433823, "trialdata": {"rt": [1572, 4148, 6769, 10685, 12563, 15151, 19999, 28954, 32970, 47584], "recwords": ["beef", "beast", "monster", "apple", "peach", "daughter", "infant", "canal", "lagoon", "dime"], "type": "FREE_RECALL", "conditions": [24, 1600, "v", 12000], "trial": 3, "trial_type": "free-recall", "trial_index": 143, "time_elapsed": 695980, "internal_node_id": "0.0-107.0-0.0"}}, {"uniqueid": "MTK0029:352YTHGROWKWQS99Q7TREQ9Z1NM4HS", "current_trial": 144, "dateTime": 1509047437077, "trialdata": {"rt": 1251, "key_press": 13, "type": "INSTRUCTIONS", "trial_type": "text", "trial_index": 144, "time_elapsed": 699234, "internal_node_id": "0.0-108.0"}}, {"uniqueid": "MTK0029:352YTHGROWKWQS99Q7TREQ9Z1NM4HS", "current_trial": 145, "dateTime": 1509047451082, "trialdata": {"rt": [7943], "responses": ["10"], "num1": [6, 7], "num2": [1, 5], "num3": [3, 6], "type": "DISTRACTOR", "conditions": [24, 800, "v", 12000], "trial": 4, "trial_type": "math-distractor", "trial_index": 145, "time_elapsed": 713239, "internal_node_id": "0.0-109.0"}}, {"uniqueid": "MTK0029:352YTHGROWKWQS99Q7TREQ9Z1NM4HS", "current_trial": 146, "dateTime": 1509047454091, "trialdata": {"rt": -1, "stimulus": "<p id=\"stim\">10</p>", "key_press": -1, "trial_type": "single-stim", "trial_index": 146, "time_elapsed": 716248, "internal_node_id": "0.0-110.0-0.0"}}, {"uniqueid": "MTK0029:352YTHGROWKWQS99Q7TREQ9Z1NM4HS", "current_trial": 147, "dateTime": 1509047455095, "trialdata": {"rt": -1, "stimulus": "<p id=\"stim\">9</p>", "key_press": -1, "trial_type": "single-stim", "trial_index": 147, "time_elapsed": 717251, "internal_node_id": "0.0-110.0-1.0"}}, {"uniqueid": "MTK0029:352YTHGROWKWQS99Q7TREQ9Z1NM4HS", "current_trial": 148, "dateTime": 1509047456100, "trialdata": {"rt": -1, "stimulus": "<p id=\"stim\">8</p>", "key_press": -1, "trial_type": "single-stim", "trial_index": 148, "time_elapsed": 718256, "internal_node_id": "0.0-110.0-2.0"}}, {"uniqueid": "MTK0029:352YTHGROWKWQS99Q7TREQ9Z1NM4HS", "current_trial": 149, "dateTime": 1509047457104, "trialdata": {"rt": -1, "stimulus": "<p id=\"stim\">7</p>", "key_press": -1, "trial_type": "single-stim", "trial_index": 149, "time_elapsed": 719261, "internal_node_id": "0.0-110.0-3.0"}}, {"uniqueid": "MTK0029:352YTHGROWKWQS99Q7TREQ9Z1NM4HS", "current_trial": 150, "dateTime": 1509047458108, "trialdata": {"rt": -1, "stimulus": "<p id=\"stim\">6</p>", "key_press": -1, "trial_type": "single-stim", "trial_index": 150, "time_elapsed": 720265, "internal_node_id": "0.0-110.0-4.0"}}, {"uniqueid": "MTK0029:352YTHGROWKWQS99Q7TREQ9Z1NM4HS", "current_trial": 151, "dateTime": 1509047459112, "trialdata": {"rt": -1, "stimulus": "<p id=\"stim\">5</p>", "key_press": -1, "trial_type": "single-stim", "trial_index": 151, "time_elapsed": 721268, "internal_node_id": "0.0-110.0-5.0"}}, {"uniqueid": "MTK0029:352YTHGROWKWQS99Q7TREQ9Z1NM4HS", "current_trial": 152, "dateTime": 1509047460116, "trialdata": {"rt": -1, "stimulus": "<p id=\"stim\">4</p>", "key_press": -1, "trial_type": "single-stim", "trial_index": 152, "time_elapsed": 722273, "internal_node_id": "0.0-110.0-6.0"}}, {"uniqueid": "MTK0029:352YTHGROWKWQS99Q7TREQ9Z1NM4HS", "current_trial": 153, "dateTime": 1509047461121, "trialdata": {"rt": -1, "stimulus": "<p id=\"stim\">3</p>", "key_press": -1, "trial_type": "single-stim", "trial_index": 153, "time_elapsed": 723278, "internal_node_id": "0.0-110.0-7.0"}}, {"uniqueid": "MTK0029:352YTHGROWKWQS99Q7TREQ9Z1NM4HS", "current_trial": 154, "dateTime": 1509047462124, "trialdata": {"rt": -1, "stimulus": "<p id=\"stim\">2</p>", "key_press": -1, "trial_type": "single-stim", "trial_index": 154, "time_elapsed": 724281, "internal_node_id": "0.0-110.0-8.0"}}, {"uniqueid": "MTK0029:352YTHGROWKWQS99Q7TREQ9Z1NM4HS", "current_trial": 155, "dateTime": 1509047463129, "trialdata": {"rt": -1, "stimulus": "<p id=\"stim\">1</p>", "key_press": -1, "trial_type": "single-stim", "trial_index": 155, "time_elapsed": 725286, "internal_node_id": "0.0-110.0-9.0"}}, {"uniqueid": "MTK0029:352YTHGROWKWQS99Q7TREQ9Z1NM4HS", "current_trial": 156, "dateTime": 1509047464632, "trialdata": {"rt": -1, "stimulus": "<p id=\"stim\">+</p>", "key_press": -1, "type": "FIXATION", "trial_type": "single-stim", "trial_index": 156, "time_elapsed": 726789, "internal_node_id": "0.0-111.0-0.0"}}, {"uniqueid": "MTK0029:352YTHGROWKWQS99Q7TREQ9Z1NM4HS", "current_trial": 157, "dateTime": 1509047465433, "trialdata": {"rt": -1, "stimulus": "<p id=\"stim\">PENGUIN</p>", "key_press": -1, "type": "PRES_VIS", "word": "penguin", "wordID": 1043, "conditions": [24, 800, "v", 12000], "trial": 4, "serialpos": 0, "trial_type": "single-stim", "trial_index": 157, "time_elapsed": 727590, "internal_node_id": "0.0-112.0"}}, {"uniqueid": "MTK0029:352YTHGROWKWQS99Q7TREQ9Z1NM4HS", "current_trial": 158, "dateTime": 1509047467192, "trialdata": {"rt": -1, "stimulus": "<p id=\"stim\">LAVA</p>", "key_press": -1, "type": "PRES_VIS", "word": "lava", "wordID": 803, "conditions": [24, 800, "v", 12000], "trial": 4, "serialpos": 1, "trial_type": "single-stim", "trial_index": 158, "time_elapsed": 729349, "internal_node_id": "0.0-113.0"}}, {"uniqueid": "MTK0029:352YTHGROWKWQS99Q7TREQ9Z1NM4HS", "current_trial": 159, "dateTime": 1509047468806, "trialdata": {"rt": -1, "stimulus": "<p id=\"stim\">STOVE</p>", "key_press": -1, "type": "PRES_VIS", "word": "stove", "wordID": 1387, "conditions": [24, 800, "v", 12000], "trial": 4, "serialpos": 2, "trial_type": "single-stim", "trial_index": 159, "time_elapsed": 730963, "internal_node_id": "0.0-114.0"}}, {"uniqueid": "MTK0029:352YTHGROWKWQS99Q7TREQ9Z1NM4HS", "current_trial": 160, "dateTime": 1509047470652, "trialdata": {"rt": -1, "stimulus": "<p id=\"stim\">TOASTER</p>", "key_press": -1, "type": "PRES_VIS", "word": "toaster", "wordID": 1471, "conditions": [24, 800, "v", 12000], "trial": 4, "serialpos": 3, "trial_type": "single-stim", "trial_index": 160, "time_elapsed": 732809, "internal_node_id": "0.0-115.0"}}, {"uniqueid": "MTK0029:352YTHGROWKWQS99Q7TREQ9Z1NM4HS", "current_trial": 161, "dateTime": 1509047472505, "trialdata": {"rt": -1, "stimulus": "<p id=\"stim\">CRATER</p>", "key_press": -1, "type": "PRES_VIS", "word": "crater", "wordID": 399, "conditions": [24, 800, "v", 12000], "trial": 4, "serialpos": 4, "trial_type": "single-stim", "trial_index": 161, "time_elapsed": 734662, "internal_node_id": "0.0-116.0"}}, {"uniqueid": "MTK0029:352YTHGROWKWQS99Q7TREQ9Z1NM4HS", "current_trial": 162, "dateTime": 1509047474353, "trialdata": {"rt": -1, "stimulus": "<p id=\"stim\">PERFUME</p>", "key_press": -1, "type": "PRES_VIS", "word": "perfume", "wordID": 1048, "conditions": [24, 800, "v", 12000], "trial": 4, "serialpos": 5, "trial_type": "single-stim", "trial_index": 162, "time_elapsed": 736510, "internal_node_id": "0.0-117.0"}}, {"uniqueid": "MTK0029:352YTHGROWKWQS99Q7TREQ9Z1NM4HS", "current_trial": 163, "dateTime": 1509047476294, "trialdata": {"rt": -1, "stimulus": "<p id=\"stim\">MARINE</p>", "key_press": -1, "type": "PRES_VIS", "word": "marine", "wordID": 868, "conditions": [24, 800, "v", 12000], "trial": 4, "serialpos": 6, "trial_type": "single-stim", "trial_index": 163, "time_elapsed": 738451, "internal_node_id": "0.0-118.0"}}, {"uniqueid": "MTK0029:352YTHGROWKWQS99Q7TREQ9Z1NM4HS", "current_trial": 164, "dateTime": 1509047478007, "trialdata": {"rt": -1, "stimulus": "<p id=\"stim\">GANGSTER</p>", "key_press": -1, "type": "PRES_VIS", "word": "gangster", "wordID": 619, "conditions": [24, 800, "v", 12000], "trial": 4, "serialpos": 7, "trial_type": "single-stim", "trial_index": 164, "time_elapsed": 740163, "internal_node_id": "0.0-119.0"}}, {"uniqueid": "MTK0029:352YTHGROWKWQS99Q7TREQ9Z1NM4HS", "current_trial": 165, "dateTime": 1509047479707, "trialdata": {"rt": -1, "stimulus": "<p id=\"stim\">COMPASS</p>", "key_press": -1, "type": "PRES_VIS", "word": "compass", "wordID": 357, "conditions": [24, 800, "v", 12000], "trial": 4, "serialpos": 8, "trial_type": "single-stim", "trial_index": 165, "time_elapsed": 741864, "internal_node_id": "0.0-120.0"}}, {"uniqueid": "MTK0029:352YTHGROWKWQS99Q7TREQ9Z1NM4HS", "current_trial": 166, "dateTime": 1509047481501, "trialdata": {"rt": -1, "stimulus": "<p id=\"stim\">KNAPSACK</p>", "key_press": -1, "type": "PRES_VIS", "word": "knapsack", "wordID": 782, "conditions": [24, 800, "v", 12000], "trial": 4, "serialpos": 9, "trial_type": "single-stim", "trial_index": 166, "time_elapsed": 743658, "internal_node_id": "0.0-121.0"}}, {"uniqueid": "MTK0029:352YTHGROWKWQS99Q7TREQ9Z1NM4HS", "current_trial": 167, "dateTime": 1509047483196, "trialdata": {"rt": -1, "stimulus": "<p id=\"stim\">SHELF</p>", "key_press": -1, "type": "PRES_VIS", "word": "shelf", "wordID": 1279, "conditions": [24, 800, "v", 12000], "trial": 4, "serialpos": 10, "trial_type": "single-stim", "trial_index": 167, "time_elapsed": 745352, "internal_node_id": "0.0-122.0"}}, {"uniqueid": "MTK0029:352YTHGROWKWQS99Q7TREQ9Z1NM4HS", "current_trial": 168, "dateTime": 1509047484966, "trialdata": {"rt": -1, "stimulus": "<p id=\"stim\">LUMBER</p>", "key_press": -1, "type": "PRES_VIS", "word": "lumber", "wordID": 847, "conditions": [24, 800, "v", 12000], "trial": 4, "serialpos": 11, "trial_type": "single-stim", "trial_index": 168, "time_elapsed": 747123, "internal_node_id": "0.0-123.0"}}, {"uniqueid": "MTK0029:352YTHGROWKWQS99Q7TREQ9Z1NM4HS", "current_trial": 169, "dateTime": 1509047486848, "trialdata": {"rt": -1, "stimulus": "<p id=\"stim\">DOUGHNUT</p>", "key_press": -1, "type": "PRES_VIS", "word": "doughnut", "wordID": 489, "conditions": [24, 800, "v", 12000], "trial": 4, "serialpos": 12, "trial_type": "single-stim", "trial_index": 169, "time_elapsed": 749004, "internal_node_id": "0.0-124.0"}}, {"uniqueid": "MTK0029:352YTHGROWKWQS99Q7TREQ9Z1NM4HS", "current_trial": 170, "dateTime": 1509047488850, "trialdata": {"rt": -1, "stimulus": "<p id=\"stim\">PICTURE</p>", "key_press": -1, "type": "PRES_VIS", "word": "picture", "wordID": 1060, "conditions": [24, 800, "v", 12000], "trial": 4, "serialpos": 13, "trial_type": "single-stim", "trial_index": 170, "time_elapsed": 751006, "internal_node_id": "0.0-125.0"}}, {"uniqueid": "MTK0029:352YTHGROWKWQS99Q7TREQ9Z1NM4HS", "current_trial": 171, "dateTime": 1509047490760, "trialdata": {"rt": -1, "stimulus": "<p id=\"stim\">BODY</p>", "key_press": -1, "type": "PRES_VIS", "word": "body", "wordID": 144, "conditions": [24, 800, "v", 12000], "trial": 4, "serialpos": 14, "trial_type": "single-stim", "trial_index": 171, "time_elapsed": 752917, "internal_node_id": "0.0-126.0"}}, {"uniqueid": "MTK0029:352YTHGROWKWQS99Q7TREQ9Z1NM4HS", "current_trial": 172, "dateTime": 1509047492532, "trialdata": {"rt": -1, "stimulus": "<p id=\"stim\">FRECKLE</p>", "key_press": -1, "type": "PRES_VIS", "word": "freckle", "wordID": 601, "conditions": [24, 800, "v", 12000], "trial": 4, "serialpos": 15, "trial_type": "single-stim", "trial_index": 172, "time_elapsed": 754688, "internal_node_id": "0.0-127.0"}}, {"uniqueid": "MTK0029:352YTHGROWKWQS99Q7TREQ9Z1NM4HS", "current_trial": 173, "dateTime": 1509047494334, "trialdata": {"rt": -1, "stimulus": "<p id=\"stim\">PIMPLE</p>", "key_press": -1, "type": "PRES_VIS", "word": "pimple", "wordID": 1070, "conditions": [24, 800, "v", 12000], "trial": 4, "serialpos": 16, "trial_type": "single-stim", "trial_index": 173, "time_elapsed": 756491, "internal_node_id": "0.0-128.0"}}, {"uniqueid": "MTK0029:352YTHGROWKWQS99Q7TREQ9Z1NM4HS", "current_trial": 174, "dateTime": 1509047496108, "trialdata": {"rt": -1, "stimulus": "<p id=\"stim\">SNACK</p>", "key_press": -1, "type": "PRES_VIS", "word": "snack", "wordID": 1330, "conditions": [24, 800, "v", 12000], "trial": 4, "serialpos": 17, "trial_type": "single-stim", "trial_index": 174, "time_elapsed": 758265, "internal_node_id": "0.0-129.0"}}, {"uniqueid": "MTK0029:352YTHGROWKWQS99Q7TREQ9Z1NM4HS", "current_trial": 175, "dateTime": 1509047497848, "trialdata": {"rt": -1, "stimulus": "<p id=\"stim\">REPORT</p>", "key_press": -1, "type": "PRES_VIS", "word": "report", "wordID": 1183, "conditions": [24, 800, "v", 12000], "trial": 4, "serialpos": 18, "trial_type": "single-stim", "trial_index": 175, "time_elapsed": 760005, "internal_node_id": "0.0-130.0"}}, {"uniqueid": "MTK0029:352YTHGROWKWQS99Q7TREQ9Z1NM4HS", "current_trial": 176, "dateTime": 1509047499822, "trialdata": {"rt": -1, "stimulus": "<p id=\"stim\">TROUT</p>", "key_press": -1, "type": "PRES_VIS", "word": "trout", "wordID": 1510, "conditions": [24, 800, "v", 12000], "trial": 4, "serialpos": 19, "trial_type": "single-stim", "trial_index": 176, "time_elapsed": 761979, "internal_node_id": "0.0-131.0"}}, {"uniqueid": "MTK0029:352YTHGROWKWQS99Q7TREQ9Z1NM4HS", "current_trial": 177, "dateTime": 1509047501790, "trialdata": {"rt": -1, "stimulus": "<p id=\"stim\">FILM</p>", "key_press": -1, "type": "PRES_VIS", "word": "film", "wordID": 564, "conditions": [24, 800, "v", 12000], "trial": 4, "serialpos": 20, "trial_type": "single-stim", "trial_index": 177, "time_elapsed": 763947, "internal_node_id": "0.0-132.0"}}, {"uniqueid": "MTK0029:352YTHGROWKWQS99Q7TREQ9Z1NM4HS", "current_trial": 178, "dateTime": 1509047503555, "trialdata": {"rt": -1, "stimulus": "<p id=\"stim\">TABLET</p>", "key_press": -1, "type": "PRES_VIS", "word": "tablet", "wordID": 1426, "conditions": [24, 800, "v", 12000], "trial": 4, "serialpos": 21, "trial_type": "single-stim", "trial_index": 178, "time_elapsed": 765712, "internal_node_id": "0.0-133.0"}}, {"uniqueid": "MTK0029:352YTHGROWKWQS99Q7TREQ9Z1NM4HS", "current_trial": 179, "dateTime": 1509047505485, "trialdata": {"rt": -1, "stimulus": "<p id=\"stim\">GLOBE</p>", "key_press": -1, "type": "PRES_VIS", "word": "globe", "wordID": 640, "conditions": [24, 800, "v", 12000], "trial": 4, "serialpos": 22, "trial_type": "single-stim", "trial_index": 179, "time_elapsed": 767642, "internal_node_id": "0.0-134.0"}}, {"uniqueid": "MTK0029:352YTHGROWKWQS99Q7TREQ9Z1NM4HS", "current_trial": 180, "dateTime": 1509047507171, "trialdata": {"rt": -1, "stimulus": "<p id=\"stim\">COUNTRY</p>", "key_press": -1, "type": "PRES_VIS", "word": "country", "wordID": 387, "conditions": [24, 800, "v", 12000], "trial": 4, "serialpos": 23, "trial_type": "single-stim", "trial_index": 180, "time_elapsed": 769328, "internal_node_id": "0.0-135.0"}}, {"uniqueid": "MTK0029:352YTHGROWKWQS99Q7TREQ9Z1NM4HS", "current_trial": 181, "dateTime": 1509047509661, "trialdata": {"rt": -1, "stimulus": "", "key_press": -1, "type": "PRE_RECALL_DELAY", "trial_type": "single-stim", "trial_index": 181, "time_elapsed": 771818, "internal_node_id": "0.0-136.0-0.0"}}, {"uniqueid": "MTK0029:352YTHGROWKWQS99Q7TREQ9Z1NM4HS", "current_trial": 182, "dateTime": 1509047510167, "trialdata": {"rt": -1000, "stimulus": "/static/audio/400Hz.wav", "key_press": -1, "type": "PRE_RECALL_ALERT", "trial_type": "single-audio", "trial_index": 182, "time_elapsed": 772324, "internal_node_id": "0.0-137.0"}}, {"uniqueid": "MTK0029:352YTHGROWKWQS99Q7TREQ9Z1NM4HS", "current_trial": 183, "dateTime": 1509047570173, "trialdata": {"rt": [3894, 5648, 8664, 12680, 16178, 19250, 22457, 24143, 27665, 44911, 47318, 51121, 53742], "recwords": ["country", "globe", "tablet", "marine", "convict", "penguin", "country", "compass", "globe", "shelf", "lumber", "toaster", "stove"], "type": "FREE_RECALL", "conditions": [24, 800, "v", 12000], "trial": 4, "trial_type": "free-recall", "trial_index": 183, "time_elapsed": 832330, "internal_node_id": "0.0-138.0-0.0"}}, {"uniqueid": "MTK0029:352YTHGROWKWQS99Q7TREQ9Z1NM4HS", "current_trial": 184, "dateTime": 1509047573574, "trialdata": {"rt": 1399, "key_press": 13, "type": "INSTRUCTIONS", "trial_type": "text", "trial_index": 184, "time_elapsed": 835731, "internal_node_id": "0.0-139.0"}}, {"uniqueid": "MTK0029:352YTHGROWKWQS99Q7TREQ9Z1NM4HS", "current_trial": 185, "dateTime": 1509047587581, "trialdata": {"rt": [3879, 7569, 11247], "responses": ["13", "19", "8"], "num1": [4, 8, 2, 6], "num2": [7, 3, 1, 5], "num3": [2, 8, 5, 9], "type": "DISTRACTOR", "conditions": [24, 1600, "a", 12000], "trial": 5, "trial_type": "math-distractor", "trial_index": 185, "time_elapsed": 849738, "internal_node_id": "0.0-140.0"}}, {"uniqueid": "MTK0029:352YTHGROWKWQS99Q7TREQ9Z1NM4HS", "current_trial": 186, "dateTime": 1509047590588, "trialdata": {"rt": -1, "stimulus": "<p id=\"stim\">10</p>", "key_press": -1, "trial_type": "single-stim", "trial_index": 186, "time_elapsed": 852745, "internal_node_id": "0.0-141.0-0.0"}}, {"uniqueid": "MTK0029:352YTHGROWKWQS99Q7TREQ9Z1NM4HS", "current_trial": 187, "dateTime": 1509047591592, "trialdata": {"rt": -1, "stimulus": "<p id=\"stim\">9</p>", "key_press": -1, "trial_type": "single-stim", "trial_index": 187, "time_elapsed": 853749, "internal_node_id": "0.0-141.0-1.0"}}, {"uniqueid": "MTK0029:352YTHGROWKWQS99Q7TREQ9Z1NM4HS", "current_trial": 188, "dateTime": 1509047592597, "trialdata": {"rt": -1, "stimulus": "<p id=\"stim\">8</p>", "key_press": -1, "trial_type": "single-stim", "trial_index": 188, "time_elapsed": 854753, "internal_node_id": "0.0-141.0-2.0"}}, {"uniqueid": "MTK0029:352YTHGROWKWQS99Q7TREQ9Z1NM4HS", "current_trial": 189, "dateTime": 1509047593601, "trialdata": {"rt": -1, "stimulus": "<p id=\"stim\">7</p>", "key_press": -1, "trial_type": "single-stim", "trial_index": 189, "time_elapsed": 855758, "internal_node_id": "0.0-141.0-3.0"}}, {"uniqueid": "MTK0029:352YTHGROWKWQS99Q7TREQ9Z1NM4HS", "current_trial": 190, "dateTime": 1509047594603, "trialdata": {"rt": -1, "stimulus": "<p id=\"stim\">6</p>", "key_press": -1, "trial_type": "single-stim", "trial_index": 190, "time_elapsed": 856760, "internal_node_id": "0.0-141.0-4.0"}}, {"uniqueid": "MTK0029:352YTHGROWKWQS99Q7TREQ9Z1NM4HS", "current_trial": 191, "dateTime": 1509047595606, "trialdata": {"rt": -1, "stimulus": "<p id=\"stim\">5</p>", "key_press": -1, "trial_type": "single-stim", "trial_index": 191, "time_elapsed": 857761, "internal_node_id": "0.0-141.0-5.0"}}, {"uniqueid": "MTK0029:352YTHGROWKWQS99Q7TREQ9Z1NM4HS", "current_trial": 192, "dateTime": 1509047596608, "trialdata": {"rt": -1, "stimulus": "<p id=\"stim\">4</p>", "key_press": -1, "trial_type": "single-stim", "trial_index": 192, "time_elapsed": 858765, "internal_node_id": "0.0-141.0-6.0"}}, {"uniqueid": "MTK0029:352YTHGROWKWQS99Q7TREQ9Z1NM4HS", "current_trial": 193, "dateTime": 1509047597613, "trialdata": {"rt": -1, "stimulus": "<p id=\"stim\">3</p>", "key_press": -1, "trial_type": "single-stim", "trial_index": 193, "time_elapsed": 859769, "internal_node_id": "0.0-141.0-7.0"}}, {"uniqueid": "MTK0029:352YTHGROWKWQS99Q7TREQ9Z1NM4HS", "current_trial": 194, "dateTime": 1509047598616, "trialdata": {"rt": -1, "stimulus": "<p id=\"stim\">2</p>", "key_press": -1, "trial_type": "single-stim", "trial_index": 194, "time_elapsed": 860773, "internal_node_id": "0.0-141.0-8.0"}}, {"uniqueid": "MTK0029:352YTHGROWKWQS99Q7TREQ9Z1NM4HS", "current_trial": 195, "dateTime": 1509047599621, "trialdata": {"rt": -1, "stimulus": "<p id=\"stim\">1</p>", "key_press": -1, "trial_type": "single-stim", "trial_index": 195, "time_elapsed": 861778, "internal_node_id": "0.0-141.0-9.0"}}, {"uniqueid": "MTK0029:352YTHGROWKWQS99Q7TREQ9Z1NM4HS", "current_trial": 196, "dateTime": 1509047601124, "trialdata": {"rt": -1, "stimulus": "<p id=\"stim\">+</p>", "key_press": -1, "type": "FIXATION", "trial_type": "single-stim", "trial_index": 196, "time_elapsed": 863281, "internal_node_id": "0.0-142.0-0.0"}}, {"uniqueid": "MTK0029:352YTHGROWKWQS99Q7TREQ9Z1NM4HS", "current_trial": 197, "dateTime": 1509047603858, "trialdata": {"rt": -1000, "stimulus": "/static/audio/wordpool/MAMMAL.wav", "key_press": -1, "type": "PRES_AUD", "word": "mammal", "wordID": 860, "conditions": [24, 1600, "a", 12000], "trial": 5, "serialpos": 0, "trial_type": "single-audio", "trial_index": 197, "time_elapsed": 866015, "internal_node_id": "0.0-143.0"}}, {"uniqueid": "MTK0029:352YTHGROWKWQS99Q7TREQ9Z1NM4HS", "current_trial": 198, "dateTime": 1509047606297, "trialdata": {"rt": -1000, "stimulus": "/static/audio/wordpool/PRIMATE.wav", "key_press": -1, "type": "PRES_AUD", "word": "primate", "wordID": 1122, "conditions": [24, 1600, "a", 12000], "trial": 5, "serialpos": 1, "trial_type": "single-audio", "trial_index": 198, "time_elapsed": 868454, "internal_node_id": "0.0-144.0"}}, {"uniqueid": "MTK0029:352YTHGROWKWQS99Q7TREQ9Z1NM4HS", "current_trial": 199, "dateTime": 1509047608978, "trialdata": {"rt": -1000, "stimulus": "/static/audio/wordpool/STOMACH.wav", "key_press": -1, "type": "PRES_AUD", "word": "stomach", "wordID": 1383, "conditions": [24, 1600, "a", 12000], "trial": 5, "serialpos": 2, "trial_type": "single-audio", "trial_index": 199, "time_elapsed": 871135, "internal_node_id": "0.0-145.0"}}, {"uniqueid": "MTK0029:352YTHGROWKWQS99Q7TREQ9Z1NM4HS", "current_trial": 200, "dateTime": 1509047611742, "trialdata": {"rt": -1000, "stimulus": "/static/audio/wordpool/RADISH.wav", "key_press": -1, "type": "PRES_AUD", "word": "radish", "wordID": 1157, "conditions": [24, 1600, "a", 12000], "trial": 5, "serialpos": 3, "trial_type": "single-audio", "trial_index": 200, "time_elapsed": 873899, "internal_node_id": "0.0-146.0"}}, {"uniqueid": "MTK0029:352YTHGROWKWQS99Q7TREQ9Z1NM4HS", "current_trial": 201, "dateTime": 1509047614371, "trialdata": {"rt": -1000, "stimulus": "/static/audio/wordpool/SANDWICH.wav", "key_press": -1, "type": "PRES_AUD", "word": "sandwich", "wordID": 1231, "conditions": [24, 1600, "a", 12000], "trial": 5, "serialpos": 4, "trial_type": "single-audio", "trial_index": 201, "time_elapsed": 876528, "internal_node_id": "0.0-147.0"}}, {"uniqueid": "MTK0029:352YTHGROWKWQS99Q7TREQ9Z1NM4HS", "current_trial": 202, "dateTime": 1509047617048, "trialdata": {"rt": -1000, "stimulus": "/static/audio/wordpool/CHEST.wav", "key_press": -1, "type": "PRES_AUD", "word": "chest", "wordID": 294, "conditions": [24, 1600, "a", 12000], "trial": 5, "serialpos": 5, "trial_type": "single-audio", "trial_index": 202, "time_elapsed": 879205, "internal_node_id": "0.0-148.0"}}, {"uniqueid": "MTK0029:352YTHGROWKWQS99Q7TREQ9Z1NM4HS", "current_trial": 203, "dateTime": 1509047619672, "trialdata": {"rt": -1000, "stimulus": "/static/audio/wordpool/SCARECROW.wav", "key_press": -1, "type": "PRES_AUD", "word": "scarecrow", "wordID": 1244, "conditions": [24, 1600, "a", 12000], "trial": 5, "serialpos": 6, "trial_type": "single-audio", "trial_index": 203, "time_elapsed": 881829, "internal_node_id": "0.0-149.0"}}, {"uniqueid": "MTK0029:352YTHGROWKWQS99Q7TREQ9Z1NM4HS", "current_trial": 204, "dateTime": 1509047622144, "trialdata": {"rt": -1000, "stimulus": "/static/audio/wordpool/SHORTCAKE.wav", "key_press": -1, "type": "PRES_AUD", "word": "shortcake", "wordID": 1291, "conditions": [24, 1600, "a", 12000], "trial": 5, "serialpos": 7, "trial_type": "single-audio", "trial_index": 204, "time_elapsed": 884301, "internal_node_id": "0.0-150.0"}}, {"uniqueid": "MTK0029:352YTHGROWKWQS99Q7TREQ9Z1NM4HS", "current_trial": 205, "dateTime": 1509047624587, "trialdata": {"rt": -1000, "stimulus": "/static/audio/wordpool/OX.wav", "key_press": -1, "type": "PRES_AUD", "word": "ox", "wordID": 993, "conditions": [24, 1600, "a", 12000], "trial": 5, "serialpos": 8, "trial_type": "single-audio", "trial_index": 205, "time_elapsed": 886744, "internal_node_id": "0.0-151.0"}}, {"uniqueid": "MTK0029:352YTHGROWKWQS99Q7TREQ9Z1NM4HS", "current_trial": 206, "dateTime": 1509047627362, "trialdata": {"rt": -1000, "stimulus": "/static/audio/wordpool/BUCKET.wav", "key_press": -1, "type": "PRES_AUD", "word": "bucket", "wordID": 183, "conditions": [24, 1600, "a", 12000], "trial": 5, "serialpos": 9, "trial_type": "single-audio", "trial_index": 206, "time_elapsed": 889519, "internal_node_id": "0.0-152.0"}}, {"uniqueid": "MTK0029:352YTHGROWKWQS99Q7TREQ9Z1NM4HS", "current_trial": 207, "dateTime": 1509047629824, "trialdata": {"rt": -1000, "stimulus": "/static/audio/wordpool/COTTAGE.wav", "key_press": -1, "type": "PRES_AUD", "word": "cottage", "wordID": 383, "conditions": [24, 1600, "a", 12000], "trial": 5, "serialpos": 10, "trial_type": "single-audio", "trial_index": 207, "time_elapsed": 891981, "internal_node_id": "0.0-153.0"}}, {"uniqueid": "MTK0029:352YTHGROWKWQS99Q7TREQ9Z1NM4HS", "current_trial": 208, "dateTime": 1509047632355, "trialdata": {"rt": -1000, "stimulus": "/static/audio/wordpool/CATTLE.wav", "key_press": -1, "type": "PRES_AUD", "word": "cattle", "wordID": 260, "conditions": [24, 1600, "a", 12000], "trial": 5, "serialpos": 11, "trial_type": "single-audio", "trial_index": 208, "time_elapsed": 894512, "internal_node_id": "0.0-154.0"}}, {"uniqueid": "MTK0029:352YTHGROWKWQS99Q7TREQ9Z1NM4HS", "current_trial": 209, "dateTime": 1509047634806, "trialdata": {"rt": -1000, "stimulus": "/static/audio/wordpool/MARSH.wav", "key_press": -1, "type": "PRES_AUD", "word": "marsh", "wordID": 873, "conditions": [24, 1600, "a", 12000], "trial": 5, "serialpos": 12, "trial_type": "single-audio", "trial_index": 209, "time_elapsed": 896963, "internal_node_id": "0.0-155.0"}}, {"uniqueid": "MTK0029:352YTHGROWKWQS99Q7TREQ9Z1NM4HS", "current_trial": 210, "dateTime": 1509047637607, "trialdata": {"rt": -1000, "stimulus": "/static/audio/wordpool/NURSE.wav", "key_press": -1, "type": "PRES_AUD", "word": "nurse", "wordID": 962, "conditions": [24, 1600, "a", 12000], "trial": 5, "serialpos": 13, "trial_type": "single-audio", "trial_index": 210, "time_elapsed": 899764, "internal_node_id": "0.0-156.0"}}, {"uniqueid": "MTK0029:352YTHGROWKWQS99Q7TREQ9Z1NM4HS", "current_trial": 211, "dateTime": 1509047640075, "trialdata": {"rt": -1000, "stimulus": "/static/audio/wordpool/ONION.wav", "key_press": -1, "type": "PRES_AUD", "word": "onion", "wordID": 976, "conditions": [24, 1600, "a", 12000], "trial": 5, "serialpos": 14, "trial_type": "single-audio", "trial_index": 211, "time_elapsed": 902232, "internal_node_id": "0.0-157.0"}}, {"uniqueid": "MTK0029:352YTHGROWKWQS99Q7TREQ9Z1NM4HS", "current_trial": 212, "dateTime": 1509047642844, "trialdata": {"rt": -1000, "stimulus": "/static/audio/wordpool/BOX.wav", "key_press": -1, "type": "PRES_AUD", "word": "box", "wordID": 158, "conditions": [24, 1600, "a", 12000], "trial": 5, "serialpos": 15, "trial_type": "single-audio", "trial_index": 212, "time_elapsed": 905001, "internal_node_id": "0.0-158.0"}}, {"uniqueid": "MTK0029:352YTHGROWKWQS99Q7TREQ9Z1NM4HS", "current_trial": 213, "dateTime": 1509047645420, "trialdata": {"rt": -1000, "stimulus": "/static/audio/wordpool/BUBBLE.wav", "key_press": -1, "type": "PRES_AUD", "word": "bubble", "wordID": 182, "conditions": [24, 1600, "a", 12000], "trial": 5, "serialpos": 16, "trial_type": "single-audio", "trial_index": 213, "time_elapsed": 907577, "internal_node_id": "0.0-159.0"}}, {"uniqueid": "MTK0029:352YTHGROWKWQS99Q7TREQ9Z1NM4HS", "current_trial": 214, "dateTime": 1509047647926, "trialdata": {"rt": -1000, "stimulus": "/static/audio/wordpool/SLIDE.wav", "key_press": -1, "type": "PRES_AUD", "word": "slide", "wordID": 1325, "conditions": [24, 1600, "a", 12000], "trial": 5, "serialpos": 17, "trial_type": "single-audio", "trial_index": 214, "time_elapsed": 910083, "internal_node_id": "0.0-160.0"}}, {"uniqueid": "MTK0029:352YTHGROWKWQS99Q7TREQ9Z1NM4HS", "current_trial": 215, "dateTime": 1509047650679, "trialdata": {"rt": -1000, "stimulus": "/static/audio/wordpool/BUNNY.wav", "key_press": -1, "type": "PRES_AUD", "word": "bunny", "wordID": 197, "conditions": [24, 1600, "a", 12000], "trial": 5, "serialpos": 18, "trial_type": "single-audio", "trial_index": 215, "time_elapsed": 912835, "internal_node_id": "0.0-161.0"}}, {"uniqueid": "MTK0029:352YTHGROWKWQS99Q7TREQ9Z1NM4HS", "current_trial": 216, "dateTime": 1509047653334, "trialdata": {"rt": -1000, "stimulus": "/static/audio/wordpool/LIZARD.wav", "key_press": -1, "type": "PRES_AUD", "word": "lizard", "wordID": 833, "conditions": [24, 1600, "a", 12000], "trial": 5, "serialpos": 19, "trial_type": "single-audio", "trial_index": 216, "time_elapsed": 915490, "internal_node_id": "0.0-162.0"}}, {"uniqueid": "MTK0029:352YTHGROWKWQS99Q7TREQ9Z1NM4HS", "current_trial": 217, "dateTime": 1509047655756, "trialdata": {"rt": -1000, "stimulus": "/static/audio/wordpool/TORTOISE.wav", "key_press": -1, "type": "PRES_AUD", "word": "tortoise", "wordID": 1485, "conditions": [24, 1600, "a", 12000], "trial": 5, "serialpos": 20, "trial_type": "single-audio", "trial_index": 217, "time_elapsed": 917913, "internal_node_id": "0.0-163.0"}}, {"uniqueid": "MTK0029:352YTHGROWKWQS99Q7TREQ9Z1NM4HS", "current_trial": 218, "dateTime": 1509047658259, "trialdata": {"rt": -1000, "stimulus": "/static/audio/wordpool/COCOON.wav", "key_press": -1, "type": "PRES_AUD", "word": "cocoon", "wordID": 338, "conditions": [24, 1600, "a", 12000], "trial": 5, "serialpos": 21, "trial_type": "single-audio", "trial_index": 218, "time_elapsed": 920416, "internal_node_id": "0.0-164.0"}}, {"uniqueid": "MTK0029:352YTHGROWKWQS99Q7TREQ9Z1NM4HS", "current_trial": 219, "dateTime": 1509047660788, "trialdata": {"rt": -1000, "stimulus": "/static/audio/wordpool/MUSTARD.wav", "key_press": -1, "type": "PRES_AUD", "word": "mustard", "wordID": 934, "conditions": [24, 1600, "a", 12000], "trial": 5, "serialpos": 22, "trial_type": "single-audio", "trial_index": 219, "time_elapsed": 922945, "internal_node_id": "0.0-165.0"}}, {"uniqueid": "MTK0029:352YTHGROWKWQS99Q7TREQ9Z1NM4HS", "current_trial": 220, "dateTime": 1509047663560, "trialdata": {"rt": -1000, "stimulus": "/static/audio/wordpool/CHIPMUNK.wav", "key_press": -1, "type": "PRES_AUD", "word": "chipmunk", "wordID": 303, "conditions": [24, 1600, "a", 12000], "trial": 5, "serialpos": 23, "trial_type": "single-audio", "trial_index": 220, "time_elapsed": 925717, "internal_node_id": "0.0-166.0"}}, {"uniqueid": "MTK0029:352YTHGROWKWQS99Q7TREQ9Z1NM4HS", "current_trial": 221, "dateTime": 1509047664886, "trialdata": {"rt": -1, "stimulus": "", "key_press": -1, "type": "PRE_RECALL_DELAY", "trial_type": "single-stim", "trial_index": 221, "time_elapsed": 927043, "internal_node_id": "0.0-167.0-0.0"}}, {"uniqueid": "MTK0029:352YTHGROWKWQS99Q7TREQ9Z1NM4HS", "current_trial": 222, "dateTime": 1509047665388, "trialdata": {"rt": -1000, "stimulus": "/static/audio/400Hz.wav", "key_press": -1, "type": "PRE_RECALL_ALERT", "trial_type": "single-audio", "trial_index": 222, "time_elapsed": 927544, "internal_node_id": "0.0-168.0"}}, {"uniqueid": "MTK0029:352YTHGROWKWQS99Q7TREQ9Z1NM4HS", "current_trial": 223, "dateTime": 1509047725392, "trialdata": {"rt": [5745, 8579, 10886, 14609, 20156, 22563, 25792], "recwords": ["chipmonk", "mustart", "bunny", "tortise", "cocoon", "chest", "stomach"], "type": "FREE_RECALL", "conditions": [24, 1600, "a", 12000], "trial": 5, "trial_type": "free-recall", "trial_index": 223, "time_elapsed": 987548, "internal_node_id": "0.0-169.0-0.0"}}, {"uniqueid": "MTK0029:352YTHGROWKWQS99Q7TREQ9Z1NM4HS", "current_trial": 224, "dateTime": 1509047731772, "trialdata": {"rt": 4379, "key_press": 32, "type": "INSTRUCTIONS", "trial_type": "text", "trial_index": 224, "time_elapsed": 993929, "internal_node_id": "0.0-170.0"}}, {"uniqueid": "MTK0029:352YTHGROWKWQS99Q7TREQ9Z1NM4HS", "current_trial": 225, "dateTime": 1509047745777, "trialdata": {"rt": [4545, 9203], "responses": ["14", "17"], "num1": [3, 7, 9], "num2": [6, 5, 2], "num3": [5, 6, 6], "type": "DISTRACTOR", "conditions": [12, 1600, "v", 12000], "trial": 6, "trial_type": "math-distractor", "trial_index": 225, "time_elapsed": 1007934, "internal_node_id": "0.0-171.0"}}, {"uniqueid": "MTK0029:352YTHGROWKWQS99Q7TREQ9Z1NM4HS", "current_trial": 226, "dateTime": 1509047748785, "trialdata": {"rt": -1, "stimulus": "<p id=\"stim\">10</p>", "key_press": -1, "trial_type": "single-stim", "trial_index": 226, "time_elapsed": 1010942, "internal_node_id": "0.0-172.0-0.0"}}, {"uniqueid": "MTK0029:352YTHGROWKWQS99Q7TREQ9Z1NM4HS", "current_trial": 227, "dateTime": 1509047749787, "trialdata": {"rt": -1, "stimulus": "<p id=\"stim\">9</p>", "key_press": -1, "trial_type": "single-stim", "trial_index": 227, "time_elapsed": 1011943, "internal_node_id": "0.0-172.0-1.0"}}, {"uniqueid": "MTK0029:352YTHGROWKWQS99Q7TREQ9Z1NM4HS", "current_trial": 228, "dateTime": 1509047750793, "trialdata": {"rt": -1, "stimulus": "<p id=\"stim\">8</p>", "key_press": -1, "trial_type": "single-stim", "trial_index": 228, "time_elapsed": 1012949, "internal_node_id": "0.0-172.0-2.0"}}, {"uniqueid": "MTK0029:352YTHGROWKWQS99Q7TREQ9Z1NM4HS", "current_trial": 229, "dateTime": 1509047751798, "trialdata": {"rt": -1, "stimulus": "<p id=\"stim\">7</p>", "key_press": -1, "trial_type": "single-stim", "trial_index": 229, "time_elapsed": 1013955, "internal_node_id": "0.0-172.0-3.0"}}, {"uniqueid": "MTK0029:352YTHGROWKWQS99Q7TREQ9Z1NM4HS", "current_trial": 230, "dateTime": 1509047752802, "trialdata": {"rt": -1, "stimulus": "<p id=\"stim\">6</p>", "key_press": -1, "trial_type": "single-stim", "trial_index": 230, "time_elapsed": 1014958, "internal_node_id": "0.0-172.0-4.0"}}, {"uniqueid": "MTK0029:352YTHGROWKWQS99Q7TREQ9Z1NM4HS", "current_trial": 231, "dateTime": 1509047753806, "trialdata": {"rt": -1, "stimulus": "<p id=\"stim\">5</p>", "key_press": -1, "trial_type": "single-stim", "trial_index": 231, "time_elapsed": 1015963, "internal_node_id": "0.0-172.0-5.0"}}, {"uniqueid": "MTK0029:352YTHGROWKWQS99Q7TREQ9Z1NM4HS", "current_trial": 232, "dateTime": 1509047754810, "trialdata": {"rt": -1, "stimulus": "<p id=\"stim\">4</p>", "key_press": -1, "trial_type": "single-stim", "trial_index": 232, "time_elapsed": 1016967, "internal_node_id": "0.0-172.0-6.0"}}, {"uniqueid": "MTK0029:352YTHGROWKWQS99Q7TREQ9Z1NM4HS", "current_trial": 233, "dateTime": 1509047755814, "trialdata": {"rt": -1, "stimulus": "<p id=\"stim\">3</p>", "key_press": -1, "trial_type": "single-stim", "trial_index": 233, "time_elapsed": 1017971, "internal_node_id": "0.0-172.0-7.0"}}, {"uniqueid": "MTK0029:352YTHGROWKWQS99Q7TREQ9Z1NM4HS", "current_trial": 234, "dateTime": 1509047756819, "trialdata": {"rt": -1, "stimulus": "<p id=\"stim\">2</p>", "key_press": -1, "trial_type": "single-stim", "trial_index": 234, "time_elapsed": 1018976, "internal_node_id": "0.0-172.0-8.0"}}, {"uniqueid": "MTK0029:352YTHGROWKWQS99Q7TREQ9Z1NM4HS", "current_trial": 235, "dateTime": 1509047757823, "trialdata": {"rt": -1, "stimulus": "<p id=\"stim\">1</p>", "key_press": -1, "trial_type": "single-stim", "trial_index": 235, "time_elapsed": 1019980, "internal_node_id": "0.0-172.0-9.0"}}, {"uniqueid": "MTK0029:352YTHGROWKWQS99Q7TREQ9Z1NM4HS", "current_trial": 236, "dateTime": 1509047759326, "trialdata": {"rt": -1, "stimulus": "<p id=\"stim\">+</p>", "key_press": -1, "type": "FIXATION", "trial_type": "single-stim", "trial_index": 236, "time_elapsed": 1021483, "internal_node_id": "0.0-173.0-0.0"}}, {"uniqueid": "MTK0029:352YTHGROWKWQS99Q7TREQ9Z1NM4HS", "current_trial": 237, "dateTime": 1509047760928, "trialdata": {"rt": -1, "stimulus": "<p id=\"stim\">WAGON</p>", "key_press": -1, "type": "PRES_VIS", "word": "wagon", "wordID": 1577, "conditions": [12, 1600, "v", 12000], "trial": 6, "serialpos": 0, "trial_type": "single-stim", "trial_index": 237, "time_elapsed": 1023085, "internal_node_id": "0.0-174.0"}}, {"uniqueid": "MTK0029:352YTHGROWKWQS99Q7TREQ9Z1NM4HS", "current_trial": 238, "dateTime": 1509047763644, "trialdata": {"rt": -1, "stimulus": "<p id=\"stim\">CHAMPAGNE</p>", "key_press": -1, "type": "PRES_VIS", "word": "champagne", "wordID": 277, "conditions": [12, 1600, "v", 12000], "trial": 6, "serialpos": 1, "trial_type": "single-stim", "trial_index": 238, "time_elapsed": 1025801, "internal_node_id": "0.0-175.0"}}, {"uniqueid": "MTK0029:352YTHGROWKWQS99Q7TREQ9Z1NM4HS", "current_trial": 239, "dateTime": 1509047766194, "trialdata": {"rt": -1, "stimulus": "<p id=\"stim\">GIRL</p>", "key_press": -1, "type": "PRES_VIS", "word": "girl", "wordID": 636, "conditions": [12, 1600, "v", 12000], "trial": 6, "serialpos": 2, "trial_type": "single-stim", "trial_index": 239, "time_elapsed": 1028351, "internal_node_id": "0.0-176.0"}}, {"uniqueid": "MTK0029:352YTHGROWKWQS99Q7TREQ9Z1NM4HS", "current_trial": 240, "dateTime": 1509047768928, "trialdata": {"rt": -1, "stimulus": "<p id=\"stim\">SIDEWALK</p>", "key_press": -1, "type": "PRES_VIS", "word": "sidewalk", "wordID": 1302, "conditions": [12, 1600, "v", 12000], "trial": 6, "serialpos": 3, "trial_type": "single-stim", "trial_index": 240, "time_elapsed": 1031085, "internal_node_id": "0.0-177.0"}}, {"uniqueid": "MTK0029:352YTHGROWKWQS99Q7TREQ9Z1NM4HS", "current_trial": 241, "dateTime": 1509047771522, "trialdata": {"rt": -1, "stimulus": "<p id=\"stim\">PLUTO</p>", "key_press": -1, "type": "PRES_VIS", "word": "pluto", "wordID": 1091, "conditions": [12, 1600, "v", 12000], "trial": 6, "serialpos": 4, "trial_type": "single-stim", "trial_index": 241, "time_elapsed": 1033679, "internal_node_id": "0.0-178.0"}}, {"uniqueid": "MTK0029:352YTHGROWKWQS99Q7TREQ9Z1NM4HS", "current_trial": 242, "dateTime": 1509047773984, "trialdata": {"rt": -1, "stimulus": "<p id=\"stim\">BOYFRIEND</p>", "key_press": -1, "type": "PRES_VIS", "word": "boyfriend", "wordID": 161, "conditions": [12, 1600, "v", 12000], "trial": 6, "serialpos": 5, "trial_type": "single-stim", "trial_index": 242, "time_elapsed": 1036141, "internal_node_id": "0.0-179.0"}}, {"uniqueid": "MTK0029:352YTHGROWKWQS99Q7TREQ9Z1NM4HS", "current_trial": 243, "dateTime": 1509047776619, "trialdata": {"rt": -1, "stimulus": "<p id=\"stim\">CANDY</p>", "key_press": -1, "type": "PRES_VIS", "word": "candy", "wordID": 229, "conditions": [12, 1600, "v", 12000], "trial": 6, "serialpos": 6, "trial_type": "single-stim", "trial_index": 243, "time_elapsed": 1038776, "internal_node_id": "0.0-180.0"}}, {"uniqueid": "MTK0029:352YTHGROWKWQS99Q7TREQ9Z1NM4HS", "current_trial": 244, "dateTime": 1509047779330, "trialdata": {"rt": -1, "stimulus": "<p id=\"stim\">FRAGRANCE</p>", "key_press": -1, "type": "PRES_VIS", "word": "fragrance", "wordID": 598, "conditions": [12, 1600, "v", 12000], "trial": 6, "serialpos": 7, "trial_type": "single-stim", "trial_index": 244, "time_elapsed": 1041487, "internal_node_id": "0.0-181.0"}}, {"uniqueid": "MTK0029:352YTHGROWKWQS99Q7TREQ9Z1NM4HS", "current_trial": 245, "dateTime": 1509047781734, "trialdata": {"rt": -1, "stimulus": "<p id=\"stim\">TRUCK</p>", "key_press": -1, "type": "PRES_VIS", "word": "truck", "wordID": 1511, "conditions": [12, 1600, "v", 12000], "trial": 6, "serialpos": 8, "trial_type": "single-stim", "trial_index": 245, "time_elapsed": 1043891, "internal_node_id": "0.0-182.0"}}, {"uniqueid": "MTK0029:352YTHGROWKWQS99Q7TREQ9Z1NM4HS", "current_trial": 246, "dateTime": 1509047784511, "trialdata": {"rt": -1, "stimulus": "<p id=\"stim\">DRIVER</p>", "key_press": -1, "type": "PRES_VIS", "word": "driver", "wordID": 498, "conditions": [12, 1600, "v", 12000], "trial": 6, "serialpos": 9, "trial_type": "single-stim", "trial_index": 246, "time_elapsed": 1046668, "internal_node_id": "0.0-183.0"}}, {"uniqueid": "MTK0029:352YTHGROWKWQS99Q7TREQ9Z1NM4HS", "current_trial": 247, "dateTime": 1509047787092, "trialdata": {"rt": -1, "stimulus": "<p id=\"stim\">FIREMAN</p>", "key_press": -1, "type": "PRES_VIS", "word": "fireman", "wordID": 568, "conditions": [12, 1600, "v", 12000], "trial": 6, "serialpos": 10, "trial_type": "single-stim", "trial_index": 247, "time_elapsed": 1049249, "internal_node_id": "0.0-184.0"}}, {"uniqueid": "MTK0029:352YTHGROWKWQS99Q7TREQ9Z1NM4HS", "current_trial": 248, "dateTime": 1509047789779, "trialdata": {"rt": -1, "stimulus": "<p id=\"stim\">PECAN</p>", "key_press": -1, "type": "PRES_VIS", "word": "pecan", "wordID": 1035, "conditions": [12, 1600, "v", 12000], "trial": 6, "serialpos": 11, "trial_type": "single-stim", "trial_index": 248, "time_elapsed": 1051936, "internal_node_id": "0.0-185.0"}}, {"uniqueid": "MTK0029:352YTHGROWKWQS99Q7TREQ9Z1NM4HS", "current_trial": 249, "dateTime": 1509047792125, "trialdata": {"rt": -1, "stimulus": "", "key_press": -1, "type": "PRE_RECALL_DELAY", "trial_type": "single-stim", "trial_index": 249, "time_elapsed": 1054281, "internal_node_id": "0.0-186.0-0.0"}}, {"uniqueid": "MTK0029:352YTHGROWKWQS99Q7TREQ9Z1NM4HS", "current_trial": 250, "dateTime": 1509047792629, "trialdata": {"rt": -1000, "stimulus": "/static/audio/400Hz.wav", "key_press": -1, "type": "PRE_RECALL_ALERT", "trial_type": "single-audio", "trial_index": 250, "time_elapsed": 1054786, "internal_node_id": "0.0-187.0"}}, {"uniqueid": "MTK0029:352YTHGROWKWQS99Q7TREQ9Z1NM4HS", "current_trial": 251, "dateTime": 1509047852636, "trialdata": {"rt": [4436, 6101, 8722, 12333, 13684, 34867], "recwords": ["truck", "driver", "fireman", "champagne", "girl", "pecan"], "type": "FREE_RECALL", "conditions": [12, 1600, "v", 12000], "trial": 6, "trial_type": "free-recall", "trial_index": 251, "time_elapsed": 1114792, "internal_node_id": "0.0-188.0-0.0"}}, {"uniqueid": "MTK0029:352YTHGROWKWQS99Q7TREQ9Z1NM4HS", "current_trial": 252, "dateTime": 1509047858640, "trialdata": {"rt": 4002, "key_press": 13, "type": "INSTRUCTIONS", "trial_type": "text", "trial_index": 252, "time_elapsed": 1120797, "internal_node_id": "0.0-189.0"}}, {"uniqueid": "MTK0029:352YTHGROWKWQS99Q7TREQ9Z1NM4HS", "current_trial": 253, "dateTime": 1509047884643, "trialdata": {"rt": [4938, 8190, 10518, 13140, 17166, 20350, 22566], "responses": ["11", "20", "11", "14", "15", "16", "15"], "num1": [6, 9, 3, 7, 5, 3, 1, 9], "num2": [2, 6, 2, 3, 9, 5, 5, 6], "num3": [3, 5, 6, 4, 1, 8, 9, 7], "type": "DISTRACTOR", "conditions": [24, 1600, "a", 24000], "trial": 7, "trial_type": "math-distractor", "trial_index": 253, "time_elapsed": 1146800, "internal_node_id": "0.0-190.0"}}, {"uniqueid": "MTK0029:352YTHGROWKWQS99Q7TREQ9Z1NM4HS", "current_trial": 254, "dateTime": 1509047887645, "trialdata": {"rt": -1, "stimulus": "<p id=\"stim\">10</p>", "key_press": -1, "trial_type": "single-stim", "trial_index": 254, "time_elapsed": 1149802, "internal_node_id": "0.0-191.0-0.0"}}, {"uniqueid": "MTK0029:352YTHGROWKWQS99Q7TREQ9Z1NM4HS", "current_trial": 255, "dateTime": 1509047888647, "trialdata": {"rt": -1, "stimulus": "<p id=\"stim\">9</p>", "key_press": -1, "trial_type": "single-stim", "trial_index": 255, "time_elapsed": 1150803, "internal_node_id": "0.0-191.0-1.0"}}, {"uniqueid": "MTK0029:352YTHGROWKWQS99Q7TREQ9Z1NM4HS", "current_trial": 256, "dateTime": 1509047889653, "trialdata": {"rt": -1, "stimulus": "<p id=\"stim\">8</p>", "key_press": -1, "trial_type": "single-stim", "trial_index": 256, "time_elapsed": 1151810, "internal_node_id": "0.0-191.0-2.0"}}, {"uniqueid": "MTK0029:352YTHGROWKWQS99Q7TREQ9Z1NM4HS", "current_trial": 257, "dateTime": 1509047890658, "trialdata": {"rt": -1, "stimulus": "<p id=\"stim\">7</p>", "key_press": -1, "trial_type": "single-stim", "trial_index": 257, "time_elapsed": 1152814, "internal_node_id": "0.0-191.0-3.0"}}, {"uniqueid": "MTK0029:352YTHGROWKWQS99Q7TREQ9Z1NM4HS", "current_trial": 258, "dateTime": 1509047891660, "trialdata": {"rt": -1, "stimulus": "<p id=\"stim\">6</p>", "key_press": -1, "trial_type": "single-stim", "trial_index": 258, "time_elapsed": 1153817, "internal_node_id": "0.0-191.0-4.0"}}, {"uniqueid": "MTK0029:352YTHGROWKWQS99Q7TREQ9Z1NM4HS", "current_trial": 259, "dateTime": 1509047892661, "trialdata": {"rt": -1, "stimulus": "<p id=\"stim\">5</p>", "key_press": -1, "trial_type": "single-stim", "trial_index": 259, "time_elapsed": 1154818, "internal_node_id": "0.0-191.0-5.0"}}, {"uniqueid": "MTK0029:352YTHGROWKWQS99Q7TREQ9Z1NM4HS", "current_trial": 260, "dateTime": 1509047893665, "trialdata": {"rt": -1, "stimulus": "<p id=\"stim\">4</p>", "key_press": -1, "trial_type": "single-stim", "trial_index": 260, "time_elapsed": 1155822, "internal_node_id": "0.0-191.0-6.0"}}, {"uniqueid": "MTK0029:352YTHGROWKWQS99Q7TREQ9Z1NM4HS", "current_trial": 261, "dateTime": 1509047894670, "trialdata": {"rt": -1, "stimulus": "<p id=\"stim\">3</p>", "key_press": -1, "trial_type": "single-stim", "trial_index": 261, "time_elapsed": 1156827, "internal_node_id": "0.0-191.0-7.0"}}, {"uniqueid": "MTK0029:352YTHGROWKWQS99Q7TREQ9Z1NM4HS", "current_trial": 262, "dateTime": 1509047895671, "trialdata": {"rt": -1, "stimulus": "<p id=\"stim\">2</p>", "key_press": -1, "trial_type": "single-stim", "trial_index": 262, "time_elapsed": 1157828, "internal_node_id": "0.0-191.0-8.0"}}, {"uniqueid": "MTK0029:352YTHGROWKWQS99Q7TREQ9Z1NM4HS", "current_trial": 263, "dateTime": 1509047896672, "trialdata": {"rt": -1, "stimulus": "<p id=\"stim\">1</p>", "key_press": -1, "trial_type": "single-stim", "trial_index": 263, "time_elapsed": 1158829, "internal_node_id": "0.0-191.0-9.0"}}, {"uniqueid": "MTK0029:352YTHGROWKWQS99Q7TREQ9Z1NM4HS", "current_trial": 264, "dateTime": 1509047898175, "trialdata": {"rt": -1, "stimulus": "<p id=\"stim\">+</p>", "key_press": -1, "type": "FIXATION", "trial_type": "single-stim", "trial_index": 264, "time_elapsed": 1160332, "internal_node_id": "0.0-192.0-0.0"}}, {"uniqueid": "MTK0029:352YTHGROWKWQS99Q7TREQ9Z1NM4HS", "current_trial": 265, "dateTime": 1509047900828, "trialdata": {"rt": -1000, "stimulus": "/static/audio/wordpool/SCARF.wav", "key_press": -1, "type": "PRES_AUD", "word": "scarf", "wordID": 1245, "conditions": [24, 1600, "a", 24000], "trial": 7, "serialpos": 0, "trial_type": "single-audio", "trial_index": 265, "time_elapsed": 1162984, "internal_node_id": "0.0-193.0"}}, {"uniqueid": "MTK0029:352YTHGROWKWQS99Q7TREQ9Z1NM4HS", "current_trial": 266, "dateTime": 1509047903550, "trialdata": {"rt": -1000, "stimulus": "/static/audio/wordpool/GRAVE.wav", "key_press": -1, "type": "PRES_AUD", "word": "grave", "wordID": 657, "conditions": [24, 1600, "a", 24000], "trial": 7, "serialpos": 1, "trial_type": "single-audio", "trial_index": 266, "time_elapsed": 1165707, "internal_node_id": "0.0-194.0"}}, {"uniqueid": "MTK0029:352YTHGROWKWQS99Q7TREQ9Z1NM4HS", "current_trial": 267, "dateTime": 1509047906018, "trialdata": {"rt": -1000, "stimulus": "/static/audio/wordpool/SHIRT.wav", "key_press": -1, "type": "PRES_AUD", "word": "shirt", "wordID": 1286, "conditions": [24, 1600, "a", 24000], "trial": 7, "serialpos": 2, "trial_type": "single-audio", "trial_index": 267, "time_elapsed": 1168175, "internal_node_id": "0.0-195.0"}}, {"uniqueid": "MTK0029:352YTHGROWKWQS99Q7TREQ9Z1NM4HS", "current_trial": 268, "dateTime": 1509047908670, "trialdata": {"rt": -1000, "stimulus": "/static/audio/wordpool/VALVE.wav", "key_press": -1, "type": "PRES_AUD", "word": "valve", "wordID": 1545, "conditions": [24, 1600, "a", 24000], "trial": 7, "serialpos": 3, "trial_type": "single-audio", "trial_index": 268, "time_elapsed": 1170827, "internal_node_id": "0.0-196.0"}}, {"uniqueid": "MTK0029:352YTHGROWKWQS99Q7TREQ9Z1NM4HS", "current_trial": 269, "dateTime": 1509047911434, "trialdata": {"rt": -1000, "stimulus": "/static/audio/wordpool/CHURCH.wav", "key_press": -1, "type": "PRES_AUD", "word": "church", "wordID": 306, "conditions": [24, 1600, "a", 24000], "trial": 7, "serialpos": 4, "trial_type": "single-audio", "trial_index": 269, "time_elapsed": 1173591, "internal_node_id": "0.0-197.0"}}, {"uniqueid": "MTK0029:352YTHGROWKWQS99Q7TREQ9Z1NM4HS", "current_trial": 270, "dateTime": 1509047913936, "trialdata": {"rt": -1000, "stimulus": "/static/audio/wordpool/JUGGLER.wav", "key_press": -1, "type": "PRES_AUD", "word": "juggler", "wordID": 762, "conditions": [24, 1600, "a", 24000], "trial": 7, "serialpos": 5, "trial_type": "single-audio", "trial_index": 270, "time_elapsed": 1176093, "internal_node_id": "0.0-198.0"}}, {"uniqueid": "MTK0029:352YTHGROWKWQS99Q7TREQ9Z1NM4HS", "current_trial": 271, "dateTime": 1509047916716, "trialdata": {"rt": -1000, "stimulus": "/static/audio/wordpool/OINTMENT.wav", "key_press": -1, "type": "PRES_AUD", "word": "ointment", "wordID": 973, "conditions": [24, 1600, "a", 24000], "trial": 7, "serialpos": 6, "trial_type": "single-audio", "trial_index": 271, "time_elapsed": 1178873, "internal_node_id": "0.0-199.0"}}, {"uniqueid": "MTK0029:352YTHGROWKWQS99Q7TREQ9Z1NM4HS", "current_trial": 272, "dateTime": 1509047919517, "trialdata": {"rt": -1000, "stimulus": "/static/audio/wordpool/LASER.wav", "key_press": -1, "type": "PRES_AUD", "word": "laser", "wordID": 800, "conditions": [24, 1600, "a", 24000], "trial": 7, "serialpos": 7, "trial_type": "single-audio", "trial_index": 272, "time_elapsed": 1181674, "internal_node_id"