{"condition": 0, "counterbalance": 273, "assignmentId": "3WI0P0II62ZMFI65FN6EVY5B2YPRDG", "workerId": "MTK0283", "hitId": "3MDKGGG61QUYN46OJNYT0N0HWDBT6N", "currenttrial": 626, "bonus": 0, "data": [{"uniqueid": "MTK0283:3WI0P0II62ZMFI65FN6EVY5B2YPRDG", "current_trial": 0, "dateTime": 1510694429344, "trialdata": {"rt": 1990, "key_press": 75, "type": "INSTRUCTIONS", "trial_type": "text", "trial_index": 0, "time_elapsed": 1991, "internal_node_id": "0.0-0.0"}}, {"uniqueid": "MTK0283:3WI0P0II62ZMFI65FN6EVY5B2YPRDG", "current_trial": 1, "dateTime": 1510694455803, "trialdata": {"rt": 26457, "key_press": 70, "type": "INSTRUCTIONS", "trial_type": "text", "trial_index": 1, "time_elapsed": 28451, "internal_node_id": "0.0-1.0"}}, {"uniqueid": "MTK0283:3WI0P0II62ZMFI65FN6EVY5B2YPRDG", "current_trial": 2, "dateTime": 1510694462480, "trialdata": {"rt": [6665], "responses": ["ocean"], "type": "AUDIO_TEST", "trial_type": "audio-test", "trial_index": 2, "time_elapsed": 35128, "internal_node_id": "0.0-2.0"}}, {"uniqueid": "MTK0283:3WI0P0II62ZMFI65FN6EVY5B2YPRDG", "current_trial": 3, "dateTime": 1510694491200, "trialdata": {"rt": [10097, 28717], "responses": ["chyrstal", "crystal"], "type": "AUDIO_TEST", "trial_type": "audio-test", "trial_index": 3, "time_elapsed": 63848, "internal_node_id": "0.0-3.0"}}, {"uniqueid": "MTK0283:3WI0P0II62ZMFI65FN6EVY5B2YPRDG", "current_trial": 4, "dateTime": 1510694495647, "trialdata": {"rt": [4443], "responses": ["spice"], "type": "AUDIO_TEST", "trial_type": "audio-test", "trial_index": 4, "time_elapsed": 68295, "internal_node_id": "0.0-4.0"}}, {"uniqueid": "MTK0283:3WI0P0II62ZMFI65FN6EVY5B2YPRDG", "current_trial": 5, "dateTime": 1510694522293, "trialdata": {"rt": 25893, "responses": "{\"Q0\":\"1 am\",\"Q1\":\"8 am\",\"Q2\":\"4\"}", "type": "SLEEP_SURVEY", "trial_type": "survey-text", "trial_index": 5, "time_elapsed": 94941, "internal_node_id": "0.0-5.0"}}, {"uniqueid": "MTK0283:3WI0P0II62ZMFI65FN6EVY5B2YPRDG", "current_trial": 6, "dateTime": 1510694560981, "trialdata": {"rt": 37685, "key_press": 74, "type": "INSTRUCTIONS", "trial_type": "text", "trial_index": 6, "time_elapsed": 133629, "internal_node_id": "0.0-6.0"}}, {"uniqueid": "MTK0283:3WI0P0II62ZMFI65FN6EVY5B2YPRDG", "current_trial": 7, "dateTime": 1510694574954, "trialdata": {"rt": 13472, "key_press": 74, "type": "INSTRUCTIONS", "trial_type": "text", "trial_index": 7, "time_elapsed": 147602, "internal_node_id": "0.0-7.0"}}, {"uniqueid": "MTK0283:3WI0P0II62ZMFI65FN6EVY5B2YPRDG", "current_trial": 8, "dateTime": 1510694584655, "trialdata": {"rt": 9198, "key_press": 74, "type": "INSTRUCTIONS", "trial_type": "text", "trial_index": 8, "time_elapsed": 157303, "internal_node_id": "0.0-8.0"}}, {"uniqueid": "MTK0283:3WI0P0II62ZMFI65FN6EVY5B2YPRDG", "current_trial": 9, "dateTime": 1510694603660, "trialdata": {"rt": [3682, 5777, 8159, 16976], "responses": ["16", "6", "17", "21"], "num1": [7, 4, 6, 9, 9], "num2": [1, 1, 7, 5, 2], "num3": [8, 1, 3, 7, 7], "type": "DISTRACTOR", "conditions": [18, 1200, "v", 18000], "trial": 0, "trial_type": "math-distractor", "trial_index": 9, "time_elapsed": 176308, "internal_node_id": "0.0-9.0"}}, {"uniqueid": "MTK0283:3WI0P0II62ZMFI65FN6EVY5B2YPRDG", "current_trial": 10, "dateTime": 1510694606664, "trialdata": {"rt": -1, "stimulus": "<p id=\"stim\">10</p>", "key_press": -1, "trial_type": "single-stim", "trial_index": 10, "time_elapsed": 179312, "internal_node_id": "0.0-10.0-0.0"}}, {"uniqueid": "MTK0283:3WI0P0II62ZMFI65FN6EVY5B2YPRDG", "current_trial": 11, "dateTime": 1510694607668, "trialdata": {"rt": -1, "stimulus": "<p id=\"stim\">9</p>", "key_press": -1, "trial_type": "single-stim", "trial_index": 11, "time_elapsed": 180316, "internal_node_id": "0.0-10.0-1.0"}}, {"uniqueid": "MTK0283:3WI0P0II62ZMFI65FN6EVY5B2YPRDG", "current_trial": 12, "dateTime": 1510694608671, "trialdata": {"rt": -1, "stimulus": "<p id=\"stim\">8</p>", "key_press": -1, "trial_type": "single-stim", "trial_index": 12, "time_elapsed": 181319, "internal_node_id": "0.0-10.0-2.0"}}, {"uniqueid": "MTK0283:3WI0P0II62ZMFI65FN6EVY5B2YPRDG", "current_trial": 13, "dateTime": 1510694609672, "trialdata": {"rt": -1, "stimulus": "<p id=\"stim\">7</p>", "key_press": -1, "trial_type": "single-stim", "trial_index": 13, "time_elapsed": 182320, "internal_node_id": "0.0-10.0-3.0"}}, {"uniqueid": "MTK0283:3WI0P0II62ZMFI65FN6EVY5B2YPRDG", "current_trial": 14, "dateTime": 1510694610673, "trialdata": {"rt": -1, "stimulus": "<p id=\"stim\">6</p>", "key_press": -1, "trial_type": "single-stim", "trial_index": 14, "time_elapsed": 183321, "internal_node_id": "0.0-10.0-4.0"}}, {"uniqueid": "MTK0283:3WI0P0II62ZMFI65FN6EVY5B2YPRDG", "current_trial": 15, "dateTime": 1510694611674, "trialdata": {"rt": -1, "stimulus": "<p id=\"stim\">5</p>", "key_press": -1, "trial_type": "single-stim", "trial_index": 15, "time_elapsed": 184322, "internal_node_id": "0.0-10.0-5.0"}}, {"uniqueid": "MTK0283:3WI0P0II62ZMFI65FN6EVY5B2YPRDG", "current_trial": 16, "dateTime": 1510694612675, "trialdata": {"rt": -1, "stimulus": "<p id=\"stim\">4</p>", "key_press": -1, "trial_type": "single-stim", "trial_index": 16, "time_elapsed": 185323, "internal_node_id": "0.0-10.0-6.0"}}, {"uniqueid": "MTK0283:3WI0P0II62ZMFI65FN6EVY5B2YPRDG", "current_trial": 17, "dateTime": 1510694613676, "trialdata": {"rt": -1, "stimulus": "<p id=\"stim\">3</p>", "key_press": -1, "trial_type": "single-stim", "trial_index": 17, "time_elapsed": 186324, "internal_node_id": "0.0-10.0-7.0"}}, {"uniqueid": "MTK0283:3WI0P0II62ZMFI65FN6EVY5B2YPRDG", "current_trial": 18, "dateTime": 1510694614679, "trialdata": {"rt": -1, "stimulus": "<p id=\"stim\">2</p>", "key_press": -1, "trial_type": "single-stim", "trial_index": 18, "time_elapsed": 187326, "internal_node_id": "0.0-10.0-8.0"}}, {"uniqueid": "MTK0283:3WI0P0II62ZMFI65FN6EVY5B2YPRDG", "current_trial": 19, "dateTime": 1510694615680, "trialdata": {"rt": -1, "stimulus": "<p id=\"stim\">1</p>", "key_press": -1, "trial_type": "single-stim", "trial_index": 19, "time_elapsed": 188328, "internal_node_id": "0.0-10.0-9.0"}}, {"uniqueid": "MTK0283:3WI0P0II62ZMFI65FN6EVY5B2YPRDG", "current_trial": 20, "dateTime": 1510694617183, "trialdata": {"rt": -1, "stimulus": "<p id=\"stim\">+</p>", "key_press": -1, "type": "FIXATION", "trial_type": "single-stim", "trial_index": 20, "time_elapsed": 189830, "internal_node_id": "0.0-11.0-0.0"}}, {"uniqueid": "MTK0283:3WI0P0II62ZMFI65FN6EVY5B2YPRDG", "current_trial": 21, "dateTime": 1510694618384, "trialdata": {"rt": -1, "stimulus": "<p id=\"stim\">EUROPE</p>", "key_press": -1, "type": "PRES_VIS", "word": "europe", "wordID": 540, "conditions": [18, 1200, "v", 18000], "trial": 0, "serialpos": 0, "trial_type": "single-stim", "trial_index": 21, "time_elapsed": 191032, "internal_node_id": "0.0-12.0"}}, {"uniqueid": "MTK0283:3WI0P0II62ZMFI65FN6EVY5B2YPRDG", "current_trial": 22, "dateTime": 1510694620760, "trialdata": {"rt": -1, "stimulus": "<p id=\"stim\">COFFEE</p>", "key_press": -1, "type": "PRES_VIS", "word": "coffee", "wordID": 340, "conditions": [18, 1200, "v", 18000], "trial": 0, "serialpos": 1, "trial_type": "single-stim", "trial_index": 22, "time_elapsed": 193408, "internal_node_id": "0.0-13.0"}}, {"uniqueid": "MTK0283:3WI0P0II62ZMFI65FN6EVY5B2YPRDG", "current_trial": 23, "dateTime": 1510694622874, "trialdata": {"rt": -1, "stimulus": "<p id=\"stim\">PIGEON</p>", "key_press": -1, "type": "PRES_VIS", "word": "pigeon", "wordID": 1064, "conditions": [18, 1200, "v", 18000], "trial": 0, "serialpos": 2, "trial_type": "single-stim", "trial_index": 23, "time_elapsed": 195522, "internal_node_id": "0.0-14.0"}}, {"uniqueid": "MTK0283:3WI0P0II62ZMFI65FN6EVY5B2YPRDG", "current_trial": 24, "dateTime": 1510694625104, "trialdata": {"rt": -1, "stimulus": "<p id=\"stim\">WRIST</p>", "key_press": -1, "type": "PRES_VIS", "word": "wrist", "wordID": 1625, "conditions": [18, 1200, "v", 18000], "trial": 0, "serialpos": 3, "trial_type": "single-stim", "trial_index": 24, "time_elapsed": 197752, "internal_node_id": "0.0-15.0"}}, {"uniqueid": "MTK0283:3WI0P0II62ZMFI65FN6EVY5B2YPRDG", "current_trial": 25, "dateTime": 1510694627173, "trialdata": {"rt": -1, "stimulus": "<p id=\"stim\">OYSTER</p>", "key_press": -1, "type": "PRES_VIS", "word": "oyster", "wordID": 994, "conditions": [18, 1200, "v", 18000], "trial": 0, "serialpos": 4, "trial_type": "single-stim", "trial_index": 25, "time_elapsed": 199821, "internal_node_id": "0.0-16.0"}}, {"uniqueid": "MTK0283:3WI0P0II62ZMFI65FN6EVY5B2YPRDG", "current_trial": 26, "dateTime": 1510694629405, "trialdata": {"rt": -1, "stimulus": "<p id=\"stim\">BINDER</p>", "key_press": -1, "type": "PRES_VIS", "word": "binder", "wordID": 126, "conditions": [18, 1200, "v", 18000], "trial": 0, "serialpos": 5, "trial_type": "single-stim", "trial_index": 26, "time_elapsed": 202053, "internal_node_id": "0.0-17.0"}}, {"uniqueid": "MTK0283:3WI0P0II62ZMFI65FN6EVY5B2YPRDG", "current_trial": 27, "dateTime": 1510694631647, "trialdata": {"rt": -1, "stimulus": "<p id=\"stim\">MATCH</p>", "key_press": -1, "type": "PRES_VIS", "word": "match", "wordID": 877, "conditions": [18, 1200, "v", 18000], "trial": 0, "serialpos": 6, "trial_type": "single-stim", "trial_index": 27, "time_elapsed": 204294, "internal_node_id": "0.0-18.0"}}, {"uniqueid": "MTK0283:3WI0P0II62ZMFI65FN6EVY5B2YPRDG", "current_trial": 28, "dateTime": 1510694633980, "trialdata": {"rt": -1, "stimulus": "<p id=\"stim\">CASHIER</p>", "key_press": -1, "type": "PRES_VIS", "word": "cashier", "wordID": 253, "conditions": [18, 1200, "v", 18000], "trial": 0, "serialpos": 7, "trial_type": "single-stim", "trial_index": 28, "time_elapsed": 206627, "internal_node_id": "0.0-19.0"}}, {"uniqueid": "MTK0283:3WI0P0II62ZMFI65FN6EVY5B2YPRDG", "current_trial": 29, "dateTime": 1510694636180, "trialdata": {"rt": -1, "stimulus": "<p id=\"stim\">POLICE</p>", "key_press": -1, "type": "PRES_VIS", "word": "police", "wordID": 1097, "conditions": [18, 1200, "v", 18000], "trial": 0, "serialpos": 8, "trial_type": "single-stim", "trial_index": 29, "time_elapsed": 208827, "internal_node_id": "0.0-20.0"}}, {"uniqueid": "MTK0283:3WI0P0II62ZMFI65FN6EVY5B2YPRDG", "current_trial": 30, "dateTime": 1510694638431, "trialdata": {"rt": -1, "stimulus": "<p id=\"stim\">FIREPLACE</p>", "key_press": -1, "type": "PRES_VIS", "word": "fireplace", "wordID": 569, "conditions": [18, 1200, "v", 18000], "trial": 0, "serialpos": 9, "trial_type": "single-stim", "trial_index": 30, "time_elapsed": 211079, "internal_node_id": "0.0-21.0"}}, {"uniqueid": "MTK0283:3WI0P0II62ZMFI65FN6EVY5B2YPRDG", "current_trial": 31, "dateTime": 1510694640610, "trialdata": {"rt": -1, "stimulus": "<p id=\"stim\">MUMMY</p>", "key_press": -1, "type": "PRES_VIS", "word": "mummy", "wordID": 931, "conditions": [18, 1200, "v", 18000], "trial": 0, "serialpos": 10, "trial_type": "single-stim", "trial_index": 31, "time_elapsed": 213258, "internal_node_id": "0.0-22.0"}}, {"uniqueid": "MTK0283:3WI0P0II62ZMFI65FN6EVY5B2YPRDG", "current_trial": 32, "dateTime": 1510694642984, "trialdata": {"rt": -1, "stimulus": "<p id=\"stim\">BIKE</p>", "key_press": -1, "type": "PRES_VIS", "word": "bike", "wordID": 124, "conditions": [18, 1200, "v", 18000], "trial": 0, "serialpos": 11, "trial_type": "single-stim", "trial_index": 32, "time_elapsed": 215631, "internal_node_id": "0.0-23.0"}}, {"uniqueid": "MTK0283:3WI0P0II62ZMFI65FN6EVY5B2YPRDG", "current_trial": 33, "dateTime": 1510694645103, "trialdata": {"rt": -1, "stimulus": "<p id=\"stim\">MARKER</p>", "key_press": -1, "type": "PRES_VIS", "word": "marker", "wordID": 869, "conditions": [18, 1200, "v", 18000], "trial": 0, "serialpos": 12, "trial_type": "single-stim", "trial_index": 33, "time_elapsed": 217751, "internal_node_id": "0.0-24.0"}}, {"uniqueid": "MTK0283:3WI0P0II62ZMFI65FN6EVY5B2YPRDG", "current_trial": 34, "dateTime": 1510694647328, "trialdata": {"rt": -1, "stimulus": "<p id=\"stim\">BLOCKADE</p>", "key_press": -1, "type": "PRES_VIS", "word": "blockade", "wordID": 136, "conditions": [18, 1200, "v", 18000], "trial": 0, "serialpos": 13, "trial_type": "single-stim", "trial_index": 34, "time_elapsed": 219976, "internal_node_id": "0.0-25.0"}}, {"uniqueid": "MTK0283:3WI0P0II62ZMFI65FN6EVY5B2YPRDG", "current_trial": 35, "dateTime": 1510694649637, "trialdata": {"rt": -1, "stimulus": "<p id=\"stim\">FLOWER</p>", "key_press": -1, "type": "PRES_VIS", "word": "flower", "wordID": 583, "conditions": [18, 1200, "v", 18000], "trial": 0, "serialpos": 14, "trial_type": "single-stim", "trial_index": 35, "time_elapsed": 222285, "internal_node_id": "0.0-26.0"}}, {"uniqueid": "MTK0283:3WI0P0II62ZMFI65FN6EVY5B2YPRDG", "current_trial": 36, "dateTime": 1510694651936, "trialdata": {"rt": -1, "stimulus": "<p id=\"stim\">BEEF</p>", "key_press": -1, "type": "PRES_VIS", "word": "beef", "wordID": 112, "conditions": [18, 1200, "v", 18000], "trial": 0, "serialpos": 15, "trial_type": "single-stim", "trial_index": 36, "time_elapsed": 224584, "internal_node_id": "0.0-27.0"}}, {"uniqueid": "MTK0283:3WI0P0II62ZMFI65FN6EVY5B2YPRDG", "current_trial": 37, "dateTime": 1510694654075, "trialdata": {"rt": -1, "stimulus": "<p id=\"stim\">JAPAN</p>", "key_press": -1, "type": "PRES_VIS", "word": "japan", "wordID": 748, "conditions": [18, 1200, "v", 18000], "trial": 0, "serialpos": 16, "trial_type": "single-stim", "trial_index": 37, "time_elapsed": 226723, "internal_node_id": "0.0-28.0"}}, {"uniqueid": "MTK0283:3WI0P0II62ZMFI65FN6EVY5B2YPRDG", "current_trial": 38, "dateTime": 1510694656131, "trialdata": {"rt": -1, "stimulus": "<p id=\"stim\">UMPIRE</p>", "key_press": -1, "type": "PRES_VIS", "word": "umpire", "wordID": 1534, "conditions": [18, 1200, "v", 18000], "trial": 0, "serialpos": 17, "trial_type": "single-stim", "trial_index": 38, "time_elapsed": 228779, "internal_node_id": "0.0-29.0"}}, {"uniqueid": "MTK0283:3WI0P0II62ZMFI65FN6EVY5B2YPRDG", "current_trial": 39, "dateTime": 1510694658276, "trialdata": {"rt": -1, "stimulus": "", "key_press": -1, "type": "PRE_RECALL_DELAY", "trial_type": "single-stim", "trial_index": 39, "time_elapsed": 230924, "internal_node_id": "0.0-30.0-0.0"}}, {"uniqueid": "MTK0283:3WI0P0II62ZMFI65FN6EVY5B2YPRDG", "current_trial": 40, "dateTime": 1510694658778, "trialdata": {"rt": -1000, "stimulus": "/static/audio/400Hz.wav", "key_press": -1, "type": "PRE_RECALL_ALERT", "trial_type": "single-audio", "trial_index": 40, "time_elapsed": 231426, "internal_node_id": "0.0-31.0"}}, {"uniqueid": "MTK0283:3WI0P0II62ZMFI65FN6EVY5B2YPRDG", "current_trial": 41, "dateTime": 1510694718782, "trialdata": {"rt": [3146, 5585, 6735, 13222, 17928, 23322], "recwords": ["umpire", "japan", "beef", "pigeon", "flower", "europe"], "type": "FREE_RECALL", "conditions": [18, 1200, "v", 18000], "trial": 0, "trial_type": "free-recall", "trial_index": 41, "time_elapsed": 291428, "internal_node_id": "0.0-32.0-0.0"}}, {"uniqueid": "MTK0283:3WI0P0II62ZMFI65FN6EVY5B2YPRDG", "current_trial": 42, "dateTime": 1510694722653, "trialdata": {"rt": 1870, "key_press": 75, "type": "INSTRUCTIONS", "trial_type": "text", "trial_index": 42, "time_elapsed": 295301, "internal_node_id": "0.0-33.0"}}, {"uniqueid": "MTK0283:3WI0P0II62ZMFI65FN6EVY5B2YPRDG", "current_trial": 43, "dateTime": 1510694742657, "trialdata": {"rt": [2875, 6105, 8462, 10431, 13125, 17110], "responses": ["15", "16", "19", "19", "12", "19"], "num1": [8, 9, 8, 7, 2, 9, 4], "num2": [2, 2, 9, 3, 4, 3, 3], "num3": [5, 5, 2, 9, 6, 9, 5], "type": "DISTRACTOR", "conditions": [18, 1200, "a", 18000], "trial": 1, "trial_type": "math-distractor", "trial_index": 43, "time_elapsed": 315305, "internal_node_id": "0.0-34.0"}}, {"uniqueid": "MTK0283:3WI0P0II62ZMFI65FN6EVY5B2YPRDG", "current_trial": 44, "dateTime": 1510694745660, "trialdata": {"rt": -1, "stimulus": "<p id=\"stim\">10</p>", "key_press": -1, "trial_type": "single-stim", "trial_index": 44, "time_elapsed": 318307, "internal_node_id": "0.0-35.0-0.0"}}, {"uniqueid": "MTK0283:3WI0P0II62ZMFI65FN6EVY5B2YPRDG", "current_trial": 45, "dateTime": 1510694746661, "trialdata": {"rt": -1, "stimulus": "<p id=\"stim\">9</p>", "key_press": -1, "trial_type": "single-stim", "trial_index": 45, "time_elapsed": 319309, "internal_node_id": "0.0-35.0-1.0"}}, {"uniqueid": "MTK0283:3WI0P0II62ZMFI65FN6EVY5B2YPRDG", "current_trial": 46, "dateTime": 1510694747663, "trialdata": {"rt": -1, "stimulus": "<p id=\"stim\">8</p>", "key_press": -1, "trial_type": "single-stim", "trial_index": 46, "time_elapsed": 320310, "internal_node_id": "0.0-35.0-2.0"}}, {"uniqueid": "MTK0283:3WI0P0II62ZMFI65FN6EVY5B2YPRDG", "current_trial": 47, "dateTime": 1510694748664, "trialdata": {"rt": -1, "stimulus": "<p id=\"stim\">7</p>", "key_press": -1, "trial_type": "single-stim", "trial_index": 47, "time_elapsed": 321312, "internal_node_id": "0.0-35.0-3.0"}}, {"uniqueid": "MTK0283:3WI0P0II62ZMFI65FN6EVY5B2YPRDG", "current_trial": 48, "dateTime": 1510694749666, "trialdata": {"rt": -1, "stimulus": "<p id=\"stim\">6</p>", "key_press": -1, "trial_type": "single-stim", "trial_index": 48, "time_elapsed": 322314, "internal_node_id": "0.0-35.0-4.0"}}, {"uniqueid": "MTK0283:3WI0P0II62ZMFI65FN6EVY5B2YPRDG", "current_trial": 49, "dateTime": 1510694750668, "trialdata": {"rt": -1, "stimulus": "<p id=\"stim\">5</p>", "key_press": -1, "trial_type": "single-stim", "trial_index": 49, "time_elapsed": 323316, "internal_node_id": "0.0-35.0-5.0"}}, {"uniqueid": "MTK0283:3WI0P0II62ZMFI65FN6EVY5B2YPRDG", "current_trial": 50, "dateTime": 1510694751669, "trialdata": {"rt": -1, "stimulus": "<p id=\"stim\">4</p>", "key_press": -1, "trial_type": "single-stim", "trial_index": 50, "time_elapsed": 324317, "internal_node_id": "0.0-35.0-6.0"}}, {"uniqueid": "MTK0283:3WI0P0II62ZMFI65FN6EVY5B2YPRDG", "current_trial": 51, "dateTime": 1510694752671, "trialdata": {"rt": -1, "stimulus": "<p id=\"stim\">3</p>", "key_press": -1, "trial_type": "single-stim", "trial_index": 51, "time_elapsed": 325319, "internal_node_id": "0.0-35.0-7.0"}}, {"uniqueid": "MTK0283:3WI0P0II62ZMFI65FN6EVY5B2YPRDG", "current_trial": 52, "dateTime": 1510694753674, "trialdata": {"rt": -1, "stimulus": "<p id=\"stim\">2</p>", "key_press": -1, "trial_type": "single-stim", "trial_index": 52, "time_elapsed": 326322, "internal_node_id": "0.0-35.0-8.0"}}, {"uniqueid": "MTK0283:3WI0P0II62ZMFI65FN6EVY5B2YPRDG", "current_trial": 53, "dateTime": 1510694754675, "trialdata": {"rt": -1, "stimulus": "<p id=\"stim\">1</p>", "key_press": -1, "trial_type": "single-stim", "trial_index": 53, "time_elapsed": 327323, "internal_node_id": "0.0-35.0-9.0"}}, {"uniqueid": "MTK0283:3WI0P0II62ZMFI65FN6EVY5B2YPRDG", "current_trial": 54, "dateTime": 1510694756178, "trialdata": {"rt": -1, "stimulus": "<p id=\"stim\">+</p>", "key_press": -1, "type": "FIXATION", "trial_type": "single-stim", "trial_index": 54, "time_elapsed": 328826, "internal_node_id": "0.0-36.0-0.0"}}, {"uniqueid": "MTK0283:3WI0P0II62ZMFI65FN6EVY5B2YPRDG", "current_trial": 55, "dateTime": 1510694758369, "trialdata": {"rt": -1000, "stimulus": "/static/audio/wordpool/SHIRT.wav", "key_press": -1, "type": "PRES_AUD", "word": "shirt", "wordID": 1286, "conditions": [18, 1200, "a", 18000], "trial": 1, "serialpos": 0, "trial_type": "single-audio", "trial_index": 55, "time_elapsed": 331017, "internal_node_id": "0.0-37.0"}}, {"uniqueid": "MTK0283:3WI0P0II62ZMFI65FN6EVY5B2YPRDG", "current_trial": 56, "dateTime": 1510694760419, "trialdata": {"rt": -1000, "stimulus": "/static/audio/wordpool/ROBBER.wav", "key_press": -1, "type": "PRES_AUD", "word": "robber", "wordID": 1196, "conditions": [18, 1200, "a", 18000], "trial": 1, "serialpos": 1, "trial_type": "single-audio", "trial_index": 56, "time_elapsed": 333067, "internal_node_id": "0.0-38.0"}}, {"uniqueid": "MTK0283:3WI0P0II62ZMFI65FN6EVY5B2YPRDG", "current_trial": 57, "dateTime": 1510694762626, "trialdata": {"rt": -1000, "stimulus": "/static/audio/wordpool/EAGLE.wav", "key_press": -1, "type": "PRES_AUD", "word": "eagle", "wordID": 511, "conditions": [18, 1200, "a", 18000], "trial": 1, "serialpos": 2, "trial_type": "single-audio", "trial_index": 57, "time_elapsed": 335274, "internal_node_id": "0.0-39.0"}}, {"uniqueid": "MTK0283:3WI0P0II62ZMFI65FN6EVY5B2YPRDG", "current_trial": 58, "dateTime": 1510694764651, "trialdata": {"rt": -1000, "stimulus": "/static/audio/wordpool/STOVE.wav", "key_press": -1, "type": "PRES_AUD", "word": "stove", "wordID": 1387, "conditions": [18, 1200, "a", 18000], "trial": 1, "serialpos": 3, "trial_type": "single-audio", "trial_index": 58, "time_elapsed": 337299, "internal_node_id": "0.0-40.0"}}, {"uniqueid": "MTK0283:3WI0P0II62ZMFI65FN6EVY5B2YPRDG", "current_trial": 59, "dateTime": 1510694766844, "trialdata": {"rt": -1000, "stimulus": "/static/audio/wordpool/PLUTO.wav", "key_press": -1, "type": "PRES_AUD", "word": "pluto", "wordID": 1091, "conditions": [18, 1200, "a", 18000], "trial": 1, "serialpos": 4, "trial_type": "single-audio", "trial_index": 59, "time_elapsed": 339492, "internal_node_id": "0.0-41.0"}}, {"uniqueid": "MTK0283:3WI0P0II62ZMFI65FN6EVY5B2YPRDG", "current_trial": 60, "dateTime": 1510694769101, "trialdata": {"rt": -1000, "stimulus": "/static/audio/wordpool/SLIME.wav", "key_press": -1, "type": "PRES_AUD", "word": "slime", "wordID": 1326, "conditions": [18, 1200, "a", 18000], "trial": 1, "serialpos": 5, "trial_type": "single-audio", "trial_index": 60, "time_elapsed": 341749, "internal_node_id": "0.0-42.0"}}, {"uniqueid": "MTK0283:3WI0P0II62ZMFI65FN6EVY5B2YPRDG", "current_trial": 61, "dateTime": 1510694771301, "trialdata": {"rt": -1000, "stimulus": "/static/audio/wordpool/HARP.wav", "key_press": -1, "type": "PRES_AUD", "word": "harp", "wordID": 688, "conditions": [18, 1200, "a", 18000], "trial": 1, "serialpos": 6, "trial_type": "single-audio", "trial_index": 61, "time_elapsed": 343949, "internal_node_id": "0.0-43.0"}}, {"uniqueid": "MTK0283:3WI0P0II62ZMFI65FN6EVY5B2YPRDG", "current_trial": 62, "dateTime": 1510694773317, "trialdata": {"rt": -1000, "stimulus": "/static/audio/wordpool/LOFT.wav", "key_press": -1, "type": "PRES_AUD", "word": "loft", "wordID": 839, "conditions": [18, 1200, "a", 18000], "trial": 1, "serialpos": 7, "trial_type": "single-audio", "trial_index": 62, "time_elapsed": 345965, "internal_node_id": "0.0-44.0"}}, {"uniqueid": "MTK0283:3WI0P0II62ZMFI65FN6EVY5B2YPRDG", "current_trial": 63, "dateTime": 1510694775616, "trialdata": {"rt": -1000, "stimulus": "/static/audio/wordpool/TABLE.wav", "key_press": -1, "type": "PRES_AUD", "word": "table", "wordID": 1425, "conditions": [18, 1200, "a", 18000], "trial": 1, "serialpos": 8, "trial_type": "single-audio", "trial_index": 63, "time_elapsed": 348264, "internal_node_id": "0.0-45.0"}}, {"uniqueid": "MTK0283:3WI0P0II62ZMFI65FN6EVY5B2YPRDG", "current_trial": 64, "dateTime": 1510694777671, "trialdata": {"rt": -1000, "stimulus": "/static/audio/wordpool/GROUND.wav", "key_press": -1, "type": "PRES_AUD", "word": "ground", "wordID": 665, "conditions": [18, 1200, "a", 18000], "trial": 1, "serialpos": 9, "trial_type": "single-audio", "trial_index": 64, "time_elapsed": 350319, "internal_node_id": "0.0-46.0"}}, {"uniqueid": "MTK0283:3WI0P0II62ZMFI65FN6EVY5B2YPRDG", "current_trial": 65, "dateTime": 1510694779764, "trialdata": {"rt": -1000, "stimulus": "/static/audio/wordpool/WORKER.wav", "key_press": -1, "type": "PRES_AUD", "word": "worker", "wordID": 1620, "conditions": [18, 1200, "a", 18000], "trial": 1, "serialpos": 10, "trial_type": "single-audio", "trial_index": 65, "time_elapsed": 352412, "internal_node_id": "0.0-47.0"}}, {"uniqueid": "MTK0283:3WI0P0II62ZMFI65FN6EVY5B2YPRDG", "current_trial": 66, "dateTime": 1510694782146, "trialdata": {"rt": -1000, "stimulus": "/static/audio/wordpool/PIZZA.wav", "key_press": -1, "type": "PRES_AUD", "word": "pizza", "wordID": 1078, "conditions": [18, 1200, "a", 18000], "trial": 1, "serialpos": 11, "trial_type": "single-audio", "trial_index": 66, "time_elapsed": 354794, "internal_node_id": "0.0-48.0"}}, {"uniqueid": "MTK0283:3WI0P0II62ZMFI65FN6EVY5B2YPRDG", "current_trial": 67, "dateTime": 1510694784324, "trialdata": {"rt": -1000, "stimulus": "/static/audio/wordpool/SHELF.wav", "key_press": -1, "type": "PRES_AUD", "word": "shelf", "wordID": 1279, "conditions": [18, 1200, "a", 18000], "trial": 1, "serialpos": 12, "trial_type": "single-audio", "trial_index": 67, "time_elapsed": 356972, "internal_node_id": "0.0-49.0"}}, {"uniqueid": "MTK0283:3WI0P0II62ZMFI65FN6EVY5B2YPRDG", "current_trial": 68, "dateTime": 1510694786591, "trialdata": {"rt": -1000, "stimulus": "/static/audio/wordpool/PERMIT.wav", "key_press": -1, "type": "PRES_AUD", "word": "permit", "wordID": 1050, "conditions": [18, 1200, "a", 18000], "trial": 1, "serialpos": 13, "trial_type": "single-audio", "trial_index": 68, "time_elapsed": 359235, "internal_node_id": "0.0-50.0"}}, {"uniqueid": "MTK0283:3WI0P0II62ZMFI65FN6EVY5B2YPRDG", "current_trial": 69, "dateTime": 1510694788965, "trialdata": {"rt": -1000, "stimulus": "/static/audio/wordpool/PANTHER.wav", "key_press": -1, "type": "PRES_AUD", "word": "panther", "wordID": 1008, "conditions": [18, 1200, "a", 18000], "trial": 1, "serialpos": 14, "trial_type": "single-audio", "trial_index": 69, "time_elapsed": 361613, "internal_node_id": "0.0-51.0"}}, {"uniqueid": "MTK0283:3WI0P0II62ZMFI65FN6EVY5B2YPRDG", "current_trial": 70, "dateTime": 1510694790986, "trialdata": {"rt": -1000, "stimulus": "/static/audio/wordpool/VAGRANT.wav", "key_press": -1, "type": "PRES_AUD", "word": "vagrant", "wordID": 1543, "conditions": [18, 1200, "a", 18000], "trial": 1, "serialpos": 15, "trial_type": "single-audio", "trial_index": 70, "time_elapsed": 363634, "internal_node_id": "0.0-52.0"}}, {"uniqueid": "MTK0283:3WI0P0II62ZMFI65FN6EVY5B2YPRDG", "current_trial": 71, "dateTime": 1510694793001, "trialdata": {"rt": -1000, "stimulus": "/static/audio/wordpool/NAPKIN.wav", "key_press": -1, "type": "PRES_AUD", "word": "napkin", "wordID": 936, "conditions": [18, 1200, "a", 18000], "trial": 1, "serialpos": 16, "trial_type": "single-audio", "trial_index": 71, "time_elapsed": 365649, "internal_node_id": "0.0-53.0"}}, {"uniqueid": "MTK0283:3WI0P0II62ZMFI65FN6EVY5B2YPRDG", "current_trial": 72, "dateTime": 1510694795005, "trialdata": {"rt": -1000, "stimulus": "/static/audio/wordpool/HAND.wav", "key_press": -1, "type": "PRES_AUD", "word": "hand", "wordID": 682, "conditions": [18, 1200, "a", 18000], "trial": 1, "serialpos": 17, "trial_type": "single-audio", "trial_index": 72, "time_elapsed": 367653, "internal_node_id": "0.0-54.0"}}, {"uniqueid": "MTK0283:3WI0P0II62ZMFI65FN6EVY5B2YPRDG", "current_trial": 73, "dateTime": 1510694796380, "trialdata": {"rt": -1, "stimulus": "", "key_press": -1, "type": "PRE_RECALL_DELAY", "trial_type": "single-stim", "trial_index": 73, "time_elapsed": 369028, "internal_node_id": "0.0-55.0-0.0"}}, {"uniqueid": "MTK0283:3WI0P0II62ZMFI65FN6EVY5B2YPRDG", "current_trial": 74, "dateTime": 1510694796882, "trialdata": {"rt": -1000, "stimulus": "/static/audio/400Hz.wav", "key_press": -1, "type": "PRE_RECALL_ALERT", "trial_type": "single-audio", "trial_index": 74, "time_elapsed": 369530, "internal_node_id": "0.0-56.0"}}, {"uniqueid": "MTK0283:3WI0P0II62ZMFI65FN6EVY5B2YPRDG", "current_trial": 75, "dateTime": 1510694856885, "trialdata": {"rt": [3244, 4614, 7759], "recwords": ["hand", "napkin", "permit"], "type": "FREE_RECALL", "conditions": [18, 1200, "a", 18000], "trial": 1, "trial_type": "free-recall", "trial_index": 75, "time_elapsed": 429532, "internal_node_id": "0.0-57.0-0.0"}}, {"uniqueid": "MTK0283:3WI0P0II62ZMFI65FN6EVY5B2YPRDG", "current_trial": 76, "dateTime": 1510694860904, "trialdata": {"rt": 2015, "key_press": 70, "type": "INSTRUCTIONS", "trial_type": "text", "trial_index": 76, "time_elapsed": 433551, "internal_node_id": "0.0-58.0"}}, {"uniqueid": "MTK0283:3WI0P0II62ZMFI65FN6EVY5B2YPRDG", "current_trial": 77, "dateTime": 1510694885908, "trialdata": {"rt": [2318, 4632, 6486, 8419, 10267, 13062, 15483, 18173, 20197, 23112], "responses": ["14", "15", "14", "17", "17", "14", "14", "18", "18", "14"], "num1": [8, 5, 9, 4, 5, 2, 6, 8, 2, 6, 7], "num2": [2, 9, 3, 6, 7, 3, 7, 8, 7, 1, 7], "num3": [4, 1, 2, 7, 5, 9, 2, 2, 9, 8, 6], "type": "DISTRACTOR", "conditions": [12, 1600, "v", 24000], "trial": 2, "trial_type": "math-distractor", "trial_index": 77, "time_elapsed": 458555, "internal_node_id": "0.0-59.0"}}, {"uniqueid": "MTK0283:3WI0P0II62ZMFI65FN6EVY5B2YPRDG", "current_trial": 78, "dateTime": 1510694888911, "trialdata": {"rt": -1, "stimulus": "<p id=\"stim\">10</p>", "key_press": -1, "trial_type": "single-stim", "trial_index": 78, "time_elapsed": 461559, "internal_node_id": "0.0-60.0-0.0"}}, {"uniqueid": "MTK0283:3WI0P0II62ZMFI65FN6EVY5B2YPRDG", "current_trial": 79, "dateTime": 1510694889913, "trialdata": {"rt": -1, "stimulus": "<p id=\"stim\">9</p>", "key_press": -1, "trial_type": "single-stim", "trial_index": 79, "time_elapsed": 462561, "internal_node_id": "0.0-60.0-1.0"}}, {"uniqueid": "MTK0283:3WI0P0II62ZMFI65FN6EVY5B2YPRDG", "current_trial": 80, "dateTime": 1510694890914, "trialdata": {"rt": -1, "stimulus": "<p id=\"stim\">8</p>", "key_press": -1, "trial_type": "single-stim", "trial_index": 80, "time_elapsed": 463562, "internal_node_id": "0.0-60.0-2.0"}}, {"uniqueid": "MTK0283:3WI0P0II62ZMFI65FN6EVY5B2YPRDG", "current_trial": 81, "dateTime": 1510694891916, "trialdata": {"rt": -1, "stimulus": "<p id=\"stim\">7</p>", "key_press": -1, "trial_type": "single-stim", "trial_index": 81, "time_elapsed": 464564, "internal_node_id": "0.0-60.0-3.0"}}, {"uniqueid": "MTK0283:3WI0P0II62ZMFI65FN6EVY5B2YPRDG", "current_trial": 82, "dateTime": 1510694892917, "trialdata": {"rt": -1, "stimulus": "<p id=\"stim\">6</p>", "key_press": -1, "trial_type": "single-stim", "trial_index": 82, "time_elapsed": 465565, "internal_node_id": "0.0-60.0-4.0"}}, {"uniqueid": "MTK0283:3WI0P0II62ZMFI65FN6EVY5B2YPRDG", "current_trial": 83, "dateTime": 1510694893920, "trialdata": {"rt": -1, "stimulus": "<p id=\"stim\">5</p>", "key_press": -1, "trial_type": "single-stim", "trial_index": 83, "time_elapsed": 466568, "internal_node_id": "0.0-60.0-5.0"}}, {"uniqueid": "MTK0283:3WI0P0II62ZMFI65FN6EVY5B2YPRDG", "current_trial": 84, "dateTime": 1510694894922, "trialdata": {"rt": -1, "stimulus": "<p id=\"stim\">4</p>", "key_press": -1, "trial_type": "single-stim", "trial_index": 84, "time_elapsed": 467570, "internal_node_id": "0.0-60.0-6.0"}}, {"uniqueid": "MTK0283:3WI0P0II62ZMFI65FN6EVY5B2YPRDG", "current_trial": 85, "dateTime": 1510694895925, "trialdata": {"rt": -1, "stimulus": "<p id=\"stim\">3</p>", "key_press": -1, "trial_type": "single-stim", "trial_index": 85, "time_elapsed": 468573, "internal_node_id": "0.0-60.0-7.0"}}, {"uniqueid": "MTK0283:3WI0P0II62ZMFI65FN6EVY5B2YPRDG", "current_trial": 86, "dateTime": 1510694896928, "trialdata": {"rt": -1, "stimulus": "<p id=\"stim\">2</p>", "key_press": -1, "trial_type": "single-stim", "trial_index": 86, "time_elapsed": 469575, "internal_node_id": "0.0-60.0-8.0"}}, {"uniqueid": "MTK0283:3WI0P0II62ZMFI65FN6EVY5B2YPRDG", "current_trial": 87, "dateTime": 1510694897930, "trialdata": {"rt": -1, "stimulus": "<p id=\"stim\">1</p>", "key_press": -1, "trial_type": "single-stim", "trial_index": 87, "time_elapsed": 470578, "internal_node_id": "0.0-60.0-9.0"}}, {"uniqueid": "MTK0283:3WI0P0II62ZMFI65FN6EVY5B2YPRDG", "current_trial": 88, "dateTime": 1510694899432, "trialdata": {"rt": -1, "stimulus": "<p id=\"stim\">+</p>", "key_press": -1, "type": "FIXATION", "trial_type": "single-stim", "trial_index": 88, "time_elapsed": 472079, "internal_node_id": "0.0-61.0-0.0"}}, {"uniqueid": "MTK0283:3WI0P0II62ZMFI65FN6EVY5B2YPRDG", "current_trial": 89, "dateTime": 1510694901033, "trialdata": {"rt": -1, "stimulus": "<p id=\"stim\">NIGHTGOWN</p>", "key_press": -1, "type": "PRES_VIS", "word": "nightgown", "wordID": 952, "conditions": [12, 1600, "v", 24000], "trial": 2, "serialpos": 0, "trial_type": "single-stim", "trial_index": 89, "time_elapsed": 473681, "internal_node_id": "0.0-62.0"}}, {"uniqueid": "MTK0283:3WI0P0II62ZMFI65FN6EVY5B2YPRDG", "current_trial": 90, "dateTime": 1510694903756, "trialdata": {"rt": -1, "stimulus": "<p id=\"stim\">BUNNY</p>", "key_press": -1, "type": "PRES_VIS", "word": "bunny", "wordID": 197, "conditions": [12, 1600, "v", 24000], "trial": 2, "serialpos": 1, "trial_type": "single-stim", "trial_index": 90, "time_elapsed": 476404, "internal_node_id": "0.0-63.0"}}, {"uniqueid": "MTK0283:3WI0P0II62ZMFI65FN6EVY5B2YPRDG", "current_trial": 91, "dateTime": 1510694906170, "trialdata": {"rt": -1, "stimulus": "<p id=\"stim\">COUNTRY</p>", "key_press": -1, "type": "PRES_VIS", "word": "country", "wordID": 387, "conditions": [12, 1600, "v", 24000], "trial": 2, "serialpos": 2, "trial_type": "single-stim", "trial_index": 91, "time_elapsed": 478817, "internal_node_id": "0.0-64.0"}}, {"uniqueid": "MTK0283:3WI0P0II62ZMFI65FN6EVY5B2YPRDG", "current_trial": 92, "dateTime": 1510694908706, "trialdata": {"rt": -1, "stimulus": "<p id=\"stim\">SURVEY</p>", "key_press": -1, "type": "PRES_VIS", "word": "survey", "wordID": 1413, "conditions": [12, 1600, "v", 24000], "trial": 2, "serialpos": 3, "trial_type": "single-stim", "trial_index": 92, "time_elapsed": 481354, "internal_node_id": "0.0-65.0"}}, {"uniqueid": "MTK0283:3WI0P0II62ZMFI65FN6EVY5B2YPRDG", "current_trial": 93, "dateTime": 1510694911148, "trialdata": {"rt": -1, "stimulus": "<p id=\"stim\">REPORT</p>", "key_press": -1, "type": "PRES_VIS", "word": "report", "wordID": 1183, "conditions": [12, 1600, "v", 24000], "trial": 2, "serialpos": 4, "trial_type": "single-stim", "trial_index": 93, "time_elapsed": 483796, "internal_node_id": "0.0-66.0"}}, {"uniqueid": "MTK0283:3WI0P0II62ZMFI65FN6EVY5B2YPRDG", "current_trial": 94, "dateTime": 1510694913813, "trialdata": {"rt": -1, "stimulus": "<p id=\"stim\">WORLD</p>", "key_press": -1, "type": "PRES_VIS", "word": "world", "wordID": 1621, "conditions": [12, 1600, "v", 24000], "trial": 2, "serialpos": 5, "trial_type": "single-stim", "trial_index": 94, "time_elapsed": 486460, "internal_node_id": "0.0-67.0"}}, {"uniqueid": "MTK0283:3WI0P0II62ZMFI65FN6EVY5B2YPRDG", "current_trial": 95, "dateTime": 1510694916258, "trialdata": {"rt": -1, "stimulus": "<p id=\"stim\">PORK</p>", "key_press": -1, "type": "PRES_VIS", "word": "pork", "wordID": 1107, "conditions": [12, 1600, "v", 24000], "trial": 2, "serialpos": 6, "trial_type": "single-stim", "trial_index": 95, "time_elapsed": 488906, "internal_node_id": "0.0-68.0"}}, {"uniqueid": "MTK0283:3WI0P0II62ZMFI65FN6EVY5B2YPRDG", "current_trial": 96, "dateTime": 1510694918945, "trialdata": {"rt": -1, "stimulus": "<p id=\"stim\">KNAPSACK</p>", "key_press": -1, "type": "PRES_VIS", "word": "knapsack", "wordID": 782, "conditions": [12, 1600, "v", 24000], "trial": 2, "serialpos": 7, "trial_type": "single-stim", "trial_index": 96, "time_elapsed": 491593, "internal_node_id": "0.0-69.0"}}, {"uniqueid": "MTK0283:3WI0P0II62ZMFI65FN6EVY5B2YPRDG", "current_trial": 97, "dateTime": 1510694921658, "trialdata": {"rt": -1, "stimulus": "<p id=\"stim\">VALVE</p>", "key_press": -1, "type": "PRES_VIS", "word": "valve", "wordID": 1545, "conditions": [12, 1600, "v", 24000], "trial": 2, "serialpos": 8, "trial_type": "single-stim", "trial_index": 97, "time_elapsed": 494306, "internal_node_id": "0.0-70.0"}}, {"uniqueid": "MTK0283:3WI0P0II62ZMFI65FN6EVY5B2YPRDG", "current_trial": 98, "dateTime": 1510694924314, "trialdata": {"rt": -1, "stimulus": "<p id=\"stim\">TWEEZERS</p>", "key_press": -1, "type": "PRES_VIS", "word": "tweezers", "wordID": 1525, "conditions": [12, 1600, "v", 24000], "trial": 2, "serialpos": 9, "trial_type": "single-stim", "trial_index": 98, "time_elapsed": 496962, "internal_node_id": "0.0-71.0"}}, {"uniqueid": "MTK0283:3WI0P0II62ZMFI65FN6EVY5B2YPRDG", "current_trial": 99, "dateTime": 1510694926835, "trialdata": {"rt": -1, "stimulus": "<p id=\"stim\">SEAFOOD</p>", "key_press": -1, "type": "PRES_VIS", "word": "seafood", "wordID": 1259, "conditions": [12, 1600, "v", 24000], "trial": 2, "serialpos": 10, "trial_type": "single-stim", "trial_index": 99, "time_elapsed": 499483, "internal_node_id": "0.0-72.0"}}, {"uniqueid": "MTK0283:3WI0P0II62ZMFI65FN6EVY5B2YPRDG", "current_trial": 100, "dateTime": 1510694929616, "trialdata": {"rt": -1, "stimulus": "<p id=\"stim\">HELMET</p>", "key_press": -1, "type": "PRES_VIS", "word": "helmet", "wordID": 701, "conditions": [12, 1600, "v", 24000], "trial": 2, "serialpos": 11, "trial_type": "single-stim", "trial_index": 100, "time_elapsed": 502264, "internal_node_id": "0.0-73.0"}}, {"uniqueid": "MTK0283:3WI0P0II62ZMFI65FN6EVY5B2YPRDG", "current_trial": 101, "dateTime": 1510694931765, "trialdata": {"rt": -1, "stimulus": "", "key_press": -1, "type": "PRE_RECALL_DELAY", "trial_type": "single-stim", "trial_index": 101, "time_elapsed": 504413, "internal_node_id": "0.0-74.0-0.0"}}, {"uniqueid": "MTK0283:3WI0P0II62ZMFI65FN6EVY5B2YPRDG", "current_trial": 102, "dateTime": 1510694932267, "trialdata": {"rt": -1000, "stimulus": "/static/audio/400Hz.wav", "key_press": -1, "type": "PRE_RECALL_ALERT", "trial_type": "single-audio", "trial_index": 102, "time_elapsed": 504915, "internal_node_id": "0.0-75.0"}}, {"uniqueid": "MTK0283:3WI0P0II62ZMFI65FN6EVY5B2YPRDG", "current_trial": 103, "dateTime": 1510694992275, "trialdata": {"rt": [2313, 3930, 6554], "recwords": ["seafood", "tweezers", "helmet"], "type": "FREE_RECALL", "conditions": [12, 1600, "v", 24000], "trial": 2, "trial_type": "free-recall", "trial_index": 103, "time_elapsed": 564920, "internal_node_id": "0.0-76.0-0.0"}}, {"uniqueid": "MTK0283:3WI0P0II62ZMFI65FN6EVY5B2YPRDG", "current_trial": 104, "dateTime": 1510695003017, "trialdata": {"rt": 8739, "key_press": 74, "type": "INSTRUCTIONS", "trial_type": "text", "trial_index": 104, "time_elapsed": 575665, "internal_node_id": "0.0-77.0"}}, {"uniqueid": "MTK0283:3WI0P0II62ZMFI65FN6EVY5B2YPRDG", "current_trial": 105, "dateTime": 1510695017021, "trialdata": {"rt": [2792, 5332, 8901, 11715], "responses": ["17", "18", "20", "13"], "num1": [7, 4, 9, 5, 8], "num2": [3, 5, 8, 2, 3], "num3": [7, 9, 3, 6, 4], "type": "DISTRACTOR", "conditions": [24, 1600, "a", 12000], "trial": 3, "trial_type": "math-distractor", "trial_index": 105, "time_elapsed": 589669, "internal_node_id": "0.0-78.0"}}, {"uniqueid": "MTK0283:3WI0P0II62ZMFI65FN6EVY5B2YPRDG", "current_trial": 106, "dateTime": 1510695020024, "trialdata": {"rt": -1, "stimulus": "<p id=\"stim\">10</p>", "key_press": -1, "trial_type": "single-stim", "trial_index": 106, "time_elapsed": 592672, "internal_node_id": "0.0-79.0-0.0"}}, {"uniqueid": "MTK0283:3WI0P0II62ZMFI65FN6EVY5B2YPRDG", "current_trial": 107, "dateTime": 1510695021026, "trialdata": {"rt": -1, "stimulus": "<p id=\"stim\">9</p>", "key_press": -1, "trial_type": "single-stim", "trial_index": 107, "time_elapsed": 593673, "internal_node_id": "0.0-79.0-1.0"}}, {"uniqueid": "MTK0283:3WI0P0II62ZMFI65FN6EVY5B2YPRDG", "current_trial": 108, "dateTime": 1510695022028, "trialdata": {"rt": -1, "stimulus": "<p id=\"stim\">8</p>", "key_press": -1, "trial_type": "single-stim", "trial_index": 108, "time_elapsed": 594676, "internal_node_id": "0.0-79.0-2.0"}}, {"uniqueid": "MTK0283:3WI0P0II62ZMFI65FN6EVY5B2YPRDG", "current_trial": 109, "dateTime": 1510695023030, "trialdata": {"rt": -1, "stimulus": "<p id=\"stim\">7</p>", "key_press": -1, "trial_type": "single-stim", "trial_index": 109, "time_elapsed": 595678, "internal_node_id": "0.0-79.0-3.0"}}, {"uniqueid": "MTK0283:3WI0P0II62ZMFI65FN6EVY5B2YPRDG", "current_trial": 110, "dateTime": 1510695024032, "trialdata": {"rt": -1, "stimulus": "<p id=\"stim\">6</p>", "key_press": -1, "trial_type": "single-stim", "trial_index": 110, "time_elapsed": 596680, "internal_node_id": "0.0-79.0-4.0"}}, {"uniqueid": "MTK0283:3WI0P0II62ZMFI65FN6EVY5B2YPRDG", "current_trial": 111, "dateTime": 1510695025034, "trialdata": {"rt": -1, "stimulus": "<p id=\"stim\">5</p>", "key_press": -1, "trial_type": "single-stim", "trial_index": 111, "time_elapsed": 597682, "internal_node_id": "0.0-79.0-5.0"}}, {"uniqueid": "MTK0283:3WI0P0II62ZMFI65FN6EVY5B2YPRDG", "current_trial": 112, "dateTime": 1510695026035, "trialdata": {"rt": -1, "stimulus": "<p id=\"stim\">4</p>", "key_press": -1, "trial_type": "single-stim", "trial_index": 112, "time_elapsed": 598683, "internal_node_id": "0.0-79.0-6.0"}}, {"uniqueid": "MTK0283:3WI0P0II62ZMFI65FN6EVY5B2YPRDG", "current_trial": 113, "dateTime": 1510695027037, "trialdata": {"rt": -1, "stimulus": "<p id=\"stim\">3</p>", "key_press": -1, "trial_type": "single-stim", "trial_index": 113, "time_elapsed": 599685, "internal_node_id": "0.0-79.0-7.0"}}, {"uniqueid": "MTK0283:3WI0P0II62ZMFI65FN6EVY5B2YPRDG", "current_trial": 114, "dateTime": 1510695028038, "trialdata": {"rt": -1, "stimulus": "<p id=\"stim\">2</p>", "key_press": -1, "trial_type": "single-stim", "trial_index": 114, "time_elapsed": 600686, "internal_node_id": "0.0-79.0-8.0"}}, {"uniqueid": "MTK0283:3WI0P0II62ZMFI65FN6EVY5B2YPRDG", "current_trial": 115, "dateTime": 1510695029040, "trialdata": {"rt": -1, "stimulus": "<p id=\"stim\">1</p>", "key_press": -1, "trial_type": "single-stim", "trial_index": 115, "time_elapsed": 601687, "internal_node_id": "0.0-79.0-9.0"}}, {"uniqueid": "MTK0283:3WI0P0II62ZMFI65FN6EVY5B2YPRDG", "current_trial": 116, "dateTime": 1510695030541, "trialdata": {"rt": -1, "stimulus": "<p id=\"stim\">+</p>", "key_press": -1, "type": "FIXATION", "trial_type": "single-stim", "trial_index": 116, "time_elapsed": 603189, "internal_node_id": "0.0-80.0-0.0"}}, {"uniqueid": "MTK0283:3WI0P0II62ZMFI65FN6EVY5B2YPRDG", "current_trial": 117, "dateTime": 1510695033060, "trialdata": {"rt": -1000, "stimulus": "/static/audio/wordpool/SODA.wav", "key_press": -1, "type": "PRES_AUD", "word": "soda", "wordID": 1340, "conditions": [24, 1600, "a", 12000], "trial": 3, "serialpos": 0, "trial_type": "single-audio", "trial_index": 117, "time_elapsed": 605708, "internal_node_id": "0.0-81.0"}}, {"uniqueid": "MTK0283:3WI0P0II62ZMFI65FN6EVY5B2YPRDG", "current_trial": 118, "dateTime": 1510695035733, "trialdata": {"rt": -1000, "stimulus": "/static/audio/wordpool/MATTRESS.wav", "key_press": -1, "type": "PRES_AUD", "word": "mattress", "wordID": 878, "conditions": [24, 1600, "a", 12000], "trial": 3, "serialpos": 1, "trial_type": "single-audio", "trial_index": 118, "time_elapsed": 608381, "internal_node_id": "0.0-82.0"}}, {"uniqueid": "MTK0283:3WI0P0II62ZMFI65FN6EVY5B2YPRDG", "current_trial": 119, "dateTime": 1510695038382, "trialdata": {"rt": -1000, "stimulus": "/static/audio/wordpool/COUCH.wav", "key_press": -1, "type": "PRES_AUD", "word": "couch", "wordID": 385, "conditions": [24, 1600, "a", 12000], "trial": 3, "serialpos": 2, "trial_type": "single-audio", "trial_index": 119, "time_elapsed": 611030, "internal_node_id": "0.0-83.0"}}, {"uniqueid": "MTK0283:3WI0P0II62ZMFI65FN6EVY5B2YPRDG", "current_trial": 120, "dateTime": 1510695041128, "trialdata": {"rt": -1000, "stimulus": "/static/audio/wordpool/PISTOL.wav", "key_press": -1, "type": "PRES_AUD", "word": "pistol", "wordID": 1074, "conditions": [24, 1600, "a", 12000], "trial": 3, "serialpos": 3, "trial_type": "single-audio", "trial_index": 120, "time_elapsed": 613776, "internal_node_id": "0.0-84.0"}}, {"uniqueid": "MTK0283:3WI0P0II62ZMFI65FN6EVY5B2YPRDG", "current_trial": 121, "dateTime": 1510695043770, "trialdata": {"rt": -1000, "stimulus": "/static/audio/wordpool/PLIERS.wav", "key_press": -1, "type": "PRES_AUD", "word": "pliers", "wordID": 1088, "conditions": [24, 1600, "a", 12000], "trial": 3, "serialpos": 4, "trial_type": "single-audio", "trial_index": 121, "time_elapsed": 616418, "internal_node_id": "0.0-85.0"}}, {"uniqueid": "MTK0283:3WI0P0II62ZMFI65FN6EVY5B2YPRDG", "current_trial": 122, "dateTime": 1510695046437, "trialdata": {"rt": -1000, "stimulus": "/static/audio/wordpool/COUNTY.wav", "key_press": -1, "type": "PRES_AUD", "word": "county", "wordID": 388, "conditions": [24, 1600, "a", 12000], "trial": 3, "serialpos": 5, "trial_type": "single-audio", "trial_index": 122, "time_elapsed": 619084, "internal_node_id": "0.0-86.0"}}, {"uniqueid": "MTK0283:3WI0P0II62ZMFI65FN6EVY5B2YPRDG", "current_trial": 123, "dateTime": 1510695049203, "trialdata": {"rt": -1000, "stimulus": "/static/audio/wordpool/NURSE.wav", "key_press": -1, "type": "PRES_AUD", "word": "nurse", "wordID": 962, "conditions": [24, 1600, "a", 12000], "trial": 3, "serialpos": 6, "trial_type": "single-audio", "trial_index": 123, "time_elapsed": 621851, "internal_node_id": "0.0-87.0"}}, {"uniqueid": "MTK0283:3WI0P0II62ZMFI65FN6EVY5B2YPRDG", "current_trial": 124, "dateTime": 1510695051785, "trialdata": {"rt": -1000, "stimulus": "/static/audio/wordpool/COOK.wav", "key_press": -1, "type": "PRES_AUD", "word": "cook", "wordID": 371, "conditions": [24, 1600, "a", 12000], "trial": 3, "serialpos": 7, "trial_type": "single-audio", "trial_index": 124, "time_elapsed": 624433, "internal_node_id": "0.0-88.0"}}, {"uniqueid": "MTK0283:3WI0P0II62ZMFI65FN6EVY5B2YPRDG", "current_trial": 125, "dateTime": 1510695054305, "trialdata": {"rt": -1000, "stimulus": "/static/audio/wordpool/HAMPER.wav", "key_press": -1, "type": "PRES_AUD", "word": "hamper", "wordID": 681, "conditions": [24, 1600, "a", 12000], "trial": 3, "serialpos": 8, "trial_type": "single-audio", "trial_index": 125, "time_elapsed": 626953, "internal_node_id": "0.0-89.0"}}, {"uniqueid": "MTK0283:3WI0P0II62ZMFI65FN6EVY5B2YPRDG", "current_trial": 126, "dateTime": 1510695056810, "trialdata": {"rt": -1000, "stimulus": "/static/audio/wordpool/CANDY.wav", "key_press": -1, "type": "PRES_AUD", "word": "candy", "wordID": 229, "conditions": [24, 1600, "a", 12000], "trial": 3, "serialpos": 9, "trial_type": "single-audio", "trial_index": 126, "time_elapsed": 629457, "internal_node_id": "0.0-90.0"}}, {"uniqueid": "MTK0283:3WI0P0II62ZMFI65FN6EVY5B2YPRDG", "current_trial": 127, "dateTime": 1510695059414, "trialdata": {"rt": -1000, "stimulus": "/static/audio/wordpool/OUTLAW.wav", "key_press": -1, "type": "PRES_AUD", "word": "outlaw", "wordID": 988, "conditions": [24, 1600, "a", 12000], "trial": 3, "serialpos": 10, "trial_type": "single-audio", "trial_index": 127, "time_elapsed": 632062, "internal_node_id": "0.0-91.0"}}, {"uniqueid": "MTK0283:3WI0P0II62ZMFI65FN6EVY5B2YPRDG", "current_trial": 128, "dateTime": 1510695061874, "trialdata": {"rt": -1000, "stimulus": "/static/audio/wordpool/OFFICE.wav", "key_press": -1, "type": "PRES_AUD", "word": "office", "wordID": 971, "conditions": [24, 1600, "a", 12000], "trial": 3, "serialpos": 11, "trial_type": "single-audio", "trial_index": 128, "time_elapsed": 634522, "internal_node_id": "0.0-92.0"}}, {"uniqueid": "MTK0283:3WI0P0II62ZMFI65FN6EVY5B2YPRDG", "current_trial": 129, "dateTime": 1510695064493, "trialdata": {"rt": -1000, "stimulus": "/static/audio/wordpool/UNCLE.wav", "key_press": -1, "type": "PRES_AUD", "word": "uncle", "wordID": 1535, "conditions": [24, 1600, "a", 12000], "trial": 3, "serialpos": 12, "trial_type": "single-audio", "trial_index": 129, "time_elapsed": 637141, "internal_node_id": "0.0-93.0"}}, {"uniqueid": "MTK0283:3WI0P0II62ZMFI65FN6EVY5B2YPRDG", "current_trial": 130, "dateTime": 1510695067206, "trialdata": {"rt": -1000, "stimulus": "/static/audio/wordpool/CLOCK.wav", "key_press": -1, "type": "PRES_AUD", "word": "clock", "wordID": 324, "conditions": [24, 1600, "a", 12000], "trial": 3, "serialpos": 13, "trial_type": "single-audio", "trial_index": 130, "time_elapsed": 639854, "internal_node_id": "0.0-94.0"}}, {"uniqueid": "MTK0283:3WI0P0II62ZMFI65FN6EVY5B2YPRDG", "current_trial": 131, "dateTime": 1510695069863, "trialdata": {"rt": -1000, "stimulus": "/static/audio/wordpool/LAVA.wav", "key_press": -1, "type": "PRES_AUD", "word": "lava", "wordID": 803, "conditions": [24, 1600, "a", 12000], "trial": 3, "serialpos": 14, "trial_type": "single-audio", "trial_index": 131, "time_elapsed": 642511, "internal_node_id": "0.0-95.0"}}, {"uniqueid": "MTK0283:3WI0P0II62ZMFI65FN6EVY5B2YPRDG", "current_trial": 132, "dateTime": 1510695072539, "trialdata": {"rt": -1000, "stimulus": "/static/audio/wordpool/CRATER.wav", "key_press": -1, "type": "PRES_AUD", "word": "crater", "wordID": 399, "conditions": [24, 1600, "a", 12000], "trial": 3, "serialpos": 15, "trial_type": "single-audio", "trial_index": 132, "time_elapsed": 645187, "internal_node_id": "0.0-96.0"}}, {"uniqueid": "MTK0283:3WI0P0II62ZMFI65FN6EVY5B2YPRDG", "current_trial": 133, "dateTime": 1510695075261, "trialdata": {"rt": -1000, "stimulus": "/static/audio/wordpool/GANGSTER.wav", "key_press": -1, "type": "PRES_AUD", "word": "gangster", "wordID": 619, "conditions": [24, 1600, "a", 12000], "trial": 3, "serialpos": 16, "trial_type": "single-audio", "trial_index": 133, "time_elapsed": 647909, "internal_node_id": "0.0-97.0"}}, {"uniqueid": "MTK0283:3WI0P0II62ZMFI65FN6EVY5B2YPRDG", "current_trial": 134, "dateTime": 1510695077861, "trialdata": {"rt": -1000, "stimulus": "/static/audio/wordpool/LUNCH.wav", "key_press": -1, "type": "PRES_AUD", "word": "lunch", "wordID": 848, "conditions": [24, 1600, "a", 12000], "trial": 3, "serialpos": 17, "trial_type": "single-audio", "trial_index": 134, "time_elapsed": 650509, "internal_node_id": "0.0-98.0"}}, {"uniqueid": "MTK0283:3WI0P0II62ZMFI65FN6EVY5B2YPRDG", "current_trial": 135, "dateTime": 1510695080498, "trialdata": {"rt": -1000, "stimulus": "/static/audio/wordpool/SUMMIT.wav", "key_press": -1, "type": "PRES_AUD", "word": "summit", "wordID": 1404, "conditions": [24, 1600, "a", 12000], "trial": 3, "serialpos": 18, "trial_type": "single-audio", "trial_index": 135, "time_elapsed": 653146, "internal_node_id": "0.0-99.0"}}, {"uniqueid": "MTK0283:3WI0P0II62ZMFI65FN6EVY5B2YPRDG", "current_trial": 136, "dateTime": 1510695083011, "trialdata": {"rt": -1000, "stimulus": "/static/audio/wordpool/BROTHER.wav", "key_press": -1, "type": "PRES_AUD", "word": "brother", "wordID": 178, "conditions": [24, 1600, "a", 12000], "trial": 3, "serialpos": 19, "trial_type": "single-audio", "trial_index": 136, "time_elapsed": 655656, "internal_node_id": "0.0-100.0"}}, {"uniqueid": "MTK0283:3WI0P0II62ZMFI65FN6EVY5B2YPRDG", "current_trial": 137, "dateTime": 1510695085612, "trialdata": {"rt": -1000, "stimulus": "/static/audio/wordpool/FIREMAN.wav", "key_press": -1, "type": "PRES_AUD", "word": "fireman", "wordID": 568, "conditions": [24, 1600, "a", 12000], "trial": 3, "serialpos": 20, "trial_type": "single-audio", "trial_index": 137, "time_elapsed": 658260, "internal_node_id": "0.0-101.0"}}, {"uniqueid": "MTK0283:3WI0P0II62ZMFI65FN6EVY5B2YPRDG", "current_trial": 138, "dateTime": 1510695088099, "trialdata": {"rt": -1000, "stimulus": "/static/audio/wordpool/EMPIRE.wav", "key_press": -1, "type": "PRES_AUD", "word": "empire", "wordID": 529, "conditions": [24, 1600, "a", 12000], "trial": 3, "serialpos": 21, "trial_type": "single-audio", "trial_index": 138, "time_elapsed": 660747, "internal_node_id": "0.0-102.0"}}, {"uniqueid": "MTK0283:3WI0P0II62ZMFI65FN6EVY5B2YPRDG", "current_trial": 139, "dateTime": 1510695090870, "trialdata": {"rt": -1000, "stimulus": "/static/audio/wordpool/BUBBLE.wav", "key_press": -1, "type": "PRES_AUD", "word": "bubble", "wordID": 182, "conditions": [24, 1600, "a", 12000], "trial": 3, "serialpos": 22, "trial_type": "single-audio", "trial_index": 139, "time_elapsed": 663518, "internal_node_id": "0.0-103.0"}}, {"uniqueid": "MTK0283:3WI0P0II62ZMFI65FN6EVY5B2YPRDG", "current_trial": 140, "dateTime": 1510695093584, "trialdata": {"rt": -1000, "stimulus": "/static/audio/wordpool/GUARD.wav", "key_press": -1, "type": "PRES_AUD", "word": "guard", "wordID": 666, "conditions": [24, 1600, "a", 12000], "trial": 3, "serialpos": 23, "trial_type": "single-audio", "trial_index": 140, "time_elapsed": 666232, "internal_node_id": "0.0-104.0"}}, {"uniqueid": "MTK0283:3WI0P0II62ZMFI65FN6EVY5B2YPRDG", "current_trial": 141, "dateTime": 1510695094823, "trialdata": {"rt": -1, "stimulus": "", "key_press": -1, "type": "PRE_RECALL_DELAY", "trial_type": "single-stim", "trial_index": 141, "time_elapsed": 667471, "internal_node_id": "0.0-105.0-0.0"}}, {"uniqueid": "MTK0283:3WI0P0II62ZMFI65FN6EVY5B2YPRDG", "current_trial": 142, "dateTime": 1510695095324, "trialdata": {"rt": -1000, "stimulus": "/static/audio/400Hz.wav", "key_press": -1, "type": "PRE_RECALL_ALERT", "trial_type": "single-audio", "trial_index": 142, "time_elapsed": 667972, "internal_node_id": "0.0-106.0"}}, {"uniqueid": "MTK0283:3WI0P0II62ZMFI65FN6EVY5B2YPRDG", "current_trial": 143, "dateTime": 1510695155333, "trialdata": {"rt": [3848, 6460, 8184, 10005, 11232, 14444], "recwords": ["coach", "county", "candy", "cook", "clock", "gangster"], "type": "FREE_RECALL", "conditions": [24, 1600, "a", 12000], "trial": 3, "trial_type": "free-recall", "trial_index": 143, "time_elapsed": 727977, "internal_node_id": "0.0-107.0-0.0"}}, {"uniqueid": "MTK0283:3WI0P0II62ZMFI65FN6EVY5B2YPRDG", "current_trial": 144, "dateTime": 1510695158855, "trialdata": {"rt": 1521, "key_press": 70, "type": "INSTRUCTIONS", "trial_type": "text", "trial_index": 144, "time_elapsed": 731503, "internal_node_id": "0.0-108.0"}}, {"uniqueid": "MTK0283:3WI0P0II62ZMFI65FN6EVY5B2YPRDG", "current_trial": 145, "dateTime": 1510695184860, "trialdata": {"rt": [3734, 7137, 15528, 18193, 21381], "responses": ["20", "16", "20", "17", "21"], "num1": [8, 6, 2, 5, 9, 1], "num2": [9, 8, 9, 9, 9, 7], "num3": [3, 2, 9, 3, 3, 9], "type": "DISTRACTOR", "conditions": [12, 1600, "a", 24000], "trial": 4, "trial_type": "math-distractor", "trial_index": 145, "time_elapsed": 757508, "internal_node_id": "0.0-109.0"}}, {"uniqueid": "MTK0283:3WI0P0II62ZMFI65FN6EVY5B2YPRDG", "current_trial": 146, "dateTime": 1510695187862, "trialdata": {"rt": -1, "stimulus": "<p id=\"stim\">10</p>", "key_press": -1, "trial_type": "single-stim", "trial_index": 146, "time_elapsed": 760510, "internal_node_id": "0.0-110.0-0.0"}}, {"uniqueid": "MTK0283:3WI0P0II62ZMFI65FN6EVY5B2YPRDG", "current_trial": 147, "dateTime": 1510695188863, "trialdata": {"rt": -1, "stimulus": "<p id=\"stim\">9</p>", "key_press": -1, "trial_type": "single-stim", "trial_index": 147, "time_elapsed": 761511, "internal_node_id": "0.0-110.0-1.0"}}, {"uniqueid": "MTK0283:3WI0P0II62ZMFI65FN6EVY5B2YPRDG", "current_trial": 148, "dateTime": 1510695189864, "trialdata": {"rt": -1, "stimulus": "<p id=\"stim\">8</p>", "key_press": -1, "trial_type": "single-stim", "trial_index": 148, "time_elapsed": 762512, "internal_node_id": "0.0-110.0-2.0"}}, {"uniqueid": "MTK0283:3WI0P0II62ZMFI65FN6EVY5B2YPRDG", "current_trial": 149, "dateTime": 1510695190865, "trialdata": {"rt": -1, "stimulus": "<p id=\"stim\">7</p>", "key_press": -1, "trial_type": "single-stim", "trial_index": 149, "time_elapsed": 763513, "internal_node_id": "0.0-110.0-3.0"}}, {"uniqueid": "MTK0283:3WI0P0II62ZMFI65FN6EVY5B2YPRDG", "current_trial": 150, "dateTime": 1510695191866, "trialdata": {"rt": -1, "stimulus": "<p id=\"stim\">6</p>", "key_press": -1, "trial_type": "single-stim", "trial_index": 150, "time_elapsed": 764514, "internal_node_id": "0.0-110.0-4.0"}}, {"uniqueid": "MTK0283:3WI0P0II62ZMFI65FN6EVY5B2YPRDG", "current_trial": 151, "dateTime": 1510695192867, "trialdata": {"rt": -1, "stimulus": "<p id=\"stim\">5</p>", "key_press": -1, "trial_type": "single-stim", "trial_index": 151, "time_elapsed": 765515, "internal_node_id": "0.0-110.0-5.0"}}, {"uniqueid": "MTK0283:3WI0P0II62ZMFI65FN6EVY5B2YPRDG", "current_trial": 152, "dateTime": 1510695193868, "trialdata": {"rt": -1, "stimulus": "<p id=\"stim\">4</p>", "key_press": -1, "trial_type": "single-stim", "trial_index": 152, "time_elapsed": 766516, "internal_node_id": "0.0-110.0-6.0"}}, {"uniqueid": "MTK0283:3WI0P0II62ZMFI65FN6EVY5B2YPRDG", "current_trial": 153, "dateTime": 1510695194870, "trialdata": {"rt": -1, "stimulus": "<p id=\"stim\">3</p>", "key_press": -1, "trial_type": "single-stim", "trial_index": 153, "time_elapsed": 767518, "internal_node_id": "0.0-110.0-7.0"}}, {"uniqueid": "MTK0283:3WI0P0II62ZMFI65FN6EVY5B2YPRDG", "current_trial": 154, "dateTime": 1510695195872, "trialdata": {"rt": -1, "stimulus": "<p id=\"stim\">2</p>", "key_press": -1, "trial_type": "single-stim", "trial_index": 154, "time_elapsed": 768520, "internal_node_id": "0.0-110.0-8.0"}}, {"uniqueid": "MTK0283:3WI0P0II62ZMFI65FN6EVY5B2YPRDG", "current_trial": 155, "dateTime": 1510695196872, "trialdata": {"rt": -1, "stimulus": "<p id=\"stim\">1</p>", "key_press": -1, "trial_type": "single-stim", "trial_index": 155, "time_elapsed": 769520, "internal_node_id": "0.0-110.0-9.0"}}, {"uniqueid": "MTK0283:3WI0P0II62ZMFI65FN6EVY5B2YPRDG", "current_trial": 156, "dateTime": 1510695198373, "trialdata": {"rt": -1, "stimulus": "<p id=\"stim\">+</p>", "key_press": -1, "type": "FIXATION", "trial_type": "single-stim", "trial_index": 156, "time_elapsed": 771021, "internal_node_id": "0.0-111.0-0.0"}}, {"uniqueid": "MTK0283:3WI0P0II62ZMFI65FN6EVY5B2YPRDG", "current_trial": 157, "dateTime": 1510695201116, "trialdata": {"rt": -1000, "stimulus": "/static/audio/wordpool/TROUT.wav", "key_press": -1, "type": "PRES_AUD", "word": "trout", "wordID": 1510, "conditions": [12, 1600, "a", 24000], "trial": 4, "serialpos": 0, "trial_type": "single-audio", "trial_index": 157, "time_elapsed": 773764, "internal_node_id": "0.0-112.0"}}, {"uniqueid": "MTK0283:3WI0P0II62ZMFI65FN6EVY5B2YPRDG", "current_trial": 158, "dateTime": 1510695203557, "trialdata": {"rt": -1000, "stimulus": "/static/audio/wordpool/ICING.wav", "key_press": -1, "type": "PRES_AUD", "word": "icing", "wordID": 731, "conditions": [12, 1600, "a", 24000], "trial": 4, "serialpos": 1, "trial_type": "single-audio", "trial_index": 158, "time_elapsed": 776205, "internal_node_id": "0.0-113.0"}}, {"uniqueid": "MTK0283:3WI0P0II62ZMFI65FN6EVY5B2YPRDG", "current_trial": 159, "dateTime": 1510695206156, "trialdata": {"rt": -1000, "stimulus": "/static/audio/wordpool/DAUGHTER.wav", "key_press": -1, "type": "PRES_AUD", "word": "daughter", "wordID": 441, "conditions": [12, 1600, "a", 24000], "trial": 4, "serialpos": 2, "trial_type": "single-audio", "trial_index": 159, "time_elapsed": 778804, "internal_node_id": "0.0-114.0"}}, {"uniqueid": "MTK0283:3WI0P0II62ZMFI65FN6EVY5B2YPRDG", "current_trial": 160, "dateTime": 1510695208706, "trialdata": {"rt": -1000, "stimulus": "/static/audio/wordpool/YACHT.wav", "key_press": -1, "type": "PRES_AUD", "word": "yacht", "wordID": 1628, "conditions": [12, 1600, "a", 24000], "trial": 4, "serialpos": 3, "trial_type": "single-audio", "trial_index": 160, "time_elapsed": 781353, "internal_node_id": "0.0-115.0"}}, {"uniqueid": "MTK0283:3WI0P0II62ZMFI65FN6EVY5B2YPRDG", "current_trial": 161, "dateTime": 1510695211159, "trialdata": {"rt": -1000, "stimulus": "/static/audio/wordpool/POWDER.wav", "key_press": -1, "type": "PRES_AUD", "word": "powder", "wordID": 1116, "conditions": [12, 1600, "a", 24000], "trial": 4, "serialpos": 4, "trial_type": "single-audio", "trial_index": 161, "time_elapsed": 783807, "internal_node_id": "0.0-116.0"}}, {"uniqueid": "MTK0283:3WI0P0II62ZMFI65FN6EVY5B2YPRDG", "current_trial": 162, "dateTime": 1510695213891, "trialdata": {"rt": -1000, "stimulus": "/static/audio/wordpool/MONSTER.wav", "key_press": -1, "type": "PRES_AUD", "word": "monster", "wordID": 911, "conditions": [12, 1600, "a", 24000], "trial": 4, "serialpos": 5, "trial_type": "single-audio", "trial_index": 162, "time_elapsed": 786539, "internal_node_id": "0.0-117.0"}}, {"uniqueid": "MTK0283:3WI0P0II62ZMFI65FN6EVY5B2YPRDG", "current_trial": 163, "dateTime": 1510695216486, "trialdata": {"rt": -1000, "stimulus": "/static/audio/wordpool/CRUTCH.wav", "key_press": -1, "type": "PRES_AUD", "word": "crutch", "wordID": 416, "conditions": [12, 1600, "a", 24000], "trial": 4, "serialpos": 6, "trial_type": "single-audio", "trial_index": 163, "time_elapsed": 789134, "internal_node_id": "0.0-118.0"}}, {"uniqueid": "MTK0283:3WI0P0II62ZMFI65FN6EVY5B2YPRDG", "current_trial": 164, "dateTime": 1510695218977, "trialdata": {"rt": -1000, "stimulus": "/static/audio/wordpool/VIRUS.wav", "key_press": -1, "type": "PRES_AUD", "word": "virus", "wordID": 1571, "conditions": [12, 1600, "a", 24000], "trial": 4, "serialpos": 7, "trial_type": "single-audio", "trial_index": 164, "time_elapsed": 791625, "internal_node_id": "0.0-119.0"}}, {"uniqueid": "MTK0283:3WI0P0II62ZMFI65FN6EVY5B2YPRDG", "current_trial": 165, "dateTime": 1510695221730, "trialdata": {"rt": -1000, "stimulus": "/static/audio/wordpool/SALMON.wav", "key_press": -1, "type": "PRES_AUD", "word": "salmon", "wordID": 1226, "conditions": [12, 1600, "a", 24000], "trial": 4, "serialpos": 8, "trial_type": "single-audio", "trial_index": 165, "time_elapsed": 794378, "internal_node_id": "0.0-120.0"}}, {"uniqueid": "MTK0283:3WI0P0II62ZMFI65FN6EVY5B2YPRDG", "current_trial": 166, "dateTime": 1510695224335, "trialdata": {"rt": -1000, "stimulus": "/static/audio/wordpool/FRAGRANCE.wav", "key_press": -1, "type": "PRES_AUD", "word": "fragrance", "wordID": 598, "conditions": [12, 1600, "a", 24000], "trial": 4, "serialpos": 9, "trial_type": "single-audio", "trial_index": 166, "time_elapsed": 796983, "internal_node_id": "0.0-121.0"}}, {"uniqueid": "MTK0283:3WI0P0II62ZMFI65FN6EVY5B2YPRDG", "current_trial": 167, "dateTime": 1510695226817, "trialdata": {"rt": -1000, "stimulus": "/static/audio/wordpool/PERFUME.wav", "key_press": -1, "type": "PRES_AUD", "word": "perfume", "wordID": 1048, "conditions": [12, 1600, "a", 24000], "trial": 4, "serialpos": 10, "trial_type": "single-audio", "trial_index": 167, "time_elapsed": 799465, "internal_node_id": "0.0-122.0"}}, {"uniqueid": "MTK0283:3WI0P0II62ZMFI65FN6EVY5B2YPRDG", "current_trial": 168, "dateTime": 1510695229563, "trialdata": {"rt": -1000, "stimulus": "/static/audio/wordpool/PISTON.wav", "key_press": -1, "type": "PRES_AUD", "word": "piston", "wordID": 1075, "conditions": [12, 1600, "a", 24000], "trial": 4, "serialpos": 11, "trial_type": "single-audio", "trial_index": 168, "time_elapsed": 802211, "internal_node_id": "0.0-123.0"}}, {"uniqueid": "MTK0283:3WI0P0II62ZMFI65FN6EVY5B2YPRDG", "current_trial": 169, "dateTime": 1510695230858, "trialdata": {"rt": -1, "stimulus": "", "key_press": -1, "type": "PRE_RECALL_DELAY", "trial_type": "single-stim", "trial_index": 169, "time_elapsed": 803506, "internal_node_id": "0.0-124.0-0.0"}}, {"uniqueid": "MTK0283:3WI0P0II62ZMFI65FN6EVY5B2YPRDG", "current_trial": 170, "dateTime": 1510695231359, "trialdata": {"rt": -1000, "stimulus": "/static/audio/400Hz.wav", "key_press": -1, "type": "PRE_RECALL_ALERT", "trial_type": "single-audio", "trial_index": 170, "time_elapsed": 804007, "internal_node_id": "0.0-125.0"}}, {"uniqueid": "MTK0283:3WI0P0II62ZMFI65FN6EVY5B2YPRDG", "current_trial": 171, "dateTime": 1510695291368, "trialdata": {"rt": [4259, 5594, 7765, 9835, 22336], "recwords": ["monster", "virus", "salmon", "perfume", "fragrance"], "type": "FREE_RECALL", "conditions": [12, 1600, "a", 24000], "trial": 4, "trial_type": "free-recall", "trial_index": 171, "time_elapsed": 864013, "internal_node_id": "0.0-126.0-0.0"}}, {"uniqueid": "MTK0283:3WI0P0II62ZMFI65FN6EVY5B2YPRDG", "current_trial": 172, "dateTime": 1510695294961, "trialdata": {"rt": 1592, "key_press": 75, "type": "INSTRUCTIONS", "trial_type": "text", "trial_index": 172, "time_elapsed": 867609, "internal_node_id": "0.0-127.0"}}, {"uniqueid": "MTK0283:3WI0P0II62ZMFI65FN6EVY5B2YPRDG", "current_trial": 173, "dateTime": 1510695320965, "trialdata": {"rt": [2972, 5088, 8138, 10417, 12574, 14574, 17502, 20079, 22027], "responses": ["18", "9", "13", "18", "17", "11", "14", "13", "5"], "num1": [3, 1, 8, 5, 3, 9, 7, 3, 1, 1], "num2": [6, 4, 1, 5, 9, 1, 4, 9, 3, 7], "num3": [9, 4, 4, 8, 5, 1, 3, 1, 1, 3], "type": "DISTRACTOR", "conditions": [12, 800, "a", 24000], "trial": 5, "trial_type": "math-distractor", "trial_index": 173, "time_elapsed": 893613, "internal_node_id": "0.0-128.0"}}, {"uniqueid": "MTK0283:3WI0P0II62ZMFI65FN6EVY5B2YPRDG", "current_trial": 174, "dateTime": 1510695323967, "trialdata": {"rt": -1, "stimulus": "<p id=\"stim\">10</p>", "key_press": -1, "trial_type": "single-stim", "trial_index": 174, "time_elapsed": 896615, "internal_node_id": "0.0-129.0-0.0"}}, {"uniqueid": "MTK0283:3WI0P0II62ZMFI65FN6EVY5B2YPRDG", "current_trial": 175, "dateTime": 1510695324972, "trialdata": {"rt": -1, "stimulus": "<p id=\"stim\">9</p>", "key_press": -1, "trial_type": "single-stim", "trial_index": 175, "time_elapsed": 897620, "internal_node_id": "0.0-129.0-1.0"}}, {"uniqueid": "MTK0283:3WI0P0II62ZMFI65FN6EVY5B2YPRDG", "current_trial": 176, "dateTime": 1510695325973, "trialdata": {"rt": -1, "stimulus": "<p id=\"stim\">8</p>", "key_press": -1, "trial_type": "single-stim", "trial_index": 176, "time_elapsed": 898621, "internal_node_id": "0.0-129.0-2.0"}}, {"uniqueid": "MTK0283:3WI0P0II62ZMFI65FN6EVY5B2YPRDG", "current_trial": 177, "dateTime": 1510695326974, "trialdata": {"rt": -1, "stimulus": "<p id=\"stim\">7</p>", "key_press": -1, "trial_type": "single-stim", "trial_index": 177, "time_elapsed": 899622, "internal_node_id": "0.0-129.0-3.0"}}, {"uniqueid": "MTK0283:3WI0P0II62ZMFI65FN6EVY5B2YPRDG", "current_trial": 178, "dateTime": 1510695327977, "trialdata": {"rt": -1, "stimulus": "<p id=\"stim\">6</p>", "key_press": -1, "trial_type": "single-stim", "trial_index": 178, "time_elapsed": 900625, "internal_node_id": "0.0-129.0-4.0"}}, {"uniqueid": "MTK0283:3WI0P0II62ZMFI65FN6EVY5B2YPRDG", "current_trial": 179, "dateTime": 1510695328978, "trialdata": {"rt": -1, "stimulus": "<p id=\"stim\">5</p>", "key_press": -1, "trial_type": "single-stim", "trial_index": 179, "time_elapsed": 901626, "internal_node_id": "0.0-129.0-5.0"}}, {"uniqueid": "MTK0283:3WI0P0II62ZMFI65FN6EVY5B2YPRDG", "current_trial": 180, "dateTime": 1510695329979, "trialdata": {"rt": -1, "stimulus": "<p id=\"stim\">4</p>", "key_press": -1, "trial_type": "single-stim", "trial_index": 180, "time_elapsed": 902627, "internal_node_id": "0.0-129.0-6.0"}}, {"uniqueid": "MTK0283:3WI0P0II62ZMFI65FN6EVY5B2YPRDG", "current_trial": 181, "dateTime": 1510695330981, "trialdata": {"rt": -1, "stimulus": "<p id=\"stim\">3</p>", "key_press": -1, "trial_type": "single-stim", "trial_index": 181, "time_elapsed": 903629, "internal_node_id": "0.0-129.0-7.0"}}, {"uniqueid": "MTK0283:3WI0P0II62ZMFI65FN6EVY5B2YPRDG", "current_trial": 182, "dateTime": 1510695331983, "trialdata": {"rt": -1, "stimulus": "<p id=\"stim\">2</p>", "key_press": -1, "trial_type": "single-stim", "trial_index": 182, "time_elapsed": 904631, "internal_node_id": "0.0-129.0-8.0"}}, {"uniqueid": "MTK0283:3WI0P0II62ZMFI65FN6EVY5B2YPRDG", "current_trial": 183, "dateTime": 1510695332985, "trialdata": {"rt": -1, "stimulus": "<p id=\"stim\">1</p>", "key_press": -1, "trial_type": "single-stim", "trial_index": 183, "time_elapsed": 905633, "internal_node_id": "0.0-129.0-9.0"}}, {"uniqueid": "MTK0283:3WI0P0II62ZMFI65FN6EVY5B2YPRDG", "current_trial": 184, "dateTime": 1510695334487, "trialdata": {"rt": -1, "stimulus": "<p id=\"stim\">+</p>", "key_press": -1, "type": "FIXATION", "trial_type": "single-stim", "trial_index": 184, "time_elapsed": 907135, "internal_node_id": "0.0-130.0-0.0"}}, {"uniqueid": "MTK0283:3WI0P0II62ZMFI65FN6EVY5B2YPRDG", "current_trial": 185, "dateTime": 1510695336115, "trialdata": {"rt": -1000, "stimulus": "/static/audio/wordpool/FINGER.wav", "key_press": -1, "type": "PRES_AUD", "word": "finger", "wordID": 566, "conditions": [12, 800, "a", 24000], "trial": 5, "serialpos": 0, "trial_type": "single-audio", "trial_index": 185, "time_elapsed": 908763, "internal_node_id": "0.0-131.0"}}, {"uniqueid": "MTK0283:3WI0P0II62ZMFI65FN6EVY5B2YPRDG", "current_trial": 186, "dateTime": 1510695337969, "trialdata": {"rt": -1000, "stimulus": "/static/audio/wordpool/BEAKER.wav", "key_press": -1, "type": "PRES_AUD", "word": "beaker", "wordID": 103, "conditions": [12, 800, "a", 24000], "trial": 5, "serialpos": 1, "trial_type": "single-audio", "trial_index": 186, "time_elapsed": 910617, "internal_node_id": "0.0-132.0"}}, {"uniqueid": "MTK0283:3WI0P0II62ZMFI65FN6EVY5B2YPRDG", "current_trial": 187, "dateTime": 1510695339884, "trialdata": {"rt": -1000, "stimulus": "/static/audio/wordpool/WASP.wav", "key_press": -1, "type": "PRES_AUD", "word": "wasp", "wordID": 1592, "conditions": [12, 800, "a", 24000], "trial": 5, "serialpos": 2, "trial_type": "single-audio", "trial_index": 187, "time_elapsed": 912532, "internal_node_id": "0.0-133.0"}}, {"uniqueid": "MTK0283:3WI0P0II62ZMFI65FN6EVY5B2YPRDG", "current_trial": 188, "dateTime": 1510695341645, "trialdata": {"rt": -1000, "stimulus": "/static/audio/wordpool/ROBIN.wav", "key_press": -1, "type": "PRES_AUD", "word": "robin", "wordID": 1198, "conditions": [12, 800, "a", 24000], "trial": 5, "serialpos": 3, "trial_type": "single-audio", "trial_index": 188, "time_elapsed": 914293, "internal_node_id": "0.0-134.0"}}, {"uniqueid": "MTK0283:3WI0P0II62ZMFI65FN6EVY5B2YPRDG", "current_trial": 189, "dateTime": 1510695343499, "trialdata": {"rt": -1000, "stimulus": "/static/audio/wordpool/BUGGY.wav", "key_press": -1, "type": "PRES_AUD", "word": "buggy", "wordID": 187, "conditions": [12, 800, "a", 24000], "trial": 5, "serialpos": 4, "trial_type": "single-audio", "trial_index": 189, "time_elapsed": 916147, "internal_node_id": "0.0-135.0"}}, {"uniqueid": "MTK0283:3WI0P0II62ZMFI65FN6EVY5B2YPRDG", "current_trial": 190, "dateTime": 1510695345344, "trialdata": {"rt": -1000, "stimulus": "/static/audio/wordpool/FLUTE.wav", "key_press": -1, "type": "PRES_AUD", "word": "flute", "wordID": 584, "conditions": [12, 800, "a", 24000], "trial": 5, "serialpos": 5, "trial_type": "single-audio", "trial_index": 190, "time_elapsed": 917992, "internal_node_id": "0.0-136.0"}}, {"uniqueid": "MTK0283:3WI0P0II62ZMFI65FN6EVY5B2YPRDG", "current_trial": 191, "dateTime": 1510695346983, "trialdata": {"rt": -1000, "stimulus": "/static/audio/wordpool/MISSILE.wav", "key_press": -1, "type": "PRES_AUD", "word": "missile", "wordID": 899, "conditions": [12, 800, "a", 24000], "trial": 5, "serialpos": 6, "trial_type": "single-audio", "trial_index": 191, "time_elapsed": 919631, "internal_node_id": "0.0-137.0"}}, {"uniqueid": "MTK0283:3WI0P0II62ZMFI65FN6EVY5B2YPRDG", "current_trial": 192, "dateTime": 1510695348762, "trialdata": {"rt": -1000, "stimulus": "/static/audio/wordpool/CHILD.wav", "key_press": -1, "type": "PRES_AUD", "word": "child", "wordID": 298, "conditions": [12, 800, "a", 24000], "trial": 5, "serialpos": 7, "trial_type": "single-audio", "trial_index": 192, "time_elapsed": 921410, "internal_node_id": "0.0-138.0"}}, {"uniqueid": "MTK0283:3WI0P0II62ZMFI65FN6EVY5B2YPRDG", "current_trial": 193, "dateTime": 1510695350578, "trialdata": {"rt": -1000, "stimulus": "/static/audio/wordpool/NOTEBOOK.wav", "key_press": -1, "type": "PRES_AUD", "word": "notebook", "wordID": 958, "conditions": [12, 800, "a", 24000], "trial": 5, "serialpos": 8, "trial_type": "single-audio", "trial_index": 193, "time_elapsed": 923226, "internal_node_id": "0.0-139.0"}}, {"uniqueid": "MTK0283:3WI0P0II62ZMFI65FN6EVY5B2YPRDG", "current_trial": 194, "dateTime": 1510695352499, "trialdata": {"rt": -1000, "stimulus": "/static/audio/wordpool/LOVER.wav", "key_press": -1, "type": "PRES_AUD", "word": "lover", "wordID": 845, "conditions": [12, 800, "a", 24000], "trial": 5, "serialpos": 9, "trial_type": "single-audio", "trial_index": 194, "time_elapsed": 925145, "internal_node_id": "0.0-140.0"}}, {"uniqueid": "MTK0283:3WI0P0II62ZMFI65FN6EVY5B2YPRDG", "current_trial": 195, "dateTime": 1510695354411, "trialdata": {"rt": -1000, "stimulus": "/static/audio/wordpool/WASHER.wav", "key_press": -1, "type": "PRES_AUD", "word": "washer", "wordID": 1591, "conditions": [12, 800, "a", 24000], "trial": 5, "serialpos": 10, "trial_type": "single-audio", "trial_index": 195, "time_elapsed": 927059, "internal_node_id": "0.0-141.0"}}, {"uniqueid": "MTK0283:3WI0P0II62ZMFI65FN6EVY5B2YPRDG", "current_trial": 196, "dateTime": 1510695356054, "trialdata": {"rt": -1000, "stimulus": "/static/audio/wordpool/BANJO.wav", "key_press": -1, "type": "PRES_AUD", "word": "banjo", "wordID": 81, "conditions": [12, 800, "a", 24000], "trial": 5, "serialpos": 11, "trial_type": "single-audio", "trial_index": 196, "time_elapsed": 928702, "internal_node_id": "0.0-142.0"}}, {"uniqueid": "MTK0283:3WI0P0II62ZMFI65FN6EVY5B2YPRDG", "current_trial": 197, "dateTime": 1510695357419, "trialdata": {"rt": -1, "stimulus": "", "key_press": -1, "type": "PRE_RECALL_DELAY", "trial_type": "single-stim", "trial_index": 197, "time_elapsed": 930067, "internal_node_id": "0.0-143.0-0.0"}}, {"uniqueid": "MTK0283:3WI0P0II62ZMFI65FN6EVY5B2YPRDG", "current_trial": 198, "dateTime": 1510695357920, "trialdata": {"rt": -1000, "stimulus": "/static/audio/400Hz.wav", "key_press": -1, "type": "PRE_RECALL_ALERT", "trial_type": "single-audio", "trial_index": 198, "time_elapsed": 930568, "internal_node_id": "0.0-144.0"}}, {"uniqueid": "MTK0283:3WI0P0II62ZMFI65FN6EVY5B2YPRDG", "current_trial": 199, "dateTime": 1510695417926, "trialdata": {"rt": [2515, 6331, 8374, 14395], "recwords": ["wasp", "robin", "missle", "banjo"], "type": "FREE_RECALL", "conditions": [12, 800, "a", 24000], "trial": 5, "trial_type": "free-recall", "trial_index": 199, "time_elapsed": 990570, "internal_node_id": "0.0-145.0-0.0"}}, {"uniqueid": "MTK0283:3WI0P0II62ZMFI65FN6EVY5B2YPRDG", "current_trial": 200, "dateTime": 1510695421940, "trialdata": {"rt": 2012, "key_press": 70, "type": "INSTRUCTIONS", "trial_type": "text", "trial_index": 200, "time_elapsed": 994588, "internal_node_id": "0.0-146.0"}}, {"uniqueid": "MTK0283:3WI0P0II62ZMFI65FN6EVY5B2YPRDG", "current_trial": 201, "dateTime": 1510695447945, "trialdata": {"rt": [4014, 6621, 9384, 11388, 15389, 18715, 21000, 23003], "responses": ["19", "16", "12", "13", "13", "15", "15", "10"], "num1": [8, 8, 5, 9, 4, 9, 2, 2, 8], "num2": [6, 4, 1, 3, 7, 3, 9, 7, 1], "num3": [5, 4, 6, 1, 2, 3, 4, 1, 9], "type": "DISTRACTOR", "conditions": [24, 800, "a", 24000], "trial": 6, "trial_type": "math-distractor", "trial_index": 201, "time_elapsed": 1020593, "internal_node_id": "0.0-147.0"}}, {"uniqueid": "MTK0283:3WI0P0II62ZMFI65FN6EVY5B2YPRDG", "current_trial": 202, "dateTime": 1510695450948, "trialdata": {"rt": -1, "stimulus": "<p id=\"stim\">10</p>", "key_press": -1, "trial_type": "single-stim", "trial_index": 202, "time_elapsed": 1023595, "internal_node_id": "0.0-148.0-0.0"}}, {"uniqueid": "MTK0283:3WI0P0II62ZMFI65FN6EVY5B2YPRDG", "current_trial": 203, "dateTime": 1510695451950, "trialdata": {"rt": -1, "stimulus": "<p id=\"stim\">9</p>", "key_press": -1, "trial_type": "single-stim", "trial_index": 203, "time_elapsed": 1024597, "internal_node_id": "0.0-148.0-1.0"}}, {"uniqueid": "MTK0283:3WI0P0II62ZMFI65FN6EVY5B2YPRDG", "current_trial": 204, "dateTime": 1510695452951, "trialdata": {"rt": -1, "stimulus": "<p id=\"stim\">8</p>", "key_press": -1, "trial_type": "single-stim", "trial_index": 204, "time_elapsed": 1025599, "internal_node_id": "0.0-148.0-2.0"}}, {"uniqueid": "MTK0283:3WI0P0II62ZMFI65FN6EVY5B2YPRDG", "current_trial": 205, "dateTime": 1510695453952, "trialdata": {"rt": -1, "stimulus": "<p id=\"stim\">7</p>", "key_press": -1, "trial_type": "single-stim", "trial_index": 205, "time_elapsed": 1026600, "internal_node_id": "0.0-148.0-3.0"}}, {"uniqueid": "MTK0283:3WI0P0II62ZMFI65FN6EVY5B2YPRDG", "current_trial": 206, "dateTime": 1510695454955, "trialdata": {"rt": -1, "stimulus": "<p id=\"stim\">6</p>", "key_press": -1, "trial_type": "single-stim", "trial_index": 206, "time_elapsed": 1027603, "internal_node_id": "0.0-148.0-4.0"}}, {"uniqueid": "MTK0283:3WI0P0II62ZMFI65FN6EVY5B2YPRDG", "current_trial": 207, "dateTime": 1510695455957, "trialdata": {"rt": -1, "stimulus": "<p id=\"stim\">5</p>", "key_press": -1, "trial_type": "single-stim", "trial_index": 207, "time_elapsed": 1028605, "internal_node_id": "0.0-148.0-5.0"}}, {"uniqueid": "MTK0283:3WI0P0II62ZMFI65FN6EVY5B2YPRDG", "current_trial": 208, "dateTime": 1510695456958, "trialdata": {"rt": -1, "stimulus": "<p id=\"stim\">4</p>", "key_press": -1, "trial_type": "single-stim", "trial_index": 208, "time_elapsed": 1029606, "internal_node_id": "0.0-148.0-6.0"}}, {"uniqueid": "MTK0283:3WI0P0II62ZMFI65FN6EVY5B2YPRDG", "current_trial": 209, "dateTime": 1510695457960, "trialdata": {"rt": -1, "stimulus": "<p id=\"stim\">3</p>", "key_press": -1, "trial_type": "single-stim", "trial_index": 209, "time_elapsed": 1030608, "internal_node_id": "0.0-148.0-7.0"}}, {"uniqueid": "MTK0283:3WI0P0II62ZMFI65FN6EVY5B2YPRDG", "current_trial": 210, "dateTime": 1510695458962, "trialdata": {"rt": -1, "stimulus": "<p id=\"stim\">2</p>", "key_press": -1, "trial_type": "single-stim", "trial_index": 210, "time_elapsed": 1031609, "internal_node_id": "0.0-148.0-8.0"}}, {"uniqueid": "MTK0283:3WI0P0II62ZMFI65FN6EVY5B2YPRDG", "current_trial": 211, "dateTime": 1510695459964, "trialdata": {"rt": -1, "stimulus": "<p id=\"stim\">1</p>", "key_press": -1, "trial_type": "single-stim", "trial_index": 211, "time_elapsed": 1032611, "internal_node_id": "0.0-148.0-9.0"}}, {"uniqueid": "MTK0283:3WI0P0II62ZMFI65FN6EVY5B2YPRDG", "current_trial": 212, "dateTime": 1510695461466, "trialdata": {"rt": -1, "stimulus": "<p id=\"stim\">+</p>", "key_press": -1, "type": "FIXATION", "trial_type": "single-stim", "trial_index": 212, "time_elapsed": 1034113, "internal_node_id": "0.0-149.0-0.0"}}, {"uniqueid": "MTK0283:3WI0P0II62ZMFI65FN6EVY5B2YPRDG", "current_trial": 213, "dateTime": 1510695463246, "trialdata": {"rt": -1000, "stimulus": "/static/audio/wordpool/PRIMATE.wav", "key_press": -1, "type": "PRES_AUD", "word": "primate", "wordID": 1122, "conditions": [24, 800, "a", 24000], "trial": 6, "serialpos": 0, "trial_type": "single-audio", "trial_index": 213, "time_elapsed": 1035894, "internal_node_id": "0.0-150.0"}}, {"uniqueid": "MTK0283:3WI0P0II62ZMFI65FN6EVY5B2YPRDG", "current_trial": 214, "dateTime": 1510695465009, "trialdata": {"rt": -1000, "stimulus": "/static/audio/wordpool/FRUIT.wav", "key_press": -1, "type": "PRES_AUD", "word": "fruit", "wordID": 609, "conditions": [24, 800, "a", 24000], "trial": 6, "serialpos": 1, "trial_type": "single-audio", "trial_index": 214, "time_elapsed": 1037657, "internal_node_id": "0.0-151.0"}}, {"uniqueid": "MTK0283:3WI0P0II62ZMFI65FN6EVY5B2YPRDG", "current_trial": 215, "dateTime": 1510695466699, "trialdata": {"rt": -1000, "stimulus": "/static/audio/wordpool/SPOOL.wav", "key_press": -1, "type": "PRES_AUD", "word": "spool", "wordID": 1355, "conditions": [24, 800, "a", 24000], "trial": 6, "serialpos": 2, "trial_type": "single-audio", "trial_index": 215, "time_elapsed": 1039347, "internal_node_id": "0.0-152.0"}}, {"uniqueid": "MTK0283:3WI0P0II62ZMFI65FN6EVY5B2YPRDG", "current_trial": 216, "dateTime": 1510695468486, "trialdata": {"rt": -1000, "stimulus": "/static/audio/wordpool/SERVER.wav", "key_press": -1, "type": "PRES_AUD", "word": "server", "wordID": 1271, "conditions": [24, 800, "a", 24000], "trial": 6, "serialpos": 3, "trial_type": "single-audio", "trial_index": 216, "time_elapsed": 1041134, "internal_node_id": "0.0-153.0"}}, {"uniqueid": "MTK0283:3WI0P0II62ZMFI65FN6EVY5B2YPRDG", "current_trial": 217, "dateTime": 1510695470457, "trialdata": {"rt": -1000, "stimulus": "/static/audio/wordpool/FOOT.wav", "key_press": -1, "type": "PRES_AUD", "word": "foot", "wordID": 589, "conditions": [24, 800, "a", 24000], "trial": 6, "serialpos": 4, "trial_type": "single-audio", "trial_index": 217, "time_elapsed": 1043105, "internal_node_id": "0.0-154.0"}}, {"uniqueid": "MTK0283:3WI0P0II62ZMFI65FN6EVY5B2YPRDG", "current_trial": 218, "dateTime": 1510695472305, "trialdata": {"rt": -1000, "stimulus": "/static/audio/wordpool/AIRPLANE.wav", "key_press": -1, "type": "PRES_AUD", "word": "airplane", "wordID": 11, "conditions": [24, 800, "a", 24000], "trial": 6, "serialpos": 5, "trial_type": "single-audio", "trial_index": 218, "time_elapsed": 1044953, "internal_node_id": "0.0-155.0"}}, {"uniqueid": "MTK0283:3WI0P0II62ZMFI65FN6EVY5B2YPRDG", "current_trial": 219, "dateTime": 1510695473922, "trialdata": {"rt": -1000, "stimulus": "/static/audio/wordpool/GLASS.wav", "key_press": -1, "type": "PRES_AUD", "word": "glass", "wordID": 638, "conditions": [24, 800, "a", 24000], "trial": 6, "serialpos": 6, "trial_type": "single-audio", "trial_index": 219, "time_elapsed": 1046570, "internal_node_id": "0.0-156.0"}}, {"uniqueid": "MTK0283:3WI0P0II62ZMFI65FN6EVY5B2YPRDG", "current_trial": 220, "dateTime": 1510695475806, "trialdata": {"rt": -1000, "stimulus": "/static/audio/wordpool/DINER.wav", "key_press": -1, "type": "PRES_AUD", "word": "diner", "wordID": 466, "conditions": [24, 800, "a", 24000], "trial": 6, "serialpos": 7, "trial_type": "single-audio", "trial_index": 220, "time_elapsed": 1048454, "internal_node_id": "0.0-157.0"}}, {"uniqueid": "MTK0283:3WI0P0II62ZMFI65FN6EVY5B2YPRDG", "current_trial": 221, "dateTime": 1510695477589, "trialdata": {"rt": -1000, "stimulus": "/static/audio/wordpool/WAITRESS.wav", "key_press": -1, "type": "PRES_AUD", "word": "waitress", "wordID": 1580, "conditions": [24, 800, "a", 24000], "trial": 6, "serialpos": 8, "trial_type": "single-audio", "trial_index": 221, "time_elapsed": 1050237, "internal_node_id": "0.0-158.0"}}, {"uniqueid": "MTK0283:3WI0P0II62ZMFI65FN6EVY5B2YPRDG", "current_trial": 222, "dateTime": 1510695479302, "trialdata": {"rt": -1000, "stimulus": "/static/audio/wordpool/CLAM.wav", "key_press": -1, "type": "PRES_AUD", "word": "clam", "wordID": 314, "conditions": [24, 800, "a", 24000], "trial": 6, "serialpos": 9, "trial_type": "single-audio", "trial_index": 222, "time_elapsed": 1051950, "internal_node_id": "0.0-159.0"}}, {"uniqueid": "MTK0283:3WI0P0II62ZMFI65FN6EVY5B2YPRDG", "current_trial": 223, "dateTime": 1510695481220, "trialdata": {"rt": -1000, "stimulus": "/static/audio/wordpool/RABBIT.wav", "key_press": -1, "type": "PRES_AUD", "word": "rabbit", "wordID": 1151, "conditions": [24, 800, "a", 24000], "trial": 6, "serialpos": 10, "trial_type": "single-audio", "trial_index": 223, "time_elapsed": 1053868, "internal_node_id": "0.0-160.0"}}, {"uniqueid": "MTK0283:3WI0P0II62ZMFI65FN6EVY5B2YPRDG", "current_trial": 224, "dateTime": 1510695482946, "trialdata": {"rt": -1000, "stimulus": "/static/audio/wordpool/GRAPE.wav", "key_press": -1, "type": "PRES_AUD", "word": "grape", "wordID": 653, "conditions": [24, 800, "a", 24000], "trial": 6, "serialpos": 11, "trial_type": "single-audio", "trial_index": 224, "time_elapsed": 1055594, "internal_node_id": "0.0-161.0"}}, {"uniqueid": "MTK0283:3WI0P0II62ZMFI65FN6EVY5B2YPRDG", "current_trial": 225, "dateTime": 1510695484549, "trialdata": {"rt": -1000, "stimulus": "/static/audio/wordpool/ZEBRA.wav", "key_press": -1, "type": "PRES_AUD", "word": "zebra", "wordID": 1634, "conditions": [24, 800, "a", 24000], "trial": 6, "serialpos": 12, "trial_type": "single-audio", "trial_index": 225, "time_elapsed": 1057197, "internal_node_id": "0.0-162.0"}}, {"uniqueid": "MTK0283:3WI0P0II62ZMFI65FN6EVY5B2YPRDG", "current_trial": 226, "dateTime": 1510695486166, "trialdata": {"rt": -1000, "stimulus": "/static/audio/wordpool/FOX.wav", "key_press": -1, "type": "PRES_AUD", "word": "fox", "wordID": 597, "conditions": [24, 800, "a", 24000], "trial": 6, "serialpos": 13, "trial_type": "single-audio", "trial_index": 226, "time_elapsed": 1058814, "internal_node_id": "0.0-163.0"}}, {"uniqueid": "MTK0283:3WI0P0II62ZMFI65FN6EVY5B2YPRDG", "current_trial": 227, "dateTime": 1510695487865, "trialdata": {"rt": -1000, "stimulus": "/static/audio/wordpool/PECAN.wav", "key_press": -1, "type": "PRES_AUD", "word": "pecan", "wordID": 1035, "conditions": [24, 800, "a", 24000], "trial": 6, "serialpos": 14, "trial_type": "single-audio", "trial_index": 227, "time_elapsed": 1060513, "internal_node_id": "0.0-164.0"}}, {"uniqueid": "MTK0283:3WI0P0II62ZMFI65FN6EVY5B2YPRDG", "current_trial": 228, "dateTime": 1510695489484, "trialdata": {"rt": -1000, "stimulus": "/static/audio/wordpool/TRUCK.wav", "key_press": -1, "type": "PRES_AUD", "word": "truck", "wordID": 1511, "conditions": [24, 800, "a", 24000], "trial": 6, "serialpos": 15, "trial_type": "single-audio", "trial_index": 228, "time_elapsed": 1062132, "internal_node_id": "0.0-165.0"}}, {"uniqueid": "MTK0283:3WI0P0II62ZMFI65FN6EVY5B2YPRDG", "current_trial": 229, "dateTime": 1510695491292, "trialdata": {"rt": -1000, "stimulus": "/static/audio/wordpool/APPLE.wav", "key_press": -1, "type": "PRES_AUD", "word": "apple", "wordID": 32, "conditions": [24, 800, "a", 24000], "trial": 6, "serialpos": 16, "trial_type": "single-audio", "trial_index": 229, "time_elapsed": 1063940, "internal_node_id": "0.0-166.0"}}, {"uniqueid": "MTK0283:3WI0P0II62ZMFI65FN6EVY5B2YPRDG", "current_trial": 230, "dateTime": 1510695492971, "trialdata": {"rt": -1000, "stimulus": "/static/audio/wordpool/BACKBONE.wav", "key_press": -1, "type": "PRES_AUD", "word": "backbone", "wordID": 65, "conditions": [24, 800, "a", 24000], "trial": 6, "serialpos": 17, "trial_type": "single-audio", "trial_index": 230, "time_elapsed": 1065619, "internal_node_id": "0.0-167.0"}}, {"uniqueid": "MTK0283:3WI0P0II62ZMFI65FN6EVY5B2YPRDG", "current_trial": 231, "dateTime": 1510695494880, "trialdata": {"rt": -1000, "stimulus": "/static/audio/wordpool/FLASK.wav", "key_press": -1, "type": "PRES_AUD", "word": "flask", "wordID": 575, "conditions": [24, 800, "a", 24000], "trial": 6, "serialpos": 18, "trial_type": "single-audio", "trial_index": 231, "time_elapsed": 1067528, "internal_node_id": "0.0-168.0"}}, {"uniqueid": "MTK0283:3WI0P0II62ZMFI65FN6EVY5B2YPRDG", "current_trial": 232, "dateTime": 1510695496658, "trialdata": {"rt": -1000, "stimulus": "/static/audio/wordpool/DONOR.wav", "key_press": -1, "type": "PRES_AUD", "word": "donor", "wordID": 484, "conditions": [24, 800, "a", 24000], "trial": 6, "serialpos": 19, "trial_type": "single-audio", "trial_index": 232, "time_elapsed": 1069306, "internal_node_id": "0.0-169.0"}}, {"uniqueid": "MTK0283:3WI0P0II62ZMFI65FN6EVY5B2YPRDG", "current_trial": 233, "dateTime": 1510695498425, "trialdata": {"rt": -1000, "stimulus": "/static/audio/wordpool/PIMPLE.wav", "key_press": -1, "type": "PRES_AUD", "word": "pimple", "wordID": 1070, "conditions": [24, 800, "a", 24000], "trial": 6, "serialpos": 20, "trial_type": "single-audio", "trial_index": 233, "time_elapsed": 1071073, "internal_node_id": "0.0-170.0"}}, {"uniqueid": "MTK0283:3WI0P0II62ZMFI65FN6EVY5B2YPRDG", "current_trial": 234, "dateTime": 1510695500257, "trialdata": {"rt": -1000, "stimulus": "/static/audio/wordpool/LEG.wav", "key_press": -1, "type": "PRES_AUD", "word": "leg", "wordID": 808, "conditions": [24, 800, "a", 24000], "trial": 6, "serialpos": 21, "trial_type": "single-audio", "trial_index": 234, "time_elapsed": 1072905, "internal_node_id": "0.0-171.0"}}, {"uniqueid": "MTK0283:3WI0P0II62ZMFI65FN6EVY5B2YPRDG", "current_trial": 235, "dateTime": 1510695502115, "trialdata": {"rt": -1000, "stimulus": "/static/audio/wordpool/ARM.wav", "key_press": -1, "type": "PRES_AUD", "word": "arm", "wordID": 37, "conditions": [24, 800, "a", 24000], "trial": 6, "serialpos": 22, "trial_type": "single-audio", "trial_index": 235, "time_elapsed": 1074763, "internal_node_id": "0.0-172.0"}}, {"uniqueid": "MTK0283:3WI0P0II62ZMFI65FN6EVY5B2YPRDG", "current_trial": 236, "dateTime": 1510695503721, "trialdata": {"rt": -1000, "stimulus": "/static/audio/wordpool/ROOSTER.wav", "key_press": -1, "type": "PRES_AUD", "word": "rooster", "wordID": 1208, "conditions": [24, 800, "a", 24000], "trial": 6, "serialpos": 23, "trial_type": "single-audio", "trial_index": 236, "time_elapsed": 1076369, "internal_node_id": "0.0-173.0"}}, {"uniqueid": "MTK0283:3WI0P0II62ZMFI65FN6EVY5B2YPRDG", "current_trial": 237, "dateTime": 1510695505009, "trialdata": {"rt": -1, "stimulus": "", "key_press": -1, "type": "PRE_RECALL_DELAY", "trial_type": "single-stim", "trial_index": 237, "time_elapsed": 1077657, "internal_node_id": "0.0-174.0-0.0"}}, {"uniqueid": "MTK0283:3WI0P0II62ZMFI65FN6EVY5B2YPRDG", "current_trial": 238, "dateTime": 1510695505511, "trialdata": {"rt": -1000, "stimulus": "/static/audio/400Hz.wav", "key_press": -1, "type": "PRE_RECALL_ALERT", "trial_type": "single-audio", "trial_index": 238, "time_elapsed": 1078159, "internal_node_id": "0.0-175.0"}}, {"uniqueid": "MTK0283:3WI0P0II62ZMFI65FN6EVY5B2YPRDG", "current_trial": 239, "dateTime": 1510695565517, "trialdata": {"rt": [3305, 5234, 6275, 7347, 14160], "recwords": ["fruit", "foot", "apple", "grape", "rooster"], "type": "FREE_RECALL", "conditions": [24, 800, "a", 24000], "trial": 6, "trial_type": "free-recall", "trial_index": 239, "time_elapsed": 1138162, "internal_node_id": "0.0-176.0-0.0"}}, {"uniqueid": "MTK0283:3WI0P0II62ZMFI65FN6EVY5B2YPRDG", "current_trial": 240, "dateTime": 1510695569466, "trialdata": {"rt": 1948, "key_press": 71, "type": "INSTRUCTIONS", "trial_type": "text", "trial_index": 240, "time_elapsed": 1142114, "internal_node_id": "0.0-177.0"}}, {"uniqueid": "MTK0283:3WI0P0II62ZMFI65FN6EVY5B2YPRDG", "current_trial": 241, "dateTime": 1510695583472, "trialdata": {"rt": [3565, 5607, 7781, 10002], "responses": ["18", "6", "14", "12"], "num1": [9, 1, 7, 3, 6], "num2": [5, 2, 3, 3, 5], "num3": [4, 3, 4, 6, 4], "type": "DISTRACTOR", "conditions": [12, 1600, "v", 12000], "trial": 7, "trial_type": "math-distractor", "trial_index": 241, "time_elapsed": 1156119, "internal_node_id": "0.0-178.0"}}, {"uniqueid": "MTK0283:3WI0P0II62ZMFI65FN6EVY5B2YPRDG", "current_trial": 242, "dateTime": 1510695586475, "trialdata": {"rt": -1, "stimulus": "<p id=\"stim\">10</p>", "key_press": -1, "trial_type": "single-stim", "trial_index": 242, "time_elapsed": 1159123, "internal_node_id": "0.0-179.0-0.0"}}, {"uniqueid": "MTK0283:3WI0P0II62ZMFI65FN6EVY5B2YPRDG", "current_trial": 243, "dateTime": 1510695587478, "trialdata": {"rt": -1, "stimulus": "<p id=\"stim\">9</p>", "key_press": -1, "trial_type": "single-stim", "trial_index": 243, "time_elapsed": 1160125, "internal_node_id": "0.0-179.0-1.0"}}, {"uniqueid": "MTK0283:3WI0P0II62ZMFI65FN6EVY5B2YPRDG", "current_trial": 244, "dateTime": 1510695588479, "trialdata": {"rt": -1, "stimulus": "<p id=\"stim\">8</p>", "key_press": -1, "trial_type": "single-stim", "trial_index": 244, "time_elapsed": 1161126, "internal_node_id": "0.0-179.0-2.0"}}, {"uniqueid": "MTK0283:3WI0P0II62ZMFI65FN6EVY5B2YPRDG", "current_trial": 245, "dateTime": 1510695589481, "trialdata": {"rt": -1, "stimulus": "<p id=\"stim\">7</p>", "key_press": -1, "trial_type": "single-stim", "trial_index": 245, "time_elapsed": 1162128, "internal_node_id": "0.0-179.0-3.0"}}, {"uniqueid": "MTK0283:3WI0P0II62ZMFI65FN6EVY5B2YPRDG", "current_trial": 246, "dateTime": 1510695590483, "trialdata": {"rt": -1, "stimulus": "<p id=\"stim\">6</p>", "key_press": -1, "trial_type": "single-stim", "trial_index": 246, "time_elapsed": 1163131, "internal_node_id": "0.0-179.0-4.0"}}, {"uniqueid": "MTK0283:3WI0P0II62ZMFI65FN6EVY5B2YPRDG", "current_trial": 247, "dateTime": 1510695591486, "trialdata": {"rt": -1, "stimulus": "<p id=\"stim\">5</p>", "key_press": -1, "trial_type": "single-stim", "trial_index": 247, "time_elapsed": 1164133, "internal_node_id": "0.0-179.0-5.0"}}, {"uniqueid": "MTK0283:3WI0P0II62ZMFI65FN6EVY5B2YPRDG", "current_trial": 248, "dateTime": 1510695592487, "trialdata": {"rt": -1, "stimulus": "<p id=\"stim\">4</p>", "key_press": -1, "trial_type": "single-stim", "trial_index": 248, "time_elapsed": 1165135, "internal_node_id": "0.0-179.0-6.0"}}, {"uniqueid": "MTK0283:3WI0P0II62ZMFI65FN6EVY5B2YPRDG", "current_trial": 249, "dateTime": 1510695593489, "trialdata": {"rt": -1, "stimulus": "<p id=\"stim\">3</p>", "key_press": -1, "trial_type": "single-stim", "trial_index": 249, "time_elapsed": 1166137, "internal_node_id": "0.0-179.0-7.0"}}, {"uniqueid": "MTK0283:3WI0P0II62ZMFI65FN6EVY5B2YPRDG", "current_trial": 250, "dateTime": 1510695594492, "trialdata": {"rt": -1, "stimulus": "<p id=\"stim\">2</p>", "key_press": -1, "trial_type": "single-stim", "trial_index": 250, "time_elapsed": 1167140, "internal_node_id": "0.0-179.0-8.0"}}, {"uniqueid": "MTK0283:3WI0P0II62ZMFI65FN6EVY5B2YPRDG", "current_trial": 251, "dateTime": 1510695595494, "trialdata": {"rt": -1, "stimulus": "<p id=\"stim\">1</p>", "key_press": -1, "trial_type": "single-stim", "trial_index": 251, "time_elapsed": 1168142, "internal_node_id": "0.0-179.0-9.0"}}, {"uniqueid": "MTK0283:3WI0P0II62ZMFI65FN6EVY5B2YPRDG", "current_trial": 252, "dateTime": 1510695596995, "trialdata": {"rt": -1, "stimulus": "<p id=\"stim\">+</p>", "key_press": -1, "type": "FIXATION", "trial_type": "single-stim", "trial_index": 252, "time_elapsed": 1169643, "internal_node_id": "0.0-180.0-0.0"}}, {"uniqueid": "MTK0283:3WI0P0II62ZMFI65FN6EVY5B2YPRDG", "current_trial": 253, "dateTime": 1510695598598, "trialdata": {"rt": -1, "stimulus": "<p id=\"stim\">VELVET</p>", "key_press": -1, "type": "PRES_VIS", "word": "velvet", "wordID": 1554, "conditions": [12, 1600, "v", 12000], "trial": 7, "serialpos": 0, "trial_type": "single-stim", "trial_index": 253, "time_elapsed": 1171246, "internal_node_id": "0.0-181.0"}}, {"uniqueid": "MTK0283:3WI0P0II62ZMFI65FN6EVY5B2YPRDG", "current_trial": 254, "dateTime": 1510695601145, "trialdata": {"rt": -1, "stimulus": "<p id=\"stim\">CREATURE</p>", "key_press": -1, "type": "PRES_VIS", "word": "creature", "wordID": 402, "conditions": [12, 1600, "v", 12000], "trial": 7, "serialpos": 1, "trial_type": "single-stim", "trial_index": 254, "time_elapsed": 1173792, "internal_node_id": "0.0-182.0"}}, {"uniqueid": "MTK0283:3WI0P0II62ZMFI65FN6EVY5B2YPRDG", "current_trial": 255, "dateTime": 1510695603666, "trialdata": {"rt": -1, "stimulus": "<p id=\"stim\">SNAIL</p>", "key_press": -1, "type": "PRES_VIS", "word": "snail", "wordID": 1331, "conditions": [12, 1600, "v", 12000], "trial": 7, "serialpos": 2, "trial_type": "single-stim", "trial_index": 255, "time_elapsed": 1176314, "internal_node_id": "0.0-183.0"}}, {"uniqueid": "MTK0283:3WI0P0II62ZMFI65FN6EVY5B2YPRDG", "current_trial": 256, "dateTime": 1510695606296, "trialdata": {"rt": -1, "stimulus": "<p id=\"stim\">MILDEW</p>", "key_press": -1, "type": "PRES_VIS", "word": "mildew", "wordID": 892, "conditions": [12, 1600, "v", 12000], "trial": 7, "serialpos": 3, "trial_type": "single-stim", "trial_index": 256, "time_elapsed": 1178944, "internal_node_id": "0.0-184.0"}}, {"uniqueid": "MTK0283:3WI0P0II62ZMFI65FN6EVY5B2YPRDG", "current_trial": 257, "dateTime": 1510695608871, "trialdata": {"rt": -1, "stimulus": "<p id=\"stim\">TRENCH</p>", "key_press": -1, "type": "PRES_VIS", "word": "trench", "wordID": 1502, "conditions": [12, 1600, "v", 12000], "trial": 7, "serialpos": 4, "trial_type": "single-stim", "trial_index": 257, "time_elapsed": 1181519, "internal_node_id": "0.0-185.0"}}, {"uniqueid": "MTK0283:3WI0P0II62ZMFI65FN6EVY5B2YPRDG", "current_trial": 258, "dateTime": 1510695611289, "trialdata": {"rt": -1, "stimulus": "<p id=\"stim\">LIZARD</p>", "key_press": -1, "type": "PRES_VIS", "word": "lizard", "wordID": 833, "conditions": [12, 1600, "v", 12000], "trial": 7, "serialpos": 5, "trial_type": "single-stim", "trial_index": 258, "time_elapsed": 1183936, "internal_node_id": "0.0-186.0"}}, {"uniqueid": "MTK0283:3WI0P0II62ZMFI65FN6EVY5B2YPRDG", "current_trial": 259, "dateTime": 1510695614044, "trialdata": {"rt": -1, "stimulus": "<p id=\"stim\">CITRUS</p>", "key_press": -1, "type": "PRES_VIS", "word": "citrus", "wordID": 312, "conditions": [12, 1600, "v", 12000], "trial": 7, "serialpos": 6, "trial_type": "single-stim", "trial_index": 259, "time_elapsed": 1186692, "internal_node_id": "0.0-187.0"}}, {"uniqueid": "MTK0283:3WI0P0II62ZMFI65FN6EVY5B2YPRDG", "current_trial": 260, "dateTime": 1510695616695, "trialdata": {"rt": -1, "stimulus": "<p id=\"stim\">CATTLE</p>", "key_press": -1, "type": "PRES_VIS", "word": "cattle", "wordID": 260, "conditions": [12, 1600, "v", 12000], "trial": 7, "serialpos": 7, "trial_type": "single-stim", "trial_index": 260, "time_elapsed": 1189343, "internal_node_id": "0.0-188.0"}}, {"uniqueid": "MTK0283:3WI0P0II62ZMFI65FN6EVY5B2YPRDG", "current_trial": 261, "dateTime": 1510695619475, "trialdata": {"rt": -1, "stimulus": "<p id=\"stim\">BISON</p>", "key_press": -1, "type": "PRES_VIS", "word": "bison", "wordID": 130, "conditions": [12, 1600, "v", 12000], "trial": 7, "serialpos": 8, "trial_type": "single-stim", "trial_index": 261, "time_elapsed": 1192123, "internal_node_id": "0.0-189.0"}}, {"uniqueid": "MTK0283:3WI0P0II62ZMFI65FN6EVY5B2YPRDG", "current_trial": 262, "dateTime": 1510695622081, "trialdata": {"rt": -1, "stimulus": "<p id=\"stim\">CATCHER</p>", "key_press": -1, "type": "PRES_VIS", "word": "catcher", "wordID": 257, "conditions": [12, 1600, "v", 12000], "trial": 7, "serialpos": 9, "trial_type": "single-stim", "trial_index": 262, "time_elapsed": 1194729, "internal_node_id": "0.0-190.0"}}, {"uniqueid": "MTK0283:3WI0P0II62ZMFI65FN6EVY5B2YPRDG", "current_trial": 263, "dateTime": 1510695624660, "trialdata": {"rt": -1, "stimulus": "<p id=\"stim\">CRAYON</p>", "key_press": -1, "type": "PRES_VIS", "word": "crayon", "wordID": 400, "conditions": [12, 1600, "v", 12000], "trial": 7, "serialpos": 10, "trial_type": "single-stim", "trial_index": 263, "time_elapsed": 1197307, "internal_node_id": "0.0-191.0"}}, {"uniqueid": "MTK0283:3WI0P0II62ZMFI65FN6EVY5B2YPRDG", "current_trial": 264, "dateTime": 1510695627076, "trialdata": {"rt": -1, "stimulus": "<p id=\"stim\">PEBBLE</p>", "key_press": -1, "type": "PRES_VIS", "word": "pebble", "wordID": 1034, "conditions": [12, 1600, "v", 12000], "trial": 7, "serialpos": 11, "trial_type": "single-stim", "trial_index": 264, "time_elapsed": 1199724, "internal_node_id": "0.0-192.0"}}, {"uniqueid": "MTK0283:3WI0P0II62ZMFI65FN6EVY5B2YPRDG", "current_trial": 265, "dateTime": 1510695629294, "trialdata": {"rt": -1, "stimulus": "", "key_press": -1, "type": "PRE_RECALL_DELAY", "trial_type": "single-stim", "trial_index": 265, "time_elapsed": 1201941, "internal_node_id": "0.0-193.0-0.0"}}, {"uniqueid": "MTK0283:3WI0P0II62ZMFI65FN6EVY5B2YPRDG", "current_trial": 266, "dateTime": 1510695629796, "trialdata": {"rt": -1000, "stimulus": "/static/audio/400Hz.wav", "key_press": -1, "type": "PRE_RECALL_ALERT", "trial_type": "single-audio", "trial_index": 266, "time_elapsed": 1202444, "internal_node_id": "0.0-194.0"}}, {"uniqueid": "MTK0283:3WI0P0II62ZMFI65FN6EVY5B2YPRDG", "current_trial": 267, "dateTime": 1510695689808, "trialdata": {"rt": [5569, 7987, 12049], "recwords": ["creature", "cattle", "citrus"], "type": "FREE_RECALL", "conditions": [12, 1600, "v", 12000], "trial": 7, "trial_type": "free-recall", "trial_index": 267, "time_elapsed": 1262448, "internal_node_id": "0.0-195.0-0.0"}}, {"uniqueid": "MTK0283:3WI0P0II62ZMFI65FN6EVY5B2YPRDG", "current_trial": 268, "dateTime": 1510695693614, "trialdata": {"rt": 1804, "key_press": 74, "type": "INSTRUCTIONS", "trial_type": "text", "trial_index": 268, "time_elapsed": 1266262, "internal_node_id": "0.0-196.0"}}, {"uniqueid": "MTK0283:3WI0P0II62ZMFI65FN6EVY5B2YPRDG", "current_trial": 269, "dateTime": 1510695707618, "trialdata": {"rt": [2433, 7458, 9002, 11603], "responses": ["5", "23", "12", "14"], "num1": [1, 7, 5, 4, 6], "num2": [3, 7, 5, 2, 7], "num3": [1, 9, 2, 8, 6], "type": "DISTRACTOR", "conditions": [24, 800, "a", 12000], "trial": 8, "trial_type": "math-distractor", "trial_index": 269, "time_elapsed": 1280266, "internal_node_id": "0.0-197.0"}}, {"uniqueid": "MTK0283:3WI0P0II62ZMFI65FN6EVY5B2YPRDG", "current_trial": 270, "dateTime": 1510695710621, "trialdata": {"rt": -1, "stimulus": "<p id=\"stim\">10</p>", "key_press": -1, "trial_type": "single-stim", "trial_index": 270, "time_elapsed": 1283269, "internal_node_id": "0.0-198.0-0.0"}}, {"uniqueid": "MTK0283:3WI0P0II62ZMFI65FN6EVY5B2YPRDG", "current_trial": 271, "dateTime": 1510695711624, "trialdata": {"rt": -1, "stimulus": "<p id=\"stim\">9</p>", "key_press": -1, "trial_type": "single-stim", "trial_index": 271, "time_elapsed": 1284272, "internal_node_id": "0.0-198.0-1.0"}}, {"uniqueid": "MTK0283:3WI0P0II62ZMFI65FN6EVY5B2YPRDG", "current_trial": 272, "dateTime": 1510695712626, "trialdata": {"rt": -1, "stimulus": "<p id=\"stim\">8</p>", "key_press": -1, "trial_type": "single-stim", "trial_index": 272, "time_elapsed": 1285274, "internal_node_id": "0.0-198.0-2.0"}}, {"uniqueid": "MTK0283:3WI0P0II62ZMFI65FN6EVY5B2YPRDG", "current_trial": 273, "dateTime": 1510695713629, "trialdata": {"rt": -1, "stimulus": "<p id=\"stim\">7</p>", "key_press": -1, "trial_type": "single-stim", "trial_index": 273, "time_elapsed": 1286277, "internal_node_id": "0.0-198.0-3.0"}}, {"uniqueid": "MTK0283:3WI0P0II62ZMFI65FN6EVY5B2YPRDG",