{"condition": 0, "counterbalance": 850, "assignmentId": "39L1G8WVWRY04L5RO4LNCY1M68I31F", "workerId": "MTK0161", "hitId": "3XU9MCX6VOJXPOAVSWHVAVINR6D2R4", "currenttrial": 625, "bonus": 0, "data": [{"uniqueid": "MTK0161:39L1G8WVWRY04L5RO4LNCY1M68I31F", "current_trial": 0, "dateTime": 1509387411799, "trialdata": {"rt": 4243, "key_press": 32, "type": "INSTRUCTIONS", "trial_type": "text", "trial_index": 0, "time_elapsed": 4246, "internal_node_id": "0.0-0.0"}}, {"uniqueid": "MTK0161:39L1G8WVWRY04L5RO4LNCY1M68I31F", "current_trial": 1, "dateTime": 1509387437444, "trialdata": {"rt": 25644, "key_press": 32, "type": "INSTRUCTIONS", "trial_type": "text", "trial_index": 1, "time_elapsed": 29892, "internal_node_id": "0.0-1.0"}}, {"uniqueid": "MTK0161:39L1G8WVWRY04L5RO4LNCY1M68I31F", "current_trial": 2, "dateTime": 1509387450885, "trialdata": {"rt": [13433], "responses": ["ocean"], "type": "AUDIO_TEST", "trial_type": "audio-test", "trial_index": 2, "time_elapsed": 43333, "internal_node_id": "0.0-2.0"}}, {"uniqueid": "MTK0161:39L1G8WVWRY04L5RO4LNCY1M68I31F", "current_trial": 3, "dateTime": 1509387473075, "trialdata": {"rt": [22188], "responses": ["crystal"], "type": "AUDIO_TEST", "trial_type": "audio-test", "trial_index": 3, "time_elapsed": 65523, "internal_node_id": "0.0-3.0"}}, {"uniqueid": "MTK0161:39L1G8WVWRY04L5RO4LNCY1M68I31F", "current_trial": 4, "dateTime": 1509387483067, "trialdata": {"rt": [9989], "responses": ["spice"], "type": "AUDIO_TEST", "trial_type": "audio-test", "trial_index": 4, "time_elapsed": 75515, "internal_node_id": "0.0-4.0"}}, {"uniqueid": "MTK0161:39L1G8WVWRY04L5RO4LNCY1M68I31F", "current_trial": 5, "dateTime": 1509387488723, "trialdata": {"rt": 4905, "key_press": 32, "type": "INSTRUCTIONS", "trial_type": "text", "trial_index": 5, "time_elapsed": 81171, "internal_node_id": "0.0-5.0"}}, {"uniqueid": "MTK0161:39L1G8WVWRY04L5RO4LNCY1M68I31F", "current_trial": 6, "dateTime": 1509387558251, "trialdata": {"rt": 69527, "key_press": 32, "type": "INSTRUCTIONS", "trial_type": "text", "trial_index": 6, "time_elapsed": 150699, "internal_node_id": "0.0-6.0"}}, {"uniqueid": "MTK0161:39L1G8WVWRY04L5RO4LNCY1M68I31F", "current_trial": 7, "dateTime": 1509387579034, "trialdata": {"rt": 20783, "key_press": 32, "type": "INSTRUCTIONS", "trial_type": "text", "trial_index": 7, "time_elapsed": 171482, "internal_node_id": "0.0-7.0"}}, {"uniqueid": "MTK0161:39L1G8WVWRY04L5RO4LNCY1M68I31F", "current_trial": 8, "dateTime": 1509387596553, "trialdata": {"rt": 17518, "key_press": 32, "type": "INSTRUCTIONS", "trial_type": "text", "trial_index": 8, "time_elapsed": 189001, "internal_node_id": "0.0-8.0"}}, {"uniqueid": "MTK0161:39L1G8WVWRY04L5RO4LNCY1M68I31F", "current_trial": 9, "dateTime": 1509387615561, "trialdata": {"rt": [4810, 8123, 11058, 13898, 17195], "responses": ["20", "12", "11", "9", "11"], "num1": [2, 2, 1, 2, 4, 2], "num2": [9, 4, 1, 3, 2, 7], "num3": [9, 6, 9, 4, 5, 9], "type": "DISTRACTOR", "conditions": [18, 1200, "v", 18000], "trial": 0, "trial_type": "math-distractor", "trial_index": 9, "time_elapsed": 208009, "internal_node_id": "0.0-9.0"}}, {"uniqueid": "MTK0161:39L1G8WVWRY04L5RO4LNCY1M68I31F", "current_trial": 10, "dateTime": 1509387618563, "trialdata": {"rt": -1, "stimulus": "<p id=\"stim\">10</p>", "key_press": -1, "trial_type": "single-stim", "trial_index": 10, "time_elapsed": 211011, "internal_node_id": "0.0-10.0-0.0"}}, {"uniqueid": "MTK0161:39L1G8WVWRY04L5RO4LNCY1M68I31F", "current_trial": 11, "dateTime": 1509387619563, "trialdata": {"rt": -1, "stimulus": "<p id=\"stim\">9</p>", "key_press": -1, "trial_type": "single-stim", "trial_index": 11, "time_elapsed": 212011, "internal_node_id": "0.0-10.0-1.0"}}, {"uniqueid": "MTK0161:39L1G8WVWRY04L5RO4LNCY1M68I31F", "current_trial": 12, "dateTime": 1509387620563, "trialdata": {"rt": -1, "stimulus": "<p id=\"stim\">8</p>", "key_press": -1, "trial_type": "single-stim", "trial_index": 12, "time_elapsed": 213011, "internal_node_id": "0.0-10.0-2.0"}}, {"uniqueid": "MTK0161:39L1G8WVWRY04L5RO4LNCY1M68I31F", "current_trial": 13, "dateTime": 1509387621564, "trialdata": {"rt": -1, "stimulus": "<p id=\"stim\">7</p>", "key_press": -1, "trial_type": "single-stim", "trial_index": 13, "time_elapsed": 214012, "internal_node_id": "0.0-10.0-3.0"}}, {"uniqueid": "MTK0161:39L1G8WVWRY04L5RO4LNCY1M68I31F", "current_trial": 14, "dateTime": 1509387622566, "trialdata": {"rt": -1, "stimulus": "<p id=\"stim\">6</p>", "key_press": -1, "trial_type": "single-stim", "trial_index": 14, "time_elapsed": 215014, "internal_node_id": "0.0-10.0-4.0"}}, {"uniqueid": "MTK0161:39L1G8WVWRY04L5RO4LNCY1M68I31F", "current_trial": 15, "dateTime": 1509387623568, "trialdata": {"rt": -1, "stimulus": "<p id=\"stim\">5</p>", "key_press": -1, "trial_type": "single-stim", "trial_index": 15, "time_elapsed": 216016, "internal_node_id": "0.0-10.0-5.0"}}, {"uniqueid": "MTK0161:39L1G8WVWRY04L5RO4LNCY1M68I31F", "current_trial": 16, "dateTime": 1509387624569, "trialdata": {"rt": -1, "stimulus": "<p id=\"stim\">4</p>", "key_press": -1, "trial_type": "single-stim", "trial_index": 16, "time_elapsed": 217017, "internal_node_id": "0.0-10.0-6.0"}}, {"uniqueid": "MTK0161:39L1G8WVWRY04L5RO4LNCY1M68I31F", "current_trial": 17, "dateTime": 1509387625569, "trialdata": {"rt": -1, "stimulus": "<p id=\"stim\">3</p>", "key_press": -1, "trial_type": "single-stim", "trial_index": 17, "time_elapsed": 218017, "internal_node_id": "0.0-10.0-7.0"}}, {"uniqueid": "MTK0161:39L1G8WVWRY04L5RO4LNCY1M68I31F", "current_trial": 18, "dateTime": 1509387626569, "trialdata": {"rt": -1, "stimulus": "<p id=\"stim\">2</p>", "key_press": -1, "trial_type": "single-stim", "trial_index": 18, "time_elapsed": 219017, "internal_node_id": "0.0-10.0-8.0"}}, {"uniqueid": "MTK0161:39L1G8WVWRY04L5RO4LNCY1M68I31F", "current_trial": 19, "dateTime": 1509387627570, "trialdata": {"rt": -1, "stimulus": "<p id=\"stim\">1</p>", "key_press": -1, "trial_type": "single-stim", "trial_index": 19, "time_elapsed": 220018, "internal_node_id": "0.0-10.0-9.0"}}, {"uniqueid": "MTK0161:39L1G8WVWRY04L5RO4LNCY1M68I31F", "current_trial": 20, "dateTime": 1509387629072, "trialdata": {"rt": -1, "stimulus": "<p id=\"stim\">+</p>", "key_press": -1, "type": "FIXATION", "trial_type": "single-stim", "trial_index": 20, "time_elapsed": 221520, "internal_node_id": "0.0-11.0-0.0"}}, {"uniqueid": "MTK0161:39L1G8WVWRY04L5RO4LNCY1M68I31F", "current_trial": 21, "dateTime": 1509387630272, "trialdata": {"rt": -1, "stimulus": "<p id=\"stim\">PUDDLE</p>", "key_press": -1, "type": "PRES_VIS", "word": "puddle", "wordID": 1139, "conditions": [18, 1200, "v", 18000], "trial": 0, "serialpos": 0, "trial_type": "single-stim", "trial_index": 21, "time_elapsed": 222720, "internal_node_id": "0.0-12.0"}}, {"uniqueid": "MTK0161:39L1G8WVWRY04L5RO4LNCY1M68I31F", "current_trial": 22, "dateTime": 1509387632333, "trialdata": {"rt": -1, "stimulus": "<p id=\"stim\">RACKET</p>", "key_press": -1, "type": "PRES_VIS", "word": "racket", "wordID": 1154, "conditions": [18, 1200, "v", 18000], "trial": 0, "serialpos": 1, "trial_type": "single-stim", "trial_index": 22, "time_elapsed": 224781, "internal_node_id": "0.0-13.0"}}, {"uniqueid": "MTK0161:39L1G8WVWRY04L5RO4LNCY1M68I31F", "current_trial": 23, "dateTime": 1509387634435, "trialdata": {"rt": -1, "stimulus": "<p id=\"stim\">CREVICE</p>", "key_press": -1, "type": "PRES_VIS", "word": "crevice", "wordID": 404, "conditions": [18, 1200, "v", 18000], "trial": 0, "serialpos": 2, "trial_type": "single-stim", "trial_index": 23, "time_elapsed": 226883, "internal_node_id": "0.0-14.0"}}, {"uniqueid": "MTK0161:39L1G8WVWRY04L5RO4LNCY1M68I31F", "current_trial": 24, "dateTime": 1509387636592, "trialdata": {"rt": -1, "stimulus": "<p id=\"stim\">PILOT</p>", "key_press": -1, "type": "PRES_VIS", "word": "pilot", "wordID": 1069, "conditions": [18, 1200, "v", 18000], "trial": 0, "serialpos": 3, "trial_type": "single-stim", "trial_index": 24, "time_elapsed": 229040, "internal_node_id": "0.0-15.0"}}, {"uniqueid": "MTK0161:39L1G8WVWRY04L5RO4LNCY1M68I31F", "current_trial": 25, "dateTime": 1509387638661, "trialdata": {"rt": -1, "stimulus": "<p id=\"stim\">PUPPY</p>", "key_press": -1, "type": "PRES_VIS", "word": "puppy", "wordID": 1143, "conditions": [18, 1200, "v", 18000], "trial": 0, "serialpos": 4, "trial_type": "single-stim", "trial_index": 25, "time_elapsed": 231109, "internal_node_id": "0.0-16.0"}}, {"uniqueid": "MTK0161:39L1G8WVWRY04L5RO4LNCY1M68I31F", "current_trial": 26, "dateTime": 1509387640712, "trialdata": {"rt": -1, "stimulus": "<p id=\"stim\">OX</p>", "key_press": -1, "type": "PRES_VIS", "word": "ox", "wordID": 993, "conditions": [18, 1200, "v", 18000], "trial": 0, "serialpos": 5, "trial_type": "single-stim", "trial_index": 26, "time_elapsed": 233160, "internal_node_id": "0.0-17.0"}}, {"uniqueid": "MTK0161:39L1G8WVWRY04L5RO4LNCY1M68I31F", "current_trial": 27, "dateTime": 1509387643029, "trialdata": {"rt": -1, "stimulus": "<p id=\"stim\">LUGGAGE</p>", "key_press": -1, "type": "PRES_VIS", "word": "luggage", "wordID": 846, "conditions": [18, 1200, "v", 18000], "trial": 0, "serialpos": 6, "trial_type": "single-stim", "trial_index": 27, "time_elapsed": 235477, "internal_node_id": "0.0-18.0"}}, {"uniqueid": "MTK0161:39L1G8WVWRY04L5RO4LNCY1M68I31F", "current_trial": 28, "dateTime": 1509387645201, "trialdata": {"rt": -1, "stimulus": "<p id=\"stim\">NOTEBOOK</p>", "key_press": -1, "type": "PRES_VIS", "word": "notebook", "wordID": 958, "conditions": [18, 1200, "v", 18000], "trial": 0, "serialpos": 7, "trial_type": "single-stim", "trial_index": 28, "time_elapsed": 237649, "internal_node_id": "0.0-19.0"}}, {"uniqueid": "MTK0161:39L1G8WVWRY04L5RO4LNCY1M68I31F", "current_trial": 29, "dateTime": 1509387647305, "trialdata": {"rt": -1, "stimulus": "<p id=\"stim\">WIFE</p>", "key_press": -1, "type": "PRES_VIS", "word": "wife", "wordID": 1608, "conditions": [18, 1200, "v", 18000], "trial": 0, "serialpos": 8, "trial_type": "single-stim", "trial_index": 29, "time_elapsed": 239752, "internal_node_id": "0.0-20.0"}}, {"uniqueid": "MTK0161:39L1G8WVWRY04L5RO4LNCY1M68I31F", "current_trial": 30, "dateTime": 1509387649388, "trialdata": {"rt": -1, "stimulus": "<p id=\"stim\">ARM</p>", "key_press": -1, "type": "PRES_VIS", "word": "arm", "wordID": 37, "conditions": [18, 1200, "v", 18000], "trial": 0, "serialpos": 9, "trial_type": "single-stim", "trial_index": 30, "time_elapsed": 241836, "internal_node_id": "0.0-21.0"}}, {"uniqueid": "MTK0161:39L1G8WVWRY04L5RO4LNCY1M68I31F", "current_trial": 31, "dateTime": 1509387651751, "trialdata": {"rt": -1, "stimulus": "<p id=\"stim\">LEG</p>", "key_press": -1, "type": "PRES_VIS", "word": "leg", "wordID": 808, "conditions": [18, 1200, "v", 18000], "trial": 0, "serialpos": 10, "trial_type": "single-stim", "trial_index": 31, "time_elapsed": 244199, "internal_node_id": "0.0-22.0"}}, {"uniqueid": "MTK0161:39L1G8WVWRY04L5RO4LNCY1M68I31F", "current_trial": 32, "dateTime": 1509387653970, "trialdata": {"rt": -1, "stimulus": "<p id=\"stim\">BUNNY</p>", "key_press": -1, "type": "PRES_VIS", "word": "bunny", "wordID": 197, "conditions": [18, 1200, "v", 18000], "trial": 0, "serialpos": 11, "trial_type": "single-stim", "trial_index": 32, "time_elapsed": 246418, "internal_node_id": "0.0-23.0"}}, {"uniqueid": "MTK0161:39L1G8WVWRY04L5RO4LNCY1M68I31F", "current_trial": 33, "dateTime": 1509387656278, "trialdata": {"rt": -1, "stimulus": "<p id=\"stim\">RUST</p>", "key_press": -1, "type": "PRES_VIS", "word": "rust", "wordID": 1218, "conditions": [18, 1200, "v", 18000], "trial": 0, "serialpos": 12, "trial_type": "single-stim", "trial_index": 33, "time_elapsed": 248726, "internal_node_id": "0.0-24.0"}}, {"uniqueid": "MTK0161:39L1G8WVWRY04L5RO4LNCY1M68I31F", "current_trial": 34, "dateTime": 1509387658342, "trialdata": {"rt": -1, "stimulus": "<p id=\"stim\">MAPLE</p>", "key_press": -1, "type": "PRES_VIS", "word": "maple", "wordID": 865, "conditions": [18, 1200, "v", 18000], "trial": 0, "serialpos": 13, "trial_type": "single-stim", "trial_index": 34, "time_elapsed": 250789, "internal_node_id": "0.0-25.0"}}, {"uniqueid": "MTK0161:39L1G8WVWRY04L5RO4LNCY1M68I31F", "current_trial": 35, "dateTime": 1509387660724, "trialdata": {"rt": -1, "stimulus": "<p id=\"stim\">WAGON</p>", "key_press": -1, "type": "PRES_VIS", "word": "wagon", "wordID": 1577, "conditions": [18, 1200, "v", 18000], "trial": 0, "serialpos": 14, "trial_type": "single-stim", "trial_index": 35, "time_elapsed": 253172, "internal_node_id": "0.0-26.0"}}, {"uniqueid": "MTK0161:39L1G8WVWRY04L5RO4LNCY1M68I31F", "current_trial": 36, "dateTime": 1509387663073, "trialdata": {"rt": -1, "stimulus": "<p id=\"stim\">RABBIT</p>", "key_press": -1, "type": "PRES_VIS", "word": "rabbit", "wordID": 1151, "conditions": [18, 1200, "v", 18000], "trial": 0, "serialpos": 15, "trial_type": "single-stim", "trial_index": 36, "time_elapsed": 255521, "internal_node_id": "0.0-27.0"}}, {"uniqueid": "MTK0161:39L1G8WVWRY04L5RO4LNCY1M68I31F", "current_trial": 37, "dateTime": 1509387665471, "trialdata": {"rt": -1, "stimulus": "<p id=\"stim\">EMPIRE</p>", "key_press": -1, "type": "PRES_VIS", "word": "empire", "wordID": 529, "conditions": [18, 1200, "v", 18000], "trial": 0, "serialpos": 16, "trial_type": "single-stim", "trial_index": 37, "time_elapsed": 257919, "internal_node_id": "0.0-28.0"}}, {"uniqueid": "MTK0161:39L1G8WVWRY04L5RO4LNCY1M68I31F", "current_trial": 38, "dateTime": 1509387667819, "trialdata": {"rt": -1, "stimulus": "<p id=\"stim\">CRAB</p>", "key_press": -1, "type": "PRES_VIS", "word": "crab", "wordID": 396, "conditions": [18, 1200, "v", 18000], "trial": 0, "serialpos": 17, "trial_type": "single-stim", "trial_index": 38, "time_elapsed": 260267, "internal_node_id": "0.0-29.0"}}, {"uniqueid": "MTK0161:39L1G8WVWRY04L5RO4LNCY1M68I31F", "current_trial": 39, "dateTime": 1509387670119, "trialdata": {"rt": -1, "stimulus": "", "key_press": -1, "type": "PRE_RECALL_DELAY", "trial_type": "single-stim", "trial_index": 39, "time_elapsed": 262567, "internal_node_id": "0.0-30.0-0.0"}}, {"uniqueid": "MTK0161:39L1G8WVWRY04L5RO4LNCY1M68I31F", "current_trial": 40, "dateTime": 1509387670621, "trialdata": {"rt": -1000, "stimulus": "/static/audio/400Hz.wav", "key_press": -1, "type": "PRE_RECALL_ALERT", "trial_type": "single-audio", "trial_index": 40, "time_elapsed": 263068, "internal_node_id": "0.0-31.0"}}, {"uniqueid": "MTK0161:39L1G8WVWRY04L5RO4LNCY1M68I31F", "current_trial": 41, "dateTime": 1509387730629, "trialdata": {"rt": [2880, 4888, 6960, 9224, 12433, 14984, 23024, 25136, 30824], "recwords": ["crab", "bunny", "rabbit", "wife", "puddle", "empire", "arm", "leg", "ox"], "type": "FREE_RECALL", "conditions": [18, 1200, "v", 18000], "trial": 0, "trial_type": "free-recall", "trial_index": 41, "time_elapsed": 323071, "internal_node_id": "0.0-32.0-0.0"}}, {"uniqueid": "MTK0161:39L1G8WVWRY04L5RO4LNCY1M68I31F", "current_trial": 42, "dateTime": 1509387735614, "trialdata": {"rt": 2984, "key_press": 32, "type": "INSTRUCTIONS", "trial_type": "text", "trial_index": 42, "time_elapsed": 328062, "internal_node_id": "0.0-33.0"}}, {"uniqueid": "MTK0161:39L1G8WVWRY04L5RO4LNCY1M68I31F", "current_trial": 43, "dateTime": 1509387755617, "trialdata": {"rt": [4142, 7141, 10125, 13253], "responses": ["15", "16", "16", "17"], "num1": [3, 8, 4, 7, 9], "num2": [3, 4, 6, 7, 8], "num3": [9, 4, 6, 3, 6], "type": "DISTRACTOR", "conditions": [18, 1200, "a", 18000], "trial": 1, "trial_type": "math-distractor", "trial_index": 43, "time_elapsed": 348064, "internal_node_id": "0.0-34.0"}}, {"uniqueid": "MTK0161:39L1G8WVWRY04L5RO4LNCY1M68I31F", "current_trial": 44, "dateTime": 1509387758618, "trialdata": {"rt": -1, "stimulus": "<p id=\"stim\">10</p>", "key_press": -1, "trial_type": "single-stim", "trial_index": 44, "time_elapsed": 351066, "internal_node_id": "0.0-35.0-0.0"}}, {"uniqueid": "MTK0161:39L1G8WVWRY04L5RO4LNCY1M68I31F", "current_trial": 45, "dateTime": 1509387759619, "trialdata": {"rt": -1, "stimulus": "<p id=\"stim\">9</p>", "key_press": -1, "trial_type": "single-stim", "trial_index": 45, "time_elapsed": 352067, "internal_node_id": "0.0-35.0-1.0"}}, {"uniqueid": "MTK0161:39L1G8WVWRY04L5RO4LNCY1M68I31F", "current_trial": 46, "dateTime": 1509387760621, "trialdata": {"rt": -1, "stimulus": "<p id=\"stim\">8</p>", "key_press": -1, "trial_type": "single-stim", "trial_index": 46, "time_elapsed": 353069, "internal_node_id": "0.0-35.0-2.0"}}, {"uniqueid": "MTK0161:39L1G8WVWRY04L5RO4LNCY1M68I31F", "current_trial": 47, "dateTime": 1509387761623, "trialdata": {"rt": -1, "stimulus": "<p id=\"stim\">7</p>", "key_press": -1, "trial_type": "single-stim", "trial_index": 47, "time_elapsed": 354070, "internal_node_id": "0.0-35.0-3.0"}}, {"uniqueid": "MTK0161:39L1G8WVWRY04L5RO4LNCY1M68I31F", "current_trial": 48, "dateTime": 1509387762623, "trialdata": {"rt": -1, "stimulus": "<p id=\"stim\">6</p>", "key_press": -1, "trial_type": "single-stim", "trial_index": 48, "time_elapsed": 355071, "internal_node_id": "0.0-35.0-4.0"}}, {"uniqueid": "MTK0161:39L1G8WVWRY04L5RO4LNCY1M68I31F", "current_trial": 49, "dateTime": 1509387763625, "trialdata": {"rt": -1, "stimulus": "<p id=\"stim\">5</p>", "key_press": -1, "trial_type": "single-stim", "trial_index": 49, "time_elapsed": 356073, "internal_node_id": "0.0-35.0-5.0"}}, {"uniqueid": "MTK0161:39L1G8WVWRY04L5RO4LNCY1M68I31F", "current_trial": 50, "dateTime": 1509387764626, "trialdata": {"rt": -1, "stimulus": "<p id=\"stim\">4</p>", "key_press": -1, "trial_type": "single-stim", "trial_index": 50, "time_elapsed": 357074, "internal_node_id": "0.0-35.0-6.0"}}, {"uniqueid": "MTK0161:39L1G8WVWRY04L5RO4LNCY1M68I31F", "current_trial": 51, "dateTime": 1509387765627, "trialdata": {"rt": -1, "stimulus": "<p id=\"stim\">3</p>", "key_press": -1, "trial_type": "single-stim", "trial_index": 51, "time_elapsed": 358075, "internal_node_id": "0.0-35.0-7.0"}}, {"uniqueid": "MTK0161:39L1G8WVWRY04L5RO4LNCY1M68I31F", "current_trial": 52, "dateTime": 1509387766628, "trialdata": {"rt": -1, "stimulus": "<p id=\"stim\">2</p>", "key_press": -1, "trial_type": "single-stim", "trial_index": 52, "time_elapsed": 359075, "internal_node_id": "0.0-35.0-8.0"}}, {"uniqueid": "MTK0161:39L1G8WVWRY04L5RO4LNCY1M68I31F", "current_trial": 53, "dateTime": 1509387767628, "trialdata": {"rt": -1, "stimulus": "<p id=\"stim\">1</p>", "key_press": -1, "trial_type": "single-stim", "trial_index": 53, "time_elapsed": 360076, "internal_node_id": "0.0-35.0-9.0"}}, {"uniqueid": "MTK0161:39L1G8WVWRY04L5RO4LNCY1M68I31F", "current_trial": 54, "dateTime": 1509387769129, "trialdata": {"rt": -1, "stimulus": "<p id=\"stim\">+</p>", "key_press": -1, "type": "FIXATION", "trial_type": "single-stim", "trial_index": 54, "time_elapsed": 361577, "internal_node_id": "0.0-36.0-0.0"}}, {"uniqueid": "MTK0161:39L1G8WVWRY04L5RO4LNCY1M68I31F", "current_trial": 55, "dateTime": 1509387771337, "trialdata": {"rt": -1000, "stimulus": "/static/audio/wordpool/TORTOISE.wav", "key_press": -1, "type": "PRES_AUD", "word": "tortoise", "wordID": 1485, "conditions": [18, 1200, "a", 18000], "trial": 1, "serialpos": 0, "trial_type": "single-audio", "trial_index": 55, "time_elapsed": 363785, "internal_node_id": "0.0-37.0"}}, {"uniqueid": "MTK0161:39L1G8WVWRY04L5RO4LNCY1M68I31F", "current_trial": 56, "dateTime": 1509387773567, "trialdata": {"rt": -1000, "stimulus": "/static/audio/wordpool/PRIMATE.wav", "key_press": -1, "type": "PRES_AUD", "word": "primate", "wordID": 1122, "conditions": [18, 1200, "a", 18000], "trial": 1, "serialpos": 1, "trial_type": "single-audio", "trial_index": 56, "time_elapsed": 366015, "internal_node_id": "0.0-38.0"}}, {"uniqueid": "MTK0161:39L1G8WVWRY04L5RO4LNCY1M68I31F", "current_trial": 57, "dateTime": 1509387775907, "trialdata": {"rt": -1000, "stimulus": "/static/audio/wordpool/QUARTER.wav", "key_press": -1, "type": "PRES_AUD", "word": "quarter", "wordID": 1147, "conditions": [18, 1200, "a", 18000], "trial": 1, "serialpos": 2, "trial_type": "single-audio", "trial_index": 57, "time_elapsed": 368355, "internal_node_id": "0.0-39.0"}}, {"uniqueid": "MTK0161:39L1G8WVWRY04L5RO4LNCY1M68I31F", "current_trial": 58, "dateTime": 1509387778259, "trialdata": {"rt": -1000, "stimulus": "/static/audio/wordpool/ORCHID.wav", "key_press": -1, "type": "PRES_AUD", "word": "orchid", "wordID": 981, "conditions": [18, 1200, "a", 18000], "trial": 1, "serialpos": 3, "trial_type": "single-audio", "trial_index": 58, "time_elapsed": 370707, "internal_node_id": "0.0-40.0"}}, {"uniqueid": "MTK0161:39L1G8WVWRY04L5RO4LNCY1M68I31F", "current_trial": 59, "dateTime": 1509387780541, "trialdata": {"rt": -1000, "stimulus": "/static/audio/wordpool/FUNGUS.wav", "key_press": -1, "type": "PRES_AUD", "word": "fungus", "wordID": 613, "conditions": [18, 1200, "a", 18000], "trial": 1, "serialpos": 4, "trial_type": "single-audio", "trial_index": 59, "time_elapsed": 372988, "internal_node_id": "0.0-41.0"}}, {"uniqueid": "MTK0161:39L1G8WVWRY04L5RO4LNCY1M68I31F", "current_trial": 60, "dateTime": 1509387782701, "trialdata": {"rt": -1000, "stimulus": "/static/audio/wordpool/ANTLER.wav", "key_press": -1, "type": "PRES_AUD", "word": "antler", "wordID": 28, "conditions": [18, 1200, "a", 18000], "trial": 1, "serialpos": 5, "trial_type": "single-audio", "trial_index": 60, "time_elapsed": 375148, "internal_node_id": "0.0-42.0"}}, {"uniqueid": "MTK0161:39L1G8WVWRY04L5RO4LNCY1M68I31F", "current_trial": 61, "dateTime": 1509387784779, "trialdata": {"rt": -1000, "stimulus": "/static/audio/wordpool/NEUTRON.wav", "key_press": -1, "type": "PRES_AUD", "word": "neutron", "wordID": 946, "conditions": [18, 1200, "a", 18000], "trial": 1, "serialpos": 6, "trial_type": "single-audio", "trial_index": 61, "time_elapsed": 377227, "internal_node_id": "0.0-43.0"}}, {"uniqueid": "MTK0161:39L1G8WVWRY04L5RO4LNCY1M68I31F", "current_trial": 62, "dateTime": 1509387786931, "trialdata": {"rt": -1000, "stimulus": "/static/audio/wordpool/COUNTY.wav", "key_press": -1, "type": "PRES_AUD", "word": "county", "wordID": 388, "conditions": [18, 1200, "a", 18000], "trial": 1, "serialpos": 7, "trial_type": "single-audio", "trial_index": 62, "time_elapsed": 379379, "internal_node_id": "0.0-44.0"}}, {"uniqueid": "MTK0161:39L1G8WVWRY04L5RO4LNCY1M68I31F", "current_trial": 63, "dateTime": 1509387789011, "trialdata": {"rt": -1000, "stimulus": "/static/audio/wordpool/LACE.wav", "key_press": -1, "type": "PRES_AUD", "word": "lace", "wordID": 791, "conditions": [18, 1200, "a", 18000], "trial": 1, "serialpos": 8, "trial_type": "single-audio", "trial_index": 63, "time_elapsed": 381458, "internal_node_id": "0.0-45.0"}}, {"uniqueid": "MTK0161:39L1G8WVWRY04L5RO4LNCY1M68I31F", "current_trial": 64, "dateTime": 1509387791085, "trialdata": {"rt": -1000, "stimulus": "/static/audio/wordpool/BLENDER.wav", "key_press": -1, "type": "PRES_AUD", "word": "blender", "wordID": 135, "conditions": [18, 1200, "a", 18000], "trial": 1, "serialpos": 9, "trial_type": "single-audio", "trial_index": 64, "time_elapsed": 383533, "internal_node_id": "0.0-46.0"}}, {"uniqueid": "MTK0161:39L1G8WVWRY04L5RO4LNCY1M68I31F", "current_trial": 65, "dateTime": 1509387793436, "trialdata": {"rt": -1000, "stimulus": "/static/audio/wordpool/BURGLAR.wav", "key_press": -1, "type": "PRES_AUD", "word": "burglar", "wordID": 199, "conditions": [18, 1200, "a", 18000], "trial": 1, "serialpos": 10, "trial_type": "single-audio", "trial_index": 65, "time_elapsed": 385884, "internal_node_id": "0.0-47.0"}}, {"uniqueid": "MTK0161:39L1G8WVWRY04L5RO4LNCY1M68I31F", "current_trial": 66, "dateTime": 1509387795602, "trialdata": {"rt": -1000, "stimulus": "/static/audio/wordpool/ROBBER.wav", "key_press": -1, "type": "PRES_AUD", "word": "robber", "wordID": 1196, "conditions": [18, 1200, "a", 18000], "trial": 1, "serialpos": 11, "trial_type": "single-audio", "trial_index": 66, "time_elapsed": 388050, "internal_node_id": "0.0-48.0"}}, {"uniqueid": "MTK0161:39L1G8WVWRY04L5RO4LNCY1M68I31F", "current_trial": 67, "dateTime": 1509387797764, "trialdata": {"rt": -1000, "stimulus": "/static/audio/wordpool/LAGOON.wav", "key_press": -1, "type": "PRES_AUD", "word": "lagoon", "wordID": 794, "conditions": [18, 1200, "a", 18000], "trial": 1, "serialpos": 12, "trial_type": "single-audio", "trial_index": 67, "time_elapsed": 390212, "internal_node_id": "0.0-49.0"}}, {"uniqueid": "MTK0161:39L1G8WVWRY04L5RO4LNCY1M68I31F", "current_trial": 68, "dateTime": 1509387799916, "trialdata": {"rt": -1000, "stimulus": "/static/audio/wordpool/FOREHEAD.wav", "key_press": -1, "type": "PRES_AUD", "word": "forehead", "wordID": 591, "conditions": [18, 1200, "a", 18000], "trial": 1, "serialpos": 13, "trial_type": "single-audio", "trial_index": 68, "time_elapsed": 392360, "internal_node_id": "0.0-50.0"}}, {"uniqueid": "MTK0161:39L1G8WVWRY04L5RO4LNCY1M68I31F", "current_trial": 69, "dateTime": 1509387802028, "trialdata": {"rt": -1000, "stimulus": "/static/audio/wordpool/SUITCASE.wav", "key_press": -1, "type": "PRES_AUD", "word": "suitcase", "wordID": 1402, "conditions": [18, 1200, "a", 18000], "trial": 1, "serialpos": 14, "trial_type": "single-audio", "trial_index": 69, "time_elapsed": 394476, "internal_node_id": "0.0-51.0"}}, {"uniqueid": "MTK0161:39L1G8WVWRY04L5RO4LNCY1M68I31F", "current_trial": 70, "dateTime": 1509387804421, "trialdata": {"rt": -1000, "stimulus": "/static/audio/wordpool/TROUT.wav", "key_press": -1, "type": "PRES_AUD", "word": "trout", "wordID": 1510, "conditions": [18, 1200, "a", 18000], "trial": 1, "serialpos": 15, "trial_type": "single-audio", "trial_index": 70, "time_elapsed": 396869, "internal_node_id": "0.0-52.0"}}, {"uniqueid": "MTK0161:39L1G8WVWRY04L5RO4LNCY1M68I31F", "current_trial": 71, "dateTime": 1509387806750, "trialdata": {"rt": -1000, "stimulus": "/static/audio/wordpool/ROD.wav", "key_press": -1, "type": "PRES_AUD", "word": "rod", "wordID": 1202, "conditions": [18, 1200, "a", 18000], "trial": 1, "serialpos": 16, "trial_type": "single-audio", "trial_index": 71, "time_elapsed": 399198, "internal_node_id": "0.0-53.0"}}, {"uniqueid": "MTK0161:39L1G8WVWRY04L5RO4LNCY1M68I31F", "current_trial": 72, "dateTime": 1509387809119, "trialdata": {"rt": -1000, "stimulus": "/static/audio/wordpool/CAFE.wav", "key_press": -1, "type": "PRES_AUD", "word": "cafe", "wordID": 215, "conditions": [18, 1200, "a", 18000], "trial": 1, "serialpos": 17, "trial_type": "single-audio", "trial_index": 72, "time_elapsed": 401567, "internal_node_id": "0.0-54.0"}}, {"uniqueid": "MTK0161:39L1G8WVWRY04L5RO4LNCY1M68I31F", "current_trial": 73, "dateTime": 1509387810457, "trialdata": {"rt": -1, "stimulus": "", "key_press": -1, "type": "PRE_RECALL_DELAY", "trial_type": "single-stim", "trial_index": 73, "time_elapsed": 402905, "internal_node_id": "0.0-55.0-0.0"}}, {"uniqueid": "MTK0161:39L1G8WVWRY04L5RO4LNCY1M68I31F", "current_trial": 74, "dateTime": 1509387810959, "trialdata": {"rt": -1000, "stimulus": "/static/audio/400Hz.wav", "key_press": -1, "type": "PRE_RECALL_ALERT", "trial_type": "single-audio", "trial_index": 74, "time_elapsed": 403407, "internal_node_id": "0.0-56.0"}}, {"uniqueid": "MTK0161:39L1G8WVWRY04L5RO4LNCY1M68I31F", "current_trial": 75, "dateTime": 1509387870964, "trialdata": {"rt": [1971, 4316, 5603, 8139, 11307, 18355, 23595], "recwords": ["cafe", "trout", "rod", "suitcase", "lakes", "antler", "orchid"], "type": "FREE_RECALL", "conditions": [18, 1200, "a", 18000], "trial": 1, "trial_type": "free-recall", "trial_index": 75, "time_elapsed": 463409, "internal_node_id": "0.0-57.0-0.0"}}, {"uniqueid": "MTK0161:39L1G8WVWRY04L5RO4LNCY1M68I31F", "current_trial": 76, "dateTime": 1509387875420, "trialdata": {"rt": 2454, "key_press": 32, "type": "INSTRUCTIONS", "trial_type": "text", "trial_index": 76, "time_elapsed": 467868, "internal_node_id": "0.0-58.0"}}, {"uniqueid": "MTK0161:39L1G8WVWRY04L5RO4LNCY1M68I31F", "current_trial": 77, "dateTime": 1509387888422, "trialdata": {"rt": [3301, 6053, 10309], "responses": ["15", "20", "18"], "num1": [6, 9, 4, 9], "num2": [6, 9, 9, 5], "num3": [3, 2, 5, 4], "type": "DISTRACTOR", "conditions": [24, 800, "v", 12000], "trial": 2, "trial_type": "math-distractor", "trial_index": 77, "time_elapsed": 480869, "internal_node_id": "0.0-59.0"}}, {"uniqueid": "MTK0161:39L1G8WVWRY04L5RO4LNCY1M68I31F", "current_trial": 78, "dateTime": 1509387891423, "trialdata": {"rt": -1, "stimulus": "<p id=\"stim\">10</p>", "key_press": -1, "trial_type": "single-stim", "trial_index": 78, "time_elapsed": 483871, "internal_node_id": "0.0-60.0-0.0"}}, {"uniqueid": "MTK0161:39L1G8WVWRY04L5RO4LNCY1M68I31F", "current_trial": 79, "dateTime": 1509387892424, "trialdata": {"rt": -1, "stimulus": "<p id=\"stim\">9</p>", "key_press": -1, "trial_type": "single-stim", "trial_index": 79, "time_elapsed": 484872, "internal_node_id": "0.0-60.0-1.0"}}, {"uniqueid": "MTK0161:39L1G8WVWRY04L5RO4LNCY1M68I31F", "current_trial": 80, "dateTime": 1509387893426, "trialdata": {"rt": -1, "stimulus": "<p id=\"stim\">8</p>", "key_press": -1, "trial_type": "single-stim", "trial_index": 80, "time_elapsed": 485874, "internal_node_id": "0.0-60.0-2.0"}}, {"uniqueid": "MTK0161:39L1G8WVWRY04L5RO4LNCY1M68I31F", "current_trial": 81, "dateTime": 1509387894427, "trialdata": {"rt": -1, "stimulus": "<p id=\"stim\">7</p>", "key_press": -1, "trial_type": "single-stim", "trial_index": 81, "time_elapsed": 486875, "internal_node_id": "0.0-60.0-3.0"}}, {"uniqueid": "MTK0161:39L1G8WVWRY04L5RO4LNCY1M68I31F", "current_trial": 82, "dateTime": 1509387895427, "trialdata": {"rt": -1, "stimulus": "<p id=\"stim\">6</p>", "key_press": -1, "trial_type": "single-stim", "trial_index": 82, "time_elapsed": 487875, "internal_node_id": "0.0-60.0-4.0"}}, {"uniqueid": "MTK0161:39L1G8WVWRY04L5RO4LNCY1M68I31F", "current_trial": 83, "dateTime": 1509387896429, "trialdata": {"rt": -1, "stimulus": "<p id=\"stim\">5</p>", "key_press": -1, "trial_type": "single-stim", "trial_index": 83, "time_elapsed": 488877, "internal_node_id": "0.0-60.0-5.0"}}, {"uniqueid": "MTK0161:39L1G8WVWRY04L5RO4LNCY1M68I31F", "current_trial": 84, "dateTime": 1509387897429, "trialdata": {"rt": -1, "stimulus": "<p id=\"stim\">4</p>", "key_press": -1, "trial_type": "single-stim", "trial_index": 84, "time_elapsed": 489877, "internal_node_id": "0.0-60.0-6.0"}}, {"uniqueid": "MTK0161:39L1G8WVWRY04L5RO4LNCY1M68I31F", "current_trial": 85, "dateTime": 1509387898430, "trialdata": {"rt": -1, "stimulus": "<p id=\"stim\">3</p>", "key_press": -1, "trial_type": "single-stim", "trial_index": 85, "time_elapsed": 490878, "internal_node_id": "0.0-60.0-7.0"}}, {"uniqueid": "MTK0161:39L1G8WVWRY04L5RO4LNCY1M68I31F", "current_trial": 86, "dateTime": 1509387899430, "trialdata": {"rt": -1, "stimulus": "<p id=\"stim\">2</p>", "key_press": -1, "trial_type": "single-stim", "trial_index": 86, "time_elapsed": 491878, "internal_node_id": "0.0-60.0-8.0"}}, {"uniqueid": "MTK0161:39L1G8WVWRY04L5RO4LNCY1M68I31F", "current_trial": 87, "dateTime": 1509387900431, "trialdata": {"rt": -1, "stimulus": "<p id=\"stim\">1</p>", "key_press": -1, "trial_type": "single-stim", "trial_index": 87, "time_elapsed": 492878, "internal_node_id": "0.0-60.0-9.0"}}, {"uniqueid": "MTK0161:39L1G8WVWRY04L5RO4LNCY1M68I31F", "current_trial": 88, "dateTime": 1509387901932, "trialdata": {"rt": -1, "stimulus": "<p id=\"stim\">+</p>", "key_press": -1, "type": "FIXATION", "trial_type": "single-stim", "trial_index": 88, "time_elapsed": 494380, "internal_node_id": "0.0-61.0-0.0"}}, {"uniqueid": "MTK0161:39L1G8WVWRY04L5RO4LNCY1M68I31F", "current_trial": 89, "dateTime": 1509387902732, "trialdata": {"rt": -1, "stimulus": "<p id=\"stim\">FLAG</p>", "key_press": -1, "type": "PRES_VIS", "word": "flag", "wordID": 572, "conditions": [24, 800, "v", 12000], "trial": 2, "serialpos": 0, "trial_type": "single-stim", "trial_index": 89, "time_elapsed": 495180, "internal_node_id": "0.0-62.0"}}, {"uniqueid": "MTK0161:39L1G8WVWRY04L5RO4LNCY1M68I31F", "current_trial": 90, "dateTime": 1509387904410, "trialdata": {"rt": -1, "stimulus": "<p id=\"stim\">SHARK</p>", "key_press": -1, "type": "PRES_VIS", "word": "shark", "wordID": 1274, "conditions": [24, 800, "v", 12000], "trial": 2, "serialpos": 1, "trial_type": "single-stim", "trial_index": 90, "time_elapsed": 496858, "internal_node_id": "0.0-63.0"}}, {"uniqueid": "MTK0161:39L1G8WVWRY04L5RO4LNCY1M68I31F", "current_trial": 91, "dateTime": 1509387906015, "trialdata": {"rt": -1, "stimulus": "<p id=\"stim\">MONSTER</p>", "key_press": -1, "type": "PRES_VIS", "word": "monster", "wordID": 911, "conditions": [24, 800, "v", 12000], "trial": 2, "serialpos": 2, "trial_type": "single-stim", "trial_index": 91, "time_elapsed": 498463, "internal_node_id": "0.0-64.0"}}, {"uniqueid": "MTK0161:39L1G8WVWRY04L5RO4LNCY1M68I31F", "current_trial": 92, "dateTime": 1509387907787, "trialdata": {"rt": -1, "stimulus": "<p id=\"stim\">INFANT</p>", "key_press": -1, "type": "PRES_VIS", "word": "infant", "wordID": 736, "conditions": [24, 800, "v", 12000], "trial": 2, "serialpos": 3, "trial_type": "single-stim", "trial_index": 92, "time_elapsed": 500235, "internal_node_id": "0.0-65.0"}}, {"uniqueid": "MTK0161:39L1G8WVWRY04L5RO4LNCY1M68I31F", "current_trial": 93, "dateTime": 1509387909556, "trialdata": {"rt": -1, "stimulus": "<p id=\"stim\">MARROW</p>", "key_press": -1, "type": "PRES_VIS", "word": "marrow", "wordID": 871, "conditions": [24, 800, "v", 12000], "trial": 2, "serialpos": 4, "trial_type": "single-stim", "trial_index": 93, "time_elapsed": 502004, "internal_node_id": "0.0-66.0"}}, {"uniqueid": "MTK0161:39L1G8WVWRY04L5RO4LNCY1M68I31F", "current_trial": 94, "dateTime": 1509387911489, "trialdata": {"rt": -1, "stimulus": "<p id=\"stim\">BEAST</p>", "key_press": -1, "type": "PRES_VIS", "word": "beast", "wordID": 107, "conditions": [24, 800, "v", 12000], "trial": 2, "serialpos": 5, "trial_type": "single-stim", "trial_index": 94, "time_elapsed": 503937, "internal_node_id": "0.0-67.0"}}, {"uniqueid": "MTK0161:39L1G8WVWRY04L5RO4LNCY1M68I31F", "current_trial": 95, "dateTime": 1509387913362, "trialdata": {"rt": -1, "stimulus": "<p id=\"stim\">DOUGHNUT</p>", "key_press": -1, "type": "PRES_VIS", "word": "doughnut", "wordID": 489, "conditions": [24, 800, "v", 12000], "trial": 2, "serialpos": 6, "trial_type": "single-stim", "trial_index": 95, "time_elapsed": 505810, "internal_node_id": "0.0-68.0"}}, {"uniqueid": "MTK0161:39L1G8WVWRY04L5RO4LNCY1M68I31F", "current_trial": 96, "dateTime": 1509387915326, "trialdata": {"rt": -1, "stimulus": "<p id=\"stim\">MUFFIN</p>", "key_press": -1, "type": "PRES_VIS", "word": "muffin", "wordID": 928, "conditions": [24, 800, "v", 12000], "trial": 2, "serialpos": 7, "trial_type": "single-stim", "trial_index": 96, "time_elapsed": 507774, "internal_node_id": "0.0-69.0"}}, {"uniqueid": "MTK0161:39L1G8WVWRY04L5RO4LNCY1M68I31F", "current_trial": 97, "dateTime": 1509387917024, "trialdata": {"rt": -1, "stimulus": "<p id=\"stim\">PREACHER</p>", "key_press": -1, "type": "PRES_VIS", "word": "preacher", "wordID": 1118, "conditions": [24, 800, "v", 12000], "trial": 2, "serialpos": 8, "trial_type": "single-stim", "trial_index": 97, "time_elapsed": 509472, "internal_node_id": "0.0-70.0"}}, {"uniqueid": "MTK0161:39L1G8WVWRY04L5RO4LNCY1M68I31F", "current_trial": 98, "dateTime": 1509387918982, "trialdata": {"rt": -1, "stimulus": "<p id=\"stim\">TOASTER</p>", "key_press": -1, "type": "PRES_VIS", "word": "toaster", "wordID": 1471, "conditions": [24, 800, "v", 12000], "trial": 2, "serialpos": 9, "trial_type": "single-stim", "trial_index": 98, "time_elapsed": 511430, "internal_node_id": "0.0-71.0"}}, {"uniqueid": "MTK0161:39L1G8WVWRY04L5RO4LNCY1M68I31F", "current_trial": 99, "dateTime": 1509387920899, "trialdata": {"rt": -1, "stimulus": "<p id=\"stim\">SNACK</p>", "key_press": -1, "type": "PRES_VIS", "word": "snack", "wordID": 1330, "conditions": [24, 800, "v", 12000], "trial": 2, "serialpos": 10, "trial_type": "single-stim", "trial_index": 99, "time_elapsed": 513347, "internal_node_id": "0.0-72.0"}}, {"uniqueid": "MTK0161:39L1G8WVWRY04L5RO4LNCY1M68I31F", "current_trial": 100, "dateTime": 1509387922828, "trialdata": {"rt": -1, "stimulus": "<p id=\"stim\">ONION</p>", "key_press": -1, "type": "PRES_VIS", "word": "onion", "wordID": 976, "conditions": [24, 800, "v", 12000], "trial": 2, "serialpos": 11, "trial_type": "single-stim", "trial_index": 100, "time_elapsed": 515276, "internal_node_id": "0.0-73.0"}}, {"uniqueid": "MTK0161:39L1G8WVWRY04L5RO4LNCY1M68I31F", "current_trial": 101, "dateTime": 1509387924545, "trialdata": {"rt": -1, "stimulus": "<p id=\"stim\">SHOULDER</p>", "key_press": -1, "type": "PRES_VIS", "word": "shoulder", "wordID": 1293, "conditions": [24, 800, "v", 12000], "trial": 2, "serialpos": 12, "trial_type": "single-stim", "trial_index": 101, "time_elapsed": 516993, "internal_node_id": "0.0-74.0"}}, {"uniqueid": "MTK0161:39L1G8WVWRY04L5RO4LNCY1M68I31F", "current_trial": 102, "dateTime": 1509387926423, "trialdata": {"rt": -1, "stimulus": "<p id=\"stim\">CARROT</p>", "key_press": -1, "type": "PRES_VIS", "word": "carrot", "wordID": 248, "conditions": [24, 800, "v", 12000], "trial": 2, "serialpos": 13, "trial_type": "single-stim", "trial_index": 102, "time_elapsed": 518871, "internal_node_id": "0.0-75.0"}}, {"uniqueid": "MTK0161:39L1G8WVWRY04L5RO4LNCY1M68I31F", "current_trial": 103, "dateTime": 1509387928240, "trialdata": {"rt": -1, "stimulus": "<p id=\"stim\">SKILLET</p>", "key_press": -1, "type": "PRES_VIS", "word": "skillet", "wordID": 1316, "conditions": [24, 800, "v", 12000], "trial": 2, "serialpos": 14, "trial_type": "single-stim", "trial_index": 103, "time_elapsed": 520688, "internal_node_id": "0.0-76.0"}}, {"uniqueid": "MTK0161:39L1G8WVWRY04L5RO4LNCY1M68I31F", "current_trial": 104, "dateTime": 1509387929929, "trialdata": {"rt": -1, "stimulus": "<p id=\"stim\">CABBAGE</p>", "key_press": -1, "type": "PRES_VIS", "word": "cabbage", "wordID": 209, "conditions": [24, 800, "v", 12000], "trial": 2, "serialpos": 15, "trial_type": "single-stim", "trial_index": 104, "time_elapsed": 522377, "internal_node_id": "0.0-77.0"}}, {"uniqueid": "MTK0161:39L1G8WVWRY04L5RO4LNCY1M68I31F", "current_trial": 105, "dateTime": 1509387931624, "trialdata": {"rt": -1, "stimulus": "<p id=\"stim\">KIDNEY</p>", "key_press": -1, "type": "PRES_VIS", "word": "kidney", "wordID": 775, "conditions": [24, 800, "v", 12000], "trial": 2, "serialpos": 16, "trial_type": "single-stim", "trial_index": 105, "time_elapsed": 524072, "internal_node_id": "0.0-78.0"}}, {"uniqueid": "MTK0161:39L1G8WVWRY04L5RO4LNCY1M68I31F", "current_trial": 106, "dateTime": 1509387933295, "trialdata": {"rt": -1, "stimulus": "<p id=\"stim\">CHAPEL</p>", "key_press": -1, "type": "PRES_VIS", "word": "chapel", "wordID": 279, "conditions": [24, 800, "v", 12000], "trial": 2, "serialpos": 17, "trial_type": "single-stim", "trial_index": 106, "time_elapsed": 525743, "internal_node_id": "0.0-79.0"}}, {"uniqueid": "MTK0161:39L1G8WVWRY04L5RO4LNCY1M68I31F", "current_trial": 107, "dateTime": 1509387935108, "trialdata": {"rt": -1, "stimulus": "<p id=\"stim\">PEPPER</p>", "key_press": -1, "type": "PRES_VIS", "word": "pepper", "wordID": 1046, "conditions": [24, 800, "v", 12000], "trial": 2, "serialpos": 18, "trial_type": "single-stim", "trial_index": 107, "time_elapsed": 527556, "internal_node_id": "0.0-80.0"}}, {"uniqueid": "MTK0161:39L1G8WVWRY04L5RO4LNCY1M68I31F", "current_trial": 108, "dateTime": 1509387936709, "trialdata": {"rt": -1, "stimulus": "<p id=\"stim\">COUSIN</p>", "key_press": -1, "type": "PRES_VIS", "word": "cousin", "wordID": 391, "conditions": [24, 800, "v", 12000], "trial": 2, "serialpos": 19, "trial_type": "single-stim", "trial_index": 108, "time_elapsed": 529157, "internal_node_id": "0.0-81.0"}}, {"uniqueid": "MTK0161:39L1G8WVWRY04L5RO4LNCY1M68I31F", "current_trial": 109, "dateTime": 1509387938520, "trialdata": {"rt": -1, "stimulus": "<p id=\"stim\">CHURCH</p>", "key_press": -1, "type": "PRES_VIS", "word": "church", "wordID": 306, "conditions": [24, 800, "v", 12000], "trial": 2, "serialpos": 20, "trial_type": "single-stim", "trial_index": 109, "time_elapsed": 530968, "internal_node_id": "0.0-82.0"}}, {"uniqueid": "MTK0161:39L1G8WVWRY04L5RO4LNCY1M68I31F", "current_trial": 110, "dateTime": 1509387940128, "trialdata": {"rt": -1, "stimulus": "<p id=\"stim\">CLIMBER</p>", "key_press": -1, "type": "PRES_VIS", "word": "climber", "wordID": 322, "conditions": [24, 800, "v", 12000], "trial": 2, "serialpos": 21, "trial_type": "single-stim", "trial_index": 110, "time_elapsed": 532576, "internal_node_id": "0.0-83.0"}}, {"uniqueid": "MTK0161:39L1G8WVWRY04L5RO4LNCY1M68I31F", "current_trial": 111, "dateTime": 1509387941882, "trialdata": {"rt": -1, "stimulus": "<p id=\"stim\">HIKER</p>", "key_press": -1, "type": "PRES_VIS", "word": "hiker", "wordID": 707, "conditions": [24, 800, "v", 12000], "trial": 2, "serialpos": 22, "trial_type": "single-stim", "trial_index": 111, "time_elapsed": 534330, "internal_node_id": "0.0-84.0"}}, {"uniqueid": "MTK0161:39L1G8WVWRY04L5RO4LNCY1M68I31F", "current_trial": 112, "dateTime": 1509387943648, "trialdata": {"rt": -1, "stimulus": "<p id=\"stim\">BELLY</p>", "key_press": -1, "type": "PRES_VIS", "word": "belly", "wordID": 118, "conditions": [24, 800, "v", 12000], "trial": 2, "serialpos": 23, "trial_type": "single-stim", "trial_index": 112, "time_elapsed": 536096, "internal_node_id": "0.0-85.0"}}, {"uniqueid": "MTK0161:39L1G8WVWRY04L5RO4LNCY1M68I31F", "current_trial": 113, "dateTime": 1509387945976, "trialdata": {"rt": -1, "stimulus": "", "key_press": -1, "type": "PRE_RECALL_DELAY", "trial_type": "single-stim", "trial_index": 113, "time_elapsed": 538424, "internal_node_id": "0.0-86.0-0.0"}}, {"uniqueid": "MTK0161:39L1G8WVWRY04L5RO4LNCY1M68I31F", "current_trial": 114, "dateTime": 1509387946477, "trialdata": {"rt": -1000, "stimulus": "/static/audio/400Hz.wav", "key_press": -1, "type": "PRE_RECALL_ALERT", "trial_type": "single-audio", "trial_index": 114, "time_elapsed": 538925, "internal_node_id": "0.0-87.0"}}, {"uniqueid": "MTK0161:39L1G8WVWRY04L5RO4LNCY1M68I31F", "current_trial": 115, "dateTime": 1509388006487, "trialdata": {"rt": [2955, 9995, 15203, 20322, 23474, 26186, 29850, 32921, 35266, 38810, 41537, 51649], "recwords": ["belly", "hiker", "monster", "priest", "church", "shoulder", "baby", "onion", "snack", "toaster", "muffin", "doughnut"], "type": "FREE_RECALL", "conditions": [24, 800, "v", 12000], "trial": 2, "trial_type": "free-recall", "trial_index": 115, "time_elapsed": 598929, "internal_node_id": "0.0-88.0-0.0"}}, {"uniqueid": "MTK0161:39L1G8WVWRY04L5RO4LNCY1M68I31F", "current_trial": 116, "dateTime": 1509388010346, "trialdata": {"rt": 1858, "key_press": 32, "type": "INSTRUCTIONS", "trial_type": "text", "trial_index": 116, "time_elapsed": 602794, "internal_node_id": "0.0-89.0"}}, {"uniqueid": "MTK0161:39L1G8WVWRY04L5RO4LNCY1M68I31F", "current_trial": 117, "dateTime": 1509388024350, "trialdata": {"rt": [3067, 8515], "responses": ["18", "21"], "num1": [9, 5, 7], "num2": [4, 7, 2], "num3": [5, 9, 5], "type": "DISTRACTOR", "conditions": [24, 1600, "a", 12000], "trial": 3, "trial_type": "math-distractor", "trial_index": 117, "time_elapsed": 616798, "internal_node_id": "0.0-90.0"}}, {"uniqueid": "MTK0161:39L1G8WVWRY04L5RO4LNCY1M68I31F", "current_trial": 118, "dateTime": 1509388027350, "trialdata": {"rt": -1, "stimulus": "<p id=\"stim\">10</p>", "key_press": -1, "trial_type": "single-stim", "trial_index": 118, "time_elapsed": 619798, "internal_node_id": "0.0-91.0-0.0"}}, {"uniqueid": "MTK0161:39L1G8WVWRY04L5RO4LNCY1M68I31F", "current_trial": 119, "dateTime": 1509388028350, "trialdata": {"rt": -1, "stimulus": "<p id=\"stim\">9</p>", "key_press": -1, "trial_type": "single-stim", "trial_index": 119, "time_elapsed": 620798, "internal_node_id": "0.0-91.0-1.0"}}, {"uniqueid": "MTK0161:39L1G8WVWRY04L5RO4LNCY1M68I31F", "current_trial": 120, "dateTime": 1509388029351, "trialdata": {"rt": -1, "stimulus": "<p id=\"stim\">8</p>", "key_press": -1, "trial_type": "single-stim", "trial_index": 120, "time_elapsed": 621799, "internal_node_id": "0.0-91.0-2.0"}}, {"uniqueid": "MTK0161:39L1G8WVWRY04L5RO4LNCY1M68I31F", "current_trial": 121, "dateTime": 1509388030353, "trialdata": {"rt": -1, "stimulus": "<p id=\"stim\">7</p>", "key_press": -1, "trial_type": "single-stim", "trial_index": 121, "time_elapsed": 622801, "internal_node_id": "0.0-91.0-3.0"}}, {"uniqueid": "MTK0161:39L1G8WVWRY04L5RO4LNCY1M68I31F", "current_trial": 122, "dateTime": 1509388031354, "trialdata": {"rt": -1, "stimulus": "<p id=\"stim\">6</p>", "key_press": -1, "trial_type": "single-stim", "trial_index": 122, "time_elapsed": 623802, "internal_node_id": "0.0-91.0-4.0"}}, {"uniqueid": "MTK0161:39L1G8WVWRY04L5RO4LNCY1M68I31F", "current_trial": 123, "dateTime": 1509388032355, "trialdata": {"rt": -1, "stimulus": "<p id=\"stim\">5</p>", "key_press": -1, "trial_type": "single-stim", "trial_index": 123, "time_elapsed": 624803, "internal_node_id": "0.0-91.0-5.0"}}, {"uniqueid": "MTK0161:39L1G8WVWRY04L5RO4LNCY1M68I31F", "current_trial": 124, "dateTime": 1509388033357, "trialdata": {"rt": -1, "stimulus": "<p id=\"stim\">4</p>", "key_press": -1, "trial_type": "single-stim", "trial_index": 124, "time_elapsed": 625805, "internal_node_id": "0.0-91.0-6.0"}}, {"uniqueid": "MTK0161:39L1G8WVWRY04L5RO4LNCY1M68I31F", "current_trial": 125, "dateTime": 1509388034358, "trialdata": {"rt": -1, "stimulus": "<p id=\"stim\">3</p>", "key_press": -1, "trial_type": "single-stim", "trial_index": 125, "time_elapsed": 626806, "internal_node_id": "0.0-91.0-7.0"}}, {"uniqueid": "MTK0161:39L1G8WVWRY04L5RO4LNCY1M68I31F", "current_trial": 126, "dateTime": 1509388035359, "trialdata": {"rt": -1, "stimulus": "<p id=\"stim\">2</p>", "key_press": -1, "trial_type": "single-stim", "trial_index": 126, "time_elapsed": 627807, "internal_node_id": "0.0-91.0-8.0"}}, {"uniqueid": "MTK0161:39L1G8WVWRY04L5RO4LNCY1M68I31F", "current_trial": 127, "dateTime": 1509388036359, "trialdata": {"rt": -1, "stimulus": "<p id=\"stim\">1</p>", "key_press": -1, "trial_type": "single-stim", "trial_index": 127, "time_elapsed": 628807, "internal_node_id": "0.0-91.0-9.0"}}, {"uniqueid": "MTK0161:39L1G8WVWRY04L5RO4LNCY1M68I31F", "current_trial": 128, "dateTime": 1509388037860, "trialdata": {"rt": -1, "stimulus": "<p id=\"stim\">+</p>", "key_press": -1, "type": "FIXATION", "trial_type": "single-stim", "trial_index": 128, "time_elapsed": 630308, "internal_node_id": "0.0-92.0-0.0"}}, {"uniqueid": "MTK0161:39L1G8WVWRY04L5RO4LNCY1M68I31F", "current_trial": 129, "dateTime": 1509388040633, "trialdata": {"rt": -1000, "stimulus": "/static/audio/wordpool/FOX.wav", "key_press": -1, "type": "PRES_AUD", "word": "fox", "wordID": 597, "conditions": [24, 1600, "a", 12000], "trial": 3, "serialpos": 0, "trial_type": "single-audio", "trial_index": 129, "time_elapsed": 633081, "internal_node_id": "0.0-93.0"}}, {"uniqueid": "MTK0161:39L1G8WVWRY04L5RO4LNCY1M68I31F", "current_trial": 130, "dateTime": 1509388043198, "trialdata": {"rt": -1000, "stimulus": "/static/audio/wordpool/FARMER.wav", "key_press": -1, "type": "PRES_AUD", "word": "farmer", "wordID": 552, "conditions": [24, 1600, "a", 12000], "trial": 3, "serialpos": 1, "trial_type": "single-audio", "trial_index": 130, "time_elapsed": 635646, "internal_node_id": "0.0-94.0"}}, {"uniqueid": "MTK0161:39L1G8WVWRY04L5RO4LNCY1M68I31F", "current_trial": 131, "dateTime": 1509388045805, "trialdata": {"rt": -1000, "stimulus": "/static/audio/wordpool/LASER.wav", "key_press": -1, "type": "PRES_AUD", "word": "laser", "wordID": 800, "conditions": [24, 1600, "a", 12000], "trial": 3, "serialpos": 2, "trial_type": "single-audio", "trial_index": 131, "time_elapsed": 638253, "internal_node_id": "0.0-95.0"}}, {"uniqueid": "MTK0161:39L1G8WVWRY04L5RO4LNCY1M68I31F", "current_trial": 132, "dateTime": 1509388048508, "trialdata": {"rt": -1000, "stimulus": "/static/audio/wordpool/COFFEE.wav", "key_press": -1, "type": "PRES_AUD", "word": "coffee", "wordID": 340, "conditions": [24, 1600, "a", 12000], "trial": 3, "serialpos": 3, "trial_type": "single-audio", "trial_index": 132, "time_elapsed": 640955, "internal_node_id": "0.0-96.0"}}, {"uniqueid": "MTK0161:39L1G8WVWRY04L5RO4LNCY1M68I31F", "current_trial": 133, "dateTime": 1509388051280, "trialdata": {"rt": -1000, "stimulus": "/static/audio/wordpool/VIRUS.wav", "key_press": -1, "type": "PRES_AUD", "word": "virus", "wordID": 1571, "conditions": [24, 1600, "a", 12000], "trial": 3, "serialpos": 4, "trial_type": "single-audio", "trial_index": 133, "time_elapsed": 643727, "internal_node_id": "0.0-97.0"}}, {"uniqueid": "MTK0161:39L1G8WVWRY04L5RO4LNCY1M68I31F", "current_trial": 134, "dateTime": 1509388053930, "trialdata": {"rt": -1000, "stimulus": "/static/audio/wordpool/FRIEND.wav", "key_press": -1, "type": "PRES_AUD", "word": "friend", "wordID": 605, "conditions": [24, 1600, "a", 12000], "trial": 3, "serialpos": 5, "trial_type": "single-audio", "trial_index": 134, "time_elapsed": 646377, "internal_node_id": "0.0-98.0"}}, {"uniqueid": "MTK0161:39L1G8WVWRY04L5RO4LNCY1M68I31F", "current_trial": 135, "dateTime": 1509388056596, "trialdata": {"rt": -1000, "stimulus": "/static/audio/wordpool/HUSBAND.wav", "key_press": -1, "type": "PRES_AUD", "word": "husband", "wordID": 727, "conditions": [24, 1600, "a", 12000], "trial": 3, "serialpos": 6, "trial_type": "single-audio", "trial_index": 135, "time_elapsed": 649044, "internal_node_id": "0.0-99.0"}}, {"uniqueid": "MTK0161:39L1G8WVWRY04L5RO4LNCY1M68I31F", "current_trial": 136, "dateTime": 1509388059110, "trialdata": {"rt": -1000, "stimulus": "/static/audio/wordpool/MACHINE.wav", "key_press": -1, "type": "PRES_AUD", "word": "machine", "wordID": 851, "conditions": [24, 1600, "a", 12000], "trial": 3, "serialpos": 7, "trial_type": "single-audio", "trial_index": 136, "time_elapsed": 651557, "internal_node_id": "0.0-100.0"}}, {"uniqueid": "MTK0161:39L1G8WVWRY04L5RO4LNCY1M68I31F", "current_trial": 137, "dateTime": 1509388061880, "trialdata": {"rt": -1000, "stimulus": "/static/audio/wordpool/LAMP.wav", "key_press": -1, "type": "PRES_AUD", "word": "lamp", "wordID": 797, "conditions": [24, 1600, "a", 12000], "trial": 3, "serialpos": 8, "trial_type": "single-audio", "trial_index": 137, "time_elapsed": 654328, "internal_node_id": "0.0-101.0"}}, {"uniqueid": "MTK0161:39L1G8WVWRY04L5RO4LNCY1M68I31F", "current_trial": 138, "dateTime": 1509388064309, "trialdata": {"rt": -1000, "stimulus": "/static/audio/wordpool/PASTRY.wav", "key_press": -1, "type": "PRES_AUD", "word": "pastry", "wordID": 1021, "conditions": [24, 1600, "a", 12000], "trial": 3, "serialpos": 9, "trial_type": "single-audio", "trial_index": 138, "time_elapsed": 656757, "internal_node_id": "0.0-102.0"}}, {"uniqueid": "MTK0161:39L1G8WVWRY04L5RO4LNCY1M68I31F", "current_trial": 139, "dateTime": 1509388067020, "trialdata": {"rt": -1000, "stimulus": "/static/audio/wordpool/FIREPLACE.wav", "key_press": -1, "type": "PRES_AUD", "word": "fireplace", "wordID": 569, "conditions": [24, 1600, "a", 12000], "trial": 3, "serialpos": 10, "trial_type": "single-audio", "trial_index": 139, "time_elapsed": 659468, "internal_node_id": "0.0-103.0"}}, {"uniqueid": "MTK0161:39L1G8WVWRY04L5RO4LNCY1M68I31F", "current_trial": 140, "dateTime": 1509388069600, "trialdata": {"rt": -1000, "stimulus": "/static/audio/wordpool/POSSUM.wav", "key_press": -1, "type": "PRES_AUD", "word": "possum", "wordID": 1111, "conditions": [24, 1600, "a", 12000], "trial": 3, "serialpos": 11, "trial_type": "single-audio", "trial_index": 140, "time_elapsed": 662048, "internal_node_id": "0.0-104.0"}}, {"uniqueid": "MTK0161:39L1G8WVWRY04L5RO4LNCY1M68I31F", "current_trial": 141, "dateTime": 1509388072065, "trialdata": {"rt": -1000, "stimulus": "/static/audio/wordpool/CHAUFFEUR.wav", "key_press": -1, "type": "PRES_AUD", "word": "chauffeur", "wordID": 282, "conditions": [24, 1600, "a", 12000], "trial": 3, "serialpos": 12, "trial_type": "single-audio", "trial_index": 141, "time_elapsed": 664513, "internal_node_id": "0.0-105.0"}}, {"uniqueid": "MTK0161:39L1G8WVWRY04L5RO4LNCY1M68I31F", "current_trial": 142, "dateTime": 1509388074593, "trialdata": {"rt": -1000, "stimulus": "/static/audio/wordpool/GUITAR.wav", "key_press": -1, "type": "PRES_AUD", "word": "guitar", "wordID": 669, "conditions": [24, 1600, "a", 12000], "trial": 3, "serialpos": 13, "trial_type": "single-audio", "trial_index": 142, "time_elapsed": 667041, "internal_node_id": "0.0-106.0"}}, {"uniqueid": "MTK0161:39L1G8WVWRY04L5RO4LNCY1M68I31F", "current_trial": 143, "dateTime": 1509388077183, "trialdata": {"rt": -1000, "stimulus": "/static/audio/wordpool/BLADE.wav", "key_press": -1, "type": "PRES_AUD", "word": "blade", "wordID": 133, "conditions": [24, 1600, "a", 12000], "trial": 3, "serialpos": 14, "trial_type": "single-audio", "trial_index": 143, "time_elapsed": 669631, "internal_node_id": "0.0-107.0"}}, {"uniqueid": "MTK0161:39L1G8WVWRY04L5RO4LNCY1M68I31F", "current_trial": 144, "dateTime": 1509388079720, "trialdata": {"rt": -1000, "stimulus": "/static/audio/wordpool/RAZOR.wav", "key_press": -1, "type": "PRES_AUD", "word": "razor", "wordID": 1170, "conditions": [24, 1600, "a", 12000], "trial": 3, "serialpos": 15, "trial_type": "single-audio", "trial_index": 144, "time_elapsed": 672167, "internal_node_id": "0.0-108.0"}}, {"uniqueid": "MTK0161:39L1G8WVWRY04L5RO4LNCY1M68I31F", "current_trial": 145, "dateTime": 1509388082125, "trialdata": {"rt": -1000, "stimulus": "/static/audio/wordpool/SCARECROW.wav", "key_press": -1, "type": "PRES_AUD", "word": "scarecrow", "wordID": 1244, "conditions": [24, 1600, "a", 12000], "trial": 3, "serialpos": 16, "trial_type": "single-audio", "trial_index": 145, "time_elapsed": 674573, "internal_node_id": "0.0-109.0"}}, {"uniqueid": "MTK0161:39L1G8WVWRY04L5RO4LNCY1M68I31F", "current_trial": 146, "dateTime": 1509388084621, "trialdata": {"rt": -1000, "stimulus": "/static/audio/wordpool/COBRA.wav", "key_press": -1, "type": "PRES_AUD", "word": "cobra", "wordID": 335, "conditions": [24, 1600, "a", 12000], "trial": 3, "serialpos": 17, "trial_type": "single-audio", "trial_index": 146, "time_elapsed": 677068, "internal_node_id": "0.0-110.0"}}, {"uniqueid": "MTK0161:39L1G8WVWRY04L5RO4LNCY1M68I31F", "current_trial": 147, "dateTime": 1509388087283, "trialdata": {"rt": -1000, "stimulus": "/static/audio/wordpool/FOOT.wav", "key_press": -1, "type": "PRES_AUD", "word": "foot", "wordID": 589, "conditions": [24, 1600, "a", 12000], "trial": 3, "serialpos": 18, "trial_type": "single-audio", "trial_index": 147, "time_elapsed": 679731, "internal_node_id": "0.0-111.0"}}, {"uniqueid": "MTK0161:39L1G8WVWRY04L5RO4LNCY1M68I31F", "current_trial": 148, "dateTime": 1509388089973, "trialdata": {"rt": -1000, "stimulus": "/static/audio/wordpool/BANJO.wav", "key_press": -1, "type": "PRES_AUD", "word": "banjo", "wordID": 81, "conditions": [24, 1600, "a", 12000], "trial": 3, "serialpos": 19, "trial_type": "single-audio", "trial_index": 148, "time_elapsed": 682421, "internal_node_id": "0.0-112.0"}}, {"uniqueid": "MTK0161:39L1G8WVWRY04L5RO4LNCY1M68I31F", "current_trial": 149, "dateTime": 1509388092388, "trialdata": {"rt": -1000, "stimulus": "/static/audio/wordpool/BANQUET.wav", "key_press": -1, "type": "PRES_AUD", "word": "banquet", "wordID": 85, "conditions": [24, 1600, "a", 12000], "trial": 3, "serialpos": 20, "trial_type": "single-audio", "trial_index": 149, "time_elapsed": 684836, "internal_node_id": "0.0-113.0"}}, {"uniqueid": "MTK0161:39L1G8WVWRY04L5RO4LNCY1M68I31F", "current_trial": 150, "dateTime": 1509388095182, "trialdata": {"rt": -1000, "stimulus": "/static/audio/wordpool/NOVEL.wav", "key_press": -1, "type": "PRES_AUD", "word": "novel", "wordID": 959, "conditions": [24, 1600, "a", 12000], "trial": 3, "serialpos": 21, "trial_type": "single-audio", "trial_index": 150, "time_elapsed": 687630, "internal_node_id": "0.0-114.0"}}, {"uniqueid": "MTK0161:39L1G8WVWRY04L5RO4LNCY1M68I31F", "current_trial": 151, "dateTime": 1509388097739, "trialdata": {"rt": -1000, "stimulus": "/static/audio/wordpool/TUTU.wav", "key_press": -1, "type": "PRES_AUD", "word": "tutu", "wordID": 1523, "conditions": [24, 1600, "a", 12000], "trial": 3, "serialpos": 22, "trial_type": "single-audio", "trial_index": 151, "time_elapsed": 690187, "internal_node_id": "0.0-115.0"}}, {"uniqueid": "MTK0161:39L1G8WVWRY04L5RO4LNCY1M68I31F", "current_trial": 152, "dateTime": 1509388100431, "trialdata": {"rt": -1000, "stimulus": "/static/audio/wordpool/SUSPECT.wav", "key_press": -1, "type": "PRES_AUD", "word": "suspect", "wordID": 1414, "conditions": [24, 1600, "a", 12000], "trial": 3, "serialpos": 23, "trial_type": "single-audio", "trial_index": 152, "time_elapsed": 692879, "internal_node_id": "0.0-116.0"}}, {"uniqueid": "MTK0161:39L1G8WVWRY04L5RO4LNCY1M68I31F", "current_trial": 153, "dateTime": 1509388101712, "trialdata": {"rt": -1, "stimulus": "", "key_press": -1, "type": "PRE_RECALL_DELAY", "trial_type": "single-stim", "trial_index": 153, "time_elapsed": 694160, "internal_node_id": "0.0-117.0-0.0"}}, {"uniqueid": "MTK0161:39L1G8WVWRY04L5RO4LNCY1M68I31F", "current_trial": 154, "dateTime": 1509388102212, "trialdata": {"rt": -1000, "stimulus": "/static/audio/400Hz.wav", "key_press": -1, "type": "PRE_RECALL_ALERT", "trial_type": "single-audio", "trial_index": 154, "time_elapsed": 694660, "internal_node_id": "0.0-118.0"}}, {"uniqueid": "MTK0161:39L1G8WVWRY04L5RO4LNCY1M68I31F", "current_trial": 155, "dateTime": 1509388162219, "trialdata": {"rt": [4497, 6609, 8793, 13202, 15241, 18033, 21689, 23834, 29417, 32233, 36105, 39481, 46520, 50384, 55544], "recwords": ["coffee", "guitar", "banjo", "lamp", "box", "farmer", "suspect", "tutu", "scarecrow", "foot", "husband", "friend", "razor", "blade", "virus"], "type": "FREE_RECALL", "conditions": [24, 1600, "a", 12000], "trial": 3, "trial_type": "free-recall", "trial_index": 155, "time_elapsed": 754663, "internal_node_id": "0.0-119.0-0.0"}}, {"uniqueid": "MTK0161:39L1G8WVWRY04L5RO4LNCY1M68I31F", "current_trial": 156, "dateTime": 1509388165405, "trialdata": {"rt": 1185, "key_press": 32, "type": "INSTRUCTIONS", "trial_type": "text", "trial_index": 156, "time_elapsed": 757853, "internal_node_id": "0.0-120.0"}}, {"uniqueid": "MTK0161:39L1G8WVWRY04L5RO4LNCY1M68I31F", "current_trial": 157, "dateTime": 1509388179408, "trialdata": {"rt": [3062, 6229, 9534], "responses": ["9", "12", "20"], "num1": [1, 3, 8, 6], "num2": [6, 3, 8, 4], "num3": [2, 6, 4, 6], "type": "DISTRACTOR", "conditions": [12, 800, "v", 12000], "trial": 4, "trial_type": "math-distractor", "trial_index": 157, "time_elapsed": 771855, "internal_node_id": "0.0-121.0"}}, {"uniqueid": "MTK0161:39L1G8WVWRY04L5RO4LNCY1M68I31F", "current_trial": 158, "dateTime": 1509388182410, "trialdata": {"rt": -1, "stimulus": "<p id=\"stim\">10</p>", "key_press": -1, "trial_type": "single-stim", "trial_index": 158, "time_elapsed": 774858, "internal_node_id": "0.0-122.0-0.0"}}, {"uniqueid": "MTK0161:39L1G8WVWRY04L5RO4LNCY1M68I31F", "current_trial": 159, "dateTime": 1509388183412, "trialdata": {"rt": -1, "stimulus": "<p id=\"stim\">9</p>", "key_press": -1, "trial_type": "single-stim", "trial_index": 159, "time_elapsed": 775860, "internal_node_id": "0.0-122.0-1.0"}}, {"uniqueid": "MTK0161:39L1G8WVWRY04L5RO4LNCY1M68I31F", "current_trial": 160, "dateTime": 1509388184413, "trialdata": {"rt": -1, "stimulus": "<p id=\"stim\">8</p>", "key_press": -1, "trial_type": "single-stim", "trial_index": 160, "time_elapsed": 776861, "internal_node_id": "0.0-122.0-2.0"}}, {"uniqueid": "MTK0161:39L1G8WVWRY04L5RO4LNCY1M68I31F", "current_trial": 161, "dateTime": 1509388185414, "trialdata": {"rt": -1, "stimulus": "<p id=\"stim\">7</p>", "key_press": -1, "trial_type": "single-stim", "trial_index": 161, "time_elapsed": 777862, "internal_node_id": "0.0-122.0-3.0"}}, {"uniqueid": "MTK0161:39L1G8WVWRY04L5RO4LNCY1M68I31F", "current_trial": 162, "dateTime": 1509388186416, "trialdata": {"rt": -1, "stimulus": "<p id=\"stim\">6</p>", "key_press": -1, "trial_type": "single-stim", "trial_index": 162, "time_elapsed": 778864, "internal_node_id": "0.0-122.0-4.0"}}, {"uniqueid": "MTK0161:39L1G8WVWRY04L5RO4LNCY1M68I31F", "current_trial": 163, "dateTime": 1509388187416, "trialdata": {"rt": -1, "stimulus": "<p id=\"stim\">5</p>", "key_press": -1, "trial_type": "single-stim", "trial_index": 163, "time_elapsed": 779864, "internal_node_id": "0.0-122.0-5.0"}}, {"uniqueid": "MTK0161:39L1G8WVWRY04L5RO4LNCY1M68I31F", "current_trial": 164, "dateTime": 1509388188416, "trialdata": {"rt": -1, "stimulus": "<p id=\"stim\">4</p>", "key_press": -1, "trial_type": "single-stim", "trial_index": 164, "time_elapsed": 780864, "internal_node_id": "0.0-122.0-6.0"}}, {"uniqueid": "MTK0161:39L1G8WVWRY04L5RO4LNCY1M68I31F", "current_trial": 165, "dateTime": 1509388189417, "trialdata": {"rt": -1, "stimulus": "<p id=\"stim\">3</p>", "key_press": -1, "trial_type": "single-stim", "trial_index": 165, "time_elapsed": 781865, "internal_node_id": "0.0-122.0-7.0"}}, {"uniqueid": "MTK0161:39L1G8WVWRY04L5RO4LNCY1M68I31F", "current_trial": 166, "dateTime": 1509388190417, "trialdata": {"rt": -1, "stimulus": "<p id=\"stim\">2</p>", "key_press": -1, "trial_type": "single-stim", "trial_index": 166, "time_elapsed": 782865, "internal_node_id": "0.0-122.0-8.0"}}, {"uniqueid": "MTK0161:39L1G8WVWRY04L5RO4LNCY1M68I31F", "current_trial": 167, "dateTime": 1509388191418, "trialdata": {"rt": -1, "stimulus": "<p id=\"stim\">1</p>", "key_press": -1, "trial_type": "single-stim", "trial_index": 167, "time_elapsed": 783866, "internal_node_id": "0.0-122.0-9.0"}}, {"uniqueid": "MTK0161:39L1G8WVWRY04L5RO4LNCY1M68I31F", "current_trial": 168, "dateTime": 1509388192919, "trialdata": {"rt": -1, "stimulus": "<p id=\"stim\">+</p>", "key_press": -1, "type": "FIXATION", "trial_type": "single-stim", "trial_index": 168, "time_elapsed": 785367, "internal_node_id": "0.0-123.0-0.0"}}, {"uniqueid": "MTK0161:39L1G8WVWRY04L5RO4LNCY1M68I31F", "current_trial": 169, "dateTime": 1509388193720, "trialdata": {"rt": -1, "stimulus": "<p id=\"stim\">GIRL</p>", "key_press": -1, "type": "PRES_VIS", "word": "girl", "wordID": 636, "conditions": [12, 800, "v", 12000], "trial": 4, "serialpos": 0, "trial_type": "single-stim", "trial_index": 169, "time_elapsed": 786168, "internal_node_id": "0.0-124.0"}}, {"uniqueid": "MTK0161:39L1G8WVWRY04L5RO4LNCY1M68I31F", "current_trial": 170, "dateTime": 1509388195687, "trialdata": {"rt": -1, "stimulus": "<p id=\"stim\">MATTRESS</p>", "key_press": -1, "type": "PRES_VIS", "word": "mattress", "wordID": 878, "conditions": [12, 800, "v", 12000], "trial": 4, "serialpos": 1, "trial_type": "single-stim", "trial_index": 170, "time_elapsed": 788135, "internal_node_id": "0.0-125.0"}}, {"uniqueid": "MTK0161:39L1G8WVWRY04L5RO4LNCY1M68I31F", "current_trial": 171, "dateTime": 1509388197571, "trialdata": {"rt": -1, "stimulus": "<p id=\"stim\">COOK</p>", "key_press": -1, "type": "PRES_VIS", "word": "cook", "wordID": 371, "conditions": [12, 800, "v", 12000], "trial": 4, "serialpos": 2, "trial_type": "single-stim", "trial_index": 171, "time_elapsed": 790019, "internal_node_id": "0.0-126.0"}}, {"uniqueid": "MTK0161:39L1G8WVWRY04L5RO4LNCY1M68I31F", "current_trial": 172, "dateTime": 1509388199221, "trialdata": {"rt": -1, "stimulus": "<p id=\"stim\">BANKER</p>", "key_press": -1, "type": "PRES_VIS", "word": "banker", "wordID": 83, "conditions": [12, 800, "v", 12000], "trial": 4, "serialpos": 3, "trial_type": "single-stim", "trial_index": 172, "time_elapsed": 791669, "internal_node_id": "0.0-127.0"}}, {"uniqueid": "MTK0161:39L1G8WVWRY04L5RO4LNCY1M68I31F", "current_trial": 173, "dateTime": 1509388200953, "trialdata": {"rt": -1, "stimulus": "<p id=\"stim\">SCISSORS</p>", "key_press": -1, "type": "PRES_VIS", "word": "scissors", "wordID": 1249, "conditions": [12, 800, "v", 12000], "trial": 4, "serialpos": 4, "trial_type": "single-stim", "trial_index": 173, "time_elapsed": 793401, "internal_node_id": "0.0-128.0"}}, {"uniqueid": "MTK0161:39L1G8WVWRY04L5RO4LNCY1M68I31F", "current_trial": 174, "dateTime": 1509388202666, "trialdata": {"rt": -1, "stimulus": "<p id=\"stim\">ROCKET</p>", "key_press": -1, "type": "PRES_VIS", "word": "rocket", "wordID": 1201, "conditions": [12, 800, "v", 12000], "trial": 4, "serialpos": 5, "trial_type": "single-stim", "trial_index": 174, "time_elapsed": 795114, "internal_node_id": "0.0-129.0"}}, {"uniqueid": "MTK0161:39L1G8WVWRY04L5RO4LNCY1M68I31F", "current_trial": 175, "dateTime": 1509388204640, "trialdata": {"rt": -1, "stimulus": "<p id=\"stim\">FRANCE</p>", "key_press": -1, "type": "PRES_VIS", "word": "france", "wordID": 600, "conditions": [12, 800, "v", 12000], "trial": 4, "serialpos": 6, "trial_type": "single-stim", "trial_index": 175, "time_elapsed": 797087, "internal_node_id": "0.0-130.0"}}, {"uniqueid": "MTK0161:39L1G8WVWRY04L5RO4LNCY1M68I31F", "current_trial": 176, "dateTime": 1509388206333, "trialdata": {"rt": -1, "stimulus": "<p id=\"stim\">LONDON</p>", "key_press": -1, "type": "PRES_VIS", "word": "london", "wordID": 842, "conditions": [12, 800, "v", 12000], "trial": 4, "serialpos": 7, "trial_type": "single-stim", "trial_index": 176, "time_elapsed": 798781, "internal_node_id": "0.0-131.0"}}, {"uniqueid": "MTK0161:39L1G8WVWRY04L5RO4LNCY1M68I31F", "current_trial": 177, "dateTime": 1509388208260, "trialdata": {"rt": -1, "stimulus": "<p id=\"stim\">COUCH</p>", "key_press": -1, "type": "PRES_VIS", "word": "couch", "wordID": 385, "conditions": [12, 800, "v", 12000], "trial": 4, "serialpos": 8, "trial_type": "single-stim", "trial_index": 177, "time_elapsed": 800707, "internal_node_id": "0.0-132.0"}}, {"uniqueid": "MTK0161:39L1G8WVWRY04L5RO4LNCY1M68I31F", "current_trial": 178, "dateTime": 1509388210224, "trialdata": {"rt": -1, "stimulus": "<p id=\"stim\">GLASS</p>", "key_press": -1, "type": "PRES_VIS", "word": "glass", "wordID": 638, "conditions": [12, 800, "v", 12000], "trial": 4, "serialpos": 9, "trial_type": "single-stim", "trial_index": 178, "time_elapsed": 802672, "internal_node_id": "0.0-133.0"}}, {"uniqueid": "MTK0161:39L1G8WVWRY04L5RO4LNCY1M68I31F", "current_trial": 179, "dateTime": 1509388211868, "trialdata": {"rt": -1, "stimulus": "<p id=\"stim\">HARP</p>", "key_press": -1, "type": "PRES_VIS", "word": "harp", "wordID": 688, "conditions": [12, 800, "v", 12000], "trial": 4, "serialpos": 10, "trial_type": "single-stim", "trial_index": 179, "time_elapsed": 804316, "internal_node_id": "0.0-134.0"}}, {"uniqueid": "MTK0161:39L1G8WVWRY04L5RO4LNCY1M68I31F", "current_trial": 180, "dateTime": 1509388213821, "trialdata": {"rt": -1, "stimulus": "<p id=\"stim\">HONEY</p>", "key_press": -1, "type": "PRES_VIS", "word": "honey", "wordID": 712, "conditions": [12, 800, "v", 12000], "trial": 4, "serialpos": 11, "trial_type": "single-stim", "trial_index": 180, "time_elapsed": 806269, "internal_node_id": "0.0-135.0"}}, {"uniqueid": "MTK0161:39L1G8WVWRY04L5RO4LNCY1M68I31F", "current_trial": 181, "dateTime": 1509388216287, "trialdata": {"rt": -1, "stimulus": "", "key_press": -1, "type": "PRE_RECALL_DELAY", "trial_type": "single-stim", "trial_index": 181, "time_elapsed": 808735, "internal_node_id": "0.0-136.0-0.0"}}, {"uniqueid": "MTK0161:39L1G8WVWRY04L5RO4LNCY1M68I31F", "current_trial": 182, "dateTime": 1509388216788, "trialdata": {"rt": -1000, "stimulus": "/static/audio/400Hz.wav", "key_press": -1, "type": "PRE_RECALL_ALERT", "trial_type": "single-audio", "trial_index": 182, "time_elapsed": 809236, "internal_node_id": "0.0-137.0"}}, {"uniqueid": "MTK0161:39L1G8WVWRY04L5RO4LNCY1M68I31F", "current_trial": 183, "dateTime": 1509388276796, "trialdata": {"rt": [2798, 4526, 6814, 8934, 11134, 15030, 26814], "recwords": ["girl", "cook", "honey", "glass", "banker", "couch", "honey"], "type": "FREE_RECALL", "conditions": [12, 800, "v", 12000], "trial": 4, "trial_type": "free-recall", "trial_index": 183, "time_elapsed": 869239, "internal_node_id": "0.0-138.0-0.0"}}, {"uniqueid": "MTK0161:39L1G8WVWRY04L5RO4LNCY1M68I31F", "current_trial": 184, "dateTime": 1509388279796, "trialdata": {"rt": 1000, "key_press": 32, "type": "INSTRUCTIONS", "trial_type": "text", "trial_index": 184, "time_elapsed": 872244, "internal_node_id": "0.0-139.0"}}, {"uniqueid": "MTK0161:39L1G8WVWRY04L5RO4LNCY1M68I31F", "current_trial": 185, "dateTime": 1509388305798, "trialdata": {"rt": [3028, 7356, 10508, 13444, 16524, 19476, 23004], "responses": ["13", "11", "15", "20", "14", "14", "14"], "num1": [8, 5, 6, 6, 4, 4, 6, 1], "num2": [3, 2, 8, 7, 8, 4, 7, 7], "num3": [2, 4, 1, 7, 2, 6, 1, 1], "type": "DISTRACTOR", "conditions": [24, 1600, "v", 24000], "trial": 5, "trial_type": "math-distractor", "trial_index": 185, "time_elapsed": 898246, "internal_node_id": "0.0-140.0"}}, {"uniqueid": "MTK0161:39L1G8WVWRY04L5RO4LNCY1M68I31F", "current_trial": 186, "dateTime": 1509388308799, "trialdata": {"rt": -1, "stimulus": "<p id=\"stim\">10</p>", "key_press": -1, "trial_type": "single-stim", "trial_index": 186, "time_elapsed": 901247, "internal_node_id": "0.0-141.0-0.0"}}, {"uniqueid": "MTK0161:39L1G8WVWRY04L5RO4LNCY1M68I31F", "current_trial": 187, "dateTime": 1509388309800, "trialdata": {"rt": -1, "stimulus": "<p id=\"stim\">9</p>", "key_press": -1, "trial_type": "single-stim", "trial_index": 187, "time_elapsed": 902248, "internal_node_id": "0.0-141.0-1.0"}}, {"uniqueid": "MTK0161:39L1G8WVWRY04L5RO4LNCY1M68I31F", "current_trial": 188, "dateTime": 1509388310801, "trialdata": {"rt": -1, "stimulus": "<p id=\"stim\">8</p>", "key_press": -1, "trial_type": "single-stim", "trial_index": 188, "time_elapsed": 903249, "internal_node_id": "0.0-141.0-2.0"}}, {"uniqueid": "MTK0161:39L1G8WVWRY04L5RO4LNCY1M68I31F", "current_trial": 189, "dateTime": 1509388311803, "trialdata": {"rt": -1, "stimulus": "<p id=\"stim\">7</p>", "key_press": -1, "trial_type": "single-stim", "trial_index": 189, "time_elapsed": 904251, "internal_node_id": "0.0-141.0-3.0"}}, {"uniqueid": "MTK0161:39L1G8WVWRY04L5RO4LNCY1M68I31F", "current_trial": 190, "dateTime": 1509388312804, "trialdata": {"rt": -1, "stimulus": "<p id=\"stim\">6</p>", "key_press": -1, "trial_type": "single-stim", "trial_index": 190, "time_elapsed": 905252, "internal_node_id": "0.0-141.0-4.0"}}, {"uniqueid": "MTK0161:39L1G8WVWRY04L5RO4LNCY1M68I31F", "current_trial": 191, "dateTime": 1509388313805, "trialdata": {"rt": -1, "stimulus": "<p id=\"stim\">5</p>", "key_press": -1, "trial_type": "single-stim", "trial_index": 191, "time_elapsed": 906253, "internal_node_id": "0.0-141.0-5.0"}}, {"uniqueid": "MTK0161:39L1G8WVWRY04L5RO4LNCY1M68I31F", "current_trial": 192, "dateTime": 1509388314807, "trialdata": {"rt": -1, "stimulus": "<p id=\"stim\">4</p>", "key_press": -1, "trial_type": "single-stim", "trial_index": 192, "time_elapsed": 907255, "internal_node_id": "0.0-141.0-6.0"}}, {"uniqueid": "MTK0161:39L1G8WVWRY04L5RO4LNCY1M68I31F", "current_trial": 193, "dateTime": 1509388315809, "trialdata": {"rt": -1, "stimulus": "<p id=\"stim\">3</p>", "key_press": -1, "trial_type": "single-stim", "trial_index": 193, "time_elapsed": 908257, "internal_node_id": "0.0-141.0-7.0"}}, {"uniqueid": "MTK0161:39L1G8WVWRY04L5RO4LNCY1M68I31F", "current_trial": 194, "dateTime": 1509388316811, "trialdata": {"rt": -1, "stimulus": "<p id=\"stim\">2</p>", "key_press": -1, "trial_type": "single-stim", "trial_index": 194, "time_elapsed": 909259, "internal_node_id": "0.0-141.0-8.0"}}, {"uniqueid": "MTK0161:39L1G8WVWRY04L5RO4LNCY1M68I31F", "current_trial": 195, "dateTime": 1509388317812, "trialdata": {"rt": -1, "stimulus": "<p id=\"stim\">1</p>", "key_press": -1, "trial_type": "single-stim", "trial_index": 195, "time_elapsed": 910260, "internal_node_id": "0.0-141.0-9.0"}}, {"uniqueid": "MTK0161:39L1G8WVWRY04L5RO4LNCY1M68I31F", "current_trial": 196, "dateTime": 1509388319313, "trialdata": {"rt": -1, "stimulus": "<p id=\"stim\">+</p>", "key_press": -1, "type": "FIXATION", "trial_type": "single-stim", "trial_index": 196, "time_elapsed": 911761, "internal_node_id": "0.0-142.0-0.0"}}, {"uniqueid": "MTK0161:39L1G8WVWRY04L5RO4LNCY1M68I31F", "current_trial": 197, "dateTime": 1509388320915, "trialdata": {"rt": -1, "stimulus": "<p id=\"stim\">CLOTHES</p>", "key_press": -1, "type": "PRES_VIS", "word": "clothes", "wordID": 326, "conditions": [24, 1600, "v", 24000], "trial": 5, "serialpos": 0, "trial_type": "single-stim", "trial_index": 197, "time_elapsed": 913363, "internal_node_id": "0.0-143.0"}}, {"uniqueid": "MTK0161:39L1G8WVWRY04L5RO4LNCY1M68I31F", "current_trial": 198, "dateTime": 1509388323643, "trialdata": {"rt": -1, "stimulus": "<p id=\"stim\">BRANDY</p>", "key_press": -1, "type": "PRES_VIS", "word": "brandy", "wordID": 168, "conditions": [24, 1600, "v", 24000], "trial": 5, "serialpos": 1, "trial_type": "single-stim", "trial_index": 198, "time_elapsed": 916091, "internal_node_id": "0.0-144.0"}}, {"uniqueid": "MTK0161:39L1G8WVWRY04L5RO4LNCY1M68I31F", "current_trial": 199, "dateTime": 1509388326049, "trialdata": {"rt": -1, "stimulus": "<p id=\"stim\">JELLY</p>", "key_press": -1, "type": "PRES_VIS", "word": "jelly", "wordID": 754, "conditions": [24, 1600, "v", 24000], "trial": 5, "serialpos": 2, "trial_type": "single-stim", "trial_index": 199, "time_elapsed": 918497, "internal_node_id": "0.0-145.0"}}, {"uniqueid": "MTK0161:39L1G8WVWRY04L5RO4LNCY1M68I31F", "current_trial": 200, "dateTime": 1509388328633, "trialdata": {"rt": -1, "stimulus": "<p id=\"stim\">SWAMP</p>", "key_press": -1, "type": "PRES_VIS", "word": "swamp", "wordID": 1415, "conditions": [24, 1600, "v", 24000], "trial": 5, "serialpos": 3, "trial_type": "single-stim", "trial_index": 200, "time_elapsed": 921081, "internal_node_id": "0.0-146.0"}}, {"uniqueid": "MTK0161:39L1G8WVWRY04L5RO4LNCY1M68I31F", "current_trial": 201, "dateTime": 1509388331146, "trialdata": {"rt": -1, "stimulus": "<p id=\"stim\">ICING</p>", "key_press": -1, "type": "PRES_VIS", "word": "icing", "wordID": 731, "conditions": [24, 1600, "v", 24000], "trial": 5, "serialpos": 4, "trial_type": "single-stim", "trial_index": 201, "time_elapsed": 923594, "internal_node_id": "0.0-147.0"}}, {"uniqueid": "MTK0161:39L1G8WVWRY04L5RO4LNCY1M68I31F", "current_trial": 202, "dateTime": 1509388333910, "trialdata": {"rt": -1, "stimulus": "<p id=\"stim\">COSTUME</p>", "key_press": -1, "type": "PRES_VIS", "word": "costume", "wordID": 382, "conditions": [24, 1600, "v", 24000], "trial": 5, "serialpos": 5, "trial_type": "single-stim", "trial_index": 202, "time_elapsed": 926358, "internal_node_id": "0.0-148.0"}}, {"uniqueid": "MTK0161:39L1G8WVWRY04L5RO4LNCY1M68I31F", "current_trial": 203, "dateTime": 1509388336486, "trialdata": {"rt": -1, "stimulus": "<p id=\"stim\">BRICK</p>", "key_press": -1, "type": "PRES_VIS", "word": "brick", "wordID": 171, "conditions": [24, 1600, "v", 24000], "trial": 5, "serialpos": 6, "trial_type": "single-stim", "trial_index": 203, "time_elapsed": 928934, "internal_node_id": "0.0-149.0"}}, {"uniqueid": "MTK0161:39L1G8WVWRY04L5RO4LNCY1M68I31F", "current_trial": 204, "dateTime": 1509388338941, "trialdata": {"rt": -1, "stimulus": "<p id=\"stim\">BUBBLE</p>", "key_press": -1, "type": "PRES_VIS", "word": "bubble", "wordID": 182, "conditions": [24, 1600, "v", 24000], "trial": 5, "serialpos": 7, "trial_type": "single-stim", "trial_index": 204, "time_elapsed": 931389, "internal_node_id": "0.0-150.0"}}, {"uniqueid": "MTK0161:39L1G8WVWRY04L5RO4LNCY1M68I31F", "current_trial": 205, "dateTime": 1509388341377, "trialdata": {"rt": -1, "stimulus": "<p id=\"stim\">HUMAN</p>", "key_press": -1, "type": "PRES_VIS", "word": "human", "wordID": 725, "conditions": [24, 1600, "v", 24000], "trial": 5, "serialpos": 8, "trial_type": "single-stim", "trial_index": 205, "time_elapsed": 933825, "internal_node_id": "0.0-151.0"}}, {"uniqueid": "MTK0161:39L1G8WVWRY04L5RO4LNCY1M68I31F", "current_trial": 206, "dateTime": 1509388344137, "trialdata": {"rt": -1, "stimulus": "<p id=\"stim\">WAITER</p>", "key_press": -1, "type": "PRES_VIS", "word": "waiter", "wordID": 1579, "conditions": [24, 1600, "v", 24000], "trial": 5, "serialpos": 9, "trial_type": "single-stim", "trial_index": 206, "time_elapsed": 936585, "internal_node_id": "0.0-152.0"}}, {"uniqueid": "MTK0161:39L1G8WVWRY04L5RO4LNCY1M68I31F", "current_trial": 207, "dateTime": 1509388346705, "trialdata": {"rt": -1, "stimulus": "<p id=\"stim\">WAITRESS</p>", "key_press": -1, "type": "PRES_VIS", "word": "waitress", "wordID": 1580, "conditions": [24, 1600, "v", 24000], "trial": 5, "serialpos": 10, "trial_type": "single-stim", "trial_index": 207, "time_elapsed": 939153, "internal_node_id": "0.0-153.0"}}, {"uniqueid": "MTK0161:39L1G8WVWRY04L5RO4LNCY1M68I31F", "current_trial": 208, "dateTime": 1509388349120, "trialdata": {"rt": -1, "stimulus": "<p id=\"stim\">DENIM</p>", "key_press": -1, "type": "PRES_VIS", "word": "denim", "wordID": 445, "conditions": [24, 1600, "v", 24000], "trial": 5, "serialpos": 11, "trial_type": "single-stim", "trial_index": 208, "time_elapsed": 941568, "internal_node_id": "0.0-154.0"}}, {"uniqueid": "MTK0161:39L1G8WVWRY04L5RO4LNCY1M68I31F", "current_trial": 209, "dateTime": 1509388351860, "trialdata": {"rt": -1, "stimulus": "<p id=\"stim\">DAUGHTER</p>", "key_press": -1, "type": "PRES_VIS", "word": "daughter", "wordID": 441, "conditions": [24, 1600, "v", 24000], "trial": 5, "serialpos": 12, "trial_type": "single-stim", "trial_index": 209, "time_elapsed": 944308, "internal_node_id": "0.0-155.0"}}, {"uniqueid": "MTK0161:39L1G8WVWRY04L5RO4LNCY1M68I31F", "current_trial": 210, "dateTime": 1509388354387, "trialdata": {"rt": -1, "stimulus": "<p id=\"stim\">GLOBE</p>", "key_press": -1, "type": "PRES_VIS", "word": "globe", "wordID": 640, "conditions": [24, 1600, "v", 24000], "trial": 5, "serialpos": 13, "trial_type": "single-stim", "trial_index": 210, "time_elapsed": 946835, "internal_node_id": "0.0-156.0"}}, {"uniqueid": "MTK0161:39L1G8WVWRY04L5RO4LNCY1M68I31F", "current_trial": 211, "dateTime": 1509388357147, "trialdata": {"rt": -1, "stimulus": "<p id=\"stim\">JUNGLE</p>", "key_press": -1, "type": "PRES_VIS", "word": "jungle", "wordID": 763, "conditions": [24, 1600, "v", 24000], "trial": 5, "serialpos": 14, "trial_type": "single-stim", "trial_index": 211, "time_elapsed": 949595, "internal_node_id": "0.0-157.0"}}, {"uniqueid": "MTK0161:39L1G8WVWRY04L5RO4LNCY1M68I31F", "current_trial": 212, "dateTime": 1509388359863, "trialdata": {"rt": -1, "stimulus": "<p id=\"stim\">VELVET</p>", "key_press": -1, "type": "PRES_VIS", "word": "velvet", "wordID": 1554, "conditions": [24, 1600, "v", 24000], "trial": 5, "serialpos": 15, "trial_type": "single-stim", "trial_index": 212, "time_elapsed": 952311, "internal_node_id": "0.0-158.0"}}, {"uniqueid": "MTK0161:39L1G8WVWRY04L5RO4LNCY1M68I31F", "current_trial": 213, "dateTime": 1509388362516, "trialdata": {"rt": -1, "stimulus": "<p id=\"stim\">DINER</p>", "key_press": -1, "type": "PRES_VIS", "word": "diner", "wordID": 466, "conditions": [24, 1600, "v", 24000], "trial": 5, "serialpos": 16, "trial_type": "single-stim", "trial_index": 213, "time_elapsed": 954964, "internal_node_id": "0.0-159.0"}}, {"uniqueid": "MTK0161:39L1G8WVWRY04L5RO4LNCY1M68I31F", "current_trial": 214, "dateTime": 1509388364943, "trialdata": {"rt": -1, "stimulus": "<p id=\"stim\">JURY</p>", "key_press": -1, "type": "PRES_VIS", "word": "jury", "wordID": 765, "conditions": [24, 1600, "v", 24000], "trial": 5, "serialpos": 17, "trial_type": "single-stim", "trial_index": 214, "time_elapsed": 957391, "internal_node_id": "0.0-160.0"}}, {"uniqueid": "MTK0161:39L1G8WVWRY04L5RO4LNCY1M68I31F", "current_trial": 215, "dateTime": 1509388367727, "trialdata": {"rt": -1, "stimulus": "<p id=\"stim\">JUDGE</p>", "key_press": -1, "type": "PRES_VIS", "word": "judge", "wordID": 760, "conditions": [24, 1600, "v", 24000], "trial": 5, "serialpos": 18, "trial_type": "single-stim", "trial_index": 215, "time_elapsed": 960175, "internal_node_id": "0.0-161.0"}}, {"uniqueid": "MTK0161:39L1G8WVWRY04L5RO4LNCY1M68I31F", "current_trial": 216, "dateTime": 1509388370180, "trialdata": {"rt": -1, "stimulus": "<p id=\"stim\">GANGSTER</p>", "key_press": -1, "type": "PRES_VIS", "word": "gangster", "wordID": 619, "conditions": [24, 1600, "v", 24000], "trial": 5, "serialpos": 19, "trial_type": "single-stim", "trial_index": 216, "time_elapsed": 962628, "internal_node_id": "0.0-162.0"}}, {"uniqueid": "MTK0161:39L1G8WVWRY04L5RO4LNCY1M68I31F", "current_trial": 217, "dateTime": 1509388372619, "trialdata": {"rt": -1, "stimulus": "<p id=\"stim\">WOMAN</p>", "key_press": -1, "type": "PRES_VIS", "word": "woman", "wordID": 1619, "conditions": [24, 1600, "v", 24000], "trial": 5, "serialpos": 20, "trial_type": "single-stim", "trial_index": 217, "time_elapsed": 965066, "internal_node_id": "0.0-163.0"}}, {"uniqueid": "MTK0161:39L1G8WVWRY04L5RO4LNCY1M68I31F", "current_trial": 218, "dateTime": 1509388375224, "trialdata": {"rt": -1, "stimulus": "<p id=\"stim\">TRUCK</p>", "key_press": -1, "type": "PRES_VIS", "word": "truck", "wordID": 1511, "conditions": [24, 1600, "v", 24000], "trial": 5, "serialpos": 21, "trial_type": "single-stim", "trial_index": 218, "time_elapsed": 967672, "internal_node_id": "0.0-164.0"}}, {"uniqueid": "MTK0161:39L1G8WVWRY04L5RO4LNCY1M68I31F", "current_trial": 219, "dateTime": 1509388377632, "trialdata": {"rt": -1, "stimulus": "<p id=\"stim\">SCALPEL</p>", "key_press": -1, "type": "PRES_VIS", "word": "scalpel", "wordID": 1242, "conditions": [24, 1600, "v", 24000], "trial": 5, "serialpos": 22, "trial_type": "single-stim", "trial_index": 219, "time_elapsed": 970080, "internal_node_id": "0.0-165.0"}}, {"uniqueid": "MTK0161:39L1G8WVWRY04L5RO4LNCY1M68I31F", "current_trial": 220, "dateTime": 1509388380278, "trialdata": {"rt": -1, "stimulus": "<p id=\"stim\">BUTCHER</p>", "key_press": -1, "type": "PRES_VIS", "word": "butcher", "wordID": 202, "conditions": [24, 1600, "v", 24000], "trial": 5, "serialpos": 23, "trial_type": "single-stim", "trial_index": 220, "time_elapsed": 972726, "internal_node_id": "0.0-166.0"}}, {"uniqueid": "MTK0161:39L1G8WVWRY04L5RO4LNCY1M68I31F", "current_trial": 221, "dateTime": 1509388382492, "trialdata": {"rt": -1, "stimulus": "", "key_press": -1, "type": "PRE_RECALL_DELAY", "trial_type": "single-stim", "trial_index": 221, "time_elapsed": 974940, "internal_node_id": "0.0-167.0-0.0"}}, {"uniqueid": "MTK0161:39L1G8WVWRY04L5RO4LNCY1M68I31F", "current_trial": 222, "dateTime": 1509388382993, "trialdata": {"rt": -1000, "stimulus": "/static/audio/400Hz.wav", "key_press": -1, "type": "PRE_RECALL_ALERT", "trial_type": "single-audio", "trial_index": 222, "time_elapsed": 975441, "internal_node_id": "0.0-168.0"}}, {"uniqueid": "MTK0161:39L1G8WVWRY04L5RO4LNCY1M68I31F", "current_trial": 223, "dateTime": 1509388443002, "trialdata": {"rt": [2917, 5413, 9349, 12262, 14773, 17141, 36645, 40372, 48445], "recwords": ["jury", "judge", "gangster", "swamp", "clothes", "demin", "scalple", "butcher", "daughter"], "type": "FREE_RECALL", "conditions": [24, 1600, "v", 24000], "trial": 5, "trial_type": "free-recall", "trial_index": 223, "time_elapsed": 1035444, "internal_node_id": "0.0-169.0-0.0"}}, {"uniqueid": "MTK0161:39L1G8WVWRY04L5RO4LNCY1M68I31F", "current_trial": 224, "dateTime": 1509388446039, "trialdata": {"rt": 1037, "key_press": 32, "type": "INSTRUCTIONS", "trial_type": "text", "trial_index": 224, "time_elapsed": 1038487, "internal_node_id": "0.0-170.0"}}, {"uniqueid": "MTK0161:39L1G8WVWRY04L5RO4LNCY1M68I31F", "current_trial": 225, "dateTime": 1509388472042, "trialdata": {"rt": [3438, 6686, 9374, 12150, 18910, 21671], "responses": ["9", "17", "9", "18", "21", "11"], "num1": [6, 6, 1, 8, 6, 4, 4], "num2": [1, 3, 6, 2, 8, 1, 7], "num3": [2, 8, 2, 8, 7, 6, 3], "type": "DISTRACTOR", "conditions": [24, 800, "a", 24000], "trial": 6, "trial_type": "math-distractor", "trial_index": 225, "time_elapsed": 1064490, "internal_node_id": "0.0-171.0"}}, {"uniqueid": "MTK0161:39L1G8WVWRY04L5RO4LNCY1M68I31F", "current_trial": 226, "dateTime": 1509388475043, "trialdata": {"rt": -1, "stimulus": "<p id=\"stim\">10</p>", "key_press": -1, "trial_type": "single-stim", "trial_index": 226, "time_elapsed": 1067491, "internal_node_id": "0.0-172.0-0.0"}}, {"uniqueid": "MTK0161:39L1G8WVWRY04L5RO4LNCY1M68I31F", "current_trial": 227, "dateTime": 1509388476044, "trialdata": {"rt": -1, "stimulus": "<p id=\"stim\">9</p>", "key_press": -1, "trial_type": "single-stim", "trial_index": 227, "time_elapsed": 1068492, "internal_node_id": "0.0-172.0-1.0"}}, {"uniqueid": "MTK0161:39L1G8WVWRY04L5RO4LNCY1M68I31F", "current_trial": 228, "dateTime": 1509388477046, "trialdata": {"rt": -1, "stimulus": "<p id=\"stim\">8</p>", "key_press": -1, "trial_type": "single-stim", "trial_index": 228, "time_elapsed": 1069494, "internal_node_id": "0.0-172.0-2.0"}}, {"uniqueid": "MTK0161:39L1G8WVWRY04L5RO4LNCY1M68I31F", "current_trial": 229, "dateTime": 1509388478046, "trialdata": {"rt": -1, "stimulus": "<p id=\"stim\">7</p>", "key_press": -1, "trial_type": "single-stim", "trial_index": 229, "time_elapsed": 1070494, "internal_node_id": "0.0-172.0-3.0"}}, {"uniqueid": "MTK0161:39L1G8WVWRY04L5RO4LNCY1M68I31F", "current_trial": 230, "dateTime": 1509388479048, "trialdata": {"rt": -1, "stimulus": "<p id=\"stim\">6</p>", "key_press": -1, "trial_type": "single-stim", "trial_index": 230, "time_elapsed": 1071496, "internal_node_id": "0.0-172.0-4.0"}}, {"uniqueid": "MTK0161:39L1G8WVWRY04L5RO4LNCY1M68I31F", "current_trial": 231, "dateTime": 1509388480050, "trialdata": {"rt": -1, "stimulus": "<p id=\"stim\">5</p>", "key_press": -1, "trial_type": "single-stim", "trial_index": 231, "time_elapsed": 1072498, "internal_node_id": "0.0-172.0-5.0"}}, {"uniqueid": "MTK0161:39L1G8WVWRY04L5RO4LNCY1M68I31F", "current_trial": 232, "dateTime": 1509388481051, "trialdata": {"rt": -1, "stimulus": "<p id=\"stim\">4</p>", "key_press": -1, "trial_type": "single-stim", "trial_index": 232, "time_elapsed": 1073499, "internal_node_id": "0.0-172.0-6.0"}}, {"uniqueid": "MTK0161:39L1G8WVWRY04L5RO4LNCY1M68I31F", "current_trial": 233, "dateTime": 1509388482054, "trialdata": {"rt": -1, "stimulus": "<p id=\"stim\">3</p>", "key_press": -1, "trial_type": "single-stim", "trial_index": 233, "time_elapsed": 1074502, "internal_node_id": "0.0-172.0-7.0"}}, {"uniqueid": "MTK0161:39L1G8WVWRY04L5RO4LNCY1M68I31F", "current_trial": 234, "dateTime": 1509388483054, "trialdata": {"rt": -1, "stimulus": "<p id=\"stim\">2</p>", "key_press": -1, "trial_type": "single-stim", "trial_index": 234, "time_elapsed": 1075502, "internal_node_id": "0.0-172.0-8.0"}}, {"uniqueid": "MTK0161:39L1G8WVWRY04L5RO4LNCY1M68I31F", "current_trial": 235, "dateTime": 1509388484055, "trialdata": {"rt": -1, "stimulus": "<p id=\"stim\">1</p>", "key_press": -1, "trial_type": "single-stim", "trial_index": 235, "time_elapsed": 1076503, "internal_node_id": "0.0-172.0-9.0"}}, {"uniqueid": "MTK0161:39L1G8WVWRY04L5RO4LNCY1M68I31F", "current_trial": 236, "dateTime": 1509388485556, "trialdata": {"rt": -1, "stimulus": "<p id=\"stim\">+</p>", "key_press": -1, "type": "FIXATION", "trial_type": "single-stim", "trial_index": 236, "time_elapsed": 1078004, "internal_node_id": "0.0-173.0-0.0"}}, {"uniqueid": "MTK0161:39L1G8WVWRY04L5RO4LNCY1M68I31F", "current_trial": 237, "dateTime": 1509388487174, "trialdata": {"rt": -1000, "stimulus": "/static/audio/wordpool/GOBLIN.wav", "key_press": -1, "type": "PRES_AUD", "word": "goblin", "wordID": 644, "conditions": [24, 800, "a", 24000], "trial": 6, "serialpos": 0, "trial_type": "single-audio", "trial_index": 237, "time_elapsed": 1079622, "internal_node_id": "0.0-174.0"}}, {"uniqueid": "MTK0161:39L1G8WVWRY04L5RO4LNCY1M68I31F", "current_trial": 238, "dateTime": 1509388488826, "trialdata": {"rt": -1000, "stimulus": "/static/audio/wordpool/DANCER.wav", "key_press": -1, "type": "PRES_AUD", "word": "dancer", "wordID": 436, "conditions": [24, 800, "a", 24000], "trial": 6, "serialpos": 1, "trial_type": "single-audio", "trial_index": 238, "time_elapsed": 1081272, "internal_node_id": "0.0-175.0"}}, {"uniqueid": "MTK0161:39L1G8WVWRY04L5RO4LNCY1M68I31F", "current_trial": 239, "dateTime": 1509388490451, "trialdata": {"rt": -1000, "stimulus": "/static/audio/wordpool/BROTHER.wav", "key_press": -1, "type": "PRES_AUD", "word": "brother", "wordID": 178, "conditions": [24, 800, "a", 24000], "trial": 6, "serialpos": 2, "trial_type": "single-audio", "trial_index": 239, "time_elapsed": 1082899, "internal_node_id": "0.0-176.0"}}, {"uniqueid": "MTK0161:39L1G8WVWRY04L5RO4LNCY1M68I31F", "current_trial": 240, "dateTime": 1509388492283, "trialdata": {"rt": -1000, "stimulus": "/static/audio/wordpool/SALMON.wav", "key_press": -1, "type": "PRES_AUD", "word": "salmon", "wordID": 1226, "conditions": [24, 800, "a", 24000], "trial": 6, "serialpos": 3, "trial_type": "single-audio", "trial_index": 240, "time_elapsed": 1084730, "internal_node_id": "0.0-177.0"}}, {"uniqueid": "MTK0161:39L1G8WVWRY04L5RO4LNCY1M68I31F", "current_trial": 241, "dateTime": 1509388494065, "trialdata": {"rt": -1000, "stimulus": "/static/audio/wordpool/SCALLOP.wav", "key_press": -1, "type": "PRES_AUD", "word": "scallop", "wordID": 1241, "conditions": [24, 800, "a", 24000], "trial": 6, "serialpos": 4, "trial_type": "single-audio", "trial_index": 241, "time_elapsed": 1086513, "internal_node_id": "0.0-178.0"}}, {"uniqueid": "MTK0161:39L1G8WVWRY04L5RO4LNCY1M68I31F", "current_trial": 242, "dateTime": 1509388495944, "trialdata": {"rt": -1000, "stimulus": "/static/audio/wordpool/PICTURE.wav", "key_press": -1, "type": "PRES_AUD", "word": "picture", "wordID": 1060, "conditions": [24, 800, "a", 24000], "trial": 6, "serialpos": 5, "trial_type": "single-audio", "trial_index": 242, "time_elapsed": 1088392, "internal_node_id": "0.0-179.0"}}, {"uniqueid": "MTK0161:39L1G8WVWRY04L5RO4LNCY1M68I31F", "current_trial": 243, "dateTime": 1509388497939, "trialdata": {"rt": -1000, "stimulus": "/static/audio/wordpool/GAVEL.wav", "key_press": -1, "type": "PRES_AUD", "word": "gavel", "wordID": 626, "conditions": [24, 800, "a", 24000], "trial": 6, "serialpos": 6, "trial_type": "single-audio", "trial_index": 243, "time_elapsed": 1090386, "internal_node_id": "0.0-180.0"}}, {"uniqueid": "MTK0161:39L1G8WVWRY04L5RO4LNCY1M68I31F", "current_trial": 244, "dateTime": 1509388499724, "trialdata": {"rt": -1000, "stimulus": "/static/audio/wordpool/SIBLING.wav", "key_press": -1, "type": "PRES_AUD", "word": "sibling", "wordID": 1300, "conditions": [24, 800, "a", 24000], "trial": 6, "serialpos": 7, "trial_type": "single-audio", "trial_index": 244, "time_elapsed": 1092172, "internal_node_id": "0.0-181.0"}}, {"uniqueid": "MTK0161:39L1G8WVWRY04L5RO4LNCY1M68I31F", "current_trial": 245, "dateTime": 1509388501366, "trialdata": {"rt": -1000, "stimulus": "/static/audio/wordpool/MESSAGE.wav", "key_press": -1, "type": "PRES_AUD", "word": "message", "wordID": 887, "conditions": [24, 800, "a", 24000], "trial": 6, "serialpos": 8, "trial_type": "single-audio", "trial_index": 245, "time_elapsed": 1093814, "internal_node_id": "0.0-182.0"}}, {"uniqueid": "MTK0161:39L1G8WVWRY04L5RO4LNCY1M68I31F", "current_trial": 246, "dateTime": 1509388502998, "trialdata": {"rt": -1000, "stimulus": "/static/audio/wordpool/BRACES.wav", "key_press": -1, "type": "PRES_AUD", "word": "braces", "wordID": 163, "conditions": [24, 800, "a", 24000], "trial": 6, "serialpos": 9, "trial_type": "single-audio", "trial_index": 246, "time_elapsed": 1095446, "internal_node_id": "0.0-183.0"}}, {"uniqueid": "MTK0161:39L1G8WVWRY04L5RO4LNCY1M68I31F", "current_trial": 247, "dateTime": 1509388504948, "trialdata": {"rt": -1000, "stimulus": "/static/audio/wordpool/WARDROBE.wav", "key_press": -1, "type": "PRES_AUD", "word": "wardrobe", "wordID": 1586, "conditions": [24, 800, "a", 24000], "trial": 6, "serialpos": 10, "trial_type": "single-audio", "trial_index": 247, "time_elapsed": 1097395, "internal_node_id": "0.0-184.0"}}, {"uniqueid": "MTK0161:39L1G8WVWRY04L5RO4LNCY1M68I31F", "current_trial": 248, "dateTime": 1509388506908, "trialdata": {"rt": -1000, "stimulus": "/static/audio/wordpool/CASHEW.wav", "key_press": -1, "type": "PRES_AUD", "word": "cashew", "wordID": 252, "conditions": [24, 800, "a", 24000], "trial": 6, "serialpos": 11, "trial_type": "single-audio", "trial_index": 248, "time_elapsed": 1099356, "internal_node_id": "0.0-185.0"}}, {"uniqueid": "MTK0161:39L1G8WVWRY04L5RO4LNCY1M68I31F", "current_trial": 249, "dateTime": 1509388508766, "trialdata": {"rt": -1000, "stimulus": "/static/audio/wordpool/CUPBOARD.wav", "key_press": -1, "type": "PRES_AUD", "word": "cupboard", "wordID": 424, "conditions": [24, 800, "a", 24000], "trial": 6, "serialpos": 12, "trial_type": "single-audio", "trial_index": 249, "time_elapsed": 1101214, "internal_node_id": "0.0-186.0"}}, {"uniqueid": "MTK0161:39L1G8WVWRY04L5RO4LNCY1M68I31F", "current_trial": 250, "dateTime": 1509388510748, "trialdata": {"rt": -1000, "stimulus": "/static/audio/wordpool/KITCHEN.wav", "key_press": -1, "type": "PRES_AUD", "word": "kitchen", "wordID": 777, "conditions": [24, 800, "a", 24000], "trial": 6, "serialpos": 13, "trial_type": "single-audio", "trial_index": 250, "time_elapsed": 1103196, "internal_node_id": "0.0-187.0"}}, {"uniqueid": "MTK0161:39L1G8WVWRY04L5RO4LNCY1M68I31F", "current_trial": 251, "dateTime": 1509388512532, "trialdata": {"rt": -1000, "stimulus": "/static/audio/wordpool/JELLO.wav", "key_press": -1, "type": "PRES_AUD", "word": "jello", "wordID": 753, "conditions": [24, 800, "a", 24000], "trial": 6, "serialpos": 14, "trial_type": "single-audio", "trial_index": 251, "time_elapsed": 1104980, "internal_node_id": "0.0-188.0"}}, {"uniqueid": "MTK0161:39L1G8WVWRY04L5RO4LNCY1M68I31F", "current_trial": 252, "dateTime": 1509388514360, "trialdata": {"rt": -1000, "stimulus": "/static/audio/wordpool/PATIENT.wav", "key_press": -1, "type": "PRES_AUD", "word": "patient", "wordID": 1023, "conditions": [24, 800, "a", 24000], "trial": 6, "serialpos": 15, "trial_type": "single-audio", "trial_index": 252, "time_elapsed": 1106807, "internal_node_id": "0.0-189.0"}}, {"uniqueid": "MTK0161:39L1G8WVWRY04L5RO4LNCY1M68I31F", "current_trial": 253, "dateTime": 1509388516305, "trialdata": {"rt": -1000, "stimulus": "/static/audio/wordpool/JAPAN.wav", "key_press": -1, "type": "PRES_AUD", "word": "japan", "wordID": 748, "conditions": [24, 800, "a", 24000], "trial": 6, "serialpos": 16, "trial_type": "single-audio", "trial_index": 253, "time_elapsed": 1108752, "internal_node_id": "0.0-190.0"}}, {"uniqueid": "MTK0161:39L1G8WVWRY04L5RO4LNCY1M68I31F", "current_trial": 254, "dateTime": 1509388518000, "trialdata": {"rt": -1000, "stimulus": "/static/audio/wordpool/VIKING.wav", "key_press": -1, "type": "PRES_AUD", "word": "viking", "wordID": 1564, "conditions": [24, 800, "a", 24000], "trial": 6, "serialpos": 17, "trial_type": "single-audio", "trial_index": 254, "time_elapsed": 1110448, "internal_node_id": "0.0-191.0"}}, {"uniqueid": "MTK0161:39L1G8WVWRY04L5RO4LNCY1M68I31F", "current_trial": 255, "dateTime": 1509388519685, "trialdata": {"rt": -1000, "stimulus": "/static/audio/wordpool/DRESSER.wav", "key_press": -1, "type": "PRES_AUD", "word": "dresser", "wordID": 495, "conditions": [24, 800, "a", 24000], "trial": 6, "serialpos": 18, "trial_type": "single-audio", "trial_index": 255, "time_elapsed": 1112132, "internal_node_id": "0.0-192.0"}}, {"uniqueid": "MTK0161:39L1G8WVWRY04L5RO4LNCY1M68I31F", "current_trial": 256, "dateTime": 1509388521575, "trialdata": {"rt": -1000, "stimulus": "/static/audio/wordpool/EUROPE.wav", "key_press": -1, "type": "PRES_AUD", "word": "europe", "wordID": 540, "conditions": [24, 800, "a", 24000], "trial": 6, "serialpos": 19, "trial_type": "single-audio", "trial_index": 256, "time_elapsed": 1114023, "internal_node_id": "0.0-193.0"}}, {"uniqueid": "MTK0161:39L1G8WVWRY04L5RO4LNCY1M68I31F", "current_trial": 257, "dateTime": 1509388523443, "trialdata": {"rt": -1000, "stimulus": "/static/audio/wordpool/GALLON.wav", "key_press": -1, "type": "PRES_AUD", "word": "gallon", "wordID": 617, "conditions": [24, 800, "a", 24000], "trial": 6, "serialpos": 20, "trial_type": "single-audio", "trial_index": 257, "time_elapsed": 1115891, "internal_node_id": "0.0-194.0"}}, {"uniqueid": "MTK0161:39L1G8WVWRY04L5RO4LNCY1M68I31F", "current_trial": 258, "dateTime": 1509388525156, "trialdata": {"rt": -1000, "stimulus": "/static/audio/wordpool/CRITIC.wav", "key_press": -1, "type": "PRES_AUD", "word": "critic", "wordID": 409, "conditions": [24, 800, "a", 24000], "trial": 6, "serialpos": 21, "trial_type": "single-audio", "trial_index": 258, "time_elapsed": 1117604, "internal_node_id": "0.0-195.0"}}, {"uniqueid": "MTK0161:39L1G8WVWRY04L5RO4LNCY1M68I31F", "current_trial": 259, "dateTime": 1509388526872, "trialdata": {"rt": -1000, "stimulus": "/static/audio/wordpool/NURSE.wav", "key_press": -1, "type": "PRES_AUD", "word": "nurse", "wordID": 962, "conditions": [24, 800, "a", 24000], "trial": 6, "serialpos": 22, "trial_type": "single-audio", "trial_index": 259, "time_elapsed": 1119320, "internal_node_id": "0.0-196.0"}}, {"uniqueid": "MTK0161:39L1G8WVWRY04L5RO4LNCY1M68I31F", "current_trial": 260, "dateTime": 1509388528872, "trialdata": {"rt": -1000, "stimulus": "/static/audio/wordpool/FREEZER.wav", "key_press": -1, "type": "PRES_AUD", "word": "freezer", "wordID": 603, "conditions": [24, 800, "a", 24000], "trial": 6, "serialpos": 23, "trial_type": "single-audio", "trial_index": 260, "time_elapsed": 1121320, "internal_node_id": "0.0-197.0"}}, {"uniqueid": "MTK0161:39L1G8WVWRY04L5RO4LNCY1M68I31F", "current_trial": 261, "dateTime": 1509388530116, "trialdata": {"rt": -1, "stimulus": "", "key_press": -1, "type": "PRE_RECALL_DELAY", "trial_type": "single-stim", "trial_index": 261, "time_elapsed": 1122564, "internal_node_id": "0.0-198.0-0.0"}}, {"uniqueid": "MTK0161:39L1G8WVWRY04L5RO4LNCY1M68I31F", "current_trial": 262, "dateTime": 1509388530617, "trialdata": {"rt": -1000, "stimulus": "/static/audio/400Hz.wav", "key_press": -1, "type": "PRE_RECALL_ALERT", "trial_type": "single-audio", "trial_index": 262, "time_elapsed": 1123065, "internal_node_id": "0.0-199.0"}}, {"uniqueid": "MTK0161:39L1G8WVWRY04L5RO4LNCY1M68I31F", "current_trial": 263, "dateTime": 1509388590624, "trialdata": {"rt": [6129, 9417, 12089, 17985, 20617, 28633, 30993, 40961], "recwords": ["freezer", "goblin", "nurse", "japan", "europe", "kitchen", "jello", "mattress"], "type": "FREE_RECALL", "conditions": [24, 800, "a", 24000], "trial": 6, "trial_type": "free-recall", "trial_index": 263, "time_elapsed": 1183068, "internal_node_id": "0.0-200.0-0.0"}}, {"uniqueid": "MTK0161:39L1G8WVWRY04L5RO4LNCY1M68I31F", "current_trial": 264, "dateTime": 1509388593739, "trialdata": {"rt": 1114, "key_press": 32, "type": "INSTRUCTIONS", "trial_type": "text", "trial_index": 264, "time_elapsed": 1186187, "internal_node_id": "0.0-201.0"}}, {"uniqueid": "MTK0161:39L1G8WVWRY04L5RO4LNCY1M68I31F", "current_trial": 265, "dateTime": 1509388619741, "trialdata": {"rt": [2926, 6630, 9414, 12429, 17278, 19606, 23069], "responses": ["17", "21", "20", "18", "16", "12", "12"], "num1": [7, 6, 2, 3, 1, 5, 3, 8], "num2": [4, 9, 9, 8, 8, 2, 6, 3], "num3": [6, 6, 9, 7, 7, 5, 3, 6], "type": "DISTRACTOR", "conditions": [12, 800, "v", 24000], "trial": 7, "trial_type": "math-distractor", "trial_index": 265, "time_elapsed": 1212189, "internal_node_id": "0.0-202.0"}}, {"uniqueid": "MTK0161:39L1G8WVWRY04L5RO4LNCY1M68I31F", "current_trial": 266, "dateTime": 1509388622743, "trialdata": {"rt": -1, "stimulus": "<p id=\"stim\">10</p>", "key_press": -1, "trial_type": "single-stim", "trial_index": 266, "time_elapsed": 1215191, "internal_node_id": "0.0-203.0-0.0"}}, {"uniqueid": "MTK0161:39L1G8WVWRY04L5RO4LNCY1M68I31F", "current_trial": 267, "dateTime": 1509388623744, "trialdata": {"rt": -1, "stimulus": "<p id=\"stim\">9</p>", "key_press": -1, "trial_type": "single-stim", "trial_index": 267, "time_elapsed": 1216192, "internal_node_id": "0.0-203.0-1.0"}}, {"uniqueid": "MTK0161:39L1G8WVWRY04L5RO4LNCY1M68I31F", "current_trial": 268, "dateTime": 1509388624745, "trialdata": {"rt": -1, "stimulus": "<p id=\"stim\">8</p>", "key_press": -1, "trial_type": "single-stim", "trial_index": 268, "time_elapsed": 1217193, "internal_node_id": "0.0-203.0-2.0"}}, {"uniqueid": "MTK0161:39L1G8WVWRY04L5RO4LNCY1M68I31F", "current_trial": 269, "dateTime": 1509388625745, "trialdata": {"rt": -1, "stimulus": "<p id=\"stim\">7</p>", "key_press": -1, "trial_type": "single-stim", "trial_index": 269, "time_elapsed": 1218193, "internal_node_id": "0.0-203.0-3.0"}}, {"uniqueid": "MTK0161:39L1G8WVWRY04L5RO4LNCY1M68I31F", "current_trial": 270, "dateTime": 1509388626746, "trialdata": {"rt": -1