{"condition": 0, "counterbalance": 2574, "assignmentId": "3W92K5RLWVOJ4C8T91T5YJ6MDQN5V7", "workerId": "MTK0715", "hitId": "3HXK2V1N4KM60Y1HCLNJBR4GQX02G7", "currenttrial": 626, "bonus": 0, "data": [{"uniqueid": "MTK0715:3W92K5RLWVOJ4C8T91T5YJ6MDQN5V7", "current_trial": 0, "dateTime": 1512674091956, "trialdata": {"rt": 2082, "key_press": 32, "type": "INSTRUCTIONS", "trial_type": "text", "trial_index": 0, "time_elapsed": 2084, "internal_node_id": "0.0-0.0"}}, {"uniqueid": "MTK0715:3W92K5RLWVOJ4C8T91T5YJ6MDQN5V7", "current_trial": 1, "dateTime": 1512674108295, "trialdata": {"rt": 16337, "key_press": 32, "type": "INSTRUCTIONS", "trial_type": "text", "trial_index": 1, "time_elapsed": 18424, "internal_node_id": "0.0-1.0"}}, {"uniqueid": "MTK0715:3W92K5RLWVOJ4C8T91T5YJ6MDQN5V7", "current_trial": 2, "dateTime": 1512674129736, "trialdata": {"rt": [21431], "responses": ["ocean"], "type": "AUDIO_TEST", "trial_type": "audio-test", "trial_index": 2, "time_elapsed": 39865, "internal_node_id": "0.0-2.0"}}, {"uniqueid": "MTK0715:3W92K5RLWVOJ4C8T91T5YJ6MDQN5V7", "current_trial": 3, "dateTime": 1512674145015, "trialdata": {"rt": [15275], "responses": ["crystal"], "type": "AUDIO_TEST", "trial_type": "audio-test", "trial_index": 3, "time_elapsed": 55144, "internal_node_id": "0.0-3.0"}}, {"uniqueid": "MTK0715:3W92K5RLWVOJ4C8T91T5YJ6MDQN5V7", "current_trial": 4, "dateTime": 1512674155167, "trialdata": {"rt": [10148], "responses": ["spice"], "type": "AUDIO_TEST", "trial_type": "audio-test", "trial_index": 4, "time_elapsed": 65296, "internal_node_id": "0.0-4.0"}}, {"uniqueid": "MTK0715:3W92K5RLWVOJ4C8T91T5YJ6MDQN5V7", "current_trial": 5, "dateTime": 1512674179138, "trialdata": {"rt": 23217, "responses": "{\"Q0\":\"11:30pm\",\"Q1\":\"6am\",\"Q2\":\"4\"}", "type": "SLEEP_SURVEY", "trial_type": "survey-text", "trial_index": 5, "time_elapsed": 89267, "internal_node_id": "0.0-5.0"}}, {"uniqueid": "MTK0715:3W92K5RLWVOJ4C8T91T5YJ6MDQN5V7", "current_trial": 6, "dateTime": 1512674252647, "trialdata": {"rt": 72504, "key_press": 32, "type": "INSTRUCTIONS", "trial_type": "text", "trial_index": 6, "time_elapsed": 162776, "internal_node_id": "0.0-6.0"}}, {"uniqueid": "MTK0715:3W92K5RLWVOJ4C8T91T5YJ6MDQN5V7", "current_trial": 7, "dateTime": 1512674281285, "trialdata": {"rt": 28133, "key_press": 32, "type": "INSTRUCTIONS", "trial_type": "text", "trial_index": 7, "time_elapsed": 191414, "internal_node_id": "0.0-7.0"}}, {"uniqueid": "MTK0715:3W92K5RLWVOJ4C8T91T5YJ6MDQN5V7", "current_trial": 8, "dateTime": 1512674315422, "trialdata": {"rt": 33635, "key_press": 32, "type": "INSTRUCTIONS", "trial_type": "text", "trial_index": 8, "time_elapsed": 225551, "internal_node_id": "0.0-8.0"}}, {"uniqueid": "MTK0715:3W92K5RLWVOJ4C8T91T5YJ6MDQN5V7", "current_trial": 9, "dateTime": 1512674334429, "trialdata": {"rt": [5475, 8435, 12563, 17755], "responses": ["16", "17", "13", "16"], "num1": [7, 1, 7, 4, 4], "num2": [8, 8, 5, 4, 9], "num3": [1, 8, 1, 8, 3], "type": "DISTRACTOR", "conditions": [18, 1200, "v", 18000], "trial": 0, "trial_type": "math-distractor", "trial_index": 9, "time_elapsed": 244558, "internal_node_id": "0.0-9.0"}}, {"uniqueid": "MTK0715:3W92K5RLWVOJ4C8T91T5YJ6MDQN5V7", "current_trial": 10, "dateTime": 1512674337435, "trialdata": {"rt": -1, "stimulus": "<p id=\"stim\">10</p>", "key_press": -1, "trial_type": "single-stim", "trial_index": 10, "time_elapsed": 247564, "internal_node_id": "0.0-10.0-0.0"}}, {"uniqueid": "MTK0715:3W92K5RLWVOJ4C8T91T5YJ6MDQN5V7", "current_trial": 11, "dateTime": 1512674338439, "trialdata": {"rt": -1, "stimulus": "<p id=\"stim\">9</p>", "key_press": -1, "trial_type": "single-stim", "trial_index": 11, "time_elapsed": 248568, "internal_node_id": "0.0-10.0-1.0"}}, {"uniqueid": "MTK0715:3W92K5RLWVOJ4C8T91T5YJ6MDQN5V7", "current_trial": 12, "dateTime": 1512674339444, "trialdata": {"rt": -1, "stimulus": "<p id=\"stim\">8</p>", "key_press": -1, "trial_type": "single-stim", "trial_index": 12, "time_elapsed": 249573, "internal_node_id": "0.0-10.0-2.0"}}, {"uniqueid": "MTK0715:3W92K5RLWVOJ4C8T91T5YJ6MDQN5V7", "current_trial": 13, "dateTime": 1512674340447, "trialdata": {"rt": -1, "stimulus": "<p id=\"stim\">7</p>", "key_press": -1, "trial_type": "single-stim", "trial_index": 13, "time_elapsed": 250576, "internal_node_id": "0.0-10.0-3.0"}}, {"uniqueid": "MTK0715:3W92K5RLWVOJ4C8T91T5YJ6MDQN5V7", "current_trial": 14, "dateTime": 1512674341451, "trialdata": {"rt": -1, "stimulus": "<p id=\"stim\">6</p>", "key_press": -1, "trial_type": "single-stim", "trial_index": 14, "time_elapsed": 251580, "internal_node_id": "0.0-10.0-4.0"}}, {"uniqueid": "MTK0715:3W92K5RLWVOJ4C8T91T5YJ6MDQN5V7", "current_trial": 15, "dateTime": 1512674342455, "trialdata": {"rt": -1, "stimulus": "<p id=\"stim\">5</p>", "key_press": -1, "trial_type": "single-stim", "trial_index": 15, "time_elapsed": 252584, "internal_node_id": "0.0-10.0-5.0"}}, {"uniqueid": "MTK0715:3W92K5RLWVOJ4C8T91T5YJ6MDQN5V7", "current_trial": 16, "dateTime": 1512674343460, "trialdata": {"rt": -1, "stimulus": "<p id=\"stim\">4</p>", "key_press": -1, "trial_type": "single-stim", "trial_index": 16, "time_elapsed": 253588, "internal_node_id": "0.0-10.0-6.0"}}, {"uniqueid": "MTK0715:3W92K5RLWVOJ4C8T91T5YJ6MDQN5V7", "current_trial": 17, "dateTime": 1512674344464, "trialdata": {"rt": -1, "stimulus": "<p id=\"stim\">3</p>", "key_press": -1, "trial_type": "single-stim", "trial_index": 17, "time_elapsed": 254593, "internal_node_id": "0.0-10.0-7.0"}}, {"uniqueid": "MTK0715:3W92K5RLWVOJ4C8T91T5YJ6MDQN5V7", "current_trial": 18, "dateTime": 1512674345467, "trialdata": {"rt": -1, "stimulus": "<p id=\"stim\">2</p>", "key_press": -1, "trial_type": "single-stim", "trial_index": 18, "time_elapsed": 255596, "internal_node_id": "0.0-10.0-8.0"}}, {"uniqueid": "MTK0715:3W92K5RLWVOJ4C8T91T5YJ6MDQN5V7", "current_trial": 19, "dateTime": 1512674346471, "trialdata": {"rt": -1, "stimulus": "<p id=\"stim\">1</p>", "key_press": -1, "trial_type": "single-stim", "trial_index": 19, "time_elapsed": 256600, "internal_node_id": "0.0-10.0-9.0"}}, {"uniqueid": "MTK0715:3W92K5RLWVOJ4C8T91T5YJ6MDQN5V7", "current_trial": 20, "dateTime": 1512674347975, "trialdata": {"rt": -1, "stimulus": "<p id=\"stim\">+</p>", "key_press": -1, "type": "FIXATION", "trial_type": "single-stim", "trial_index": 20, "time_elapsed": 258103, "internal_node_id": "0.0-11.0-0.0"}}, {"uniqueid": "MTK0715:3W92K5RLWVOJ4C8T91T5YJ6MDQN5V7", "current_trial": 21, "dateTime": 1512674349176, "trialdata": {"rt": -1, "stimulus": "<p id=\"stim\">CONVICT</p>", "key_press": -1, "type": "PRES_VIS", "word": "convict", "wordID": 370, "conditions": [18, 1200, "v", 18000], "trial": 0, "serialpos": 0, "trial_type": "single-stim", "trial_index": 21, "time_elapsed": 259305, "internal_node_id": "0.0-12.0"}}, {"uniqueid": "MTK0715:3W92K5RLWVOJ4C8T91T5YJ6MDQN5V7", "current_trial": 22, "dateTime": 1512674351422, "trialdata": {"rt": -1, "stimulus": "<p id=\"stim\">BARREL</p>", "key_press": -1, "type": "PRES_VIS", "word": "barrel", "wordID": 90, "conditions": [18, 1200, "v", 18000], "trial": 0, "serialpos": 1, "trial_type": "single-stim", "trial_index": 22, "time_elapsed": 261551, "internal_node_id": "0.0-13.0"}}, {"uniqueid": "MTK0715:3W92K5RLWVOJ4C8T91T5YJ6MDQN5V7", "current_trial": 23, "dateTime": 1512674353535, "trialdata": {"rt": -1, "stimulus": "<p id=\"stim\">SUNRISE</p>", "key_press": -1, "type": "PRES_VIS", "word": "sunrise", "wordID": 1406, "conditions": [18, 1200, "v", 18000], "trial": 0, "serialpos": 2, "trial_type": "single-stim", "trial_index": 23, "time_elapsed": 263664, "internal_node_id": "0.0-14.0"}}, {"uniqueid": "MTK0715:3W92K5RLWVOJ4C8T91T5YJ6MDQN5V7", "current_trial": 24, "dateTime": 1512674355665, "trialdata": {"rt": -1, "stimulus": "<p id=\"stim\">SUITCASE</p>", "key_press": -1, "type": "PRES_VIS", "word": "suitcase", "wordID": 1402, "conditions": [18, 1200, "v", 18000], "trial": 0, "serialpos": 3, "trial_type": "single-stim", "trial_index": 24, "time_elapsed": 265794, "internal_node_id": "0.0-15.0"}}, {"uniqueid": "MTK0715:3W92K5RLWVOJ4C8T91T5YJ6MDQN5V7", "current_trial": 25, "dateTime": 1512674357754, "trialdata": {"rt": -1, "stimulus": "<p id=\"stim\">SNAKE</p>", "key_press": -1, "type": "PRES_VIS", "word": "snake", "wordID": 1332, "conditions": [18, 1200, "v", 18000], "trial": 0, "serialpos": 4, "trial_type": "single-stim", "trial_index": 25, "time_elapsed": 267883, "internal_node_id": "0.0-16.0"}}, {"uniqueid": "MTK0715:3W92K5RLWVOJ4C8T91T5YJ6MDQN5V7", "current_trial": 26, "dateTime": 1512674359856, "trialdata": {"rt": -1, "stimulus": "<p id=\"stim\">SWAMP</p>", "key_press": -1, "type": "PRES_VIS", "word": "swamp", "wordID": 1415, "conditions": [18, 1200, "v", 18000], "trial": 0, "serialpos": 5, "trial_type": "single-stim", "trial_index": 26, "time_elapsed": 269985, "internal_node_id": "0.0-17.0"}}, {"uniqueid": "MTK0715:3W92K5RLWVOJ4C8T91T5YJ6MDQN5V7", "current_trial": 27, "dateTime": 1512674362171, "trialdata": {"rt": -1, "stimulus": "<p id=\"stim\">TABLE</p>", "key_press": -1, "type": "PRES_VIS", "word": "table", "wordID": 1425, "conditions": [18, 1200, "v", 18000], "trial": 0, "serialpos": 6, "trial_type": "single-stim", "trial_index": 27, "time_elapsed": 272300, "internal_node_id": "0.0-18.0"}}, {"uniqueid": "MTK0715:3W92K5RLWVOJ4C8T91T5YJ6MDQN5V7", "current_trial": 28, "dateTime": 1512674364220, "trialdata": {"rt": -1, "stimulus": "<p id=\"stim\">SCISSORS</p>", "key_press": -1, "type": "PRES_VIS", "word": "scissors", "wordID": 1249, "conditions": [18, 1200, "v", 18000], "trial": 0, "serialpos": 7, "trial_type": "single-stim", "trial_index": 28, "time_elapsed": 274349, "internal_node_id": "0.0-19.0"}}, {"uniqueid": "MTK0715:3W92K5RLWVOJ4C8T91T5YJ6MDQN5V7", "current_trial": 29, "dateTime": 1512674366333, "trialdata": {"rt": -1, "stimulus": "<p id=\"stim\">ZIPPER</p>", "key_press": -1, "type": "PRES_VIS", "word": "zipper", "wordID": 1635, "conditions": [18, 1200, "v", 18000], "trial": 0, "serialpos": 8, "trial_type": "single-stim", "trial_index": 29, "time_elapsed": 276462, "internal_node_id": "0.0-20.0"}}, {"uniqueid": "MTK0715:3W92K5RLWVOJ4C8T91T5YJ6MDQN5V7", "current_trial": 30, "dateTime": 1512674368712, "trialdata": {"rt": -1, "stimulus": "<p id=\"stim\">FINGER</p>", "key_press": -1, "type": "PRES_VIS", "word": "finger", "wordID": 566, "conditions": [18, 1200, "v", 18000], "trial": 0, "serialpos": 9, "trial_type": "single-stim", "trial_index": 30, "time_elapsed": 278841, "internal_node_id": "0.0-21.0"}}, {"uniqueid": "MTK0715:3W92K5RLWVOJ4C8T91T5YJ6MDQN5V7", "current_trial": 31, "dateTime": 1512674370790, "trialdata": {"rt": -1, "stimulus": "<p id=\"stim\">SLIDE</p>", "key_press": -1, "type": "PRES_VIS", "word": "slide", "wordID": 1325, "conditions": [18, 1200, "v", 18000], "trial": 0, "serialpos": 10, "trial_type": "single-stim", "trial_index": 31, "time_elapsed": 280918, "internal_node_id": "0.0-22.0"}}, {"uniqueid": "MTK0715:3W92K5RLWVOJ4C8T91T5YJ6MDQN5V7", "current_trial": 32, "dateTime": 1512674373142, "trialdata": {"rt": -1, "stimulus": "<p id=\"stim\">DRESS</p>", "key_press": -1, "type": "PRES_VIS", "word": "dress", "wordID": 494, "conditions": [18, 1200, "v", 18000], "trial": 0, "serialpos": 11, "trial_type": "single-stim", "trial_index": 32, "time_elapsed": 283271, "internal_node_id": "0.0-23.0"}}, {"uniqueid": "MTK0715:3W92K5RLWVOJ4C8T91T5YJ6MDQN5V7", "current_trial": 33, "dateTime": 1512674375369, "trialdata": {"rt": -1, "stimulus": "<p id=\"stim\">WIDOW</p>", "key_press": -1, "type": "PRES_VIS", "word": "widow", "wordID": 1607, "conditions": [18, 1200, "v", 18000], "trial": 0, "serialpos": 12, "trial_type": "single-stim", "trial_index": 33, "time_elapsed": 285498, "internal_node_id": "0.0-24.0"}}, {"uniqueid": "MTK0715:3W92K5RLWVOJ4C8T91T5YJ6MDQN5V7", "current_trial": 34, "dateTime": 1512674377761, "trialdata": {"rt": -1, "stimulus": "<p id=\"stim\">NAPKIN</p>", "key_press": -1, "type": "PRES_VIS", "word": "napkin", "wordID": 936, "conditions": [18, 1200, "v", 18000], "trial": 0, "serialpos": 13, "trial_type": "single-stim", "trial_index": 34, "time_elapsed": 287890, "internal_node_id": "0.0-25.0"}}, {"uniqueid": "MTK0715:3W92K5RLWVOJ4C8T91T5YJ6MDQN5V7", "current_trial": 35, "dateTime": 1512674380093, "trialdata": {"rt": -1, "stimulus": "<p id=\"stim\">REBEL</p>", "key_press": -1, "type": "PRES_VIS", "word": "rebel", "wordID": 1171, "conditions": [18, 1200, "v", 18000], "trial": 0, "serialpos": 14, "trial_type": "single-stim", "trial_index": 35, "time_elapsed": 290222, "internal_node_id": "0.0-26.0"}}, {"uniqueid": "MTK0715:3W92K5RLWVOJ4C8T91T5YJ6MDQN5V7", "current_trial": 36, "dateTime": 1512674382345, "trialdata": {"rt": -1, "stimulus": "<p id=\"stim\">DANCER</p>", "key_press": -1, "type": "PRES_VIS", "word": "dancer", "wordID": 436, "conditions": [18, 1200, "v", 18000], "trial": 0, "serialpos": 15, "trial_type": "single-stim", "trial_index": 36, "time_elapsed": 292474, "internal_node_id": "0.0-27.0"}}, {"uniqueid": "MTK0715:3W92K5RLWVOJ4C8T91T5YJ6MDQN5V7", "current_trial": 37, "dateTime": 1512674384748, "trialdata": {"rt": -1, "stimulus": "<p id=\"stim\">MONEY</p>", "key_press": -1, "type": "PRES_VIS", "word": "money", "wordID": 907, "conditions": [18, 1200, "v", 18000], "trial": 0, "serialpos": 16, "trial_type": "single-stim", "trial_index": 37, "time_elapsed": 294877, "internal_node_id": "0.0-28.0"}}, {"uniqueid": "MTK0715:3W92K5RLWVOJ4C8T91T5YJ6MDQN5V7", "current_trial": 38, "dateTime": 1512674387128, "trialdata": {"rt": -1, "stimulus": "<p id=\"stim\">PECAN</p>", "key_press": -1, "type": "PRES_VIS", "word": "pecan", "wordID": 1035, "conditions": [18, 1200, "v", 18000], "trial": 0, "serialpos": 17, "trial_type": "single-stim", "trial_index": 38, "time_elapsed": 297257, "internal_node_id": "0.0-29.0"}}, {"uniqueid": "MTK0715:3W92K5RLWVOJ4C8T91T5YJ6MDQN5V7", "current_trial": 39, "dateTime": 1512674389322, "trialdata": {"rt": -1, "stimulus": "", "key_press": -1, "type": "PRE_RECALL_DELAY", "trial_type": "single-stim", "trial_index": 39, "time_elapsed": 299450, "internal_node_id": "0.0-30.0-0.0"}}, {"uniqueid": "MTK0715:3W92K5RLWVOJ4C8T91T5YJ6MDQN5V7", "current_trial": 40, "dateTime": 1512674389826, "trialdata": {"rt": -1000, "stimulus": "/static/audio/400Hz.wav", "key_press": -1, "type": "PRE_RECALL_ALERT", "trial_type": "single-audio", "trial_index": 40, "time_elapsed": 299955, "internal_node_id": "0.0-31.0"}}, {"uniqueid": "MTK0715:3W92K5RLWVOJ4C8T91T5YJ6MDQN5V7", "current_trial": 41, "dateTime": 1512674449833, "trialdata": {"rt": [3475, 5467, 6979, 9442, 11883, 15483, 18267, 36546, 45544], "recwords": ["pecan", "rebel", "money", "zipper", "convict", "sunrise", "suitcase", "", "snake"], "type": "FREE_RECALL", "conditions": [18, 1200, "v", 18000], "trial": 0, "trial_type": "free-recall", "trial_index": 41, "time_elapsed": 359960, "internal_node_id": "0.0-32.0-0.0"}}, {"uniqueid": "MTK0715:3W92K5RLWVOJ4C8T91T5YJ6MDQN5V7", "current_trial": 42, "dateTime": 1512674453660, "trialdata": {"rt": 1822, "key_press": 32, "type": "INSTRUCTIONS", "trial_type": "text", "trial_index": 42, "time_elapsed": 363789, "internal_node_id": "0.0-33.0"}}, {"uniqueid": "MTK0715:3W92K5RLWVOJ4C8T91T5YJ6MDQN5V7", "current_trial": 43, "dateTime": 1512674473666, "trialdata": {"rt": [11628, 14804], "responses": ["15", "18"], "num1": [8, 6, 1], "num2": [6, 4, 8], "num3": [1, 8, 9], "type": "DISTRACTOR", "conditions": [18, 1200, "a", 18000], "trial": 1, "trial_type": "math-distractor", "trial_index": 43, "time_elapsed": 383795, "internal_node_id": "0.0-34.0"}}, {"uniqueid": "MTK0715:3W92K5RLWVOJ4C8T91T5YJ6MDQN5V7", "current_trial": 44, "dateTime": 1512674476676, "trialdata": {"rt": -1, "stimulus": "<p id=\"stim\">10</p>", "key_press": -1, "trial_type": "single-stim", "trial_index": 44, "time_elapsed": 386805, "internal_node_id": "0.0-35.0-0.0"}}, {"uniqueid": "MTK0715:3W92K5RLWVOJ4C8T91T5YJ6MDQN5V7", "current_trial": 45, "dateTime": 1512674477680, "trialdata": {"rt": -1, "stimulus": "<p id=\"stim\">9</p>", "key_press": -1, "trial_type": "single-stim", "trial_index": 45, "time_elapsed": 387809, "internal_node_id": "0.0-35.0-1.0"}}, {"uniqueid": "MTK0715:3W92K5RLWVOJ4C8T91T5YJ6MDQN5V7", "current_trial": 46, "dateTime": 1512674478684, "trialdata": {"rt": -1, "stimulus": "<p id=\"stim\">8</p>", "key_press": -1, "trial_type": "single-stim", "trial_index": 46, "time_elapsed": 388813, "internal_node_id": "0.0-35.0-2.0"}}, {"uniqueid": "MTK0715:3W92K5RLWVOJ4C8T91T5YJ6MDQN5V7", "current_trial": 47, "dateTime": 1512674479688, "trialdata": {"rt": -1, "stimulus": "<p id=\"stim\">7</p>", "key_press": -1, "trial_type": "single-stim", "trial_index": 47, "time_elapsed": 389817, "internal_node_id": "0.0-35.0-3.0"}}, {"uniqueid": "MTK0715:3W92K5RLWVOJ4C8T91T5YJ6MDQN5V7", "current_trial": 48, "dateTime": 1512674480692, "trialdata": {"rt": -1, "stimulus": "<p id=\"stim\">6</p>", "key_press": -1, "trial_type": "single-stim", "trial_index": 48, "time_elapsed": 390821, "internal_node_id": "0.0-35.0-4.0"}}, {"uniqueid": "MTK0715:3W92K5RLWVOJ4C8T91T5YJ6MDQN5V7", "current_trial": 49, "dateTime": 1512674481696, "trialdata": {"rt": -1, "stimulus": "<p id=\"stim\">5</p>", "key_press": -1, "trial_type": "single-stim", "trial_index": 49, "time_elapsed": 391825, "internal_node_id": "0.0-35.0-5.0"}}, {"uniqueid": "MTK0715:3W92K5RLWVOJ4C8T91T5YJ6MDQN5V7", "current_trial": 50, "dateTime": 1512674482700, "trialdata": {"rt": -1, "stimulus": "<p id=\"stim\">4</p>", "key_press": -1, "trial_type": "single-stim", "trial_index": 50, "time_elapsed": 392829, "internal_node_id": "0.0-35.0-6.0"}}, {"uniqueid": "MTK0715:3W92K5RLWVOJ4C8T91T5YJ6MDQN5V7", "current_trial": 51, "dateTime": 1512674483704, "trialdata": {"rt": -1, "stimulus": "<p id=\"stim\">3</p>", "key_press": -1, "trial_type": "single-stim", "trial_index": 51, "time_elapsed": 393833, "internal_node_id": "0.0-35.0-7.0"}}, {"uniqueid": "MTK0715:3W92K5RLWVOJ4C8T91T5YJ6MDQN5V7", "current_trial": 52, "dateTime": 1512674484708, "trialdata": {"rt": -1, "stimulus": "<p id=\"stim\">2</p>", "key_press": -1, "trial_type": "single-stim", "trial_index": 52, "time_elapsed": 394837, "internal_node_id": "0.0-35.0-8.0"}}, {"uniqueid": "MTK0715:3W92K5RLWVOJ4C8T91T5YJ6MDQN5V7", "current_trial": 53, "dateTime": 1512674485713, "trialdata": {"rt": -1, "stimulus": "<p id=\"stim\">1</p>", "key_press": -1, "trial_type": "single-stim", "trial_index": 53, "time_elapsed": 395841, "internal_node_id": "0.0-35.0-9.0"}}, {"uniqueid": "MTK0715:3W92K5RLWVOJ4C8T91T5YJ6MDQN5V7", "current_trial": 54, "dateTime": 1512674487218, "trialdata": {"rt": -1, "stimulus": "<p id=\"stim\">+</p>", "key_press": -1, "type": "FIXATION", "trial_type": "single-stim", "trial_index": 54, "time_elapsed": 397347, "internal_node_id": "0.0-36.0-0.0"}}, {"uniqueid": "MTK0715:3W92K5RLWVOJ4C8T91T5YJ6MDQN5V7", "current_trial": 55, "dateTime": 1512674489342, "trialdata": {"rt": -1000, "stimulus": "/static/audio/wordpool/ORANGE.wav", "key_press": -1, "type": "PRES_AUD", "word": "orange", "wordID": 979, "conditions": [18, 1200, "a", 18000], "trial": 1, "serialpos": 0, "trial_type": "single-audio", "trial_index": 55, "time_elapsed": 399471, "internal_node_id": "0.0-37.0"}}, {"uniqueid": "MTK0715:3W92K5RLWVOJ4C8T91T5YJ6MDQN5V7", "current_trial": 56, "dateTime": 1512674491444, "trialdata": {"rt": -1000, "stimulus": "/static/audio/wordpool/CITRUS.wav", "key_press": -1, "type": "PRES_AUD", "word": "citrus", "wordID": 312, "conditions": [18, 1200, "a", 18000], "trial": 1, "serialpos": 1, "trial_type": "single-audio", "trial_index": 56, "time_elapsed": 401573, "internal_node_id": "0.0-38.0"}}, {"uniqueid": "MTK0715:3W92K5RLWVOJ4C8T91T5YJ6MDQN5V7", "current_trial": 57, "dateTime": 1512674493566, "trialdata": {"rt": -1000, "stimulus": "/static/audio/wordpool/DRAGON.wav", "key_press": -1, "type": "PRES_AUD", "word": "dragon", "wordID": 491, "conditions": [18, 1200, "a", 18000], "trial": 1, "serialpos": 2, "trial_type": "single-audio", "trial_index": 57, "time_elapsed": 403695, "internal_node_id": "0.0-39.0"}}, {"uniqueid": "MTK0715:3W92K5RLWVOJ4C8T91T5YJ6MDQN5V7", "current_trial": 58, "dateTime": 1512674495722, "trialdata": {"rt": -1000, "stimulus": "/static/audio/wordpool/SANDWICH.wav", "key_press": -1, "type": "PRES_AUD", "word": "sandwich", "wordID": 1231, "conditions": [18, 1200, "a", 18000], "trial": 1, "serialpos": 3, "trial_type": "single-audio", "trial_index": 58, "time_elapsed": 405851, "internal_node_id": "0.0-40.0"}}, {"uniqueid": "MTK0715:3W92K5RLWVOJ4C8T91T5YJ6MDQN5V7", "current_trial": 59, "dateTime": 1512674498112, "trialdata": {"rt": -1000, "stimulus": "/static/audio/wordpool/PARSLEY.wav", "key_press": -1, "type": "PRES_AUD", "word": "parsley", "wordID": 1015, "conditions": [18, 1200, "a", 18000], "trial": 1, "serialpos": 4, "trial_type": "single-audio", "trial_index": 59, "time_elapsed": 408240, "internal_node_id": "0.0-41.0"}}, {"uniqueid": "MTK0715:3W92K5RLWVOJ4C8T91T5YJ6MDQN5V7", "current_trial": 60, "dateTime": 1512674500156, "trialdata": {"rt": -1000, "stimulus": "/static/audio/wordpool/SCRIBBLE.wav", "key_press": -1, "type": "PRES_AUD", "word": "scribble", "wordID": 1255, "conditions": [18, 1200, "a", 18000], "trial": 1, "serialpos": 5, "trial_type": "single-audio", "trial_index": 60, "time_elapsed": 410285, "internal_node_id": "0.0-42.0"}}, {"uniqueid": "MTK0715:3W92K5RLWVOJ4C8T91T5YJ6MDQN5V7", "current_trial": 61, "dateTime": 1512674502391, "trialdata": {"rt": -1000, "stimulus": "/static/audio/wordpool/SHOULDER.wav", "key_press": -1, "type": "PRES_AUD", "word": "shoulder", "wordID": 1293, "conditions": [18, 1200, "a", 18000], "trial": 1, "serialpos": 6, "trial_type": "single-audio", "trial_index": 61, "time_elapsed": 412520, "internal_node_id": "0.0-43.0"}}, {"uniqueid": "MTK0715:3W92K5RLWVOJ4C8T91T5YJ6MDQN5V7", "current_trial": 62, "dateTime": 1512674504535, "trialdata": {"rt": -1000, "stimulus": "/static/audio/wordpool/BROOK.wav", "key_press": -1, "type": "PRES_AUD", "word": "brook", "wordID": 176, "conditions": [18, 1200, "a", 18000], "trial": 1, "serialpos": 7, "trial_type": "single-audio", "trial_index": 62, "time_elapsed": 414663, "internal_node_id": "0.0-44.0"}}, {"uniqueid": "MTK0715:3W92K5RLWVOJ4C8T91T5YJ6MDQN5V7", "current_trial": 63, "dateTime": 1512674506829, "trialdata": {"rt": -1000, "stimulus": "/static/audio/wordpool/HARP.wav", "key_press": -1, "type": "PRES_AUD", "word": "harp", "wordID": 688, "conditions": [18, 1200, "a", 18000], "trial": 1, "serialpos": 8, "trial_type": "single-audio", "trial_index": 63, "time_elapsed": 416957, "internal_node_id": "0.0-45.0"}}, {"uniqueid": "MTK0715:3W92K5RLWVOJ4C8T91T5YJ6MDQN5V7", "current_trial": 64, "dateTime": 1512674509226, "trialdata": {"rt": -1000, "stimulus": "/static/audio/wordpool/LEOPARD.wav", "key_press": -1, "type": "PRES_AUD", "word": "leopard", "wordID": 811, "conditions": [18, 1200, "a", 18000], "trial": 1, "serialpos": 9, "trial_type": "single-audio", "trial_index": 64, "time_elapsed": 419355, "internal_node_id": "0.0-46.0"}}, {"uniqueid": "MTK0715:3W92K5RLWVOJ4C8T91T5YJ6MDQN5V7", "current_trial": 65, "dateTime": 1512674511585, "trialdata": {"rt": -1000, "stimulus": "/static/audio/wordpool/LABEL.wav", "key_press": -1, "type": "PRES_AUD", "word": "label", "wordID": 789, "conditions": [18, 1200, "a", 18000], "trial": 1, "serialpos": 10, "trial_type": "single-audio", "trial_index": 65, "time_elapsed": 421713, "internal_node_id": "0.0-47.0"}}, {"uniqueid": "MTK0715:3W92K5RLWVOJ4C8T91T5YJ6MDQN5V7", "current_trial": 66, "dateTime": 1512674513931, "trialdata": {"rt": -1000, "stimulus": "/static/audio/wordpool/RABBIT.wav", "key_press": -1, "type": "PRES_AUD", "word": "rabbit", "wordID": 1151, "conditions": [18, 1200, "a", 18000], "trial": 1, "serialpos": 11, "trial_type": "single-audio", "trial_index": 66, "time_elapsed": 424060, "internal_node_id": "0.0-48.0"}}, {"uniqueid": "MTK0715:3W92K5RLWVOJ4C8T91T5YJ6MDQN5V7", "current_trial": 67, "dateTime": 1512674516013, "trialdata": {"rt": -1000, "stimulus": "/static/audio/wordpool/OYSTER.wav", "key_press": -1, "type": "PRES_AUD", "word": "oyster", "wordID": 994, "conditions": [18, 1200, "a", 18000], "trial": 1, "serialpos": 12, "trial_type": "single-audio", "trial_index": 67, "time_elapsed": 426142, "internal_node_id": "0.0-49.0"}}, {"uniqueid": "MTK0715:3W92K5RLWVOJ4C8T91T5YJ6MDQN5V7", "current_trial": 68, "dateTime": 1512674518327, "trialdata": {"rt": -1000, "stimulus": "/static/audio/wordpool/COBRA.wav", "key_press": -1, "type": "PRES_AUD", "word": "cobra", "wordID": 335, "conditions": [18, 1200, "a", 18000], "trial": 1, "serialpos": 13, "trial_type": "single-audio", "trial_index": 68, "time_elapsed": 428454, "internal_node_id": "0.0-50.0"}}, {"uniqueid": "MTK0715:3W92K5RLWVOJ4C8T91T5YJ6MDQN5V7", "current_trial": 69, "dateTime": 1512674520610, "trialdata": {"rt": -1000, "stimulus": "/static/audio/wordpool/STATUE.wav", "key_press": -1, "type": "PRES_AUD", "word": "statue", "wordID": 1373, "conditions": [18, 1200, "a", 18000], "trial": 1, "serialpos": 14, "trial_type": "single-audio", "trial_index": 69, "time_elapsed": 430739, "internal_node_id": "0.0-51.0"}}, {"uniqueid": "MTK0715:3W92K5RLWVOJ4C8T91T5YJ6MDQN5V7", "current_trial": 70, "dateTime": 1512674522664, "trialdata": {"rt": -1000, "stimulus": "/static/audio/wordpool/SCARF.wav", "key_press": -1, "type": "PRES_AUD", "word": "scarf", "wordID": 1245, "conditions": [18, 1200, "a", 18000], "trial": 1, "serialpos": 15, "trial_type": "single-audio", "trial_index": 70, "time_elapsed": 432792, "internal_node_id": "0.0-52.0"}}, {"uniqueid": "MTK0715:3W92K5RLWVOJ4C8T91T5YJ6MDQN5V7", "current_trial": 71, "dateTime": 1512674524844, "trialdata": {"rt": -1000, "stimulus": "/static/audio/wordpool/PUDDING.wav", "key_press": -1, "type": "PRES_AUD", "word": "pudding", "wordID": 1138, "conditions": [18, 1200, "a", 18000], "trial": 1, "serialpos": 16, "trial_type": "single-audio", "trial_index": 71, "time_elapsed": 434973, "internal_node_id": "0.0-53.0"}}, {"uniqueid": "MTK0715:3W92K5RLWVOJ4C8T91T5YJ6MDQN5V7", "current_trial": 72, "dateTime": 1512674527240, "trialdata": {"rt": -1000, "stimulus": "/static/audio/wordpool/SHELTER.wav", "key_press": -1, "type": "PRES_AUD", "word": "shelter", "wordID": 1281, "conditions": [18, 1200, "a", 18000], "trial": 1, "serialpos": 17, "trial_type": "single-audio", "trial_index": 72, "time_elapsed": 437369, "internal_node_id": "0.0-54.0"}}, {"uniqueid": "MTK0715:3W92K5RLWVOJ4C8T91T5YJ6MDQN5V7", "current_trial": 73, "dateTime": 1512674528618, "trialdata": {"rt": -1, "stimulus": "", "key_press": -1, "type": "PRE_RECALL_DELAY", "trial_type": "single-stim", "trial_index": 73, "time_elapsed": 438747, "internal_node_id": "0.0-55.0-0.0"}}, {"uniqueid": "MTK0715:3W92K5RLWVOJ4C8T91T5YJ6MDQN5V7", "current_trial": 74, "dateTime": 1512674529119, "trialdata": {"rt": -1000, "stimulus": "/static/audio/400Hz.wav", "key_press": -1, "type": "PRE_RECALL_ALERT", "trial_type": "single-audio", "trial_index": 74, "time_elapsed": 439248, "internal_node_id": "0.0-56.0"}}, {"uniqueid": "MTK0715:3W92K5RLWVOJ4C8T91T5YJ6MDQN5V7", "current_trial": 75, "dateTime": 1512674589125, "trialdata": {"rt": [2067, 3682, 5891, 8291, 11203, 17643, 23187, 29866, 31298, 45586], "recwords": ["pudding", "shelter", "cobra", "orange", "citrus", "statue", "shelter", "brook", "dragon", "parsley"], "type": "FREE_RECALL", "conditions": [18, 1200, "a", 18000], "trial": 1, "trial_type": "free-recall", "trial_index": 75, "time_elapsed": 499252, "internal_node_id": "0.0-57.0-0.0"}}, {"uniqueid": "MTK0715:3W92K5RLWVOJ4C8T91T5YJ6MDQN5V7", "current_trial": 76, "dateTime": 1512674592868, "trialdata": {"rt": 1737, "key_press": 32, "type": "INSTRUCTIONS", "trial_type": "text", "trial_index": 76, "time_elapsed": 502994, "internal_node_id": "0.0-58.0"}}, {"uniqueid": "MTK0715:3W92K5RLWVOJ4C8T91T5YJ6MDQN5V7", "current_trial": 77, "dateTime": 1512674605879, "trialdata": {"rt": [10095], "responses": ["23"], "num1": [6, 9], "num2": [9, 4], "num3": [8, 3], "type": "DISTRACTOR", "conditions": [12, 1600, "a", 12000], "trial": 2, "trial_type": "math-distractor", "trial_index": 77, "time_elapsed": 516008, "internal_node_id": "0.0-59.0"}}, {"uniqueid": "MTK0715:3W92K5RLWVOJ4C8T91T5YJ6MDQN5V7", "current_trial": 78, "dateTime": 1512674608888, "trialdata": {"rt": -1, "stimulus": "<p id=\"stim\">10</p>", "key_press": -1, "trial_type": "single-stim", "trial_index": 78, "time_elapsed": 519016, "internal_node_id": "0.0-60.0-0.0"}}, {"uniqueid": "MTK0715:3W92K5RLWVOJ4C8T91T5YJ6MDQN5V7", "current_trial": 79, "dateTime": 1512674609892, "trialdata": {"rt": -1, "stimulus": "<p id=\"stim\">9</p>", "key_press": -1, "trial_type": "single-stim", "trial_index": 79, "time_elapsed": 520021, "internal_node_id": "0.0-60.0-1.0"}}, {"uniqueid": "MTK0715:3W92K5RLWVOJ4C8T91T5YJ6MDQN5V7", "current_trial": 80, "dateTime": 1512674610896, "trialdata": {"rt": -1, "stimulus": "<p id=\"stim\">8</p>", "key_press": -1, "trial_type": "single-stim", "trial_index": 80, "time_elapsed": 521025, "internal_node_id": "0.0-60.0-2.0"}}, {"uniqueid": "MTK0715:3W92K5RLWVOJ4C8T91T5YJ6MDQN5V7", "current_trial": 81, "dateTime": 1512674611900, "trialdata": {"rt": -1, "stimulus": "<p id=\"stim\">7</p>", "key_press": -1, "trial_type": "single-stim", "trial_index": 81, "time_elapsed": 522029, "internal_node_id": "0.0-60.0-3.0"}}, {"uniqueid": "MTK0715:3W92K5RLWVOJ4C8T91T5YJ6MDQN5V7", "current_trial": 82, "dateTime": 1512674612904, "trialdata": {"rt": -1, "stimulus": "<p id=\"stim\">6</p>", "key_press": -1, "trial_type": "single-stim", "trial_index": 82, "time_elapsed": 523033, "internal_node_id": "0.0-60.0-4.0"}}, {"uniqueid": "MTK0715:3W92K5RLWVOJ4C8T91T5YJ6MDQN5V7", "current_trial": 83, "dateTime": 1512674613908, "trialdata": {"rt": -1, "stimulus": "<p id=\"stim\">5</p>", "key_press": -1, "trial_type": "single-stim", "trial_index": 83, "time_elapsed": 524037, "internal_node_id": "0.0-60.0-5.0"}}, {"uniqueid": "MTK0715:3W92K5RLWVOJ4C8T91T5YJ6MDQN5V7", "current_trial": 84, "dateTime": 1512674614913, "trialdata": {"rt": -1, "stimulus": "<p id=\"stim\">4</p>", "key_press": -1, "trial_type": "single-stim", "trial_index": 84, "time_elapsed": 525042, "internal_node_id": "0.0-60.0-6.0"}}, {"uniqueid": "MTK0715:3W92K5RLWVOJ4C8T91T5YJ6MDQN5V7", "current_trial": 85, "dateTime": 1512674615915, "trialdata": {"rt": -1, "stimulus": "<p id=\"stim\">3</p>", "key_press": -1, "trial_type": "single-stim", "trial_index": 85, "time_elapsed": 526044, "internal_node_id": "0.0-60.0-7.0"}}, {"uniqueid": "MTK0715:3W92K5RLWVOJ4C8T91T5YJ6MDQN5V7", "current_trial": 86, "dateTime": 1512674616921, "trialdata": {"rt": -1, "stimulus": "<p id=\"stim\">2</p>", "key_press": -1, "trial_type": "single-stim", "trial_index": 86, "time_elapsed": 527050, "internal_node_id": "0.0-60.0-8.0"}}, {"uniqueid": "MTK0715:3W92K5RLWVOJ4C8T91T5YJ6MDQN5V7", "current_trial": 87, "dateTime": 1512674617923, "trialdata": {"rt": -1, "stimulus": "<p id=\"stim\">1</p>", "key_press": -1, "trial_type": "single-stim", "trial_index": 87, "time_elapsed": 528052, "internal_node_id": "0.0-60.0-9.0"}}, {"uniqueid": "MTK0715:3W92K5RLWVOJ4C8T91T5YJ6MDQN5V7", "current_trial": 88, "dateTime": 1512674619428, "trialdata": {"rt": -1, "stimulus": "<p id=\"stim\">+</p>", "key_press": -1, "type": "FIXATION", "trial_type": "single-stim", "trial_index": 88, "time_elapsed": 529557, "internal_node_id": "0.0-61.0-0.0"}}, {"uniqueid": "MTK0715:3W92K5RLWVOJ4C8T91T5YJ6MDQN5V7", "current_trial": 89, "dateTime": 1512674622149, "trialdata": {"rt": -1000, "stimulus": "/static/audio/wordpool/HAWK.wav", "key_press": -1, "type": "PRES_AUD", "word": "hawk", "wordID": 691, "conditions": [12, 1600, "a", 12000], "trial": 2, "serialpos": 0, "trial_type": "single-audio", "trial_index": 89, "time_elapsed": 532278, "internal_node_id": "0.0-62.0"}}, {"uniqueid": "MTK0715:3W92K5RLWVOJ4C8T91T5YJ6MDQN5V7", "current_trial": 90, "dateTime": 1512674624585, "trialdata": {"rt": -1000, "stimulus": "/static/audio/wordpool/AIRPLANE.wav", "key_press": -1, "type": "PRES_AUD", "word": "airplane", "wordID": 11, "conditions": [12, 1600, "a", 12000], "trial": 2, "serialpos": 1, "trial_type": "single-audio", "trial_index": 90, "time_elapsed": 534714, "internal_node_id": "0.0-63.0"}}, {"uniqueid": "MTK0715:3W92K5RLWVOJ4C8T91T5YJ6MDQN5V7", "current_trial": 91, "dateTime": 1512674627063, "trialdata": {"rt": -1000, "stimulus": "/static/audio/wordpool/PLATE.wav", "key_press": -1, "type": "PRES_AUD", "word": "plate", "wordID": 1085, "conditions": [12, 1600, "a", 12000], "trial": 2, "serialpos": 2, "trial_type": "single-audio", "trial_index": 91, "time_elapsed": 537192, "internal_node_id": "0.0-64.0"}}, {"uniqueid": "MTK0715:3W92K5RLWVOJ4C8T91T5YJ6MDQN5V7", "current_trial": 92, "dateTime": 1512674629561, "trialdata": {"rt": -1000, "stimulus": "/static/audio/wordpool/PERMIT.wav", "key_press": -1, "type": "PRES_AUD", "word": "permit", "wordID": 1050, "conditions": [12, 1600, "a", 12000], "trial": 2, "serialpos": 3, "trial_type": "single-audio", "trial_index": 92, "time_elapsed": 539690, "internal_node_id": "0.0-65.0"}}, {"uniqueid": "MTK0715:3W92K5RLWVOJ4C8T91T5YJ6MDQN5V7", "current_trial": 93, "dateTime": 1512674632157, "trialdata": {"rt": -1000, "stimulus": "/static/audio/wordpool/LAPEL.wav", "key_press": -1, "type": "PRES_AUD", "word": "lapel", "wordID": 799, "conditions": [12, 1600, "a", 12000], "trial": 2, "serialpos": 4, "trial_type": "single-audio", "trial_index": 93, "time_elapsed": 542286, "internal_node_id": "0.0-66.0"}}, {"uniqueid": "MTK0715:3W92K5RLWVOJ4C8T91T5YJ6MDQN5V7", "current_trial": 94, "dateTime": 1512674634563, "trialdata": {"rt": -1000, "stimulus": "/static/audio/wordpool/TURNIP.wav", "key_press": -1, "type": "PRES_AUD", "word": "turnip", "wordID": 1520, "conditions": [12, 1600, "a", 12000], "trial": 2, "serialpos": 5, "trial_type": "single-audio", "trial_index": 94, "time_elapsed": 544692, "internal_node_id": "0.0-67.0"}}, {"uniqueid": "MTK0715:3W92K5RLWVOJ4C8T91T5YJ6MDQN5V7", "current_trial": 95, "dateTime": 1512674636981, "trialdata": {"rt": -1000, "stimulus": "/static/audio/wordpool/SISTER.wav", "key_press": -1, "type": "PRES_AUD", "word": "sister", "wordID": 1311, "conditions": [12, 1600, "a", 12000], "trial": 2, "serialpos": 6, "trial_type": "single-audio", "trial_index": 95, "time_elapsed": 547110, "internal_node_id": "0.0-68.0"}}, {"uniqueid": "MTK0715:3W92K5RLWVOJ4C8T91T5YJ6MDQN5V7", "current_trial": 96, "dateTime": 1512674639411, "trialdata": {"rt": -1000, "stimulus": "/static/audio/wordpool/BUG.wav", "key_press": -1, "type": "PRES_AUD", "word": "bug", "wordID": 186, "conditions": [12, 1600, "a", 12000], "trial": 2, "serialpos": 7, "trial_type": "single-audio", "trial_index": 96, "time_elapsed": 549540, "internal_node_id": "0.0-69.0"}}, {"uniqueid": "MTK0715:3W92K5RLWVOJ4C8T91T5YJ6MDQN5V7", "current_trial": 97, "dateTime": 1512674641986, "trialdata": {"rt": -1000, "stimulus": "/static/audio/wordpool/VIRUS.wav", "key_press": -1, "type": "PRES_AUD", "word": "virus", "wordID": 1571, "conditions": [12, 1600, "a", 12000], "trial": 2, "serialpos": 8, "trial_type": "single-audio", "trial_index": 97, "time_elapsed": 552115, "internal_node_id": "0.0-70.0"}}, {"uniqueid": "MTK0715:3W92K5RLWVOJ4C8T91T5YJ6MDQN5V7", "current_trial": 98, "dateTime": 1512674644574, "trialdata": {"rt": -1000, "stimulus": "/static/audio/wordpool/DONOR.wav", "key_press": -1, "type": "PRES_AUD", "word": "donor", "wordID": 484, "conditions": [12, 1600, "a", 12000], "trial": 2, "serialpos": 9, "trial_type": "single-audio", "trial_index": 98, "time_elapsed": 554703, "internal_node_id": "0.0-71.0"}}, {"uniqueid": "MTK0715:3W92K5RLWVOJ4C8T91T5YJ6MDQN5V7", "current_trial": 99, "dateTime": 1512674647057, "trialdata": {"rt": -1000, "stimulus": "/static/audio/wordpool/BROTHER.wav", "key_press": -1, "type": "PRES_AUD", "word": "brother", "wordID": 178, "conditions": [12, 1600, "a", 12000], "trial": 2, "serialpos": 10, "trial_type": "single-audio", "trial_index": 99, "time_elapsed": 557186, "internal_node_id": "0.0-72.0"}}, {"uniqueid": "MTK0715:3W92K5RLWVOJ4C8T91T5YJ6MDQN5V7", "current_trial": 100, "dateTime": 1512674649807, "trialdata": {"rt": -1000, "stimulus": "/static/audio/wordpool/LODGE.wav", "key_press": -1, "type": "PRES_AUD", "word": "lodge", "wordID": 838, "conditions": [12, 1600, "a", 12000], "trial": 2, "serialpos": 11, "trial_type": "single-audio", "trial_index": 100, "time_elapsed": 559936, "internal_node_id": "0.0-73.0"}}, {"uniqueid": "MTK0715:3W92K5RLWVOJ4C8T91T5YJ6MDQN5V7", "current_trial": 101, "dateTime": 1512674651131, "trialdata": {"rt": -1, "stimulus": "", "key_press": -1, "type": "PRE_RECALL_DELAY", "trial_type": "single-stim", "trial_index": 101, "time_elapsed": 561260, "internal_node_id": "0.0-74.0-0.0"}}, {"uniqueid": "MTK0715:3W92K5RLWVOJ4C8T91T5YJ6MDQN5V7", "current_trial": 102, "dateTime": 1512674651632, "trialdata": {"rt": -1000, "stimulus": "/static/audio/400Hz.wav", "key_press": -1, "type": "PRE_RECALL_ALERT", "trial_type": "single-audio", "trial_index": 102, "time_elapsed": 561761, "internal_node_id": "0.0-75.0"}}, {"uniqueid": "MTK0715:3W92K5RLWVOJ4C8T91T5YJ6MDQN5V7", "current_trial": 103, "dateTime": 1512674711638, "trialdata": {"rt": [1495, 2607, 4391, 6167, 8687, 10055, 21311, 26191], "recwords": ["brother", "doner", "hawk", "airplane", "lodge", "sister", "hawk", "virus"], "type": "FREE_RECALL", "conditions": [12, 1600, "a", 12000], "trial": 2, "trial_type": "free-recall", "trial_index": 103, "time_elapsed": 621766, "internal_node_id": "0.0-76.0-0.0"}}, {"uniqueid": "MTK0715:3W92K5RLWVOJ4C8T91T5YJ6MDQN5V7", "current_trial": 104, "dateTime": 1512674715295, "trialdata": {"rt": 1653, "key_press": 32, "type": "INSTRUCTIONS", "trial_type": "text", "trial_index": 104, "time_elapsed": 625423, "internal_node_id": "0.0-77.0"}}, {"uniqueid": "MTK0715:3W92K5RLWVOJ4C8T91T5YJ6MDQN5V7", "current_trial": 105, "dateTime": 1512674729304, "trialdata": {"rt": [4691, 8796, 11091], "responses": ["24", "14", "11"], "num1": [8, 1, 1, 2], "num2": [6, 9, 8, 4], "num3": [8, 4, 2, 2], "type": "DISTRACTOR", "conditions": [24, 800, "a", 12000], "trial": 3, "trial_type": "math-distractor", "trial_index": 105, "time_elapsed": 639433, "internal_node_id": "0.0-78.0"}}, {"uniqueid": "MTK0715:3W92K5RLWVOJ4C8T91T5YJ6MDQN5V7", "current_trial": 106, "dateTime": 1512674732313, "trialdata": {"rt": -1, "stimulus": "<p id=\"stim\">10</p>", "key_press": -1, "trial_type": "single-stim", "trial_index": 106, "time_elapsed": 642442, "internal_node_id": "0.0-79.0-0.0"}}, {"uniqueid": "MTK0715:3W92K5RLWVOJ4C8T91T5YJ6MDQN5V7", "current_trial": 107, "dateTime": 1512674733317, "trialdata": {"rt": -1, "stimulus": "<p id=\"stim\">9</p>", "key_press": -1, "trial_type": "single-stim", "trial_index": 107, "time_elapsed": 643446, "internal_node_id": "0.0-79.0-1.0"}}, {"uniqueid": "MTK0715:3W92K5RLWVOJ4C8T91T5YJ6MDQN5V7", "current_trial": 108, "dateTime": 1512674734321, "trialdata": {"rt": -1, "stimulus": "<p id=\"stim\">8</p>", "key_press": -1, "trial_type": "single-stim", "trial_index": 108, "time_elapsed": 644449, "internal_node_id": "0.0-79.0-2.0"}}, {"uniqueid": "MTK0715:3W92K5RLWVOJ4C8T91T5YJ6MDQN5V7", "current_trial": 109, "dateTime": 1512674735325, "trialdata": {"rt": -1, "stimulus": "<p id=\"stim\">7</p>", "key_press": -1, "trial_type": "single-stim", "trial_index": 109, "time_elapsed": 645454, "internal_node_id": "0.0-79.0-3.0"}}, {"uniqueid": "MTK0715:3W92K5RLWVOJ4C8T91T5YJ6MDQN5V7", "current_trial": 110, "dateTime": 1512674736329, "trialdata": {"rt": -1, "stimulus": "<p id=\"stim\">6</p>", "key_press": -1, "trial_type": "single-stim", "trial_index": 110, "time_elapsed": 646458, "internal_node_id": "0.0-79.0-4.0"}}, {"uniqueid": "MTK0715:3W92K5RLWVOJ4C8T91T5YJ6MDQN5V7", "current_trial": 111, "dateTime": 1512674737333, "trialdata": {"rt": -1, "stimulus": "<p id=\"stim\">5</p>", "key_press": -1, "trial_type": "single-stim", "trial_index": 111, "time_elapsed": 647462, "internal_node_id": "0.0-79.0-5.0"}}, {"uniqueid": "MTK0715:3W92K5RLWVOJ4C8T91T5YJ6MDQN5V7", "current_trial": 112, "dateTime": 1512674738338, "trialdata": {"rt": -1, "stimulus": "<p id=\"stim\">4</p>", "key_press": -1, "trial_type": "single-stim", "trial_index": 112, "time_elapsed": 648466, "internal_node_id": "0.0-79.0-6.0"}}, {"uniqueid": "MTK0715:3W92K5RLWVOJ4C8T91T5YJ6MDQN5V7", "current_trial": 113, "dateTime": 1512674739341, "trialdata": {"rt": -1, "stimulus": "<p id=\"stim\">3</p>", "key_press": -1, "trial_type": "single-stim", "trial_index": 113, "time_elapsed": 649470, "internal_node_id": "0.0-79.0-7.0"}}, {"uniqueid": "MTK0715:3W92K5RLWVOJ4C8T91T5YJ6MDQN5V7", "current_trial": 114, "dateTime": 1512674740346, "trialdata": {"rt": -1, "stimulus": "<p id=\"stim\">2</p>", "key_press": -1, "trial_type": "single-stim", "trial_index": 114, "time_elapsed": 650474, "internal_node_id": "0.0-79.0-8.0"}}, {"uniqueid": "MTK0715:3W92K5RLWVOJ4C8T91T5YJ6MDQN5V7", "current_trial": 115, "dateTime": 1512674741350, "trialdata": {"rt": -1, "stimulus": "<p id=\"stim\">1</p>", "key_press": -1, "trial_type": "single-stim", "trial_index": 115, "time_elapsed": 651479, "internal_node_id": "0.0-79.0-9.0"}}, {"uniqueid": "MTK0715:3W92K5RLWVOJ4C8T91T5YJ6MDQN5V7", "current_trial": 116, "dateTime": 1512674742853, "trialdata": {"rt": -1, "stimulus": "<p id=\"stim\">+</p>", "key_press": -1, "type": "FIXATION", "trial_type": "single-stim", "trial_index": 116, "time_elapsed": 652982, "internal_node_id": "0.0-80.0-0.0"}}, {"uniqueid": "MTK0715:3W92K5RLWVOJ4C8T91T5YJ6MDQN5V7", "current_trial": 117, "dateTime": 1512674744456, "trialdata": {"rt": -1000, "stimulus": "/static/audio/wordpool/CHAUFFEUR.wav", "key_press": -1, "type": "PRES_AUD", "word": "chauffeur", "wordID": 282, "conditions": [24, 800, "a", 12000], "trial": 3, "serialpos": 0, "trial_type": "single-audio", "trial_index": 117, "time_elapsed": 654585, "internal_node_id": "0.0-81.0"}}, {"uniqueid": "MTK0715:3W92K5RLWVOJ4C8T91T5YJ6MDQN5V7", "current_trial": 118, "dateTime": 1512674746252, "trialdata": {"rt": -1000, "stimulus": "/static/audio/wordpool/CUSTARD.wav", "key_press": -1, "type": "PRES_AUD", "word": "custard", "wordID": 428, "conditions": [24, 800, "a", 12000], "trial": 3, "serialpos": 1, "trial_type": "single-audio", "trial_index": 118, "time_elapsed": 656380, "internal_node_id": "0.0-82.0"}}, {"uniqueid": "MTK0715:3W92K5RLWVOJ4C8T91T5YJ6MDQN5V7", "current_trial": 119, "dateTime": 1512674747935, "trialdata": {"rt": -1000, "stimulus": "/static/audio/wordpool/PEACH.wav", "key_press": -1, "type": "PRES_AUD", "word": "peach", "wordID": 1030, "conditions": [24, 800, "a", 12000], "trial": 3, "serialpos": 2, "trial_type": "single-audio", "trial_index": 119, "time_elapsed": 658064, "internal_node_id": "0.0-83.0"}}, {"uniqueid": "MTK0715:3W92K5RLWVOJ4C8T91T5YJ6MDQN5V7", "current_trial": 120, "dateTime": 1512674749755, "trialdata": {"rt": -1000, "stimulus": "/static/audio/wordpool/FUNGUS.wav", "key_press": -1, "type": "PRES_AUD", "word": "fungus", "wordID": 613, "conditions": [24, 800, "a", 12000], "trial": 3, "serialpos": 3, "trial_type": "single-audio", "trial_index": 120, "time_elapsed": 659884, "internal_node_id": "0.0-84.0"}}, {"uniqueid": "MTK0715:3W92K5RLWVOJ4C8T91T5YJ6MDQN5V7", "current_trial": 121, "dateTime": 1512674751592, "trialdata": {"rt": -1000, "stimulus": "/static/audio/wordpool/TERMITE.wav", "key_press": -1, "type": "PRES_AUD", "word": "termite", "wordID": 1450, "conditions": [24, 800, "a", 12000], "trial": 3, "serialpos": 4, "trial_type": "single-audio", "trial_index": 121, "time_elapsed": 661721, "internal_node_id": "0.0-85.0"}}, {"uniqueid": "MTK0715:3W92K5RLWVOJ4C8T91T5YJ6MDQN5V7", "current_trial": 122, "dateTime": 1512674753283, "trialdata": {"rt": -1000, "stimulus": "/static/audio/wordpool/STALLION.wav", "key_press": -1, "type": "PRES_AUD", "word": "stallion", "wordID": 1368, "conditions": [24, 800, "a", 12000], "trial": 3, "serialpos": 5, "trial_type": "single-audio", "trial_index": 122, "time_elapsed": 663412, "internal_node_id": "0.0-86.0"}}, {"uniqueid": "MTK0715:3W92K5RLWVOJ4C8T91T5YJ6MDQN5V7", "current_trial": 123, "dateTime": 1512674755210, "trialdata": {"rt": -1000, "stimulus": "/static/audio/wordpool/BRANCH.wav", "key_press": -1, "type": "PRES_AUD", "word": "branch", "wordID": 167, "conditions": [24, 800, "a", 12000], "trial": 3, "serialpos": 6, "trial_type": "single-audio", "trial_index": 123, "time_elapsed": 665338, "internal_node_id": "0.0-87.0"}}, {"uniqueid": "MTK0715:3W92K5RLWVOJ4C8T91T5YJ6MDQN5V7", "current_trial": 124, "dateTime": 1512674757184, "trialdata": {"rt": -1000, "stimulus": "/static/audio/wordpool/PASTA.wav", "key_press": -1, "type": "PRES_AUD", "word": "pasta", "wordID": 1020, "conditions": [24, 800, "a", 12000], "trial": 3, "serialpos": 7, "trial_type": "single-audio", "trial_index": 124, "time_elapsed": 667313, "internal_node_id": "0.0-88.0"}}, {"uniqueid": "MTK0715:3W92K5RLWVOJ4C8T91T5YJ6MDQN5V7", "current_trial": 125, "dateTime": 1512674759162, "trialdata": {"rt": -1000, "stimulus": "/static/audio/wordpool/OMELET.wav", "key_press": -1, "type": "PRES_AUD", "word": "omelet", "wordID": 975, "conditions": [24, 800, "a", 12000], "trial": 3, "serialpos": 8, "trial_type": "single-audio", "trial_index": 125, "time_elapsed": 669291, "internal_node_id": "0.0-89.0"}}, {"uniqueid": "MTK0715:3W92K5RLWVOJ4C8T91T5YJ6MDQN5V7", "current_trial": 126, "dateTime": 1512674760902, "trialdata": {"rt": -1000, "stimulus": "/static/audio/wordpool/OUTFIT.wav", "key_press": -1, "type": "PRES_AUD", "word": "outfit", "wordID": 987, "conditions": [24, 800, "a", 12000], "trial": 3, "serialpos": 9, "trial_type": "single-audio", "trial_index": 126, "time_elapsed": 671031, "internal_node_id": "0.0-90.0"}}, {"uniqueid": "MTK0715:3W92K5RLWVOJ4C8T91T5YJ6MDQN5V7", "current_trial": 127, "dateTime": 1512674762600, "trialdata": {"rt": -1000, "stimulus": "/static/audio/wordpool/SPARROW.wav", "key_press": -1, "type": "PRES_AUD", "word": "sparrow", "wordID": 1346, "conditions": [24, 800, "a", 12000], "trial": 3, "serialpos": 10, "trial_type": "single-audio", "trial_index": 127, "time_elapsed": 672729, "internal_node_id": "0.0-91.0"}}, {"uniqueid": "MTK0715:3W92K5RLWVOJ4C8T91T5YJ6MDQN5V7", "current_trial": 128, "dateTime": 1512674764406, "trialdata": {"rt": -1000, "stimulus": "/static/audio/wordpool/MAILBOX.wav", "key_press": -1, "type": "PRES_AUD", "word": "mailbox", "wordID": 856, "conditions": [24, 800, "a", 12000], "trial": 3, "serialpos": 11, "trial_type": "single-audio", "trial_index": 128, "time_elapsed": 674535, "internal_node_id": "0.0-92.0"}}, {"uniqueid": "MTK0715:3W92K5RLWVOJ4C8T91T5YJ6MDQN5V7", "current_trial": 129, "dateTime": 1512674766026, "trialdata": {"rt": -1000, "stimulus": "/static/audio/wordpool/MAMMAL.wav", "key_press": -1, "type": "PRES_AUD", "word": "mammal", "wordID": 860, "conditions": [24, 800, "a", 12000], "trial": 3, "serialpos": 12, "trial_type": "single-audio", "trial_index": 129, "time_elapsed": 676155, "internal_node_id": "0.0-93.0"}}, {"uniqueid": "MTK0715:3W92K5RLWVOJ4C8T91T5YJ6MDQN5V7", "current_trial": 130, "dateTime": 1512674767932, "trialdata": {"rt": -1000, "stimulus": "/static/audio/wordpool/HEADBAND.wav", "key_press": -1, "type": "PRES_AUD", "word": "headband", "wordID": 695, "conditions": [24, 800, "a", 12000], "trial": 3, "serialpos": 13, "trial_type": "single-audio", "trial_index": 130, "time_elapsed": 678060, "internal_node_id": "0.0-94.0"}}, {"uniqueid": "MTK0715:3W92K5RLWVOJ4C8T91T5YJ6MDQN5V7", "current_trial": 131, "dateTime": 1512674769660, "trialdata": {"rt": -1000, "stimulus": "/static/audio/wordpool/COUCH.wav", "key_press": -1, "type": "PRES_AUD", "word": "couch", "wordID": 385, "conditions": [24, 800, "a", 12000], "trial": 3, "serialpos": 14, "trial_type": "single-audio", "trial_index": 131, "time_elapsed": 679789, "internal_node_id": "0.0-95.0"}}, {"uniqueid": "MTK0715:3W92K5RLWVOJ4C8T91T5YJ6MDQN5V7", "current_trial": 132, "dateTime": 1512674771390, "trialdata": {"rt": -1000, "stimulus": "/static/audio/wordpool/ASIA.wav", "key_press": -1, "type": "PRES_AUD", "word": "asia", "wordID": 45, "conditions": [24, 800, "a", 12000], "trial": 3, "serialpos": 15, "trial_type": "single-audio", "trial_index": 132, "time_elapsed": 681519, "internal_node_id": "0.0-96.0"}}, {"uniqueid": "MTK0715:3W92K5RLWVOJ4C8T91T5YJ6MDQN5V7", "current_trial": 133, "dateTime": 1512674773322, "trialdata": {"rt": -1000, "stimulus": "/static/audio/wordpool/PRIMATE.wav", "key_press": -1, "type": "PRES_AUD", "word": "primate", "wordID": 1122, "conditions": [24, 800, "a", 12000], "trial": 3, "serialpos": 16, "trial_type": "single-audio", "trial_index": 133, "time_elapsed": 683451, "internal_node_id": "0.0-97.0"}}, {"uniqueid": "MTK0715:3W92K5RLWVOJ4C8T91T5YJ6MDQN5V7", "current_trial": 134, "dateTime": 1512674775211, "trialdata": {"rt": -1000, "stimulus": "/static/audio/wordpool/PATROL.wav", "key_press": -1, "type": "PRES_AUD", "word": "patrol", "wordID": 1026, "conditions": [24, 800, "a", 12000], "trial": 3, "serialpos": 17, "trial_type": "single-audio", "trial_index": 134, "time_elapsed": 685340, "internal_node_id": "0.0-98.0"}}, {"uniqueid": "MTK0715:3W92K5RLWVOJ4C8T91T5YJ6MDQN5V7", "current_trial": 135, "dateTime": 1512674777193, "trialdata": {"rt": -1000, "stimulus": "/static/audio/wordpool/WOMAN.wav", "key_press": -1, "type": "PRES_AUD", "word": "woman", "wordID": 1619, "conditions": [24, 800, "a", 12000], "trial": 3, "serialpos": 18, "trial_type": "single-audio", "trial_index": 135, "time_elapsed": 687322, "internal_node_id": "0.0-99.0"}}, {"uniqueid": "MTK0715:3W92K5RLWVOJ4C8T91T5YJ6MDQN5V7", "current_trial": 136, "dateTime": 1512674779067, "trialdata": {"rt": -1000, "stimulus": "/static/audio/wordpool/LADY.wav", "key_press": -1, "type": "PRES_AUD", "word": "lady", "wordID": 793, "conditions": [24, 800, "a", 12000], "trial": 3, "serialpos": 19, "trial_type": "single-audio", "trial_index": 136, "time_elapsed": 689196, "internal_node_id": "0.0-100.0"}}, {"uniqueid": "MTK0715:3W92K5RLWVOJ4C8T91T5YJ6MDQN5V7", "current_trial": 137, "dateTime": 1512674780789, "trialdata": {"rt": -1000, "stimulus": "/static/audio/wordpool/PEPPER.wav", "key_press": -1, "type": "PRES_AUD", "word": "pepper", "wordID": 1046, "conditions": [24, 800, "a", 12000], "trial": 3, "serialpos": 20, "trial_type": "single-audio", "trial_index": 137, "time_elapsed": 690918, "internal_node_id": "0.0-101.0"}}, {"uniqueid": "MTK0715:3W92K5RLWVOJ4C8T91T5YJ6MDQN5V7", "current_trial": 138, "dateTime": 1512674782624, "trialdata": {"rt": -1000, "stimulus": "/static/audio/wordpool/BULLET.wav", "key_press": -1, "type": "PRES_AUD", "word": "bullet", "wordID": 193, "conditions": [24, 800, "a", 12000], "trial": 3, "serialpos": 21, "trial_type": "single-audio", "trial_index": 138, "time_elapsed": 692753, "internal_node_id": "0.0-102.0"}}, {"uniqueid": "MTK0715:3W92K5RLWVOJ4C8T91T5YJ6MDQN5V7", "current_trial": 139, "dateTime": 1512674784355, "trialdata": {"rt": -1000, "stimulus": "/static/audio/wordpool/MISSILE.wav", "key_press": -1, "type": "PRES_AUD", "word": "missile", "wordID": 899, "conditions": [24, 800, "a", 12000], "trial": 3, "serialpos": 22, "trial_type": "single-audio", "trial_index": 139, "time_elapsed": 694484, "internal_node_id": "0.0-103.0"}}, {"uniqueid": "MTK0715:3W92K5RLWVOJ4C8T91T5YJ6MDQN5V7", "current_trial": 140, "dateTime": 1512674786022, "trialdata": {"rt": -1000, "stimulus": "/static/audio/wordpool/ISLAND.wav", "key_press": -1, "type": "PRES_AUD", "word": "island", "wordID": 744, "conditions": [24, 800, "a", 12000], "trial": 3, "serialpos": 23, "trial_type": "single-audio", "trial_index": 140, "time_elapsed": 696151, "internal_node_id": "0.0-104.0"}}, {"uniqueid": "MTK0715:3W92K5RLWVOJ4C8T91T5YJ6MDQN5V7", "current_trial": 141, "dateTime": 1512674787323, "trialdata": {"rt": -1, "stimulus": "", "key_press": -1, "type": "PRE_RECALL_DELAY", "trial_type": "single-stim", "trial_index": 141, "time_elapsed": 697452, "internal_node_id": "0.0-105.0-0.0"}}, {"uniqueid": "MTK0715:3W92K5RLWVOJ4C8T91T5YJ6MDQN5V7", "current_trial": 142, "dateTime": 1512674787825, "trialdata": {"rt": 277.3242630386221, "stimulus": "/static/audio/400Hz.wav", "key_press": 80, "type": "PRE_RECALL_ALERT", "trial_type": "single-audio", "trial_index": 142, "time_elapsed": 697954, "internal_node_id": "0.0-106.0"}}, {"uniqueid": "MTK0715:3W92K5RLWVOJ4C8T91T5YJ6MDQN5V7", "current_trial": 143, "dateTime": 1512674847833, "trialdata": {"rt": [1747, 3539, 4810, 6034, 7426, 8930, 13122, 29657, 41313, 52449], "recwords": ["primate", "patrol", "lady", "woman", "couch", "island", "missle", "omlet", "chuaufer", "mailbox"], "type": "FREE_RECALL", "conditions": [24, 800, "a", 12000], "trial": 3, "trial_type": "free-recall", "trial_index": 143, "time_elapsed": 757960, "internal_node_id": "0.0-107.0-0.0"}}, {"uniqueid": "MTK0715:3W92K5RLWVOJ4C8T91T5YJ6MDQN5V7", "current_trial": 144, "dateTime": 1512674851004, "trialdata": {"rt": 1169, "key_press": 32, "type": "INSTRUCTIONS", "trial_type": "text", "trial_index": 144, "time_elapsed": 761133, "internal_node_id": "0.0-108.0"}}, {"uniqueid": "MTK0715:3W92K5RLWVOJ4C8T91T5YJ6MDQN5V7", "current_trial": 145, "dateTime": 1512674865012, "trialdata": {"rt": [3874, 6850, 9258], "responses": ["24", "5", "11"], "num1": [6, 1, 7, 3], "num2": [6, 3, 1, 9], "num3": [6, 1, 3, 9], "type": "DISTRACTOR", "conditions": [12, 800, "v", 12000], "trial": 4, "trial_type": "math-distractor", "trial_index": 145, "time_elapsed": 775141, "internal_node_id": "0.0-109.0"}}, {"uniqueid": "MTK0715:3W92K5RLWVOJ4C8T91T5YJ6MDQN5V7", "current_trial": 146, "dateTime": 1512674868019, "trialdata": {"rt": -1, "stimulus": "<p id=\"stim\">10</p>", "key_press": -1, "trial_type": "single-stim", "trial_index": 146, "time_elapsed": 778148, "internal_node_id": "0.0-110.0-0.0"}}, {"uniqueid": "MTK0715:3W92K5RLWVOJ4C8T91T5YJ6MDQN5V7", "current_trial": 147, "dateTime": 1512674869023, "trialdata": {"rt": -1, "stimulus": "<p id=\"stim\">9</p>", "key_press": -1, "trial_type": "single-stim", "trial_index": 147, "time_elapsed": 779151, "internal_node_id": "0.0-110.0-1.0"}}, {"uniqueid": "MTK0715:3W92K5RLWVOJ4C8T91T5YJ6MDQN5V7", "current_trial": 148, "dateTime": 1512674870027, "trialdata": {"rt": -1, "stimulus": "<p id=\"stim\">8</p>", "key_press": -1, "trial_type": "single-stim", "trial_index": 148, "time_elapsed": 780156, "internal_node_id": "0.0-110.0-2.0"}}, {"uniqueid": "MTK0715:3W92K5RLWVOJ4C8T91T5YJ6MDQN5V7", "current_trial": 149, "dateTime": 1512674871031, "trialdata": {"rt": -1, "stimulus": "<p id=\"stim\">7</p>", "key_press": -1, "trial_type": "single-stim", "trial_index": 149, "time_elapsed": 781160, "internal_node_id": "0.0-110.0-3.0"}}, {"uniqueid": "MTK0715:3W92K5RLWVOJ4C8T91T5YJ6MDQN5V7", "current_trial": 150, "dateTime": 1512674872035, "trialdata": {"rt": -1, "stimulus": "<p id=\"stim\">6</p>", "key_press": -1, "trial_type": "single-stim", "trial_index": 150, "time_elapsed": 782164, "internal_node_id": "0.0-110.0-4.0"}}, {"uniqueid": "MTK0715:3W92K5RLWVOJ4C8T91T5YJ6MDQN5V7", "current_trial": 151, "dateTime": 1512674873039, "trialdata": {"rt": -1, "stimulus": "<p id=\"stim\">5</p>", "key_press": -1, "trial_type": "single-stim", "trial_index": 151, "time_elapsed": 783168, "internal_node_id": "0.0-110.0-5.0"}}, {"uniqueid": "MTK0715:3W92K5RLWVOJ4C8T91T5YJ6MDQN5V7", "current_trial": 152, "dateTime": 1512674874043, "trialdata": {"rt": -1, "stimulus": "<p id=\"stim\">4</p>", "key_press": -1, "trial_type": "single-stim", "trial_index": 152, "time_elapsed": 784172, "internal_node_id": "0.0-110.0-6.0"}}, {"uniqueid": "MTK0715:3W92K5RLWVOJ4C8T91T5YJ6MDQN5V7", "current_trial": 153, "dateTime": 1512674875048, "trialdata": {"rt": -1, "stimulus": "<p id=\"stim\">3</p>", "key_press": -1, "trial_type": "single-stim", "trial_index": 153, "time_elapsed": 785176, "internal_node_id": "0.0-110.0-7.0"}}, {"uniqueid": "MTK0715:3W92K5RLWVOJ4C8T91T5YJ6MDQN5V7", "current_trial": 154, "dateTime": 1512674876051, "trialdata": {"rt": -1, "stimulus": "<p id=\"stim\">2</p>", "key_press": -1, "trial_type": "single-stim", "trial_index": 154, "time_elapsed": 786180, "internal_node_id": "0.0-110.0-8.0"}}, {"uniqueid": "MTK0715:3W92K5RLWVOJ4C8T91T5YJ6MDQN5V7", "current_trial": 155, "dateTime": 1512674877055, "trialdata": {"rt": -1, "stimulus": "<p id=\"stim\">1</p>", "key_press": -1, "trial_type": "single-stim", "trial_index": 155, "time_elapsed": 787184, "internal_node_id": "0.0-110.0-9.0"}}, {"uniqueid": "MTK0715:3W92K5RLWVOJ4C8T91T5YJ6MDQN5V7", "current_trial": 156, "dateTime": 1512674878559, "trialdata": {"rt": -1, "stimulus": "<p id=\"stim\">+</p>", "key_press": -1, "type": "FIXATION", "trial_type": "single-stim", "trial_index": 156, "time_elapsed": 788688, "internal_node_id": "0.0-111.0-0.0"}}, {"uniqueid": "MTK0715:3W92K5RLWVOJ4C8T91T5YJ6MDQN5V7", "current_trial": 157, "dateTime": 1512674879365, "trialdata": {"rt": -1, "stimulus": "<p id=\"stim\">PERFUME</p>", "key_press": -1, "type": "PRES_VIS", "word": "perfume", "wordID": 1048, "conditions": [12, 800, "v", 12000], "trial": 4, "serialpos": 0, "trial_type": "single-stim", "trial_index": 157, "time_elapsed": 789494, "internal_node_id": "0.0-112.0"}}, {"uniqueid": "MTK0715:3W92K5RLWVOJ4C8T91T5YJ6MDQN5V7", "current_trial": 158, "dateTime": 1512674881037, "trialdata": {"rt": -1, "stimulus": "<p id=\"stim\">SHORTCAKE</p>", "key_press": -1, "type": "PRES_VIS", "word": "shortcake", "wordID": 1291, "conditions": [12, 800, "v", 12000], "trial": 4, "serialpos": 1, "trial_type": "single-stim", "trial_index": 158, "time_elapsed": 791166, "internal_node_id": "0.0-113.0"}}, {"uniqueid": "MTK0715:3W92K5RLWVOJ4C8T91T5YJ6MDQN5V7", "current_trial": 159, "dateTime": 1512674882882, "trialdata": {"rt": -1, "stimulus": "<p id=\"stim\">TWEEZERS</p>", "key_press": -1, "type": "PRES_VIS", "word": "tweezers", "wordID": 1525, "conditions": [12, 800, "v", 12000], "trial": 4, "serialpos": 2, "trial_type": "single-stim", "trial_index": 159, "time_elapsed": 793011, "internal_node_id": "0.0-114.0"}}, {"uniqueid": "MTK0715:3W92K5RLWVOJ4C8T91T5YJ6MDQN5V7", "current_trial": 160, "dateTime": 1512674884879, "trialdata": {"rt": -1, "stimulus": "<p id=\"stim\">WASP</p>", "key_press": -1, "type": "PRES_VIS", "word": "wasp", "wordID": 1592, "conditions": [12, 800, "v", 12000], "trial": 4, "serialpos": 3, "trial_type": "single-stim", "trial_index": 160, "time_elapsed": 795008, "internal_node_id": "0.0-115.0"}}, {"uniqueid": "MTK0715:3W92K5RLWVOJ4C8T91T5YJ6MDQN5V7", "current_trial": 161, "dateTime": 1512674886800, "trialdata": {"rt": -1, "stimulus": "<p id=\"stim\">POISON</p>", "key_press": -1, "type": "PRES_VIS", "word": "poison", "wordID": 1095, "conditions": [12, 800, "v", 12000], "trial": 4, "serialpos": 4, "trial_type": "single-stim", "trial_index": 161, "time_elapsed": 796929, "internal_node_id": "0.0-116.0"}}, {"uniqueid": "MTK0715:3W92K5RLWVOJ4C8T91T5YJ6MDQN5V7", "current_trial": 162, "dateTime": 1512674888419, "trialdata": {"rt": -1, "stimulus": "<p id=\"stim\">RECORD</p>", "key_press": -1, "type": "PRES_VIS", "word": "record", "wordID": 1175, "conditions": [12, 800, "v", 12000], "trial": 4, "serialpos": 5, "trial_type": "single-stim", "trial_index": 162, "time_elapsed": 798548, "internal_node_id": "0.0-117.0"}}, {"uniqueid": "MTK0715:3W92K5RLWVOJ4C8T91T5YJ6MDQN5V7", "current_trial": 163, "dateTime": 1512674890265, "trialdata": {"rt": -1, "stimulus": "<p id=\"stim\">AUTHOR</p>", "key_press": -1, "type": "PRES_VIS", "word": "author", "wordID": 60, "conditions": [12, 800, "v", 12000], "trial": 4, "serialpos": 6, "trial_type": "single-stim", "trial_index": 163, "time_elapsed": 800394, "internal_node_id": "0.0-118.0"}}, {"uniqueid": "MTK0715:3W92K5RLWVOJ4C8T91T5YJ6MDQN5V7", "current_trial": 164, "dateTime": 1512674891962, "trialdata": {"rt": -1, "stimulus": "<p id=\"stim\">DORM</p>", "key_press": -1, "type": "PRES_VIS", "word": "dorm", "wordID": 487, "conditions": [12, 800, "v", 12000], "trial": 4, "serialpos": 7, "trial_type": "single-stim", "trial_index": 164, "time_elapsed": 802091, "internal_node_id": "0.0-119.0"}}, {"uniqueid": "MTK0715:3W92K5RLWVOJ4C8T91T5YJ6MDQN5V7", "current_trial": 165, "dateTime": 1512674893892, "trialdata": {"rt": -1, "stimulus": "<p id=\"stim\">SPIDER</p>", "key_press": -1, "type": "PRES_VIS", "word": "spider", "wordID": 1350, "conditions": [12, 800, "v", 12000], "trial": 4, "serialpos": 8, "trial_type": "single-stim", "trial_index": 165, "time_elapsed": 804021, "internal_node_id": "0.0-120.0"}}, {"uniqueid": "MTK0715:3W92K5RLWVOJ4C8T91T5YJ6MDQN5V7", "current_trial": 166, "dateTime": 1512674895767, "trialdata": {"rt": -1, "stimulus": "<p id=\"stim\">VALLEY</p>", "key_press": -1, "type": "PRES_VIS", "word": "valley", "wordID": 1544, "conditions": [12, 800, "v", 12000], "trial": 4, "serialpos": 9, "trial_type": "single-stim", "trial_index": 166, "time_elapsed": 805896, "internal_node_id": "0.0-121.0"}}, {"uniqueid": "MTK0715:3W92K5RLWVOJ4C8T91T5YJ6MDQN5V7", "current_trial": 167, "dateTime": 1512674897671, "trialdata": {"rt": -1, "stimulus": "<p id=\"stim\">CANYON</p>", "key_press": -1, "type": "PRES_VIS", "word": "canyon", "wordID": 234, "conditions": [12, 800, "v", 12000], "trial": 4, "serialpos": 10, "trial_type": "single-stim", "trial_index": 167, "time_elapsed": 807799, "internal_node_id": "0.0-122.0"}}, {"uniqueid": "MTK0715:3W92K5RLWVOJ4C8T91T5YJ6MDQN5V7", "current_trial": 168, "dateTime": 1512674899290, "trialdata": {"rt": -1, "stimulus": "<p id=\"stim\">MARSH</p>", "key_press": -1, "type": "PRES_VIS", "word": "marsh", "wordID": 873, "conditions": [12, 800, "v", 12000], "trial": 4, "serialpos": 11, "trial_type": "single-stim", "trial_index": 168, "time_elapsed": 809419, "internal_node_id": "0.0-123.0"}}, {"uniqueid": "MTK0715:3W92K5RLWVOJ4C8T91T5YJ6MDQN5V7", "current_trial": 169, "dateTime": 1512674901426, "trialdata": {"rt": -1, "stimulus": "", "key_press": -1, "type": "PRE_RECALL_DELAY", "trial_type": "single-stim", "trial_index": 169, "time_elapsed": 811555, "internal_node_id": "0.0-124.0-0.0"}}, {"uniqueid": "MTK0715:3W92K5RLWVOJ4C8T91T5YJ6MDQN5V7", "current_trial": 170, "dateTime": 1512674901927, "trialdata": {"rt": -1000, "stimulus": "/static/audio/400Hz.wav", "key_press": -1, "type": "PRE_RECALL_ALERT", "trial_type": "single-audio", "trial_index": 170, "time_elapsed": 812056, "internal_node_id": "0.0-125.0"}}, {"uniqueid": "MTK0715:3W92K5RLWVOJ4C8T91T5YJ6MDQN5V7", "current_trial": 171, "dateTime": 1512674961934, "trialdata": {"rt": [1737, 4929, 6369, 8361, 9744, 26176], "recwords": ["marsh", "poison", "wasp", "record", "dorm", "marsh"], "type": "FREE_RECALL", "conditions": [12, 800, "v", 12000], "trial": 4, "trial_type": "free-recall", "trial_index": 171, "time_elapsed": 872060, "internal_node_id": "0.0-126.0-0.0"}}, {"uniqueid": "MTK0715:3W92K5RLWVOJ4C8T91T5YJ6MDQN5V7", "current_trial": 172, "dateTime": 1512674965874, "trialdata": {"rt": 1934, "key_press": 32, "type": "INSTRUCTIONS", "trial_type": "text", "trial_index": 172, "time_elapsed": 876003, "internal_node_id": "0.0-127.0"}}, {"uniqueid": "MTK0715:3W92K5RLWVOJ4C8T91T5YJ6MDQN5V7", "current_trial": 173, "dateTime": 1512674979882, "trialdata": {"rt": [3885, 6085, 11727], "responses": ["16", "14", "19"], "num1": [8, 6, 9, 7], "num2": [3, 2, 2, 1], "num3": [5, 6, 8, 2], "type": "DISTRACTOR", "conditions": [24, 800, "v", 12000], "trial": 5, "trial_type": "math-distractor", "trial_index": 173, "time_elapsed": 890010, "internal_node_id": "0.0-128.0"}}, {"uniqueid": "MTK0715:3W92K5RLWVOJ4C8T91T5YJ6MDQN5V7", "current_trial": 174, "dateTime": 1512674982889, "trialdata": {"rt": -1, "stimulus": "<p id=\"stim\">10</p>", "key_press": -1, "trial_type": "single-stim", "trial_index": 174, "time_elapsed": 893018, "internal_node_id": "0.0-129.0-0.0"}}, {"uniqueid": "MTK0715:3W92K5RLWVOJ4C8T91T5YJ6MDQN5V7", "current_trial": 175, "dateTime": 1512674983893, "trialdata": {"rt": -1, "stimulus": "<p id=\"stim\">9</p>", "key_press": -1, "trial_type": "single-stim", "trial_index": 175, "time_elapsed": 894022, "internal_node_id": "0.0-129.0-1.0"}}, {"uniqueid": "MTK0715:3W92K5RLWVOJ4C8T91T5YJ6MDQN5V7", "current_trial": 176, "dateTime": 1512674984897, "trialdata": {"rt": -1, "stimulus": "<p id=\"stim\">8</p>", "key_press": -1, "trial_type": "single-stim", "trial_index": 176, "time_elapsed": 895026, "internal_node_id": "0.0-129.0-2.0"}}, {"uniqueid": "MTK0715:3W92K5RLWVOJ4C8T91T5YJ6MDQN5V7", "current_trial": 177, "dateTime": 1512674985901, "trialdata": {"rt": -1, "stimulus": "<p id=\"stim\">7</p>", "key_press": -1, "trial_type": "single-stim", "trial_index": 177, "time_elapsed": 896030, "internal_node_id": "0.0-129.0-3.0"}}, {"uniqueid": "MTK0715:3W92K5RLWVOJ4C8T91T5YJ6MDQN5V7", "current_trial": 178, "dateTime": 1512674986906, "trialdata": {"rt": -1, "stimulus": "<p id=\"stim\">6</p>", "key_press": -1, "trial_type": "single-stim", "trial_index": 178, "time_elapsed": 897035, "internal_node_id": "0.0-129.0-4.0"}}, {"uniqueid": "MTK0715:3W92K5RLWVOJ4C8T91T5YJ6MDQN5V7", "current_trial": 179, "dateTime": 1512674987918, "trialdata": {"rt": -1, "stimulus": "<p id=\"stim\">5</p>", "key_press": -1, "trial_type": "single-stim", "trial_index": 179, "time_elapsed": 898047, "internal_node_id": "0.0-129.0-5.0"}}, {"uniqueid": "MTK0715:3W92K5RLWVOJ4C8T91T5YJ6MDQN5V7", "current_trial": 180, "dateTime": 1512674988919, "trialdata": {"rt": -1, "stimulus": "<p id=\"stim\">4</p>", "key_press": -1, "trial_type": "single-stim", "trial_index": 180, "time_elapsed": 899048, "internal_node_id": "0.0-129.0-6.0"}}, {"uniqueid": "MTK0715:3W92K5RLWVOJ4C8T91T5YJ6MDQN5V7", "current_trial": 181, "dateTime": 1512674989920, "trialdata": {"rt": -1, "stimulus": "<p id=\"stim\">3</p>", "key_press": -1, "trial_type": "single-stim", "trial_index": 181, "time_elapsed": 900049, "internal_node_id": "0.0-129.0-7.0"}}, {"uniqueid": "MTK0715:3W92K5RLWVOJ4C8T91T5YJ6MDQN5V7", "current_trial": 182, "dateTime": 1512674990922, "trialdata": {"rt": -1, "stimulus": "<p id=\"stim\">2</p>", "key_press": -1, "trial_type": "single-stim", "trial_index": 182, "time_elapsed": 901051, "internal_node_id": "0.0-129.0-8.0"}}, {"uniqueid": "MTK0715:3W92K5RLWVOJ4C8T91T5YJ6MDQN5V7", "current_trial": 183, "dateTime": 1512674991925, "trialdata": {"rt": -1, "stimulus": "<p id=\"stim\">1</p>", "key_press": -1, "trial_type": "single-stim", "trial_index": 183, "time_elapsed": 902054, "internal_node_id": "0.0-129.0-9.0"}}, {"uniqueid": "MTK0715:3W92K5RLWVOJ4C8T91T5YJ6MDQN5V7", "current_trial": 184, "dateTime": 1512674993429, "trialdata": {"rt": -1, "stimulus": "<p id=\"stim\">+</p>", "key_press": -1, "type": "FIXATION", "trial_type": "single-stim", "trial_index": 184, "time_elapsed": 903558, "internal_node_id": "0.0-130.0-0.0"}}, {"uniqueid": "MTK0715:3W92K5RLWVOJ4C8T91T5YJ6MDQN5V7", "current_trial": 185, "dateTime": 1512674994235, "trialdata": {"rt": -1, "stimulus": "<p id=\"stim\">POPCORN</p>", "key_press": -1, "type": "PRES_VIS", "word": "popcorn", "wordID": 1103, "conditions": [24, 800, "v", 12000], "trial": 5, "serialpos": 0, "trial_type": "single-stim", "trial_index": 185, "time_elapsed": 904364, "internal_node_id": "0.0-131.0"}}, {"uniqueid": "MTK0715:3W92K5RLWVOJ4C8T91T5YJ6MDQN5V7", "current_trial": 186, "dateTime": 1512674996139, "trialdata": {"rt": -1, "stimulus": "<p id=\"stim\">SCULPTURE</p>", "key_press": -1, "type": "PRES_VIS", "word": "sculpture", "wordID": 1257, "conditions": [24, 800, "v", 12000], "trial": 5, "serialpos": 1, "trial_type": "single-stim", "trial_index": 186, "time_elapsed": 906268, "internal_node_id": "0.0-132.0"}}, {"uniqueid": "MTK0715:3W92K5RLWVOJ4C8T91T5YJ6MDQN5V7", "current_trial": 187, "dateTime": 1512674997765, "trialdata": {"rt": -1, "stimulus": "<p id=\"stim\">BANJO</p>", "key_press": -1, "type": "PRES_VIS", "word": "banjo", "wordID": 81, "conditions": [24, 800, "v", 12000], "trial": 5, "serialpos": 2, "trial_type": "single-stim", "trial_index": 187, "time_elapsed": 907894, "internal_node_id": "0.0-133.0"}}, {"uniqueid": "MTK0715:3W92K5RLWVOJ4C8T91T5YJ6MDQN5V7", "current_trial": 188, "dateTime": 1512674999599, "trialdata": {"rt": -1, "stimulus": "<p id=\"stim\">SPHINX</p>", "key_press": -1, "type": "PRES_VIS", "word": "sphinx", "wordID": 1348, "conditions": [24, 800, "v", 12000], "trial": 5, "serialpos": 3, "trial_type": "single-stim", "trial_index": 188, "time_elapsed": 909727, "internal_node_id": "0.0-134.0"}}, {"uniqueid": "MTK0715:3W92K5RLWVOJ4C8T91T5YJ6MDQN5V7", "current_trial": 189, "dateTime": 1512675001583, "trialdata": {"rt": -1, "stimulus": "<p id=\"stim\">CONCERT</p>", "key_press": -1, "type": "PRES_VIS", "word": "concert", "wordID": 359, "conditions": [24, 800, "v", 12000], "trial": 5, "serialpos": 4, "trial_type": "single-stim", "trial_index": 189, "time_elapsed": 911712, "internal_node_id": "0.0-135.0"}}, {"uniqueid": "MTK0715:3W92K5RLWVOJ4C8T91T5YJ6MDQN5V7", "current_trial": 190, "dateTime": 1512675003300, "trialdata": {"rt": -1, "stimulus": "<p id=\"stim\">BISON</p>", "key_press": -1, "type": "PRES_VIS", "word": "bison", "wordID": 130, "conditions": [24, 800, "v", 12000], "trial": 5, "serialpos": 5, "trial_type": "single-stim", "trial_index": 190, "time_elapsed": 913429, "internal_node_id": "0.0-136.0"}}, {"uniqueid": "MTK0715:3W92K5RLWVOJ4C8T91T5YJ6MDQN5V7", "current_trial": 191, "dateTime": 1512675004952, "trialdata": {"rt": -1, "stimulus": "<p id=\"stim\">STAMP</p>", "key_press": -1, "type": "PRES_VIS", "word": "stamp", "wordID": 1369, "conditions": [24, 800, "v", 12000], "trial": 5, "serialpos": 6, "trial_type": "single-stim", "trial_index": 191, "time_elapsed": 915081, "internal_node_id": "0.0-137.0"}}, {"uniqueid": "MTK0715:3W92K5RLWVOJ4C8T91T5YJ6MDQN5V7", "current_trial": 192, "dateTime": 1512675006900, "trialdata": {"rt": -1, "stimulus": "<p id=\"stim\">CHILD</p>", "key_press": -1, "type": "PRES_VIS", "word": "child", "wordID": 298, "conditions": [24, 800, "v", 12000], "trial": 5, "serialpos": 7, "trial_type": "single-stim", "trial_index": 192, "time_elapsed": 917029, "internal_node_id": "0.0-138.0"}}, {"uniqueid": "MTK0715:3W92K5RLWVOJ4C8T91T5YJ6MDQN5V7", "current_trial": 193, "dateTime": 1512675008595, "trialdata": {"rt": -1, "stimulus": "<p id=\"stim\">CATTLE</p>", "key_press": -1, "type": "PRES_VIS", "word": "cattle", "wordID": 260, "conditions": [24, 800, "v", 12000], "trial": 5, "serialpos": 8, "trial_type": "single-stim", "trial_index": 193, "time_elapsed": 918723, "internal_node_id": "0.0-139.0"}}, {"uniqueid": "MTK0715:3W92K5RLWVOJ4C8T91T5YJ6MDQN5V7", "current_trial": 194, "dateTime": 1512675010359, "trialdata": {"rt": -1, "stimulus": "<p id=\"stim\">QUAIL</p>", "key_press": -1, "type": "PRES_VIS", "word": "quail", "wordID": 1146, "conditions": [24, 800, "v", 12000], "trial": 5, "serialpos": 9, "trial_type": "single-stim", "trial_index": 194, "time_elapsed": 920488, "internal_node_id": "0.0-140.0"}}, {"uniqueid": "MTK0715:3W92K5RLWVOJ4C8T91T5YJ6MDQN5V7", "current_trial": 195, "dateTime": 1512675012297, "trialdata": {"rt": -1, "stimulus": "<p id=\"stim\">TURKEY</p>", "key_press": -1, "type": "PRES_VIS", "word": "turkey", "wordID": 1519, "conditions": [24, 800, "v", 12000], "trial": 5, "serialpos": 10, "trial_type": "single-stim", "trial_index": 195, "time_elapsed": 922426, "internal_node_id": "0.0-141.0"}}, {"uniqueid": "MTK0715:3W92K5RLWVOJ4C8T91T5YJ6MDQN5V7", "current_trial": 196, "dateTime": 1512675014131, "trialdata": {"rt": -1, "stimulus": "<p id=\"stim\">ONION</p>", "key_press": -1, "type": "PRES_VIS", "word": "onion", "wordID": 976, "conditions": [24, 800, "v", 12000], "trial": 5, "serialpos": 11, "trial_type": "single-stim", "trial_index": 196, "time_elapsed": 924260, "internal_node_id": "0.0-142.0"}}, {"uniqueid": "MTK0715:3W92K5RLWVOJ4C8T91T5YJ6MDQN5V7", "current_trial": 197, "dateTime": 1512675016075, "trialdata": {"rt": -1, "stimulus": "<p id=\"stim\">NEUTRON</p>", "key_press": -1, "type": "PRES_VIS", "word": "neutron", "wordID": 946, "conditions": [24, 800, "v", 12000], "trial": 5, "serialpos": 12, "trial_type": "single-stim", "trial_index": 197, "time_elapsed": 926204, "internal_node_id": "0.0-143.0"}}, {"uniqueid": "MTK0715:3W92K5RLWVOJ4C8T91T5YJ6MDQN5V7", "current_trial": 198, "dateTime": 1512675017683, "trialdata": {"rt": -1, "stimulus": "<p id=\"stim\">HIGHWAY</p>", "key_press": -1, "type": "PRES_VIS", "word": "highway", "wordID": 706, "conditions": [24, 800, "v", 12000], "trial": 5, "serialpos": 13, "trial_type": "single-stim", "trial_index": 198, "time_elapsed": 927812, "internal_node_id": "0.0-144.0"}}, {"uniqueid": "MTK0715:3W92K5RLWVOJ4C8T91T5YJ6MDQN5V7", "current_trial": 199, "dateTime": 1512675019494, "trialdata": {"rt": -1, "stimulus": "<p id=\"stim\">PANTHER</p>", "key_press": -1, "type": "PRES_VIS", "word": "panther", "wordID": 1008, "conditions": [24, 800, "v", 12000], "trial": 5, "serialpos": 14, "trial_type": "single-stim", "trial_index": 199, "time_elapsed": 929623, "internal_node_id": "0.0-145.0"}}, {"uniqueid": "MTK0715:3W92K5RLWVOJ4C8T91T5YJ6MDQN5V7", "current_trial": 200, "dateTime": 1512675021316, "trialdata": {"rt": -1, "stimulus": "<p id=\"stim\">HOOD</p>", "key_press": -1, "type": "PRES_VIS", "word": "hood", "wordID": 713, "conditions": [24, 800, "v", 12000], "trial": 5, "serialpos": 15, "trial_type": "single-stim", "trial_index": 200, "time_elapsed": 931445, "internal_node_id": "0.0-146.0"}}, {"uniqueid": "MTK0715:3W92K5RLWVOJ4C8T91T5YJ6MDQN5V7", "current_trial": 201, "dateTime": 1512675022982, "trialdata": {"rt": -1, "stimulus": "<p id=\"stim\">LILY</p>", "key_press": -1, "type": "PRES_VIS", "word": "lily", "wordID": 820, "conditions": [24, 800, "v", 12000], "trial": 5, "serialpos": 16, "trial_type": "single-stim", "trial_index": 201, "time_elapsed": 933111, "internal_node_id": "0.0-147.0"}}, {"uniqueid": "MTK0715:3W92K5RLWVOJ4C8T91T5YJ6MDQN5V7", "current_trial": 202, "dateTime": 1512675024904, "trialdata": {"rt": -1, "stimulus": "<p id=\"stim\">ORCHID</p>", "key_press": -1, "type": "PRES_VIS", "word": "orchid", "wordID": 981, "conditions": [24, 800, "v", 12000], "trial": 5, "serialpos": 17, "trial_type": "single-stim", "trial_index": 202, "time_elapsed": 935033, "internal_node_id": "0.0-148.0"}}, {"uniqueid": "MTK0715:3W92K5RLWVOJ4C8T91T5YJ6MDQN5V7", "current_trial": 203, "dateTime": 1512675026534, "trialdata": {"rt": -1, "stimulus": "<p id=\"stim\">NOTEBOOK</p>", "key_press": -1, "type": "PRES_VIS", "word": "notebook", "wordID": 958, "conditions": [24, 800, "v", 12000], "trial": 5, "serialpos": 18, "trial_type": "single-stim", "trial_index": 203, "time_elapsed": 936663, "internal_node_id": "0.0-149.0"}}, {"uniqueid": "MTK0715:3W92K5RLWVOJ4C8T91T5YJ6MDQN5V7", "current_trial": 204, "dateTime": 1512675028490, "trialdata": {"rt": -1, "stimulus": "<p id=\"stim\">DOUGHNUT</p>", "key_press": -1, "type": "PRES_VIS", "word": "doughnut", "wordID": 489, "conditions": [24, 800, "v", 12000], "trial": 5, "serialpos": 19, "trial_type": "single-stim", "trial_index": 204, "time_elapsed": 938619, "internal_node_id": "0.0-150.0"}}, {"uniqueid": "MTK0715:3W92K5RLWVOJ4C8T91T5YJ6MDQN5V7", "current_trial": 205, "dateTime": 1512675030359, "trialdata": {"rt": -1, "stimulus": "<p id=\"stim\">FLASHLIGHT</p>", "key_press": -1, "type": "PRES_VIS", "word": "flashlight", "wordID": 574, "conditions": [24, 800, "v", 12000], "trial": 5, "serialpos": 20, "trial_type": "single-stim", "trial_index": 205, "time_elapsed": 940488, "internal_node_id": "0.0-151.0"}}, {"uniqueid": "MTK0715:3W92K5RLWVOJ4C8T91T5YJ6MDQN5V7", "current_trial": 206, "dateTime": 1512675031995, "trialdata": {"rt": -1, "stimulus": "<p id=\"stim\">FLASK</p>", "key_press": -1, "type": "PRES_VIS", "word": "flask", "wordID": 575, "conditions": [24, 800, "v", 12000], "trial": 5, "serialpos": 21, "trial_type": "single-stim", "trial_index": 206, "time_elapsed": 942124, "internal_node_id": "0.0-152.0"}}, {"uniqueid": "MTK0715:3W92K5RLWVOJ4C8T91T5YJ6MDQN5V7", "current_trial": 207, "dateTime": 1512675033621, "trialdata": {"rt": -1, "stimulus": "<p id=\"stim\">LIZARD</p>", "key_press": -1, "type": "PRES_VIS", "word": "lizard", "wordID": 833, "conditions": [24, 800, "v", 12000], "trial": 5, "serialpos": 22, "trial_type": "single-stim", "trial_index": 207, "time_elapsed": 943750, "internal_node_id": "0.0-153.0"}}, {"uniqueid": "MTK0715:3W92K5RLWVOJ4C8T91T5YJ6MDQN5V7", "current_trial": 208, "dateTime": 1512675035321, "trialdata": {"rt": -1, "stimulus": "<p id=\"stim\">BEAST</p>", "key_press": -1, "type": "PRES_VIS", "word": "beast", "wordID": 107, "conditions": [24, 800, "v", 12000], "trial": 5, "serialpos": 23, "trial_type": "single-stim", "trial_index": 208, "time_elapsed": 945450, "internal_node_id": "0.0-154.0"}}, {"uniqueid": "MTK0715:3W92K5RLWVOJ4C8T91T5YJ6MDQN5V7", "current_trial": 209, "dateTime": 1512675037399, "trialdata": {"rt": -1, "stimulus": "", "key_press": -1, "type": "PRE_RECALL_DELAY", "trial_type": "single-stim", "trial_index": 209, "time_elapsed": 947528, "internal_node_id": "0.0-155.0-0.0"}}, {"uniqueid": "MTK0715:3W92K5RLWVOJ4C8T91T5YJ6MDQN5V7", "current_trial": 210, "dateTime": 1512675037900, "trialdata": {"rt": -1000, "stimulus": "/static/audio/400Hz.wav", "key_press": -1, "type": "PRE_RECALL_ALERT", "trial_type": "single-audio", "trial_index": 210, "time_elapsed": 948029, "internal_node_id": "0.0-156.0"}}, {"uniqueid": "MTK0715:3W92K5RLWVOJ4C8T91T5YJ6MDQN5V7", "current_trial": 211, "dateTime": 1512675097907, "trialdata": {"rt": [2344, 4096, 9552, 19105, 26838, 34336, 38592, 42232], "recwords": ["beast", "turkey", "qual", "onion", "flashlight", "neutron", "pop", "popcorn"], "type": "FREE_RECALL", "conditions": [24, 800, "v", 12000], "trial": 5, "trial_type": "free-recall", "trial_index": 211, "time_elapsed": 1008034, "internal_node_id": "0.0-157.0-0.0"}}, {"uniqueid": "MTK0715:3W92K5RLWVOJ4C8T91T5YJ6MDQN5V7", "current_trial": 212, "dateTime": 1512675101065, "trialdata": {"rt": 1156, "key_press": 32, "type": "INSTRUCTIONS", "trial_type": "text", "trial_index": 212, "time_elapsed": 1011194, "internal_node_id": "0.0-158.0"}}, {"uniqueid": "MTK0715:3W92K5RLWVOJ4C8T91T5YJ6MDQN5V7", "current_trial": 213, "dateTime": 1512675127075, "trialdata": {"rt": [2146, 4467, 10979, 15578, 18554, 23211], "responses": ["11", "11", "15", "19", "18", "12"], "num1": [5, 1, 8, 9, 3, 4, 1], "num2": [1, 9, 3, 2, 6, 1, 1], "num3": [5, 1, 4, 8, 9, 7, 5], "type": "DISTRACTOR", "conditions": [12, 800, "v", 24000], "trial": 6, "trial_type": "math-distractor", "trial_index": 213, "time_elapsed": 1037204, "internal_node_id": "0.0-159.0"}}, {"uniqueid": "MTK0715:3W92K5RLWVOJ4C8T91T5YJ6MDQN5V7", "current_trial": 214, "dateTime": 1512675130083, "trialdata": {"rt": -1, "stimulus": "<p id=\"stim\">10</p>", "key_press": -1, "trial_type": "single-stim", "trial_index": 214, "time_elapsed": 1040212, "internal_node_id": "0.0-160.0-0.0"}}, {"uniqueid": "MTK0715:3W92K5RLWVOJ4C8T91T5YJ6MDQN5V7", "current_trial": 215, "dateTime": 1512675131087, "trialdata": {"rt": -1, "stimulus": "<p id=\"stim\">9</p>", "key_press": -1, "trial_type": "single-stim", "trial_index": 215, "time_elapsed": 1041216, "internal_node_id": "0.0-160.0-1.0"}}, {"uniqueid": "MTK0715:3W92K5RLWVOJ4C8T91T5YJ6MDQN5V7", "current_trial": 216, "dateTime": 1512675132092, "trialdata": {"rt": -1, "stimulus": "<p id=\"stim\">8</p>", "key_press": -1, "trial_type": "single-stim", "trial_index": 216, "time_elapsed": 1042220, "internal_node_id": "0.0-160.0-2.0"}}, {"uniqueid": "MTK0715:3W92K5RLWVOJ4C8T91T5YJ6MDQN5V7", "current_trial": 217, "dateTime": 1512675133095, "trialdata": {"rt": -1, "stimulus": "<p id=\"stim\">7</p>", "key_press": -1, "trial_type": "single-stim", "trial_index": 217, "time_elapsed": 1043224, "internal_node_id": "0.0-160.0-3.0"}}, {"uniqueid": "MTK0715:3W92K5RLWVOJ4C8T91T5YJ6MDQN5V7", "current_trial": 218, "dateTime": 1512675134099, "trialdata": {"rt": -1, "stimulus": "<p id=\"stim\">6</p>", "key_press": -1, "trial_type": "single-stim", "trial_index": 218, "time_elapsed": 1044228, "internal_node_id": "0.0-160.0-4.0"}}, {"uniqueid": "MTK0715:3W92K5RLWVOJ4C8T91T5YJ6MDQN5V7", "current_trial": 219, "dateTime": 1512675135104, "trialdata": {"rt": -1, "stimulus": "<p id=\"stim\">5</p>", "key_press": -1, "trial_type": "single-stim", "trial_index": 219, "time_elapsed": 1045232, "internal_node_id": "0.0-160.0-5.0"}}, {"uniqueid": "MTK0715:3W92K5RLWVOJ4C8T91T5YJ6MDQN5V7", "current_trial": 220, "dateTime": 1512675136108, "trialdata": {"rt": -1, "stimulus": "<p id=\"stim\">4</p>", "key_press": -1, "trial_type": "single-stim", "trial_index": 220, "time_elapsed": 1046237, "internal_node_id": "0.0-160.0-6.0"}}, {"uniqueid": "MTK0715:3W92K5RLWVOJ4C8T91T5YJ6MDQN5V7", "current_trial": 221, "dateTime": 1512675137112, "trialdata": {"rt": -1, "stimulus": "<p id=\"stim\">3</p>", "key_press": -1, "trial_type": "single-stim", "trial_index": 221, "time_elapsed": 1047240, "internal_node_id": "0.0-160.0-7.0"}}, {"uniqueid": "MTK0715:3W92K5RLWVOJ4C8T91T5YJ6MDQN5V7", "current_trial": 222, "dateTime": 1512675138116, "trialdata": {"rt": -1, "stimulus": "<p id=\"stim\">2</p>", "key_press": -1, "trial_type": "single-stim", "trial_index": 222, "time_elapsed": 1048245, "internal_node_id": "0.0-160.0-8.0"}}, {"uniqueid": "MTK0715:3W92K5RLWVOJ4C8T91T5YJ6MDQN5V7", "current_trial": 223, "dateTime": 1512675139120, "trialdata": {"rt": -1, "stimulus": "<p id=\"stim\">1</p>", "key_press": -1, "trial_type": "single-stim", "trial_index": 223, "time_elapsed": 1049249, "internal_node_id": "0.0-160.0-9.0"}}, {"uniqueid": "MTK0715:3W92K5RLWVOJ4C8T91T5YJ6MDQN5V7", "current_trial": 224, "dateTime": 1512675140623, "trialdata": {"rt": -1, "stimulus": "<p id=\"stim\">+</p>", "key_press": -1, "type": "FIXATION", "trial_type": "single-stim", "trial_index": 224, "time_elapsed": 1050752, "internal_node_id": "0.0-161.0-0.0"}}, {"uniqueid": "MTK0715:3W92K5RLWVOJ4C8T91T5YJ6MDQN5V7", "current_trial": 225, "dateTime": 1512675141428, "trialdata": {"rt": -1, "stimulus": "<p id=\"stim\">CASHIER</p>", "key_press": -1, "type": "PRES_VIS", "word": "cashier", "wordID": 253, "conditions": [12, 800, "v", 24000], "trial": 6, "serialpos": 0, "trial_type": "single-stim", "trial_index": 225, "time_elapsed": 1051557, "internal_node_id": "0.0-162.0"}}, {"uniqueid": "MTK0715:3W92K5RLWVOJ4C8T91T5YJ6MDQN5V7", "current_trial": 226, "dateTime": 1512675143383, "trialdata": {"rt": -1, "stimulus": "<p id=\"stim\">BEAKER</p>", "key_press": -1, "type": "PRES_VIS", "word": "beaker", "wordID": 103, "conditions": [12, 800, "v", 24000], "trial": 6, "serialpos": 1, "trial_type": "single-stim", "trial_index": 226, "time_elapsed": 1053512, "internal_node_id": "0.0-163.0"}}, {"uniqueid": "MTK0715:3W92K5RLWVOJ4C8T91T5YJ6MDQN5V7", "current_trial": 227, "dateTime": 1512675145312, "trialdata": {"rt": -1, "stimulus": "<p id=\"stim\">PROTON</p>", "key_press": -1, "type": "PRES_VIS", "word": "proton", "wordID": 1131, "conditions": [12, 800, "v", 24000], "trial": 6, "serialpos": 2, "trial_type": "single-stim", "trial_index": 227, "time_elapsed": 1055441, "internal_node_id": "0.0-164.0"}}, {"uniqueid": "MTK0715:3W92K5RLWVOJ4C8T91T5YJ6MDQN5V7", "current_trial": 228, "dateTime": 1512675147214, "trialdata": {"rt": -1, "stimulus": "<p id=\"stim\">LAGOON</p>", "key_press": -1, "type": "PRES_VIS", "word": "lagoon", "wordID": 794, "conditions": [12, 800, "v", 24000], "trial": 6, "serialpos": 3, "trial_type": "single-stim", "trial_index": 228, "time_elapsed": 1057343, "internal_node_id": "0.0-165.0"}}, {"uniqueid": "MTK0715:3W92K5RLWVOJ4C8T91T5YJ6MDQN5V7", "current_trial": 229, "dateTime": 1512675148891, "trialdata": {"rt": -1, "stimulus": "<p id=\"stim\">SPOON</p>", "key_press": -1, "type": "PRES_VIS", "word": "spoon", "wordID": 1356, "conditions": [12, 800, "v", 24000], "trial": 6, "serialpos": 4, "trial_type": "single-stim", "trial_index": 229, "time_elapsed": 1059020, "internal_node_id": "0.0-166.0"}}, {"uniqueid": "MTK0715:3W92K5RLWVOJ4C8T91T5YJ6MDQN5V7", "current_trial": 230, "dateTime": 1512675150615, "trialdata": {"rt": -1, "stimulus": "<p id=\"stim\">BURGLAR</p>", "key_press": -1, "type": "PRES_VIS", "word": "burglar", "wordID": 199, "conditions": [12, 800, "v", 24000], "trial": 6, "serialpos": 5, "trial_type": "single-stim", "trial_index": 230, "time_elapsed": 1060744, "internal_node_id": "0.0-167.0"}}, {"uniqueid": "MTK0715:3W92K5RLWVOJ4C8T91T5YJ6MDQN5V7", "current_trial": 231, "dateTime": 1512675152589, "trialdata": {"rt": -1, "stimulus": "<p id=\"stim\">RIVER</p>", "key_press": -1, "type": "PRES_VIS", "word": "river", "wordID": 1193, "conditions": [12, 800, "v", 24000], "trial": 6, "serialpos": 6, "trial_type": "single-stim", "trial_index": 231, "time_elapsed": 1062717, "internal_node_id": "0.0-168.0"}}, {"uniqueid": "MTK0715:3W92K5RLWVOJ4C8T91T5YJ6MDQN5V7", "current_trial": 232, "dateTime": 1512675154243, "trialdata": {"rt": -1, "stimulus": "<p id=\"stim\">PENGUIN</p>", "key_press": -1, "type": "PRES_VIS", "word": "penguin", "wordID": 1043, "conditions": [12, 800, "v", 24000], "trial": 6, "serialpos": 7, "trial_type": "single-stim", "trial_index": 232, "time_elapsed": 1064371, "internal_node_id": "0.0-169.0"}}, {"uniqueid": "MTK0715:3W92K5RLWVOJ4C8T91T5YJ6MDQN5V7", "current_trial": 233, "dateTime": 1512675155862, "trialdata": {"rt": -1, "stimulus": "<p id=\"stim\">SCALLOP</p>", "key_press": -1, "type": "PRES_VIS", "word": "scallop", "wordID": 1241, "conditions": [12, 800, "v", 24000], "trial": 6, "serialpos": 8, "trial_type": "single-stim", "trial_index": 233, "time_elapsed": 1065990, "internal_node_id": "0.0-170.0"}}, {"uniqueid": "MTK0715:3W92K5RLWVOJ4C8T91T5YJ6MDQN5V7", "current_trial": 234, "dateTime": 1512675157499, "trialdata": {"rt": -1, "stimulus": "<p id=\"stim\">SALMON</p>", "key_press": -1, "type": "PRES_VIS", "word": "salmon", "wordID": 1226, "conditions": [12, 800, "v", 24000], "trial": 6, "serialpos": 9, "trial_type": "single-stim", "trial_index": 234, "time_elapsed": 1067627, "internal_node_id": "0.0-171.0"}}, {"uniqueid": "MTK0715:3W92K5RLWVOJ4C8T91T5YJ6MDQN5V7", "current_trial": 235, "dateTime": 1512675159491, "trialdata": {"rt": -1, "stimulus": "<p id=\"stim\">MONSTER</p>", "key_press": -1, "type": "PRES_VIS", "word": "monster", "wordID": 911, "conditions": [12, 800, "v", 24000], "trial": 6, "serialpos": 10, "trial_type": "single-stim", "trial_index": 235, "time_elapsed": 1069620, "internal_node_id": "0.0-172.0"}}, {"uniqueid": "MTK0715:3W92K5RLWVOJ4C8T91T5YJ6MDQN5V7", "current_trial": 236, "dateTime": 1512675161254, "trialdata": {"rt": -1, "stimulus": "<p id=\"stim\">GHETTO</p>", "key_press": -1, "type": "PRES_VIS", "word": "ghetto", "wordID": 632, "conditions": [12, 800, "v", 24000], "trial": 6, "serialpos": 11, "trial_type": "single-stim", "trial_index": 236, "time_elapsed": 1071383, "internal_node_id": "0.0-173.0"}}, {"uniqueid": "MTK0715:3W92K5RLWVOJ4C8T91T5YJ6MDQN5V7", "current_trial": 237, "dateTime": 1512675163566, "trialdata": {"rt": -1, "stimulus": "", "key_press": -1, "type": "PRE_RECALL_DELAY", "trial_type": "single-stim", "trial_index": 237, "time_elapsed": 1073695, "internal_node_id": "0.0-174.0-0.0"}}, {"uniqueid": "MTK0715:3W92K5RLWVOJ4C8T91T5YJ6MDQN5V7", "current_trial": 238, "dateTime": 1512675164067, "trialdata": {"rt": -1000, "stimulus": "/static/audio/400Hz.wav", "key_press": -1, "type": "PRE_RECALL_ALERT", "trial_type": "single-audio", "trial_index": 238, "time_elapsed": 1074196, "internal_node_id": "0.0-175.0"}}, {"uniqueid": "MTK0715:3W92K5RLWVOJ4C8T91T5YJ6MDQN5V7", "current_trial": 239, "dateTime": 1512675224074, "trialdata": {"rt": [5064, 10616, 12272, 14840, 23372, 41873], "recwords": ["chashier", "penguine", "monster", "proton", "ghetto", "beaker"], "type": "FREE_RECALL", "conditions": [12, 800, "v", 24000], "trial": 6, "trial_type": "free-recall", "trial_index": 239, "time_elapsed": 1134201, "internal_node_id": "0.0-176.0-0.0"}}, {"uniqueid": "MTK0715:3W92K5RLWVOJ4C8T91T5YJ6MDQN5V7", "current_trial": 240, "dateTime": 1512675227575, "trialdata": {"rt": 1496, "key_press": 32, "type": "INSTRUCTIONS", "trial_type": "text", "trial_index": 240, "time_elapsed": 1137704, "internal_node_id": "0.0-177.0"}}, {"uniqueid": "MTK0715:3W92K5RLWVOJ4C8T91T5YJ6MDQN5V7", "current_trial": 241, "dateTime": 1512675253584, "trialdata": {"rt": [4105, 8633, 11865, 18349, 21707], "responses": ["15", "15", "17", "13", "14"], "num1": [4, 8, 7, 5, 4, 4], "num2": [6, 6, 9, 4, 5, 4], "num3": [5, 1, 1, 4, 5, 8], "type": "DISTRACTOR", "conditions": [24, 800, "v", 24000], "trial": 7, "trial_type": "math-distractor", "trial_index": 241, "time_elapsed": 1163713, "internal_node_id": "0.0-178.0"}}, {"uniqueid": "MTK0715:3W92K5RLWVOJ4C8T91T5YJ6MDQN5V7", "current_trial": 242, "dateTime": 1512675256594, "trialdata": {"rt": -1, "stimulus": "<p id=\"stim\">10</p>", "key_press": -1, "trial_type": "single-stim", "trial_index": 242, "time_elapsed": 1166723, "internal_node_id": "0.0-179.0-0.0"}}, {"uniqueid": "MTK0715:3W92K5RLWVOJ4C8T91T5YJ6MDQN5V7", "current_trial": 243, "dateTime": 1512675257598, "trialdata": {"rt": -1, "stimulus": "<p id=\"stim\">9</p>", "key_press": -1, "trial_type": "single-stim", "trial_index": 243, "time_elapsed": 1167727, "internal_node_id": "0.0-179.0-1.0"}}, {"uniqueid": "MTK0715:3W92K5RLWVOJ4C8T91T5YJ6MDQN5V7", "current_trial": 244, "dateTime": 1512675258602, "trialdata": {"rt": -1, "stimulus": "<p id=\"stim\">8</p>", "key_press": -1, "trial_type": "single-stim", "trial_index": 244, "time_elapsed": 1168731, "internal_node_id": "0.0-179.0-2.0"}}, {"uniqueid": "MTK0715:3W92K5RLWVOJ4C8T91T5YJ6MDQN5V7", "current_trial": 245, "dateTime": 1512675259606, "trialdata": {"rt": -1, "stimulus": "<p id=\"stim\">7</p>", "key_press": -1, "trial_type": "single-stim", "trial_index": 245, "time_elapsed": 1169735, "internal_node_id": "0.0-179.0-3.0"}}, {"uniqueid": "MTK0715:3W92K5RLWVOJ4C8T91T5YJ6MDQN5V7", "current_trial": 246, "dateTime": 1512675260609, "trialdata": {"rt": -1, "stimulus": "<p id=\"stim\">6</p>", "key_press": -1, "trial_type": "single-stim", "trial_index": 246, "time_elapsed": 1170738, "internal_node_id": "0.0-179.0-4.0"}}, {"uniqueid": "MTK0715:3W92K5RLWVOJ4C8T91T5YJ6MDQN5V7", "current_trial": 247, "dateTime": 1512675261614, "trialdata": {"rt": -1, "stimulus": "<p id=\"stim\">5</p>", "key_press": -1, "trial_type": "single-stim", "trial_index": 247, "time_elapsed": 1171742, "internal_node_id": "0.0-179.0-5.0"}}, {"uniqueid": "MTK0715:3W92K5RLWVOJ4C8T91T5YJ6MDQN5V7", "current_trial": 248, "dateTime": 1512675262618, "trialdata": {"rt": -1, "stimulus": "<p id=\"stim\">4</p>", "key_press": -1, "trial_type": "single-stim", "trial_index": 248, "time_elapsed": 1172747, "internal_node_id": "0.0-179.0-6.0"}}, {"uniqueid": "MTK0715:3W92K5RLWVOJ4C8T91T5YJ6MDQN5V7", "current_trial": 249, "dateTime": 1512675263622, "trialdata": {"rt": -1, "stimulus": "<p id=\"stim\">3</p>", "key_press": -1, "trial_type": "single-stim", "trial_index": 249, "time_elapsed": 1173751, "internal_node_id": "0.0-179.0-7.0"}}, {"uniqueid": "MTK0715:3W92K5RLWVOJ4C8T91T5YJ6MDQN5V7", "current_trial": 250, "dateTime": 1512675264626, "trialdata": {"rt": -1, "stimulus": "<p id=\"stim\">2</p>", "key_press": -1, "trial_type": "single-stim", "trial_index": 250, "time_elapsed": 1174755, "internal_node_id": "0.0-179.0-8.0"}}, {"uniqueid": "MTK0715:3W92K5RLWVOJ4C8T91T5YJ6MDQN5V7", "current_trial": 251, "dateTime": 1512675265630, "trialdata": {"rt": -1, "stimulus": "<p id=\"stim\">1</p>", "key_press": -1, "trial_type": "single-stim", "trial_index": 251, "time_elapsed": 1175759, "internal_node_id": "0.0-179.0-9.0"}}, {"uniqueid": "MTK0715:3W92K5RLWVOJ4C8T91T5YJ6MDQN5V7", "current_trial": 252, "dateTime": 1512675267136, "trialdata": {"rt": -1, "stimulus": "<p id=\"stim\">+</p>", "key_press": -1, "type": "FIXATION", "trial_type": "single-stim", "trial_index": 252, "time_elapsed": 1177265, "internal_node_id": "0.0-180.0-0.0"}}, {"uniqueid": "MTK0715:3W92K5RLWVOJ4C8T91T5YJ6MDQN5V7", "current_trial": 253, "dateTime": 1512675267937, "trialdata": {"rt": -1, "stimulus": "<p id=\"stim\">COUNTY</p>", "key_press": -1, "type": "PRES_VIS", "word": "county", "wordID": 388, "conditions": [24, 800, "v", 24000], "trial": 7, "serialpos": 0, "trial_type": "single-stim", "trial_index": 253, "time_elapsed": 1178066, "internal_node_id": "0.0-181.0"}}, {"uniqueid": "MTK0715:3W92K5RLWVOJ4C8T91T5YJ6MDQN5V7", "current_trial": 254, "dateTime": 1512675269701, "trialdata": {"rt": -1, "stimulus": "<p id=\"stim\">EUROPE</p>", "key_press": -1, "type": "PRES_VIS", "word": "europe", "wordID": 540, "conditions": [24, 800, "v", 24000], "trial": 7, "serialpos": 1, "trial_type": "single-stim", "trial_index": 254, "time_elapsed": 1179830, "internal_node_id": "0.0-182.0"}}, {"uniqueid": "MTK0715:3W92K5RLWVOJ4C8T91T5YJ6MDQN5V7", "current_trial": 255, "dateTime": 1512675271365, "trialdata": {"rt": -1, "stimulus": "<p id=\"stim\">LIGHTNING</p>", "key_press": -1, "type": "PRES_VIS", "word": "lightning", "wordID": 819, "conditions": [24, 800, "v", 24000], "trial": 7, "serialpos": 2, "trial_type": "single-stim", "trial_index": 255, "time_elapsed": 1181494, "internal_node_id": "0.0-183.0"}}, {"uniqueid": "MTK0715:3W92K5RLWVOJ4C8T91T5YJ6MDQN5V7", "current_trial": 256, "dateTime": 1512675273082, "trialdata": {"rt": -1, "stimulus": "<p id=\"stim\">ITEM</p>", "key_press": -1, "type": "PRES_VIS", "word": "item", "wordID": 745, "conditions": [24, 800, "v", 24000], "trial": 7, "serialpos": 3, "trial_type": "single-stim", "trial_index": 256, "time_elapsed": 1183211, "internal_node_id": "0.0-184.0"}}, {"uniqueid": "MTK0715:3W92K5RLWVOJ4C8T91T5YJ6MDQN5V7", "current_trial": 257, "dateTime": 1512675274982, "trialdata": {"rt": -1, "stimulus": "<p id=\"stim\">FRUIT</p>", "key_press": -1, "type": "PRES_VIS", "word": "fruit", "wordID": 609, "conditions": [24, 800, "v", 24000], "trial": 7, "serialpos": 4, "trial_type": "single-stim", "trial_index": 257, "time_elapsed": 1185111, "internal_node_id": "0.0-185.0"}}, {"uniqueid": "MTK0715:3W92K5RLWVOJ4C8T91T5YJ6MDQN5V7", "current_trial": 258, "dateTime": 1512675276929, "trialdata": {"rt": -1, "stimulus": "<p id=\"stim\">GRAPE</p>", "key_press": -1, "type": "PRES_VIS", "word": "grape", "wordID": 653, "conditions": [24, 800, "v", 24000], "trial": 7, "serialpos": 5, "trial_type": "single-stim", "trial_index": 258, "time_elapsed": 1187058, "internal_node_id": "0.0-186.0"}}, {"uniqueid": "MTK0715:3W92K5RLWVOJ4C8T91T5YJ6MDQN5V7", "current_trial": 259, "dateTime": 1512675278924, "trialdata": {"rt": -1, "stimulus": "<p id=\"stim\">KITCHEN</p>", "key_press": -1, "type": "PRES_VIS", "word": "kitchen", "wordID": 777, "conditions": [24, 800, "v", 24000], "trial": 7, "serialpos": 6, "trial_type": "single-stim", "trial_index": 259, "time_elapsed": 1189053, "internal_node_id": "0.0-187.0"}}, {"uniqueid": "MTK0715:3W92K5RLWVOJ4C8T91T5YJ6MDQN5V7", "current_trial": 260, "dateTime": 1512675280572, "trialdata": {"rt": -1, "stimulus": "<p id=\"stim\">CURTAIN</p>", "key_press": -1, "type": "PRES_VIS", "word": "curtain", "wordID": 426, "conditions": [24, 800, "v", 24000], "trial": 7, "serialpos": 7, "trial_type": "single-stim", "trial_index": 260, "time_elapsed": 1190701, "internal_node_id": "0.0-188.0"}}, {"uniqueid": "MTK0715:3W92K5RLWVOJ4C8T91T5YJ6MDQN5V7", "current_trial": 261, "dateTime": 1512675282525, "trialdata": {"rt": -1, "stimulus": "<p id=\"stim\">SHERIFF</p>", "key_press": -1, "type": "PRES_VIS", "word": "sheriff", "wordID": 1283, "conditions": [24, 800, "v", 24000], "trial": 7, "serialpos": 8, "trial_type": "single-stim", "trial_index": 261, "time_elapsed": 1192654, "internal_node_id": "0.0-189.0"}}, {"uniqueid": "MTK0715:3W92K5RLWVOJ4C8T91T5YJ6MDQN5V7", "current_trial": 262, "dateTime": 1512675284371, "trialdata": {"rt": -1, "stimulus": "<p id=\"stim\">RIFLE</p>", "key_press": -1, "type": "PRES_VIS", "word": "rifle", "wordID": 1191, "conditions": [24, 800, "v", 24000], "trial": 7, "serialpos": 9, "trial_type": "single-stim", "trial_index": 262, "time_elapsed": 1194499, "internal_node_id": "0.0-190.0"}}, {"uniqueid": "MTK0715:3W92K5RLWVOJ4C8T91T5YJ6MDQN5V7", "current_trial": 263, "dateTime": 1512675286246, "trialdata": {"rt": -1, "stimulus": "<p id=\"stim\">TRUCK</p>", "key_press": -1, "type": "PRES_VIS", "word": "truck", "wordID": 1511, "conditions": [24, 800, "v", 24000], "trial": 7, "serialpos": 10, "trial_type": "single-stim", "trial_index": 263, "time_elapsed": 1196375, "internal_node_id": "0.0-191.0"}}, {"uniqueid": "MTK0715:3W92K5RLWVOJ4C8T91T5YJ6MDQN5V7", "current_trial": 264, "dateTime": 1512675287983, "trialdata": {"rt": -1, "stimulus": "<p id=\"stim\">PLAZA</p>", "key_press": -1, "type": "PRES_VIS", "word": "plaza", "wordID": 1087, "conditions": [24, 800, "v", 24000], "trial": 7, "serialpos": 11, "trial_type": "single-stim", "trial_index": 264, "time_elapsed": 1198112, "internal_node_id": "0.0-192.0"}}, {"uniqueid": "MTK0715:3W92K5RLWVOJ4C8T91T5YJ6MDQN5V7", "current_trial": 265, "dateTime": 1512675289794, "trialdata": {"rt": -1, "stimulus": "<p id=\"stim\">SNACK</p>", "key_press": -1, "type": "PRES_VIS", "word": "snack", "wordID": 1330, "conditions": [24, 800, "v", 24000], "trial": 7, "serialpos": 12, "trial_type": "single-stim", "trial_index": 265, "time_elapsed": 1199923, "internal_node_id": "0.0-193.0"}}, {"uniqueid": "MTK0715:3W92K5RLWVOJ4C8T91T5YJ6MDQN5V7", "current_trial": 266, "dateTime": 1512675291425, "trialdata": {"rt": -1, "stimulus": "<p id=\"stim\">CANDY</p>", "key_press": -1, "type": "PRES_VIS", "word": "candy", "wordID": 229, "conditions": [24, 800, "v", 24000], "trial": 7, "serialpos": 13, "trial_type": "single-stim", "trial_index": 266, "time_elapsed": 1201554, "internal_node_id": "0.0-194.0"}}, {"uniqueid": "MTK0715:3W92K5RLWVOJ4C8T91T5YJ6MDQN5V7", "current_trial": 267, "dateTime": 1512675293083, "trialdata": {"rt": -1, "stimulus": "<p id=\"stim\">ROOSTER</p>", "key_press": -1, "type": "PRES_VIS", "word": "rooster", "wordID": 1208, "conditions": [24, 800, "v", 24000], "trial": 7, "serialpos": 14, "trial_type": "single-stim", "trial_index": 267, "time_elapsed": 1203212, "internal_node_id": "0.0-195.0"}}, {"uniqueid": "MTK0715:3W92K5RLWVOJ4C8T91T5YJ6MDQN5V7", "current_trial": 268, "dateTime": 1512675294981, "trialdata": {"rt": -1, "stimulus": "<p id=\"stim\">LETTUCE</p>", "key_press": -1, "type": "PRES_VIS", "word": "lettuce", "wordID": 813, "conditions": [24, 800, "v", 24000], "trial": 7, "serialpos": 15, "trial_type": "single-stim", "trial_index": 268, "time_elapsed": 1205109, "internal_node_id": "0.0-196.0"}}, {"uniqueid": "MTK0715:3W92K5RLWVOJ4C8T91T5YJ6MDQN5V7", "current_trial": 269, "dateTime": 1512675296654, "trialdata": {"rt": -1, "stimulus": "<p id=\"stim\">JELLO</p>", "key_press": -1, "type": "PRES_VIS", "word": "jello", "wordID": 753, "conditions": [24, 800, "v", 24000], "trial": 7, "serialpos": 16, "trial_type": "single-stim", "trial_index": 269, "time_elapsed": 1206783, "internal_node_id": "0.0-197.0"}}, {"uniqueid": "MTK0715:3W92K5RLWVOJ4C8T91T5YJ6MDQN5V7", "current_trial": 270, "dateTime": 1512675298440, "trialdata": {"rt": -1, "stimulus": "<p id=\"stim\">ANTLER</p>", "key_press": -1, "type": "PRES_VIS", "word": "antler", "wordID": 28, "conditions": [24, 800, "v", 24000], "trial": 7, "serialpos": 17, "trial_type": "single-stim", "trial_index": 270, "time_elapsed": 1208569, "internal_node_id": "0.0-198.0"}}, {"uniqueid": "MTK0715:3W92K5RLWVOJ4C8T91T5YJ6MDQN5V7", "current_trial": 271, "dateTime": 1512675300383, "trialdata": {"rt": -1, "stimulus": "<p id=\"stim\">BRICK</p>", "key_press": -1, "type": "PRES_VIS", "word": "brick", "wordID": 171, "conditions": [24, 800, "v", 24000], "trial": 7, "serialpos": 18, "trial_type": "single-stim", "trial_index": 271, "time_elapsed": 1210511, "internal_node_id": "0.0-199.0"}}, {"uniqueid": "MTK0715:3W92K5RLWVOJ4C8T91T5YJ6MDQN5V7", "current_trial": 272, "dateTime": 1512675302026, "trialdata": {"rt": -1, "stimulus": "<p id=\"stim\">PARROT</p>", "key_press": -1, "type": "PRES_VIS", "word": "parrot", "wordID": 1014, "conditions": [24, 800, "v", 24000], "trial": 7, "serialpos": 19, "trial_type": "single-stim", "trial_index": 272, "time_elapsed": 1212155, "internal_node_id": "0.0-200.0"}}, {"uniqueid": "MTK0715:3W92K5RLWVOJ4C8T91T5YJ6MDQN5V7", "current_trial": 273, "dateTime": 1512675303640, "trialdata": {"rt": -1, "