{"condition": 0, "counterbalance": 2003, "assignmentId": "33L7PJKHCH5NE2N6240T9LSSHS78TO", "workerId": "MTK0638", "hitId": "30QQTY5GMKRWRHZI22TVBXMFAK47UT", "currenttrial": 626, "bonus": 0, "data": [{"uniqueid": "MTK0638:33L7PJKHCH5NE2N6240T9LSSHS78TO", "current_trial": 0, "dateTime": 1512573048803, "trialdata": {"rt": 1988, "key_press": 65, "type": "INSTRUCTIONS", "trial_type": "text", "trial_index": 0, "time_elapsed": 1990, "internal_node_id": "0.0-0.0"}}, {"uniqueid": "MTK0638:33L7PJKHCH5NE2N6240T9LSSHS78TO", "current_trial": 1, "dateTime": 1512573059635, "trialdata": {"rt": 10830, "key_press": 65, "type": "INSTRUCTIONS", "trial_type": "text", "trial_index": 1, "time_elapsed": 12822, "internal_node_id": "0.0-1.0"}}, {"uniqueid": "MTK0638:33L7PJKHCH5NE2N6240T9LSSHS78TO", "current_trial": 2, "dateTime": 1512573069769, "trialdata": {"rt": [10129], "responses": ["ocean"], "type": "AUDIO_TEST", "trial_type": "audio-test", "trial_index": 2, "time_elapsed": 22956, "internal_node_id": "0.0-2.0"}}, {"uniqueid": "MTK0638:33L7PJKHCH5NE2N6240T9LSSHS78TO", "current_trial": 3, "dateTime": 1512573076395, "trialdata": {"rt": [6623], "responses": ["crystal"], "type": "AUDIO_TEST", "trial_type": "audio-test", "trial_index": 3, "time_elapsed": 29582, "internal_node_id": "0.0-3.0"}}, {"uniqueid": "MTK0638:33L7PJKHCH5NE2N6240T9LSSHS78TO", "current_trial": 4, "dateTime": 1512573079735, "trialdata": {"rt": [3338], "responses": ["spice"], "type": "AUDIO_TEST", "trial_type": "audio-test", "trial_index": 4, "time_elapsed": 32922, "internal_node_id": "0.0-4.0"}}, {"uniqueid": "MTK0638:33L7PJKHCH5NE2N6240T9LSSHS78TO", "current_trial": 5, "dateTime": 1512573097080, "trialdata": {"rt": 16593, "responses": "{\"Q0\":\"2am\",\"Q1\":\"8am\",\"Q2\":\"4\"}", "type": "SLEEP_SURVEY", "trial_type": "survey-text", "trial_index": 5, "time_elapsed": 50267, "internal_node_id": "0.0-5.0"}}, {"uniqueid": "MTK0638:33L7PJKHCH5NE2N6240T9LSSHS78TO", "current_trial": 6, "dateTime": 1512573125591, "trialdata": {"rt": 27510, "key_press": 32, "type": "INSTRUCTIONS", "trial_type": "text", "trial_index": 6, "time_elapsed": 78777, "internal_node_id": "0.0-6.0"}}, {"uniqueid": "MTK0638:33L7PJKHCH5NE2N6240T9LSSHS78TO", "current_trial": 7, "dateTime": 1512573134884, "trialdata": {"rt": 8793, "key_press": 32, "type": "INSTRUCTIONS", "trial_type": "text", "trial_index": 7, "time_elapsed": 88071, "internal_node_id": "0.0-7.0"}}, {"uniqueid": "MTK0638:33L7PJKHCH5NE2N6240T9LSSHS78TO", "current_trial": 8, "dateTime": 1512573137713, "trialdata": {"rt": 2328, "key_press": 32, "type": "INSTRUCTIONS", "trial_type": "text", "trial_index": 8, "time_elapsed": 90900, "internal_node_id": "0.0-8.0"}}, {"uniqueid": "MTK0638:33L7PJKHCH5NE2N6240T9LSSHS78TO", "current_trial": 9, "dateTime": 1512573156716, "trialdata": {"rt": [2922, 4986, 6754, 8359, 12216, 15503], "responses": ["14", "9", "16", "8", "23", "19"], "num1": [3, 1, 1, 3, 6, 6, 4], "num2": [8, 2, 7, 4, 8, 4, 9], "num3": [3, 6, 8, 1, 9, 9, 8], "type": "DISTRACTOR", "conditions": [18, 1200, "v", 18000], "trial": 0, "trial_type": "math-distractor", "trial_index": 9, "time_elapsed": 109903, "internal_node_id": "0.0-9.0"}}, {"uniqueid": "MTK0638:33L7PJKHCH5NE2N6240T9LSSHS78TO", "current_trial": 10, "dateTime": 1512573159718, "trialdata": {"rt": -1, "stimulus": "<p id=\"stim\">10</p>", "key_press": -1, "trial_type": "single-stim", "trial_index": 10, "time_elapsed": 112905, "internal_node_id": "0.0-10.0-0.0"}}, {"uniqueid": "MTK0638:33L7PJKHCH5NE2N6240T9LSSHS78TO", "current_trial": 11, "dateTime": 1512573160720, "trialdata": {"rt": -1, "stimulus": "<p id=\"stim\">9</p>", "key_press": -1, "trial_type": "single-stim", "trial_index": 11, "time_elapsed": 113907, "internal_node_id": "0.0-10.0-1.0"}}, {"uniqueid": "MTK0638:33L7PJKHCH5NE2N6240T9LSSHS78TO", "current_trial": 12, "dateTime": 1512573161721, "trialdata": {"rt": -1, "stimulus": "<p id=\"stim\">8</p>", "key_press": -1, "trial_type": "single-stim", "trial_index": 12, "time_elapsed": 114908, "internal_node_id": "0.0-10.0-2.0"}}, {"uniqueid": "MTK0638:33L7PJKHCH5NE2N6240T9LSSHS78TO", "current_trial": 13, "dateTime": 1512573162722, "trialdata": {"rt": -1, "stimulus": "<p id=\"stim\">7</p>", "key_press": -1, "trial_type": "single-stim", "trial_index": 13, "time_elapsed": 115909, "internal_node_id": "0.0-10.0-3.0"}}, {"uniqueid": "MTK0638:33L7PJKHCH5NE2N6240T9LSSHS78TO", "current_trial": 14, "dateTime": 1512573163723, "trialdata": {"rt": -1, "stimulus": "<p id=\"stim\">6</p>", "key_press": -1, "trial_type": "single-stim", "trial_index": 14, "time_elapsed": 116910, "internal_node_id": "0.0-10.0-4.0"}}, {"uniqueid": "MTK0638:33L7PJKHCH5NE2N6240T9LSSHS78TO", "current_trial": 15, "dateTime": 1512573164724, "trialdata": {"rt": -1, "stimulus": "<p id=\"stim\">5</p>", "key_press": -1, "trial_type": "single-stim", "trial_index": 15, "time_elapsed": 117911, "internal_node_id": "0.0-10.0-5.0"}}, {"uniqueid": "MTK0638:33L7PJKHCH5NE2N6240T9LSSHS78TO", "current_trial": 16, "dateTime": 1512573165725, "trialdata": {"rt": -1, "stimulus": "<p id=\"stim\">4</p>", "key_press": -1, "trial_type": "single-stim", "trial_index": 16, "time_elapsed": 118912, "internal_node_id": "0.0-10.0-6.0"}}, {"uniqueid": "MTK0638:33L7PJKHCH5NE2N6240T9LSSHS78TO", "current_trial": 17, "dateTime": 1512573166727, "trialdata": {"rt": -1, "stimulus": "<p id=\"stim\">3</p>", "key_press": -1, "trial_type": "single-stim", "trial_index": 17, "time_elapsed": 119914, "internal_node_id": "0.0-10.0-7.0"}}, {"uniqueid": "MTK0638:33L7PJKHCH5NE2N6240T9LSSHS78TO", "current_trial": 18, "dateTime": 1512573167728, "trialdata": {"rt": -1, "stimulus": "<p id=\"stim\">2</p>", "key_press": -1, "trial_type": "single-stim", "trial_index": 18, "time_elapsed": 120915, "internal_node_id": "0.0-10.0-8.0"}}, {"uniqueid": "MTK0638:33L7PJKHCH5NE2N6240T9LSSHS78TO", "current_trial": 19, "dateTime": 1512573168729, "trialdata": {"rt": -1, "stimulus": "<p id=\"stim\">1</p>", "key_press": -1, "trial_type": "single-stim", "trial_index": 19, "time_elapsed": 121916, "internal_node_id": "0.0-10.0-9.0"}}, {"uniqueid": "MTK0638:33L7PJKHCH5NE2N6240T9LSSHS78TO", "current_trial": 20, "dateTime": 1512573170230, "trialdata": {"rt": -1, "stimulus": "<p id=\"stim\">+</p>", "key_press": -1, "type": "FIXATION", "trial_type": "single-stim", "trial_index": 20, "time_elapsed": 123417, "internal_node_id": "0.0-11.0-0.0"}}, {"uniqueid": "MTK0638:33L7PJKHCH5NE2N6240T9LSSHS78TO", "current_trial": 21, "dateTime": 1512573171431, "trialdata": {"rt": 621, "stimulus": "<p id=\"stim\">SANDWICH</p>", "key_press": 83, "type": "PRES_VIS", "word": "sandwich", "wordID": 1231, "conditions": [18, 1200, "v", 18000], "trial": 0, "serialpos": 0, "trial_type": "single-stim", "trial_index": 21, "time_elapsed": 124618, "internal_node_id": "0.0-12.0"}}, {"uniqueid": "MTK0638:33L7PJKHCH5NE2N6240T9LSSHS78TO", "current_trial": 22, "dateTime": 1512573173793, "trialdata": {"rt": -1, "stimulus": "<p id=\"stim\">NIGHTGOWN</p>", "key_press": -1, "type": "PRES_VIS", "word": "nightgown", "wordID": 952, "conditions": [18, 1200, "v", 18000], "trial": 0, "serialpos": 1, "trial_type": "single-stim", "trial_index": 22, "time_elapsed": 126980, "internal_node_id": "0.0-13.0"}}, {"uniqueid": "MTK0638:33L7PJKHCH5NE2N6240T9LSSHS78TO", "current_trial": 23, "dateTime": 1512573176084, "trialdata": {"rt": -1, "stimulus": "<p id=\"stim\">MUSTARD</p>", "key_press": -1, "type": "PRES_VIS", "word": "mustard", "wordID": 934, "conditions": [18, 1200, "v", 18000], "trial": 0, "serialpos": 2, "trial_type": "single-stim", "trial_index": 23, "time_elapsed": 129271, "internal_node_id": "0.0-14.0"}}, {"uniqueid": "MTK0638:33L7PJKHCH5NE2N6240T9LSSHS78TO", "current_trial": 24, "dateTime": 1512573178271, "trialdata": {"rt": -1, "stimulus": "<p id=\"stim\">BELLY</p>", "key_press": -1, "type": "PRES_VIS", "word": "belly", "wordID": 118, "conditions": [18, 1200, "v", 18000], "trial": 0, "serialpos": 3, "trial_type": "single-stim", "trial_index": 24, "time_elapsed": 131458, "internal_node_id": "0.0-15.0"}}, {"uniqueid": "MTK0638:33L7PJKHCH5NE2N6240T9LSSHS78TO", "current_trial": 25, "dateTime": 1512573180505, "trialdata": {"rt": -1, "stimulus": "<p id=\"stim\">EYELASH</p>", "key_press": -1, "type": "PRES_VIS", "word": "eyelash", "wordID": 545, "conditions": [18, 1200, "v", 18000], "trial": 0, "serialpos": 4, "trial_type": "single-stim", "trial_index": 25, "time_elapsed": 133692, "internal_node_id": "0.0-16.0"}}, {"uniqueid": "MTK0638:33L7PJKHCH5NE2N6240T9LSSHS78TO", "current_trial": 26, "dateTime": 1512573182610, "trialdata": {"rt": -1, "stimulus": "<p id=\"stim\">ITEM</p>", "key_press": -1, "type": "PRES_VIS", "word": "item", "wordID": 745, "conditions": [18, 1200, "v", 18000], "trial": 0, "serialpos": 5, "trial_type": "single-stim", "trial_index": 26, "time_elapsed": 135796, "internal_node_id": "0.0-17.0"}}, {"uniqueid": "MTK0638:33L7PJKHCH5NE2N6240T9LSSHS78TO", "current_trial": 27, "dateTime": 1512573184703, "trialdata": {"rt": -1, "stimulus": "<p id=\"stim\">SUNSET</p>", "key_press": -1, "type": "PRES_VIS", "word": "sunset", "wordID": 1407, "conditions": [18, 1200, "v", 18000], "trial": 0, "serialpos": 6, "trial_type": "single-stim", "trial_index": 27, "time_elapsed": 137890, "internal_node_id": "0.0-18.0"}}, {"uniqueid": "MTK0638:33L7PJKHCH5NE2N6240T9LSSHS78TO", "current_trial": 28, "dateTime": 1512573187060, "trialdata": {"rt": -1, "stimulus": "<p id=\"stim\">RATTLE</p>", "key_press": -1, "type": "PRES_VIS", "word": "rattle", "wordID": 1169, "conditions": [18, 1200, "v", 18000], "trial": 0, "serialpos": 7, "trial_type": "single-stim", "trial_index": 28, "time_elapsed": 140247, "internal_node_id": "0.0-19.0"}}, {"uniqueid": "MTK0638:33L7PJKHCH5NE2N6240T9LSSHS78TO", "current_trial": 29, "dateTime": 1512573189461, "trialdata": {"rt": -1, "stimulus": "<p id=\"stim\">GOBLIN</p>", "key_press": -1, "type": "PRES_VIS", "word": "goblin", "wordID": 644, "conditions": [18, 1200, "v", 18000], "trial": 0, "serialpos": 8, "trial_type": "single-stim", "trial_index": 29, "time_elapsed": 142648, "internal_node_id": "0.0-20.0"}}, {"uniqueid": "MTK0638:33L7PJKHCH5NE2N6240T9LSSHS78TO", "current_trial": 30, "dateTime": 1512573191510, "trialdata": {"rt": -1, "stimulus": "<p id=\"stim\">JUDGE</p>", "key_press": -1, "type": "PRES_VIS", "word": "judge", "wordID": 760, "conditions": [18, 1200, "v", 18000], "trial": 0, "serialpos": 9, "trial_type": "single-stim", "trial_index": 30, "time_elapsed": 144697, "internal_node_id": "0.0-21.0"}}, {"uniqueid": "MTK0638:33L7PJKHCH5NE2N6240T9LSSHS78TO", "current_trial": 31, "dateTime": 1512573193671, "trialdata": {"rt": -1, "stimulus": "<p id=\"stim\">CASHIER</p>", "key_press": -1, "type": "PRES_VIS", "word": "cashier", "wordID": 253, "conditions": [18, 1200, "v", 18000], "trial": 0, "serialpos": 10, "trial_type": "single-stim", "trial_index": 31, "time_elapsed": 146858, "internal_node_id": "0.0-22.0"}}, {"uniqueid": "MTK0638:33L7PJKHCH5NE2N6240T9LSSHS78TO", "current_trial": 32, "dateTime": 1512573196036, "trialdata": {"rt": -1, "stimulus": "<p id=\"stim\">ICEBERG</p>", "key_press": -1, "type": "PRES_VIS", "word": "iceberg", "wordID": 730, "conditions": [18, 1200, "v", 18000], "trial": 0, "serialpos": 11, "trial_type": "single-stim", "trial_index": 32, "time_elapsed": 149223, "internal_node_id": "0.0-23.0"}}, {"uniqueid": "MTK0638:33L7PJKHCH5NE2N6240T9LSSHS78TO", "current_trial": 33, "dateTime": 1512573198250, "trialdata": {"rt": -1, "stimulus": "<p id=\"stim\">RACKET</p>", "key_press": -1, "type": "PRES_VIS", "word": "racket", "wordID": 1154, "conditions": [18, 1200, "v", 18000], "trial": 0, "serialpos": 12, "trial_type": "single-stim", "trial_index": 33, "time_elapsed": 151437, "internal_node_id": "0.0-24.0"}}, {"uniqueid": "MTK0638:33L7PJKHCH5NE2N6240T9LSSHS78TO", "current_trial": 34, "dateTime": 1512573200496, "trialdata": {"rt": -1, "stimulus": "<p id=\"stim\">SIDEWALK</p>", "key_press": -1, "type": "PRES_VIS", "word": "sidewalk", "wordID": 1302, "conditions": [18, 1200, "v", 18000], "trial": 0, "serialpos": 13, "trial_type": "single-stim", "trial_index": 34, "time_elapsed": 153683, "internal_node_id": "0.0-25.0"}}, {"uniqueid": "MTK0638:33L7PJKHCH5NE2N6240T9LSSHS78TO", "current_trial": 35, "dateTime": 1512573202777, "trialdata": {"rt": -1, "stimulus": "<p id=\"stim\">CREATURE</p>", "key_press": -1, "type": "PRES_VIS", "word": "creature", "wordID": 402, "conditions": [18, 1200, "v", 18000], "trial": 0, "serialpos": 14, "trial_type": "single-stim", "trial_index": 35, "time_elapsed": 155964, "internal_node_id": "0.0-26.0"}}, {"uniqueid": "MTK0638:33L7PJKHCH5NE2N6240T9LSSHS78TO", "current_trial": 36, "dateTime": 1512573205087, "trialdata": {"rt": -1, "stimulus": "<p id=\"stim\">NAPKIN</p>", "key_press": -1, "type": "PRES_VIS", "word": "napkin", "wordID": 936, "conditions": [18, 1200, "v", 18000], "trial": 0, "serialpos": 15, "trial_type": "single-stim", "trial_index": 36, "time_elapsed": 158274, "internal_node_id": "0.0-27.0"}}, {"uniqueid": "MTK0638:33L7PJKHCH5NE2N6240T9LSSHS78TO", "current_trial": 37, "dateTime": 1512573207392, "trialdata": {"rt": -1, "stimulus": "<p id=\"stim\">FILM</p>", "key_press": -1, "type": "PRES_VIS", "word": "film", "wordID": 564, "conditions": [18, 1200, "v", 18000], "trial": 0, "serialpos": 16, "trial_type": "single-stim", "trial_index": 37, "time_elapsed": 160579, "internal_node_id": "0.0-28.0"}}, {"uniqueid": "MTK0638:33L7PJKHCH5NE2N6240T9LSSHS78TO", "current_trial": 38, "dateTime": 1512573209603, "trialdata": {"rt": -1, "stimulus": "<p id=\"stim\">STAPLE</p>", "key_press": -1, "type": "PRES_VIS", "word": "staple", "wordID": 1370, "conditions": [18, 1200, "v", 18000], "trial": 0, "serialpos": 17, "trial_type": "single-stim", "trial_index": 38, "time_elapsed": 162790, "internal_node_id": "0.0-29.0"}}, {"uniqueid": "MTK0638:33L7PJKHCH5NE2N6240T9LSSHS78TO", "current_trial": 39, "dateTime": 1512573212089, "trialdata": {"rt": -1, "stimulus": "", "key_press": -1, "type": "PRE_RECALL_DELAY", "trial_type": "single-stim", "trial_index": 39, "time_elapsed": 165276, "internal_node_id": "0.0-30.0-0.0"}}, {"uniqueid": "MTK0638:33L7PJKHCH5NE2N6240T9LSSHS78TO", "current_trial": 40, "dateTime": 1512573212591, "trialdata": {"rt": -1000, "stimulus": "/static/audio/400Hz.wav", "key_press": -1, "type": "PRE_RECALL_ALERT", "trial_type": "single-audio", "trial_index": 40, "time_elapsed": 165777, "internal_node_id": "0.0-31.0"}}, {"uniqueid": "MTK0638:33L7PJKHCH5NE2N6240T9LSSHS78TO", "current_trial": 41, "dateTime": 1512573272595, "trialdata": {"rt": [3421, 5205, 6105, 13698, 27940], "recwords": ["sandwhich", "iceberg", "staple", "ship", "baseball"], "type": "FREE_RECALL", "conditions": [18, 1200, "v", 18000], "trial": 0, "trial_type": "free-recall", "trial_index": 41, "time_elapsed": 225780, "internal_node_id": "0.0-32.0-0.0"}}, {"uniqueid": "MTK0638:33L7PJKHCH5NE2N6240T9LSSHS78TO", "current_trial": 42, "dateTime": 1512573276111, "trialdata": {"rt": 1516, "key_press": 32, "type": "INSTRUCTIONS", "trial_type": "text", "trial_index": 42, "time_elapsed": 229298, "internal_node_id": "0.0-33.0"}}, {"uniqueid": "MTK0638:33L7PJKHCH5NE2N6240T9LSSHS78TO", "current_trial": 43, "dateTime": 1512573296113, "trialdata": {"rt": [2529, 5119, 6344, 8448, 9997, 11554, 13175, 14542, 16951], "responses": ["13", "20", "18", "12", "15", "13", "14", "12", "11"], "num1": [1, 6, 5, 7, 9, 2, 4, 2, 2, 3], "num2": [8, 8, 5, 3, 1, 8, 8, 5, 6, 8], "num3": [4, 6, 8, 2, 5, 3, 2, 5, 3, 3], "type": "DISTRACTOR", "conditions": [18, 1200, "a", 18000], "trial": 1, "trial_type": "math-distractor", "trial_index": 43, "time_elapsed": 249300, "internal_node_id": "0.0-34.0"}}, {"uniqueid": "MTK0638:33L7PJKHCH5NE2N6240T9LSSHS78TO", "current_trial": 44, "dateTime": 1512573299114, "trialdata": {"rt": -1, "stimulus": "<p id=\"stim\">10</p>", "key_press": -1, "trial_type": "single-stim", "trial_index": 44, "time_elapsed": 252301, "internal_node_id": "0.0-35.0-0.0"}}, {"uniqueid": "MTK0638:33L7PJKHCH5NE2N6240T9LSSHS78TO", "current_trial": 45, "dateTime": 1512573300116, "trialdata": {"rt": -1, "stimulus": "<p id=\"stim\">9</p>", "key_press": -1, "trial_type": "single-stim", "trial_index": 45, "time_elapsed": 253303, "internal_node_id": "0.0-35.0-1.0"}}, {"uniqueid": "MTK0638:33L7PJKHCH5NE2N6240T9LSSHS78TO", "current_trial": 46, "dateTime": 1512573301116, "trialdata": {"rt": -1, "stimulus": "<p id=\"stim\">8</p>", "key_press": -1, "trial_type": "single-stim", "trial_index": 46, "time_elapsed": 254303, "internal_node_id": "0.0-35.0-2.0"}}, {"uniqueid": "MTK0638:33L7PJKHCH5NE2N6240T9LSSHS78TO", "current_trial": 47, "dateTime": 1512573302117, "trialdata": {"rt": -1, "stimulus": "<p id=\"stim\">7</p>", "key_press": -1, "trial_type": "single-stim", "trial_index": 47, "time_elapsed": 255304, "internal_node_id": "0.0-35.0-3.0"}}, {"uniqueid": "MTK0638:33L7PJKHCH5NE2N6240T9LSSHS78TO", "current_trial": 48, "dateTime": 1512573303119, "trialdata": {"rt": -1, "stimulus": "<p id=\"stim\">6</p>", "key_press": -1, "trial_type": "single-stim", "trial_index": 48, "time_elapsed": 256306, "internal_node_id": "0.0-35.0-4.0"}}, {"uniqueid": "MTK0638:33L7PJKHCH5NE2N6240T9LSSHS78TO", "current_trial": 49, "dateTime": 1512573304119, "trialdata": {"rt": -1, "stimulus": "<p id=\"stim\">5</p>", "key_press": -1, "trial_type": "single-stim", "trial_index": 49, "time_elapsed": 257306, "internal_node_id": "0.0-35.0-5.0"}}, {"uniqueid": "MTK0638:33L7PJKHCH5NE2N6240T9LSSHS78TO", "current_trial": 50, "dateTime": 1512573305121, "trialdata": {"rt": -1, "stimulus": "<p id=\"stim\">4</p>", "key_press": -1, "trial_type": "single-stim", "trial_index": 50, "time_elapsed": 258308, "internal_node_id": "0.0-35.0-6.0"}}, {"uniqueid": "MTK0638:33L7PJKHCH5NE2N6240T9LSSHS78TO", "current_trial": 51, "dateTime": 1512573306121, "trialdata": {"rt": -1, "stimulus": "<p id=\"stim\">3</p>", "key_press": -1, "trial_type": "single-stim", "trial_index": 51, "time_elapsed": 259308, "internal_node_id": "0.0-35.0-7.0"}}, {"uniqueid": "MTK0638:33L7PJKHCH5NE2N6240T9LSSHS78TO", "current_trial": 52, "dateTime": 1512573307122, "trialdata": {"rt": -1, "stimulus": "<p id=\"stim\">2</p>", "key_press": -1, "trial_type": "single-stim", "trial_index": 52, "time_elapsed": 260309, "internal_node_id": "0.0-35.0-8.0"}}, {"uniqueid": "MTK0638:33L7PJKHCH5NE2N6240T9LSSHS78TO", "current_trial": 53, "dateTime": 1512573308123, "trialdata": {"rt": -1, "stimulus": "<p id=\"stim\">1</p>", "key_press": -1, "trial_type": "single-stim", "trial_index": 53, "time_elapsed": 261310, "internal_node_id": "0.0-35.0-9.0"}}, {"uniqueid": "MTK0638:33L7PJKHCH5NE2N6240T9LSSHS78TO", "current_trial": 54, "dateTime": 1512573309625, "trialdata": {"rt": -1, "stimulus": "<p id=\"stim\">+</p>", "key_press": -1, "type": "FIXATION", "trial_type": "single-stim", "trial_index": 54, "time_elapsed": 262811, "internal_node_id": "0.0-36.0-0.0"}}, {"uniqueid": "MTK0638:33L7PJKHCH5NE2N6240T9LSSHS78TO", "current_trial": 55, "dateTime": 1512573311717, "trialdata": {"rt": -1000, "stimulus": "/static/audio/wordpool/HEART.wav", "key_press": -1, "type": "PRES_AUD", "word": "heart", "wordID": 696, "conditions": [18, 1200, "a", 18000], "trial": 1, "serialpos": 0, "trial_type": "single-audio", "trial_index": 55, "time_elapsed": 264904, "internal_node_id": "0.0-37.0"}}, {"uniqueid": "MTK0638:33L7PJKHCH5NE2N6240T9LSSHS78TO", "current_trial": 56, "dateTime": 1512573314094, "trialdata": {"rt": -1000, "stimulus": "/static/audio/wordpool/FREEZER.wav", "key_press": -1, "type": "PRES_AUD", "word": "freezer", "wordID": 603, "conditions": [18, 1200, "a", 18000], "trial": 1, "serialpos": 1, "trial_type": "single-audio", "trial_index": 56, "time_elapsed": 267281, "internal_node_id": "0.0-38.0"}}, {"uniqueid": "MTK0638:33L7PJKHCH5NE2N6240T9LSSHS78TO", "current_trial": 57, "dateTime": 1512573316117, "trialdata": {"rt": -1000, "stimulus": "/static/audio/wordpool/JELLY.wav", "key_press": -1, "type": "PRES_AUD", "word": "jelly", "wordID": 754, "conditions": [18, 1200, "a", 18000], "trial": 1, "serialpos": 2, "trial_type": "single-audio", "trial_index": 57, "time_elapsed": 269304, "internal_node_id": "0.0-39.0"}}, {"uniqueid": "MTK0638:33L7PJKHCH5NE2N6240T9LSSHS78TO", "current_trial": 58, "dateTime": 1512573318455, "trialdata": {"rt": -1000, "stimulus": "/static/audio/wordpool/BUG.wav", "key_press": -1, "type": "PRES_AUD", "word": "bug", "wordID": 186, "conditions": [18, 1200, "a", 18000], "trial": 1, "serialpos": 3, "trial_type": "single-audio", "trial_index": 58, "time_elapsed": 271641, "internal_node_id": "0.0-40.0"}}, {"uniqueid": "MTK0638:33L7PJKHCH5NE2N6240T9LSSHS78TO", "current_trial": 59, "dateTime": 1512573320563, "trialdata": {"rt": -1000, "stimulus": "/static/audio/wordpool/PERCH.wav", "key_press": -1, "type": "PRES_AUD", "word": "perch", "wordID": 1047, "conditions": [18, 1200, "a", 18000], "trial": 1, "serialpos": 4, "trial_type": "single-audio", "trial_index": 59, "time_elapsed": 273750, "internal_node_id": "0.0-41.0"}}, {"uniqueid": "MTK0638:33L7PJKHCH5NE2N6240T9LSSHS78TO", "current_trial": 60, "dateTime": 1512573322897, "trialdata": {"rt": -1000, "stimulus": "/static/audio/wordpool/BLOUSE.wav", "key_press": -1, "type": "PRES_AUD", "word": "blouse", "wordID": 138, "conditions": [18, 1200, "a", 18000], "trial": 1, "serialpos": 5, "trial_type": "single-audio", "trial_index": 60, "time_elapsed": 276084, "internal_node_id": "0.0-42.0"}}, {"uniqueid": "MTK0638:33L7PJKHCH5NE2N6240T9LSSHS78TO", "current_trial": 61, "dateTime": 1512573325264, "trialdata": {"rt": -1000, "stimulus": "/static/audio/wordpool/BISON.wav", "key_press": -1, "type": "PRES_AUD", "word": "bison", "wordID": 130, "conditions": [18, 1200, "a", 18000], "trial": 1, "serialpos": 6, "trial_type": "single-audio", "trial_index": 61, "time_elapsed": 278451, "internal_node_id": "0.0-43.0"}}, {"uniqueid": "MTK0638:33L7PJKHCH5NE2N6240T9LSSHS78TO", "current_trial": 62, "dateTime": 1512573327508, "trialdata": {"rt": -1000, "stimulus": "/static/audio/wordpool/CARRIAGE.wav", "key_press": -1, "type": "PRES_AUD", "word": "carriage", "wordID": 247, "conditions": [18, 1200, "a", 18000], "trial": 1, "serialpos": 7, "trial_type": "single-audio", "trial_index": 62, "time_elapsed": 280695, "internal_node_id": "0.0-44.0"}}, {"uniqueid": "MTK0638:33L7PJKHCH5NE2N6240T9LSSHS78TO", "current_trial": 63, "dateTime": 1512573329719, "trialdata": {"rt": -1000, "stimulus": "/static/audio/wordpool/PIMPLE.wav", "key_press": -1, "type": "PRES_AUD", "word": "pimple", "wordID": 1070, "conditions": [18, 1200, "a", 18000], "trial": 1, "serialpos": 8, "trial_type": "single-audio", "trial_index": 63, "time_elapsed": 282906, "internal_node_id": "0.0-45.0"}}, {"uniqueid": "MTK0638:33L7PJKHCH5NE2N6240T9LSSHS78TO", "current_trial": 64, "dateTime": 1512573331770, "trialdata": {"rt": -1000, "stimulus": "/static/audio/wordpool/TROUT.wav", "key_press": -1, "type": "PRES_AUD", "word": "trout", "wordID": 1510, "conditions": [18, 1200, "a", 18000], "trial": 1, "serialpos": 9, "trial_type": "single-audio", "trial_index": 64, "time_elapsed": 284957, "internal_node_id": "0.0-46.0"}}, {"uniqueid": "MTK0638:33L7PJKHCH5NE2N6240T9LSSHS78TO", "current_trial": 65, "dateTime": 1512573334078, "trialdata": {"rt": -1000, "stimulus": "/static/audio/wordpool/GAVEL.wav", "key_press": -1, "type": "PRES_AUD", "word": "gavel", "wordID": 626, "conditions": [18, 1200, "a", 18000], "trial": 1, "serialpos": 10, "trial_type": "single-audio", "trial_index": 65, "time_elapsed": 287264, "internal_node_id": "0.0-47.0"}}, {"uniqueid": "MTK0638:33L7PJKHCH5NE2N6240T9LSSHS78TO", "current_trial": 66, "dateTime": 1512573336377, "trialdata": {"rt": -1000, "stimulus": "/static/audio/wordpool/LACE.wav", "key_press": -1, "type": "PRES_AUD", "word": "lace", "wordID": 791, "conditions": [18, 1200, "a", 18000], "trial": 1, "serialpos": 11, "trial_type": "single-audio", "trial_index": 66, "time_elapsed": 289563, "internal_node_id": "0.0-48.0"}}, {"uniqueid": "MTK0638:33L7PJKHCH5NE2N6240T9LSSHS78TO", "current_trial": 67, "dateTime": 1512573338724, "trialdata": {"rt": -1000, "stimulus": "/static/audio/wordpool/LOVER.wav", "key_press": -1, "type": "PRES_AUD", "word": "lover", "wordID": 845, "conditions": [18, 1200, "a", 18000], "trial": 1, "serialpos": 12, "trial_type": "single-audio", "trial_index": 67, "time_elapsed": 291911, "internal_node_id": "0.0-49.0"}}, {"uniqueid": "MTK0638:33L7PJKHCH5NE2N6240T9LSSHS78TO", "current_trial": 68, "dateTime": 1512573340939, "trialdata": {"rt": -1000, "stimulus": "/static/audio/wordpool/TURKEY.wav", "key_press": -1, "type": "PRES_AUD", "word": "turkey", "wordID": 1519, "conditions": [18, 1200, "a", 18000], "trial": 1, "serialpos": 13, "trial_type": "single-audio", "trial_index": 68, "time_elapsed": 294125, "internal_node_id": "0.0-50.0"}}, {"uniqueid": "MTK0638:33L7PJKHCH5NE2N6240T9LSSHS78TO", "current_trial": 69, "dateTime": 1512573343112, "trialdata": {"rt": -1000, "stimulus": "/static/audio/wordpool/LUNCH.wav", "key_press": -1, "type": "PRES_AUD", "word": "lunch", "wordID": 848, "conditions": [18, 1200, "a", 18000], "trial": 1, "serialpos": 14, "trial_type": "single-audio", "trial_index": 69, "time_elapsed": 296299, "internal_node_id": "0.0-51.0"}}, {"uniqueid": "MTK0638:33L7PJKHCH5NE2N6240T9LSSHS78TO", "current_trial": 70, "dateTime": 1512573345310, "trialdata": {"rt": -1000, "stimulus": "/static/audio/wordpool/SCISSORS.wav", "key_press": -1, "type": "PRES_AUD", "word": "scissors", "wordID": 1249, "conditions": [18, 1200, "a", 18000], "trial": 1, "serialpos": 15, "trial_type": "single-audio", "trial_index": 70, "time_elapsed": 298497, "internal_node_id": "0.0-52.0"}}, {"uniqueid": "MTK0638:33L7PJKHCH5NE2N6240T9LSSHS78TO", "current_trial": 71, "dateTime": 1512573347362, "trialdata": {"rt": -1000, "stimulus": "/static/audio/wordpool/MARKET.wav", "key_press": -1, "type": "PRES_AUD", "word": "market", "wordID": 870, "conditions": [18, 1200, "a", 18000], "trial": 1, "serialpos": 16, "trial_type": "single-audio", "trial_index": 71, "time_elapsed": 300549, "internal_node_id": "0.0-53.0"}}, {"uniqueid": "MTK0638:33L7PJKHCH5NE2N6240T9LSSHS78TO", "current_trial": 72, "dateTime": 1512573349474, "trialdata": {"rt": -1000, "stimulus": "/static/audio/wordpool/SHELF.wav", "key_press": -1, "type": "PRES_AUD", "word": "shelf", "wordID": 1279, "conditions": [18, 1200, "a", 18000], "trial": 1, "serialpos": 17, "trial_type": "single-audio", "trial_index": 72, "time_elapsed": 302660, "internal_node_id": "0.0-54.0"}}, {"uniqueid": "MTK0638:33L7PJKHCH5NE2N6240T9LSSHS78TO", "current_trial": 73, "dateTime": 1512573350685, "trialdata": {"rt": -1, "stimulus": "", "key_press": -1, "type": "PRE_RECALL_DELAY", "trial_type": "single-stim", "trial_index": 73, "time_elapsed": 303872, "internal_node_id": "0.0-55.0-0.0"}}, {"uniqueid": "MTK0638:33L7PJKHCH5NE2N6240T9LSSHS78TO", "current_trial": 74, "dateTime": 1512573351186, "trialdata": {"rt": -1000, "stimulus": "/static/audio/400Hz.wav", "key_press": -1, "type": "PRE_RECALL_ALERT", "trial_type": "single-audio", "trial_index": 74, "time_elapsed": 304373, "internal_node_id": "0.0-56.0"}}, {"uniqueid": "MTK0638:33L7PJKHCH5NE2N6240T9LSSHS78TO", "current_trial": 75, "dateTime": 1512573411191, "trialdata": {"rt": [2423, 3669, 4542, 5190, 5915, 8401, 13217, 16041, 17249], "recwords": ["heart", "freezer", "jelly", "shelf", "market", "thug", "pimple", "shelf", "freezer"], "type": "FREE_RECALL", "conditions": [18, 1200, "a", 18000], "trial": 1, "trial_type": "free-recall", "trial_index": 75, "time_elapsed": 364376, "internal_node_id": "0.0-57.0-0.0"}}, {"uniqueid": "MTK0638:33L7PJKHCH5NE2N6240T9LSSHS78TO", "current_trial": 76, "dateTime": 1512573419370, "trialdata": {"rt": 6175, "key_press": 32, "type": "INSTRUCTIONS", "trial_type": "text", "trial_index": 76, "time_elapsed": 372553, "internal_node_id": "0.0-58.0"}}, {"uniqueid": "MTK0638:33L7PJKHCH5NE2N6240T9LSSHS78TO", "current_trial": 77, "dateTime": 1512573444373, "trialdata": {"rt": [1892, 3948, 6159, 8140, 11369, 13179, 19580, 21902], "responses": ["14", "12", "17", "13", "18", "19", "18", "15"], "num1": [3, 8, 6, 8, 4, 6, 3, 4, 5], "num2": [7, 3, 3, 3, 8, 5, 6, 3, 4], "num3": [4, 1, 8, 2, 6, 8, 9, 8, 9], "type": "DISTRACTOR", "conditions": [24, 800, "a", 24000], "trial": 2, "trial_type": "math-distractor", "trial_index": 77, "time_elapsed": 397560, "internal_node_id": "0.0-59.0"}}, {"uniqueid": "MTK0638:33L7PJKHCH5NE2N6240T9LSSHS78TO", "current_trial": 78, "dateTime": 1512573447374, "trialdata": {"rt": -1, "stimulus": "<p id=\"stim\">10</p>", "key_press": -1, "trial_type": "single-stim", "trial_index": 78, "time_elapsed": 400561, "internal_node_id": "0.0-60.0-0.0"}}, {"uniqueid": "MTK0638:33L7PJKHCH5NE2N6240T9LSSHS78TO", "current_trial": 79, "dateTime": 1512573448375, "trialdata": {"rt": -1, "stimulus": "<p id=\"stim\">9</p>", "key_press": -1, "trial_type": "single-stim", "trial_index": 79, "time_elapsed": 401562, "internal_node_id": "0.0-60.0-1.0"}}, {"uniqueid": "MTK0638:33L7PJKHCH5NE2N6240T9LSSHS78TO", "current_trial": 80, "dateTime": 1512573449375, "trialdata": {"rt": -1, "stimulus": "<p id=\"stim\">8</p>", "key_press": -1, "trial_type": "single-stim", "trial_index": 80, "time_elapsed": 402562, "internal_node_id": "0.0-60.0-2.0"}}, {"uniqueid": "MTK0638:33L7PJKHCH5NE2N6240T9LSSHS78TO", "current_trial": 81, "dateTime": 1512573450377, "trialdata": {"rt": -1, "stimulus": "<p id=\"stim\">7</p>", "key_press": -1, "trial_type": "single-stim", "trial_index": 81, "time_elapsed": 403564, "internal_node_id": "0.0-60.0-3.0"}}, {"uniqueid": "MTK0638:33L7PJKHCH5NE2N6240T9LSSHS78TO", "current_trial": 82, "dateTime": 1512573451378, "trialdata": {"rt": -1, "stimulus": "<p id=\"stim\">6</p>", "key_press": -1, "trial_type": "single-stim", "trial_index": 82, "time_elapsed": 404565, "internal_node_id": "0.0-60.0-4.0"}}, {"uniqueid": "MTK0638:33L7PJKHCH5NE2N6240T9LSSHS78TO", "current_trial": 83, "dateTime": 1512573452379, "trialdata": {"rt": -1, "stimulus": "<p id=\"stim\">5</p>", "key_press": -1, "trial_type": "single-stim", "trial_index": 83, "time_elapsed": 405566, "internal_node_id": "0.0-60.0-5.0"}}, {"uniqueid": "MTK0638:33L7PJKHCH5NE2N6240T9LSSHS78TO", "current_trial": 84, "dateTime": 1512573453380, "trialdata": {"rt": -1, "stimulus": "<p id=\"stim\">4</p>", "key_press": -1, "trial_type": "single-stim", "trial_index": 84, "time_elapsed": 406567, "internal_node_id": "0.0-60.0-6.0"}}, {"uniqueid": "MTK0638:33L7PJKHCH5NE2N6240T9LSSHS78TO", "current_trial": 85, "dateTime": 1512573454381, "trialdata": {"rt": -1, "stimulus": "<p id=\"stim\">3</p>", "key_press": -1, "trial_type": "single-stim", "trial_index": 85, "time_elapsed": 407568, "internal_node_id": "0.0-60.0-7.0"}}, {"uniqueid": "MTK0638:33L7PJKHCH5NE2N6240T9LSSHS78TO", "current_trial": 86, "dateTime": 1512573455382, "trialdata": {"rt": -1, "stimulus": "<p id=\"stim\">2</p>", "key_press": -1, "trial_type": "single-stim", "trial_index": 86, "time_elapsed": 408569, "internal_node_id": "0.0-60.0-8.0"}}, {"uniqueid": "MTK0638:33L7PJKHCH5NE2N6240T9LSSHS78TO", "current_trial": 87, "dateTime": 1512573456383, "trialdata": {"rt": -1, "stimulus": "<p id=\"stim\">1</p>", "key_press": -1, "trial_type": "single-stim", "trial_index": 87, "time_elapsed": 409570, "internal_node_id": "0.0-60.0-9.0"}}, {"uniqueid": "MTK0638:33L7PJKHCH5NE2N6240T9LSSHS78TO", "current_trial": 88, "dateTime": 1512573457885, "trialdata": {"rt": -1, "stimulus": "<p id=\"stim\">+</p>", "key_press": -1, "type": "FIXATION", "trial_type": "single-stim", "trial_index": 88, "time_elapsed": 411072, "internal_node_id": "0.0-61.0-0.0"}}, {"uniqueid": "MTK0638:33L7PJKHCH5NE2N6240T9LSSHS78TO", "current_trial": 89, "dateTime": 1512573459490, "trialdata": {"rt": -1000, "stimulus": "/static/audio/wordpool/MAILBOX.wav", "key_press": -1, "type": "PRES_AUD", "word": "mailbox", "wordID": 856, "conditions": [24, 800, "a", 24000], "trial": 2, "serialpos": 0, "trial_type": "single-audio", "trial_index": 89, "time_elapsed": 412677, "internal_node_id": "0.0-62.0"}}, {"uniqueid": "MTK0638:33L7PJKHCH5NE2N6240T9LSSHS78TO", "current_trial": 90, "dateTime": 1512573461307, "trialdata": {"rt": -1000, "stimulus": "/static/audio/wordpool/MAILMAN.wav", "key_press": -1, "type": "PRES_AUD", "word": "mailman", "wordID": 857, "conditions": [24, 800, "a", 24000], "trial": 2, "serialpos": 1, "trial_type": "single-audio", "trial_index": 90, "time_elapsed": 414494, "internal_node_id": "0.0-63.0"}}, {"uniqueid": "MTK0638:33L7PJKHCH5NE2N6240T9LSSHS78TO", "current_trial": 91, "dateTime": 1512573463053, "trialdata": {"rt": -1000, "stimulus": "/static/audio/wordpool/BACON.wav", "key_press": -1, "type": "PRES_AUD", "word": "bacon", "wordID": 66, "conditions": [24, 800, "a", 24000], "trial": 2, "serialpos": 2, "trial_type": "single-audio", "trial_index": 91, "time_elapsed": 416240, "internal_node_id": "0.0-64.0"}}, {"uniqueid": "MTK0638:33L7PJKHCH5NE2N6240T9LSSHS78TO", "current_trial": 92, "dateTime": 1512573464991, "trialdata": {"rt": -1000, "stimulus": "/static/audio/wordpool/TOURIST.wav", "key_press": -1, "type": "PRES_AUD", "word": "tourist", "wordID": 1487, "conditions": [24, 800, "a", 24000], "trial": 2, "serialpos": 3, "trial_type": "single-audio", "trial_index": 92, "time_elapsed": 418178, "internal_node_id": "0.0-65.0"}}, {"uniqueid": "MTK0638:33L7PJKHCH5NE2N6240T9LSSHS78TO", "current_trial": 93, "dateTime": 1512573466968, "trialdata": {"rt": -1000, "stimulus": "/static/audio/wordpool/ACTRESS.wav", "key_press": -1, "type": "PRES_AUD", "word": "actress", "wordID": 5, "conditions": [24, 800, "a", 24000], "trial": 2, "serialpos": 4, "trial_type": "single-audio", "trial_index": 93, "time_elapsed": 420154, "internal_node_id": "0.0-66.0"}}, {"uniqueid": "MTK0638:33L7PJKHCH5NE2N6240T9LSSHS78TO", "current_trial": 94, "dateTime": 1512573468743, "trialdata": {"rt": -1000, "stimulus": "/static/audio/wordpool/LION.wav", "key_press": -1, "type": "PRES_AUD", "word": "lion", "wordID": 826, "conditions": [24, 800, "a", 24000], "trial": 2, "serialpos": 5, "trial_type": "single-audio", "trial_index": 94, "time_elapsed": 421930, "internal_node_id": "0.0-67.0"}}, {"uniqueid": "MTK0638:33L7PJKHCH5NE2N6240T9LSSHS78TO", "current_trial": 95, "dateTime": 1512573470412, "trialdata": {"rt": -1000, "stimulus": "/static/audio/wordpool/SUPPER.wav", "key_press": -1, "type": "PRES_AUD", "word": "supper", "wordID": 1410, "conditions": [24, 800, "a", 24000], "trial": 2, "serialpos": 6, "trial_type": "single-audio", "trial_index": 95, "time_elapsed": 423599, "internal_node_id": "0.0-68.0"}}, {"uniqueid": "MTK0638:33L7PJKHCH5NE2N6240T9LSSHS78TO", "current_trial": 96, "dateTime": 1512573472207, "trialdata": {"rt": -1000, "stimulus": "/static/audio/wordpool/OMELET.wav", "key_press": -1, "type": "PRES_AUD", "word": "omelet", "wordID": 975, "conditions": [24, 800, "a", 24000], "trial": 2, "serialpos": 7, "trial_type": "single-audio", "trial_index": 96, "time_elapsed": 425394, "internal_node_id": "0.0-69.0"}}, {"uniqueid": "MTK0638:33L7PJKHCH5NE2N6240T9LSSHS78TO", "current_trial": 97, "dateTime": 1512573474015, "trialdata": {"rt": -1000, "stimulus": "/static/audio/wordpool/CASHEW.wav", "key_press": -1, "type": "PRES_AUD", "word": "cashew", "wordID": 252, "conditions": [24, 800, "a", 24000], "trial": 2, "serialpos": 8, "trial_type": "single-audio", "trial_index": 97, "time_elapsed": 427202, "internal_node_id": "0.0-70.0"}}, {"uniqueid": "MTK0638:33L7PJKHCH5NE2N6240T9LSSHS78TO", "current_trial": 98, "dateTime": 1512573476001, "trialdata": {"rt": -1000, "stimulus": "/static/audio/wordpool/SPOUSE.wav", "key_press": -1, "type": "PRES_AUD", "word": "spouse", "wordID": 1357, "conditions": [24, 800, "a", 24000], "trial": 2, "serialpos": 9, "trial_type": "single-audio", "trial_index": 98, "time_elapsed": 429188, "internal_node_id": "0.0-71.0"}}, {"uniqueid": "MTK0638:33L7PJKHCH5NE2N6240T9LSSHS78TO", "current_trial": 99, "dateTime": 1512573477834, "trialdata": {"rt": -1000, "stimulus": "/static/audio/wordpool/POISON.wav", "key_press": -1, "type": "PRES_AUD", "word": "poison", "wordID": 1095, "conditions": [24, 800, "a", 24000], "trial": 2, "serialpos": 10, "trial_type": "single-audio", "trial_index": 99, "time_elapsed": 431021, "internal_node_id": "0.0-72.0"}}, {"uniqueid": "MTK0638:33L7PJKHCH5NE2N6240T9LSSHS78TO", "current_trial": 100, "dateTime": 1512573479586, "trialdata": {"rt": -1000, "stimulus": "/static/audio/wordpool/CONVICT.wav", "key_press": -1, "type": "PRES_AUD", "word": "convict", "wordID": 370, "conditions": [24, 800, "a", 24000], "trial": 2, "serialpos": 11, "trial_type": "single-audio", "trial_index": 100, "time_elapsed": 432773, "internal_node_id": "0.0-73.0"}}, {"uniqueid": "MTK0638:33L7PJKHCH5NE2N6240T9LSSHS78TO", "current_trial": 101, "dateTime": 1512573481286, "trialdata": {"rt": -1000, "stimulus": "/static/audio/wordpool/SCARECROW.wav", "key_press": -1, "type": "PRES_AUD", "word": "scarecrow", "wordID": 1244, "conditions": [24, 800, "a", 24000], "trial": 2, "serialpos": 12, "trial_type": "single-audio", "trial_index": 101, "time_elapsed": 434473, "internal_node_id": "0.0-74.0"}}, {"uniqueid": "MTK0638:33L7PJKHCH5NE2N6240T9LSSHS78TO", "current_trial": 102, "dateTime": 1512573483007, "trialdata": {"rt": -1000, "stimulus": "/static/audio/wordpool/HORNET.wav", "key_press": -1, "type": "PRES_AUD", "word": "hornet", "wordID": 717, "conditions": [24, 800, "a", 24000], "trial": 2, "serialpos": 13, "trial_type": "single-audio", "trial_index": 102, "time_elapsed": 436194, "internal_node_id": "0.0-75.0"}}, {"uniqueid": "MTK0638:33L7PJKHCH5NE2N6240T9LSSHS78TO", "current_trial": 103, "dateTime": 1512573484777, "trialdata": {"rt": -1000, "stimulus": "/static/audio/wordpool/GLASS.wav", "key_press": -1, "type": "PRES_AUD", "word": "glass", "wordID": 638, "conditions": [24, 800, "a", 24000], "trial": 2, "serialpos": 14, "trial_type": "single-audio", "trial_index": 103, "time_elapsed": 437964, "internal_node_id": "0.0-76.0"}}, {"uniqueid": "MTK0638:33L7PJKHCH5NE2N6240T9LSSHS78TO", "current_trial": 104, "dateTime": 1512573486617, "trialdata": {"rt": -1000, "stimulus": "/static/audio/wordpool/SALAD.wav", "key_press": -1, "type": "PRES_AUD", "word": "salad", "wordID": 1223, "conditions": [24, 800, "a", 24000], "trial": 2, "serialpos": 15, "trial_type": "single-audio", "trial_index": 104, "time_elapsed": 439804, "internal_node_id": "0.0-77.0"}}, {"uniqueid": "MTK0638:33L7PJKHCH5NE2N6240T9LSSHS78TO", "current_trial": 105, "dateTime": 1512573488446, "trialdata": {"rt": -1000, "stimulus": "/static/audio/wordpool/VALVE.wav", "key_press": -1, "type": "PRES_AUD", "word": "valve", "wordID": 1545, "conditions": [24, 800, "a", 24000], "trial": 2, "serialpos": 16, "trial_type": "single-audio", "trial_index": 105, "time_elapsed": 441633, "internal_node_id": "0.0-78.0"}}, {"uniqueid": "MTK0638:33L7PJKHCH5NE2N6240T9LSSHS78TO", "current_trial": 106, "dateTime": 1512573490073, "trialdata": {"rt": -1000, "stimulus": "/static/audio/wordpool/PIGEON.wav", "key_press": -1, "type": "PRES_AUD", "word": "pigeon", "wordID": 1064, "conditions": [24, 800, "a", 24000], "trial": 2, "serialpos": 17, "trial_type": "single-audio", "trial_index": 106, "time_elapsed": 443260, "internal_node_id": "0.0-79.0"}}, {"uniqueid": "MTK0638:33L7PJKHCH5NE2N6240T9LSSHS78TO", "current_trial": 107, "dateTime": 1512573491936, "trialdata": {"rt": -1000, "stimulus": "/static/audio/wordpool/DRIVER.wav", "key_press": -1, "type": "PRES_AUD", "word": "driver", "wordID": 498, "conditions": [24, 800, "a", 24000], "trial": 2, "serialpos": 18, "trial_type": "single-audio", "trial_index": 107, "time_elapsed": 445123, "internal_node_id": "0.0-80.0"}}, {"uniqueid": "MTK0638:33L7PJKHCH5NE2N6240T9LSSHS78TO", "current_trial": 108, "dateTime": 1512573493684, "trialdata": {"rt": -1000, "stimulus": "/static/audio/wordpool/PISTOL.wav", "key_press": -1, "type": "PRES_AUD", "word": "pistol", "wordID": 1074, "conditions": [24, 800, "a", 24000], "trial": 2, "serialpos": 19, "trial_type": "single-audio", "trial_index": 108, "time_elapsed": 446871, "internal_node_id": "0.0-81.0"}}, {"uniqueid": "MTK0638:33L7PJKHCH5NE2N6240T9LSSHS78TO", "current_trial": 109, "dateTime": 1512573495486, "trialdata": {"rt": -1000, "stimulus": "/static/audio/wordpool/COUNTY.wav", "key_press": -1, "type": "PRES_AUD", "word": "county", "wordID": 388, "conditions": [24, 800, "a", 24000], "trial": 2, "serialpos": 20, "trial_type": "single-audio", "trial_index": 109, "time_elapsed": 448673, "internal_node_id": "0.0-82.0"}}, {"uniqueid": "MTK0638:33L7PJKHCH5NE2N6240T9LSSHS78TO", "current_trial": 110, "dateTime": 1512573497159, "trialdata": {"rt": -1000, "stimulus": "/static/audio/wordpool/SHERIFF.wav", "key_press": -1, "type": "PRES_AUD", "word": "sheriff", "wordID": 1283, "conditions": [24, 800, "a", 24000], "trial": 2, "serialpos": 21, "trial_type": "single-audio", "trial_index": 110, "time_elapsed": 450346, "internal_node_id": "0.0-83.0"}}, {"uniqueid": "MTK0638:33L7PJKHCH5NE2N6240T9LSSHS78TO", "current_trial": 111, "dateTime": 1512573498993, "trialdata": {"rt": -1000, "stimulus": "/static/audio/wordpool/COSTUME.wav", "key_press": -1, "type": "PRES_AUD", "word": "costume", "wordID": 382, "conditions": [24, 800, "a", 24000], "trial": 2, "serialpos": 22, "trial_type": "single-audio", "trial_index": 111, "time_elapsed": 452180, "internal_node_id": "0.0-84.0"}}, {"uniqueid": "MTK0638:33L7PJKHCH5NE2N6240T9LSSHS78TO", "current_trial": 112, "dateTime": 1512573500818, "trialdata": {"rt": -1000, "stimulus": "/static/audio/wordpool/MONSTER.wav", "key_press": -1, "type": "PRES_AUD", "word": "monster", "wordID": 911, "conditions": [24, 800, "a", 24000], "trial": 2, "serialpos": 23, "trial_type": "single-audio", "trial_index": 112, "time_elapsed": 454005, "internal_node_id": "0.0-85.0"}}, {"uniqueid": "MTK0638:33L7PJKHCH5NE2N6240T9LSSHS78TO", "current_trial": 113, "dateTime": 1512573502033, "trialdata": {"rt": -1, "stimulus": "", "key_press": -1, "type": "PRE_RECALL_DELAY", "trial_type": "single-stim", "trial_index": 113, "time_elapsed": 455220, "internal_node_id": "0.0-86.0-0.0"}}, {"uniqueid": "MTK0638:33L7PJKHCH5NE2N6240T9LSSHS78TO", "current_trial": 114, "dateTime": 1512573502534, "trialdata": {"rt": -1000, "stimulus": "/static/audio/400Hz.wav", "key_press": -1, "type": "PRE_RECALL_ALERT", "trial_type": "single-audio", "trial_index": 114, "time_elapsed": 455721, "internal_node_id": "0.0-87.0"}}, {"uniqueid": "MTK0638:33L7PJKHCH5NE2N6240T9LSSHS78TO", "current_trial": 115, "dateTime": 1512573562537, "trialdata": {"rt": [1664, 2993, 4131, 5712, 9853], "recwords": ["monster", "sheriff", "bacon", "monster", "costume"], "type": "FREE_RECALL", "conditions": [24, 800, "a", 24000], "trial": 2, "trial_type": "free-recall", "trial_index": 115, "time_elapsed": 515723, "internal_node_id": "0.0-88.0-0.0"}}, {"uniqueid": "MTK0638:33L7PJKHCH5NE2N6240T9LSSHS78TO", "current_trial": 116, "dateTime": 1512573574616, "trialdata": {"rt": 10076, "key_press": 32, "type": "INSTRUCTIONS", "trial_type": "text", "trial_index": 116, "time_elapsed": 527803, "internal_node_id": "0.0-89.0"}}, {"uniqueid": "MTK0638:33L7PJKHCH5NE2N6240T9LSSHS78TO", "current_trial": 117, "dateTime": 1512573588618, "trialdata": {"rt": [3328, 5960, 7448, 9318], "responses": ["20", "26", "17", "5"], "num1": [3, 8, 5, 1, 9], "num2": [8, 9, 7, 3, 6], "num3": [9, 9, 5, 1, 8], "type": "DISTRACTOR", "conditions": [12, 800, "a", 12000], "trial": 3, "trial_type": "math-distractor", "trial_index": 117, "time_elapsed": 541805, "internal_node_id": "0.0-90.0"}}, {"uniqueid": "MTK0638:33L7PJKHCH5NE2N6240T9LSSHS78TO", "current_trial": 118, "dateTime": 1512573591620, "trialdata": {"rt": -1, "stimulus": "<p id=\"stim\">10</p>", "key_press": -1, "trial_type": "single-stim", "trial_index": 118, "time_elapsed": 544807, "internal_node_id": "0.0-91.0-0.0"}}, {"uniqueid": "MTK0638:33L7PJKHCH5NE2N6240T9LSSHS78TO", "current_trial": 119, "dateTime": 1512573592621, "trialdata": {"rt": -1, "stimulus": "<p id=\"stim\">9</p>", "key_press": -1, "trial_type": "single-stim", "trial_index": 119, "time_elapsed": 545808, "internal_node_id": "0.0-91.0-1.0"}}, {"uniqueid": "MTK0638:33L7PJKHCH5NE2N6240T9LSSHS78TO", "current_trial": 120, "dateTime": 1512573593622, "trialdata": {"rt": -1, "stimulus": "<p id=\"stim\">8</p>", "key_press": -1, "trial_type": "single-stim", "trial_index": 120, "time_elapsed": 546809, "internal_node_id": "0.0-91.0-2.0"}}, {"uniqueid": "MTK0638:33L7PJKHCH5NE2N6240T9LSSHS78TO", "current_trial": 121, "dateTime": 1512573594623, "trialdata": {"rt": -1, "stimulus": "<p id=\"stim\">7</p>", "key_press": -1, "trial_type": "single-stim", "trial_index": 121, "time_elapsed": 547810, "internal_node_id": "0.0-91.0-3.0"}}, {"uniqueid": "MTK0638:33L7PJKHCH5NE2N6240T9LSSHS78TO", "current_trial": 122, "dateTime": 1512573595624, "trialdata": {"rt": -1, "stimulus": "<p id=\"stim\">6</p>", "key_press": -1, "trial_type": "single-stim", "trial_index": 122, "time_elapsed": 548811, "internal_node_id": "0.0-91.0-4.0"}}, {"uniqueid": "MTK0638:33L7PJKHCH5NE2N6240T9LSSHS78TO", "current_trial": 123, "dateTime": 1512573596626, "trialdata": {"rt": -1, "stimulus": "<p id=\"stim\">5</p>", "key_press": -1, "trial_type": "single-stim", "trial_index": 123, "time_elapsed": 549813, "internal_node_id": "0.0-91.0-5.0"}}, {"uniqueid": "MTK0638:33L7PJKHCH5NE2N6240T9LSSHS78TO", "current_trial": 124, "dateTime": 1512573597627, "trialdata": {"rt": -1, "stimulus": "<p id=\"stim\">4</p>", "key_press": -1, "trial_type": "single-stim", "trial_index": 124, "time_elapsed": 550814, "internal_node_id": "0.0-91.0-6.0"}}, {"uniqueid": "MTK0638:33L7PJKHCH5NE2N6240T9LSSHS78TO", "current_trial": 125, "dateTime": 1512573598628, "trialdata": {"rt": -1, "stimulus": "<p id=\"stim\">3</p>", "key_press": -1, "trial_type": "single-stim", "trial_index": 125, "time_elapsed": 551815, "internal_node_id": "0.0-91.0-7.0"}}, {"uniqueid": "MTK0638:33L7PJKHCH5NE2N6240T9LSSHS78TO", "current_trial": 126, "dateTime": 1512573599629, "trialdata": {"rt": -1, "stimulus": "<p id=\"stim\">2</p>", "key_press": -1, "trial_type": "single-stim", "trial_index": 126, "time_elapsed": 552816, "internal_node_id": "0.0-91.0-8.0"}}, {"uniqueid": "MTK0638:33L7PJKHCH5NE2N6240T9LSSHS78TO", "current_trial": 127, "dateTime": 1512573600630, "trialdata": {"rt": -1, "stimulus": "<p id=\"stim\">1</p>", "key_press": -1, "trial_type": "single-stim", "trial_index": 127, "time_elapsed": 553817, "internal_node_id": "0.0-91.0-9.0"}}, {"uniqueid": "MTK0638:33L7PJKHCH5NE2N6240T9LSSHS78TO", "current_trial": 128, "dateTime": 1512573602132, "trialdata": {"rt": -1, "stimulus": "<p id=\"stim\">+</p>", "key_press": -1, "type": "FIXATION", "trial_type": "single-stim", "trial_index": 128, "time_elapsed": 555319, "internal_node_id": "0.0-92.0-0.0"}}, {"uniqueid": "MTK0638:33L7PJKHCH5NE2N6240T9LSSHS78TO", "current_trial": 129, "dateTime": 1512573604053, "trialdata": {"rt": -1000, "stimulus": "/static/audio/wordpool/PICTURE.wav", "key_press": -1, "type": "PRES_AUD", "word": "picture", "wordID": 1060, "conditions": [12, 800, "a", 12000], "trial": 3, "serialpos": 0, "trial_type": "single-audio", "trial_index": 129, "time_elapsed": 557239, "internal_node_id": "0.0-93.0"}}, {"uniqueid": "MTK0638:33L7PJKHCH5NE2N6240T9LSSHS78TO", "current_trial": 130, "dateTime": 1512573605724, "trialdata": {"rt": -1000, "stimulus": "/static/audio/wordpool/PERFUME.wav", "key_press": -1, "type": "PRES_AUD", "word": "perfume", "wordID": 1048, "conditions": [12, 800, "a", 12000], "trial": 3, "serialpos": 1, "trial_type": "single-audio", "trial_index": 130, "time_elapsed": 558911, "internal_node_id": "0.0-94.0"}}, {"uniqueid": "MTK0638:33L7PJKHCH5NE2N6240T9LSSHS78TO", "current_trial": 131, "dateTime": 1512573607527, "trialdata": {"rt": -1000, "stimulus": "/static/audio/wordpool/LUGGAGE.wav", "key_press": -1, "type": "PRES_AUD", "word": "luggage", "wordID": 846, "conditions": [12, 800, "a", 12000], "trial": 3, "serialpos": 2, "trial_type": "single-audio", "trial_index": 131, "time_elapsed": 560714, "internal_node_id": "0.0-95.0"}}, {"uniqueid": "MTK0638:33L7PJKHCH5NE2N6240T9LSSHS78TO", "current_trial": 132, "dateTime": 1512573609512, "trialdata": {"rt": -1000, "stimulus": "/static/audio/wordpool/SUBWAY.wav", "key_press": -1, "type": "PRES_AUD", "word": "subway", "wordID": 1399, "conditions": [12, 800, "a", 12000], "trial": 3, "serialpos": 3, "trial_type": "single-audio", "trial_index": 132, "time_elapsed": 562699, "internal_node_id": "0.0-96.0"}}, {"uniqueid": "MTK0638:33L7PJKHCH5NE2N6240T9LSSHS78TO", "current_trial": 133, "dateTime": 1512573611468, "trialdata": {"rt": -1000, "stimulus": "/static/audio/wordpool/WAITER.wav", "key_press": -1, "type": "PRES_AUD", "word": "waiter", "wordID": 1579, "conditions": [12, 800, "a", 12000], "trial": 3, "serialpos": 4, "trial_type": "single-audio", "trial_index": 133, "time_elapsed": 564655, "internal_node_id": "0.0-97.0"}}, {"uniqueid": "MTK0638:33L7PJKHCH5NE2N6240T9LSSHS78TO", "current_trial": 134, "dateTime": 1512573613096, "trialdata": {"rt": -1000, "stimulus": "/static/audio/wordpool/SWORD.wav", "key_press": -1, "type": "PRES_AUD", "word": "sword", "wordID": 1422, "conditions": [12, 800, "a", 12000], "trial": 3, "serialpos": 5, "trial_type": "single-audio", "trial_index": 134, "time_elapsed": 566282, "internal_node_id": "0.0-98.0"}}, {"uniqueid": "MTK0638:33L7PJKHCH5NE2N6240T9LSSHS78TO", "current_trial": 135, "dateTime": 1512573614771, "trialdata": {"rt": -1000, "stimulus": "/static/audio/wordpool/KNIFE.wav", "key_press": -1, "type": "PRES_AUD", "word": "knife", "wordID": 784, "conditions": [12, 800, "a", 12000], "trial": 3, "serialpos": 6, "trial_type": "single-audio", "trial_index": 135, "time_elapsed": 567958, "internal_node_id": "0.0-99.0"}}, {"uniqueid": "MTK0638:33L7PJKHCH5NE2N6240T9LSSHS78TO", "current_trial": 136, "dateTime": 1512573616399, "trialdata": {"rt": -1000, "stimulus": "/static/audio/wordpool/BATHTUB.wav", "key_press": -1, "type": "PRES_AUD", "word": "bathtub", "wordID": 99, "conditions": [12, 800, "a", 12000], "trial": 3, "serialpos": 7, "trial_type": "single-audio", "trial_index": 136, "time_elapsed": 569586, "internal_node_id": "0.0-100.0"}}, {"uniqueid": "MTK0638:33L7PJKHCH5NE2N6240T9LSSHS78TO", "current_trial": 137, "dateTime": 1512573618120, "trialdata": {"rt": -1000, "stimulus": "/static/audio/wordpool/AIRPLANE.wav", "key_press": -1, "type": "PRES_AUD", "word": "airplane", "wordID": 11, "conditions": [12, 800, "a", 12000], "trial": 3, "serialpos": 8, "trial_type": "single-audio", "trial_index": 137, "time_elapsed": 571307, "internal_node_id": "0.0-101.0"}}, {"uniqueid": "MTK0638:33L7PJKHCH5NE2N6240T9LSSHS78TO", "current_trial": 138, "dateTime": 1512573620033, "trialdata": {"rt": -1000, "stimulus": "/static/audio/wordpool/CRAB.wav", "key_press": -1, "type": "PRES_AUD", "word": "crab", "wordID": 396, "conditions": [12, 800, "a", 12000], "trial": 3, "serialpos": 9, "trial_type": "single-audio", "trial_index": 138, "time_elapsed": 573220, "internal_node_id": "0.0-102.0"}}, {"uniqueid": "MTK0638:33L7PJKHCH5NE2N6240T9LSSHS78TO", "current_trial": 139, "dateTime": 1512573621821, "trialdata": {"rt": -1000, "stimulus": "/static/audio/wordpool/PORTRAIT.wav", "key_press": -1, "type": "PRES_AUD", "word": "portrait", "wordID": 1110, "conditions": [12, 800, "a", 12000], "trial": 3, "serialpos": 10, "trial_type": "single-audio", "trial_index": 139, "time_elapsed": 575008, "internal_node_id": "0.0-103.0"}}, {"uniqueid": "MTK0638:33L7PJKHCH5NE2N6240T9LSSHS78TO", "current_trial": 140, "dateTime": 1512573623694, "trialdata": {"rt": -1000, "stimulus": "/static/audio/wordpool/MUFFIN.wav", "key_press": -1, "type": "PRES_AUD", "word": "muffin", "wordID": 928, "conditions": [12, 800, "a", 12000], "trial": 3, "serialpos": 11, "trial_type": "single-audio", "trial_index": 140, "time_elapsed": 576881, "internal_node_id": "0.0-104.0"}}, {"uniqueid": "MTK0638:33L7PJKHCH5NE2N6240T9LSSHS78TO", "current_trial": 141, "dateTime": 1512573625029, "trialdata": {"rt": -1, "stimulus": "", "key_press": -1, "type": "PRE_RECALL_DELAY", "trial_type": "single-stim", "trial_index": 141, "time_elapsed": 578216, "internal_node_id": "0.0-105.0-0.0"}}, {"uniqueid": "MTK0638:33L7PJKHCH5NE2N6240T9LSSHS78TO", "current_trial": 142, "dateTime": 1512573625531, "trialdata": {"rt": -1000, "stimulus": "/static/audio/400Hz.wav", "key_press": -1, "type": "PRE_RECALL_ALERT", "trial_type": "single-audio", "trial_index": 142, "time_elapsed": 578718, "internal_node_id": "0.0-106.0"}}, {"uniqueid": "MTK0638:33L7PJKHCH5NE2N6240T9LSSHS78TO", "current_trial": 143, "dateTime": 1512573685536, "trialdata": {"rt": [2277, 3402, 4798, 5667, 7731, 8795], "recwords": ["picture", "perfume", "luggage", "muffin", "baggage", "airplane"], "type": "FREE_RECALL", "conditions": [12, 800, "a", 12000], "trial": 3, "trial_type": "free-recall", "trial_index": 143, "time_elapsed": 638720, "internal_node_id": "0.0-107.0-0.0"}}, {"uniqueid": "MTK0638:33L7PJKHCH5NE2N6240T9LSSHS78TO", "current_trial": 144, "dateTime": 1512573689264, "trialdata": {"rt": 1726, "key_press": 32, "type": "INSTRUCTIONS", "trial_type": "text", "trial_index": 144, "time_elapsed": 642451, "internal_node_id": "0.0-108.0"}}, {"uniqueid": "MTK0638:33L7PJKHCH5NE2N6240T9LSSHS78TO", "current_trial": 145, "dateTime": 1512573703267, "trialdata": {"rt": [3006, 4420, 6466, 9495, 10812], "responses": ["20", "19", "16", "19", "21"], "num1": [5, 2, 6, 7, 7, 8], "num2": [9, 8, 8, 9, 7, 7], "num3": [6, 9, 2, 3, 7, 1], "type": "DISTRACTOR", "conditions": [24, 800, "a", 12000], "trial": 4, "trial_type": "math-distractor", "trial_index": 145, "time_elapsed": 656454, "internal_node_id": "0.0-109.0"}}, {"uniqueid": "MTK0638:33L7PJKHCH5NE2N6240T9LSSHS78TO", "current_trial": 146, "dateTime": 1512573706269, "trialdata": {"rt": -1, "stimulus": "<p id=\"stim\">10</p>", "key_press": -1, "trial_type": "single-stim", "trial_index": 146, "time_elapsed": 659456, "internal_node_id": "0.0-110.0-0.0"}}, {"uniqueid": "MTK0638:33L7PJKHCH5NE2N6240T9LSSHS78TO", "current_trial": 147, "dateTime": 1512573707270, "trialdata": {"rt": -1, "stimulus": "<p id=\"stim\">9</p>", "key_press": -1, "trial_type": "single-stim", "trial_index": 147, "time_elapsed": 660457, "internal_node_id": "0.0-110.0-1.0"}}, {"uniqueid": "MTK0638:33L7PJKHCH5NE2N6240T9LSSHS78TO", "current_trial": 148, "dateTime": 1512573708271, "trialdata": {"rt": -1, "stimulus": "<p id=\"stim\">8</p>", "key_press": -1, "trial_type": "single-stim", "trial_index": 148, "time_elapsed": 661458, "internal_node_id": "0.0-110.0-2.0"}}, {"uniqueid": "MTK0638:33L7PJKHCH5NE2N6240T9LSSHS78TO", "current_trial": 149, "dateTime": 1512573709272, "trialdata": {"rt": -1, "stimulus": "<p id=\"stim\">7</p>", "key_press": -1, "trial_type": "single-stim", "trial_index": 149, "time_elapsed": 662459, "internal_node_id": "0.0-110.0-3.0"}}, {"uniqueid": "MTK0638:33L7PJKHCH5NE2N6240T9LSSHS78TO", "current_trial": 150, "dateTime": 1512573710273, "trialdata": {"rt": -1, "stimulus": "<p id=\"stim\">6</p>", "key_press": -1, "trial_type": "single-stim", "trial_index": 150, "time_elapsed": 663460, "internal_node_id": "0.0-110.0-4.0"}}, {"uniqueid": "MTK0638:33L7PJKHCH5NE2N6240T9LSSHS78TO", "current_trial": 151, "dateTime": 1512573711275, "trialdata": {"rt": -1, "stimulus": "<p id=\"stim\">5</p>", "key_press": -1, "trial_type": "single-stim", "trial_index": 151, "time_elapsed": 664462, "internal_node_id": "0.0-110.0-5.0"}}, {"uniqueid": "MTK0638:33L7PJKHCH5NE2N6240T9LSSHS78TO", "current_trial": 152, "dateTime": 1512573712276, "trialdata": {"rt": -1, "stimulus": "<p id=\"stim\">4</p>", "key_press": -1, "trial_type": "single-stim", "trial_index": 152, "time_elapsed": 665463, "internal_node_id": "0.0-110.0-6.0"}}, {"uniqueid": "MTK0638:33L7PJKHCH5NE2N6240T9LSSHS78TO", "current_trial": 153, "dateTime": 1512573713276, "trialdata": {"rt": -1, "stimulus": "<p id=\"stim\">3</p>", "key_press": -1, "trial_type": "single-stim", "trial_index": 153, "time_elapsed": 666463, "internal_node_id": "0.0-110.0-7.0"}}, {"uniqueid": "MTK0638:33L7PJKHCH5NE2N6240T9LSSHS78TO", "current_trial": 154, "dateTime": 1512573714278, "trialdata": {"rt": -1, "stimulus": "<p id=\"stim\">2</p>", "key_press": -1, "trial_type": "single-stim", "trial_index": 154, "time_elapsed": 667465, "internal_node_id": "0.0-110.0-8.0"}}, {"uniqueid": "MTK0638:33L7PJKHCH5NE2N6240T9LSSHS78TO", "current_trial": 155, "dateTime": 1512573715279, "trialdata": {"rt": -1, "stimulus": "<p id=\"stim\">1</p>", "key_press": -1, "trial_type": "single-stim", "trial_index": 155, "time_elapsed": 668466, "internal_node_id": "0.0-110.0-9.0"}}, {"uniqueid": "MTK0638:33L7PJKHCH5NE2N6240T9LSSHS78TO", "current_trial": 156, "dateTime": 1512573716780, "trialdata": {"rt": -1, "stimulus": "<p id=\"stim\">+</p>", "key_press": -1, "type": "FIXATION", "trial_type": "single-stim", "trial_index": 156, "time_elapsed": 669967, "internal_node_id": "0.0-111.0-0.0"}}, {"uniqueid": "MTK0638:33L7PJKHCH5NE2N6240T9LSSHS78TO", "current_trial": 157, "dateTime": 1512573718490, "trialdata": {"rt": -1000, "stimulus": "/static/audio/wordpool/TEACHER.wav", "key_press": -1, "type": "PRES_AUD", "word": "teacher", "wordID": 1439, "conditions": [24, 800, "a", 12000], "trial": 4, "serialpos": 0, "trial_type": "single-audio", "trial_index": 157, "time_elapsed": 671677, "internal_node_id": "0.0-112.0"}}, {"uniqueid": "MTK0638:33L7PJKHCH5NE2N6240T9LSSHS78TO", "current_trial": 158, "dateTime": 1512573720101, "trialdata": {"rt": -1000, "stimulus": "/static/audio/wordpool/LIPSTICK.wav", "key_press": -1, "type": "PRES_AUD", "word": "lipstick", "wordID": 828, "conditions": [24, 800, "a", 12000], "trial": 4, "serialpos": 1, "trial_type": "single-audio", "trial_index": 158, "time_elapsed": 673288, "internal_node_id": "0.0-113.0"}}, {"uniqueid": "MTK0638:33L7PJKHCH5NE2N6240T9LSSHS78TO", "current_trial": 159, "dateTime": 1512573721992, "trialdata": {"rt": -1000, "stimulus": "/static/audio/wordpool/CIGAR.wav", "key_press": -1, "type": "PRES_AUD", "word": "cigar", "wordID": 307, "conditions": [24, 800, "a", 12000], "trial": 4, "serialpos": 2, "trial_type": "single-audio", "trial_index": 159, "time_elapsed": 675179, "internal_node_id": "0.0-114.0"}}, {"uniqueid": "MTK0638:33L7PJKHCH5NE2N6240T9LSSHS78TO", "current_trial": 160, "dateTime": 1512573723703, "trialdata": {"rt": -1000, "stimulus": "/static/audio/wordpool/SILK.wav", "key_press": -1, "type": "PRES_AUD", "word": "silk", "wordID": 1306, "conditions": [24, 800, "a", 12000], "trial": 4, "serialpos": 3, "trial_type": "single-audio", "trial_index": 160, "time_elapsed": 676890, "internal_node_id": "0.0-115.0"}}, {"uniqueid": "MTK0638:33L7PJKHCH5NE2N6240T9LSSHS78TO", "current_trial": 161, "dateTime": 1512573725604, "trialdata": {"rt": -1000, "stimulus": "/static/audio/wordpool/SCALLOP.wav", "key_press": -1, "type": "PRES_AUD", "word": "scallop", "wordID": 1241, "conditions": [24, 800, "a", 12000], "trial": 4, "serialpos": 4, "trial_type": "single-audio", "trial_index": 161, "time_elapsed": 678791, "internal_node_id": "0.0-116.0"}}, {"uniqueid": "MTK0638:33L7PJKHCH5NE2N6240T9LSSHS78TO", "current_trial": 162, "dateTime": 1512573727253, "trialdata": {"rt": -1000, "stimulus": "/static/audio/wordpool/TWEEZERS.wav", "key_press": -1, "type": "PRES_AUD", "word": "tweezers", "wordID": 1525, "conditions": [24, 800, "a", 12000], "trial": 4, "serialpos": 5, "trial_type": "single-audio", "trial_index": 162, "time_elapsed": 680440, "internal_node_id": "0.0-117.0"}}, {"uniqueid": "MTK0638:33L7PJKHCH5NE2N6240T9LSSHS78TO", "current_trial": 163, "dateTime": 1512573729037, "trialdata": {"rt": -1000, "stimulus": "/static/audio/wordpool/PLIERS.wav", "key_press": -1, "type": "PRES_AUD", "word": "pliers", "wordID": 1088, "conditions": [24, 800, "a", 12000], "trial": 4, "serialpos": 6, "trial_type": "single-audio", "trial_index": 163, "time_elapsed": 682224, "internal_node_id": "0.0-118.0"}}, {"uniqueid": "MTK0638:33L7PJKHCH5NE2N6240T9LSSHS78TO", "current_trial": 164, "dateTime": 1512573730773, "trialdata": {"rt": -1000, "stimulus": "/static/audio/wordpool/PARROT.wav", "key_press": -1, "type": "PRES_AUD", "word": "parrot", "wordID": 1014, "conditions": [24, 800, "a", 12000], "trial": 4, "serialpos": 7, "trial_type": "single-audio", "trial_index": 164, "time_elapsed": 683960, "internal_node_id": "0.0-119.0"}}, {"uniqueid": "MTK0638:33L7PJKHCH5NE2N6240T9LSSHS78TO", "current_trial": 165, "dateTime": 1512573732673, "trialdata": {"rt": -1000, "stimulus": "/static/audio/wordpool/CLAMP.wav", "key_press": -1, "type": "PRES_AUD", "word": "clamp", "wordID": 315, "conditions": [24, 800, "a", 12000], "trial": 4, "serialpos": 8, "trial_type": "single-audio", "trial_index": 165, "time_elapsed": 685860, "internal_node_id": "0.0-120.0"}}, {"uniqueid": "MTK0638:33L7PJKHCH5NE2N6240T9LSSHS78TO", "current_trial": 166, "dateTime": 1512573734565, "trialdata": {"rt": -1000, "stimulus": "/static/audio/wordpool/BLACKBOARD.wav", "key_press": -1, "type": "PRES_AUD", "word": "blackboard", "wordID": 132, "conditions": [24, 800, "a", 12000], "trial": 4, "serialpos": 9, "trial_type": "single-audio", "trial_index": 166, "time_elapsed": 687752, "internal_node_id": "0.0-121.0"}}, {"uniqueid": "MTK0638:33L7PJKHCH5NE2N6240T9LSSHS78TO", "current_trial": 167, "dateTime": 1512573736379, "trialdata": {"rt": -1000, "stimulus": "/static/audio/wordpool/EGYPT.wav", "key_press": -1, "type": "PRES_AUD", "word": "egypt", "wordID": 518, "conditions": [24, 800, "a", 12000], "trial": 4, "serialpos": 10, "trial_type": "single-audio", "trial_index": 167, "time_elapsed": 689566, "internal_node_id": "0.0-122.0"}}, {"uniqueid": "MTK0638:33L7PJKHCH5NE2N6240T9LSSHS78TO", "current_trial": 168, "dateTime": 1512573738166, "trialdata": {"rt": -1000, "stimulus": "/static/audio/wordpool/STUDENT.wav", "key_press": -1, "type": "PRES_AUD", "word": "student", "wordID": 1394, "conditions": [24, 800, "a", 12000], "trial": 4, "serialpos": 11, "trial_type": "single-audio", "trial_index": 168, "time_elapsed": 691353, "internal_node_id": "0.0-123.0"}}, {"uniqueid": "MTK0638:33L7PJKHCH5NE2N6240T9LSSHS78TO", "current_trial": 169, "dateTime": 1512573739960, "trialdata": {"rt": -1000, "stimulus": "/static/audio/wordpool/FLASHLIGHT.wav", "key_press": -1, "type": "PRES_AUD", "word": "flashlight", "wordID": 574, "conditions": [24, 800, "a", 12000], "trial": 4, "serialpos": 12, "trial_type": "single-audio", "trial_index": 169, "time_elapsed": 693147, "internal_node_id": "0.0-124.0"}}, {"uniqueid": "MTK0638:33L7PJKHCH5NE2N6240T9LSSHS78TO", "current_trial": 170, "dateTime": 1512573741710, "trialdata": {"rt": -1000, "stimulus": "/static/audio/wordpool/RECEIPT.wav", "key_press": -1, "type": "PRES_AUD", "word": "receipt", "wordID": 1172, "conditions": [24, 800, "a", 12000], "trial": 4, "serialpos": 13, "trial_type": "single-audio", "trial_index": 170, "time_elapsed": 694897, "internal_node_id": "0.0-125.0"}}, {"uniqueid": "MTK0638:33L7PJKHCH5NE2N6240T9LSSHS78TO", "current_trial": 171, "dateTime": 1512573743323, "trialdata": {"rt": -1000, "stimulus": "/static/audio/wordpool/SKETCH.wav", "key_press": -1, "type": "PRES_AUD", "word": "sketch", "wordID": 1314, "conditions": [24, 800, "a", 12000], "trial": 4, "serialpos": 14, "trial_type": "single-audio", "trial_index": 171, "time_elapsed": 696510, "internal_node_id": "0.0-126.0"}}, {"uniqueid": "MTK0638:33L7PJKHCH5NE2N6240T9LSSHS78TO", "current_trial": 172, "dateTime": 1512573745239, "trialdata": {"rt": -1000, "stimulus": "/static/audio/wordpool/COWBOY.wav", "key_press": -1, "type": "PRES_AUD", "word": "cowboy", "wordID": 394, "conditions": [24, 800, "a", 12000], "trial": 4, "serialpos": 15, "trial_type": "single-audio", "trial_index": 172, "time_elapsed": 698426, "internal_node_id": "0.0-127.0"}}, {"uniqueid": "MTK0638:33L7PJKHCH5NE2N6240T9LSSHS78TO", "current_trial": 173, "dateTime": 1512573746867, "trialdata": {"rt": -1000, "stimulus": "/static/audio/wordpool/ROD.wav", "key_press": -1, "type": "PRES_AUD", "word": "rod", "wordID": 1202, "conditions": [24, 800, "a", 12000], "trial": 4, "serialpos": 16, "trial_type": "single-audio", "trial_index": 173, "time_elapsed": 700054, "internal_node_id": "0.0-128.0"}}, {"uniqueid": "MTK0638:33L7PJKHCH5NE2N6240T9LSSHS78TO", "current_trial": 174, "dateTime": 1512573748826, "trialdata": {"rt": -1000, "stimulus": "/static/audio/wordpool/YARN.wav", "key_press": -1, "type": "PRES_AUD", "word": "yarn", "wordID": 1630, "conditions": [24, 800, "a", 12000], "trial": 4, "serialpos": 17, "trial_type": "single-audio", "trial_index": 174, "time_elapsed": 702013, "internal_node_id": "0.0-129.0"}}, {"uniqueid": "MTK0638:33L7PJKHCH5NE2N6240T9LSSHS78TO", "current_trial": 175, "dateTime": 1512573750609, "trialdata": {"rt": -1000, "stimulus": "/static/audio/wordpool/BRIEFCASE.wav", "key_press": -1, "type": "PRES_AUD", "word": "briefcase", "wordID": 174, "conditions": [24, 800, "a", 12000], "trial": 4, "serialpos": 18, "trial_type": "single-audio", "trial_index": 175, "time_elapsed": 703796, "internal_node_id": "0.0-130.0"}}, {"uniqueid": "MTK0638:33L7PJKHCH5NE2N6240T9LSSHS78TO", "current_trial": 176, "dateTime": 1512573752360, "trialdata": {"rt": -1000, "stimulus": "/static/audio/wordpool/OINTMENT.wav", "key_press": -1, "type": "PRES_AUD", "word": "ointment", "wordID": 973, "conditions": [24, 800, "a", 12000], "trial": 4, "serialpos": 19, "trial_type": "single-audio", "trial_index": 176, "time_elapsed": 705547, "internal_node_id": "0.0-131.0"}}, {"uniqueid": "MTK0638:33L7PJKHCH5NE2N6240T9LSSHS78TO", "current_trial": 177, "dateTime": 1512573753994, "trialdata": {"rt": -1000, "stimulus": "/static/audio/wordpool/BOX.wav", "key_press": -1, "type": "PRES_AUD", "word": "box", "wordID": 158, "conditions": [24, 800, "a", 12000], "trial": 4, "serialpos": 20, "trial_type": "single-audio", "trial_index": 177, "time_elapsed": 707181, "internal_node_id": "0.0-132.0"}}, {"uniqueid": "MTK0638:33L7PJKHCH5NE2N6240T9LSSHS78TO", "current_trial": 178, "dateTime": 1512573755909, "trialdata": {"rt": -1000, "stimulus": "/static/audio/wordpool/POCKET.wav", "key_press": -1, "type": "PRES_AUD", "word": "pocket", "wordID": 1092, "conditions": [24, 800, "a", 12000], "trial": 4, "serialpos": 21, "trial_type": "single-audio", "trial_index": 178, "time_elapsed": 709096, "internal_node_id": "0.0-133.0"}}, {"uniqueid": "MTK0638:33L7PJKHCH5NE2N6240T9LSSHS78TO", "current_trial": 179, "dateTime": 1512573757691, "trialdata": {"rt": -1000, "stimulus": "/static/audio/wordpool/HUSBAND.wav", "key_press": -1, "type": "PRES_AUD", "word": "husband", "wordID": 727, "conditions": [24, 800, "a", 12000], "trial": 4, "serialpos": 22, "trial_type": "single-audio", "trial_index": 179, "time_elapsed": 710878, "internal_node_id": "0.0-134.0"}}, {"uniqueid": "MTK0638:33L7PJKHCH5NE2N6240T9LSSHS78TO", "current_trial": 180, "dateTime": 1512573759505, "trialdata": {"rt": -1000, "stimulus": "/static/audio/wordpool/BOYFRIEND.wav", "key_press": -1, "type": "PRES_AUD", "word": "boyfriend", "wordID": 161, "conditions": [24, 800, "a", 12000], "trial": 4, "serialpos": 23, "trial_type": "single-audio", "trial_index": 180, "time_elapsed": 712692, "internal_node_id": "0.0-135.0"}}, {"uniqueid": "MTK0638:33L7PJKHCH5NE2N6240T9LSSHS78TO", "current_trial": 181, "dateTime": 1512573760729, "trialdata": {"rt": -1, "stimulus": "", "key_press": -1, "type": "PRE_RECALL_DELAY", "trial_type": "single-stim", "trial_index": 181, "time_elapsed": 713916, "internal_node_id": "0.0-136.0-0.0"}}, {"uniqueid": "MTK0638:33L7PJKHCH5NE2N6240T9LSSHS78TO", "current_trial": 182, "dateTime": 1512573761229, "trialdata": {"rt": -1000, "stimulus": "/static/audio/400Hz.wav", "key_press": -1, "type": "PRE_RECALL_ALERT", "trial_type": "single-audio", "trial_index": 182, "time_elapsed": 714416, "internal_node_id": "0.0-137.0"}}, {"uniqueid": "MTK0638:33L7PJKHCH5NE2N6240T9LSSHS78TO", "current_trial": 183, "dateTime": 1512573821233, "trialdata": {"rt": [2579, 3797, 4283, 5059, 5934], "recwords": ["husband", "boyfriend", "box", "pocket", "techer"], "type": "FREE_RECALL", "conditions": [24, 800, "a", 12000], "trial": 4, "trial_type": "free-recall", "trial_index": 183, "time_elapsed": 774418, "internal_node_id": "0.0-138.0-0.0"}}, {"uniqueid": "MTK0638:33L7PJKHCH5NE2N6240T9LSSHS78TO", "current_trial": 184, "dateTime": 1512573824348, "trialdata": {"rt": 1115, "key_press": 32, "type": "INSTRUCTIONS", "trial_type": "text", "trial_index": 184, "time_elapsed": 777535, "internal_node_id": "0.0-139.0"}}, {"uniqueid": "MTK0638:33L7PJKHCH5NE2N6240T9LSSHS78TO", "current_trial": 185, "dateTime": 1512573850351, "trialdata": {"rt": [3454, 6115, 7373, 8943, 12338, 15152, 18131, 20370], "responses": ["13", "15", "12", "11", "19", "14", "15", "6"], "num1": [4, 2, 2, 4, 9, 5, 5, 2, 9], "num2": [5, 9, 8, 5, 8, 2, 3, 2, 5], "num3": [4, 4, 2, 2, 2, 6, 7, 3, 8], "type": "DISTRACTOR", "conditions": [12, 800, "v", 24000], "trial": 5, "trial_type": "math-distractor", "trial_index": 185, "time_elapsed": 803538, "internal_node_id": "0.0-140.0"}}, {"uniqueid": "MTK0638:33L7PJKHCH5NE2N6240T9LSSHS78TO", "current_trial": 186, "dateTime": 1512573853352, "trialdata": {"rt": -1, "stimulus": "<p id=\"stim\">10</p>", "key_press": -1, "trial_type": "single-stim", "trial_index": 186, "time_elapsed": 806539, "internal_node_id": "0.0-141.0-0.0"}}, {"uniqueid": "MTK0638:33L7PJKHCH5NE2N6240T9LSSHS78TO", "current_trial": 187, "dateTime": 1512573854353, "trialdata": {"rt": -1, "stimulus": "<p id=\"stim\">9</p>", "key_press": -1, "trial_type": "single-stim", "trial_index": 187, "time_elapsed": 807540, "internal_node_id": "0.0-141.0-1.0"}}, {"uniqueid": "MTK0638:33L7PJKHCH5NE2N6240T9LSSHS78TO", "current_trial": 188, "dateTime": 1512573855354, "trialdata": {"rt": -1, "stimulus": "<p id=\"stim\">8</p>", "key_press": -1, "trial_type": "single-stim", "trial_index": 188, "time_elapsed": 808541, "internal_node_id": "0.0-141.0-2.0"}}, {"uniqueid": "MTK0638:33L7PJKHCH5NE2N6240T9LSSHS78TO", "current_trial": 189, "dateTime": 1512573856355, "trialdata": {"rt": -1, "stimulus": "<p id=\"stim\">7</p>", "key_press": -1, "trial_type": "single-stim", "trial_index": 189, "time_elapsed": 809542, "internal_node_id": "0.0-141.0-3.0"}}, {"uniqueid": "MTK0638:33L7PJKHCH5NE2N6240T9LSSHS78TO", "current_trial": 190, "dateTime": 1512573857357, "trialdata": {"rt": -1, "stimulus": "<p id=\"stim\">6</p>", "key_press": -1, "trial_type": "single-stim", "trial_index": 190, "time_elapsed": 810544, "internal_node_id": "0.0-141.0-4.0"}}, {"uniqueid": "MTK0638:33L7PJKHCH5NE2N6240T9LSSHS78TO", "current_trial": 191, "dateTime": 1512573858358, "trialdata": {"rt": -1, "stimulus": "<p id=\"stim\">5</p>", "key_press": -1, "trial_type": "single-stim", "trial_index": 191, "time_elapsed": 811545, "internal_node_id": "0.0-141.0-5.0"}}, {"uniqueid": "MTK0638:33L7PJKHCH5NE2N6240T9LSSHS78TO", "current_trial": 192, "dateTime": 1512573859359, "trialdata": {"rt": -1, "stimulus": "<p id=\"stim\">4</p>", "key_press": -1, "trial_type": "single-stim", "trial_index": 192, "time_elapsed": 812546, "internal_node_id": "0.0-141.0-6.0"}}, {"uniqueid": "MTK0638:33L7PJKHCH5NE2N6240T9LSSHS78TO", "current_trial": 193, "dateTime": 1512573860361, "trialdata": {"rt": -1, "stimulus": "<p id=\"stim\">3</p>", "key_press": -1, "trial_type": "single-stim", "trial_index": 193, "time_elapsed": 813548, "internal_node_id": "0.0-141.0-7.0"}}, {"uniqueid": "MTK0638:33L7PJKHCH5NE2N6240T9LSSHS78TO", "current_trial": 194, "dateTime": 1512573861362, "trialdata": {"rt": -1, "stimulus": "<p id=\"stim\">2</p>", "key_press": -1, "trial_type": "single-stim", "trial_index": 194, "time_elapsed": 814549, "internal_node_id": "0.0-141.0-8.0"}}, {"uniqueid": "MTK0638:33L7PJKHCH5NE2N6240T9LSSHS78TO", "current_trial": 195, "dateTime": 1512573862363, "trialdata": {"rt": -1, "stimulus": "<p id=\"stim\">1</p>", "key_press": -1, "trial_type": "single-stim", "trial_index": 195, "time_elapsed": 815550, "internal_node_id": "0.0-141.0-9.0"}}, {"uniqueid": "MTK0638:33L7PJKHCH5NE2N6240T9LSSHS78TO", "current_trial": 196, "dateTime": 1512573863864, "trialdata": {"rt": -1, "stimulus": "<p id=\"stim\">+</p>", "key_press": -1, "type": "FIXATION", "trial_type": "single-stim", "trial_index": 196, "time_elapsed": 817051, "internal_node_id": "0.0-142.0-0.0"}}, {"uniqueid": "MTK0638:33L7PJKHCH5NE2N6240T9LSSHS78TO", "current_trial": 197, "dateTime": 1512573864665, "trialdata": {"rt": -1, "stimulus": "<p id=\"stim\">BASEMENT</p>", "key_press": -1, "type": "PRES_VIS", "word": "basement", "wordID": 93, "conditions": [12, 800, "v", 24000], "trial": 5, "serialpos": 0, "trial_type": "single-stim", "trial_index": 197, "time_elapsed": 817852, "internal_node_id": "0.0-143.0"}}, {"uniqueid": "MTK0638:33L7PJKHCH5NE2N6240T9LSSHS78TO", "current_trial": 198, "dateTime": 1512573866349, "trialdata": {"rt": -1, "stimulus": "<p id=\"stim\">FLOWER</p>", "key_press": -1, "type": "PRES_VIS", "word": "flower", "wordID": 583, "conditions": [12, 800, "v", 24000], "trial": 5, "serialpos": 1, "trial_type": "single-stim", "trial_index": 198, "time_elapsed": 819536, "internal_node_id": "0.0-144.0"}}, {"uniqueid": "MTK0638:33L7PJKHCH5NE2N6240T9LSSHS78TO", "current_trial": 199, "dateTime": 1512573868150, "trialdata": {"rt": -1, "stimulus": "<p id=\"stim\">GRAPE</p>", "key_press": -1, "type": "PRES_VIS", "word": "grape", "wordID": 653, "conditions": [12, 800, "v", 24000], "trial": 5, "serialpos": 2, "trial_type": "single-stim", "trial_index": 199, "time_elapsed": 821337, "internal_node_id": "0.0-145.0"}}, {"uniqueid": "MTK0638:33L7PJKHCH5NE2N6240T9LSSHS78TO", "current_trial": 200, "dateTime": 1512573869849, "trialdata": {"rt": -1, "stimulus": "<p id=\"stim\">APRON</p>", "key_press": -1, "type": "PRES_VIS", "word": "apron", "wordID": 34, "conditions": [12, 800, "v", 24000], "trial": 5, "serialpos": 3, "trial_type": "single-stim", "trial_index": 200, "time_elapsed": 823036, "internal_node_id": "0.0-146.0"}}, {"uniqueid": "MTK0638:33L7PJKHCH5NE2N6240T9LSSHS78TO", "current_trial": 201, "dateTime": 1512573871475, "trialdata": {"rt": -1, "stimulus": "<p id=\"stim\">ASIA</p>", "key_press": -1, "type": "PRES_VIS", "word": "asia", "wordID": 45, "conditions": [12, 800, "v", 24000], "trial": 5, "serialpos": 4, "trial_type": "single-stim", "trial_index": 201, "time_elapsed": 824662, "internal_node_id": "0.0-147.0"}}, {"uniqueid": "MTK0638:33L7PJKHCH5NE2N6240T9LSSHS78TO", "current_trial": 202, "dateTime": 1512573873309, "trialdata": {"rt": -1, "stimulus": "<p id=\"stim\">HANDBAG</p>", "key_press": -1, "type": "PRES_VIS", "word": "handbag", "wordID": 683, "conditions": [12, 800, "v", 24000], "trial": 5, "serialpos": 5, "trial_type": "single-stim", "trial_index": 202, "time_elapsed": 826496, "internal_node_id": "0.0-148.0"}}, {"uniqueid": "MTK0638:33L7PJKHCH5NE2N6240T9LSSHS78TO", "current_trial": 203, "dateTime": 1512573875172, "trialdata": {"rt": -1, "stimulus": "<p id=\"stim\">SUITCASE</p>", "key_press": -1, "type": "PRES_VIS", "word": "suitcase", "wordID": 1402, "conditions": [12, 800, "v", 24000], "trial": 5, "serialpos": 6, "trial_type": "single-stim", "trial_index": 203, "time_elapsed": 828358, "internal_node_id": "0.0-149.0"}}, {"uniqueid": "MTK0638:33L7PJKHCH5NE2N6240T9LSSHS78TO", "current_trial": 204, "dateTime": 1512573876788, "trialdata": {"rt": -1, "stimulus": "<p id=\"stim\">WAITRESS</p>", "key_press": -1, "type": "PRES_VIS", "word": "waitress", "wordID": 1580, "conditions": [12, 800, "v", 24000], "trial": 5, "serialpos": 7, "trial_type": "single-stim", "trial_index": 204, "time_elapsed": 829975, "internal_node_id": "0.0-150.0"}}, {"uniqueid": "MTK0638:33L7PJKHCH5NE2N6240T9LSSHS78TO", "current_trial": 205, "dateTime": 1512573878573, "trialdata": {"rt": -1, "stimulus": "<p id=\"stim\">FRAGRANCE</p>", "key_press": -1, "type": "PRES_VIS", "word": "fragrance", "wordID": 598, "conditions": [12, 800, "v", 24000], "trial": 5, "serialpos": 8, "trial_type": "single-stim", "trial_index": 205, "time_elapsed": 831760, "internal_node_id": "0.0-151.0"}}, {"uniqueid": "MTK0638:33L7PJKHCH5NE2N6240T9LSSHS78TO", "current_trial": 206, "dateTime": 1512573880499, "trialdata": {"rt": -1, "stimulus": "<p id=\"stim\">WHISKERS</p>", "key_press": -1, "type": "PRES_VIS", "word": "whiskers", "wordID": 1604, "conditions": [12, 800, "v", 24000], "trial": 5, "serialpos": 9, "trial_type": "single-stim", "trial_index": 206, "time_elapsed": 833686, "internal_node_id": "0.0-152.0"}}, {"uniqueid": "MTK0638:33L7PJKHCH5NE2N6240T9LSSHS78TO", "current_trial": 207, "dateTime": 1512573882238, "trialdata": {"rt": -1, "stimulus": "<p id=\"stim\">FARMER</p>", "key_press": -1, "type": "PRES_VIS", "word": "farmer", "wordID": 552, "conditions": [12, 800, "v", 24000], "trial": 5, "serialpos": 10, "trial_type": "single-stim", "trial_index": 207, "time_elapsed": 835425, "internal_node_id": "0.0-153.0"}}, {"uniqueid": "MTK0638:33L7PJKHCH5NE2N6240T9LSSHS78TO", "current_trial": 208, "dateTime": 1512573883891, "trialdata": {"rt": -1, "stimulus": "<p id=\"stim\">CELLAR</p>", "key_press": -1, "type": "PRES_VIS", "word": "cellar", "wordID": 266, "conditions": [12, 800, "v", 24000], "trial": 5, "serialpos": 11, "trial_type": "single-stim", "trial_index": 208, "time_elapsed": 837078, "internal_node_id": "0.0-154.0"}}, {"uniqueid": "MTK0638:33L7PJKHCH5NE2N6240T9LSSHS78TO", "current_trial": 209, "dateTime": 1512573886131, "trialdata": {"rt": -1, "stimulus": "", "key_press": -1, "type": "PRE_RECALL_DELAY", "trial_type": "single-stim", "trial_index": 209, "time_elapsed": 839318, "internal_node_id": "0.0-155.0-0.0"}}, {"uniqueid": "MTK0638:33L7PJKHCH5NE2N6240T9LSSHS78TO", "current_trial": 210, "dateTime": 1512573886633, "trialdata": {"rt": -1000, "stimulus": "/static/audio/400Hz.wav", "key_press": -1, "type": "PRE_RECALL_ALERT", "trial_type": "single-audio", "trial_index": 210, "time_elapsed": 839820, "internal_node_id": "0.0-156.0"}}, {"uniqueid": "MTK0638:33L7PJKHCH5NE2N6240T9LSSHS78TO", "current_trial": 211, "dateTime": 1512573946638, "trialdata": {"rt": [2163, 3466, 4726, 6222, 6893, 7820, 10393], "recwords": ["cellar", "fragrant", "basement", "flower", "grape", "apron", "cellar"], "type": "FREE_RECALL", "conditions": [12, 800, "v", 24000], "trial": 5, "trial_type": "free-recall", "trial_index": 211, "time_elapsed": 899823, "internal_node_id": "0.0-157.0-0.0"}}, {"uniqueid": "MTK0638:33L7PJKHCH5NE2N6240T9LSSHS78TO", "current_trial": 212, "dateTime": 1512573949689, "trialdata": {"rt": 1049, "key_press": 32, "type": "INSTRUCTIONS", "trial_type": "text", "trial_index": 212, "time_elapsed": 902876, "internal_node_id": "0.0-158.0"}}, {"uniqueid": "MTK0638:33L7PJKHCH5NE2N6240T9LSSHS78TO", "current_trial": 213, "dateTime": 1512573963693, "trialdata": {"rt": [3011, 4843, 8248, 9684, 11960], "responses": ["10", "9", "23", "17", "13"], "num1": [3, 2, 9, 4, 4, 2], "num2": [5, 3, 5, 6, 1, 7], "num3": [2, 4, 9, 7, 8, 8], "type": "DISTRACTOR", "conditions": [24, 1600, "v", 12000], "trial": 6, "trial_type": "math-distractor", "trial_index": 213, "time_elapsed": 916880, "internal_node_id": "0.0-159.0"}}, {"uniqueid": "MTK0638:33L7PJKHCH5NE2N6240T9LSSHS78TO", "current_trial": 214, "dateTime": 1512573966695, "trialdata": {"rt": -1, "stimulus": "<p id=\"stim\">10</p>", "key_press": -1, "trial_type": "single-stim", "trial_index": 214, "time_elapsed": 919882, "internal_node_id": "0.0-160.0-0.0"}}, {"uniqueid": "MTK0638:33L7PJKHCH5NE2N6240T9LSSHS78TO", "current_trial": 215, "dateTime": 1512573967696, "trialdata": {"rt": -1, "stimulus": "<p id=\"stim\">9</p>", "key_press": -1, "trial_type": "single-stim", "trial_index": 215, "time_elapsed": 920883, "internal_node_id": "0.0-160.0-1.0"}}, {"uniqueid": "MTK0638:33L7PJKHCH5NE2N6240T9LSSHS78TO", "current_trial": 216, "dateTime": 1512573968699, "trialdata": {"rt": -1, "stimulus": "<p id=\"stim\">8</p>", "key_press": -1, "trial_type": "single-stim", "trial_index": 216, "time_elapsed": 921886, "internal_node_id": "0.0-160.0-2.0"}}, {"uniqueid": "MTK0638:33L7PJKHCH5NE2N6240T9LSSHS78TO", "current_trial": 217, "dateTime": 1512573969700, "trialdata": {"rt": -1, "stimulus": "<p id=\"stim\">7</p>", "key_press": -1, "trial_type": "single-stim", "trial_index": 217, "time_elapsed": 922887, "internal_node_id": "0.0-160.0-3.0"}}, {"uniqueid": "MTK0638:33L7PJKHCH5NE2N6240T9LSSHS78TO", "current_trial": 218, "dateTime": 1512573970700, "trialdata": {"rt": -1, "stimulus": "<p id=\"stim\">6</p>", "key_press": -1, "trial_type": "single-stim", "trial_index": 218, "time_elapsed": 923887, "internal_node_id": "0.0-160.0-4.0"}}, {"uniqueid": "MTK0638:33L7PJKHCH5NE2N6240T9LSSHS78TO", "current_trial": 219, "dateTime": 1512573971701, "trialdata": {"rt": -1, "stimulus": "<p id=\"stim\">5</p>", "key_press": -1, "trial_type": "single-stim", "trial_index": 219, "time_elapsed": 924888, "internal_node_id": "0.0-160.0-5.0"}}, {"uniqueid": "MTK0638:33L7PJKHCH5NE2N6240T9LSSHS78TO", "current_trial": 220, "dateTime": 1512573972703, "trialdata": {"rt": -1, "stimulus": "<p id=\"stim\">4</p>", "key_press": -1, "trial_type": "single-stim", "trial_index": 220, "time_elapsed": 925890, "internal_node_id": "0.0-160.0-6.0"}}, {"uniqueid": "MTK0638:33L7PJKHCH5NE2N6240T9LSSHS78TO", "current_trial": 221, "dateTime": 1512573973703, "trialdata": {"rt": -1, "stimulus": "<p id=\"stim\">3</p>", "key_press": -1, "trial_type": "single-stim", "trial_index": 221, "time_elapsed": 926890, "internal_node_id": "0.0-160.0-7.0"}}, {"uniqueid": "MTK0638:33L7PJKHCH5NE2N6240T9LSSHS78TO", "current_trial": 222, "dateTime": 1512573974704, "trialdata": {"rt": -1, "stimulus": "<p id=\"stim\">2</p>", "key_press": -1, "trial_type": "single-stim", "trial_index": 222, "time_elapsed": 927891, "internal_node_id": "0.0-160.0-8.0"}}, {"uniqueid": "MTK0638:33L7PJKHCH5NE2N6240T9LSSHS78TO", "current_trial": 223, "dateTime": 1512573975705, "trialdata": {"rt": -1, "stimulus": "<p id=\"stim\">1</p>", "key_press": -1, "trial_type": "single-stim", "trial_index": 223, "time_elapsed": 928892, "internal_node_id": "0.0-160.0-9.0"}}, {"uniqueid": "MTK0638:33L7PJKHCH5NE2N6240T9LSSHS78TO", "current_trial": 224, "dateTime": 1512573977206, "trialdata": {"rt": -1, "stimulus": "<p id=\"stim\">+</p>", "key_press": -1, "type": "FIXATION", "trial_type": "single-stim", "trial_index": 224, "time_elapsed": 930393, "internal_node_id": "0.0-161.0-0.0"}}, {"uniqueid": "MTK0638:33L7PJKHCH5NE2N6240T9LSSHS78TO", "current_trial": 225, "dateTime": 1512573978807, "trialdata": {"rt": -1, "stimulus": "<p id=\"stim\">SWIMMER</p>", "key_press": -1, "type": "PRES_VIS", "word": "swimmer", "wordID": 1419, "conditions": [24, 1600, "v", 12000], "trial": 6, "serialpos": 0, "trial_type": "single-stim", "trial_index": 225, "time_elapsed": 931994, "internal_node_id": "0.0-162.0"}}, {"uniqueid": "MTK0638:33L7PJKHCH5NE2N6240T9LSSHS78TO", "current_trial": 226, "dateTime": 1512573981518, "trialdata": {"rt": -1, "stimulus": "<p id=\"stim\">CHILD</p>", "key_press": -1, "type": "PRES_VIS", "word": "child", "wordID": 298, "conditions": [24, 1600, "v", 12000], "trial": 6, "serialpos": 1, "trial_type": "single-stim", "trial_index": 226, "time_elapsed": 934705, "internal_node_id": "0.0-163.0"}}, {"uniqueid": "MTK0638:33L7PJKHCH5NE2N6240T9LSSHS78TO", "current_trial": 227, "dateTime": 1512573984072, "trialdata": {"rt": -1, "stimulus": "<p id=\"stim\">PICNIC</p>", "key_press": -1, "type": "PRES_VIS", "word": "picnic", "wordID": 1059, "conditions": [24, 1600, "v", 12000], "trial": 6, "serialpos": 2, "trial_type": "single-stim", "trial_index": 227, "time_elapsed": 937259, "internal_node_id": "0.0-164.0"}}, {"uniqueid": "MTK0638:33L7PJKHCH5NE2N6240T9LSSHS78TO", "current_trial": 228, "dateTime": 1512573986576, "trialdata": {"rt": -1, "stimulus": "<p id=\"stim\">SWITCH</p>", "key_press": -1, "type": "PRES_VIS", "word": "switch", "wordID": 1421, "conditions": [24, 1600, "v", 12000], "trial": 6, "serialpos": 3, "trial_type": "single-stim", "trial_index": 228, "time_elapsed": 939763, "internal_node_id": "0.0-165.0"}}, {"uniqueid": "MTK0638:33L7PJKHCH5NE2N6240T9LSSHS78TO", "current_trial": 229, "dateTime": 1512573988995, "trialdata": {"rt": -1, "stimulus": "<p id=\"stim\">SLIDE</p>", "key_press": -1, "type": "PRES_VIS", "word": "slide", "wordID": 1325, "conditions": [24, 1600, "v", 12000], "trial": 6, "serialpos": 4, "trial_type": "single-stim", "trial_index": 229, "time_elapsed": 942182, "internal_node_id": "0.0-166.0"}}, {"uniqueid": "MTK0638:33L7PJKHCH5NE2N6240T9LSSHS78TO", "current_trial": 230, "dateTime": 1512573991484, "trialdata": {"rt": -1, "stimulus": "<p id=\"stim\">CUPBOARD</p>", "key_press": -1, "type": "PRES_VIS", "word": "cupboard", "wordID": 424, "conditions": [24, 1600, "v", 12000], "trial": 6, "serialpos": 5, "trial_type": "single-stim", "trial_index": 230, "time_elapsed": 944671, "internal_node_id": "0.0-167.0"}}, {"uniqueid": "MTK0638:33L7PJKHCH5NE2N6240T9LSSHS78TO", "current_trial": 231, "dateTime": 1512573993973, "trialdata": {"rt": -1, "stimulus": "<p id=\"stim\">DRESSER</p>", "key_press": -1, "type": "PRES_VIS", "word": "dresser", "wordID": 495, "conditions": [24, 1600, "v", 12000], "trial": 6, "serialpos": 6, "trial_type": "single-stim", "trial_index": 231, "time_elapsed": 947160, "internal_node_id": "0.0-168.0"}}, {"uniqueid": "MTK0638:33L7PJKHCH5NE2N6240T9LSSHS78TO", "current_trial": 232, "dateTime": 1512573996497, "trialdata": {"rt": -1, "stimulus": "<p id=\"stim\">TART</p>", "key_press": -1, "type": "PRES_VIS", "word": "tart", "wordID": 1435, "conditions": [24, 1600, "v", 12000], "trial": 6, "serialpos": 7, "trial_type": "single-stim", "trial_index": 232, "time_elapsed": 949684, "internal_node_id": "0.0-169.0"}}, {"uniqueid": "MTK0638:33L7PJKHCH5NE2N6240T9LSSHS78TO", "current_trial": 233, "dateTime": 1512573999257, "trialdata": {"rt": -1, "stimulus": "<p id=\"stim\">BUCKET</p>", "key_press": -1, "type": "PRES_VIS", "word": "bucket", "wordID": 183, "conditions": [24, 1600, "v", 12000], "trial": 6, "serialpos": 8, "trial_type": "single-stim", "trial_index": 233, "time_elapsed": 952444, "internal_node_id": "0.0-170.0"}}, {"uniqueid": "MTK0638:33L7PJKHCH5NE2N6240T9LSSHS78TO", "current_trial": 234, "dateTime": 1512574001735, "trialdata": {"rt": -1, "stimulus": "<p id=\"stim\">ULCER</p>", "key_press": -1, "type": "PRES_VIS", "word": "ulcer", "wordID": 1532, "conditions": [24, 1600, "v", 12000], "trial": 6, "serialpos": 9, "trial_type": "single-stim", "trial_index": 234, "time_elapsed": 954922, "internal_node_id": "0.0-171.0"}}, {"uniqueid": "MTK0638:33L7PJKHCH5NE2N6240T9LSSHS78TO", "current_trial": 235, "dateTime": 1512574004499, "trialdata": {"rt": -1, "stimulus": "<p id=\"stim\">GYMNAST</p>", "key_press": -1, "type": "PRES_VIS", "word": "gymnast", "wordID": 674, "conditions": [24, 1600, "v", 12000], "trial": 6, "serialpos": 10, "trial_type": "single-stim", "trial_index": 235, "time_elapsed": 957686, "internal_node_id": "0.0-172.0"}}, {"uniqueid": "MTK0638:33L7PJKHCH5NE2N6240T9LSSHS78TO", "current_trial": 236, "dateTime": 1512574007124, "trialdata": {"rt": -1, "stimulus": "<p id=\"stim\">IGLOO</p>", "key_press": -1, "type": "PRES_VIS", "word": "igloo", "wordID": 733, "conditions": [24, 1600, "v", 12000], "trial": 6, "serialpos": 11, "trial_type": "single-stim", "trial_index": 236, "time_elapsed": 960310, "internal_node_id": "0.0-173.0"}}, {"uniqueid": "MTK0638:33L7PJKHCH5NE2N6240T9LSSHS78TO", "current_trial": 237, "dateTime": 1512574009546, "trialdata": {"rt": -1, "stimulus": "<p id=\"stim\">ROBBER</p>", "key_press": -1, "type": "PRES_VIS", "word": "robber", "wordID": 1196, "conditions": [24, 1600, "v", 12000], "trial": 6, "serialpos": 12, "trial_type": "single-stim", "trial_index": 237, "time_elapsed": 962733, "internal_node_id": "0.0-174.0"}}, {"uniqueid": "MTK0638:33L7PJKHCH5NE2N6240T9LSSHS78TO", "current_trial": 238, "dateTime": 1512574012118, "trialdata": {"rt": -1, "stimulus": "<p id=\"stim\">BURGLAR</p>", "key_press": -1, "type": "PRES_VIS", "word": "burglar", "wordID": 199, "conditions": [24, 1600, "v", 12000], "trial": 6, "serialpos": 13, "trial_type": "single-stim", "trial_index": 238, "time_elapsed": 965305, "internal_node_id": "0.0-175.0"}}, {"uniqueid": "MTK0638:33L7PJKHCH5NE2N6240T9LSSHS78TO", "current_trial": 239, "dateTime": 1512574014815, "trialdata": {"rt": -1, "stimulus": "<p id=\"stim\">BULLET</p>", "key_press": -1, "type": "PRES_VIS", "word": "bullet", "wordID": 193, "conditions": [24, 1600, "v", 12000], "trial": 6, "serialpos": 14, "trial_type": "single-stim", "trial_index": 239, "time_elapsed": 968002, "internal_node_id": "0.0-176.0"}}, {"uniqueid": "MTK0638:33L7PJKHCH5NE2N6240T9LSSHS78TO", "current_trial": 240, "dateTime": 1512574017523, "trialdata": {"rt": -1, "stimulus": "<p id=\"stim\">CONCERT</p>", "key_press": -1, "type": "PRES_VIS", "word": "concert", "wordID": 359, "conditions": [24, 1600, "v", 12000], "trial": 6, "serialpos": 15, "trial_type": "single-stim", "trial_index": 240, "time_elapsed": 970710, "internal_node_id": "0.0-177.0"}}, {"uniqueid": "MTK0638:33L7PJKHCH5NE2N6240T9LSSHS78TO", "current_trial": 241, "dateTime": 1512574020033, "trialdata": {"rt": -1, "stimulus": "<p id=\"stim\">WIDOW</p>", "key_press": -1, "type": "PRES_VIS", "word": "widow", "wordID": 1607, "conditions": [24, 1600, "v", 12000], "trial": 6, "serialpos": 16, "trial_type": "single-stim", "trial_index": 241, "time_elapsed": 973220, "internal_node_id": "0.0-178.0"}}, {"uniqueid": "MTK0638:33L7PJKHCH5NE2N6240T9LSSHS78TO", "current_trial": 242, "dateTime": 1512574022683, "trialdata": {"rt": -1, "stimulus": "<p id=\"stim\">MARSH</p>", "key_press": -1, "type": "PRES_VIS", "word": "marsh", "wordID": 873, "conditions": [24, 1600, "v", 12000], "trial": 6, "serialpos": 17, "trial_type": "single-stim", "trial_index": 242, "time_elapsed": 975870, "internal_node_id": "0.0-179.0"}}, {"uniqueid": "MTK0638:33L7PJKHCH5NE2N6240T9LSSHS78TO", "current_trial": 243, "dateTime": 1512574025458, "trialdata": {"rt": -1, "stimulus": "<p id=\"stim\">VENUS</p>", "key_press": -1, "type": "PRES_VIS", "word": "venus", "wordID": 1556, "conditions": [24, 1600, "v", 12000], "trial": 6, "serialpos": 18, "trial_type": "single-stim", "trial_index": 243, "time_elapsed": 978645, "internal_node_id": "0.0-180.0"}}, {"uniqueid": "MTK0638:33L7PJKHCH5NE2N6240T9LSSHS78TO", "current_trial": 244, "dateTime": 1512574027936, "trialdata": {"rt": -1, "stimulus": "<p id=\"stim\">SEAGULL</p>", "key_press": -1, "type": "PRES_VIS", "word": "seagull", "wordID": 1260, "conditions": [24, 1600, "v", 12000], "trial": 6, "serialpos": 19, "trial_type": "single-stim", "trial_index": 244, "time_elapsed": 981123, "internal_node_id": "0.0-181.0"}}, {"uniqueid": "MTK0638:33L7PJKHCH5NE2N6240T9LSSHS78TO", "current_trial": 245, "dateTime": 1512574030481, "trialdata": {"rt": -1, "stimulus": "<p id=\"stim\">ISLAND</p>", "key_press": -1, "type": "PRES_VIS", "word": "island", "wordID": 744, "conditions": [24, 1600, "v", 12000], "trial": 6, "serialpos": 20, "trial_type": "single-stim", "trial_index": 245, "time_elapsed": 983668, "internal_node_id": "0.0-182.0"}}, {"uniqueid": "MTK0638:33L7PJKHCH5NE2N6240T9LSSHS78TO", "current_trial": 246, "dateTime": 1512574033006, "trialdata": {"rt": -1, "stimulus": "<p id=\"stim\">CUSTARD</p>", "key_press": -1, "type": "PRES_VIS", "word": "custard", "wordID": 428, "conditions": [24, 1600, "v", 12000], "trial": 6, "serialpos": 21, "trial_type": "single-stim", "trial_index": 246, "time_elapsed": 986193, "internal_node_id": "0.0-183.0"}}, {"uniqueid": "MTK0638:33L7PJKHCH5NE2N6240T9LSSHS78TO", "current_trial": 247, "dateTime": 1512574035727, "trialdata": {"rt": -1, "stimulus": "<p id=\"stim\">UNCLE</p>", "key_press": -1, "type": "PRES_VIS", "word": "uncle", "wordID": 1535, "conditions": [24, 1600, "v", 12000], "trial": 6, "serialpos": 22, "trial_type": "single-stim", "trial_index": 247, "time_elapsed": 988914, "internal_node_id": "0.0-184.0"}}, {"uniqueid": "MTK0638:33L7PJKHCH5NE2N6240T9LSSHS78TO", "current_trial": 248, "dateTime": 1512574038220, "trialdata": {"rt": -1, "stimulus": "<p id=\"stim\">RAZOR</p>", "key_press": -1, "type": "PRES_VIS", "word": "razor", "wordID": 1170, "conditions": [24, 1600, "v", 12000], "trial": 6, "serialpos": 23, "trial_type": "single-stim", "trial_index": 248, "time_elapsed": 991407, "internal_node_id": "0.0-185.0"}}, {"uniqueid": "MTK0638:33L7PJKHCH5NE2N6240T9LSSHS78TO", "current_trial": 249, "dateTime": 1512574040525, "trialdata": {"rt": -1, "stimulus": "", "key_press": -1, "type": "PRE_RECALL_DELAY", "trial_type": "single-stim", "trial_index": 249, "time_elapsed": 993712, "internal_node_id": "0.0-186.0-0.0"}}, {"uniqueid": "MTK0638:33L7PJKHCH5NE2N6240T9LSSHS78TO", "current_trial": 250, "dateTime": 1512574041027, "trialdata": {"rt": -1000, "stimulus": "/static/audio/400Hz.wav", "key_press": -1, "type": "PRE_RECALL_ALERT", "trial_type": "single-audio", "trial_index": 250, "time_elapsed": 994214, "internal_node_id": "0.0-187.0"}}, {"uniqueid": "MTK0638:33L7PJKHCH5NE2N6240T9LSSHS78TO", "current_trial": 251, "dateTime": 1512574101031, "trialdata": {"rt": [2345, 3579, 4745, 5869, 6666, 7359, 9280, 15823], "recwords": ["razor", "child", "swimmer", "picnic", "tart", "slide", "switch", "tart"], "type": "FREE_RECALL", "conditions": [24, 1600, "v", 12000], "trial": 6, "trial_type": "free-recall", "trial_index": 251, "time_elapsed": 1054216, "internal_node_id": "0.0-188.0-0.0"}}, {"uniqueid": "MTK0638:33L7PJKHCH5NE2N6240T9LSSHS78TO", "current_trial": 252, "dateTime": 1512574108028, "trialdata": {"rt": 4997, "key_press": 32, "type": "INSTRUCTIONS", "trial_type": "text", "trial_index": 252, "time_elapsed": 1061215, "internal_node_id": "0.0-189.0"}}, {"uniqueid": "MTK0638:33L7PJKHCH5NE2N6240T9LSSHS78TO", "current_trial": 253, "dateTime": 1512574134031, "trialdata": {"rt": [2468, 4466, 6194, 7539, 9474, 12595, 14658, 15982, 17587, 20312, 21318, 22881], "responses": ["22", "14", "13", "18", "13", "22", "17", "12", "9", "18", "3", "8"], "num1": [4, 3, 3, 5, 9, 7, 2, 6, 2, 2, 1, 3, 7], "num2": [9, 4, 6, 5, 3, 7, 8, 2, 6, 7, 1, 3, 5], "num3": [9, 7, 4, 8, 1, 8, 7, 4, 1, 9, 1, 2, 8], "type": "DISTRACTOR", "conditions": [24, 800, "v", 24000], "trial": 7, "trial_type": "math-distractor", "trial_index": 253, "time_elapsed": 1087218, "internal_node_id": "0.0-190.0"}}, {"uniqueid": "MTK0638:33L7PJKHCH5NE2N6240T9LSSHS78TO", "current_trial": 254, "dateTime": 1512574137033, "trialdata": {"rt": -1, "stimulus": "<p id=\"stim\">10</p>", "key_press": -1, "trial_type": "single-stim", "trial_index": 254, "time_elapsed": 1090220, "internal_node_id": "0.0-191.0-0.0"}}, {"uniqueid": "MTK0638:33L7PJKHCH5NE2N6240T9LSSHS78TO", "current_trial": 255, "dateTime": 1512574138034, "trialdata": {"rt": -1, "stimulus": "<p id=\"stim\">9</p>", "key_press": -1, "trial_type": "single-stim", "trial_index": 255, "time_elapsed": 1091221, "internal_node_id": "0.0-191.0-1.0"}}, {"uniqueid": "MTK0638:33L7PJKHCH5NE2N6240T9LSSHS78TO", "current_trial": 256, "dateTime": 1512574139036, "trialdata": {"rt": -1, "stimulus": "<p id=\"stim\">8</p>", "key_press": -1, "trial_type": "single-stim", "trial_index": 256, "time_elapsed": 1092222, "internal_node_id": "0.0-191.0-2.0"}}, {"uniqueid": "MTK0638:33L7PJKHCH5NE2N6240T9LSSHS78TO", "current_trial": 257, "dateTime": 1512574140037, "trialdata": {"rt": -1, "stimulus": "<p id=\"stim\">7</p>", "key_press": -1, "trial_type": "single-stim", "trial_index": 257, "time_elapsed": 1093224, "internal_node_id": "0.0-191.0-3.0"}}, {"uniqueid": "MTK0638:33L7PJKHCH5NE2N6240T9LSSHS78TO", "current_trial": 258, "dateTime": 1512574141038, "trialdata": {"rt": -1, "stimulus": "<p id=\"stim\">6</p>", "key_press": -1, "trial_type": "single-stim", "trial_index": 258, "time_elapsed": 1094225, "internal_node_id": "0.0-191.0-4.0"}}, {"uniqueid": "MTK0638:33L7PJKHCH5NE2N6240T9LSSHS78TO", "current_trial": 259, "dateTime": 1512574142039, "trialdata": {"rt": -1, "stimulus": "<p id=\"stim\">5</p>", "key_press": -1, "trial_type": "single-stim", "trial_index": 259, "time_elapsed": 1095225, "internal_node_id": "0.0-191.0-5.0"}}, {"uniqueid": "MTK0638:33L7PJKHCH5NE2N6240T9LSSHS78TO", "current_trial": 260, "dateTime": 1512574143039, "trialdata": {"rt": -1, "stimulus": "<p id=\"stim\">4</p>", "key_press": -1, "trial_type": "single-stim", "trial_index": 260, "time_elapsed": 1096226, "internal_node_id": "0.0-191.0-6.0"}}, {"uniqueid": "MTK0638:33L7PJKHCH5NE2N6240T9LSSHS78TO", "current_trial": 261, "dateTime": 1512574144041, "trialdata": {"rt": -1, "stimulus": "<p id=\"stim\">3</p>", "key_press": -1, "trial_type": "single-stim", "trial_index": 261, "time_elapsed": 1097228, "internal_node_id": "0.0-191.0-7.0"}}, {"uniqueid": "MTK0638:33L7PJKHCH5NE2N6240T9LSSHS78TO", "current_trial": 262, "dateTime": 1512574145042, "trialdata": {"rt": -1, "stimulus": "<p id=\"stim\">2</p>", "key_press": -1, "trial_type": "single-stim", "trial_index": 262, "time_elapsed": 1098229, "internal_node_id": "0.0-191.0-8.0"}}, {"uniqueid": "MTK0638:33L7PJKHCH5NE2N6240T9LSSHS78TO", "current_trial": 263, "dateTime": 1512574146043, "trialdata": {"rt": -1, "stimulus": "<p id=\"stim\">1</p>", "key_press": -1, "trial_type": "single-stim", "trial_index": 263, "time_elapsed": 1099230, "internal_node_id": "0.0-191.0-9.0"}}, {"uniqueid": "MTK0638:33L7PJKHCH5NE2N6240T9LSSHS78TO", "current_trial": 264, "dateTime": 1512574147544, "trialdata": {"rt": -1, "stimulus": "<p id=\"stim\">+</p>", "key_press": -1, "type": "FIXATION", "trial_type": "single-stim", "trial_index": 264, "time_elapsed": 1100731, "internal_node_id": "0.0-192.0-0.0"}}, {"uniqueid": "MTK0638:33L7PJKHCH5NE2N6240T9LSSHS78TO", "current_trial": 265, "dateTime": 1512574148345, "trialdata": {"rt": -1, "stimulus": "<p id=\"stim\">DONKEY</p>", "key_press": -1, "type": "PRES_VIS", "word": "donkey", "wordID": 483, "conditions": [24, 800, "v", 24000], "trial": 7, "serialpos": 0, "trial_type": "single-stim", "trial_index": 265, "time_elapsed": 1101531, "internal_node_id": "0.0-193.0"}}, {"uniqueid": "MTK0638:33L7PJKHCH5NE2N6240T9LSSHS78TO", "current_trial": 266, "dateTime": 1512574150240, "trialdata": {"rt": -1, "stimulus": "<p id=\"stim\">BANKER</p>", "key_press": -1, "type": "PRES_VIS", "word": "banker", "wordID": 83, "conditions": [24, 800, "v", 24000], "trial": 7, "serialpos": 1, "trial_type": "single-stim", "trial_index": 266, "time_elapsed": 1103427, "internal_node_id": "0.0-194.0"}}, {"uniqueid": "MTK0638:33L7PJKHCH5NE2N6240T9LSSHS78TO", "current_trial": 267, "dateTime": 1512574152209, "trialdata": {"rt": -1, "stimulus": "<p id=\"stim\">BANK</p>", "key_press": -1, "type": "PRES_VIS", "word": "bank", "wordID": 82, "conditions": [24, 800, "v", 24000], "trial": 7, "serialpos": 2, "trial_type": "single-stim", "trial_index": 267, "time_elapsed": 1105396, "internal_node_id": "0.0-195.0"}}, {"uniqueid": "MTK0638:33L7PJKHCH5NE2N6240T9LSSHS78TO", "current_trial": 268, "dateTime": 1512574154033, "trialdata": {"rt": -1, "stimulus": "<p id=\"stim\">CAMEL</p>", "key_press": -1, "type": "PRES_VIS", "word": "camel", "wordID": 222, "conditions": [24, 800, "v", 24000], "trial": 7, "serialpos": 3, "trial_type": "single-stim", "trial_index": 268, "time_elapsed": 1107220, "internal_node_id": "0.0-196.0"}}, {"uniqueid": "MTK0638:33L7PJKHCH5NE2N6240T9LSSHS78TO", "current_trial": 269, "dateTime": 1512574155928, "trialdata": {"rt": -1, "stimulus": "<p id=\"stim\">OYSTER</p>", "key_press": -1, "type": "PRES_VIS", "word": "oyster", "wordID": 994, "conditions": [24, 800, "v", 24000], "trial": 7, "serialpos": 4, "trial_type": "single-stim", "trial_index": 269, "time_elapsed": 1109115, "internal_node_id": "0.0-197.0"}}, {"uniqueid": "MTK0638:33L7PJKHCH5NE2N6240T9LSSHS78TO", "current_trial": 270, "dateTime": 1512574157712, "trialdata": {"rt": -1, "stimulus": "<p id=\"stim\">NEUTRON</p>", "key_press": -1, "type": "PRES_VIS", "word": "neutron", "wordID": 946, "conditions": [24, 800, "v", 24000], "trial": 7, "serialpos": 5, "trial_type": "single-stim", "trial_index": 270, "time_elapsed": 1110899, "internal_node_id": "0.0-198.0"}}, {"uniqueid": "MTK0638:33L7PJKHCH5NE2N6240T9LSSHS78TO", "current_trial": 271, "dateTime": 1512574159381, "trialdata": {"rt": -1, "stimulus": "<p id=\"stim\">DENTIST</p>", "key_press": -1, "type": "PRES_VIS", "word": "dentist", "wordID": 446, "conditions