{"condition": 0, "counterbalance": 160, "assignmentId": "3PS7W85Z809NS76G7W679HN30PH9TN", "workerId": "MTK0528", "hitId": "306W7JMRYY5LVWVVCG46K7QMW8PB83", "currenttrial": 626, "bonus": 0, "data": [{"uniqueid": "MTK0528:3PS7W85Z809NS76G7W679HN30PH9TN", "current_trial": 0, "dateTime": 1511200159683, "trialdata": {"rt": 2674, "key_press": 32, "type": "INSTRUCTIONS", "trial_type": "text", "trial_index": 0, "time_elapsed": 2684, "internal_node_id": "0.0-0.0"}}, {"uniqueid": "MTK0528:3PS7W85Z809NS76G7W679HN30PH9TN", "current_trial": 1, "dateTime": 1511200177167, "trialdata": {"rt": 17480, "key_press": 32, "type": "INSTRUCTIONS", "trial_type": "text", "trial_index": 1, "time_elapsed": 20169, "internal_node_id": "0.0-1.0"}}, {"uniqueid": "MTK0528:3PS7W85Z809NS76G7W679HN30PH9TN", "current_trial": 2, "dateTime": 1511200191759, "trialdata": {"rt": [14531], "responses": ["ocean"], "type": "AUDIO_TEST", "trial_type": "audio-test", "trial_index": 2, "time_elapsed": 34762, "internal_node_id": "0.0-2.0"}}, {"uniqueid": "MTK0528:3PS7W85Z809NS76G7W679HN30PH9TN", "current_trial": 3, "dateTime": 1511200197399, "trialdata": {"rt": [5627], "responses": ["crystal"], "type": "AUDIO_TEST", "trial_type": "audio-test", "trial_index": 3, "time_elapsed": 40402, "internal_node_id": "0.0-3.0"}}, {"uniqueid": "MTK0528:3PS7W85Z809NS76G7W679HN30PH9TN", "current_trial": 4, "dateTime": 1511200201677, "trialdata": {"rt": [4267], "responses": ["spice"], "type": "AUDIO_TEST", "trial_type": "audio-test", "trial_index": 4, "time_elapsed": 44680, "internal_node_id": "0.0-4.0"}}, {"uniqueid": "MTK0528:3PS7W85Z809NS76G7W679HN30PH9TN", "current_trial": 5, "dateTime": 1511200225842, "trialdata": {"rt": 23410, "responses": "{\"Q0\":\"10:30pm\",\"Q1\":\"2:30 am\",\"Q2\":\"4\"}", "type": "SLEEP_SURVEY", "trial_type": "survey-text", "trial_index": 5, "time_elapsed": 68845, "internal_node_id": "0.0-5.0"}}, {"uniqueid": "MTK0528:3PS7W85Z809NS76G7W679HN30PH9TN", "current_trial": 6, "dateTime": 1511200275797, "trialdata": {"rt": 48952, "key_press": 32, "type": "INSTRUCTIONS", "trial_type": "text", "trial_index": 6, "time_elapsed": 118799, "internal_node_id": "0.0-6.0"}}, {"uniqueid": "MTK0528:3PS7W85Z809NS76G7W679HN30PH9TN", "current_trial": 7, "dateTime": 1511200296789, "trialdata": {"rt": 20490, "key_press": 32, "type": "INSTRUCTIONS", "trial_type": "text", "trial_index": 7, "time_elapsed": 139791, "internal_node_id": "0.0-7.0"}}, {"uniqueid": "MTK0528:3PS7W85Z809NS76G7W679HN30PH9TN", "current_trial": 8, "dateTime": 1511200308115, "trialdata": {"rt": 10825, "key_press": 32, "type": "INSTRUCTIONS", "trial_type": "text", "trial_index": 8, "time_elapsed": 151118, "internal_node_id": "0.0-8.0"}}, {"uniqueid": "MTK0528:3PS7W85Z809NS76G7W679HN30PH9TN", "current_trial": 9, "dateTime": 1511200327121, "trialdata": {"rt": [5212, 15204, 17397], "responses": ["25", "16", "12"], "num1": [9, 2, 2, 8], "num2": [7, 9, 1, 4], "num3": [9, 5, 9, 8], "type": "DISTRACTOR", "conditions": [18, 1200, "v", 18000], "trial": 0, "trial_type": "math-distractor", "trial_index": 9, "time_elapsed": 170124, "internal_node_id": "0.0-9.0"}}, {"uniqueid": "MTK0528:3PS7W85Z809NS76G7W679HN30PH9TN", "current_trial": 10, "dateTime": 1511200330124, "trialdata": {"rt": -1, "stimulus": "<p id=\"stim\">10</p>", "key_press": -1, "trial_type": "single-stim", "trial_index": 10, "time_elapsed": 173127, "internal_node_id": "0.0-10.0-0.0"}}, {"uniqueid": "MTK0528:3PS7W85Z809NS76G7W679HN30PH9TN", "current_trial": 11, "dateTime": 1511200331125, "trialdata": {"rt": -1, "stimulus": "<p id=\"stim\">9</p>", "key_press": -1, "trial_type": "single-stim", "trial_index": 11, "time_elapsed": 174128, "internal_node_id": "0.0-10.0-1.0"}}, {"uniqueid": "MTK0528:3PS7W85Z809NS76G7W679HN30PH9TN", "current_trial": 12, "dateTime": 1511200332127, "trialdata": {"rt": -1, "stimulus": "<p id=\"stim\">8</p>", "key_press": -1, "trial_type": "single-stim", "trial_index": 12, "time_elapsed": 175130, "internal_node_id": "0.0-10.0-2.0"}}, {"uniqueid": "MTK0528:3PS7W85Z809NS76G7W679HN30PH9TN", "current_trial": 13, "dateTime": 1511200333129, "trialdata": {"rt": -1, "stimulus": "<p id=\"stim\">7</p>", "key_press": -1, "trial_type": "single-stim", "trial_index": 13, "time_elapsed": 176132, "internal_node_id": "0.0-10.0-3.0"}}, {"uniqueid": "MTK0528:3PS7W85Z809NS76G7W679HN30PH9TN", "current_trial": 14, "dateTime": 1511200334131, "trialdata": {"rt": -1, "stimulus": "<p id=\"stim\">6</p>", "key_press": -1, "trial_type": "single-stim", "trial_index": 14, "time_elapsed": 177134, "internal_node_id": "0.0-10.0-4.0"}}, {"uniqueid": "MTK0528:3PS7W85Z809NS76G7W679HN30PH9TN", "current_trial": 15, "dateTime": 1511200335135, "trialdata": {"rt": -1, "stimulus": "<p id=\"stim\">5</p>", "key_press": -1, "trial_type": "single-stim", "trial_index": 15, "time_elapsed": 178138, "internal_node_id": "0.0-10.0-5.0"}}, {"uniqueid": "MTK0528:3PS7W85Z809NS76G7W679HN30PH9TN", "current_trial": 16, "dateTime": 1511200336136, "trialdata": {"rt": -1, "stimulus": "<p id=\"stim\">4</p>", "key_press": -1, "trial_type": "single-stim", "trial_index": 16, "time_elapsed": 179139, "internal_node_id": "0.0-10.0-6.0"}}, {"uniqueid": "MTK0528:3PS7W85Z809NS76G7W679HN30PH9TN", "current_trial": 17, "dateTime": 1511200337138, "trialdata": {"rt": -1, "stimulus": "<p id=\"stim\">3</p>", "key_press": -1, "trial_type": "single-stim", "trial_index": 17, "time_elapsed": 180141, "internal_node_id": "0.0-10.0-7.0"}}, {"uniqueid": "MTK0528:3PS7W85Z809NS76G7W679HN30PH9TN", "current_trial": 18, "dateTime": 1511200338140, "trialdata": {"rt": -1, "stimulus": "<p id=\"stim\">2</p>", "key_press": -1, "trial_type": "single-stim", "trial_index": 18, "time_elapsed": 181143, "internal_node_id": "0.0-10.0-8.0"}}, {"uniqueid": "MTK0528:3PS7W85Z809NS76G7W679HN30PH9TN", "current_trial": 19, "dateTime": 1511200339142, "trialdata": {"rt": -1, "stimulus": "<p id=\"stim\">1</p>", "key_press": -1, "trial_type": "single-stim", "trial_index": 19, "time_elapsed": 182145, "internal_node_id": "0.0-10.0-9.0"}}, {"uniqueid": "MTK0528:3PS7W85Z809NS76G7W679HN30PH9TN", "current_trial": 20, "dateTime": 1511200340644, "trialdata": {"rt": -1, "stimulus": "<p id=\"stim\">+</p>", "key_press": -1, "type": "FIXATION", "trial_type": "single-stim", "trial_index": 20, "time_elapsed": 183647, "internal_node_id": "0.0-11.0-0.0"}}, {"uniqueid": "MTK0528:3PS7W85Z809NS76G7W679HN30PH9TN", "current_trial": 21, "dateTime": 1511200341846, "trialdata": {"rt": -1, "stimulus": "<p id=\"stim\">COCKTAIL</p>", "key_press": -1, "type": "PRES_VIS", "word": "cocktail", "wordID": 337, "conditions": [18, 1200, "v", 18000], "trial": 0, "serialpos": 0, "trial_type": "single-stim", "trial_index": 21, "time_elapsed": 184849, "internal_node_id": "0.0-12.0"}}, {"uniqueid": "MTK0528:3PS7W85Z809NS76G7W679HN30PH9TN", "current_trial": 22, "dateTime": 1511200344145, "trialdata": {"rt": -1, "stimulus": "<p id=\"stim\">JAPAN</p>", "key_press": -1, "type": "PRES_VIS", "word": "japan", "wordID": 748, "conditions": [18, 1200, "v", 18000], "trial": 0, "serialpos": 1, "trial_type": "single-stim", "trial_index": 22, "time_elapsed": 187148, "internal_node_id": "0.0-13.0"}}, {"uniqueid": "MTK0528:3PS7W85Z809NS76G7W679HN30PH9TN", "current_trial": 23, "dateTime": 1511200346343, "trialdata": {"rt": -1, "stimulus": "<p id=\"stim\">GLASS</p>", "key_press": -1, "type": "PRES_VIS", "word": "glass", "wordID": 638, "conditions": [18, 1200, "v", 18000], "trial": 0, "serialpos": 2, "trial_type": "single-stim", "trial_index": 23, "time_elapsed": 189346, "internal_node_id": "0.0-14.0"}}, {"uniqueid": "MTK0528:3PS7W85Z809NS76G7W679HN30PH9TN", "current_trial": 24, "dateTime": 1511200348407, "trialdata": {"rt": -1, "stimulus": "<p id=\"stim\">LABEL</p>", "key_press": -1, "type": "PRES_VIS", "word": "label", "wordID": 789, "conditions": [18, 1200, "v", 18000], "trial": 0, "serialpos": 3, "trial_type": "single-stim", "trial_index": 24, "time_elapsed": 191410, "internal_node_id": "0.0-15.0"}}, {"uniqueid": "MTK0528:3PS7W85Z809NS76G7W679HN30PH9TN", "current_trial": 25, "dateTime": 1511200350694, "trialdata": {"rt": -1, "stimulus": "<p id=\"stim\">SAUSAGE</p>", "key_press": -1, "type": "PRES_VIS", "word": "sausage", "wordID": 1237, "conditions": [18, 1200, "v", 18000], "trial": 0, "serialpos": 4, "trial_type": "single-stim", "trial_index": 25, "time_elapsed": 193697, "internal_node_id": "0.0-16.0"}}, {"uniqueid": "MTK0528:3PS7W85Z809NS76G7W679HN30PH9TN", "current_trial": 26, "dateTime": 1511200352983, "trialdata": {"rt": -1, "stimulus": "<p id=\"stim\">SPACE</p>", "key_press": -1, "type": "PRES_VIS", "word": "space", "wordID": 1344, "conditions": [18, 1200, "v", 18000], "trial": 0, "serialpos": 5, "trial_type": "single-stim", "trial_index": 26, "time_elapsed": 195986, "internal_node_id": "0.0-17.0"}}, {"uniqueid": "MTK0528:3PS7W85Z809NS76G7W679HN30PH9TN", "current_trial": 27, "dateTime": 1511200355357, "trialdata": {"rt": -1, "stimulus": "<p id=\"stim\">BADGE</p>", "key_press": -1, "type": "PRES_VIS", "word": "badge", "wordID": 67, "conditions": [18, 1200, "v", 18000], "trial": 0, "serialpos": 6, "trial_type": "single-stim", "trial_index": 27, "time_elapsed": 198360, "internal_node_id": "0.0-18.0"}}, {"uniqueid": "MTK0528:3PS7W85Z809NS76G7W679HN30PH9TN", "current_trial": 28, "dateTime": 1511200357712, "trialdata": {"rt": -1, "stimulus": "<p id=\"stim\">HUMAN</p>", "key_press": -1, "type": "PRES_VIS", "word": "human", "wordID": 725, "conditions": [18, 1200, "v", 18000], "trial": 0, "serialpos": 7, "trial_type": "single-stim", "trial_index": 28, "time_elapsed": 200715, "internal_node_id": "0.0-19.0"}}, {"uniqueid": "MTK0528:3PS7W85Z809NS76G7W679HN30PH9TN", "current_trial": 29, "dateTime": 1511200359841, "trialdata": {"rt": -1, "stimulus": "<p id=\"stim\">ASIA</p>", "key_press": -1, "type": "PRES_VIS", "word": "asia", "wordID": 45, "conditions": [18, 1200, "v", 18000], "trial": 0, "serialpos": 8, "trial_type": "single-stim", "trial_index": 29, "time_elapsed": 202844, "internal_node_id": "0.0-20.0"}}, {"uniqueid": "MTK0528:3PS7W85Z809NS76G7W679HN30PH9TN", "current_trial": 30, "dateTime": 1511200362207, "trialdata": {"rt": -1, "stimulus": "<p id=\"stim\">QUAIL</p>", "key_press": -1, "type": "PRES_VIS", "word": "quail", "wordID": 1146, "conditions": [18, 1200, "v", 18000], "trial": 0, "serialpos": 9, "trial_type": "single-stim", "trial_index": 30, "time_elapsed": 205210, "internal_node_id": "0.0-21.0"}}, {"uniqueid": "MTK0528:3PS7W85Z809NS76G7W679HN30PH9TN", "current_trial": 31, "dateTime": 1511200364479, "trialdata": {"rt": -1, "stimulus": "<p id=\"stim\">SIDEWALK</p>", "key_press": -1, "type": "PRES_VIS", "word": "sidewalk", "wordID": 1302, "conditions": [18, 1200, "v", 18000], "trial": 0, "serialpos": 10, "trial_type": "single-stim", "trial_index": 31, "time_elapsed": 207482, "internal_node_id": "0.0-22.0"}}, {"uniqueid": "MTK0528:3PS7W85Z809NS76G7W679HN30PH9TN", "current_trial": 32, "dateTime": 1511200366695, "trialdata": {"rt": -1, "stimulus": "<p id=\"stim\">BOUQUET</p>", "key_press": -1, "type": "PRES_VIS", "word": "bouquet", "wordID": 156, "conditions": [18, 1200, "v", 18000], "trial": 0, "serialpos": 11, "trial_type": "single-stim", "trial_index": 32, "time_elapsed": 209698, "internal_node_id": "0.0-23.0"}}, {"uniqueid": "MTK0528:3PS7W85Z809NS76G7W679HN30PH9TN", "current_trial": 33, "dateTime": 1511200368941, "trialdata": {"rt": -1, "stimulus": "<p id=\"stim\">HATCHET</p>", "key_press": -1, "type": "PRES_VIS", "word": "hatchet", "wordID": 690, "conditions": [18, 1200, "v", 18000], "trial": 0, "serialpos": 12, "trial_type": "single-stim", "trial_index": 33, "time_elapsed": 211944, "internal_node_id": "0.0-24.0"}}, {"uniqueid": "MTK0528:3PS7W85Z809NS76G7W679HN30PH9TN", "current_trial": 34, "dateTime": 1511200371174, "trialdata": {"rt": -1, "stimulus": "<p id=\"stim\">WARDROBE</p>", "key_press": -1, "type": "PRES_VIS", "word": "wardrobe", "wordID": 1586, "conditions": [18, 1200, "v", 18000], "trial": 0, "serialpos": 13, "trial_type": "single-stim", "trial_index": 34, "time_elapsed": 214177, "internal_node_id": "0.0-25.0"}}, {"uniqueid": "MTK0528:3PS7W85Z809NS76G7W679HN30PH9TN", "current_trial": 35, "dateTime": 1511200373260, "trialdata": {"rt": -1, "stimulus": "<p id=\"stim\">LASER</p>", "key_press": -1, "type": "PRES_VIS", "word": "laser", "wordID": 800, "conditions": [18, 1200, "v", 18000], "trial": 0, "serialpos": 14, "trial_type": "single-stim", "trial_index": 35, "time_elapsed": 216263, "internal_node_id": "0.0-26.0"}}, {"uniqueid": "MTK0528:3PS7W85Z809NS76G7W679HN30PH9TN", "current_trial": 36, "dateTime": 1511200375327, "trialdata": {"rt": -1, "stimulus": "<p id=\"stim\">BEAVER</p>", "key_press": -1, "type": "PRES_VIS", "word": "beaver", "wordID": 108, "conditions": [18, 1200, "v", 18000], "trial": 0, "serialpos": 15, "trial_type": "single-stim", "trial_index": 36, "time_elapsed": 218330, "internal_node_id": "0.0-27.0"}}, {"uniqueid": "MTK0528:3PS7W85Z809NS76G7W679HN30PH9TN", "current_trial": 37, "dateTime": 1511200377497, "trialdata": {"rt": -1, "stimulus": "<p id=\"stim\">LOVER</p>", "key_press": -1, "type": "PRES_VIS", "word": "lover", "wordID": 845, "conditions": [18, 1200, "v", 18000], "trial": 0, "serialpos": 16, "trial_type": "single-stim", "trial_index": 37, "time_elapsed": 220500, "internal_node_id": "0.0-28.0"}}, {"uniqueid": "MTK0528:3PS7W85Z809NS76G7W679HN30PH9TN", "current_trial": 38, "dateTime": 1511200379779, "trialdata": {"rt": -1, "stimulus": "<p id=\"stim\">RABBIT</p>", "key_press": -1, "type": "PRES_VIS", "word": "rabbit", "wordID": 1151, "conditions": [18, 1200, "v", 18000], "trial": 0, "serialpos": 17, "trial_type": "single-stim", "trial_index": 38, "time_elapsed": 222782, "internal_node_id": "0.0-29.0"}}, {"uniqueid": "MTK0528:3PS7W85Z809NS76G7W679HN30PH9TN", "current_trial": 39, "dateTime": 1511200382109, "trialdata": {"rt": -1, "stimulus": "", "key_press": -1, "type": "PRE_RECALL_DELAY", "trial_type": "single-stim", "trial_index": 39, "time_elapsed": 225112, "internal_node_id": "0.0-30.0-0.0"}}, {"uniqueid": "MTK0528:3PS7W85Z809NS76G7W679HN30PH9TN", "current_trial": 40, "dateTime": 1511200382612, "trialdata": {"rt": -1000, "stimulus": "/static/audio/400Hz.wav", "key_press": -1, "type": "PRE_RECALL_ALERT", "trial_type": "single-audio", "trial_index": 40, "time_elapsed": 225615, "internal_node_id": "0.0-31.0"}}, {"uniqueid": "MTK0528:3PS7W85Z809NS76G7W679HN30PH9TN", "current_trial": 41, "dateTime": 1511200442630, "trialdata": {"rt": [3224, 5744, 7008, 8648, 11184, 12504, 14171, 18922, 40274], "recwords": ["rabbit", "cocktail", "japan", "glass", "label", "lover", "beaver", "quail", "badge"], "type": "FREE_RECALL", "conditions": [18, 1200, "v", 18000], "trial": 0, "trial_type": "free-recall", "trial_index": 41, "time_elapsed": 285621, "internal_node_id": "0.0-32.0-0.0"}}, {"uniqueid": "MTK0528:3PS7W85Z809NS76G7W679HN30PH9TN", "current_trial": 42, "dateTime": 1511200447007, "trialdata": {"rt": 2375, "key_press": 32, "type": "INSTRUCTIONS", "trial_type": "text", "trial_index": 42, "time_elapsed": 290009, "internal_node_id": "0.0-33.0"}}, {"uniqueid": "MTK0528:3PS7W85Z809NS76G7W679HN30PH9TN", "current_trial": 43, "dateTime": 1511200467013, "trialdata": {"rt": [3715, 9771, 11739, 14292, 16180], "responses": ["19", "12", "13", "7", "9"], "num1": [4, 7, 2, 2, 2, 9], "num2": [9, 4, 8, 3, 5, 5], "num3": [6, 1, 3, 2, 2, 4], "type": "DISTRACTOR", "conditions": [18, 1200, "a", 18000], "trial": 1, "trial_type": "math-distractor", "trial_index": 43, "time_elapsed": 310016, "internal_node_id": "0.0-34.0"}}, {"uniqueid": "MTK0528:3PS7W85Z809NS76G7W679HN30PH9TN", "current_trial": 44, "dateTime": 1511200470014, "trialdata": {"rt": -1, "stimulus": "<p id=\"stim\">10</p>", "key_press": -1, "trial_type": "single-stim", "trial_index": 44, "time_elapsed": 313017, "internal_node_id": "0.0-35.0-0.0"}}, {"uniqueid": "MTK0528:3PS7W85Z809NS76G7W679HN30PH9TN", "current_trial": 45, "dateTime": 1511200471016, "trialdata": {"rt": -1, "stimulus": "<p id=\"stim\">9</p>", "key_press": -1, "trial_type": "single-stim", "trial_index": 45, "time_elapsed": 314019, "internal_node_id": "0.0-35.0-1.0"}}, {"uniqueid": "MTK0528:3PS7W85Z809NS76G7W679HN30PH9TN", "current_trial": 46, "dateTime": 1511200472017, "trialdata": {"rt": -1, "stimulus": "<p id=\"stim\">8</p>", "key_press": -1, "trial_type": "single-stim", "trial_index": 46, "time_elapsed": 315020, "internal_node_id": "0.0-35.0-2.0"}}, {"uniqueid": "MTK0528:3PS7W85Z809NS76G7W679HN30PH9TN", "current_trial": 47, "dateTime": 1511200473019, "trialdata": {"rt": -1, "stimulus": "<p id=\"stim\">7</p>", "key_press": -1, "trial_type": "single-stim", "trial_index": 47, "time_elapsed": 316022, "internal_node_id": "0.0-35.0-3.0"}}, {"uniqueid": "MTK0528:3PS7W85Z809NS76G7W679HN30PH9TN", "current_trial": 48, "dateTime": 1511200474020, "trialdata": {"rt": -1, "stimulus": "<p id=\"stim\">6</p>", "key_press": -1, "trial_type": "single-stim", "trial_index": 48, "time_elapsed": 317023, "internal_node_id": "0.0-35.0-4.0"}}, {"uniqueid": "MTK0528:3PS7W85Z809NS76G7W679HN30PH9TN", "current_trial": 49, "dateTime": 1511200475021, "trialdata": {"rt": -1, "stimulus": "<p id=\"stim\">5</p>", "key_press": -1, "trial_type": "single-stim", "trial_index": 49, "time_elapsed": 318024, "internal_node_id": "0.0-35.0-5.0"}}, {"uniqueid": "MTK0528:3PS7W85Z809NS76G7W679HN30PH9TN", "current_trial": 50, "dateTime": 1511200476022, "trialdata": {"rt": -1, "stimulus": "<p id=\"stim\">4</p>", "key_press": -1, "trial_type": "single-stim", "trial_index": 50, "time_elapsed": 319025, "internal_node_id": "0.0-35.0-6.0"}}, {"uniqueid": "MTK0528:3PS7W85Z809NS76G7W679HN30PH9TN", "current_trial": 51, "dateTime": 1511200477024, "trialdata": {"rt": -1, "stimulus": "<p id=\"stim\">3</p>", "key_press": -1, "trial_type": "single-stim", "trial_index": 51, "time_elapsed": 320027, "internal_node_id": "0.0-35.0-7.0"}}, {"uniqueid": "MTK0528:3PS7W85Z809NS76G7W679HN30PH9TN", "current_trial": 52, "dateTime": 1511200478026, "trialdata": {"rt": -1, "stimulus": "<p id=\"stim\">2</p>", "key_press": -1, "trial_type": "single-stim", "trial_index": 52, "time_elapsed": 321029, "internal_node_id": "0.0-35.0-8.0"}}, {"uniqueid": "MTK0528:3PS7W85Z809NS76G7W679HN30PH9TN", "current_trial": 53, "dateTime": 1511200479028, "trialdata": {"rt": -1, "stimulus": "<p id=\"stim\">1</p>", "key_press": -1, "trial_type": "single-stim", "trial_index": 53, "time_elapsed": 322031, "internal_node_id": "0.0-35.0-9.0"}}, {"uniqueid": "MTK0528:3PS7W85Z809NS76G7W679HN30PH9TN", "current_trial": 54, "dateTime": 1511200480529, "trialdata": {"rt": -1, "stimulus": "<p id=\"stim\">+</p>", "key_press": -1, "type": "FIXATION", "trial_type": "single-stim", "trial_index": 54, "time_elapsed": 323532, "internal_node_id": "0.0-36.0-0.0"}}, {"uniqueid": "MTK0528:3PS7W85Z809NS76G7W679HN30PH9TN", "current_trial": 55, "dateTime": 1511200482774, "trialdata": {"rt": -1000, "stimulus": "/static/audio/wordpool/GOBLIN.wav", "key_press": -1, "type": "PRES_AUD", "word": "goblin", "wordID": 644, "conditions": [18, 1200, "a", 18000], "trial": 1, "serialpos": 0, "trial_type": "single-audio", "trial_index": 55, "time_elapsed": 325777, "internal_node_id": "0.0-37.0"}}, {"uniqueid": "MTK0528:3PS7W85Z809NS76G7W679HN30PH9TN", "current_trial": 56, "dateTime": 1511200484953, "trialdata": {"rt": -1000, "stimulus": "/static/audio/wordpool/TRACTOR.wav", "key_press": -1, "type": "PRES_AUD", "word": "tractor", "wordID": 1492, "conditions": [18, 1200, "a", 18000], "trial": 1, "serialpos": 1, "trial_type": "single-audio", "trial_index": 56, "time_elapsed": 327955, "internal_node_id": "0.0-38.0"}}, {"uniqueid": "MTK0528:3PS7W85Z809NS76G7W679HN30PH9TN", "current_trial": 57, "dateTime": 1511200486978, "trialdata": {"rt": -1000, "stimulus": "/static/audio/wordpool/NOTEBOOK.wav", "key_press": -1, "type": "PRES_AUD", "word": "notebook", "wordID": 958, "conditions": [18, 1200, "a", 18000], "trial": 1, "serialpos": 2, "trial_type": "single-audio", "trial_index": 57, "time_elapsed": 329980, "internal_node_id": "0.0-39.0"}}, {"uniqueid": "MTK0528:3PS7W85Z809NS76G7W679HN30PH9TN", "current_trial": 58, "dateTime": 1511200489104, "trialdata": {"rt": -1000, "stimulus": "/static/audio/wordpool/ARMY.wav", "key_press": -1, "type": "PRES_AUD", "word": "army", "wordID": 38, "conditions": [18, 1200, "a", 18000], "trial": 1, "serialpos": 3, "trial_type": "single-audio", "trial_index": 58, "time_elapsed": 332106, "internal_node_id": "0.0-40.0"}}, {"uniqueid": "MTK0528:3PS7W85Z809NS76G7W679HN30PH9TN", "current_trial": 59, "dateTime": 1511200491493, "trialdata": {"rt": -1000, "stimulus": "/static/audio/wordpool/STATUE.wav", "key_press": -1, "type": "PRES_AUD", "word": "statue", "wordID": 1373, "conditions": [18, 1200, "a", 18000], "trial": 1, "serialpos": 4, "trial_type": "single-audio", "trial_index": 59, "time_elapsed": 334496, "internal_node_id": "0.0-41.0"}}, {"uniqueid": "MTK0528:3PS7W85Z809NS76G7W679HN30PH9TN", "current_trial": 60, "dateTime": 1511200493664, "trialdata": {"rt": -1000, "stimulus": "/static/audio/wordpool/VICTIM.wav", "key_press": -1, "type": "PRES_AUD", "word": "victim", "wordID": 1561, "conditions": [18, 1200, "a", 18000], "trial": 1, "serialpos": 5, "trial_type": "single-audio", "trial_index": 60, "time_elapsed": 336666, "internal_node_id": "0.0-42.0"}}, {"uniqueid": "MTK0528:3PS7W85Z809NS76G7W679HN30PH9TN", "current_trial": 61, "dateTime": 1511200495926, "trialdata": {"rt": -1000, "stimulus": "/static/audio/wordpool/FREEZER.wav", "key_press": -1, "type": "PRES_AUD", "word": "freezer", "wordID": 603, "conditions": [18, 1200, "a", 18000], "trial": 1, "serialpos": 6, "trial_type": "single-audio", "trial_index": 61, "time_elapsed": 338928, "internal_node_id": "0.0-43.0"}}, {"uniqueid": "MTK0528:3PS7W85Z809NS76G7W679HN30PH9TN", "current_trial": 62, "dateTime": 1511200497966, "trialdata": {"rt": -1000, "stimulus": "/static/audio/wordpool/FRAME.wav", "key_press": -1, "type": "PRES_AUD", "word": "frame", "wordID": 599, "conditions": [18, 1200, "a", 18000], "trial": 1, "serialpos": 7, "trial_type": "single-audio", "trial_index": 62, "time_elapsed": 340968, "internal_node_id": "0.0-44.0"}}, {"uniqueid": "MTK0528:3PS7W85Z809NS76G7W679HN30PH9TN", "current_trial": 63, "dateTime": 1511200500121, "trialdata": {"rt": -1000, "stimulus": "/static/audio/wordpool/RECEIPT.wav", "key_press": -1, "type": "PRES_AUD", "word": "receipt", "wordID": 1172, "conditions": [18, 1200, "a", 18000], "trial": 1, "serialpos": 8, "trial_type": "single-audio", "trial_index": 63, "time_elapsed": 343124, "internal_node_id": "0.0-45.0"}}, {"uniqueid": "MTK0528:3PS7W85Z809NS76G7W679HN30PH9TN", "current_trial": 64, "dateTime": 1511200502435, "trialdata": {"rt": -1000, "stimulus": "/static/audio/wordpool/LOFT.wav", "key_press": -1, "type": "PRES_AUD", "word": "loft", "wordID": 839, "conditions": [18, 1200, "a", 18000], "trial": 1, "serialpos": 9, "trial_type": "single-audio", "trial_index": 64, "time_elapsed": 345438, "internal_node_id": "0.0-46.0"}}, {"uniqueid": "MTK0528:3PS7W85Z809NS76G7W679HN30PH9TN", "current_trial": 65, "dateTime": 1511200504438, "trialdata": {"rt": -1000, "stimulus": "/static/audio/wordpool/CABIN.wav", "key_press": -1, "type": "PRES_AUD", "word": "cabin", "wordID": 210, "conditions": [18, 1200, "a", 18000], "trial": 1, "serialpos": 10, "trial_type": "single-audio", "trial_index": 65, "time_elapsed": 347440, "internal_node_id": "0.0-47.0"}}, {"uniqueid": "MTK0528:3PS7W85Z809NS76G7W679HN30PH9TN", "current_trial": 66, "dateTime": 1511200506755, "trialdata": {"rt": -1000, "stimulus": "/static/audio/wordpool/WORKER.wav", "key_press": -1, "type": "PRES_AUD", "word": "worker", "wordID": 1620, "conditions": [18, 1200, "a", 18000], "trial": 1, "serialpos": 11, "trial_type": "single-audio", "trial_index": 66, "time_elapsed": 349757, "internal_node_id": "0.0-48.0"}}, {"uniqueid": "MTK0528:3PS7W85Z809NS76G7W679HN30PH9TN", "current_trial": 67, "dateTime": 1511200508763, "trialdata": {"rt": -1000, "stimulus": "/static/audio/wordpool/BLACKBOARD.wav", "key_press": -1, "type": "PRES_AUD", "word": "blackboard", "wordID": 132, "conditions": [18, 1200, "a", 18000], "trial": 1, "serialpos": 12, "trial_type": "single-audio", "trial_index": 67, "time_elapsed": 351765, "internal_node_id": "0.0-49.0"}}, {"uniqueid": "MTK0528:3PS7W85Z809NS76G7W679HN30PH9TN", "current_trial": 68, "dateTime": 1511200510767, "trialdata": {"rt": -1000, "stimulus": "/static/audio/wordpool/TORTOISE.wav", "key_press": -1, "type": "PRES_AUD", "word": "tortoise", "wordID": 1485, "conditions": [18, 1200, "a", 18000], "trial": 1, "serialpos": 13, "trial_type": "single-audio", "trial_index": 68, "time_elapsed": 353767, "internal_node_id": "0.0-50.0"}}, {"uniqueid": "MTK0528:3PS7W85Z809NS76G7W679HN30PH9TN", "current_trial": 69, "dateTime": 1511200512858, "trialdata": {"rt": -1000, "stimulus": "/static/audio/wordpool/COFFEE.wav", "key_press": -1, "type": "PRES_AUD", "word": "coffee", "wordID": 340, "conditions": [18, 1200, "a", 18000], "trial": 1, "serialpos": 14, "trial_type": "single-audio", "trial_index": 69, "time_elapsed": 355861, "internal_node_id": "0.0-51.0"}}, {"uniqueid": "MTK0528:3PS7W85Z809NS76G7W679HN30PH9TN", "current_trial": 70, "dateTime": 1511200515004, "trialdata": {"rt": -1000, "stimulus": "/static/audio/wordpool/FLASHLIGHT.wav", "key_press": -1, "type": "PRES_AUD", "word": "flashlight", "wordID": 574, "conditions": [18, 1200, "a", 18000], "trial": 1, "serialpos": 15, "trial_type": "single-audio", "trial_index": 70, "time_elapsed": 358006, "internal_node_id": "0.0-52.0"}}, {"uniqueid": "MTK0528:3PS7W85Z809NS76G7W679HN30PH9TN", "current_trial": 71, "dateTime": 1511200517346, "trialdata": {"rt": -1000, "stimulus": "/static/audio/wordpool/ROBBER.wav", "key_press": -1, "type": "PRES_AUD", "word": "robber", "wordID": 1196, "conditions": [18, 1200, "a", 18000], "trial": 1, "serialpos": 16, "trial_type": "single-audio", "trial_index": 71, "time_elapsed": 360349, "internal_node_id": "0.0-53.0"}}, {"uniqueid": "MTK0528:3PS7W85Z809NS76G7W679HN30PH9TN", "current_trial": 72, "dateTime": 1511200519494, "trialdata": {"rt": -1000, "stimulus": "/static/audio/wordpool/LEADER.wav", "key_press": -1, "type": "PRES_AUD", "word": "leader", "wordID": 806, "conditions": [18, 1200, "a", 18000], "trial": 1, "serialpos": 17, "trial_type": "single-audio", "trial_index": 72, "time_elapsed": 362497, "internal_node_id": "0.0-54.0"}}, {"uniqueid": "MTK0528:3PS7W85Z809NS76G7W679HN30PH9TN", "current_trial": 73, "dateTime": 1511200520744, "trialdata": {"rt": -1, "stimulus": "", "key_press": -1, "type": "PRE_RECALL_DELAY", "trial_type": "single-stim", "trial_index": 73, "time_elapsed": 363747, "internal_node_id": "0.0-55.0-0.0"}}, {"uniqueid": "MTK0528:3PS7W85Z809NS76G7W679HN30PH9TN", "current_trial": 74, "dateTime": 1511200521246, "trialdata": {"rt": -1000, "stimulus": "/static/audio/400Hz.wav", "key_press": -1, "type": "PRE_RECALL_ALERT", "trial_type": "single-audio", "trial_index": 74, "time_elapsed": 364249, "internal_node_id": "0.0-56.0"}}, {"uniqueid": "MTK0528:3PS7W85Z809NS76G7W679HN30PH9TN", "current_trial": 75, "dateTime": 1511200581256, "trialdata": {"rt": [5145, 7761, 10449, 13889, 17098, 20834, 23946, 28130, 32083], "recwords": ["worker", "loft", "cabin", "tortise", "coffee", "flashlight", "robber", "cabin", "goblin"], "type": "FREE_RECALL", "conditions": [18, 1200, "a", 18000], "trial": 1, "trial_type": "free-recall", "trial_index": 75, "time_elapsed": 424253, "internal_node_id": "0.0-57.0-0.0"}}, {"uniqueid": "MTK0528:3PS7W85Z809NS76G7W679HN30PH9TN", "current_trial": 76, "dateTime": 1511200588282, "trialdata": {"rt": 5015, "key_press": 32, "type": "INSTRUCTIONS", "trial_type": "text", "trial_index": 76, "time_elapsed": 431276, "internal_node_id": "0.0-58.0"}}, {"uniqueid": "MTK0528:3PS7W85Z809NS76G7W679HN30PH9TN", "current_trial": 77, "dateTime": 1511200613286, "trialdata": {"rt": [4100, 7548, 11724, 13724, 15644, 20501, 22725], "responses": ["16", "19", "20", "13", "10", "23", "10"], "num1": [5, 8, 9, 5, 5, 8, 1, 3], "num2": [8, 7, 7, 5, 3, 8, 2, 2], "num3": [3, 4, 4, 3, 2, 7, 7, 7], "type": "DISTRACTOR", "conditions": [12, 1600, "v", 24000], "trial": 2, "trial_type": "math-distractor", "trial_index": 77, "time_elapsed": 456288, "internal_node_id": "0.0-59.0"}}, {"uniqueid": "MTK0528:3PS7W85Z809NS76G7W679HN30PH9TN", "current_trial": 78, "dateTime": 1511200616287, "trialdata": {"rt": -1, "stimulus": "<p id=\"stim\">10</p>", "key_press": -1, "trial_type": "single-stim", "trial_index": 78, "time_elapsed": 459290, "internal_node_id": "0.0-60.0-0.0"}}, {"uniqueid": "MTK0528:3PS7W85Z809NS76G7W679HN30PH9TN", "current_trial": 79, "dateTime": 1511200617288, "trialdata": {"rt": -1, "stimulus": "<p id=\"stim\">9</p>", "key_press": -1, "trial_type": "single-stim", "trial_index": 79, "time_elapsed": 460291, "internal_node_id": "0.0-60.0-1.0"}}, {"uniqueid": "MTK0528:3PS7W85Z809NS76G7W679HN30PH9TN", "current_trial": 80, "dateTime": 1511200618289, "trialdata": {"rt": -1, "stimulus": "<p id=\"stim\">8</p>", "key_press": -1, "trial_type": "single-stim", "trial_index": 80, "time_elapsed": 461292, "internal_node_id": "0.0-60.0-2.0"}}, {"uniqueid": "MTK0528:3PS7W85Z809NS76G7W679HN30PH9TN", "current_trial": 81, "dateTime": 1511200619290, "trialdata": {"rt": -1, "stimulus": "<p id=\"stim\">7</p>", "key_press": -1, "trial_type": "single-stim", "trial_index": 81, "time_elapsed": 462293, "internal_node_id": "0.0-60.0-3.0"}}, {"uniqueid": "MTK0528:3PS7W85Z809NS76G7W679HN30PH9TN", "current_trial": 82, "dateTime": 1511200620292, "trialdata": {"rt": -1, "stimulus": "<p id=\"stim\">6</p>", "key_press": -1, "trial_type": "single-stim", "trial_index": 82, "time_elapsed": 463295, "internal_node_id": "0.0-60.0-4.0"}}, {"uniqueid": "MTK0528:3PS7W85Z809NS76G7W679HN30PH9TN", "current_trial": 83, "dateTime": 1511200621293, "trialdata": {"rt": -1, "stimulus": "<p id=\"stim\">5</p>", "key_press": -1, "trial_type": "single-stim", "trial_index": 83, "time_elapsed": 464296, "internal_node_id": "0.0-60.0-5.0"}}, {"uniqueid": "MTK0528:3PS7W85Z809NS76G7W679HN30PH9TN", "current_trial": 84, "dateTime": 1511200622294, "trialdata": {"rt": -1, "stimulus": "<p id=\"stim\">4</p>", "key_press": -1, "trial_type": "single-stim", "trial_index": 84, "time_elapsed": 465297, "internal_node_id": "0.0-60.0-6.0"}}, {"uniqueid": "MTK0528:3PS7W85Z809NS76G7W679HN30PH9TN", "current_trial": 85, "dateTime": 1511200623296, "trialdata": {"rt": -1, "stimulus": "<p id=\"stim\">3</p>", "key_press": -1, "trial_type": "single-stim", "trial_index": 85, "time_elapsed": 466299, "internal_node_id": "0.0-60.0-7.0"}}, {"uniqueid": "MTK0528:3PS7W85Z809NS76G7W679HN30PH9TN", "current_trial": 86, "dateTime": 1511200624297, "trialdata": {"rt": -1, "stimulus": "<p id=\"stim\">2</p>", "key_press": -1, "trial_type": "single-stim", "trial_index": 86, "time_elapsed": 467300, "internal_node_id": "0.0-60.0-8.0"}}, {"uniqueid": "MTK0528:3PS7W85Z809NS76G7W679HN30PH9TN", "current_trial": 87, "dateTime": 1511200625299, "trialdata": {"rt": -1, "stimulus": "<p id=\"stim\">1</p>", "key_press": -1, "trial_type": "single-stim", "trial_index": 87, "time_elapsed": 468302, "internal_node_id": "0.0-60.0-9.0"}}, {"uniqueid": "MTK0528:3PS7W85Z809NS76G7W679HN30PH9TN", "current_trial": 88, "dateTime": 1511200626800, "trialdata": {"rt": -1, "stimulus": "<p id=\"stim\">+</p>", "key_press": -1, "type": "FIXATION", "trial_type": "single-stim", "trial_index": 88, "time_elapsed": 469803, "internal_node_id": "0.0-61.0-0.0"}}, {"uniqueid": "MTK0528:3PS7W85Z809NS76G7W679HN30PH9TN", "current_trial": 89, "dateTime": 1511200628401, "trialdata": {"rt": -1, "stimulus": "<p id=\"stim\">VIRUS</p>", "key_press": -1, "type": "PRES_VIS", "word": "virus", "wordID": 1571, "conditions": [12, 1600, "v", 24000], "trial": 2, "serialpos": 0, "trial_type": "single-stim", "trial_index": 89, "time_elapsed": 471404, "internal_node_id": "0.0-62.0"}}, {"uniqueid": "MTK0528:3PS7W85Z809NS76G7W679HN30PH9TN", "current_trial": 90, "dateTime": 1511200631181, "trialdata": {"rt": -1, "stimulus": "<p id=\"stim\">OUTFIT</p>", "key_press": -1, "type": "PRES_VIS", "word": "outfit", "wordID": 987, "conditions": [12, 1600, "v", 24000], "trial": 2, "serialpos": 1, "trial_type": "single-stim", "trial_index": 90, "time_elapsed": 474184, "internal_node_id": "0.0-63.0"}}, {"uniqueid": "MTK0528:3PS7W85Z809NS76G7W679HN30PH9TN", "current_trial": 91, "dateTime": 1511200633642, "trialdata": {"rt": -1, "stimulus": "<p id=\"stim\">YARN</p>", "key_press": -1, "type": "PRES_VIS", "word": "yarn", "wordID": 1630, "conditions": [12, 1600, "v", 24000], "trial": 2, "serialpos": 2, "trial_type": "single-stim", "trial_index": 91, "time_elapsed": 476645, "internal_node_id": "0.0-64.0"}}, {"uniqueid": "MTK0528:3PS7W85Z809NS76G7W679HN30PH9TN", "current_trial": 92, "dateTime": 1511200636367, "trialdata": {"rt": -1, "stimulus": "<p id=\"stim\">CLAM</p>", "key_press": -1, "type": "PRES_VIS", "word": "clam", "wordID": 314, "conditions": [12, 1600, "v", 24000], "trial": 2, "serialpos": 3, "trial_type": "single-stim", "trial_index": 92, "time_elapsed": 479370, "internal_node_id": "0.0-65.0"}}, {"uniqueid": "MTK0528:3PS7W85Z809NS76G7W679HN30PH9TN", "current_trial": 93, "dateTime": 1511200638935, "trialdata": {"rt": -1, "stimulus": "<p id=\"stim\">BLENDER</p>", "key_press": -1, "type": "PRES_VIS", "word": "blender", "wordID": 135, "conditions": [12, 1600, "v", 24000], "trial": 2, "serialpos": 4, "trial_type": "single-stim", "trial_index": 93, "time_elapsed": 481938, "internal_node_id": "0.0-66.0"}}, {"uniqueid": "MTK0528:3PS7W85Z809NS76G7W679HN30PH9TN", "current_trial": 94, "dateTime": 1511200641459, "trialdata": {"rt": -1, "stimulus": "<p id=\"stim\">COMPASS</p>", "key_press": -1, "type": "PRES_VIS", "word": "compass", "wordID": 357, "conditions": [12, 1600, "v", 24000], "trial": 2, "serialpos": 5, "trial_type": "single-stim", "trial_index": 94, "time_elapsed": 484462, "internal_node_id": "0.0-67.0"}}, {"uniqueid": "MTK0528:3PS7W85Z809NS76G7W679HN30PH9TN", "current_trial": 95, "dateTime": 1511200644022, "trialdata": {"rt": -1, "stimulus": "<p id=\"stim\">LAMP</p>", "key_press": -1, "type": "PRES_VIS", "word": "lamp", "wordID": 797, "conditions": [12, 1600, "v", 24000], "trial": 2, "serialpos": 6, "trial_type": "single-stim", "trial_index": 95, "time_elapsed": 487025, "internal_node_id": "0.0-68.0"}}, {"uniqueid": "MTK0528:3PS7W85Z809NS76G7W679HN30PH9TN", "current_trial": 96, "dateTime": 1511200646614, "trialdata": {"rt": -1, "stimulus": "<p id=\"stim\">ROBOT</p>", "key_press": -1, "type": "PRES_VIS", "word": "robot", "wordID": 1199, "conditions": [12, 1600, "v", 24000], "trial": 2, "serialpos": 7, "trial_type": "single-stim", "trial_index": 96, "time_elapsed": 489617, "internal_node_id": "0.0-69.0"}}, {"uniqueid": "MTK0528:3PS7W85Z809NS76G7W679HN30PH9TN", "current_trial": 97, "dateTime": 1511200649313, "trialdata": {"rt": -1, "stimulus": "<p id=\"stim\">CARROT</p>", "key_press": -1, "type": "PRES_VIS", "word": "carrot", "wordID": 248, "conditions": [12, 1600, "v", 24000], "trial": 2, "serialpos": 8, "trial_type": "single-stim", "trial_index": 97, "time_elapsed": 492316, "internal_node_id": "0.0-70.0"}}, {"uniqueid": "MTK0528:3PS7W85Z809NS76G7W679HN30PH9TN", "current_trial": 98, "dateTime": 1511200652074, "trialdata": {"rt": -1, "stimulus": "<p id=\"stim\">PEANUT</p>", "key_press": -1, "type": "PRES_VIS", "word": "peanut", "wordID": 1031, "conditions": [12, 1600, "v", 24000], "trial": 2, "serialpos": 9, "trial_type": "single-stim", "trial_index": 98, "time_elapsed": 495077, "internal_node_id": "0.0-71.0"}}, {"uniqueid": "MTK0528:3PS7W85Z809NS76G7W679HN30PH9TN", "current_trial": 99, "dateTime": 1511200654585, "trialdata": {"rt": -1, "stimulus": "<p id=\"stim\">PECAN</p>", "key_press": -1, "type": "PRES_VIS", "word": "pecan", "wordID": 1035, "conditions": [12, 1600, "v", 24000], "trial": 2, "serialpos": 10, "trial_type": "single-stim", "trial_index": 99, "time_elapsed": 497588, "internal_node_id": "0.0-72.0"}}, {"uniqueid": "MTK0528:3PS7W85Z809NS76G7W679HN30PH9TN", "current_trial": 100, "dateTime": 1511200657060, "trialdata": {"rt": -1, "stimulus": "<p id=\"stim\">CRAB</p>", "key_press": -1, "type": "PRES_VIS", "word": "crab", "wordID": 396, "conditions": [12, 1600, "v", 24000], "trial": 2, "serialpos": 11, "trial_type": "single-stim", "trial_index": 100, "time_elapsed": 500063, "internal_node_id": "0.0-73.0"}}, {"uniqueid": "MTK0528:3PS7W85Z809NS76G7W679HN30PH9TN", "current_trial": 101, "dateTime": 1511200659201, "trialdata": {"rt": -1, "stimulus": "", "key_press": -1, "type": "PRE_RECALL_DELAY", "trial_type": "single-stim", "trial_index": 101, "time_elapsed": 502204, "internal_node_id": "0.0-74.0-0.0"}}, {"uniqueid": "MTK0528:3PS7W85Z809NS76G7W679HN30PH9TN", "current_trial": 102, "dateTime": 1511200659703, "trialdata": {"rt": -1000, "stimulus": "/static/audio/400Hz.wav", "key_press": -1, "type": "PRE_RECALL_ALERT", "trial_type": "single-audio", "trial_index": 102, "time_elapsed": 502706, "internal_node_id": "0.0-75.0"}}, {"uniqueid": "MTK0528:3PS7W85Z809NS76G7W679HN30PH9TN", "current_trial": 103, "dateTime": 1511200719713, "trialdata": {"rt": [4066, 5714, 7746, 10098, 13362, 52421], "recwords": ["pecan", "robot", "carrott", "crab", "virus", "pecan"], "type": "FREE_RECALL", "conditions": [12, 1600, "v", 24000], "trial": 2, "trial_type": "free-recall", "trial_index": 103, "time_elapsed": 562710, "internal_node_id": "0.0-76.0-0.0"}}, {"uniqueid": "MTK0528:3PS7W85Z809NS76G7W679HN30PH9TN", "current_trial": 104, "dateTime": 1511200722872, "trialdata": {"rt": 1158, "key_press": 32, "type": "INSTRUCTIONS", "trial_type": "text", "trial_index": 104, "time_elapsed": 565875, "internal_node_id": "0.0-77.0"}}, {"uniqueid": "MTK0528:3PS7W85Z809NS76G7W679HN30PH9TN", "current_trial": 105, "dateTime": 1511200748874, "trialdata": {"rt": [2591, 4599, 8193, 11304, 13296, 15896, 17400, 19088, 21168, 23649], "responses": ["16", "8", "14", "17", "16", "17", "8", "11", "11", "16"], "num1": [6, 5, 3, 4, 5, 7, 1, 5, 6, 4, 1], "num2": [6, 1, 4, 3, 5, 1, 3, 4, 1, 5, 7], "num3": [4, 2, 7, 9, 6, 9, 4, 2, 4, 7, 5], "type": "DISTRACTOR", "conditions": [24, 1600, "a", 24000], "trial": 3, "trial_type": "math-distractor", "trial_index": 105, "time_elapsed": 591877, "internal_node_id": "0.0-78.0"}}, {"uniqueid": "MTK0528:3PS7W85Z809NS76G7W679HN30PH9TN", "current_trial": 106, "dateTime": 1511200751875, "trialdata": {"rt": -1, "stimulus": "<p id=\"stim\">10</p>", "key_press": -1, "trial_type": "single-stim", "trial_index": 106, "time_elapsed": 594878, "internal_node_id": "0.0-79.0-0.0"}}, {"uniqueid": "MTK0528:3PS7W85Z809NS76G7W679HN30PH9TN", "current_trial": 107, "dateTime": 1511200752876, "trialdata": {"rt": -1, "stimulus": "<p id=\"stim\">9</p>", "key_press": -1, "trial_type": "single-stim", "trial_index": 107, "time_elapsed": 595879, "internal_node_id": "0.0-79.0-1.0"}}, {"uniqueid": "MTK0528:3PS7W85Z809NS76G7W679HN30PH9TN", "current_trial": 108, "dateTime": 1511200753878, "trialdata": {"rt": -1, "stimulus": "<p id=\"stim\">8</p>", "key_press": -1, "trial_type": "single-stim", "trial_index": 108, "time_elapsed": 596881, "internal_node_id": "0.0-79.0-2.0"}}, {"uniqueid": "MTK0528:3PS7W85Z809NS76G7W679HN30PH9TN", "current_trial": 109, "dateTime": 1511200754879, "trialdata": {"rt": -1, "stimulus": "<p id=\"stim\">7</p>", "key_press": -1, "trial_type": "single-stim", "trial_index": 109, "time_elapsed": 597882, "internal_node_id": "0.0-79.0-3.0"}}, {"uniqueid": "MTK0528:3PS7W85Z809NS76G7W679HN30PH9TN", "current_trial": 110, "dateTime": 1511200755880, "trialdata": {"rt": -1, "stimulus": "<p id=\"stim\">6</p>", "key_press": -1, "trial_type": "single-stim", "trial_index": 110, "time_elapsed": 598883, "internal_node_id": "0.0-79.0-4.0"}}, {"uniqueid": "MTK0528:3PS7W85Z809NS76G7W679HN30PH9TN", "current_trial": 111, "dateTime": 1511200756882, "trialdata": {"rt": -1, "stimulus": "<p id=\"stim\">5</p>", "key_press": -1, "trial_type": "single-stim", "trial_index": 111, "time_elapsed": 599885, "internal_node_id": "0.0-79.0-5.0"}}, {"uniqueid": "MTK0528:3PS7W85Z809NS76G7W679HN30PH9TN", "current_trial": 112, "dateTime": 1511200757883, "trialdata": {"rt": -1, "stimulus": "<p id=\"stim\">4</p>", "key_press": -1, "trial_type": "single-stim", "trial_index": 112, "time_elapsed": 600886, "internal_node_id": "0.0-79.0-6.0"}}, {"uniqueid": "MTK0528:3PS7W85Z809NS76G7W679HN30PH9TN", "current_trial": 113, "dateTime": 1511200758883, "trialdata": {"rt": -1, "stimulus": "<p id=\"stim\">3</p>", "key_press": -1, "trial_type": "single-stim", "trial_index": 113, "time_elapsed": 601886, "internal_node_id": "0.0-79.0-7.0"}}, {"uniqueid": "MTK0528:3PS7W85Z809NS76G7W679HN30PH9TN", "current_trial": 114, "dateTime": 1511200759884, "trialdata": {"rt": -1, "stimulus": "<p id=\"stim\">2</p>", "key_press": -1, "trial_type": "single-stim", "trial_index": 114, "time_elapsed": 602887, "internal_node_id": "0.0-79.0-8.0"}}, {"uniqueid": "MTK0528:3PS7W85Z809NS76G7W679HN30PH9TN", "current_trial": 115, "dateTime": 1511200760886, "trialdata": {"rt": -1, "stimulus": "<p id=\"stim\">1</p>", "key_press": -1, "trial_type": "single-stim", "trial_index": 115, "time_elapsed": 603889, "internal_node_id": "0.0-79.0-9.0"}}, {"uniqueid": "MTK0528:3PS7W85Z809NS76G7W679HN30PH9TN", "current_trial": 116, "dateTime": 1511200762387, "trialdata": {"rt": -1, "stimulus": "<p id=\"stim\">+</p>", "key_press": -1, "type": "FIXATION", "trial_type": "single-stim", "trial_index": 116, "time_elapsed": 605390, "internal_node_id": "0.0-80.0-0.0"}}, {"uniqueid": "MTK0528:3PS7W85Z809NS76G7W679HN30PH9TN", "current_trial": 117, "dateTime": 1511200764949, "trialdata": {"rt": -1000, "stimulus": "/static/audio/wordpool/MONSTER.wav", "key_press": -1, "type": "PRES_AUD", "word": "monster", "wordID": 911, "conditions": [24, 1600, "a", 24000], "trial": 3, "serialpos": 0, "trial_type": "single-audio", "trial_index": 117, "time_elapsed": 607951, "internal_node_id": "0.0-81.0"}}, {"uniqueid": "MTK0528:3PS7W85Z809NS76G7W679HN30PH9TN", "current_trial": 118, "dateTime": 1511200767641, "trialdata": {"rt": -1000, "stimulus": "/static/audio/wordpool/COCOON.wav", "key_press": -1, "type": "PRES_AUD", "word": "cocoon", "wordID": 338, "conditions": [24, 1600, "a", 24000], "trial": 3, "serialpos": 1, "trial_type": "single-audio", "trial_index": 118, "time_elapsed": 610644, "internal_node_id": "0.0-82.0"}}, {"uniqueid": "MTK0528:3PS7W85Z809NS76G7W679HN30PH9TN", "current_trial": 119, "dateTime": 1511200770428, "trialdata": {"rt": -1000, "stimulus": "/static/audio/wordpool/BANQUET.wav", "key_press": -1, "type": "PRES_AUD", "word": "banquet", "wordID": 85, "conditions": [24, 1600, "a", 24000], "trial": 3, "serialpos": 2, "trial_type": "single-audio", "trial_index": 119, "time_elapsed": 613430, "internal_node_id": "0.0-83.0"}}, {"uniqueid": "MTK0528:3PS7W85Z809NS76G7W679HN30PH9TN", "current_trial": 120, "dateTime": 1511200773135, "trialdata": {"rt": -1000, "stimulus": "/static/audio/wordpool/MARKER.wav", "key_press": -1, "type": "PRES_AUD", "word": "marker", "wordID": 869, "conditions": [24, 1600, "a", 24000], "trial": 3, "serialpos": 3, "trial_type": "single-audio", "trial_index": 120, "time_elapsed": 616133, "internal_node_id": "0.0-84.0"}}, {"uniqueid": "MTK0528:3PS7W85Z809NS76G7W679HN30PH9TN", "current_trial": 121, "dateTime": 1511200775824, "trialdata": {"rt": -1000, "stimulus": "/static/audio/wordpool/ORANGE.wav", "key_press": -1, "type": "PRES_AUD", "word": "orange", "wordID": 979, "conditions": [24, 1600, "a", 24000], "trial": 3, "serialpos": 4, "trial_type": "single-audio", "trial_index": 121, "time_elapsed": 618826, "internal_node_id": "0.0-85.0"}}, {"uniqueid": "MTK0528:3PS7W85Z809NS76G7W679HN30PH9TN", "current_trial": 122, "dateTime": 1511200778485, "trialdata": {"rt": -1000, "stimulus": "/static/audio/wordpool/CHIPMUNK.wav", "key_press": -1, "type": "PRES_AUD", "word": "chipmunk", "wordID": 303, "conditions": [24, 1600, "a", 24000], "trial": 3, "serialpos": 5, "trial_type": "single-audio", "trial_index": 122, "time_elapsed": 621487, "internal_node_id": "0.0-86.0"}}, {"uniqueid": "MTK0528:3PS7W85Z809NS76G7W679HN30PH9TN", "current_trial": 123, "dateTime": 1511200781278, "trialdata": {"rt": -1000, "stimulus": "/static/audio/wordpool/SUPPER.wav", "key_press": -1, "type": "PRES_AUD", "word": "supper", "wordID": 1410, "conditions": [24, 1600, "a", 24000], "trial": 3, "serialpos": 6, "trial_type": "single-audio", "trial_index": 123, "time_elapsed": 624281, "internal_node_id": "0.0-87.0"}}, {"uniqueid": "MTK0528:3PS7W85Z809NS76G7W679HN30PH9TN", "current_trial": 124, "dateTime": 1511200783943, "trialdata": {"rt": -1000, "stimulus": "/static/audio/wordpool/POCKET.wav", "key_press": -1, "type": "PRES_AUD", "word": "pocket", "wordID": 1092, "conditions": [24, 1600, "a", 24000], "trial": 3, "serialpos": 7, "trial_type": "single-audio", "trial_index": 124, "time_elapsed": 626945, "internal_node_id": "0.0-88.0"}}, {"uniqueid": "MTK0528:3PS7W85Z809NS76G7W679HN30PH9TN", "current_trial": 125, "dateTime": 1511200786610, "trialdata": {"rt": -1000, "stimulus": "/static/audio/wordpool/PADDING.wav", "key_press": -1, "type": "PRES_AUD", "word": "padding", "wordID": 998, "conditions": [24, 1600, "a", 24000], "trial": 3, "serialpos": 8, "trial_type": "single-audio", "trial_index": 125, "time_elapsed": 629612, "internal_node_id": "0.0-89.0"}}, {"uniqueid": "MTK0528:3PS7W85Z809NS76G7W679HN30PH9TN", "current_trial": 126, "dateTime": 1511200789340, "trialdata": {"rt": -1000, "stimulus": "/static/audio/wordpool/PIMPLE.wav", "key_press": -1, "type": "PRES_AUD", "word": "pimple", "wordID": 1070, "conditions": [24, 1600, "a", 24000], "trial": 3, "serialpos": 9, "trial_type": "single-audio", "trial_index": 126, "time_elapsed": 632343, "internal_node_id": "0.0-90.0"}}, {"uniqueid": "MTK0528:3PS7W85Z809NS76G7W679HN30PH9TN", "current_trial": 127, "dateTime": 1511200791764, "trialdata": {"rt": -1000, "stimulus": "/static/audio/wordpool/FRECKLE.wav", "key_press": -1, "type": "PRES_AUD", "word": "freckle", "wordID": 601, "conditions": [24, 1600, "a", 24000], "trial": 3, "serialpos": 10, "trial_type": "single-audio", "trial_index": 127, "time_elapsed": 634767, "internal_node_id": "0.0-91.0"}}, {"uniqueid": "MTK0528:3PS7W85Z809NS76G7W679HN30PH9TN", "current_trial": 128, "dateTime": 1511200794479, "trialdata": {"rt": -1000, "stimulus": "/static/audio/wordpool/BABY.wav", "key_press": -1, "type": "PRES_AUD", "word": "baby", "wordID": 63, "conditions": [24, 1600, "a", 24000], "trial": 3, "serialpos": 11, "trial_type": "single-audio", "trial_index": 128, "time_elapsed": 637481, "internal_node_id": "0.0-92.0"}}, {"uniqueid": "MTK0528:3PS7W85Z809NS76G7W679HN30PH9TN", "current_trial": 129, "dateTime": 1511200797187, "trialdata": {"rt": -1000, "stimulus": "/static/audio/wordpool/APPLE.wav", "key_press": -1, "type": "PRES_AUD", "word": "apple", "wordID": 32, "conditions": [24, 1600, "a", 24000], "trial": 3, "serialpos": 12, "trial_type": "single-audio", "trial_index": 129, "time_elapsed": 640190, "internal_node_id": "0.0-93.0"}}, {"uniqueid": "MTK0528:3PS7W85Z809NS76G7W679HN30PH9TN", "current_trial": 130, "dateTime": 1511200799758, "trialdata": {"rt": -1000, "stimulus": "/static/audio/wordpool/TABLET.wav", "key_press": -1, "type": "PRES_AUD", "word": "tablet", "wordID": 1426, "conditions": [24, 1600, "a", 24000], "trial": 3, "serialpos": 13, "trial_type": "single-audio", "trial_index": 130, "time_elapsed": 642761, "internal_node_id": "0.0-94.0"}}, {"uniqueid": "MTK0528:3PS7W85Z809NS76G7W679HN30PH9TN", "current_trial": 131, "dateTime": 1511200802512, "trialdata": {"rt": -1000, "stimulus": "/static/audio/wordpool/PREACHER.wav", "key_press": -1, "type": "PRES_AUD", "word": "preacher", "wordID": 1118, "conditions": [24, 1600, "a", 24000], "trial": 3, "serialpos": 14, "trial_type": "single-audio", "trial_index": 131, "time_elapsed": 645514, "internal_node_id": "0.0-95.0"}}, {"uniqueid": "MTK0528:3PS7W85Z809NS76G7W679HN30PH9TN", "current_trial": 132, "dateTime": 1511200805245, "trialdata": {"rt": -1000, "stimulus": "/static/audio/wordpool/BEAST.wav", "key_press": -1, "type": "PRES_AUD", "word": "beast", "wordID": 107, "conditions": [24, 1600, "a", 24000], "trial": 3, "serialpos": 15, "trial_type": "single-audio", "trial_index": 132, "time_elapsed": 648248, "internal_node_id": "0.0-96.0"}}, {"uniqueid": "MTK0528:3PS7W85Z809NS76G7W679HN30PH9TN", "current_trial": 133, "dateTime": 1511200807876, "trialdata": {"rt": -1000, "stimulus": "/static/audio/wordpool/ULCER.wav", "key_press": -1, "type": "PRES_AUD", "word": "ulcer", "wordID": 1532, "conditions": [24, 1600, "a", 24000], "trial": 3, "serialpos": 16, "trial_type": "single-audio", "trial_index": 133, "time_elapsed": 650878, "internal_node_id": "0.0-97.0"}}, {"uniqueid": "MTK0528:3PS7W85Z809NS76G7W679HN30PH9TN", "current_trial": 134, "dateTime": 1511200810298, "trialdata": {"rt": -1000, "stimulus": "/static/audio/wordpool/SWIMMER.wav", "key_press": -1, "type": "PRES_AUD", "word": "swimmer", "wordID": 1419, "conditions": [24, 1600, "a", 24000], "trial": 3, "serialpos": 17, "trial_type": "single-audio", "trial_index": 134, "time_elapsed": 653300, "internal_node_id": "0.0-98.0"}}, {"uniqueid": "MTK0528:3PS7W85Z809NS76G7W679HN30PH9TN", "current_trial": 135, "dateTime": 1511200812711, "trialdata": {"rt": -1000, "stimulus": "/static/audio/wordpool/INFANT.wav", "key_press": -1, "type": "PRES_AUD", "word": "infant", "wordID": 736, "conditions": [24, 1600, "a", 24000], "trial": 3, "serialpos": 18, "trial_type": "single-audio", "trial_index": 135, "time_elapsed": 655713, "internal_node_id": "0.0-99.0"}}, {"uniqueid": "MTK0528:3PS7W85Z809NS76G7W679HN30PH9TN", "current_trial": 136, "dateTime": 1511200815380, "trialdata": {"rt": -1000, "stimulus": "/static/audio/wordpool/MAMMAL.wav", "key_press": -1, "type": "PRES_AUD", "word": "mammal", "wordID": 860, "conditions": [24, 1600, "a", 24000], "trial": 3, "serialpos": 19, "trial_type": "single-audio", "trial_index": 136, "time_elapsed": 658383, "internal_node_id": "0.0-100.0"}}, {"uniqueid": "MTK0528:3PS7W85Z809NS76G7W679HN30PH9TN", "current_trial": 137, "dateTime": 1511200818146, "trialdata": {"rt": -1000, "stimulus": "/static/audio/wordpool/PRIMATE.wav", "key_press": -1, "type": "PRES_AUD", "word": "primate", "wordID": 1122, "conditions": [24, 1600, "a", 24000], "trial": 3, "serialpos": 20, "trial_type": "single-audio", "trial_index": 137, "time_elapsed": 661149, "internal_node_id": "0.0-101.0"}}, {"uniqueid": "MTK0528:3PS7W85Z809NS76G7W679HN30PH9TN", "current_trial": 138, "dateTime": 1511200820693, "trialdata": {"rt": -1000, "stimulus": "/static/audio/wordpool/ROBIN.wav", "key_press": -1, "type": "PRES_AUD", "word": "robin", "wordID": 1198, "conditions": [24, 1600, "a", 24000], "trial": 3, "serialpos": 21, "trial_type": "single-audio", "trial_index": 138, "time_elapsed": 663695, "internal_node_id": "0.0-102.0"}}, {"uniqueid": "MTK0528:3PS7W85Z809NS76G7W679HN30PH9TN", "current_trial": 139, "dateTime": 1511200823285, "trialdata": {"rt": -1000, "stimulus": "/static/audio/wordpool/CHILD.wav", "key_press": -1, "type": "PRES_AUD", "word": "child", "wordID": 298, "conditions": [24, 1600, "a", 24000], "trial": 3, "serialpos": 22, "trial_type": "single-audio", "trial_index": 139, "time_elapsed": 666288, "internal_node_id": "0.0-103.0"}}, {"uniqueid": "MTK0528:3PS7W85Z809NS76G7W679HN30PH9TN", "current_trial": 140, "dateTime": 1511200825974, "trialdata": {"rt": -1000, "stimulus": "/static/audio/wordpool/TUBA.wav", "key_press": -1, "type": "PRES_AUD", "word": "tuba", "wordID": 1514, "conditions": [24, 1600, "a", 24000], "trial": 3, "serialpos": 23, "trial_type": "single-audio", "trial_index": 140, "time_elapsed": 668976, "internal_node_id": "0.0-104.0"}}, {"uniqueid": "MTK0528:3PS7W85Z809NS76G7W679HN30PH9TN", "current_trial": 141, "dateTime": 1511200827183, "trialdata": {"rt": -1, "stimulus": "", "key_press": -1, "type": "PRE_RECALL_DELAY", "trial_type": "single-stim", "trial_index": 141, "time_elapsed": 670186, "internal_node_id": "0.0-105.0-0.0"}}, {"uniqueid": "MTK0528:3PS7W85Z809NS76G7W679HN30PH9TN", "current_trial": 142, "dateTime": 1511200827686, "trialdata": {"rt": -1000, "stimulus": "/static/audio/400Hz.wav", "key_press": -1, "type": "PRE_RECALL_ALERT", "trial_type": "single-audio", "trial_index": 142, "time_elapsed": 670688, "internal_node_id": "0.0-106.0"}}, {"uniqueid": "MTK0528:3PS7W85Z809NS76G7W679HN30PH9TN", "current_trial": 143, "dateTime": 1511200887700, "trialdata": {"rt": [2894, 4854, 8159, 10975, 14175, 15879, 22007, 44866], "recwords": ["tuba", "mammall", "primate", "robin", "child", "monster", "infant", "virus"], "type": "FREE_RECALL", "conditions": [24, 1600, "a", 24000], "trial": 3, "trial_type": "free-recall", "trial_index": 143, "time_elapsed": 730696, "internal_node_id": "0.0-107.0-0.0"}}, {"uniqueid": "MTK0528:3PS7W85Z809NS76G7W679HN30PH9TN", "current_trial": 144, "dateTime": 1511200894711, "trialdata": {"rt": 5010, "key_press": 32, "type": "INSTRUCTIONS", "trial_type": "text", "trial_index": 144, "time_elapsed": 737714, "internal_node_id": "0.0-108.0"}}, {"uniqueid": "MTK0528:3PS7W85Z809NS76G7W679HN30PH9TN", "current_trial": 145, "dateTime": 1511200908714, "trialdata": {"rt": [4380, 6700, 9277, 11141], "responses": ["17", "20", "10", "18"], "num1": [5, 5, 3, 7, 9], "num2": [4, 7, 3, 2, 8], "num3": [8, 8, 4, 8, 6], "type": "DISTRACTOR", "conditions": [24, 1600, "a", 12000], "trial": 4, "trial_type": "math-distractor", "trial_index": 145, "time_elapsed": 751717, "internal_node_id": "0.0-109.0"}}, {"uniqueid": "MTK0528:3PS7W85Z809NS76G7W679HN30PH9TN", "current_trial": 146, "dateTime": 1511200911716, "trialdata": {"rt": -1, "stimulus": "<p id=\"stim\">10</p>", "key_press": -1, "trial_type": "single-stim", "trial_index": 146, "time_elapsed": 754719, "internal_node_id": "0.0-110.0-0.0"}}, {"uniqueid": "MTK0528:3PS7W85Z809NS76G7W679HN30PH9TN", "current_trial": 147, "dateTime": 1511200912717, "trialdata": {"rt": -1, "stimulus": "<p id=\"stim\">9</p>", "key_press": -1, "trial_type": "single-stim", "trial_index": 147, "time_elapsed": 755720, "internal_node_id": "0.0-110.0-1.0"}}, {"uniqueid": "MTK0528:3PS7W85Z809NS76G7W679HN30PH9TN", "current_trial": 148, "dateTime": 1511200913719, "trialdata": {"rt": -1, "stimulus": "<p id=\"stim\">8</p>", "key_press": -1, "trial_type": "single-stim", "trial_index": 148, "time_elapsed": 756722, "internal_node_id": "0.0-110.0-2.0"}}, {"uniqueid": "MTK0528:3PS7W85Z809NS76G7W679HN30PH9TN", "current_trial": 149, "dateTime": 1511200914721, "trialdata": {"rt": -1, "stimulus": "<p id=\"stim\">7</p>", "key_press": -1, "trial_type": "single-stim", "trial_index": 149, "time_elapsed": 757724, "internal_node_id": "0.0-110.0-3.0"}}, {"uniqueid": "MTK0528:3PS7W85Z809NS76G7W679HN30PH9TN", "current_trial": 150, "dateTime": 1511200915723, "trialdata": {"rt": -1, "stimulus": "<p id=\"stim\">6</p>", "key_press": -1, "trial_type": "single-stim", "trial_index": 150, "time_elapsed": 758726, "internal_node_id": "0.0-110.0-4.0"}}, {"uniqueid": "MTK0528:3PS7W85Z809NS76G7W679HN30PH9TN", "current_trial": 151, "dateTime": 1511200916724, "trialdata": {"rt": -1, "stimulus": "<p id=\"stim\">5</p>", "key_press": -1, "trial_type": "single-stim", "trial_index": 151, "time_elapsed": 759727, "internal_node_id": "0.0-110.0-5.0"}}, {"uniqueid": "MTK0528:3PS7W85Z809NS76G7W679HN30PH9TN", "current_trial": 152, "dateTime": 1511200917725, "trialdata": {"rt": -1, "stimulus": "<p id=\"stim\">4</p>", "key_press": -1, "trial_type": "single-stim", "trial_index": 152, "time_elapsed": 760728, "internal_node_id": "0.0-110.0-6.0"}}, {"uniqueid": "MTK0528:3PS7W85Z809NS76G7W679HN30PH9TN", "current_trial": 153, "dateTime": 1511200918727, "trialdata": {"rt": -1, "stimulus": "<p id=\"stim\">3</p>", "key_press": -1, "trial_type": "single-stim", "trial_index": 153, "time_elapsed": 761730, "internal_node_id": "0.0-110.0-7.0"}}, {"uniqueid": "MTK0528:3PS7W85Z809NS76G7W679HN30PH9TN", "current_trial": 154, "dateTime": 1511200919728, "trialdata": {"rt": -1, "stimulus": "<p id=\"stim\">2</p>", "key_press": -1, "trial_type": "single-stim", "trial_index": 154, "time_elapsed": 762731, "internal_node_id": "0.0-110.0-8.0"}}, {"uniqueid": "MTK0528:3PS7W85Z809NS76G7W679HN30PH9TN", "current_trial": 155, "dateTime": 1511200920730, "trialdata": {"rt": -1, "stimulus": "<p id=\"stim\">1</p>", "key_press": -1, "trial_type": "single-stim", "trial_index": 155, "time_elapsed": 763733, "internal_node_id": "0.0-110.0-9.0"}}, {"uniqueid": "MTK0528:3PS7W85Z809NS76G7W679HN30PH9TN", "current_trial": 156, "dateTime": 1511200922232, "trialdata": {"rt": -1, "stimulus": "<p id=\"stim\">+</p>", "key_press": -1, "type": "FIXATION", "trial_type": "single-stim", "trial_index": 156, "time_elapsed": 765235, "internal_node_id": "0.0-111.0-0.0"}}, {"uniqueid": "MTK0528:3PS7W85Z809NS76G7W679HN30PH9TN", "current_trial": 157, "dateTime": 1511200924981, "trialdata": {"rt": -1000, "stimulus": "/static/audio/wordpool/PEBBLE.wav", "key_press": -1, "type": "PRES_AUD", "word": "pebble", "wordID": 1034, "conditions": [24, 1600, "a", 12000], "trial": 4, "serialpos": 0, "trial_type": "single-audio", "trial_index": 157, "time_elapsed": 767983, "internal_node_id": "0.0-112.0"}}, {"uniqueid": "MTK0528:3PS7W85Z809NS76G7W679HN30PH9TN", "current_trial": 158, "dateTime": 1511200927598, "trialdata": {"rt": -1000, "stimulus": "/static/audio/wordpool/UNCLE.wav", "key_press": -1, "type": "PRES_AUD", "word": "uncle", "wordID": 1535, "conditions": [24, 1600, "a", 12000], "trial": 4, "serialpos": 1, "trial_type": "single-audio", "trial_index": 158, "time_elapsed": 770601, "internal_node_id": "0.0-113.0"}}, {"uniqueid": "MTK0528:3PS7W85Z809NS76G7W679HN30PH9TN", "current_trial": 159, "dateTime": 1511200930352, "trialdata": {"rt": -1000, "stimulus": "/static/audio/wordpool/MUSTARD.wav", "key_press": -1, "type": "PRES_AUD", "word": "mustard", "wordID": 934, "conditions": [24, 1600, "a", 12000], "trial": 4, "serialpos": 2, "trial_type": "single-audio", "trial_index": 159, "time_elapsed": 773354, "internal_node_id": "0.0-114.0"}}, {"uniqueid": "MTK0528:3PS7W85Z809NS76G7W679HN30PH9TN", "current_trial": 160, "dateTime": 1511200932881, "trialdata": {"rt": -1000, "stimulus": "/static/audio/wordpool/SOFTBALL.wav", "key_press": -1, "type": "PRES_AUD", "word": "softball", "wordID": 1342, "conditions": [24, 1600, "a", 12000], "trial": 4, "serialpos": 3, "trial_type": "single-audio", "trial_index": 160, "time_elapsed": 775884, "internal_node_id": "0.0-115.0"}}, {"uniqueid": "MTK0528:3PS7W85Z809NS76G7W679HN30PH9TN", "current_trial": 161, "dateTime": 1511200935513, "trialdata": {"rt": -1000, "stimulus": "/static/audio/wordpool/SWORD.wav", "key_press": -1, "type": "PRES_AUD", "word": "sword", "wordID": 1422, "conditions": [24, 1600, "a", 12000], "trial": 4, "serialpos": 4, "trial_type": "single-audio", "trial_index": 161, "time_elapsed": 778516, "internal_node_id": "0.0-116.0"}}, {"uniqueid": "MTK0528:3PS7W85Z809NS76G7W679HN30PH9TN", "current_trial": 162, "dateTime": 1511200938133, "trialdata": {"rt": -1000, "stimulus": "/static/audio/wordpool/CRAYON.wav", "key_press": -1, "type": "PRES_AUD", "word": "crayon", "wordID": 400, "conditions": [24, 1600, "a", 12000], "trial": 4, "serialpos": 5, "trial_type": "single-audio", "trial_index": 162, "time_elapsed": 781136, "internal_node_id": "0.0-117.0"}}, {"uniqueid": "MTK0528:3PS7W85Z809NS76G7W679HN30PH9TN", "current_trial": 163, "dateTime": 1511200940661, "trialdata": {"rt": -1000, "stimulus": "/static/audio/wordpool/STOMACH.wav", "key_press": -1, "type": "PRES_AUD", "word": "stomach", "wordID": 1383, "conditions": [24, 1600, "a", 12000], "trial": 4, "serialpos": 6, "trial_type": "single-audio", "trial_index": 163, "time_elapsed": 783663, "internal_node_id": "0.0-118.0"}}, {"uniqueid": "MTK0528:3PS7W85Z809NS76G7W679HN30PH9TN", "current_trial": 164, "dateTime": 1511200943142, "trialdata": {"rt": -1000, "stimulus": "/static/audio/wordpool/KNIFE.wav", "key_press": -1, "type": "PRES_AUD", "word": "knife", "wordID": 784, "conditions": [24, 1600, "a", 12000], "trial": 4, "serialpos": 7, "trial_type": "single-audio", "trial_index": 164, "time_elapsed": 786145, "internal_node_id": "0.0-119.0"}}, {"uniqueid": "MTK0528:3PS7W85Z809NS76G7W679HN30PH9TN", "current_trial": 165, "dateTime": 1511200945917, "trialdata": {"rt": -1000, "stimulus": "/static/audio/wordpool/SHARK.wav", "key_press": -1, "type": "PRES_AUD", "word": "shark", "wordID": 1274, "conditions": [24, 1600, "a", 12000], "trial": 4, "serialpos": 8, "trial_type": "single-audio", "trial_index": 165, "time_elapsed": 788920, "internal_node_id": "0.0-120.0"}}, {"uniqueid": "MTK0528:3PS7W85Z809NS76G7W679HN30PH9TN", "current_trial": 166, "dateTime": 1511200948613, "trialdata": {"rt": -1000, "stimulus": "/static/audio/wordpool/TURTLE.wav", "key_press": -1, "type": "PRES_AUD", "word": "turtle", "wordID": 1521, "conditions": [24, 1600, "a", 12000], "trial": 4, "serialpos": 9, "trial_type": "single-audio", "trial_index": 166, "time_elapsed": 791616, "internal_node_id": "0.0-121.0"}}, {"uniqueid": "MTK0528:3PS7W85Z809NS76G7W679HN30PH9TN", "current_trial": 167, "dateTime": 1511200951069, "trialdata": {"rt": -1000, "stimulus": "/static/audio/wordpool/PISTOL.wav", "key_press": -1, "type": "PRES_AUD", "word": "pistol", "wordID": 1074, "conditions": [24, 1600, "a", 12000], "trial": 4, "serialpos": 10, "trial_type": "single-audio", "trial_index": 167, "time_elapsed": 794071, "internal_node_id": "0.0-122.0"}}, {"uniqueid": "MTK0528:3PS7W85Z809NS76G7W679HN30PH9TN", "current_trial": 168, "dateTime": 1511200953669, "trialdata": {"rt": -1000, "stimulus": "/static/audio/wordpool/AIRPLANE.wav", "key_press": -1, "type": "PRES_AUD", "word": "airplane", "wordID": 11, "conditions": [24, 1600, "a", 12000], "trial": 4, "serialpos": 11, "trial_type": "single-audio", "trial_index": 168, "time_elapsed": 796672, "internal_node_id": "0.0-123.0"}}, {"uniqueid": "MTK0528:3PS7W85Z809NS76G7W679HN30PH9TN", "current_trial": 169, "dateTime": 1511200956171, "trialdata": {"rt": -1000, "stimulus": "/static/audio/wordpool/DIVER.wav", "key_press": -1, "type": "PRES_AUD", "word": "diver", "wordID": 475, "conditions": [24, 1600, "a", 12000], "trial": 4, "serialpos": 12, "trial_type": "single-audio", "trial_index": 169, "time_elapsed": 799173, "internal_node_id": "0.0-124.0"}}, {"uniqueid": "MTK0528:3PS7W85Z809NS76G7W679HN30PH9TN", "current_trial": 170, "dateTime": 1511200958883, "trialdata": {"rt": -1000, "stimulus": "/static/audio/wordpool/CLOTHES.wav", "key_press": -1, "type": "PRES_AUD", "word": "clothes", "wordID": 326, "conditions": [24, 1600, "a", 12000], "trial": 4, "serialpos": 13, "trial_type": "single-audio", "trial_index": 170, "time_elapsed": 801885, "internal_node_id": "0.0-125.0"}}, {"uniqueid": "MTK0528:3PS7W85Z809NS76G7W679HN30PH9TN", "current_trial": 171, "dateTime": 1511200961616, "trialdata": {"rt": -1000, "stimulus": "/static/audio/wordpool/GIFT.wav", "key_press": -1, "type": "PRES_AUD", "word": "gift", "wordID": 634, "conditions": [24, 1600, "a", 12000], "trial": 4, "serialpos": 14, "trial_type": "single-audio", "trial_index": 171, "time_elapsed": 804619, "internal_node_id": "0.0-126.0"}}, {"uniqueid": "MTK0528:3PS7W85Z809NS76G7W679HN30PH9TN", "current_trial": 172, "dateTime": 1511200964393, "trialdata": {"rt": -1000, "stimulus": "/static/audio/wordpool/LADY.wav", "key_press": -1, "type": "PRES_AUD", "word": "lady", "wordID": 793, "conditions": [24, 1600, "a", 12000], "trial": 4, "serialpos": 15, "trial_type": "single-audio", "trial_index": 172, "time_elapsed": 807396, "internal_node_id": "0.0-127.0"}}, {"uniqueid": "MTK0528:3PS7W85Z809NS76G7W679HN30PH9TN", "current_trial": 173, "dateTime": 1511200966916, "trialdata": {"rt": -1000, "stimulus": "/static/audio/wordpool/CLIMBER.wav", "key_press": -1, "type": "PRES_AUD", "word": "climber", "wordID": 322, "conditions": [24, 1600, "a", 12000], "trial": 4, "serialpos": 16, "trial_type": "single-audio", "trial_index": 173, "time_elapsed": 809918, "internal_node_id": "0.0-128.0"}}, {"uniqueid": "MTK0528:3PS7W85Z809NS76G7W679HN30PH9TN", "current_trial": 174, "dateTime": 1511200969634, "trialdata": {"rt": -1000, "stimulus": "/static/audio/wordpool/DORM.wav", "key_press": -1, "type": "PRES_AUD", "word": "dorm", "wordID": 487, "conditions": [24, 1600, "a", 12000], "trial": 4, "serialpos": 17, "trial_type": "single-audio", "trial_index": 174, "time_elapsed": 812637, "internal_node_id": "0.0-129.0"}}, {"uniqueid": "MTK0528:3PS7W85Z809NS76G7W679HN30PH9TN", "current_trial": 175, "dateTime": 1511200972168, "trialdata": {"rt": -1000, "stimulus": "/static/audio/wordpool/MAPLE.wav", "key_press": -1, "type": "PRES_AUD", "word": "maple", "wordID": 865, "conditions": [24, 1600, "a", 12000], "trial": 4, "serialpos": 18, "trial_type": "single-audio", "trial_index": 175, "time_elapsed": 815170, "internal_node_id": "0.0-130.0"}}, {"uniqueid": "MTK0528:3PS7W85Z809NS76G7W679HN30PH9TN", "current_trial": 176, "dateTime": 1511200974850, "trialdata": {"rt": -1000, "stimulus": "/static/audio/wordpool/JOURNAL.wav", "key_press": -1, "type": "PRES_AUD", "word": "journal", "wordID": 759, "conditions": [24, 1600, "a", 12000], "trial": 4, "serialpos": 19, "trial_type": "single-audio", "trial_index": 176, "time_elapsed": 817852, "internal_node_id": "0.0-131.0"}}, {"uniqueid": "MTK0528:3PS7W85Z809NS76G7W679HN30PH9TN", "current_trial": 177, "dateTime": 1511200977334, "trialdata": {"rt": -1000, "stimulus": "/static/audio/wordpool/TEMPLE.wav", "key_press": -1, "type": "PRES_AUD", "word": "temple", "wordID": 1447, "conditions": [24, 1600, "a", 12000], "trial": 4, "serialpos": 20, "trial_type": "single-audio", "trial_index": 177, "time_elapsed": 820337, "internal_node_id": "0.0-132.0"}}, {"uniqueid": "MTK0528:3PS7W85Z809NS76G7W679HN30PH9TN", "current_trial": 178, "dateTime": 1511200979773, "trialdata": {"rt": -1000, "stimulus": "/static/audio/wordpool/BLOUSE.wav", "key_press": -1, "type": "PRES_AUD", "word": "blouse", "wordID": 138, "conditions": [24, 1600, "a", 12000], "trial": 4, "serialpos": 21, "trial_type": "single-audio", "trial_index": 178, "time_elapsed": 822776, "internal_node_id": "0.0-133.0"}}, {"uniqueid": "MTK0528:3PS7W85Z809NS76G7W679HN30PH9TN", "current_trial": 179, "dateTime": 1511200982393, "trialdata": {"rt": -1000, "stimulus": "/static/audio/wordpool/NIGHTGOWN.wav", "key_press": -1, "type": "PRES_AUD", "word": "nightgown", "wordID": 952, "conditions": [24, 1600, "a", 12000], "trial": 4, "serialpos": 22, "trial_type": "single-audio", "trial_index": 179, "time_elapsed": 825395, "internal_node_id": "0.0-134.0"}}, {"uniqueid": "MTK0528:3PS7W85Z809NS76G7W679HN30PH9TN", "current_trial": 180, "dateTime": 1511200985170, "trialdata": {"rt": -1000, "stimulus": "/static/audio/wordpool/HIKER.wav", "key_press": -1, "type": "PRES_AUD", "word": "hiker", "wordID": 707, "conditions": [24, 1600, "a", 12000], "trial": 4, "serialpos": 23, "trial_type": "single-audio", "trial_index": 180, "time_elapsed": 828173, "internal_node_id": "0.0-135.0"}}, {"uniqueid": "MTK0528:3PS7W85Z809NS76G7W679HN30PH9TN", "current_trial": 181, "dateTime": 1511200986462, "trialdata": {"rt": -1, "stimulus": "", "key_press": -1, "type": "PRE_RECALL_DELAY", "trial_type": "single-stim", "trial_index": 181, "time_elapsed": 829465, "internal_node_id": "0.0-136.0-0.0"}}, {"uniqueid": "MTK0528:3PS7W85Z809NS76G7W679HN30PH9TN", "current_trial": 182, "dateTime": 1511200986962, "trialdata": {"rt": -1000, "stimulus": "/static/audio/400Hz.wav", "key_press": -1, "type": "PRE_RECALL_ALERT", "trial_type": "single-audio", "trial_index": 182, "time_elapsed": 829965, "internal_node_id": "0.0-137.0"}}, {"uniqueid": "MTK0528:3PS7W85Z809NS76G7W679HN30PH9TN", "current_trial": 183, "dateTime": 1511201046975, "trialdata": {"rt": [3269, 5061, 6846, 8462, 12726, 15238, 18735, 32545], "recwords": ["temple", "blouse", "nightgown", "hiker", "journal", "pebble", "lady", "monster"], "type": "FREE_RECALL", "conditions": [24, 1600, "a", 12000], "trial": 4, "trial_type": "free-recall", "trial_index": 183, "time_elapsed": 889970, "internal_node_id": "0.0-138.0-0.0"}}, {"uniqueid": "MTK0528:3PS7W85Z809NS76G7W679HN30PH9TN", "current_trial": 184, "dateTime": 1511201049762, "trialdata": {"rt": 785, "key_press": 32, "type": "INSTRUCTIONS", "trial_type": "text", "trial_index": 184, "time_elapsed": 892765, "internal_node_id": "0.0-139.0"}}, {"uniqueid": "MTK0528:3PS7W85Z809NS76G7W679HN30PH9TN", "current_trial": 185, "dateTime": 1511201075764, "trialdata": {"rt": [2452, 4484, 7276, 10204, 12284, 15804, 18340, 20123, 22852], "responses": ["17", "16", "14", "17", "7", "15", "11", "13", "17"], "num1": [5, 6, 9, 5, 4, 4, 2, 3, 9, 2], "num2": [4, 5, 2, 3, 1, 4, 6, 6, 4, 3], "num3": [8, 5, 3, 9, 2, 7, 3, 4, 4, 9], "type": "DISTRACTOR", "conditions": [12, 1600, "a", 24000], "trial": 5, "trial_type": "math-distractor", "trial_index": 185, "time_elapsed": 918767, "internal_node_id": "0.0-140.0"}}, {"uniqueid": "MTK0528:3PS7W85Z809NS76G7W679HN30PH9TN", "current_trial": 186, "dateTime": 1511201078766, "trialdata": {"rt": -1, "stimulus": "<p id=\"stim\">10</p>", "key_press": -1, "trial_type": "single-stim", "trial_index": 186, "time_elapsed": 921769, "internal_node_id": "0.0-141.0-0.0"}}, {"uniqueid": "MTK0528:3PS7W85Z809NS76G7W679HN30PH9TN", "current_trial": 187, "dateTime": 1511201079767, "trialdata": {"rt": -1, "stimulus": "<p id=\"stim\">9</p>", "key_press": -1, "trial_type": "single-stim", "trial_index": 187, "time_elapsed": 922770, "internal_node_id": "0.0-141.0-1.0"}}, {"uniqueid": "MTK0528:3PS7W85Z809NS76G7W679HN30PH9TN", "current_trial": 188, "dateTime": 1511201080769, "trialdata": {"rt": -1, "stimulus": "<p id=\"stim\">8</p>", "key_press": -1, "trial_type": "single-stim", "trial_index": 188, "time_elapsed": 923772, "internal_node_id": "0.0-141.0-2.0"}}, {"uniqueid": "MTK0528:3PS7W85Z809NS76G7W679HN30PH9TN", "current_trial": 189, "dateTime": 1511201081771, "trialdata": {"rt": -1, "stimulus": "<p id=\"stim\">7</p>", "key_press": -1, "trial_type": "single-stim", "trial_index": 189, "time_elapsed": 924774, "internal_node_id": "0.0-141.0-3.0"}}, {"uniqueid": "MTK0528:3PS7W85Z809NS76G7W679HN30PH9TN", "current_trial": 190, "dateTime": 1511201082773, "trialdata": {"rt": -1, "stimulus": "<p id=\"stim\">6</p>", "key_press": -1, "trial_type": "single-stim", "trial_index": 190, "time_elapsed": 925776, "internal_node_id": "0.0-141.0-4.0"}}, {"uniqueid": "MTK0528:3PS7W85Z809NS76G7W679HN30PH9TN", "current_trial": 191, "dateTime": 1511201083775, "trialdata": {"rt": -1, "stimulus": "<p id=\"stim\">5</p>", "key_press": -1, "trial_type": "single-stim", "trial_index": 191, "time_elapsed": 926778, "internal_node_id": "0.0-141.0-5.0"}}, {"uniqueid": "MTK0528:3PS7W85Z809NS76G7W679HN30PH9TN", "current_trial": 192, "dateTime": 1511201084777, "trialdata": {"rt": -1, "stimulus": "<p id=\"stim\">4</p>", "key_press": -1, "trial_type": "single-stim", "trial_index": 192, "time_elapsed": 927780, "internal_node_id": "0.0-141.0-6.0"}}, {"uniqueid": "MTK0528:3PS7W85Z809NS76G7W679HN30PH9TN", "current_trial": 193, "dateTime": 1511201085778, "trialdata": {"rt": -1, "stimulus": "<p id=\"stim\">3</p>", "key_press": -1, "trial_type": "single-stim", "trial_index": 193, "time_elapsed": 928781, "internal_node_id": "0.0-141.0-7.0"}}, {"uniqueid": "MTK0528:3PS7W85Z809NS76G7W679HN30PH9TN", "current_trial": 194, "dateTime": 1511201086779, "trialdata": {"rt": -1, "stimulus": "<p id=\"stim\">2</p>", "key_press": -1, "trial_type": "single-stim", "trial_index": 194, "time_elapsed": 929782, "internal_node_id": "0.0-141.0-8.0"}}, {"uniqueid": "MTK0528:3PS7W85Z809NS76G7W679HN30PH9TN", "current_trial": 195, "dateTime": 1511201087780, "trialdata": {"rt": -1, "stimulus": "<p id=\"stim\">1</p>", "key_press": -1, "trial_type": "single-stim", "trial_index": 195, "time_elapsed": 930783, "internal_node_id": "0.0-141.0-9.0"}}, {"uniqueid": "MTK0528:3PS7W85Z809NS76G7W679HN30PH9TN", "current_trial": 196, "dateTime": 1511201089282, "trialdata": {"rt": -1, "stimulus": "<p id=\"stim\">+</p>", "key_press": -1, "type": "FIXATION", "trial_type": "single-stim", "trial_index": 196, "time_elapsed": 932285, "internal_node_id": "0.0-142.0-0.0"}}, {"uniqueid": "MTK0528:3PS7W85Z809NS76G7W679HN30PH9TN", "current_trial": 197, "dateTime": 1511201091685, "trialdata": {"rt": -1000, "stimulus": "/static/audio/wordpool/MILDEW.wav", "key_press": -1, "type": "PRES_AUD", "word": "mildew", "wordID": 892, "conditions": [12, 1600, "a", 24000], "trial": 5, "serialpos": 0, "trial_type": "single-audio", "trial_index": 197, "time_elapsed": 934688, "internal_node_id": "0.0-143.0"}}, {"uniqueid": "MTK0528:3PS7W85Z809NS76G7W679HN30PH9TN", "current_trial": 198, "dateTime": 1511201094222, "trialdata": {"rt": -1000, "stimulus": "/static/audio/wordpool/DRUG.wav", "key_press": -1, "type": "PRES_AUD", "word": "drug", "wordID": 500, "conditions": [12, 1600, "a", 24000], "trial": 5, "serialpos": 1, "trial_type": "single-audio", "trial_index": 198, "time_elapsed": 937224, "internal_node_id": "0.0-144.0"}}, {"uniqueid": "MTK0528:3PS7W85Z809NS76G7W679HN30PH9TN", "current_trial": 199, "dateTime": 1511201096809, "trialdata": {"rt": -1000, "stimulus": "/static/audio/wordpool/WOMAN.wav", "key_press": -1, "type": "PRES_AUD", "word": "woman", "wordID": 1619, "conditions": [12, 1600, "a", 24000], "trial": 5, "serialpos": 2, "trial_type": "single-audio", "trial_index": 199, "time_elapsed": 939812, "internal_node_id": "0.0-145.0"}}, {"uniqueid": "MTK0528:3PS7W85Z809NS76G7W679HN30PH9TN", "current_trial": 200, "dateTime": 1511201099224, "trialdata": {"rt": -1000, "stimulus": "/static/audio/wordpool/SPOOL.wav", "key_press": -1, "type": "PRES_AUD", "word": "spool", "wordID": 1355, "conditions": [12, 1600, "a", 24000], "trial": 5, "serialpos": 3, "trial_type": "single-audio", "trial_index": 200, "time_elapsed": 942227, "internal_node_id": "0.0-146.0"}}, {"uniqueid": "MTK0528:3PS7W85Z809NS76G7W679HN30PH9TN", "current_trial": 201, "dateTime": 1511201101634, "trialdata": {"rt": -1000, "stimulus": "/static/audio/wordpool/WIDOW.wav", "key_press": -1, "type": "PRES_AUD", "word": "widow", "wordID": 1607, "conditions": [12, 1600, "a", 24000], "trial": 5, "serialpos": 4, "trial_type": "single-audio", "trial_index": 201, "time_elapsed": 944637, "internal_node_id": "0.0-147.0"}}, {"uniqueid": "MTK0528:3PS7W85Z809NS76G7W679HN30PH9TN", "current_trial": 202, "dateTime": 1511201104275, "trialdata": {"rt": -1000, "stimulus": "/static/audio/wordpool/NURSE.wav", "key_press": -1, "type": "PRES_AUD", "word": "nurse", "wordID": 962, "conditions": [12, 1600, "a", 24000], "trial": 5, "serialpos": 5, "trial_type": "single-audio", "trial_index": 202, "time_elapsed": 947277, "internal_node_id": "0.0-148.0"}}, {"uniqueid": "MTK0528:3PS7W85Z809NS76G7W679HN30PH9TN", "current_trial": 203, "dateTime": 1511201106677, "trialdata": {"rt": -1000, "stimulus": "/static/audio/wordpool/GANGSTER.wav", "key_press": -1, "type": "PRES_AUD", "word": "gangster", "wordID": 619, "conditions": [12, 1600, "a", 24000], "trial": 5, "serialpos": 6, "trial_type": "single-audio", "trial_index": 203, "time_elapsed": 949680, "internal_node_id": "0.0-149.0"}}, {"uniqueid": "MTK0528:3PS7W85Z809NS76G7W679HN30PH9TN", "current_trial": 204, "dateTime": 1511201109260, "trialdata": {"rt": -1000, "stimulus": "/static/audio/wordpool/PLAZA.wav", "key_press": -1, "type": "PRES_AUD", "word": "plaza", "wordID": 1087, "conditions": [12, 1600, "a", 24000], "trial": 5, "serialpos": 7, "trial_type": "single-audio", "trial_index": 204, "time_elapsed": 952263, "internal_node_id": "0.0-150.0"}}, {"uniqueid": "MTK0528:3PS7W85Z809NS76G7W679HN30PH9TN", "current_trial": 205, "dateTime": 1511201112050, "trialdata": {"rt": -1000, "stimulus": "/static/audio/wordpool/SCULPTURE.wav", "key_press": -1, "type": "PRES_AUD", "word": "sculpture", "wordID": 1257, "conditions": [12, 1600, "a", 24000], "trial": 5, "serialpos": 8, "trial_type": "single-audio", "trial_index": 205, "time_elapsed": 955053, "internal_node_id": "0.0-151.0"}}, {"uniqueid": "MTK0528:3PS7W85Z809NS76G7W679HN30PH9TN", "current_trial": 206, "dateTime": 1511201114698, "trialdata": {"rt": -1000, "stimulus": "/static/audio/wordpool/GIRL.wav", "key_press": -1, "type": "PRES_AUD", "word": "girl", "wordID": 636, "conditions": [12, 1600, "a", 24000], "trial": 5, "serialpos": 9, "trial_type": "single-audio", "trial_index": 206, "time_elapsed": 957700, "internal_node_id": "0.0-152.0"}}, {"uniqueid": "MTK0528:3PS7W85Z809NS76G7W679HN30PH9TN", "current_trial": 207, "dateTime": 1511201117273, "trialdata": {"rt": -1000, "stimulus": "/static/audio/wordpool/SNACK.wav", "key_press": -1, "type": "PRES_AUD", "word": "snack", "wordID": 1330, "conditions": [12, 1600, "a", 24000], "trial": 5, "serialpos": 10, "trial_type": "single-audio", "trial_index": 207, "time_elapsed": 960276, "internal_node_id": "0.0-153.0"}}, {"uniqueid": "MTK0528:3PS7W85Z809NS76G7W679HN30PH9TN", "current_trial": 208, "dateTime": 1511201119751, "trialdata": {"rt": -1000, "stimulus": "/static/audio/wordpool/LUNCH.wav", "key_press": -1, "type": "PRES_AUD", "word": "lunch", "wordID": 848, "conditions": [12, 1600, "a", 24000], "trial": 5, "serialpos": 11, "trial_type": "single-audio", "trial_index": 208, "time_elapsed": 962754, "internal_node_id": "0.0-154.0"}}, {"uniqueid": "MTK0528:3PS7W85Z809NS76G7W679HN30PH9TN", "current_trial": 209, "dateTime": 1511201121084, "trialdata": {"rt": -1, "stimulus": "", "key_press": -1, "type": "PRE_RECALL_DELAY", "trial_type": "single-stim", "trial_index": 209, "time_elapsed": 964087, "internal_node_id": "0.0-155.0-0.0"}}, {"uniqueid": "MTK0528:3PS7W85Z809NS76G7W679HN30PH9TN", "current_trial": 210, "dateTime": 1511201121586, "trialdata": {"rt": -1000, "stimulus": "/static/audio/400Hz.wav", "key_press": -1, "type": "PRE_RECALL_ALERT", "trial_type": "single-audio", "trial_index": 210, "time_elapsed": 964589, "internal_node_id": "0.0-156.0"}}, {"uniqueid": "MTK0528:3PS7W85Z809NS76G7W679HN30PH9TN", "current_trial": 211, "dateTime": 1511201181606, "trialdata": {"rt": [3223, 4431, 5887, 7286, 10383, 14599, 17256, 28257, 57106], "recwords": ["snack", "lunch", "plaza", "girl", "gangster", "nurse", "woman", "girl", "dry"], "type": "FREE_RECALL", "conditions": [12, 1600, "a", 24000], "trial": 5, "trial_type": "free-recall", "trial_index": 211, "time_elapsed": 1024595, "internal_node_id": "0.0-157.0-0.0"}}, {"uniqueid": "MTK0528:3PS7W85Z809NS76G7W679HN30PH9TN", "current_trial": 212, "dateTime": 1511201187779, "trialdata": {"rt": 4172, "key_press": 32, "type": "INSTRUCTIONS", "trial_type": "text", "trial_index": 212, "time_elapsed": 1030782, "internal_node_id": "0.0-158.0"}}, {"uniqueid": "MTK0528:3PS7W85Z809NS76G7W679HN30PH9TN", "current_trial": 213, "dateTime": 1511201201783, "trialdata": {"rt": [1837, 4613, 6165, 10916], "responses": ["9", "21", "6", "21"], "num1": [4, 8, 4, 8, 6], "num2": [3, 5, 1, 6, 7], "num3": [2, 8, 1, 7, 4], "type": "DISTRACTOR", "conditions": [24, 800, "a", 12000], "trial": 6, "trial_type": "math-distractor", "trial_index": 213, "time_elapsed": 1044785, "internal_node_id": "0.0-159.0"}}, {"uniqueid": "MTK0528:3PS7W85Z809NS76G7W679HN30PH9TN", "current_trial": 214, "dateTime": 1511201204784, "trialdata": {"rt": -1, "stimulus": "<p id=\"stim\">10</p>", "key_press": -1, "trial_type": "single-stim", "trial_index": 214, "time_elapsed": 1047787, "internal_node_id": "0.0-160.0-0.0"}}, {"uniqueid": "MTK0528:3PS7W85Z809NS76G7W679HN30PH9TN", "current_trial": 215, "dateTime": 1511201205786, "trialdata": {"rt": -1, "stimulus": "<p id=\"stim\">9</p>", "key_press": -1, "trial_type": "single-stim", "trial_index": 215, "time_elapsed": 1048789, "internal_node_id": "0.0-160.0-1.0"}}, {"uniqueid": "MTK0528:3PS7W85Z809NS76G7W679HN30PH9TN", "current_trial": 216, "dateTime": 1511201206787, "trialdata": {"rt": -1, "stimulus": "<p id=\"stim\">8</p>", "key_press": -1, "trial_type": "single-stim", "trial_index": 216, "time_elapsed": 1049790, "internal_node_id": "0.0-160.0-2.0"}}, {"uniqueid": "MTK0528:3PS7W85Z809NS76G7W679HN30PH9TN", "current_trial": 217, "dateTime": 1511201207788, "trialdata": {"rt": -1, "stimulus": "<p id=\"stim\">7</p>", "key_press": -1, "trial_type": "single-stim", "trial_index": 217, "time_elapsed": 1050791, "internal_node_id": "0.0-160.0-3.0"}}, {"uniqueid": "MTK0528:3PS7W85Z809NS76G7W679HN30PH9TN", "current_trial": 218, "dateTime": 1511201208790, "trialdata": {"rt": -1, "stimulus": "<p id=\"stim\">6</p>", "key_press": -1, "trial_type": "single-stim", "trial_index": 218, "time_elapsed": 1051793, "internal_node_id": "0.0-160.0-4.0"}}, {"uniqueid": "MTK0528:3PS7W85Z809NS76G7W679HN30PH9TN", "current_trial": 219, "dateTime": 1511201209791, "trialdata": {"rt": -1, "stimulus": "<p id=\"stim\">5</p>", "key_press": -1, "trial_type": "single-stim", "trial_index": 219, "time_elapsed": 1052794, "internal_node_id": "0.0-160.0-5.0"}}, {"uniqueid": "MTK0528:3PS7W85Z809NS76G7W679HN30PH9TN", "current_trial": 220, "dateTime": 1511201210793, "trialdata": {"rt": -1, "stimulus": "<p id=\"stim\">4</p>", "key_press": -1, "trial_type": "single-stim", "trial_index": 220, "time_elapsed": 1053796, "internal_node_id": "0.0-160.0-6.0"}}, {"uniqueid": "MTK0528:3PS7W85Z809NS76G7W679HN30PH9TN", "current_trial": 221, "dateTime": 1511201211794, "trialdata": {"rt": -1, "stimulus": "<p id=\"stim\">3</p>", "key_press": -1, "trial_type": "single-stim", "trial_index": 221, "time_elapsed": 1054797, "internal_node_id": "0.0-160.0-7.0"}}, {"uniqueid": "MTK0528:3PS7W85Z809NS76G7W679HN30PH9TN", "current_trial": 222, "dateTime": 1511201212796, "trialdata": {"rt": -1, "stimulus": "<p id=\"stim\">2</p>", "key_press": -1, "trial_type": "single-stim", "trial_index": 222, "time_elapsed": 1055799, "internal_node_id": "0.0-160.0-8.0"}}, {"uniqueid": "MTK0528:3PS7W85Z809NS76G7W679HN30PH9TN", "current_trial": 223, "dateTime": 1511201213798, "trialdata": {"rt": -1, "stimulus": "<p id=\"stim\">1</p>", "key_press": -1, "trial_type": "single-stim", "trial_index": 223, "time_elapsed": 1056801, "internal_node_id": "0.0-160.0-9.0"}}, {"uniqueid": "MTK0528:3PS7W85Z809NS76G7W679HN30PH9TN", "current_trial": 224, "dateTime": 1511201215300, "trialdata": {"rt": -1, "stimulus": "<p id=\"stim\">+</p>", "key_press": -1, "type": "FIXATION", "trial_type": "single-stim", "trial_index": 224, "time_elapsed": 1058303, "internal_node_id": "0.0-161.0-0.0"}}, {"uniqueid": "MTK0528:3PS7W85Z809NS76G7W679HN30PH9TN", "current_trial": 225, "dateTime": 1511201216907, "trialdata": {"rt": -1000, "stimulus": "/static/audio/wordpool/LEG.wav", "key_press": -1, "type": "PRES_AUD", "word": "leg", "wordID": 808, "conditions": [24, 800, "a", 12000], "trial": 6, "serialpos": 0, "trial_type": "single-audio", "trial_index": 225, "time_elapsed": 1059909, "internal_node_id": "0.0-162.0"}}, {"uniqueid": "MTK0528:3PS7W85Z809NS76G7W679HN30PH9TN", "current_trial": 226, "dateTime": 1511201218786, "trialdata": {"rt": -1000, "stimulus": "/static/audio/wordpool/ANKLE.wav", "key_press": -1, "type": "PRES_AUD", "word": "ankle", "wordID": 23, "conditions": [24, 800, "a", 12000], "trial": 6, "serialpos": 1, "trial_type": "single-audio", "trial_index": 226, "time_elapsed": 1061789, "internal_node_id": "0.0-163.0"}}, {"uniqueid": "MTK0528:3PS7W85Z809NS76G7W679HN30PH9TN", "current_trial": 227, "dateTime": 1511201220761, "trialdata": {"rt": -1000, "stimulus": "/static/audio/wordpool/DAISY.wav", "key_press": -1, "type": "PRES_AUD", "word": "daisy", "wordID": 434, "conditions": [24, 800, "a", 12000], "trial": 6, "serialpos": 2, "trial_type": "single-audio", "trial_index": 227, "time_elapsed": 1063764, "internal_node_id": "0.0-164.0"}}, {"uniqueid": "MTK0528:3PS7W85Z809NS76G7W679HN30PH9TN", "current_trial": 228, "dateTime": 1511201222635, "trialdata": {"rt": -1000, "stimulus": "/static/audio/wordpool/DENTIST.wav", "key_press": -1, "type": "PRES_AUD", "word": "dentist", "wordID": 446, "conditions": [24, 800, "a", 12000], "trial": 6, "serialpos": 3, "trial_type": "single-audio", "trial_index": 228, "time_elapsed": 1065637, "internal_node_id": "0.0-165.0"}}, {"uniqueid": "MTK0528:3PS7W85Z809NS76G7W679HN30PH9TN", "current_trial": 229, "dateTime": 1511201224557, "trialdata": {"rt": -1000, "stimulus": "/static/audio/wordpool/SISTER.wav", "key_press": -1, "type": "PRES_AUD", "word": "sister", "wordID": 1311, "conditions": [24, 800, "a", 12000], "trial": 6, "serialpos": 4, "trial_type": "single-audio", "trial_index": 229, "time_elapsed": 1067560, "internal_node_id": "0.0-166.0"}}, {"uniqueid": "MTK0528:3PS7W85Z809NS76G7W679HN30PH9TN", "current_trial": 230, "dateTime": 1511201226195, "trialdata": {"rt": -1000, "stimulus": "/static/audio/wordpool/DANCER.wav", "key_press": -1, "type": "PRES_AUD", "word": "dancer", "wordID": 436, "conditions": [24, 800, "a", 12000], "trial": 6, "serialpos": 5, "trial_type": "single-audio", "trial_index": 230, "time_elapsed": 1069198, "internal_node_id": "0.0-167.0"}}, {"uniqueid": "MTK0528:3PS7W85Z809NS76G7W679HN30PH9TN", "current_trial": 231, "dateTime": 1511201227819, "trialdata": {"rt": -1000, "stimulus": "/static/audio/wordpool/ACTRESS.wav", "key_press": -1, "type": "PRES_AUD", "word": "actress", "wordID": 5, "conditions": [24, 800, "a", 12000], "trial": 6, "serialpos": 6, "trial_type": "single-audio", "trial_index": 231, "time_elapsed": 1070822, "internal_node_id": "0.0-168.0"}}, {"uniqueid": "MTK0528:3PS7W85Z809NS76G7W679HN30PH9TN", "current_trial": 232, "dateTime": 1511201229624, "trialdata": {"rt": -1000, "stimulus": "/static/audio/wordpool/QUEEN.wav", "key_press": -1, "type": "PRES_AUD", "word": "queen", "wordID": 1148, "conditions": [24, 800, "a", 12000], "trial": 6, "serialpos": 7, "trial_type": "single-audio", "trial_index": 232, "time_elapsed": 1072627, "internal_node_id": "0.0-169.0"}}, {"uniqueid": "MTK0528:3PS7W85Z809NS76G7W679HN30PH9TN", "current_trial": 233, "dateTime": 1511201231288, "trialdata": {"rt": -1000, "stimulus": "/static/audio/wordpool/MARS.wav", "key_press": -1, "type": "PRES_AUD", "word": "mars", "wordID": 872, "conditions": [24, 800, "a", 12000], "trial": 6, "serialpos": 8, "trial_type": "single-audio", "trial_index": 233, "time_elapsed": 1074291, "internal_node_id": "0.0-170.0"}}, {"uniqueid": "MTK0528:3PS7W85Z809NS76G7W679HN30PH9TN", "current_trial": 234, "dateTime": 1511201233283, "trialdata": {"rt": -1000, "stimulus": "/static/audio/wordpool/TUNNEL.wav", "key_press": -1, "type": "PRES_AUD", "word": "tunnel", "wordID": 1518, "conditions": [24, 800, "a", 12000], "trial": 6, "serialpos": 9, "trial_type": "single-audio", "trial_index": 234, "time_elapsed": 1076286, "internal_node_id": "0.0-171.0"}}, {"uniqueid": "MTK0528:3PS7W85Z809NS76G7W679HN30PH9TN", "current_trial": 235, "dateTime": 1511201234918, "trialdata": {"rt": -1000, "stimulus": "/static/audio/wordpool/CRITIC.wav", "key_press": -1, "type": "PRES_AUD", "word": "critic", "wordID": 409, "conditions": [24, 800, "a", 12000], "trial": 6, "serialpos": 10, "trial_type": "single-audio", "trial_index": 235, "time_elapsed": 1077921, "internal_node_id": "0.0-172.0"}}, {"uniqueid": "MTK0528:3PS7W85Z809NS76G7W679HN30PH9TN", "current_trial": 236, "dateTime": 1511201236841, "trialdata": {"rt": -1000, "stimulus": "/static/audio/wordpool/LILY.wav", "key_press": -1, "type": "PRES_AUD", "word": "lily", "wordID": 820, "conditions": [24, 800, "a", 12000], "trial": 6, "serialpos": 11, "trial_type": "single-audio", "trial_index": 236, "time_elapsed": 1079843, "internal_node_id": "0.0-173.0"}}, {"uniqueid": "MTK0528:3PS7W85Z809NS76G7W679HN30PH9TN", "current_trial": 237, "dateTime": 1511201238574, "trialdata": {"rt": -1000, "stimulus": "/static/audio/wordpool/CURTAIN.wav", "key_press": -1, "type": "PRES_AUD", "word": "curtain", "wordID": 426, "conditions": [24, 800, "a", 12000], "trial": 6, "serialpos": 12, "trial_type": "single-audio", "trial_index": 237, "time_elapsed": 1081577, "internal_node_id": "0.0-174.0"}}, {"uniqueid": "MTK0528:3PS7W85Z809NS76G7W679HN30PH9TN", "current_trial": 238, "dateTime": 1511201240561, "trialdata": {"rt": -1000, "stimulus": "/static/audio/wordpool/THIEF.wav", "key_press": -1, "type": "PRES_AUD", "word": "thief", "wordID": 1455, "conditions": [24, 800, "a", 12000], "trial": 6, "serialpos": 13, "trial_type": "single-audio", "trial_index": 238, "time_elapsed": 1083563, "internal_node_id": "0.0-175.0"}}, {"uniqueid": "MTK0528:3PS7W85Z809NS76G7W679HN30PH9TN", "current_trial": 239, "dateTime": 1511201242293, "trialdata": {"rt": -1000, "stimulus": "/static/audio/wordpool/DENIM.wav", "key_press": -1, "type": "PRES_AUD", "word": "denim", "wordID": 445, "conditions": [24, 800, "a", 12000], "trial": 6, "serialpos": 14, "trial_type": "single-audio", "trial_index": 239, "time_elapsed": 1085295, "internal_node_id": "0.0-176.0"}}, {"uniqueid": "MTK0528:3PS7W85Z809NS76G7W679HN30PH9TN", "current_trial": 240, "dateTime": 1511201243937, "trialdata": {"rt": -1000, "stimulus": "/static/audio/wordpool/SEAL.wav", "key_press": -1, "type": "PRES_AUD", "word": "seal", "wordID": 1261, "conditions": [24, 800, "a", 12000], "trial": 6, "serialpos": 15, "trial_type": "single-audio", "trial_index": 240, "time_elapsed": 1086939, "internal_node_id": "0.0-177.0"}}, {"uniqueid": "MTK0528:3PS7W85Z809NS76G7W679HN30PH9TN", "current_trial": 241, "dateTime": 1511201245678, "trialdata": {"rt": -1000, "stimulus": "/static/audio/wordpool/TWEEZERS.wav", "key_press": -1, "type": "PRES_AUD", "word": "tweezers", "wordID": 1525, "conditions": [24, 800, "a", 12000], "trial": 6, "serialpos": 16, "trial_type": "single-audio", "trial_index": 241, "time_elapsed": 1088681, "internal_node_id": "0.0-178.0"}}, {"uniqueid": "MTK0528:3PS7W85Z809NS76G7W679HN30PH9TN", "current_trial": 242, "dateTime": 1511201247509, "trialdata": {"rt": -1000, "stimulus": "/static/audio/wordpool/BANK.wav", "key_press": -1, "type": "PRES_AUD", "word": "bank", "wordID": 82, "conditions": [24, 800, "a", 12000], "trial": 6, "serialpos": 17, "trial_type": "single-audio", "trial_index": 242, "time_elapsed": 1090512, "internal_node_id": "0.0-179.0"}}, {"uniqueid": "MTK0528:3PS7W85Z809NS76G7W679HN30PH9TN", "current_trial": 243, "dateTime": 1511201249127, "trialdata": {"rt": -1000, "stimulus": "/static/audio/wordpool/ANTLER.wav", "key_press": -1, "type": "PRES_AUD", "word": "antler", "wordID": 28, "conditions": [24, 800, "a", 12000], "trial": 6, "serialpos": 18, "trial_type": "single-audio", "trial_index": 243, "time_elapsed": 1092130, "internal_node_id": "0.0-180.0"}}, {"uniqueid": "MTK0528:3PS7W85Z809NS76G7W679HN30PH9TN", "current_trial": 244, "dateTime": 1511201251095, "trialdata": {"rt": -1000, "stimulus": "/static/audio/wordpool/ROD.wav", "key_press": -1, "type": "PRES_AUD", "word": "rod", "wordID": 1202, "conditions": [24, 800, "a", 12000], "trial": 6, "serialpos": 19, "trial_type": "single-audio", "trial_index": 244, "time_elapsed": 1094097, "internal_node_id": "0.0-181.0"}}, {"uniqueid": "MTK0528:3PS7W85Z809NS76G7W679HN30PH9TN", "current_trial": 245, "dateTime": 1511201252974, "trialdata": {"rt": -1000, "stimulus": "/static/audio/wordpool/CRICKET.wav", "key_press": -1, "type": "PRES_AUD", "word": "cricket", "wordID": 407, "conditions": [24, 800, "a", 12000], "trial": 6, "serialpos": 20, "trial_type": "single-audio", "trial_index": 245, "time_elapsed": 1095977, "internal_node_id": "0.0-182.0"}}, {"uniqueid": "MTK0528:3PS7W85Z809NS76G7W679HN30PH9TN", "current_trial": 246, "dateTime": 1511201254675, "trialdata": {"rt": -1000, "stimulus": "/static/audio/wordpool/LUGGAGE.wav", "key_press": -1, "type": "PRES_AUD", "word": "luggage", "wordID": 846, "conditions": [24, 800, "a", 12000], "trial": 6, "serialpos": 21, "trial_type": "single-audio", "trial_index": 246, "time_elapsed": 1097678, "internal_node_id": "0.0-183.0"}}, {"uniqueid": "MTK0528:3PS7W85Z809NS76G7W679HN30PH9TN", "current_trial": 247, "dateTime": 1511201256445, "trialdata": {"rt": -1000, "stimulus": "/static/audio/wordpool/SUITCASE.wav", "key_press": -1, "type": "PRES_AUD", "word": "suitcase", "wordID": 1402, "conditions": [24, 800, "a", 12000], "trial": 6, "serialpos": 22, "trial_type": "single-audio", "trial_index": 247, "time_elapsed": 1099447, "internal_node_id": "0.0-184.0"}}, {"uniqueid": "MTK0528:3PS7W85Z809NS76G7W679HN30PH9TN", "current_trial": 248, "dateTime": 1511201258320, "trialdata": {"rt": -1000, "stimulus": "/static/audio/wordpool/PLAID.wav", "key_press": -1, "type": "PRES_AUD", "word": "plaid", "wordID": 1079, "conditions": [24, 800, "a", 12000], "trial": 6, "serialpos": 23, "trial_type": "single-audio", "trial_index": 248, "time_elapsed": 1101319, "internal_node_id": "0.0-185.0"}}, {"uniqueid": "MTK0528:3PS7W85Z809NS76G7W679HN30PH9TN", "current_trial": 249, "dateTime": 1511201259568, "trialdata": {"rt": -1, "stimulus": "", "key_press": -1, "type": "PRE_RECALL_DELAY", "trial_type": "single-stim", "trial_index": 249, "time_elapsed": 1102571, "internal_node_id": "0.0-186.0-0.0"}}, {"uniqueid": "MTK0528:3PS7W85Z809NS76G7W679HN30PH9TN", "current_trial": 250, "dateTime": 1511201260070, "trialdata": {"rt": -1000, "stimulus": "/static/audio/400Hz.wav", "key_press": -1, "type": "PRE_RECALL_ALERT", "trial_type": "single-audio", "trial_index": 250, "time_elapsed": 1103073, "internal_node_id": "0.0-187.0"}}, {"uniqueid": "MTK0528:3PS7W85Z809NS76G7W679HN30PH9TN", "current_trial": 251, "dateTime": 1511201320087, "trialdata": {"rt": [2277, 3996, 5469, 7765, 12486, 14342, 15822, 24046, 28958, 35575], "recwords": ["cricket", "luggage", "suitcase", "plad", "dancer", "sister", "dentist", "daisy", "mars", "leg"], "type": "FREE_RECALL", "conditions": [24, 800, "a", 12000], "trial": 6, "trial_type": "free-recall", "trial_index": 251, "time_elapsed": 1163079, "internal_node_id": "0.0-188.0-0.0"}}, {"uniqueid": "MTK0528:3PS7W85Z809NS76G7W679HN30PH9TN", "current_trial": 252, "dateTime": 1511201322989, "trialdata": {"rt": 900, "key_press": 32, "type": "INSTRUCTIONS", "trial_type": "text", "trial_index": 252, "time_elapsed": 1165991, "internal_node_id": "0.0-189.0"}}, {"uniqueid": "MTK0528:3PS7W85Z809NS76G7W679HN30PH9TN", "current_trial": 253, "dateTime": 1511201336992, "trialdata": {"rt": [2484, 5084, 6836, 9884, 11525], "responses": ["15", "7", "9", "24", "8"], "num1": [3, 3, 1, 8, 1, 4], "num2": [6, 3, 1, 5, 5, 7], "num3": [3, 1, 7, 9, 2, 2], "type": "DISTRACTOR", "conditions": [12, 1600, "v", 12000], "trial": 7, "trial_type": "math-distractor", "trial_index": 253, "time_elapsed": 1179995, "internal_node_id": "0.0-190.0"}}, {"uniqueid": "MTK0528:3PS7W85Z809NS76G7W679HN30PH9TN", "current_trial": 254, "dateTime": 1511201339994, "trialdata": {"rt": -1, "stimulus": "<p id=\"stim\">10</p>", "key_press": -1, "trial_type": "single-stim", "trial_index": 254, "time_elapsed": 1182997, "internal_node_id": "0.0-191.0-0.0"}}, {"uniqueid": "MTK0528:3PS7W85Z809NS76G7W679HN30PH9TN", "current_trial": 255, "dateTime": 1511201340995, "trialdata": {"rt": -1, "stimulus": "<p id=\"stim\">9</p>", "key_press": -1, "trial_type": "single-stim", "trial_index": 255, "time_elapsed": 1183998, "internal_node_id": "0.0-191.0-1.0"}}, {"uniqueid": "MTK0528:3PS7W85Z809NS76G7W679HN30PH9TN", "current_trial": 256, "dateTime": 1511201341996, "trialdata": {"rt": -1, "stimulus": "<p id=\"stim\">8</p>", "key_press": -1, "trial_type": "single-stim", "trial_index": 256, "time_elapsed": 1184999, "internal_node_id": "0.0-191.0-2.0"}}, {"uniqueid": "MTK0528:3PS7W85Z809NS76G7W679HN30PH9TN", "current_trial": 257, "dateTime": 1511201342997, "trialdata": {"rt": -1, "stimulus": "<p id=\"stim\">7</p>", "key_press": -1, "trial_type": "single-stim", "trial_index": 257, "time_elapsed": 1186000, "internal_node_id": "0.0-191.0-3.0"}}, {"uniqueid": "MTK0528:3PS7W85Z809NS76G7W679HN30PH9TN", "current_trial": 258, "dateTime": 1511201343999, "trialdata": {"rt": -1, "stimulus": "<p id=\"stim\">6</p>", "key_press": -1, "trial_type": "single-stim", "trial_index": 258, "time_elapsed": 1187002, "internal_node_id": "0.0-191.0-4.0"}}, {"uniqueid": "MTK0528:3PS7W85Z809NS76G7W679HN30PH9TN", "current_trial": 259, "dateTime": 1511201345001, "trialdata": {"rt": -1, "stimulus": "<p id=\"stim\">5</p>", "key_press": -1, "trial_type": "single-stim", "trial_index": 259, "time_elapsed": 1188004, "internal_node_id": "0.0-191.0-5.0"}}, {"uniqueid": "MTK0528:3PS7W85Z809NS76G7W679HN30PH9TN", "current_trial": 260, "dateTime": 1511201346002, "trialdata": {"rt": -1, "stimulus": "<p id=\"stim\">4</p>", "key_press": -1, "trial_type": "single-stim", "trial_index": 260, "time_elapsed": 1189005, "internal_node_id": "0.0-191.0-6.0"}}, {"uniqueid": "MTK0528:3PS7W85Z809NS76G7W679HN30PH9TN", "current_trial": 261, "dateTime": 1511201347003, "trialdata": {"rt": -1, "stimulus": "<p id=\"stim\">3</p>", "key_press": -1, "trial_type": "single-stim", "trial_index": 261, "time_elapsed": 1190006, "internal_node_id": "0.0-191.0-7.0"}}, {"uniqueid": "MTK0528:3PS7W85Z809NS76G7W679HN30PH9TN", "current_trial": 262, "dateTime": 1511201348005, "trialdata": {"rt": -1, "stimulus": "<p id=\"stim\">2</p>", "key_press": -1, "trial_type": "single-stim", "trial_index": 262, "time_elapsed": 1191008, "internal_node_id": "0.0-191.0-8.0"}}, {"uniqueid": "MTK0528:3PS7W85Z809NS76G7W679HN30PH9TN", "current_trial": 263, "dateTime": 1511201349012, "trialdata": {"rt": -1, "stimulus": "<p id=\"stim\">1</p>", "key_press": -1, "trial_type": "single-stim", "trial_index": 263, "time_elapsed": 1192010, "internal_node_id": "0.0-191.0-9.0"}}, {"uniqueid": "MTK0528:3PS7W85Z809NS76G7W679HN30PH9TN", "current_trial": 264, "dateTime": 1511201350512, "trialdata": {"rt": -1, "stimulus": "<p id=\"stim\">+</p>", "key_press": -1, "type": "FIXATION", "trial_type": "single-stim", "trial_index": 264, "time_elapsed": 1193515, "internal_node_id": "0.0-192.0-0.0"}}, {"uniqueid": "MTK0528:3PS7W85Z809NS76G7W679HN30PH9TN", "current_trial": 265, "dateTime": 1511201352114, "trialdata": {"rt": -1, "stimulus": "<p id=\"stim\">SCOTCH</p>", "key_press": -1, "type": "PRES_VIS", "word": "scotch", "wordID": 1250, "conditions": [12, 1600, "v", 12000], "trial": 7, "serialpos": 0, "trial_type": "single-stim", "trial_index": 265, "time_elapsed": 1195117, "internal_node_id": "0.0-193.0"}}, {"uniqueid": "MTK0528:3PS7W85Z809NS76G7W679HN30PH9TN", "current_trial": 266, "dateTime": 1511201354833, "trialdata": {"rt": -1, "stimulus": "<p id=\"stim\">TUTU</p>", "key_press": -1, "type": "PRES_VIS", "word": "tutu", "wordID": 1523, "conditions": [12, 1600, "v", 12000], "trial": 7, "serialpos": 1, "trial_type": "single-stim", "trial_index": 266, "time_elapsed": 1197836, "internal_node_id": "0.0-194.0"}}, {"uniqueid": "MTK0528:3PS7W85Z809NS76G7W679HN30PH9TN", "current_trial": 267, "dateTime": 1511201357537, "trialdata": {"rt": -1, "stimulus": "<p id=\"stim\">TOURIST</p>", "key_press": -1, "type": "PRES_VIS", "word": "tourist", "wordID": 1487, "conditions": [12, 1600, "v", 12000], "trial": 7, "serialpos": 2, "trial_type": "single-stim", "trial_index": 267, "time_elapsed": 1200540, "internal_node_id": "0.0-195.0"}}, {"uniqueid": "MTK0528:3PS7W85Z809NS76G7W679HN30PH9TN", "current_trial": 268, "dateTime": 1511201360250, "trialdata": {"rt": -1, "stimulus": "<p id=\"stim\">DRINK</p>", "key_press": -1, "type": "PRES_VIS", "word": "drink", "wordID": 497, "conditions": [12, 1600, "v", 12000], "trial": 7, "serialpos": 3, "trial_type": "single-stim", "trial_index": 268, "time_elapsed": 1203253, "internal_node_id": "0.0-196.0"}}, {"uniqueid": "MTK0528:3PS7W85Z809NS76G7W679HN30PH9TN", "current_trial": 269, "dateTime": 1511201362654, "trialdata": {"rt": -1, "stimulus": "<p id=\"stim\">OX</p>", "key_press": -1, "type": "PRES_VIS", "word": "ox", "wordID": 993, "conditions": [12, 1600, "v", 12000], "trial": 7, "serialpos": 4, "trial_type": "single-stim", "trial_index": 269, "time_elapsed": 1205657, "internal_node_id": "0.0-197.0"}}, {"uniqueid": "MTK0528:3PS7W85Z809NS76G7W679HN30PH9TN", "current_trial": 270, "dateTime": 1511201365103, "trialdata": {"rt": -1, "stimulus": "<p id=\"stim\">RELISH</p>", "key_press": -1, "type": "PRES_VIS", "word": "relish", "wordID": 1182, "conditions": [12, 1600, "v", 12000], "trial": 7, "serialpos": 5, "trial_type": "single-stim", "trial_index": 2