{"condition": 0, "counterbalance": 598, "assignmentId": "3CP1TO84PU8A7LARLR9UWE9BDOJ52D", "workerId": "MTK0260", "hitId": "3HYV4299H03J2Z7FM76WLFW7ZY78ER", "currenttrial": 626, "bonus": 0, "data": [{"uniqueid": "MTK0260:3CP1TO84PU8A7LARLR9UWE9BDOJ52D", "current_trial": 0, "dateTime": 1510690653623, "trialdata": {"rt": 1579, "key_press": 32, "type": "INSTRUCTIONS", "trial_type": "text", "trial_index": 0, "time_elapsed": 1581, "internal_node_id": "0.0-0.0"}}, {"uniqueid": "MTK0260:3CP1TO84PU8A7LARLR9UWE9BDOJ52D", "current_trial": 1, "dateTime": 1510690654148, "trialdata": {"rt": 523, "key_press": 32, "type": "INSTRUCTIONS", "trial_type": "text", "trial_index": 1, "time_elapsed": 2106, "internal_node_id": "0.0-1.0"}}, {"uniqueid": "MTK0260:3CP1TO84PU8A7LARLR9UWE9BDOJ52D", "current_trial": 2, "dateTime": 1510690657942, "trialdata": {"rt": [3786], "responses": ["ocean"], "type": "AUDIO_TEST", "trial_type": "audio-test", "trial_index": 2, "time_elapsed": 5900, "internal_node_id": "0.0-2.0"}}, {"uniqueid": "MTK0260:3CP1TO84PU8A7LARLR9UWE9BDOJ52D", "current_trial": 3, "dateTime": 1510690660245, "trialdata": {"rt": [2300], "responses": ["crystal"], "type": "AUDIO_TEST", "trial_type": "audio-test", "trial_index": 3, "time_elapsed": 8203, "internal_node_id": "0.0-3.0"}}, {"uniqueid": "MTK0260:3CP1TO84PU8A7LARLR9UWE9BDOJ52D", "current_trial": 4, "dateTime": 1510690662565, "trialdata": {"rt": [2317], "responses": ["spice"], "type": "AUDIO_TEST", "trial_type": "audio-test", "trial_index": 4, "time_elapsed": 10523, "internal_node_id": "0.0-4.0"}}, {"uniqueid": "MTK0260:3CP1TO84PU8A7LARLR9UWE9BDOJ52D", "current_trial": 5, "dateTime": 1510690673928, "trialdata": {"rt": 10608, "responses": "{\"Q0\":\"2 am\",\"Q1\":\"9 am\",\"Q2\":\"5\"}", "type": "SLEEP_SURVEY", "trial_type": "survey-text", "trial_index": 5, "time_elapsed": 21886, "internal_node_id": "0.0-5.0"}}, {"uniqueid": "MTK0260:3CP1TO84PU8A7LARLR9UWE9BDOJ52D", "current_trial": 6, "dateTime": 1510690691937, "trialdata": {"rt": 17002, "key_press": 32, "type": "INSTRUCTIONS", "trial_type": "text", "trial_index": 6, "time_elapsed": 39895, "internal_node_id": "0.0-6.0"}}, {"uniqueid": "MTK0260:3CP1TO84PU8A7LARLR9UWE9BDOJ52D", "current_trial": 7, "dateTime": 1510690716631, "trialdata": {"rt": 24190, "key_press": 32, "type": "INSTRUCTIONS", "trial_type": "text", "trial_index": 7, "time_elapsed": 64589, "internal_node_id": "0.0-7.0"}}, {"uniqueid": "MTK0260:3CP1TO84PU8A7LARLR9UWE9BDOJ52D", "current_trial": 8, "dateTime": 1510690719431, "trialdata": {"rt": 2298, "key_press": 32, "type": "INSTRUCTIONS", "trial_type": "text", "trial_index": 8, "time_elapsed": 67389, "internal_node_id": "0.0-8.0"}}, {"uniqueid": "MTK0260:3CP1TO84PU8A7LARLR9UWE9BDOJ52D", "current_trial": 9, "dateTime": 1510690738438, "trialdata": {"rt": [2594, 5002, 6858, 10401, 11874, 14009, 15417], "responses": ["19", "22", "9", "24", "12", "11", "12"], "num1": [1, 9, 3, 6, 5, 7, 6, 8], "num2": [9, 4, 1, 9, 2, 1, 4, 2], "num3": [9, 9, 5, 9, 5, 3, 2, 5], "type": "DISTRACTOR", "conditions": [18, 1200, "a", 18000], "trial": 0, "trial_type": "math-distractor", "trial_index": 9, "time_elapsed": 86396, "internal_node_id": "0.0-9.0"}}, {"uniqueid": "MTK0260:3CP1TO84PU8A7LARLR9UWE9BDOJ52D", "current_trial": 10, "dateTime": 1510690741444, "trialdata": {"rt": -1, "stimulus": "<p id=\"stim\">10</p>", "key_press": -1, "trial_type": "single-stim", "trial_index": 10, "time_elapsed": 89402, "internal_node_id": "0.0-10.0-0.0"}}, {"uniqueid": "MTK0260:3CP1TO84PU8A7LARLR9UWE9BDOJ52D", "current_trial": 11, "dateTime": 1510690742448, "trialdata": {"rt": -1, "stimulus": "<p id=\"stim\">9</p>", "key_press": -1, "trial_type": "single-stim", "trial_index": 11, "time_elapsed": 90406, "internal_node_id": "0.0-10.0-1.0"}}, {"uniqueid": "MTK0260:3CP1TO84PU8A7LARLR9UWE9BDOJ52D", "current_trial": 12, "dateTime": 1510690743452, "trialdata": {"rt": -1, "stimulus": "<p id=\"stim\">8</p>", "key_press": -1, "trial_type": "single-stim", "trial_index": 12, "time_elapsed": 91410, "internal_node_id": "0.0-10.0-2.0"}}, {"uniqueid": "MTK0260:3CP1TO84PU8A7LARLR9UWE9BDOJ52D", "current_trial": 13, "dateTime": 1510690744457, "trialdata": {"rt": -1, "stimulus": "<p id=\"stim\">7</p>", "key_press": -1, "trial_type": "single-stim", "trial_index": 13, "time_elapsed": 92414, "internal_node_id": "0.0-10.0-3.0"}}, {"uniqueid": "MTK0260:3CP1TO84PU8A7LARLR9UWE9BDOJ52D", "current_trial": 14, "dateTime": 1510690745461, "trialdata": {"rt": -1, "stimulus": "<p id=\"stim\">6</p>", "key_press": -1, "trial_type": "single-stim", "trial_index": 14, "time_elapsed": 93418, "internal_node_id": "0.0-10.0-4.0"}}, {"uniqueid": "MTK0260:3CP1TO84PU8A7LARLR9UWE9BDOJ52D", "current_trial": 15, "dateTime": 1510690746464, "trialdata": {"rt": -1, "stimulus": "<p id=\"stim\">5</p>", "key_press": -1, "trial_type": "single-stim", "trial_index": 15, "time_elapsed": 94422, "internal_node_id": "0.0-10.0-5.0"}}, {"uniqueid": "MTK0260:3CP1TO84PU8A7LARLR9UWE9BDOJ52D", "current_trial": 16, "dateTime": 1510690747469, "trialdata": {"rt": -1, "stimulus": "<p id=\"stim\">4</p>", "key_press": -1, "trial_type": "single-stim", "trial_index": 16, "time_elapsed": 95427, "internal_node_id": "0.0-10.0-6.0"}}, {"uniqueid": "MTK0260:3CP1TO84PU8A7LARLR9UWE9BDOJ52D", "current_trial": 17, "dateTime": 1510690748473, "trialdata": {"rt": -1, "stimulus": "<p id=\"stim\">3</p>", "key_press": -1, "trial_type": "single-stim", "trial_index": 17, "time_elapsed": 96431, "internal_node_id": "0.0-10.0-7.0"}}, {"uniqueid": "MTK0260:3CP1TO84PU8A7LARLR9UWE9BDOJ52D", "current_trial": 18, "dateTime": 1510690749476, "trialdata": {"rt": -1, "stimulus": "<p id=\"stim\">2</p>", "key_press": -1, "trial_type": "single-stim", "trial_index": 18, "time_elapsed": 97434, "internal_node_id": "0.0-10.0-8.0"}}, {"uniqueid": "MTK0260:3CP1TO84PU8A7LARLR9UWE9BDOJ52D", "current_trial": 19, "dateTime": 1510690750481, "trialdata": {"rt": -1, "stimulus": "<p id=\"stim\">1</p>", "key_press": -1, "trial_type": "single-stim", "trial_index": 19, "time_elapsed": 98439, "internal_node_id": "0.0-10.0-9.0"}}, {"uniqueid": "MTK0260:3CP1TO84PU8A7LARLR9UWE9BDOJ52D", "current_trial": 20, "dateTime": 1510690751984, "trialdata": {"rt": -1, "stimulus": "<p id=\"stim\">+</p>", "key_press": -1, "type": "FIXATION", "trial_type": "single-stim", "trial_index": 20, "time_elapsed": 99942, "internal_node_id": "0.0-11.0-0.0"}}, {"uniqueid": "MTK0260:3CP1TO84PU8A7LARLR9UWE9BDOJ52D", "current_trial": 21, "dateTime": 1510690754233, "trialdata": {"rt": -1000, "stimulus": "/static/audio/wordpool/FRAME.wav", "key_press": -1, "type": "PRES_AUD", "word": "frame", "wordID": 599, "conditions": [18, 1200, "a", 18000], "trial": 0, "serialpos": 0, "trial_type": "single-audio", "trial_index": 21, "time_elapsed": 102191, "internal_node_id": "0.0-12.0"}}, {"uniqueid": "MTK0260:3CP1TO84PU8A7LARLR9UWE9BDOJ52D", "current_trial": 22, "dateTime": 1510690756255, "trialdata": {"rt": -1000, "stimulus": "/static/audio/wordpool/KITCHEN.wav", "key_press": -1, "type": "PRES_AUD", "word": "kitchen", "wordID": 777, "conditions": [18, 1200, "a", 18000], "trial": 0, "serialpos": 1, "trial_type": "single-audio", "trial_index": 22, "time_elapsed": 104213, "internal_node_id": "0.0-13.0"}}, {"uniqueid": "MTK0260:3CP1TO84PU8A7LARLR9UWE9BDOJ52D", "current_trial": 23, "dateTime": 1510690758640, "trialdata": {"rt": -1000, "stimulus": "/static/audio/wordpool/STOMACH.wav", "key_press": -1, "type": "PRES_AUD", "word": "stomach", "wordID": 1383, "conditions": [18, 1200, "a", 18000], "trial": 0, "serialpos": 2, "trial_type": "single-audio", "trial_index": 23, "time_elapsed": 106598, "internal_node_id": "0.0-14.0"}}, {"uniqueid": "MTK0260:3CP1TO84PU8A7LARLR9UWE9BDOJ52D", "current_trial": 24, "dateTime": 1510690760706, "trialdata": {"rt": -1000, "stimulus": "/static/audio/wordpool/SPOUSE.wav", "key_press": -1, "type": "PRES_AUD", "word": "spouse", "wordID": 1357, "conditions": [18, 1200, "a", 18000], "trial": 0, "serialpos": 3, "trial_type": "single-audio", "trial_index": 24, "time_elapsed": 108664, "internal_node_id": "0.0-15.0"}}, {"uniqueid": "MTK0260:3CP1TO84PU8A7LARLR9UWE9BDOJ52D", "current_trial": 25, "dateTime": 1510690762864, "trialdata": {"rt": -1000, "stimulus": "/static/audio/wordpool/INFANT.wav", "key_press": -1, "type": "PRES_AUD", "word": "infant", "wordID": 736, "conditions": [18, 1200, "a", 18000], "trial": 0, "serialpos": 4, "trial_type": "single-audio", "trial_index": 25, "time_elapsed": 110822, "internal_node_id": "0.0-16.0"}}, {"uniqueid": "MTK0260:3CP1TO84PU8A7LARLR9UWE9BDOJ52D", "current_trial": 26, "dateTime": 1510690764904, "trialdata": {"rt": -1000, "stimulus": "/static/audio/wordpool/COUNTRY.wav", "key_press": -1, "type": "PRES_AUD", "word": "country", "wordID": 387, "conditions": [18, 1200, "a", 18000], "trial": 0, "serialpos": 5, "trial_type": "single-audio", "trial_index": 26, "time_elapsed": 112862, "internal_node_id": "0.0-17.0"}}, {"uniqueid": "MTK0260:3CP1TO84PU8A7LARLR9UWE9BDOJ52D", "current_trial": 27, "dateTime": 1510690767156, "trialdata": {"rt": -1000, "stimulus": "/static/audio/wordpool/SADDLE.wav", "key_press": -1, "type": "PRES_AUD", "word": "saddle", "wordID": 1220, "conditions": [18, 1200, "a", 18000], "trial": 0, "serialpos": 6, "trial_type": "single-audio", "trial_index": 27, "time_elapsed": 115114, "internal_node_id": "0.0-18.0"}}, {"uniqueid": "MTK0260:3CP1TO84PU8A7LARLR9UWE9BDOJ52D", "current_trial": 28, "dateTime": 1510690769505, "trialdata": {"rt": -1000, "stimulus": "/static/audio/wordpool/BALLOON.wav", "key_press": -1, "type": "PRES_AUD", "word": "balloon", "wordID": 74, "conditions": [18, 1200, "a", 18000], "trial": 0, "serialpos": 7, "trial_type": "single-audio", "trial_index": 28, "time_elapsed": 117463, "internal_node_id": "0.0-19.0"}}, {"uniqueid": "MTK0260:3CP1TO84PU8A7LARLR9UWE9BDOJ52D", "current_trial": 29, "dateTime": 1510690771631, "trialdata": {"rt": -1000, "stimulus": "/static/audio/wordpool/BADGE.wav", "key_press": -1, "type": "PRES_AUD", "word": "badge", "wordID": 67, "conditions": [18, 1200, "a", 18000], "trial": 0, "serialpos": 8, "trial_type": "single-audio", "trial_index": 29, "time_elapsed": 119589, "internal_node_id": "0.0-20.0"}}, {"uniqueid": "MTK0260:3CP1TO84PU8A7LARLR9UWE9BDOJ52D", "current_trial": 30, "dateTime": 1510690773685, "trialdata": {"rt": -1000, "stimulus": "/static/audio/wordpool/OUTLAW.wav", "key_press": -1, "type": "PRES_AUD", "word": "outlaw", "wordID": 988, "conditions": [18, 1200, "a", 18000], "trial": 0, "serialpos": 9, "trial_type": "single-audio", "trial_index": 30, "time_elapsed": 121643, "internal_node_id": "0.0-21.0"}}, {"uniqueid": "MTK0260:3CP1TO84PU8A7LARLR9UWE9BDOJ52D", "current_trial": 31, "dateTime": 1510690775879, "trialdata": {"rt": -1000, "stimulus": "/static/audio/wordpool/ANTLER.wav", "key_press": -1, "type": "PRES_AUD", "word": "antler", "wordID": 28, "conditions": [18, 1200, "a", 18000], "trial": 0, "serialpos": 10, "trial_type": "single-audio", "trial_index": 31, "time_elapsed": 123837, "internal_node_id": "0.0-22.0"}}, {"uniqueid": "MTK0260:3CP1TO84PU8A7LARLR9UWE9BDOJ52D", "current_trial": 32, "dateTime": 1510690778108, "trialdata": {"rt": -1000, "stimulus": "/static/audio/wordpool/POCKET.wav", "key_press": -1, "type": "PRES_AUD", "word": "pocket", "wordID": 1092, "conditions": [18, 1200, "a", 18000], "trial": 0, "serialpos": 11, "trial_type": "single-audio", "trial_index": 32, "time_elapsed": 126066, "internal_node_id": "0.0-23.0"}}, {"uniqueid": "MTK0260:3CP1TO84PU8A7LARLR9UWE9BDOJ52D", "current_trial": 33, "dateTime": 1510690780321, "trialdata": {"rt": -1000, "stimulus": "/static/audio/wordpool/CITRUS.wav", "key_press": -1, "type": "PRES_AUD", "word": "citrus", "wordID": 312, "conditions": [18, 1200, "a", 18000], "trial": 0, "serialpos": 12, "trial_type": "single-audio", "trial_index": 33, "time_elapsed": 128279, "internal_node_id": "0.0-24.0"}}, {"uniqueid": "MTK0260:3CP1TO84PU8A7LARLR9UWE9BDOJ52D", "current_trial": 34, "dateTime": 1510690782457, "trialdata": {"rt": -1000, "stimulus": "/static/audio/wordpool/LONDON.wav", "key_press": -1, "type": "PRES_AUD", "word": "london", "wordID": 842, "conditions": [18, 1200, "a", 18000], "trial": 0, "serialpos": 13, "trial_type": "single-audio", "trial_index": 34, "time_elapsed": 130415, "internal_node_id": "0.0-25.0"}}, {"uniqueid": "MTK0260:3CP1TO84PU8A7LARLR9UWE9BDOJ52D", "current_trial": 35, "dateTime": 1510690784471, "trialdata": {"rt": -1000, "stimulus": "/static/audio/wordpool/PASSAGE.wav", "key_press": -1, "type": "PRES_AUD", "word": "passage", "wordID": 1018, "conditions": [18, 1200, "a", 18000], "trial": 0, "serialpos": 14, "trial_type": "single-audio", "trial_index": 35, "time_elapsed": 132429, "internal_node_id": "0.0-26.0"}}, {"uniqueid": "MTK0260:3CP1TO84PU8A7LARLR9UWE9BDOJ52D", "current_trial": 36, "dateTime": 1510690786695, "trialdata": {"rt": -1000, "stimulus": "/static/audio/wordpool/TOMBSTONE.wav", "key_press": -1, "type": "PRES_AUD", "word": "tombstone", "wordID": 1477, "conditions": [18, 1200, "a", 18000], "trial": 0, "serialpos": 15, "trial_type": "single-audio", "trial_index": 36, "time_elapsed": 134653, "internal_node_id": "0.0-27.0"}}, {"uniqueid": "MTK0260:3CP1TO84PU8A7LARLR9UWE9BDOJ52D", "current_trial": 37, "dateTime": 1510690788897, "trialdata": {"rt": -1000, "stimulus": "/static/audio/wordpool/BANK.wav", "key_press": -1, "type": "PRES_AUD", "word": "bank", "wordID": 82, "conditions": [18, 1200, "a", 18000], "trial": 0, "serialpos": 16, "trial_type": "single-audio", "trial_index": 37, "time_elapsed": 136855, "internal_node_id": "0.0-28.0"}}, {"uniqueid": "MTK0260:3CP1TO84PU8A7LARLR9UWE9BDOJ52D", "current_trial": 38, "dateTime": 1510690790943, "trialdata": {"rt": -1000, "stimulus": "/static/audio/wordpool/GIFT.wav", "key_press": -1, "type": "PRES_AUD", "word": "gift", "wordID": 634, "conditions": [18, 1200, "a", 18000], "trial": 0, "serialpos": 17, "trial_type": "single-audio", "trial_index": 38, "time_elapsed": 138901, "internal_node_id": "0.0-29.0"}}, {"uniqueid": "MTK0260:3CP1TO84PU8A7LARLR9UWE9BDOJ52D", "current_trial": 39, "dateTime": 1510690792330, "trialdata": {"rt": -1, "stimulus": "", "key_press": -1, "type": "PRE_RECALL_DELAY", "trial_type": "single-stim", "trial_index": 39, "time_elapsed": 140288, "internal_node_id": "0.0-30.0-0.0"}}, {"uniqueid": "MTK0260:3CP1TO84PU8A7LARLR9UWE9BDOJ52D", "current_trial": 40, "dateTime": 1510690792832, "trialdata": {"rt": -1000, "stimulus": "/static/audio/400Hz.wav", "key_press": -1, "type": "PRE_RECALL_ALERT", "trial_type": "single-audio", "trial_index": 40, "time_elapsed": 140789, "internal_node_id": "0.0-31.0"}}, {"uniqueid": "MTK0260:3CP1TO84PU8A7LARLR9UWE9BDOJ52D", "current_trial": 41, "dateTime": 1510690852837, "trialdata": {"rt": [4707, 6851, 8420, 9451, 10354, 11427, 12850, 14515, 15602, 17010, 17722, 21034, 23514, 24369, 25914, 26913, 27842, 28857, 30602, 32082, 33826, 34034, 34219, 34370, 34522, 34666, 34818, 34961, 35122, 35274, 35426, 35586, 35746, 35897, 36057, 36209, 36378, 36530, 36690, 36826, 36986], "recwords": ["gif", "bank", "tombstone", "passage", "london", "citrus", "saddle", "stomach", "spouse", "outlaw", "", "bank", "country", "saddle", "balloon", "badge", "antler", "pocket", "london", "passage", "", "", "", "", "", "", "", "", "", "", "", "", "", "", "", "", "", "", "", "", ""], "type": "FREE_RECALL", "conditions": [18, 1200, "a", 18000], "trial": 0, "trial_type": "free-recall", "trial_index": 41, "time_elapsed": 200793, "internal_node_id": "0.0-32.0-0.0"}}, {"uniqueid": "MTK0260:3CP1TO84PU8A7LARLR9UWE9BDOJ52D", "current_trial": 42, "dateTime": 1510690857825, "trialdata": {"rt": 2988, "key_press": 32, "type": "INSTRUCTIONS", "trial_type": "text", "trial_index": 42, "time_elapsed": 205783, "internal_node_id": "0.0-33.0"}}, {"uniqueid": "MTK0260:3CP1TO84PU8A7LARLR9UWE9BDOJ52D", "current_trial": 43, "dateTime": 1510690877833, "trialdata": {"rt": [5814, 7203, 9739, 12842], "responses": ["11", "13", "11", "212"], "num1": [4, 3, 2, 9, 8], "num2": [3, 5, 5, 7, 6], "num3": [4, 5, 4, 5, 7], "type": "DISTRACTOR", "conditions": [18, 1200, "v", 18000], "trial": 1, "trial_type": "math-distractor", "trial_index": 43, "time_elapsed": 225791, "internal_node_id": "0.0-34.0"}}, {"uniqueid": "MTK0260:3CP1TO84PU8A7LARLR9UWE9BDOJ52D", "current_trial": 44, "dateTime": 1510690880839, "trialdata": {"rt": -1, "stimulus": "<p id=\"stim\">10</p>", "key_press": -1, "trial_type": "single-stim", "trial_index": 44, "time_elapsed": 228797, "internal_node_id": "0.0-35.0-0.0"}}, {"uniqueid": "MTK0260:3CP1TO84PU8A7LARLR9UWE9BDOJ52D", "current_trial": 45, "dateTime": 1510690881843, "trialdata": {"rt": -1, "stimulus": "<p id=\"stim\">9</p>", "key_press": -1, "trial_type": "single-stim", "trial_index": 45, "time_elapsed": 229801, "internal_node_id": "0.0-35.0-1.0"}}, {"uniqueid": "MTK0260:3CP1TO84PU8A7LARLR9UWE9BDOJ52D", "current_trial": 46, "dateTime": 1510690882847, "trialdata": {"rt": -1, "stimulus": "<p id=\"stim\">8</p>", "key_press": -1, "trial_type": "single-stim", "trial_index": 46, "time_elapsed": 230805, "internal_node_id": "0.0-35.0-2.0"}}, {"uniqueid": "MTK0260:3CP1TO84PU8A7LARLR9UWE9BDOJ52D", "current_trial": 47, "dateTime": 1510690883851, "trialdata": {"rt": -1, "stimulus": "<p id=\"stim\">7</p>", "key_press": -1, "trial_type": "single-stim", "trial_index": 47, "time_elapsed": 231809, "internal_node_id": "0.0-35.0-3.0"}}, {"uniqueid": "MTK0260:3CP1TO84PU8A7LARLR9UWE9BDOJ52D", "current_trial": 48, "dateTime": 1510690884855, "trialdata": {"rt": -1, "stimulus": "<p id=\"stim\">6</p>", "key_press": -1, "trial_type": "single-stim", "trial_index": 48, "time_elapsed": 232813, "internal_node_id": "0.0-35.0-4.0"}}, {"uniqueid": "MTK0260:3CP1TO84PU8A7LARLR9UWE9BDOJ52D", "current_trial": 49, "dateTime": 1510690885860, "trialdata": {"rt": -1, "stimulus": "<p id=\"stim\">5</p>", "key_press": -1, "trial_type": "single-stim", "trial_index": 49, "time_elapsed": 233817, "internal_node_id": "0.0-35.0-5.0"}}, {"uniqueid": "MTK0260:3CP1TO84PU8A7LARLR9UWE9BDOJ52D", "current_trial": 50, "dateTime": 1510690886864, "trialdata": {"rt": -1, "stimulus": "<p id=\"stim\">4</p>", "key_press": -1, "trial_type": "single-stim", "trial_index": 50, "time_elapsed": 234821, "internal_node_id": "0.0-35.0-6.0"}}, {"uniqueid": "MTK0260:3CP1TO84PU8A7LARLR9UWE9BDOJ52D", "current_trial": 51, "dateTime": 1510690887868, "trialdata": {"rt": -1, "stimulus": "<p id=\"stim\">3</p>", "key_press": -1, "trial_type": "single-stim", "trial_index": 51, "time_elapsed": 235826, "internal_node_id": "0.0-35.0-7.0"}}, {"uniqueid": "MTK0260:3CP1TO84PU8A7LARLR9UWE9BDOJ52D", "current_trial": 52, "dateTime": 1510690888873, "trialdata": {"rt": -1, "stimulus": "<p id=\"stim\">2</p>", "key_press": -1, "trial_type": "single-stim", "trial_index": 52, "time_elapsed": 236831, "internal_node_id": "0.0-35.0-8.0"}}, {"uniqueid": "MTK0260:3CP1TO84PU8A7LARLR9UWE9BDOJ52D", "current_trial": 53, "dateTime": 1510690889877, "trialdata": {"rt": -1, "stimulus": "<p id=\"stim\">1</p>", "key_press": -1, "trial_type": "single-stim", "trial_index": 53, "time_elapsed": 237835, "internal_node_id": "0.0-35.0-9.0"}}, {"uniqueid": "MTK0260:3CP1TO84PU8A7LARLR9UWE9BDOJ52D", "current_trial": 54, "dateTime": 1510690891379, "trialdata": {"rt": -1, "stimulus": "<p id=\"stim\">+</p>", "key_press": -1, "type": "FIXATION", "trial_type": "single-stim", "trial_index": 54, "time_elapsed": 239337, "internal_node_id": "0.0-36.0-0.0"}}, {"uniqueid": "MTK0260:3CP1TO84PU8A7LARLR9UWE9BDOJ52D", "current_trial": 55, "dateTime": 1510690892580, "trialdata": {"rt": -1, "stimulus": "<p id=\"stim\">LEG</p>", "key_press": -1, "type": "PRES_VIS", "word": "leg", "wordID": 808, "conditions": [18, 1200, "v", 18000], "trial": 1, "serialpos": 0, "trial_type": "single-stim", "trial_index": 55, "time_elapsed": 240538, "internal_node_id": "0.0-37.0"}}, {"uniqueid": "MTK0260:3CP1TO84PU8A7LARLR9UWE9BDOJ52D", "current_trial": 56, "dateTime": 1510690894892, "trialdata": {"rt": -1, "stimulus": "<p id=\"stim\">BACKBONE</p>", "key_press": -1, "type": "PRES_VIS", "word": "backbone", "wordID": 65, "conditions": [18, 1200, "v", 18000], "trial": 1, "serialpos": 1, "trial_type": "single-stim", "trial_index": 56, "time_elapsed": 242850, "internal_node_id": "0.0-38.0"}}, {"uniqueid": "MTK0260:3CP1TO84PU8A7LARLR9UWE9BDOJ52D", "current_trial": 57, "dateTime": 1510690896907, "trialdata": {"rt": -1, "stimulus": "<p id=\"stim\">SPIDER</p>", "key_press": -1, "type": "PRES_VIS", "word": "spider", "wordID": 1350, "conditions": [18, 1200, "v", 18000], "trial": 1, "serialpos": 2, "trial_type": "single-stim", "trial_index": 57, "time_elapsed": 244865, "internal_node_id": "0.0-39.0"}}, {"uniqueid": "MTK0260:3CP1TO84PU8A7LARLR9UWE9BDOJ52D", "current_trial": 58, "dateTime": 1510690899013, "trialdata": {"rt": -1, "stimulus": "<p id=\"stim\">TRACTOR</p>", "key_press": -1, "type": "PRES_VIS", "word": "tractor", "wordID": 1492, "conditions": [18, 1200, "v", 18000], "trial": 1, "serialpos": 3, "trial_type": "single-stim", "trial_index": 58, "time_elapsed": 246971, "internal_node_id": "0.0-40.0"}}, {"uniqueid": "MTK0260:3CP1TO84PU8A7LARLR9UWE9BDOJ52D", "current_trial": 59, "dateTime": 1510690901174, "trialdata": {"rt": -1, "stimulus": "<p id=\"stim\">CABBAGE</p>", "key_press": -1, "type": "PRES_VIS", "word": "cabbage", "wordID": 209, "conditions": [18, 1200, "v", 18000], "trial": 1, "serialpos": 4, "trial_type": "single-stim", "trial_index": 59, "time_elapsed": 249132, "internal_node_id": "0.0-41.0"}}, {"uniqueid": "MTK0260:3CP1TO84PU8A7LARLR9UWE9BDOJ52D", "current_trial": 60, "dateTime": 1510690903445, "trialdata": {"rt": -1, "stimulus": "<p id=\"stim\">STOVE</p>", "key_press": -1, "type": "PRES_VIS", "word": "stove", "wordID": 1387, "conditions": [18, 1200, "v", 18000], "trial": 1, "serialpos": 5, "trial_type": "single-stim", "trial_index": 60, "time_elapsed": 251403, "internal_node_id": "0.0-42.0"}}, {"uniqueid": "MTK0260:3CP1TO84PU8A7LARLR9UWE9BDOJ52D", "current_trial": 61, "dateTime": 1510690905529, "trialdata": {"rt": -1, "stimulus": "<p id=\"stim\">CABIN</p>", "key_press": -1, "type": "PRES_VIS", "word": "cabin", "wordID": 210, "conditions": [18, 1200, "v", 18000], "trial": 1, "serialpos": 6, "trial_type": "single-stim", "trial_index": 61, "time_elapsed": 253487, "internal_node_id": "0.0-43.0"}}, {"uniqueid": "MTK0260:3CP1TO84PU8A7LARLR9UWE9BDOJ52D", "current_trial": 62, "dateTime": 1510690907861, "trialdata": {"rt": -1, "stimulus": "<p id=\"stim\">SUSPECT</p>", "key_press": -1, "type": "PRES_VIS", "word": "suspect", "wordID": 1414, "conditions": [18, 1200, "v", 18000], "trial": 1, "serialpos": 7, "trial_type": "single-stim", "trial_index": 62, "time_elapsed": 255819, "internal_node_id": "0.0-44.0"}}, {"uniqueid": "MTK0260:3CP1TO84PU8A7LARLR9UWE9BDOJ52D", "current_trial": 63, "dateTime": 1510690910261, "trialdata": {"rt": -1, "stimulus": "<p id=\"stim\">PIGMENT</p>", "key_press": -1, "type": "PRES_VIS", "word": "pigment", "wordID": 1065, "conditions": [18, 1200, "v", 18000], "trial": 1, "serialpos": 8, "trial_type": "single-stim", "trial_index": 63, "time_elapsed": 258219, "internal_node_id": "0.0-45.0"}}, {"uniqueid": "MTK0260:3CP1TO84PU8A7LARLR9UWE9BDOJ52D", "current_trial": 64, "dateTime": 1510690912384, "trialdata": {"rt": -1, "stimulus": "<p id=\"stim\">WASP</p>", "key_press": -1, "type": "PRES_VIS", "word": "wasp", "wordID": 1592, "conditions": [18, 1200, "v", 18000], "trial": 1, "serialpos": 9, "trial_type": "single-stim", "trial_index": 64, "time_elapsed": 260341, "internal_node_id": "0.0-46.0"}}, {"uniqueid": "MTK0260:3CP1TO84PU8A7LARLR9UWE9BDOJ52D", "current_trial": 65, "dateTime": 1510690914684, "trialdata": {"rt": -1, "stimulus": "<p id=\"stim\">LUNCH</p>", "key_press": -1, "type": "PRES_VIS", "word": "lunch", "wordID": 848, "conditions": [18, 1200, "v", 18000], "trial": 1, "serialpos": 10, "trial_type": "single-stim", "trial_index": 65, "time_elapsed": 262642, "internal_node_id": "0.0-47.0"}}, {"uniqueid": "MTK0260:3CP1TO84PU8A7LARLR9UWE9BDOJ52D", "current_trial": 66, "dateTime": 1510690916916, "trialdata": {"rt": -1, "stimulus": "<p id=\"stim\">LUGGAGE</p>", "key_press": -1, "type": "PRES_VIS", "word": "luggage", "wordID": 846, "conditions": [18, 1200, "v", 18000], "trial": 1, "serialpos": 11, "trial_type": "single-stim", "trial_index": 66, "time_elapsed": 264874, "internal_node_id": "0.0-48.0"}}, {"uniqueid": "MTK0260:3CP1TO84PU8A7LARLR9UWE9BDOJ52D", "current_trial": 67, "dateTime": 1510690919279, "trialdata": {"rt": -1, "stimulus": "<p id=\"stim\">DONKEY</p>", "key_press": -1, "type": "PRES_VIS", "word": "donkey", "wordID": 483, "conditions": [18, 1200, "v", 18000], "trial": 1, "serialpos": 12, "trial_type": "single-stim", "trial_index": 67, "time_elapsed": 267236, "internal_node_id": "0.0-49.0"}}, {"uniqueid": "MTK0260:3CP1TO84PU8A7LARLR9UWE9BDOJ52D", "current_trial": 68, "dateTime": 1510690921617, "trialdata": {"rt": -1, "stimulus": "<p id=\"stim\">SUPPER</p>", "key_press": -1, "type": "PRES_VIS", "word": "supper", "wordID": 1410, "conditions": [18, 1200, "v", 18000], "trial": 1, "serialpos": 13, "trial_type": "single-stim", "trial_index": 68, "time_elapsed": 269574, "internal_node_id": "0.0-50.0"}}, {"uniqueid": "MTK0260:3CP1TO84PU8A7LARLR9UWE9BDOJ52D", "current_trial": 69, "dateTime": 1510690923869, "trialdata": {"rt": -1, "stimulus": "<p id=\"stim\">PARTNER</p>", "key_press": -1, "type": "PRES_VIS", "word": "partner", "wordID": 1016, "conditions": [18, 1200, "v", 18000], "trial": 1, "serialpos": 14, "trial_type": "single-stim", "trial_index": 69, "time_elapsed": 271827, "internal_node_id": "0.0-51.0"}}, {"uniqueid": "MTK0260:3CP1TO84PU8A7LARLR9UWE9BDOJ52D", "current_trial": 70, "dateTime": 1510690926219, "trialdata": {"rt": -1, "stimulus": "<p id=\"stim\">LAVA</p>", "key_press": -1, "type": "PRES_VIS", "word": "lava", "wordID": 803, "conditions": [18, 1200, "v", 18000], "trial": 1, "serialpos": 15, "trial_type": "single-stim", "trial_index": 70, "time_elapsed": 274177, "internal_node_id": "0.0-52.0"}}, {"uniqueid": "MTK0260:3CP1TO84PU8A7LARLR9UWE9BDOJ52D", "current_trial": 71, "dateTime": 1510690928581, "trialdata": {"rt": -1, "stimulus": "<p id=\"stim\">HOOD</p>", "key_press": -1, "type": "PRES_VIS", "word": "hood", "wordID": 713, "conditions": [18, 1200, "v", 18000], "trial": 1, "serialpos": 16, "trial_type": "single-stim", "trial_index": 71, "time_elapsed": 276539, "internal_node_id": "0.0-53.0"}}, {"uniqueid": "MTK0260:3CP1TO84PU8A7LARLR9UWE9BDOJ52D", "current_trial": 72, "dateTime": 1510690930618, "trialdata": {"rt": -1, "stimulus": "<p id=\"stim\">ROBBER</p>", "key_press": -1, "type": "PRES_VIS", "word": "robber", "wordID": 1196, "conditions": [18, 1200, "v", 18000], "trial": 1, "serialpos": 17, "trial_type": "single-stim", "trial_index": 72, "time_elapsed": 278576, "internal_node_id": "0.0-54.0"}}, {"uniqueid": "MTK0260:3CP1TO84PU8A7LARLR9UWE9BDOJ52D", "current_trial": 73, "dateTime": 1510690932897, "trialdata": {"rt": -1, "stimulus": "", "key_press": -1, "type": "PRE_RECALL_DELAY", "trial_type": "single-stim", "trial_index": 73, "time_elapsed": 280855, "internal_node_id": "0.0-55.0-0.0"}}, {"uniqueid": "MTK0260:3CP1TO84PU8A7LARLR9UWE9BDOJ52D", "current_trial": 74, "dateTime": 1510690933399, "trialdata": {"rt": -1000, "stimulus": "/static/audio/400Hz.wav", "key_press": -1, "type": "PRE_RECALL_ALERT", "trial_type": "single-audio", "trial_index": 74, "time_elapsed": 281357, "internal_node_id": "0.0-56.0"}}, {"uniqueid": "MTK0260:3CP1TO84PU8A7LARLR9UWE9BDOJ52D", "current_trial": 75, "dateTime": 1510690993403, "trialdata": {"rt": [2681, 3473, 5835, 6881, 7961, 9608, 13041, 14072, 18688, 19528], "recwords": ["lunch", "wasp", "leg", "spider", "hood", "cabbage", "lava", "robber", "pigment", "stove"], "type": "FREE_RECALL", "conditions": [18, 1200, "v", 18000], "trial": 1, "trial_type": "free-recall", "trial_index": 75, "time_elapsed": 341359, "internal_node_id": "0.0-57.0-0.0"}}, {"uniqueid": "MTK0260:3CP1TO84PU8A7LARLR9UWE9BDOJ52D", "current_trial": 76, "dateTime": 1510691082784, "trialdata": {"rt": 87374, "key_press": 32, "type": "INSTRUCTIONS", "trial_type": "text", "trial_index": 76, "time_elapsed": 430739, "internal_node_id": "0.0-58.0"}}, {"uniqueid": "MTK0260:3CP1TO84PU8A7LARLR9UWE9BDOJ52D", "current_trial": 77, "dateTime": 1510691095786, "trialdata": {"rt": [4227, 7427, 9530, 11436], "responses": ["21", "18", "12", "9"], "num1": [5, 9, 4, 1, 2], "num2": [9, 2, 6, 2, 7], "num3": [7, 7, 2, 6, 3], "type": "DISTRACTOR", "conditions": [24, 1600, "v", 12000], "trial": 2, "trial_type": "math-distractor", "trial_index": 77, "time_elapsed": 443744, "internal_node_id": "0.0-59.0"}}, {"uniqueid": "MTK0260:3CP1TO84PU8A7LARLR9UWE9BDOJ52D", "current_trial": 78, "dateTime": 1510691098789, "trialdata": {"rt": -1, "stimulus": "<p id=\"stim\">10</p>", "key_press": -1, "trial_type": "single-stim", "trial_index": 78, "time_elapsed": 446747, "internal_node_id": "0.0-60.0-0.0"}}, {"uniqueid": "MTK0260:3CP1TO84PU8A7LARLR9UWE9BDOJ52D", "current_trial": 79, "dateTime": 1510691099792, "trialdata": {"rt": -1, "stimulus": "<p id=\"stim\">9</p>", "key_press": -1, "trial_type": "single-stim", "trial_index": 79, "time_elapsed": 447750, "internal_node_id": "0.0-60.0-1.0"}}, {"uniqueid": "MTK0260:3CP1TO84PU8A7LARLR9UWE9BDOJ52D", "current_trial": 80, "dateTime": 1510691100795, "trialdata": {"rt": -1, "stimulus": "<p id=\"stim\">8</p>", "key_press": -1, "trial_type": "single-stim", "trial_index": 80, "time_elapsed": 448753, "internal_node_id": "0.0-60.0-2.0"}}, {"uniqueid": "MTK0260:3CP1TO84PU8A7LARLR9UWE9BDOJ52D", "current_trial": 81, "dateTime": 1510691101796, "trialdata": {"rt": -1, "stimulus": "<p id=\"stim\">7</p>", "key_press": -1, "trial_type": "single-stim", "trial_index": 81, "time_elapsed": 449754, "internal_node_id": "0.0-60.0-3.0"}}, {"uniqueid": "MTK0260:3CP1TO84PU8A7LARLR9UWE9BDOJ52D", "current_trial": 82, "dateTime": 1510691102802, "trialdata": {"rt": -1, "stimulus": "<p id=\"stim\">6</p>", "key_press": -1, "trial_type": "single-stim", "trial_index": 82, "time_elapsed": 450760, "internal_node_id": "0.0-60.0-4.0"}}, {"uniqueid": "MTK0260:3CP1TO84PU8A7LARLR9UWE9BDOJ52D", "current_trial": 83, "dateTime": 1510691103807, "trialdata": {"rt": -1, "stimulus": "<p id=\"stim\">5</p>", "key_press": -1, "trial_type": "single-stim", "trial_index": 83, "time_elapsed": 451765, "internal_node_id": "0.0-60.0-5.0"}}, {"uniqueid": "MTK0260:3CP1TO84PU8A7LARLR9UWE9BDOJ52D", "current_trial": 84, "dateTime": 1510691104811, "trialdata": {"rt": -1, "stimulus": "<p id=\"stim\">4</p>", "key_press": -1, "trial_type": "single-stim", "trial_index": 84, "time_elapsed": 452769, "internal_node_id": "0.0-60.0-6.0"}}, {"uniqueid": "MTK0260:3CP1TO84PU8A7LARLR9UWE9BDOJ52D", "current_trial": 85, "dateTime": 1510691105815, "trialdata": {"rt": -1, "stimulus": "<p id=\"stim\">3</p>", "key_press": -1, "trial_type": "single-stim", "trial_index": 85, "time_elapsed": 453773, "internal_node_id": "0.0-60.0-7.0"}}, {"uniqueid": "MTK0260:3CP1TO84PU8A7LARLR9UWE9BDOJ52D", "current_trial": 86, "dateTime": 1510691106819, "trialdata": {"rt": -1, "stimulus": "<p id=\"stim\">2</p>", "key_press": -1, "trial_type": "single-stim", "trial_index": 86, "time_elapsed": 454777, "internal_node_id": "0.0-60.0-8.0"}}, {"uniqueid": "MTK0260:3CP1TO84PU8A7LARLR9UWE9BDOJ52D", "current_trial": 87, "dateTime": 1510691107823, "trialdata": {"rt": -1, "stimulus": "<p id=\"stim\">1</p>", "key_press": -1, "trial_type": "single-stim", "trial_index": 87, "time_elapsed": 455781, "internal_node_id": "0.0-60.0-9.0"}}, {"uniqueid": "MTK0260:3CP1TO84PU8A7LARLR9UWE9BDOJ52D", "current_trial": 88, "dateTime": 1510691109326, "trialdata": {"rt": -1, "stimulus": "<p id=\"stim\">+</p>", "key_press": -1, "type": "FIXATION", "trial_type": "single-stim", "trial_index": 88, "time_elapsed": 457284, "internal_node_id": "0.0-61.0-0.0"}}, {"uniqueid": "MTK0260:3CP1TO84PU8A7LARLR9UWE9BDOJ52D", "current_trial": 89, "dateTime": 1510691110928, "trialdata": {"rt": -1, "stimulus": "<p id=\"stim\">SPONGE</p>", "key_press": -1, "type": "PRES_VIS", "word": "sponge", "wordID": 1354, "conditions": [24, 1600, "v", 12000], "trial": 2, "serialpos": 0, "trial_type": "single-stim", "trial_index": 89, "time_elapsed": 458886, "internal_node_id": "0.0-62.0"}}, {"uniqueid": "MTK0260:3CP1TO84PU8A7LARLR9UWE9BDOJ52D", "current_trial": 90, "dateTime": 1510691113720, "trialdata": {"rt": -1, "stimulus": "<p id=\"stim\">CRIB</p>", "key_press": -1, "type": "PRES_VIS", "word": "crib", "wordID": 406, "conditions": [24, 1600, "v", 12000], "trial": 2, "serialpos": 1, "trial_type": "single-stim", "trial_index": 90, "time_elapsed": 461678, "internal_node_id": "0.0-63.0"}}, {"uniqueid": "MTK0260:3CP1TO84PU8A7LARLR9UWE9BDOJ52D", "current_trial": 91, "dateTime": 1510691116205, "trialdata": {"rt": -1, "stimulus": "<p id=\"stim\">FOREST</p>", "key_press": -1, "type": "PRES_VIS", "word": "forest", "wordID": 592, "conditions": [24, 1600, "v", 12000], "trial": 2, "serialpos": 2, "trial_type": "single-stim", "trial_index": 91, "time_elapsed": 464163, "internal_node_id": "0.0-64.0"}}, {"uniqueid": "MTK0260:3CP1TO84PU8A7LARLR9UWE9BDOJ52D", "current_trial": 92, "dateTime": 1510691118877, "trialdata": {"rt": -1, "stimulus": "<p id=\"stim\">CRITIC</p>", "key_press": -1, "type": "PRES_VIS", "word": "critic", "wordID": 409, "conditions": [24, 1600, "v", 12000], "trial": 2, "serialpos": 3, "trial_type": "single-stim", "trial_index": 92, "time_elapsed": 466835, "internal_node_id": "0.0-65.0"}}, {"uniqueid": "MTK0260:3CP1TO84PU8A7LARLR9UWE9BDOJ52D", "current_trial": 93, "dateTime": 1510691121630, "trialdata": {"rt": -1, "stimulus": "<p id=\"stim\">MATTRESS</p>", "key_press": -1, "type": "PRES_VIS", "word": "mattress", "wordID": 878, "conditions": [24, 1600, "v", 12000], "trial": 2, "serialpos": 4, "trial_type": "single-stim", "trial_index": 93, "time_elapsed": 469588, "internal_node_id": "0.0-66.0"}}, {"uniqueid": "MTK0260:3CP1TO84PU8A7LARLR9UWE9BDOJ52D", "current_trial": 94, "dateTime": 1510691124269, "trialdata": {"rt": -1, "stimulus": "<p id=\"stim\">FARMER</p>", "key_press": -1, "type": "PRES_VIS", "word": "farmer", "wordID": 552, "conditions": [24, 1600, "v", 12000], "trial": 2, "serialpos": 5, "trial_type": "single-stim", "trial_index": 94, "time_elapsed": 472227, "internal_node_id": "0.0-67.0"}}, {"uniqueid": "MTK0260:3CP1TO84PU8A7LARLR9UWE9BDOJ52D", "current_trial": 95, "dateTime": 1510691126726, "trialdata": {"rt": -1, "stimulus": "<p id=\"stim\">GAVEL</p>", "key_press": -1, "type": "PRES_VIS", "word": "gavel", "wordID": 626, "conditions": [24, 1600, "v", 12000], "trial": 2, "serialpos": 6, "trial_type": "single-stim", "trial_index": 95, "time_elapsed": 474684, "internal_node_id": "0.0-68.0"}}, {"uniqueid": "MTK0260:3CP1TO84PU8A7LARLR9UWE9BDOJ52D", "current_trial": 96, "dateTime": 1510691129243, "trialdata": {"rt": -1, "stimulus": "<p id=\"stim\">BRIEFCASE</p>", "key_press": -1, "type": "PRES_VIS", "word": "briefcase", "wordID": 174, "conditions": [24, 1600, "v", 12000], "trial": 2, "serialpos": 7, "trial_type": "single-stim", "trial_index": 96, "time_elapsed": 477201, "internal_node_id": "0.0-69.0"}}, {"uniqueid": "MTK0260:3CP1TO84PU8A7LARLR9UWE9BDOJ52D", "current_trial": 97, "dateTime": 1510691131834, "trialdata": {"rt": -1, "stimulus": "<p id=\"stim\">SLUG</p>", "key_press": -1, "type": "PRES_VIS", "word": "slug", "wordID": 1328, "conditions": [24, 1600, "v", 12000], "trial": 2, "serialpos": 8, "trial_type": "single-stim", "trial_index": 97, "time_elapsed": 479792, "internal_node_id": "0.0-70.0"}}, {"uniqueid": "MTK0260:3CP1TO84PU8A7LARLR9UWE9BDOJ52D", "current_trial": 98, "dateTime": 1510691134471, "trialdata": {"rt": -1, "stimulus": "<p id=\"stim\">EGYPT</p>", "key_press": -1, "type": "PRES_VIS", "word": "egypt", "wordID": 518, "conditions": [24, 1600, "v", 12000], "trial": 2, "serialpos": 9, "trial_type": "single-stim", "trial_index": 98, "time_elapsed": 482429, "internal_node_id": "0.0-71.0"}}, {"uniqueid": "MTK0260:3CP1TO84PU8A7LARLR9UWE9BDOJ52D", "current_trial": 99, "dateTime": 1510691137242, "trialdata": {"rt": -1, "stimulus": "<p id=\"stim\">FIDDLE</p>", "key_press": -1, "type": "PRES_VIS", "word": "fiddle", "wordID": 560, "conditions": [24, 1600, "v", 12000], "trial": 2, "serialpos": 10, "trial_type": "single-stim", "trial_index": 99, "time_elapsed": 485200, "internal_node_id": "0.0-72.0"}}, {"uniqueid": "MTK0260:3CP1TO84PU8A7LARLR9UWE9BDOJ52D", "current_trial": 100, "dateTime": 1510691139807, "trialdata": {"rt": -1, "stimulus": "<p id=\"stim\">BANJO</p>", "key_press": -1, "type": "PRES_VIS", "word": "banjo", "wordID": 81, "conditions": [24, 1600, "v", 12000], "trial": 2, "serialpos": 11, "trial_type": "single-stim", "trial_index": 100, "time_elapsed": 487765, "internal_node_id": "0.0-73.0"}}, {"uniqueid": "MTK0260:3CP1TO84PU8A7LARLR9UWE9BDOJ52D", "current_trial": 101, "dateTime": 1510691142556, "trialdata": {"rt": -1, "stimulus": "<p id=\"stim\">POSSUM</p>", "key_press": -1, "type": "PRES_VIS", "word": "possum", "wordID": 1111, "conditions": [24, 1600, "v", 12000], "trial": 2, "serialpos": 12, "trial_type": "single-stim", "trial_index": 101, "time_elapsed": 490514, "internal_node_id": "0.0-74.0"}}, {"uniqueid": "MTK0260:3CP1TO84PU8A7LARLR9UWE9BDOJ52D", "current_trial": 102, "dateTime": 1510691145200, "trialdata": {"rt": -1, "stimulus": "<p id=\"stim\">FLASK</p>", "key_press": -1, "type": "PRES_VIS", "word": "flask", "wordID": 575, "conditions": [24, 1600, "v", 12000], "trial": 2, "serialpos": 13, "trial_type": "single-stim", "trial_index": 102, "time_elapsed": 493158, "internal_node_id": "0.0-75.0"}}, {"uniqueid": "MTK0260:3CP1TO84PU8A7LARLR9UWE9BDOJ52D", "current_trial": 103, "dateTime": 1510691147622, "trialdata": {"rt": -1, "stimulus": "<p id=\"stim\">ZIPPER</p>", "key_press": -1, "type": "PRES_VIS", "word": "zipper", "wordID": 1635, "conditions": [24, 1600, "v", 12000], "trial": 2, "serialpos": 14, "trial_type": "single-stim", "trial_index": 103, "time_elapsed": 495580, "internal_node_id": "0.0-76.0"}}, {"uniqueid": "MTK0260:3CP1TO84PU8A7LARLR9UWE9BDOJ52D", "current_trial": 104, "dateTime": 1510691150063, "trialdata": {"rt": -1, "stimulus": "<p id=\"stim\">BISON</p>", "key_press": -1, "type": "PRES_VIS", "word": "bison", "wordID": 130, "conditions": [24, 1600, "v", 12000], "trial": 2, "serialpos": 15, "trial_type": "single-stim", "trial_index": 104, "time_elapsed": 498021, "internal_node_id": "0.0-77.0"}}, {"uniqueid": "MTK0260:3CP1TO84PU8A7LARLR9UWE9BDOJ52D", "current_trial": 105, "dateTime": 1510691152814, "trialdata": {"rt": -1, "stimulus": "<p id=\"stim\">BEAKER</p>", "key_press": -1, "type": "PRES_VIS", "word": "beaker", "wordID": 103, "conditions": [24, 1600, "v", 12000], "trial": 2, "serialpos": 16, "trial_type": "single-stim", "trial_index": 105, "time_elapsed": 500772, "internal_node_id": "0.0-78.0"}}, {"uniqueid": "MTK0260:3CP1TO84PU8A7LARLR9UWE9BDOJ52D", "current_trial": 106, "dateTime": 1510691155242, "trialdata": {"rt": -1, "stimulus": "<p id=\"stim\">POPCORN</p>", "key_press": -1, "type": "PRES_VIS", "word": "popcorn", "wordID": 1103, "conditions": [24, 1600, "v", 12000], "trial": 2, "serialpos": 17, "trial_type": "single-stim", "trial_index": 106, "time_elapsed": 503200, "internal_node_id": "0.0-79.0"}}, {"uniqueid": "MTK0260:3CP1TO84PU8A7LARLR9UWE9BDOJ52D", "current_trial": 107, "dateTime": 1510691157907, "trialdata": {"rt": -1, "stimulus": "<p id=\"stim\">CANDY</p>", "key_press": -1, "type": "PRES_VIS", "word": "candy", "wordID": 229, "conditions": [24, 1600, "v", 12000], "trial": 2, "serialpos": 18, "trial_type": "single-stim", "trial_index": 107, "time_elapsed": 505865, "internal_node_id": "0.0-80.0"}}, {"uniqueid": "MTK0260:3CP1TO84PU8A7LARLR9UWE9BDOJ52D", "current_trial": 108, "dateTime": 1510691160632, "trialdata": {"rt": -1, "stimulus": "<p id=\"stim\">CHEMIST</p>", "key_press": -1, "type": "PRES_VIS", "word": "chemist", "wordID": 291, "conditions": [24, 1600, "v", 12000], "trial": 2, "serialpos": 19, "trial_type": "single-stim", "trial_index": 108, "time_elapsed": 508590, "internal_node_id": "0.0-81.0"}}, {"uniqueid": "MTK0260:3CP1TO84PU8A7LARLR9UWE9BDOJ52D", "current_trial": 109, "dateTime": 1510691163394, "trialdata": {"rt": -1, "stimulus": "<p id=\"stim\">SHOULDER</p>", "key_press": -1, "type": "PRES_VIS", "word": "shoulder", "wordID": 1293, "conditions": [24, 1600, "v", 12000], "trial": 2, "serialpos": 20, "trial_type": "single-stim", "trial_index": 109, "time_elapsed": 511352, "internal_node_id": "0.0-82.0"}}, {"uniqueid": "MTK0260:3CP1TO84PU8A7LARLR9UWE9BDOJ52D", "current_trial": 110, "dateTime": 1510691165891, "trialdata": {"rt": -1, "stimulus": "<p id=\"stim\">QUEEN</p>", "key_press": -1, "type": "PRES_VIS", "word": "queen", "wordID": 1148, "conditions": [24, 1600, "v", 12000], "trial": 2, "serialpos": 21, "trial_type": "single-stim", "trial_index": 110, "time_elapsed": 513849, "internal_node_id": "0.0-83.0"}}, {"uniqueid": "MTK0260:3CP1TO84PU8A7LARLR9UWE9BDOJ52D", "current_trial": 111, "dateTime": 1510691168312, "trialdata": {"rt": -1, "stimulus": "<p id=\"stim\">SISTER</p>", "key_press": -1, "type": "PRES_VIS", "word": "sister", "wordID": 1311, "conditions": [24, 1600, "v", 12000], "trial": 2, "serialpos": 22, "trial_type": "single-stim", "trial_index": 111, "time_elapsed": 516269, "internal_node_id": "0.0-84.0"}}, {"uniqueid": "MTK0260:3CP1TO84PU8A7LARLR9UWE9BDOJ52D", "current_trial": 112, "dateTime": 1510691170727, "trialdata": {"rt": -1, "stimulus": "<p id=\"stim\">HARP</p>", "key_press": -1, "type": "PRES_VIS", "word": "harp", "wordID": 688, "conditions": [24, 1600, "v", 12000], "trial": 2, "serialpos": 23, "trial_type": "single-stim", "trial_index": 112, "time_elapsed": 518685, "internal_node_id": "0.0-85.0"}}, {"uniqueid": "MTK0260:3CP1TO84PU8A7LARLR9UWE9BDOJ52D", "current_trial": 113, "dateTime": 1510691173002, "trialdata": {"rt": -1, "stimulus": "", "key_press": -1, "type": "PRE_RECALL_DELAY", "trial_type": "single-stim", "trial_index": 113, "time_elapsed": 520960, "internal_node_id": "0.0-86.0-0.0"}}, {"uniqueid": "MTK0260:3CP1TO84PU8A7LARLR9UWE9BDOJ52D", "current_trial": 114, "dateTime": 1510691173503, "trialdata": {"rt": -1000, "stimulus": "/static/audio/400Hz.wav", "key_press": -1, "type": "PRE_RECALL_ALERT", "trial_type": "single-audio", "trial_index": 114, "time_elapsed": 521461, "internal_node_id": "0.0-87.0"}}, {"uniqueid": "MTK0260:3CP1TO84PU8A7LARLR9UWE9BDOJ52D", "current_trial": 115, "dateTime": 1510691233506, "trialdata": {"rt": [2788, 4364, 5612, 7214, 9276, 11132, 11916, 13582, 14387, 15299, 17523, 20443, 22780, 24987, 28675], "recwords": ["critic", "mattress", "farmer", "egypt", "banjo", "possum", "zipper", "queen", "harp", "sister", "sponge", "forest", "farmer", "slug", "popcorn"], "type": "FREE_RECALL", "conditions": [24, 1600, "v", 12000], "trial": 2, "trial_type": "free-recall", "trial_index": 115, "time_elapsed": 581462, "internal_node_id": "0.0-88.0-0.0"}}, {"uniqueid": "MTK0260:3CP1TO84PU8A7LARLR9UWE9BDOJ52D", "current_trial": 116, "dateTime": 1510691240843, "trialdata": {"rt": 5332, "key_press": 32, "type": "INSTRUCTIONS", "trial_type": "text", "trial_index": 116, "time_elapsed": 588801, "internal_node_id": "0.0-89.0"}}, {"uniqueid": "MTK0260:3CP1TO84PU8A7LARLR9UWE9BDOJ52D", "current_trial": 117, "dateTime": 1510691266852, "trialdata": {"rt": [3698, 6355, 8586, 10593, 13330, 15353, 17498, 19314, 22738], "responses": ["16", "19", "18", "20", "12", "10", "19", "20", "14"], "num1": [9, 4, 9, 9, 2, 4, 6, 9, 3, 7], "num2": [2, 6, 2, 3, 2, 5, 6, 6, 3, 4], "num3": [5, 9, 7, 8, 7, 1, 7, 5, 8, 5], "type": "DISTRACTOR", "conditions": [24, 1600, "a", 24000], "trial": 3, "trial_type": "math-distractor", "trial_index": 117, "time_elapsed": 614810, "internal_node_id": "0.0-90.0"}}, {"uniqueid": "MTK0260:3CP1TO84PU8A7LARLR9UWE9BDOJ52D", "current_trial": 118, "dateTime": 1510691269857, "trialdata": {"rt": -1, "stimulus": "<p id=\"stim\">10</p>", "key_press": -1, "trial_type": "single-stim", "trial_index": 118, "time_elapsed": 617815, "internal_node_id": "0.0-91.0-0.0"}}, {"uniqueid": "MTK0260:3CP1TO84PU8A7LARLR9UWE9BDOJ52D", "current_trial": 119, "dateTime": 1510691270862, "trialdata": {"rt": -1, "stimulus": "<p id=\"stim\">9</p>", "key_press": -1, "trial_type": "single-stim", "trial_index": 119, "time_elapsed": 618820, "internal_node_id": "0.0-91.0-1.0"}}, {"uniqueid": "MTK0260:3CP1TO84PU8A7LARLR9UWE9BDOJ52D", "current_trial": 120, "dateTime": 1510691271867, "trialdata": {"rt": -1, "stimulus": "<p id=\"stim\">8</p>", "key_press": -1, "trial_type": "single-stim", "trial_index": 120, "time_elapsed": 619824, "internal_node_id": "0.0-91.0-2.0"}}, {"uniqueid": "MTK0260:3CP1TO84PU8A7LARLR9UWE9BDOJ52D", "current_trial": 121, "dateTime": 1510691272870, "trialdata": {"rt": -1, "stimulus": "<p id=\"stim\">7</p>", "key_press": -1, "trial_type": "single-stim", "trial_index": 121, "time_elapsed": 620828, "internal_node_id": "0.0-91.0-3.0"}}, {"uniqueid": "MTK0260:3CP1TO84PU8A7LARLR9UWE9BDOJ52D", "current_trial": 122, "dateTime": 1510691273874, "trialdata": {"rt": -1, "stimulus": "<p id=\"stim\">6</p>", "key_press": -1, "trial_type": "single-stim", "trial_index": 122, "time_elapsed": 621832, "internal_node_id": "0.0-91.0-4.0"}}, {"uniqueid": "MTK0260:3CP1TO84PU8A7LARLR9UWE9BDOJ52D", "current_trial": 123, "dateTime": 1510691274879, "trialdata": {"rt": -1, "stimulus": "<p id=\"stim\">5</p>", "key_press": -1, "trial_type": "single-stim", "trial_index": 123, "time_elapsed": 622836, "internal_node_id": "0.0-91.0-5.0"}}, {"uniqueid": "MTK0260:3CP1TO84PU8A7LARLR9UWE9BDOJ52D", "current_trial": 124, "dateTime": 1510691275882, "trialdata": {"rt": -1, "stimulus": "<p id=\"stim\">4</p>", "key_press": -1, "trial_type": "single-stim", "trial_index": 124, "time_elapsed": 623840, "internal_node_id": "0.0-91.0-6.0"}}, {"uniqueid": "MTK0260:3CP1TO84PU8A7LARLR9UWE9BDOJ52D", "current_trial": 125, "dateTime": 1510691276887, "trialdata": {"rt": -1, "stimulus": "<p id=\"stim\">3</p>", "key_press": -1, "trial_type": "single-stim", "trial_index": 125, "time_elapsed": 624845, "internal_node_id": "0.0-91.0-7.0"}}, {"uniqueid": "MTK0260:3CP1TO84PU8A7LARLR9UWE9BDOJ52D", "current_trial": 126, "dateTime": 1510691277891, "trialdata": {"rt": -1, "stimulus": "<p id=\"stim\">2</p>", "key_press": -1, "trial_type": "single-stim", "trial_index": 126, "time_elapsed": 625849, "internal_node_id": "0.0-91.0-8.0"}}, {"uniqueid": "MTK0260:3CP1TO84PU8A7LARLR9UWE9BDOJ52D", "current_trial": 127, "dateTime": 1510691278894, "trialdata": {"rt": -1, "stimulus": "<p id=\"stim\">1</p>", "key_press": -1, "trial_type": "single-stim", "trial_index": 127, "time_elapsed": 626852, "internal_node_id": "0.0-91.0-9.0"}}, {"uniqueid": "MTK0260:3CP1TO84PU8A7LARLR9UWE9BDOJ52D", "current_trial": 128, "dateTime": 1510691280398, "trialdata": {"rt": -1, "stimulus": "<p id=\"stim\">+</p>", "key_press": -1, "type": "FIXATION", "trial_type": "single-stim", "trial_index": 128, "time_elapsed": 628356, "internal_node_id": "0.0-92.0-0.0"}}, {"uniqueid": "MTK0260:3CP1TO84PU8A7LARLR9UWE9BDOJ52D", "current_trial": 129, "dateTime": 1510691282984, "trialdata": {"rt": -1000, "stimulus": "/static/audio/wordpool/PARSLEY.wav", "key_press": -1, "type": "PRES_AUD", "word": "parsley", "wordID": 1015, "conditions": [24, 1600, "a", 24000], "trial": 3, "serialpos": 0, "trial_type": "single-audio", "trial_index": 129, "time_elapsed": 630942, "internal_node_id": "0.0-93.0"}}, {"uniqueid": "MTK0260:3CP1TO84PU8A7LARLR9UWE9BDOJ52D", "current_trial": 130, "dateTime": 1510691285644, "trialdata": {"rt": -1000, "stimulus": "/static/audio/wordpool/SOFTBALL.wav", "key_press": -1, "type": "PRES_AUD", "word": "softball", "wordID": 1342, "conditions": [24, 1600, "a", 24000], "trial": 3, "serialpos": 1, "trial_type": "single-audio", "trial_index": 130, "time_elapsed": 633602, "internal_node_id": "0.0-94.0"}}, {"uniqueid": "MTK0260:3CP1TO84PU8A7LARLR9UWE9BDOJ52D", "current_trial": 131, "dateTime": 1510691288093, "trialdata": {"rt": -1000, "stimulus": "/static/audio/wordpool/PILOT.wav", "key_press": -1, "type": "PRES_AUD", "word": "pilot", "wordID": 1069, "conditions": [24, 1600, "a", 24000], "trial": 3, "serialpos": 2, "trial_type": "single-audio", "trial_index": 131, "time_elapsed": 636051, "internal_node_id": "0.0-95.0"}}, {"uniqueid": "MTK0260:3CP1TO84PU8A7LARLR9UWE9BDOJ52D", "current_trial": 132, "dateTime": 1510691290560, "trialdata": {"rt": -1000, "stimulus": "/static/audio/wordpool/MILDEW.wav", "key_press": -1, "type": "PRES_AUD", "word": "mildew", "wordID": 892, "conditions": [24, 1600, "a", 24000], "trial": 3, "serialpos": 3, "trial_type": "single-audio", "trial_index": 132, "time_elapsed": 638518, "internal_node_id": "0.0-96.0"}}, {"uniqueid": "MTK0260:3CP1TO84PU8A7LARLR9UWE9BDOJ52D", "current_trial": 133, "dateTime": 1510691293270, "trialdata": {"rt": -1000, "stimulus": "/static/audio/wordpool/SHARK.wav", "key_press": -1, "type": "PRES_AUD", "word": "shark", "wordID": 1274, "conditions": [24, 1600, "a", 24000], "trial": 3, "serialpos": 4, "trial_type": "single-audio", "trial_index": 133, "time_elapsed": 641227, "internal_node_id": "0.0-97.0"}}, {"uniqueid": "MTK0260:3CP1TO84PU8A7LARLR9UWE9BDOJ52D", "current_trial": 134, "dateTime": 1510691295692, "trialdata": {"rt": -1000, "stimulus": "/static/audio/wordpool/TURNIP.wav", "key_press": -1, "type": "PRES_AUD", "word": "turnip", "wordID": 1520, "conditions": [24, 1600, "a", 24000], "trial": 3, "serialpos": 5, "trial_type": "single-audio", "trial_index": 134, "time_elapsed": 643650, "internal_node_id": "0.0-98.0"}}, {"uniqueid": "MTK0260:3CP1TO84PU8A7LARLR9UWE9BDOJ52D", "current_trial": 135, "dateTime": 1510691298275, "trialdata": {"rt": -1000, "stimulus": "/static/audio/wordpool/CAFE.wav", "key_press": -1, "type": "PRES_AUD", "word": "cafe", "wordID": 215, "conditions": [24, 1600, "a", 24000], "trial": 3, "serialpos": 6, "trial_type": "single-audio", "trial_index": 135, "time_elapsed": 646233, "internal_node_id": "0.0-99.0"}}, {"uniqueid": "MTK0260:3CP1TO84PU8A7LARLR9UWE9BDOJ52D", "current_trial": 136, "dateTime": 1510691300838, "trialdata": {"rt": -1000, "stimulus": "/static/audio/wordpool/DINER.wav", "key_press": -1, "type": "PRES_AUD", "word": "diner", "wordID": 466, "conditions": [24, 1600, "a", 24000], "trial": 3, "serialpos": 7, "trial_type": "single-audio", "trial_index": 136, "time_elapsed": 648796, "internal_node_id": "0.0-100.0"}}, {"uniqueid": "MTK0260:3CP1TO84PU8A7LARLR9UWE9BDOJ52D", "current_trial": 137, "dateTime": 1510691303511, "trialdata": {"rt": -1000, "stimulus": "/static/audio/wordpool/BODY.wav", "key_press": -1, "type": "PRES_AUD", "word": "body", "wordID": 144, "conditions": [24, 1600, "a", 24000], "trial": 3, "serialpos": 8, "trial_type": "single-audio", "trial_index": 137, "time_elapsed": 651469, "internal_node_id": "0.0-101.0"}}, {"uniqueid": "MTK0260:3CP1TO84PU8A7LARLR9UWE9BDOJ52D", "current_trial": 138, "dateTime": 1510691305989, "trialdata": {"rt": -1000, "stimulus": "/static/audio/wordpool/TURTLE.wav", "key_press": -1, "type": "PRES_AUD", "word": "turtle", "wordID": 1521, "conditions": [24, 1600, "a", 24000], "trial": 3, "serialpos": 9, "trial_type": "single-audio", "trial_index": 138, "time_elapsed": 653947, "internal_node_id": "0.0-102.0"}}, {"uniqueid": "MTK0260:3CP1TO84PU8A7LARLR9UWE9BDOJ52D", "current_trial": 139, "dateTime": 1510691308712, "trialdata": {"rt": -1000, "stimulus": "/static/audio/wordpool/ORANGE.wav", "key_press": -1, "type": "PRES_AUD", "word": "orange", "wordID": 979, "conditions": [24, 1600, "a", 24000], "trial": 3, "serialpos": 10, "trial_type": "single-audio", "trial_index": 139, "time_elapsed": 656670, "internal_node_id": "0.0-103.0"}}, {"uniqueid": "MTK0260:3CP1TO84PU8A7LARLR9UWE9BDOJ52D", "current_trial": 140, "dateTime": 1510691311405, "trialdata": {"rt": -1000, "stimulus": "/static/audio/wordpool/FRUIT.wav", "key_press": -1, "type": "PRES_AUD", "word": "fruit", "wordID": 609, "conditions": [24, 1600, "a", 24000], "trial": 3, "serialpos": 11, "trial_type": "single-audio", "trial_index": 140, "time_elapsed": 659363, "internal_node_id": "0.0-104.0"}}, {"uniqueid": "MTK0260:3CP1TO84PU8A7LARLR9UWE9BDOJ52D", "current_trial": 141, "dateTime": 1510691313954, "trialdata": {"rt": -1000, "stimulus": "/static/audio/wordpool/OYSTER.wav", "key_press": -1, "type": "PRES_AUD", "word": "oyster", "wordID": 994, "conditions": [24, 1600, "a", 24000], "trial": 3, "serialpos": 12, "trial_type": "single-audio", "trial_index": 141, "time_elapsed": 661912, "internal_node_id": "0.0-105.0"}}, {"uniqueid": "MTK0260:3CP1TO84PU8A7LARLR9UWE9BDOJ52D", "current_trial": 142, "dateTime": 1510691316432, "trialdata": {"rt": -1000, "stimulus": "/static/audio/wordpool/THREAD.wav", "key_press": -1, "type": "PRES_AUD", "word": "thread", "wordID": 1459, "conditions": [24, 1600, "a", 24000], "trial": 3, "serialpos": 13, "trial_type": "single-audio", "trial_index": 142, "time_elapsed": 664390, "internal_node_id": "0.0-106.0"}}, {"uniqueid": "MTK0260:3CP1TO84PU8A7LARLR9UWE9BDOJ52D", "current_trial": 143, "dateTime": 1510691318841, "trialdata": {"rt": -1000, "stimulus": "/static/audio/wordpool/EYELASH.wav", "key_press": -1, "type": "PRES_AUD", "word": "eyelash", "wordID": 545, "conditions": [24, 1600, "a", 24000], "trial": 3, "serialpos": 14, "trial_type": "single-audio", "trial_index": 143, "time_elapsed": 666799, "internal_node_id": "0.0-107.0"}}, {"uniqueid": "MTK0260:3CP1TO84PU8A7LARLR9UWE9BDOJ52D", "current_trial": 144, "dateTime": 1510691321267, "trialdata": {"rt": -1000, "stimulus": "/static/audio/wordpool/PISTON.wav", "key_press": -1, "type": "PRES_AUD", "word": "piston", "wordID": 1075, "conditions": [24, 1600, "a", 24000], "trial": 3, "serialpos": 15, "trial_type": "single-audio", "trial_index": 144, "time_elapsed": 669225, "internal_node_id": "0.0-108.0"}}, {"uniqueid": "MTK0260:3CP1TO84PU8A7LARLR9UWE9BDOJ52D", "current_trial": 145, "dateTime": 1510691323729, "trialdata": {"rt": -1000, "stimulus": "/static/audio/wordpool/VALVE.wav", "key_press": -1, "type": "PRES_AUD", "word": "valve", "wordID": 1545, "conditions": [24, 1600, "a", 24000], "trial": 3, "serialpos": 16, "trial_type": "single-audio", "trial_index": 145, "time_elapsed": 671687, "internal_node_id": "0.0-109.0"}}, {"uniqueid": "MTK0260:3CP1TO84PU8A7LARLR9UWE9BDOJ52D", "current_trial": 146, "dateTime": 1510691326131, "trialdata": {"rt": -1000, "stimulus": "/static/audio/wordpool/SCALPEL.wav", "key_press": -1, "type": "PRES_AUD", "word": "scalpel", "wordID": 1242, "conditions": [24, 1600, "a", 24000], "trial": 3, "serialpos": 17, "trial_type": "single-audio", "trial_index": 146, "time_elapsed": 674089, "internal_node_id": "0.0-110.0"}}, {"uniqueid": "MTK0260:3CP1TO84PU8A7LARLR9UWE9BDOJ52D", "current_trial": 147, "dateTime": 1510691328764, "trialdata": {"rt": -1000, "stimulus": "/static/audio/wordpool/DOLPHIN.wav", "key_press": -1, "type": "PRES_AUD", "word": "dolphin", "wordID": 482, "conditions": [24, 1600, "a", 24000], "trial": 3, "serialpos": 18, "trial_type": "single-audio", "trial_index": 147, "time_elapsed": 676722, "internal_node_id": "0.0-111.0"}}, {"uniqueid": "MTK0260:3CP1TO84PU8A7LARLR9UWE9BDOJ52D", "current_trial": 148, "dateTime": 1510691331339, "trialdata": {"rt": -1000, "stimulus": "/static/audio/wordpool/SANDWICH.wav", "key_press": -1, "type": "PRES_AUD", "word": "sandwich", "wordID": 1231, "conditions": [24, 1600, "a", 24000], "trial": 3, "serialpos": 19, "trial_type": "single-audio", "trial_index": 148, "time_elapsed": 679297, "internal_node_id": "0.0-112.0"}}, {"uniqueid": "MTK0260:3CP1TO84PU8A7LARLR9UWE9BDOJ52D", "current_trial": 149, "dateTime": 1510691334003, "trialdata": {"rt": -1000, "stimulus": "/static/audio/wordpool/RAZOR.wav", "key_press": -1, "type": "PRES_AUD", "word": "razor", "wordID": 1170, "conditions": [24, 1600, "a", 24000], "trial": 3, "serialpos": 20, "trial_type": "single-audio", "trial_index": 149, "time_elapsed": 681961, "internal_node_id": "0.0-113.0"}}, {"uniqueid": "MTK0260:3CP1TO84PU8A7LARLR9UWE9BDOJ52D", "current_trial": 150, "dateTime": 1510691336685, "trialdata": {"rt": -1000, "stimulus": "/static/audio/wordpool/RADISH.wav", "key_press": -1, "type": "PRES_AUD", "word": "radish", "wordID": 1157, "conditions": [24, 1600, "a", 24000], "trial": 3, "serialpos": 21, "trial_type": "single-audio", "trial_index": 150, "time_elapsed": 684643, "internal_node_id": "0.0-114.0"}}, {"uniqueid": "MTK0260:3CP1TO84PU8A7LARLR9UWE9BDOJ52D", "current_trial": 151, "dateTime": 1510691339321, "trialdata": {"rt": -1000, "stimulus": "/static/audio/wordpool/SPOOL.wav", "key_press": -1, "type": "PRES_AUD", "word": "spool", "wordID": 1355, "conditions": [24, 1600, "a", 24000], "trial": 3, "serialpos": 22, "trial_type": "single-audio", "trial_index": 151, "time_elapsed": 687279, "internal_node_id": "0.0-115.0"}}, {"uniqueid": "MTK0260:3CP1TO84PU8A7LARLR9UWE9BDOJ52D", "current_trial": 152, "dateTime": 1510691342049, "trialdata": {"rt": -1000, "stimulus": "/static/audio/wordpool/AGENT.wav", "key_press": -1, "type": "PRES_AUD", "word": "agent", "wordID": 9, "conditions": [24, 1600, "a", 24000], "trial": 3, "serialpos": 23, "trial_type": "single-audio", "trial_index": 152, "time_elapsed": 690007, "internal_node_id": "0.0-116.0"}}, {"uniqueid": "MTK0260:3CP1TO84PU8A7LARLR9UWE9BDOJ52D", "current_trial": 153, "dateTime": 1510691343256, "trialdata": {"rt": -1, "stimulus": "", "key_press": -1, "type": "PRE_RECALL_DELAY", "trial_type": "single-stim", "trial_index": 153, "time_elapsed": 691214, "internal_node_id": "0.0-117.0-0.0"}}, {"uniqueid": "MTK0260:3CP1TO84PU8A7LARLR9UWE9BDOJ52D", "current_trial": 154, "dateTime": 1510691343758, "trialdata": {"rt": -1000, "stimulus": "/static/audio/400Hz.wav", "key_press": -1, "type": "PRE_RECALL_ALERT", "trial_type": "single-audio", "trial_index": 154, "time_elapsed": 691716, "internal_node_id": "0.0-118.0"}}, {"uniqueid": "MTK0260:3CP1TO84PU8A7LARLR9UWE9BDOJ52D", "current_trial": 155, "dateTime": 1510691403764, "trialdata": {"rt": [3144, 4728, 6552, 7335, 10063, 12031, 13375, 15319, 16127, 18887, 22775, 26174, 30903, 32623, 34086], "recwords": ["valve", "body", "cafe", "diner", "parsley", "pilot", "shark", "orange", "fruit", "eyelash", "sandwich", "razor", "scalpel", "radish", "sandwich"], "type": "FREE_RECALL", "conditions": [24, 1600, "a", 24000], "trial": 3, "trial_type": "free-recall", "trial_index": 155, "time_elapsed": 751719, "internal_node_id": "0.0-119.0-0.0"}}, {"uniqueid": "MTK0260:3CP1TO84PU8A7LARLR9UWE9BDOJ52D", "current_trial": 156, "dateTime": 1510691407885, "trialdata": {"rt": 2121, "key_press": 32, "type": "INSTRUCTIONS", "trial_type": "text", "trial_index": 156, "time_elapsed": 755843, "internal_node_id": "0.0-120.0"}}, {"uniqueid": "MTK0260:3CP1TO84PU8A7LARLR9UWE9BDOJ52D", "current_trial": 157, "dateTime": 1510691421892, "trialdata": {"rt": [1483, 8086, 10876], "responses": ["21", "20", "22"], "num1": [7, 8, 8, 7], "num2": [7, 5, 6, 2], "num3": [7, 7, 8, 7], "type": "DISTRACTOR", "conditions": [24, 800, "a", 12000], "trial": 4, "trial_type": "math-distractor", "trial_index": 157, "time_elapsed": 769850, "internal_node_id": "0.0-121.0"}}, {"uniqueid": "MTK0260:3CP1TO84PU8A7LARLR9UWE9BDOJ52D", "current_trial": 158, "dateTime": 1510691424898, "trialdata": {"rt": -1, "stimulus": "<p id=\"stim\">10</p>", "key_press": -1, "trial_type": "single-stim", "trial_index": 158, "time_elapsed": 772856, "internal_node_id": "0.0-122.0-0.0"}}, {"uniqueid": "MTK0260:3CP1TO84PU8A7LARLR9UWE9BDOJ52D", "current_trial": 159, "dateTime": 1510691425902, "trialdata": {"rt": -1, "stimulus": "<p id=\"stim\">9</p>", "key_press": -1, "trial_type": "single-stim", "trial_index": 159, "time_elapsed": 773860, "internal_node_id": "0.0-122.0-1.0"}}, {"uniqueid": "MTK0260:3CP1TO84PU8A7LARLR9UWE9BDOJ52D", "current_trial": 160, "dateTime": 1510691426907, "trialdata": {"rt": -1, "stimulus": "<p id=\"stim\">8</p>", "key_press": -1, "trial_type": "single-stim", "trial_index": 160, "time_elapsed": 774865, "internal_node_id": "0.0-122.0-2.0"}}, {"uniqueid": "MTK0260:3CP1TO84PU8A7LARLR9UWE9BDOJ52D", "current_trial": 161, "dateTime": 1510691427910, "trialdata": {"rt": -1, "stimulus": "<p id=\"stim\">7</p>", "key_press": -1, "trial_type": "single-stim", "trial_index": 161, "time_elapsed": 775868, "internal_node_id": "0.0-122.0-3.0"}}, {"uniqueid": "MTK0260:3CP1TO84PU8A7LARLR9UWE9BDOJ52D", "current_trial": 162, "dateTime": 1510691428914, "trialdata": {"rt": -1, "stimulus": "<p id=\"stim\">6</p>", "key_press": -1, "trial_type": "single-stim", "trial_index": 162, "time_elapsed": 776872, "internal_node_id": "0.0-122.0-4.0"}}, {"uniqueid": "MTK0260:3CP1TO84PU8A7LARLR9UWE9BDOJ52D", "current_trial": 163, "dateTime": 1510691429918, "trialdata": {"rt": -1, "stimulus": "<p id=\"stim\">5</p>", "key_press": -1, "trial_type": "single-stim", "trial_index": 163, "time_elapsed": 777876, "internal_node_id": "0.0-122.0-5.0"}}, {"uniqueid": "MTK0260:3CP1TO84PU8A7LARLR9UWE9BDOJ52D", "current_trial": 164, "dateTime": 1510691430923, "trialdata": {"rt": -1, "stimulus": "<p id=\"stim\">4</p>", "key_press": -1, "trial_type": "single-stim", "trial_index": 164, "time_elapsed": 778880, "internal_node_id": "0.0-122.0-6.0"}}, {"uniqueid": "MTK0260:3CP1TO84PU8A7LARLR9UWE9BDOJ52D", "current_trial": 165, "dateTime": 1510691431928, "trialdata": {"rt": -1, "stimulus": "<p id=\"stim\">3</p>", "key_press": -1, "trial_type": "single-stim", "trial_index": 165, "time_elapsed": 779886, "internal_node_id": "0.0-122.0-7.0"}}, {"uniqueid": "MTK0260:3CP1TO84PU8A7LARLR9UWE9BDOJ52D", "current_trial": 166, "dateTime": 1510691432931, "trialdata": {"rt": -1, "stimulus": "<p id=\"stim\">2</p>", "key_press": -1, "trial_type": "single-stim", "trial_index": 166, "time_elapsed": 780889, "internal_node_id": "0.0-122.0-8.0"}}, {"uniqueid": "MTK0260:3CP1TO84PU8A7LARLR9UWE9BDOJ52D", "current_trial": 167, "dateTime": 1510691433935, "trialdata": {"rt": -1, "stimulus": "<p id=\"stim\">1</p>", "key_press": -1, "trial_type": "single-stim", "trial_index": 167, "time_elapsed": 781893, "internal_node_id": "0.0-122.0-9.0"}}, {"uniqueid": "MTK0260:3CP1TO84PU8A7LARLR9UWE9BDOJ52D", "current_trial": 168, "dateTime": 1510691435438, "trialdata": {"rt": -1, "stimulus": "<p id=\"stim\">+</p>", "key_press": -1, "type": "FIXATION", "trial_type": "single-stim", "trial_index": 168, "time_elapsed": 783396, "internal_node_id": "0.0-123.0-0.0"}}, {"uniqueid": "MTK0260:3CP1TO84PU8A7LARLR9UWE9BDOJ52D", "current_trial": 169, "dateTime": 1510691437433, "trialdata": {"rt": -1000, "stimulus": "/static/audio/wordpool/APPLE.wav", "key_press": -1, "type": "PRES_AUD", "word": "apple", "wordID": 32, "conditions": [24, 800, "a", 12000], "trial": 4, "serialpos": 0, "trial_type": "single-audio", "trial_index": 169, "time_elapsed": 785391, "internal_node_id": "0.0-124.0"}}, {"uniqueid": "MTK0260:3CP1TO84PU8A7LARLR9UWE9BDOJ52D", "current_trial": 170, "dateTime": 1510691439344, "trialdata": {"rt": -1000, "stimulus": "/static/audio/wordpool/SHRUB.wav", "key_press": -1, "type": "PRES_AUD", "word": "shrub", "wordID": 1298, "conditions": [24, 800, "a", 12000], "trial": 4, "serialpos": 1, "trial_type": "single-audio", "trial_index": 170, "time_elapsed": 787302, "internal_node_id": "0.0-125.0"}}, {"uniqueid": "MTK0260:3CP1TO84PU8A7LARLR9UWE9BDOJ52D", "current_trial": 171, "dateTime": 1510691441023, "trialdata": {"rt": -1000, "stimulus": "/static/audio/wordpool/STATUE.wav", "key_press": -1, "type": "PRES_AUD", "word": "statue", "wordID": 1373, "conditions": [24, 800, "a", 12000], "trial": 4, "serialpos": 2, "trial_type": "single-audio", "trial_index": 171, "time_elapsed": 788980, "internal_node_id": "0.0-126.0"}}, {"uniqueid": "MTK0260:3CP1TO84PU8A7LARLR9UWE9BDOJ52D", "current_trial": 172, "dateTime": 1510691442810, "trialdata": {"rt": -1000, "stimulus": "/static/audio/wordpool/TOASTER.wav", "key_press": -1, "type": "PRES_AUD", "word": "toaster", "wordID": 1471, "conditions": [24, 800, "a", 12000], "trial": 4, "serialpos": 3, "trial_type": "single-audio", "trial_index": 172, "time_elapsed": 790768, "internal_node_id": "0.0-127.0"}}, {"uniqueid": "MTK0260:3CP1TO84PU8A7LARLR9UWE9BDOJ52D", "current_trial": 173, "dateTime": 1510691444435, "trialdata": {"rt": -1000, "stimulus": "/static/audio/wordpool/SCARF.wav", "key_press": -1, "type": "PRES_AUD", "word": "scarf", "wordID": 1245, "conditions": [24, 800, "a", 12000], "trial": 4, "serialpos": 4, "trial_type": "single-audio", "trial_index": 173, "time_elapsed": 792393, "internal_node_id": "0.0-128.0"}}, {"uniqueid": "MTK0260:3CP1TO84PU8A7LARLR9UWE9BDOJ52D", "current_trial": 174, "dateTime": 1510691446258, "trialdata": {"rt": -1000, "stimulus": "/static/audio/wordpool/BLOUSE.wav", "key_press": -1, "type": "PRES_AUD", "word": "blouse", "wordID": 138, "conditions": [24, 800, "a", 12000], "trial": 4, "serialpos": 5, "trial_type": "single-audio", "trial_index": 174, "time_elapsed": 794216, "internal_node_id": "0.0-129.0"}}, {"uniqueid": "MTK0260:3CP1TO84PU8A7LARLR9UWE9BDOJ52D", "current_trial": 175, "dateTime": 1510691447982, "trialdata": {"rt": -1000, "stimulus": "/static/audio/wordpool/ORCHID.wav", "key_press": -1, "type": "PRES_AUD", "word": "orchid", "wordID": 981, "conditions": [24, 800, "a", 12000], "trial": 4, "serialpos": 6, "trial_type": "single-audio", "trial_index": 175, "time_elapsed": 795939, "internal_node_id": "0.0-130.0"}}, {"uniqueid": "MTK0260:3CP1TO84PU8A7LARLR9UWE9BDOJ52D", "current_trial": 176, "dateTime": 1510691449704, "trialdata": {"rt": -1000, "stimulus": "/static/audio/wordpool/PERMIT.wav", "key_press": -1, "type": "PRES_AUD", "word": "permit", "wordID": 1050, "conditions": [24, 800, "a", 12000], "trial": 4, "serialpos": 7, "trial_type": "single-audio", "trial_index": 176, "time_elapsed": 797662, "internal_node_id": "0.0-131.0"}}, {"uniqueid": "MTK0260:3CP1TO84PU8A7LARLR9UWE9BDOJ52D", "current_trial": 177, "dateTime": 1510691451371, "trialdata": {"rt": -1000, "stimulus": "/static/audio/wordpool/LASER.wav", "key_press": -1, "type": "PRES_AUD", "word": "laser", "wordID": 800, "conditions": [24, 800, "a", 12000], "trial": 4, "serialpos": 8, "trial_type": "single-audio", "trial_index": 177, "time_elapsed": 799329, "internal_node_id": "0.0-132.0"}}, {"uniqueid": "MTK0260:3CP1TO84PU8A7LARLR9UWE9BDOJ52D", "current_trial": 178, "dateTime": 1510691453142, "trialdata": {"rt": -1000, "stimulus": "/static/audio/wordpool/TWEEZERS.wav", "key_press": -1, "type": "PRES_AUD", "word": "tweezers", "wordID": 1525, "conditions": [24, 800, "a", 12000], "trial": 4, "serialpos": 9, "trial_type": "single-audio", "trial_index": 178, "time_elapsed": 801100, "internal_node_id": "0.0-133.0"}}, {"uniqueid": "MTK0260:3CP1TO84PU8A7LARLR9UWE9BDOJ52D", "current_trial": 179, "dateTime": 1510691454756, "trialdata": {"rt": -1000, "stimulus": "/static/audio/wordpool/LIGHTNING.wav", "key_press": -1, "type": "PRES_AUD", "word": "lightning", "wordID": 819, "conditions": [24, 800, "a", 12000], "trial": 4, "serialpos": 10, "trial_type": "single-audio", "trial_index": 179, "time_elapsed": 802714, "internal_node_id": "0.0-134.0"}}, {"uniqueid": "MTK0260:3CP1TO84PU8A7LARLR9UWE9BDOJ52D", "current_trial": 180, "dateTime": 1510691456501, "trialdata": {"rt": -1000, "stimulus": "/static/audio/wordpool/DORM.wav", "key_press": -1, "type": "PRES_AUD", "word": "dorm", "wordID": 487, "conditions": [24, 800, "a", 12000], "trial": 4, "serialpos": 11, "trial_type": "single-audio", "trial_index": 180, "time_elapsed": 804459, "internal_node_id": "0.0-135.0"}}, {"uniqueid": "MTK0260:3CP1TO84PU8A7LARLR9UWE9BDOJ52D", "current_trial": 181, "dateTime": 1510691458191, "trialdata": {"rt": -1000, "stimulus": "/static/audio/wordpool/LACE.wav", "key_press": -1, "type": "PRES_AUD", "word": "lace", "wordID": 791, "conditions": [24, 800, "a", 12000], "trial": 4, "serialpos": 12, "trial_type": "single-audio", "trial_index": 181, "time_elapsed": 806149, "internal_node_id": "0.0-136.0"}}, {"uniqueid": "MTK0260:3CP1TO84PU8A7LARLR9UWE9BDOJ52D", "current_trial": 182, "dateTime": 1510691459939, "trialdata": {"rt": -1000, "stimulus": "/static/audio/wordpool/XEROX.wav", "key_press": -1, "type": "PRES_AUD", "word": "xerox", "wordID": 1627, "conditions": [24, 800, "a", 12000], "trial": 4, "serialpos": 13, "trial_type": "single-audio", "trial_index": 182, "time_elapsed": 807897, "internal_node_id": "0.0-137.0"}}, {"uniqueid": "MTK0260:3CP1TO84PU8A7LARLR9UWE9BDOJ52D", "current_trial": 183, "dateTime": 1510691461700, "trialdata": {"rt": -1000, "stimulus": "/static/audio/wordpool/TROUT.wav", "key_press": -1, "type": "PRES_AUD", "word": "trout", "wordID": 1510, "conditions": [24, 800, "a", 12000], "trial": 4, "serialpos": 14, "trial_type": "single-audio", "trial_index": 183, "time_elapsed": 809657, "internal_node_id": "0.0-138.0"}}, {"uniqueid": "MTK0260:3CP1TO84PU8A7LARLR9UWE9BDOJ52D", "current_trial": 184, "dateTime": 1510691463655, "trialdata": {"rt": -1000, "stimulus": "/static/audio/wordpool/COBRA.wav", "key_press": -1, "type": "PRES_AUD", "word": "cobra", "wordID": 335, "conditions": [24, 800, "a", 12000], "trial": 4, "serialpos": 15, "trial_type": "single-audio", "trial_index": 184, "time_elapsed": 811612, "internal_node_id": "0.0-139.0"}}, {"uniqueid": "MTK0260:3CP1TO84PU8A7LARLR9UWE9BDOJ52D", "current_trial": 185, "dateTime": 1510691465315, "trialdata": {"rt": -1000, "stimulus": "/static/audio/wordpool/CARROT.wav", "key_press": -1, "type": "PRES_AUD", "word": "carrot", "wordID": 248, "conditions": [24, 800, "a", 12000], "trial": 4, "serialpos": 16, "trial_type": "single-audio", "trial_index": 185, "time_elapsed": 813272, "internal_node_id": "0.0-140.0"}}, {"uniqueid": "MTK0260:3CP1TO84PU8A7LARLR9UWE9BDOJ52D", "current_trial": 186, "dateTime": 1510691466981, "trialdata": {"rt": -1000, "stimulus": "/static/audio/wordpool/PEACH.wav", "key_press": -1, "type": "PRES_AUD", "word": "peach", "wordID": 1030, "conditions": [24, 800, "a", 12000], "trial": 4, "serialpos": 17, "trial_type": "single-audio", "trial_index": 186, "time_elapsed": 814939, "internal_node_id": "0.0-141.0"}}, {"uniqueid": "MTK0260:3CP1TO84PU8A7LARLR9UWE9BDOJ52D", "current_trial": 187, "dateTime": 1510691468955, "trialdata": {"rt": -1000, "stimulus": "/static/audio/wordpool/PATROL.wav", "key_press": -1, "type": "PRES_AUD", "word": "patrol", "wordID": 1026, "conditions": [24, 800, "a", 12000], "trial": 4, "serialpos": 18, "trial_type": "single-audio", "trial_index": 187, "time_elapsed": 816913, "internal_node_id": "0.0-142.0"}}, {"uniqueid": "MTK0260:3CP1TO84PU8A7LARLR9UWE9BDOJ52D", "current_trial": 188, "dateTime": 1510691470939, "trialdata": {"rt": -1000, "stimulus": "/static/audio/wordpool/POLICE.wav", "key_press": -1, "type": "PRES_AUD", "word": "police", "wordID": 1097, "conditions": [24, 800, "a", 12000], "trial": 4, "serialpos": 19, "trial_type": "single-audio", "trial_index": 188, "time_elapsed": 818897, "internal_node_id": "0.0-143.0"}}, {"uniqueid": "MTK0260:3CP1TO84PU8A7LARLR9UWE9BDOJ52D", "current_trial": 189, "dateTime": 1510691472849, "trialdata": {"rt": -1000, "stimulus": "/static/audio/wordpool/MARSH.wav", "key_press": -1, "type": "PRES_AUD", "word": "marsh", "wordID": 873, "conditions": [24, 800, "a", 12000], "trial": 4, "serialpos": 20, "trial_type": "single-audio", "trial_index": 189, "time_elapsed": 820807, "internal_node_id": "0.0-144.0"}}, {"uniqueid": "MTK0260:3CP1TO84PU8A7LARLR9UWE9BDOJ52D", "current_trial": 190, "dateTime": 1510691474771, "trialdata": {"rt": -1000, "stimulus": "/static/audio/wordpool/GOBLIN.wav", "key_press": -1, "type": "PRES_AUD", "word": "goblin", "wordID": 644, "conditions": [24, 800, "a", 12000], "trial": 4, "serialpos": 21, "trial_type": "single-audio", "trial_index": 190, "time_elapsed": 822729, "internal_node_id": "0.0-145.0"}}, {"uniqueid": "MTK0260:3CP1TO84PU8A7LARLR9UWE9BDOJ52D", "current_trial": 191, "dateTime": 1510691476682, "trialdata": {"rt": -1000, "stimulus": "/static/audio/wordpool/GRAPE.wav", "key_press": -1, "type": "PRES_AUD", "word": "grape", "wordID": 653, "conditions": [24, 800, "a", 12000], "trial": 4, "serialpos": 22, "trial_type": "single-audio", "trial_index": 191, "time_elapsed": 824640, "internal_node_id": "0.0-146.0"}}, {"uniqueid": "MTK0260:3CP1TO84PU8A7LARLR9UWE9BDOJ52D", "current_trial": 192, "dateTime": 1510691478484, "trialdata": {"rt": -1000, "stimulus": "/static/audio/wordpool/MARINE.wav", "key_press": -1, "type": "PRES_AUD", "word": "marine", "wordID": 868, "conditions": [24, 800, "a", 12000], "trial": 4, "serialpos": 23, "trial_type": "single-audio", "trial_index": 192, "time_elapsed": 826442, "internal_node_id": "0.0-147.0"}}, {"uniqueid": "MTK0260:3CP1TO84PU8A7LARLR9UWE9BDOJ52D", "current_trial": 193, "dateTime": 1510691479738, "trialdata": {"rt": -1, "stimulus": "", "key_press": -1, "type": "PRE_RECALL_DELAY", "trial_type": "single-stim", "trial_index": 193, "time_elapsed": 827696, "internal_node_id": "0.0-148.0-0.0"}}, {"uniqueid": "MTK0260:3CP1TO84PU8A7LARLR9UWE9BDOJ52D", "current_trial": 194, "dateTime": 1510691480239, "trialdata": {"rt": -1000, "stimulus": "/static/audio/400Hz.wav", "key_press": -1, "type": "PRE_RECALL_ALERT", "trial_type": "single-audio", "trial_index": 194, "time_elapsed": 828197, "internal_node_id": "0.0-149.0"}}, {"uniqueid": "MTK0260:3CP1TO84PU8A7LARLR9UWE9BDOJ52D", "current_trial": 195, "dateTime": 1510691540246, "trialdata": {"rt": [2327, 3367, 4743, 5879, 10694, 11679, 12519, 14511, 15751, 18558, 19287], "recwords": ["marine", "grape", "cobra", "police", "scarf", "permit", "laser", "toaster", "shrub", "dorm", "lace"], "type": "FREE_RECALL", "conditions": [24, 800, "a", 12000], "trial": 4, "trial_type": "free-recall", "trial_index": 195, "time_elapsed": 888201, "internal_node_id": "0.0-150.0-0.0"}}, {"uniqueid": "MTK0260:3CP1TO84PU8A7LARLR9UWE9BDOJ52D", "current_trial": 196, "dateTime": 1510691543813, "trialdata": {"rt": 1562, "key_press": 32, "type": "INSTRUCTIONS", "trial_type": "text", "trial_index": 196, "time_elapsed": 891771, "internal_node_id": "0.0-151.0"}}, {"uniqueid": "MTK0260:3CP1TO84PU8A7LARLR9UWE9BDOJ52D", "current_trial": 197, "dateTime": 1510691557819, "trialdata": {"rt": [2582, 4325, 6510, 9430], "responses": ["11", "12", "10", "15"], "num1": [3, 9, 7, 1, 8], "num2": [3, 2, 2, 8, 5], "num3": [5, 1, 1, 6, 1], "type": "DISTRACTOR", "conditions": [24, 800, "v", 12000], "trial": 5, "trial_type": "math-distractor", "trial_index": 197, "time_elapsed": 905775, "internal_node_id": "0.0-152.0"}}, {"uniqueid": "MTK0260:3CP1TO84PU8A7LARLR9UWE9BDOJ52D", "current_trial": 198, "dateTime": 1510691560825, "trialdata": {"rt": -1, "stimulus": "<p id=\"stim\">10</p>", "key_press": -1, "trial_type": "single-stim", "trial_index": 198, "time_elapsed": 908783, "internal_node_id": "0.0-153.0-0.0"}}, {"uniqueid": "MTK0260:3CP1TO84PU8A7LARLR9UWE9BDOJ52D", "current_trial": 199, "dateTime": 1510691561827, "trialdata": {"rt": -1, "stimulus": "<p id=\"stim\">9</p>", "key_press": -1, "trial_type": "single-stim", "trial_index": 199, "time_elapsed": 909785, "internal_node_id": "0.0-153.0-1.0"}}, {"uniqueid": "MTK0260:3CP1TO84PU8A7LARLR9UWE9BDOJ52D", "current_trial": 200, "dateTime": 1510691562830, "trialdata": {"rt": -1, "stimulus": "<p id=\"stim\">8</p>", "key_press": -1, "trial_type": "single-stim", "trial_index": 200, "time_elapsed": 910788, "internal_node_id": "0.0-153.0-2.0"}}, {"uniqueid": "MTK0260:3CP1TO84PU8A7LARLR9UWE9BDOJ52D", "current_trial": 201, "dateTime": 1510691563835, "trialdata": {"rt": -1, "stimulus": "<p id=\"stim\">7</p>", "key_press": -1, "trial_type": "single-stim", "trial_index": 201, "time_elapsed": 911793, "internal_node_id": "0.0-153.0-3.0"}}, {"uniqueid": "MTK0260:3CP1TO84PU8A7LARLR9UWE9BDOJ52D", "current_trial": 202, "dateTime": 1510691564839, "trialdata": {"rt": -1, "stimulus": "<p id=\"stim\">6</p>", "key_press": -1, "trial_type": "single-stim", "trial_index": 202, "time_elapsed": 912797, "internal_node_id": "0.0-153.0-4.0"}}, {"uniqueid": "MTK0260:3CP1TO84PU8A7LARLR9UWE9BDOJ52D", "current_trial": 203, "dateTime": 1510691565843, "trialdata": {"rt": -1, "stimulus": "<p id=\"stim\">5</p>", "key_press": -1, "trial_type": "single-stim", "trial_index": 203, "time_elapsed": 913801, "internal_node_id": "0.0-153.0-5.0"}}, {"uniqueid": "MTK0260:3CP1TO84PU8A7LARLR9UWE9BDOJ52D", "current_trial": 204, "dateTime": 1510691566847, "trialdata": {"rt": -1, "stimulus": "<p id=\"stim\">4</p>", "key_press": -1, "trial_type": "single-stim", "trial_index": 204, "time_elapsed": 914805, "internal_node_id": "0.0-153.0-6.0"}}, {"uniqueid": "MTK0260:3CP1TO84PU8A7LARLR9UWE9BDOJ52D", "current_trial": 205, "dateTime": 1510691567851, "trialdata": {"rt": -1, "stimulus": "<p id=\"stim\">3</p>", "key_press": -1, "trial_type": "single-stim", "trial_index": 205, "time_elapsed": 915809, "internal_node_id": "0.0-153.0-7.0"}}, {"uniqueid": "MTK0260:3CP1TO84PU8A7LARLR9UWE9BDOJ52D", "current_trial": 206, "dateTime": 1510691568855, "trialdata": {"rt": -1, "stimulus": "<p id=\"stim\">2</p>", "key_press": -1, "trial_type": "single-stim", "trial_index": 206, "time_elapsed": 916813, "internal_node_id": "0.0-153.0-8.0"}}, {"uniqueid": "MTK0260:3CP1TO84PU8A7LARLR9UWE9BDOJ52D", "current_trial": 207, "dateTime": 1510691569860, "trialdata": {"rt": -1, "stimulus": "<p id=\"stim\">1</p>", "key_press": -1, "trial_type": "single-stim", "trial_index": 207, "time_elapsed": 917818, "internal_node_id": "0.0-153.0-9.0"}}, {"uniqueid": "MTK0260:3CP1TO84PU8A7LARLR9UWE9BDOJ52D", "current_trial": 208, "dateTime": 1510691571363, "trialdata": {"rt": -1, "stimulus": "<p id=\"stim\">+</p>", "key_press": -1, "type": "FIXATION", "trial_type": "single-stim", "trial_index": 208, "time_elapsed": 919321, "internal_node_id": "0.0-154.0-0.0"}}, {"uniqueid": "MTK0260:3CP1TO84PU8A7LARLR9UWE9BDOJ52D", "current_trial": 209, "dateTime": 1510691572167, "trialdata": {"rt": -1, "stimulus": "<p id=\"stim\">BABY</p>", "key_press": -1, "type": "PRES_VIS", "word": "baby", "wordID": 63, "conditions": [24, 800, "v", 12000], "trial": 5, "serialpos": 0, "trial_type": "single-stim", "trial_index": 209, "time_elapsed": 920125, "internal_node_id": "0.0-155.0"}}, {"uniqueid": "MTK0260:3CP1TO84PU8A7LARLR9UWE9BDOJ52D", "current_trial": 210, "dateTime": 1510691573851, "trialdata": {"rt": -1, "stimulus": "<p id=\"stim\">PIANO</p>", "key_press": -1, "type": "PRES_VIS", "word": "piano", "wordID": 1056, "conditions": [24, 800, "v", 12000], "trial": 5, "serialpos": 1, "trial_type": "single-stim", "trial_index": 210, "time_elapsed": 921809, "internal_node_id": "0.0-156.0"}}, {"uniqueid": "MTK0260:3CP1TO84PU8A7LARLR9UWE9BDOJ52D", "current_trial": 211, "dateTime": 1510691575653, "trialdata": {"rt": -1, "stimulus": "<p id=\"stim\">FLUTE</p>", "key_press": -1, "type": "PRES_VIS", "word": "flute", "wordID": 584, "conditions": [24, 800, "v", 12000], "trial": 5, "serialpos": 2, "trial_type": "single-stim", "trial_index": 211, "time_elapsed": 923610, "internal_node_id": "0.0-157.0"}}, {"uniqueid": "MTK0260:3CP1TO84PU8A7LARLR9UWE9BDOJ52D", "current_trial": 212, "dateTime": 1510691577290, "trialdata": {"rt": -1, "stimulus": "<p id=\"stim\">VIRUS</p>", "key_press": -1, "type": "PRES_VIS", "word": "virus", "wordID": 1571, "conditions": [24, 800, "v", 12000], "trial": 5, "serialpos": 3, "trial_type": "single-stim", "trial_index": 212, "time_elapsed": 925248, "internal_node_id": "0.0-158.0"}}, {"uniqueid": "MTK0260:3CP1TO84PU8A7LARLR9UWE9BDOJ52D", "current_trial": 213, "dateTime": 1510691579065, "trialdata": {"rt": -1, "stimulus": "<p id=\"stim\">COUCH</p>", "key_press": -1, "type": "PRES_VIS", "word": "couch", "wordID": 385, "conditions": [24, 800, "v", 12000], "trial": 5, "serialpos": 4, "trial_type": "single-stim", "trial_index": 213, "time_elapsed": 927022, "internal_node_id": "0.0-159.0"}}, {"uniqueid": "MTK0260:3CP1TO84PU8A7LARLR9UWE9BDOJ52D", "current_trial": 214, "dateTime": 1510691580718, "trialdata": {"rt": -1, "stimulus": "<p id=\"stim\">HAND</p>", "key_press": -1, "type": "PRES_VIS", "word": "hand", "wordID": 682, "conditions": [24, 800, "v", 12000], "trial": 5, "serialpos": 5, "trial_type": "single-stim", "trial_index": 214, "time_elapsed": 928676, "internal_node_id": "0.0-160.0"}}, {"uniqueid": "MTK0260:3CP1TO84PU8A7LARLR9UWE9BDOJ52D", "current_trial": 215, "dateTime": 1510691582581, "trialdata": {"rt": -1, "stimulus": "<p id=\"stim\">COUNTY</p>", "key_press": -1, "type": "PRES_VIS", "word": "county", "wordID": 388, "conditions": [24, 800, "v", 12000], "trial": 5, "serialpos": 6, "trial_type": "single-stim", "trial_index": 215, "time_elapsed": 930539, "internal_node_id": "0.0-161.0"}}, {"uniqueid": "MTK0260:3CP1TO84PU8A7LARLR9UWE9BDOJ52D", "current_trial": 216, "dateTime": 1510691584369, "trialdata": {"rt": -1, "stimulus": "<p id=\"stim\">WOMAN</p>", "key_press": -1, "type": "PRES_VIS", "word": "woman", "wordID": 1619, "conditions": [24, 800, "v", 12000], "trial": 5, "serialpos": 7, "trial_type": "single-stim", "trial_index": 216, "time_elapsed": 932327, "internal_node_id": "0.0-162.0"}}, {"uniqueid": "MTK0260:3CP1TO84PU8A7LARLR9UWE9BDOJ52D", "current_trial": 217, "dateTime": 1510691586314, "trialdata": {"rt": -1, "stimulus": "<p id=\"stim\">EXPERT</p>", "key_press": -1, "type": "PRES_VIS", "word": "expert", "wordID": 542, "conditions": [24, 800, "v", 12000], "trial": 5, "serialpos": 8, "trial_type": "single-stim", "trial_index": 217, "time_elapsed": 934272, "internal_node_id": "0.0-163.0"}}, {"uniqueid": "MTK0260:3CP1TO84PU8A7LARLR9UWE9BDOJ52D", "current_trial": 218, "dateTime": 1510691588229, "trialdata": {"rt": -1, "stimulus": "<p id=\"stim\">BUG</p>", "key_press": -1, "type": "PRES_VIS", "word": "bug", "wordID": 186, "conditions": [24, 800, "v", 12000], "trial": 5, "serialpos": 9, "trial_type": "single-stim", "trial_index": 218, "time_elapsed": 936186, "internal_node_id": "0.0-164.0"}}, {"uniqueid": "MTK0260:3CP1TO84PU8A7LARLR9UWE9BDOJ52D", "current_trial": 219, "dateTime": 1510691589947, "trialdata": {"rt": -1, "stimulus": "<p id=\"stim\">KIDNEY</p>", "key_press": -1, "type": "PRES_VIS", "word": "kidney", "wordID": 775, "conditions": [24, 800, "v", 12000], "trial": 5, "serialpos": 10, "trial_type": "single-stim", "trial_index": 219, "time_elapsed": 937904, "internal_node_id": "0.0-165.0"}}, {"uniqueid": "MTK0260:3CP1TO84PU8A7LARLR9UWE9BDOJ52D", "current_trial": 220, "dateTime": 1510691591618, "trialdata": {"rt": -1, "stimulus": "<p id=\"stim\">PLIERS</p>", "key_press": -1, "type": "PRES_VIS", "word": "pliers", "wordID": 1088, "conditions": [24, 800, "v", 12000], "trial": 5, "serialpos": 11, "trial_type": "single-stim", "trial_index": 220, "time_elapsed": 939576, "internal_node_id": "0.0-166.0"}}, {"uniqueid": "MTK0260:3CP1TO84PU8A7LARLR9UWE9BDOJ52D", "current_trial": 221, "dateTime": 1510691593359, "trialdata": {"rt": -1, "stimulus": "<p id=\"stim\">WIFE</p>", "key_press": -1, "type": "PRES_VIS", "word": "wife", "wordID": 1608, "conditions": [24, 800, "v", 12000], "trial": 5, "serialpos": 12, "trial_type": "single-stim", "trial_index": 221, "time_elapsed": 941317, "internal_node_id": "0.0-167.0"}}, {"uniqueid": "MTK0260:3CP1TO84PU8A7LARLR9UWE9BDOJ52D", "current_trial": 222, "dateTime": 1510691595256, "trialdata": {"rt": -1, "stimulus": "<p id=\"stim\">PICTURE</p>", "key_press": -1, "type": "PRES_VIS", "word": "picture", "wordID": 1060, "conditions": [24, 800, "v", 12000], "trial": 5, "serialpos": 13, "trial_type": "single-stim", "trial_index": 222, "time_elapsed": 943214, "internal_node_id": "0.0-168.0"}}, {"uniqueid": "MTK0260:3CP1TO84PU8A7LARLR9UWE9BDOJ52D", "current_trial": 223, "dateTime": 1510691597219, "trialdata": {"rt": -1, "stimulus": "<p id=\"stim\">SUITCASE</p>", "key_press": -1, "type": "PRES_VIS", "word": "suitcase", "wordID": 1402, "conditions": [24, 800, "v", 12000], "trial": 5, "serialpos": 14, "trial_type": "single-stim", "trial_index": 223, "time_elapsed": 945177, "internal_node_id": "0.0-169.0"}}, {"uniqueid": "MTK0260:3CP1TO84PU8A7LARLR9UWE9BDOJ52D", "current_trial": 224, "dateTime": 1510691598861, "trialdata": {"rt": -1, "stimulus": "<p id=\"stim\">AIRPORT</p>", "key_press": -1, "type": "PRES_VIS", "word": "airport", "wordID": 12, "conditions": [24, 800, "v", 12000], "trial": 5, "serialpos": 15, "trial_type": "single-stim", "trial_index": 224, "time_elapsed": 946819, "internal_node_id": "0.0-170.0"}}, {"uniqueid": "MTK0260:3CP1TO84PU8A7LARLR9UWE9BDOJ52D", "current_trial": 225, "dateTime": 1510691600481, "trialdata": {"rt": -1, "stimulus": "<p id=\"stim\">NAPKIN</p>", "key_press": -1, "type": "PRES_VIS", "word": "napkin", "wordID": 936, "conditions": [24, 800, "v", 12000], "trial": 5, "serialpos": 16, "trial_type": "single-stim", "trial_index": 225, "time_elapsed": 948438, "internal_node_id": "0.0-171.0"}}, {"uniqueid": "MTK0260:3CP1TO84PU8A7LARLR9UWE9BDOJ52D", "current_trial": 226, "dateTime": 1510691602274, "trialdata": {"rt": -1, "stimulus": "<p id=\"stim\">GANGSTER</p>", "key_press": -1, "type": "PRES_VIS", "word": "gangster", "wordID": 619, "conditions": [24, 800, "v", 12000], "trial": 5, "serialpos": 17, "trial_type": "single-stim", "trial_index": 226, "time_elapsed": 950232, "internal_node_id": "0.0-172.0"}}, {"uniqueid": "MTK0260:3CP1TO84PU8A7LARLR9UWE9BDOJ52D", "current_trial": 227, "dateTime": 1510691604094, "trialdata": {"rt": -1, "stimulus": "<p id=\"stim\">PORTRAIT</p>", "key_press": -1, "type": "PRES_VIS", "word": "portrait", "wordID": 1110, "conditions": [24, 800, "v", 12000], "trial": 5, "serialpos": 18, "trial_type": "single-stim", "trial_index": 227, "time_elapsed": 952052, "internal_node_id": "0.0-173.0"}}, {"uniqueid": "MTK0260:3CP1TO84PU8A7LARLR9UWE9BDOJ52D", "current_trial": 228, "dateTime": 1510691605789, "trialdata": {"rt": -1, "stimulus": "<p id=\"stim\">BEAVER</p>", "key_press": -1, "type": "PRES_VIS", "word": "beaver", "wordID": 108, "conditions": [24, 800, "v", 12000], "trial": 5, "serialpos": 19, "trial_type": "single-stim", "trial_index": 228, "time_elapsed": 953747, "internal_node_id": "0.0-174.0"}}, {"uniqueid": "MTK0260:3CP1TO84PU8A7LARLR9UWE9BDOJ52D", "current_trial": 229, "dateTime": 1510691607432, "trialdata": {"rt": -1, "stimulus": "<p id=\"stim\">CHIPMUNK</p>", "key_press": -1, "type": "PRES_VIS", "word": "chipmunk", "wordID": 303, "conditions": [24, 800, "v", 12000], "trial": 5, "serialpos": 20, "trial_type": "single-stim", "trial_index": 229, "time_elapsed": 955390, "internal_node_id": "0.0-175.0"}}, {"uniqueid": "MTK0260:3CP1TO84PU8A7LARLR9UWE9BDOJ52D", "current_trial": 230, "dateTime": 1510691609124, "trialdata": {"rt": -1, "stimulus": "<p id=\"stim\">SNAKE</p>", "key_press": -1, "type": "PRES_VIS", "word": "snake", "wordID": 1332, "conditions": [24, 800, "v", 12000], "trial": 5, "serialpos": 21, "trial_type": "single-stim", "trial_index": 230, "time_elapsed": 957080, "internal_node_id": "0.0-176.0"}}, {"uniqueid": "MTK0260:3CP1TO84PU8A7LARLR9UWE9BDOJ52D", "current_trial": 231, "dateTime": 1510691610819, "trialdata": {"rt": -1, "stimulus": "<p id=\"stim\">CLOTHES</p>", "key_press": -1, "type": "PRES_VIS", "word": "clothes", "wordID": 326, "conditions": [24, 800, "v", 12000], "trial": 5, "serialpos": 22, "trial_type": "single-stim", "trial_index": 231, "time_elapsed": 958777, "internal_node_id": "0.0-177.0"}}, {"uniqueid": "MTK0260:3CP1TO84PU8A7LARLR9UWE9BDOJ52D", "current_trial": 232, "dateTime": 1510691612563, "trialdata": {"rt": -1, "stimulus": "<p id=\"stim\">TILE</p>", "key_press": -1, "type": "PRES_VIS", "word": "tile", "wordID": 1467, "conditions": [24, 800, "v", 12000], "trial": 5, "serialpos": 23, "trial_type": "single-stim", "trial_index": 232, "time_elapsed": 960521, "internal_node_id": "0.0-178.0"}}, {"uniqueid": "MTK0260:3CP1TO84PU8A7LARLR9UWE9BDOJ52D", "current_trial": 233, "dateTime": 1510691614775, "trialdata": {"rt": -1, "stimulus": "", "key_press": -1, "type": "PRE_RECALL_DELAY", "trial_type": "single-stim", "trial_index": 233, "time_elapsed": 962733, "internal_node_id": "0.0-179.0-0.0"}}, {"uniqueid": "MTK0260:3CP1TO84PU8A7LARLR9UWE9BDOJ52D", "current_trial": 234, "dateTime": 1510691615276, "trialdata": {"rt": -1000, "stimulus": "/static/audio/400Hz.wav", "key_press": -1, "type": "PRE_RECALL_ALERT", "trial_type": "single-audio", "trial_index": 234, "time_elapsed": 963234, "internal_node_id": "0.0-180.0"}}, {"uniqueid": "MTK0260:3CP1TO84PU8A7LARLR9UWE9BDOJ52D", "current_trial": 235, "dateTime": 1510691675281, "trialdata": {"rt": [1061, 2389, 3957, 4677, 6492, 8621, 9308, 11788, 13125, 14028, 15453, 18372, 20484, 23588], "recwords": ["tile", "snake", "beaver", "wife", "aiport", "kidney", "woman", "virus", "baby", "piano", "hand", "kidney", "suitcase", "portrait"], "type": "FREE_RECALL", "conditions": [24, 800, "v", 12000], "trial": 5, "trial_type": "free-recall", "trial_index": 235, "time_elapsed": 1023236, "internal_node_id": "0.0-181.0-0.0"}}, {"uniqueid": "MTK0260:3CP1TO84PU8A7LARLR9UWE9BDOJ52D", "current_trial": 236, "dateTime": 1510691679339, "trialdata": {"rt": 2053, "key_press": 32, "type": "INSTRUCTIONS", "trial_type": "text", "trial_index": 236, "time_elapsed": 1027297, "internal_node_id": "0.0-182.0"}}, {"uniqueid": "MTK0260:3CP1TO84PU8A7LARLR9UWE9BDOJ52D", "current_trial": 237, "dateTime": 1510691693345, "trialdata": {"rt": [8132, 10238], "responses": ["14", "21"], "num1": [4, 6, 9], "num2": [3, 8, 6], "num3": [7, 7, 9], "type": "DISTRACTOR", "conditions": [12, 800, "v", 12000], "trial": 6, "trial_type": "math-distractor", "trial_index": 237, "time_elapsed": 1041303, "internal_node_id": "0.0-183.0"}}, {"uniqueid": "MTK0260:3CP1TO84PU8A7LARLR9UWE9BDOJ52D", "current_trial": 238, "dateTime": 1510691696351, "trialdata": {"rt": -1, "stimulus": "<p id=\"stim\">10</p>", "key_press": -1, "trial_type": "single-stim", "trial_index": 238, "time_elapsed": 1044309, "internal_node_id": "0.0-184.0-0.0"}}, {"uniqueid": "MTK0260:3CP1TO84PU8A7LARLR9UWE9BDOJ52D", "current_trial": 239, "dateTime": 1510691697353, "trialdata": {"rt": -1, "stimulus": "<p id=\"stim\">9</p>", "key_press": -1, "trial_type": "single-stim", "trial_index": 239, "time_elapsed": 1045311, "internal_node_id": "0.0-184.0-1.0"}}, {"uniqueid": "MTK0260:3CP1TO84PU8A7LARLR9UWE9BDOJ52D", "current_trial": 240, "dateTime": 1510691698358, "trialdata": {"rt": -1, "stimulus": "<p id=\"stim\">8</p>", "key_press": -1, "trial_type": "single-stim", "trial_index": 240, "time_elapsed": 1046316, "internal_node_id": "0.0-184.0-2.0"}}, {"uniqueid": "MTK0260:3CP1TO84PU8A7LARLR9UWE9BDOJ52D", "current_trial": 241, "dateTime": 1510691699363, "trialdata": {"rt": -1, "stimulus": "<p id=\"stim\">7</p>", "key_press": -1, "trial_type": "single-stim", "trial_index": 241, "time_elapsed": 1047321, "internal_node_id": "0.0-184.0-3.0"}}, {"uniqueid": "MTK0260:3CP1TO84PU8A7LARLR9UWE9BDOJ52D", "current_trial": 242, "dateTime": 1510691700368, "trialdata": {"rt": -1, "stimulus": "<p id=\"stim\">6</p>", "key_press": -1, "trial_type": "single-stim", "trial_index": 242, "time_elapsed": 1048325, "internal_node_id": "0.0-184.0-4.0"}}, {"uniqueid": "MTK0260:3CP1TO84PU8A7LARLR9UWE9BDOJ52D", "current_trial": 243, "dateTime": 1510691701372, "trialdata": {"rt": -1, "stimulus": "<p id=\"stim\">5</p>", "key_press": -1, "trial_type": "single-stim", "trial_index": 243, "time_elapsed": 1049330, "internal_node_id": "0.0-184.0-5.0"}}, {"uniqueid": "MTK0260:3CP1TO84PU8A7LARLR9UWE9BDOJ52D", "current_trial": 244, "dateTime": 1510691702378, "trialdata": {"rt": -1, "stimulus": "<p id=\"stim\">4</p>", "key_press": -1, "trial_type": "single-stim", "trial_index": 244, "time_elapsed": 1050335, "internal_node_id": "0.0-184.0-6.0"}}, {"uniqueid": "MTK0260:3CP1TO84PU8A7LARLR9UWE9BDOJ52D", "current_trial": 245, "dateTime": 1510691703381, "trialdata": {"rt": -1, "stimulus": "<p id=\"stim\">3</p>", "key_press": -1, "trial_type": "single-stim", "trial_index": 245, "time_elapsed": 1051338, "internal_node_id": "0.0-184.0-7.0"}}, {"uniqueid": "MTK0260:3CP1TO84PU8A7LARLR9UWE9BDOJ52D", "current_trial": 246, "dateTime": 1510691704384, "trialdata": {"rt": -1, "stimulus": "<p id=\"stim\">2</p>", "key_press": -1, "trial_type": "single-stim", "trial_index": 246, "time_elapsed": 1052342, "internal_node_id": "0.0-184.0-8.0"}}, {"uniqueid": "MTK0260:3CP1TO84PU8A7LARLR9UWE9BDOJ52D", "current_trial": 247, "dateTime": 1510691705388, "trialdata": {"rt": -1, "stimulus": "<p id=\"stim\">1</p>", "key_press": -1, "trial_type": "single-stim", "trial_index": 247, "time_elapsed": 1053346, "internal_node_id": "0.0-184.0-9.0"}}, {"uniqueid": "MTK0260:3CP1TO84PU8A7LARLR9UWE9BDOJ52D", "current_trial": 248, "dateTime": 1510691706891, "trialdata": {"rt": -1, "stimulus": "<p id=\"stim\">+</p>", "key_press": -1, "type": "FIXATION", "trial_type": "single-stim", "trial_index": 248, "time_elapsed": 1054849, "internal_node_id": "0.0-185.0-0.0"}}, {"uniqueid": "MTK0260:3CP1TO84PU8A7LARLR9UWE9BDOJ52D", "current_trial": 249, "dateTime": 1510691707695, "trialdata": {"rt": -1, "stimulus": "<p id=\"stim\">SCRIBBLE</p>", "key_press": -1, "type": "PRES_VIS", "word": "scribble", "wordID": 1255, "conditions": [12, 800, "v", 12000], "trial": 6, "serialpos": 0, "trial_type": "single-stim", "trial_index": 249, "time_elapsed": 1055653, "internal_node_id": "0.0-186.0"}}, {"uniqueid": "MTK0260:3CP1TO84PU8A7LARLR9UWE9BDOJ52D", "current_trial": 250, "dateTime": 1510691709584, "trialdata": {"rt": -1, "stimulus": "<p id=\"stim\">DAISY</p>", "key_press": -1, "type": "PRES_VIS", "word": "daisy", "wordID": 434, "conditions": [12, 800, "v", 12000], "trial": 6, "serialpos": 1, "trial_type": "single-stim", "trial_index": 250, "time_elapsed": 1057542, "internal_node_id": "0.0-187.0"}}, {"uniqueid": "MTK0260:3CP1TO84PU8A7LARLR9UWE9BDOJ52D", "current_trial": 251, "dateTime": 1510691711345, "trialdata": {"rt": -1, "stimulus": "<p id=\"stim\">JELLY</p>", "key_press": -1, "type": "PRES_VIS", "word": "jelly", "wordID": 754, "conditions": [12, 800, "v", 12000], "trial": 6, "serialpos": 2, "trial_type": "single-stim", "trial_index": 251, "time_elapsed": 1059303, "internal_node_id": "0.0-188.0"}}, {"uniqueid": "MTK0260:3CP1TO84PU8A7LARLR9UWE9BDOJ52D", "current_trial": 252, "dateTime": 1510691713101, "trialdata": {"rt": -1, "stimulus": "<p id=\"stim\">EAGLE</p>", "key_press": -1, "type": "PRES_VIS", "word": "eagle", "wordID": 511, "conditions": [12, 800, "v", 12000], "trial": 6, "serialpos": 3, "trial_type": "single-stim", "trial_index": 252, "time_elapsed": 1061059, "internal_node_id": "0.0-189.0"}}, {"uniqueid": "MTK0260:3CP1TO84PU8A7LARLR9UWE9BDOJ52D", "current_trial": 253, "dateTime": 1510691715097, "trialdata": {"rt": -1, "stimulus": "<p id=\"stim\">DANDRUFF</p>", "key_press": -1, "type": "PRES_VIS", "word": "dandruff", "wordID": 438, "conditions": [12, 800, "v", 12000], "trial": 6, "serialpos": 4, "trial_type": "single-stim", "trial_index": 253, "time_elapsed": 1063055, "internal_node_id": "0.0-190.0"}}, {"uniqueid": "MTK0260:3CP1TO84PU8A7LARLR9UWE9BDOJ52D", "current_trial": 254, "dateTime": 1510691717001, "trialdata": {"rt": -1, "stimulus": "<p id=\"stim\">LAKE</p>", "key_press": -1, "type": "PRES_VIS", "word": "lake", "wordID": 795, "conditions": [12, 800, "v", 12000], "trial": 6, "serialpos": 5, "trial_type": "single-stim", "trial_index": 254, "time_elapsed": 1064959, "internal_node_id": "0.0-191.0"}}, {"uniqueid": "MTK0260:3CP1TO84PU8A7LARLR9UWE9BDOJ52D", "current_trial": 255, "dateTime": 1510691718841, "trialdata": {"rt": -1, "stimulus": "<p id=\"stim\">COD</p>", "key_press": -1, "type": "PRES_VIS", "word": "cod", "wordID": 339, "conditions": [12, 800, "v", 12000], "trial": 6, "serialpos": 6, "trial_type": "single-stim", "trial_index": 255, "time_elapsed": 1066799, "internal_node_id": "0.0-192.0"}}, {"uniqueid": "MTK0260:3CP1TO84PU8A7LARLR9UWE9BDOJ52D", "current_trial": 256, "dateTime": 1510691720725, "trialdata": {"rt": -1, "stimulus": "<p id=\"stim\">FOREHEAD</p>", "key_press": -1, "type": "PRES_VIS", "word": "forehead", "wordID": 591, "conditions": [12, 800, "v", 12000], "trial": 6, "serialpos": 7, "trial_type": "single-stim", "trial_index": 256, "time_elapsed": 1068682, "internal_node_id": "0.0-193.0"}}, {"uniqueid": "MTK0260:3CP1TO84PU8A7LARLR9UWE9BDOJ52D", "current_trial": 257, "dateTime": 1510691722482, "trialdata": {"rt": -1, "stimulus": "<p id=\"stim\">CHEST</p>", "key_press": -1, "type": "PRES_VIS", "word": "chest", "wordID": 294, "conditions": [12, 800, "v", 12000], "trial": 6, "serialpos": 8, "trial_type": "single-stim", "trial_index": 257, "time_elapsed": 1070439, "internal_node_id": "0.0-194.0"}}, {"uniqueid": "MTK0260:3CP1TO84PU8A7LARLR9UWE9BDOJ52D", "current_trial": 258, "dateTime": 1510691724111, "trialdata": {"rt": -1, "stimulus": "<p id=\"stim\">PRIMATE</p>", "key_press": -1, "type": "PRES_VIS", "word": "primate", "wordID": 1122, "conditions": [12, 800, "v", 12000], "trial": 6, "serialpos": 9, "trial_type": "single-stim", "trial_index": 258, "time_elapsed": 1072069, "internal_node_id": "0.0-195.0"}}, {"uniqueid": "MTK0260:3CP1TO84PU8A7LARLR9UWE9BDOJ52D", "current_trial": 259, "dateTime": 1510691725971, "trialdata": {"rt": -1, "stimulus": "<p id=\"stim\">FRAGRANCE</p>", "key_press": -1, "type": "PRES_VIS", "word": "fragrance", "wordID": 598, "conditions": [12, 800, "v", 12000], "trial": 6, "serialpos": 10, "trial_type": "single-stim", "trial_index": 259, "time_elapsed": 1073928, "internal_node_id": "0.0-196.0"}}, {"uniqueid": "MTK0260:3CP1TO84PU8A7LARLR9UWE9BDOJ52D", "current_trial": 260, "dateTime": 1510691727724, "trialdata": {"rt": -1, "stimulus": "<p id=\"stim\">JELLO</p>", "key_press": -1, "type": "PRES_VIS", "word": "jello", "wordID": 753, "conditions": [12, 800, "v", 12000], "trial": 6, "serialpos": 11, "trial_type": "single-stim", "trial_index": 260, "time_elapsed": 1075682, "internal_node_id": "0.0-197.0"}}, {"uniqueid": "MTK0260:3CP1TO84PU8A7LARLR9UWE9BDOJ52D", "current_trial": 261, "dateTime": 1510691730164, "trialdata": {"rt": -1, "stimulus": "", "key_press": -1, "type": "PRE_RECALL_DELAY", "trial_type": "single-stim", "trial_index": 261, "time_elapsed": 1078122, "internal_node_id": "0.0-198.0-0.0"}}, {"uniqueid": "MTK0260:3CP1TO84PU8A7LARLR9UWE9BDOJ52D", "current_trial": 262, "dateTime": 1510691730666, "trialdata": {"rt": -1000, "stimulus": "/static/audio/400Hz.wav", "key_press": -1, "type": "PRE_RECALL_ALERT", "trial_type": "single-audio", "trial_index": 262, "time_elapsed": 1078624, "internal_node_id": "0.0-199.0"}}, {"uniqueid": "MTK0260:3CP1TO84PU8A7LARLR9UWE9BDOJ52D", "current_trial": 263, "dateTime": 1510691790674, "trialdata": {"rt": [2301, 3508, 5469, 7157, 9454, 12828, 15661], "recwords": ["daisy", "jello", "jelly", "cod", "dandruff", "forehead", "chest"], "type": "FREE_RECALL", "conditions": [12, 800, "v", 12000], "trial": 6, "trial_type": "free-recall", "trial_index": 263, "time_elapsed": 1138628, "internal_node_id": "0.0-200.0-0.0"}}, {"uniqueid": "MTK0260:3CP1TO84PU8A7LARLR9UWE9BDOJ52D", "current_trial": 264, "dateTime": 1510691793576, "trialdata": {"rt": 900, "key_press": 32, "type": "INSTRUCTIONS", "trial_type": "text", "trial_index": 264, "time_elapsed": 1141534, "internal_node_id": "0.0-201.0"}}, {"uniqueid": "MTK0260:3CP1TO84PU8A7LARLR9UWE9BDOJ52D", "current_trial": 265, "dateTime": 1510691819582, "trialdata": {"rt": [2017, 3625, 5201, 6705, 8649, 10347, 12953, 14905, 16737, 20736, 23336], "responses": ["7", "13", "13", "13", "10", "11", "19", "7", "8", "18", "6"], "num1": [1, 6, 4, 6, 7, 2, 6, 2, 3, 4, 4, 9], "num2": [3, 1, 5, 6, 1, 4, 8, 4, 2, 6, 1, 9], "num3": [3, 6, 4, 1, 2, 5, 5, 1, 3, 8, 1, 2], "type": "DISTRACTOR", "conditions": [12, 1600, "a", 24000], "trial": 7, "trial_type": "math-distractor", "trial_index": 265, "time_elapsed": 1167540, "internal_node_id": "0.0-202.0"}}, {"uniqueid": "MTK0260:3CP1TO84PU8A7LARLR9UWE9BDOJ52D", "current_trial": 266, "dateTime": 1510691822589, "trialdata": {"rt": -1, "stimulus": "<p id=\"stim\">10</p>", "key_press": -1, "trial_type": "single-stim", "trial_index": 266, "time_elapsed": 1170547, "internal_node_id": "0.0-203.0-0.0"}}, {"uniqueid": "MTK0260:3CP1TO84PU8A7LARLR9UWE9BDOJ52D", "current_trial": 267, "dateTime": 1510691823593, "trialdata": {"rt": -1, "stimulus": "<p id=\"stim\">9</p>", "key_press": -1, "trial_type": "single-stim", "trial_i