{"condition": 0, "counterbalance": 185, "assignmentId": "37QW5D2ZRHTMZ2ARD4V3ZGW6F9T8SZ", "workerId": "MTK0631", "hitId": "30QQTY5GMKRWRHZI22TVBXMFAK47UT", "currenttrial": 626, "bonus": 0, "data": [{"uniqueid": "MTK0631:37QW5D2ZRHTMZ2ARD4V3ZGW6F9T8SZ", "current_trial": 0, "dateTime": 1512573815160, "trialdata": {"rt": 2341, "key_press": 32, "type": "INSTRUCTIONS", "trial_type": "text", "trial_index": 0, "time_elapsed": 2343, "internal_node_id": "0.0-0.0"}}, {"uniqueid": "MTK0631:37QW5D2ZRHTMZ2ARD4V3ZGW6F9T8SZ", "current_trial": 1, "dateTime": 1512573832816, "trialdata": {"rt": 17653, "key_press": 32, "type": "INSTRUCTIONS", "trial_type": "text", "trial_index": 1, "time_elapsed": 19999, "internal_node_id": "0.0-1.0"}}, {"uniqueid": "MTK0631:37QW5D2ZRHTMZ2ARD4V3ZGW6F9T8SZ", "current_trial": 2, "dateTime": 1512573849380, "trialdata": {"rt": [16553], "responses": ["ocean"], "type": "AUDIO_TEST", "trial_type": "audio-test", "trial_index": 2, "time_elapsed": 36564, "internal_node_id": "0.0-2.0"}}, {"uniqueid": "MTK0631:37QW5D2ZRHTMZ2ARD4V3ZGW6F9T8SZ", "current_trial": 3, "dateTime": 1512573859666, "trialdata": {"rt": [10280], "responses": ["crystal"], "type": "AUDIO_TEST", "trial_type": "audio-test", "trial_index": 3, "time_elapsed": 46850, "internal_node_id": "0.0-3.0"}}, {"uniqueid": "MTK0631:37QW5D2ZRHTMZ2ARD4V3ZGW6F9T8SZ", "current_trial": 4, "dateTime": 1512573868807, "trialdata": {"rt": [9136], "responses": ["spice"], "type": "AUDIO_TEST", "trial_type": "audio-test", "trial_index": 4, "time_elapsed": 55991, "internal_node_id": "0.0-4.0"}}, {"uniqueid": "MTK0631:37QW5D2ZRHTMZ2ARD4V3ZGW6F9T8SZ", "current_trial": 5, "dateTime": 1512573896892, "trialdata": {"rt": 27332, "responses": "{\"Q0\":\"10:00 pm\",\"Q1\":\"7:00 am\",\"Q2\":\"6\"}", "type": "SLEEP_SURVEY", "trial_type": "survey-text", "trial_index": 5, "time_elapsed": 84075, "internal_node_id": "0.0-5.0"}}, {"uniqueid": "MTK0631:37QW5D2ZRHTMZ2ARD4V3ZGW6F9T8SZ", "current_trial": 6, "dateTime": 1512573932256, "trialdata": {"rt": 34363, "key_press": 32, "type": "INSTRUCTIONS", "trial_type": "text", "trial_index": 6, "time_elapsed": 119440, "internal_node_id": "0.0-6.0"}}, {"uniqueid": "MTK0631:37QW5D2ZRHTMZ2ARD4V3ZGW6F9T8SZ", "current_trial": 7, "dateTime": 1512573952356, "trialdata": {"rt": 19599, "key_press": 32, "type": "INSTRUCTIONS", "trial_type": "text", "trial_index": 7, "time_elapsed": 139540, "internal_node_id": "0.0-7.0"}}, {"uniqueid": "MTK0631:37QW5D2ZRHTMZ2ARD4V3ZGW6F9T8SZ", "current_trial": 8, "dateTime": 1512573965795, "trialdata": {"rt": 12938, "key_press": 32, "type": "INSTRUCTIONS", "trial_type": "text", "trial_index": 8, "time_elapsed": 152979, "internal_node_id": "0.0-8.0"}}, {"uniqueid": "MTK0631:37QW5D2ZRHTMZ2ARD4V3ZGW6F9T8SZ", "current_trial": 9, "dateTime": 1512573984800, "trialdata": {"rt": [3166, 5512, 7785, 11616, 14284], "responses": ["9", "11", "13", "14", "19"], "num1": [4, 3, 3, 4, 8, 8], "num2": [1, 2, 7, 6, 9, 4], "num3": [4, 6, 3, 4, 2, 4], "type": "DISTRACTOR", "conditions": [18, 1200, "a", 18000], "trial": 0, "trial_type": "math-distractor", "trial_index": 9, "time_elapsed": 171984, "internal_node_id": "0.0-9.0"}}, {"uniqueid": "MTK0631:37QW5D2ZRHTMZ2ARD4V3ZGW6F9T8SZ", "current_trial": 10, "dateTime": 1512573987801, "trialdata": {"rt": -1, "stimulus": "<p id=\"stim\">10</p>", "key_press": -1, "trial_type": "single-stim", "trial_index": 10, "time_elapsed": 174985, "internal_node_id": "0.0-10.0-0.0"}}, {"uniqueid": "MTK0631:37QW5D2ZRHTMZ2ARD4V3ZGW6F9T8SZ", "current_trial": 11, "dateTime": 1512573988802, "trialdata": {"rt": -1, "stimulus": "<p id=\"stim\">9</p>", "key_press": -1, "trial_type": "single-stim", "trial_index": 11, "time_elapsed": 175986, "internal_node_id": "0.0-10.0-1.0"}}, {"uniqueid": "MTK0631:37QW5D2ZRHTMZ2ARD4V3ZGW6F9T8SZ", "current_trial": 12, "dateTime": 1512573989802, "trialdata": {"rt": -1, "stimulus": "<p id=\"stim\">8</p>", "key_press": -1, "trial_type": "single-stim", "trial_index": 12, "time_elapsed": 176986, "internal_node_id": "0.0-10.0-2.0"}}, {"uniqueid": "MTK0631:37QW5D2ZRHTMZ2ARD4V3ZGW6F9T8SZ", "current_trial": 13, "dateTime": 1512573990804, "trialdata": {"rt": -1, "stimulus": "<p id=\"stim\">7</p>", "key_press": -1, "trial_type": "single-stim", "trial_index": 13, "time_elapsed": 177988, "internal_node_id": "0.0-10.0-3.0"}}, {"uniqueid": "MTK0631:37QW5D2ZRHTMZ2ARD4V3ZGW6F9T8SZ", "current_trial": 14, "dateTime": 1512573991804, "trialdata": {"rt": -1, "stimulus": "<p id=\"stim\">6</p>", "key_press": -1, "trial_type": "single-stim", "trial_index": 14, "time_elapsed": 178988, "internal_node_id": "0.0-10.0-4.0"}}, {"uniqueid": "MTK0631:37QW5D2ZRHTMZ2ARD4V3ZGW6F9T8SZ", "current_trial": 15, "dateTime": 1512573992804, "trialdata": {"rt": -1, "stimulus": "<p id=\"stim\">5</p>", "key_press": -1, "trial_type": "single-stim", "trial_index": 15, "time_elapsed": 179988, "internal_node_id": "0.0-10.0-5.0"}}, {"uniqueid": "MTK0631:37QW5D2ZRHTMZ2ARD4V3ZGW6F9T8SZ", "current_trial": 16, "dateTime": 1512573993804, "trialdata": {"rt": -1, "stimulus": "<p id=\"stim\">4</p>", "key_press": -1, "trial_type": "single-stim", "trial_index": 16, "time_elapsed": 180988, "internal_node_id": "0.0-10.0-6.0"}}, {"uniqueid": "MTK0631:37QW5D2ZRHTMZ2ARD4V3ZGW6F9T8SZ", "current_trial": 17, "dateTime": 1512573994805, "trialdata": {"rt": -1, "stimulus": "<p id=\"stim\">3</p>", "key_press": -1, "trial_type": "single-stim", "trial_index": 17, "time_elapsed": 181989, "internal_node_id": "0.0-10.0-7.0"}}, {"uniqueid": "MTK0631:37QW5D2ZRHTMZ2ARD4V3ZGW6F9T8SZ", "current_trial": 18, "dateTime": 1512573995805, "trialdata": {"rt": -1, "stimulus": "<p id=\"stim\">2</p>", "key_press": -1, "trial_type": "single-stim", "trial_index": 18, "time_elapsed": 182989, "internal_node_id": "0.0-10.0-8.0"}}, {"uniqueid": "MTK0631:37QW5D2ZRHTMZ2ARD4V3ZGW6F9T8SZ", "current_trial": 19, "dateTime": 1512573996805, "trialdata": {"rt": -1, "stimulus": "<p id=\"stim\">1</p>", "key_press": -1, "trial_type": "single-stim", "trial_index": 19, "time_elapsed": 183989, "internal_node_id": "0.0-10.0-9.0"}}, {"uniqueid": "MTK0631:37QW5D2ZRHTMZ2ARD4V3ZGW6F9T8SZ", "current_trial": 20, "dateTime": 1512573998305, "trialdata": {"rt": -1, "stimulus": "<p id=\"stim\">+</p>", "key_press": -1, "type": "FIXATION", "trial_type": "single-stim", "trial_index": 20, "time_elapsed": 185489, "internal_node_id": "0.0-11.0-0.0"}}, {"uniqueid": "MTK0631:37QW5D2ZRHTMZ2ARD4V3ZGW6F9T8SZ", "current_trial": 21, "dateTime": 1512574000464, "trialdata": {"rt": -1000, "stimulus": "/static/audio/wordpool/FLIPPER.wav", "key_press": -1, "type": "PRES_AUD", "word": "flipper", "wordID": 579, "conditions": [18, 1200, "a", 18000], "trial": 0, "serialpos": 0, "trial_type": "single-audio", "trial_index": 21, "time_elapsed": 187648, "internal_node_id": "0.0-12.0"}}, {"uniqueid": "MTK0631:37QW5D2ZRHTMZ2ARD4V3ZGW6F9T8SZ", "current_trial": 22, "dateTime": 1512574002800, "trialdata": {"rt": -1000, "stimulus": "/static/audio/wordpool/BRANCH.wav", "key_press": -1, "type": "PRES_AUD", "word": "branch", "wordID": 167, "conditions": [18, 1200, "a", 18000], "trial": 0, "serialpos": 1, "trial_type": "single-audio", "trial_index": 22, "time_elapsed": 189984, "internal_node_id": "0.0-13.0"}}, {"uniqueid": "MTK0631:37QW5D2ZRHTMZ2ARD4V3ZGW6F9T8SZ", "current_trial": 23, "dateTime": 1512574005091, "trialdata": {"rt": -1000, "stimulus": "/static/audio/wordpool/LOVER.wav", "key_press": -1, "type": "PRES_AUD", "word": "lover", "wordID": 845, "conditions": [18, 1200, "a", 18000], "trial": 0, "serialpos": 2, "trial_type": "single-audio", "trial_index": 23, "time_elapsed": 192275, "internal_node_id": "0.0-14.0"}}, {"uniqueid": "MTK0631:37QW5D2ZRHTMZ2ARD4V3ZGW6F9T8SZ", "current_trial": 24, "dateTime": 1512574007338, "trialdata": {"rt": -1000, "stimulus": "/static/audio/wordpool/BOX.wav", "key_press": -1, "type": "PRES_AUD", "word": "box", "wordID": 158, "conditions": [18, 1200, "a", 18000], "trial": 0, "serialpos": 3, "trial_type": "single-audio", "trial_index": 24, "time_elapsed": 194522, "internal_node_id": "0.0-15.0"}}, {"uniqueid": "MTK0631:37QW5D2ZRHTMZ2ARD4V3ZGW6F9T8SZ", "current_trial": 25, "dateTime": 1512574009721, "trialdata": {"rt": -1000, "stimulus": "/static/audio/wordpool/SUITCASE.wav", "key_press": -1, "type": "PRES_AUD", "word": "suitcase", "wordID": 1402, "conditions": [18, 1200, "a", 18000], "trial": 0, "serialpos": 4, "trial_type": "single-audio", "trial_index": 25, "time_elapsed": 196905, "internal_node_id": "0.0-16.0"}}, {"uniqueid": "MTK0631:37QW5D2ZRHTMZ2ARD4V3ZGW6F9T8SZ", "current_trial": 26, "dateTime": 1512574011999, "trialdata": {"rt": -1000, "stimulus": "/static/audio/wordpool/FOOTBALL.wav", "key_press": -1, "type": "PRES_AUD", "word": "football", "wordID": 590, "conditions": [18, 1200, "a", 18000], "trial": 0, "serialpos": 5, "trial_type": "single-audio", "trial_index": 26, "time_elapsed": 199183, "internal_node_id": "0.0-17.0"}}, {"uniqueid": "MTK0631:37QW5D2ZRHTMZ2ARD4V3ZGW6F9T8SZ", "current_trial": 27, "dateTime": 1512574014340, "trialdata": {"rt": -1000, "stimulus": "/static/audio/wordpool/LAPEL.wav", "key_press": -1, "type": "PRES_AUD", "word": "lapel", "wordID": 799, "conditions": [18, 1200, "a", 18000], "trial": 0, "serialpos": 6, "trial_type": "single-audio", "trial_index": 27, "time_elapsed": 201524, "internal_node_id": "0.0-18.0"}}, {"uniqueid": "MTK0631:37QW5D2ZRHTMZ2ARD4V3ZGW6F9T8SZ", "current_trial": 28, "dateTime": 1512574016735, "trialdata": {"rt": -1000, "stimulus": "/static/audio/wordpool/OUTLAW.wav", "key_press": -1, "type": "PRES_AUD", "word": "outlaw", "wordID": 988, "conditions": [18, 1200, "a", 18000], "trial": 0, "serialpos": 7, "trial_type": "single-audio", "trial_index": 28, "time_elapsed": 203919, "internal_node_id": "0.0-19.0"}}, {"uniqueid": "MTK0631:37QW5D2ZRHTMZ2ARD4V3ZGW6F9T8SZ", "current_trial": 29, "dateTime": 1512574018909, "trialdata": {"rt": -1000, "stimulus": "/static/audio/wordpool/SKETCH.wav", "key_press": -1, "type": "PRES_AUD", "word": "sketch", "wordID": 1314, "conditions": [18, 1200, "a", 18000], "trial": 0, "serialpos": 8, "trial_type": "single-audio", "trial_index": 29, "time_elapsed": 206093, "internal_node_id": "0.0-20.0"}}, {"uniqueid": "MTK0631:37QW5D2ZRHTMZ2ARD4V3ZGW6F9T8SZ", "current_trial": 30, "dateTime": 1512574021026, "trialdata": {"rt": -1000, "stimulus": "/static/audio/wordpool/TREAT.wav", "key_press": -1, "type": "PRES_AUD", "word": "treat", "wordID": 1500, "conditions": [18, 1200, "a", 18000], "trial": 0, "serialpos": 9, "trial_type": "single-audio", "trial_index": 30, "time_elapsed": 208210, "internal_node_id": "0.0-21.0"}}, {"uniqueid": "MTK0631:37QW5D2ZRHTMZ2ARD4V3ZGW6F9T8SZ", "current_trial": 31, "dateTime": 1512574023304, "trialdata": {"rt": -1000, "stimulus": "/static/audio/wordpool/MAPLE.wav", "key_press": -1, "type": "PRES_AUD", "word": "maple", "wordID": 865, "conditions": [18, 1200, "a", 18000], "trial": 0, "serialpos": 10, "trial_type": "single-audio", "trial_index": 31, "time_elapsed": 210488, "internal_node_id": "0.0-22.0"}}, {"uniqueid": "MTK0631:37QW5D2ZRHTMZ2ARD4V3ZGW6F9T8SZ", "current_trial": 32, "dateTime": 1512574025414, "trialdata": {"rt": -1000, "stimulus": "/static/audio/wordpool/TWISTER.wav", "key_press": -1, "type": "PRES_AUD", "word": "twister", "wordID": 1529, "conditions": [18, 1200, "a", 18000], "trial": 0, "serialpos": 11, "trial_type": "single-audio", "trial_index": 32, "time_elapsed": 212598, "internal_node_id": "0.0-23.0"}}, {"uniqueid": "MTK0631:37QW5D2ZRHTMZ2ARD4V3ZGW6F9T8SZ", "current_trial": 33, "dateTime": 1512574027609, "trialdata": {"rt": -1000, "stimulus": "/static/audio/wordpool/SHIRT.wav", "key_press": -1, "type": "PRES_AUD", "word": "shirt", "wordID": 1286, "conditions": [18, 1200, "a", 18000], "trial": 0, "serialpos": 12, "trial_type": "single-audio", "trial_index": 33, "time_elapsed": 214793, "internal_node_id": "0.0-24.0"}}, {"uniqueid": "MTK0631:37QW5D2ZRHTMZ2ARD4V3ZGW6F9T8SZ", "current_trial": 34, "dateTime": 1512574029825, "trialdata": {"rt": -1000, "stimulus": "/static/audio/wordpool/SOFTBALL.wav", "key_press": -1, "type": "PRES_AUD", "word": "softball", "wordID": 1342, "conditions": [18, 1200, "a", 18000], "trial": 0, "serialpos": 13, "trial_type": "single-audio", "trial_index": 34, "time_elapsed": 217009, "internal_node_id": "0.0-25.0"}}, {"uniqueid": "MTK0631:37QW5D2ZRHTMZ2ARD4V3ZGW6F9T8SZ", "current_trial": 35, "dateTime": 1512574032197, "trialdata": {"rt": -1000, "stimulus": "/static/audio/wordpool/TORTOISE.wav", "key_press": -1, "type": "PRES_AUD", "word": "tortoise", "wordID": 1485, "conditions": [18, 1200, "a", 18000], "trial": 0, "serialpos": 14, "trial_type": "single-audio", "trial_index": 35, "time_elapsed": 219381, "internal_node_id": "0.0-26.0"}}, {"uniqueid": "MTK0631:37QW5D2ZRHTMZ2ARD4V3ZGW6F9T8SZ", "current_trial": 36, "dateTime": 1512574034569, "trialdata": {"rt": -1000, "stimulus": "/static/audio/wordpool/QUAIL.wav", "key_press": -1, "type": "PRES_AUD", "word": "quail", "wordID": 1146, "conditions": [18, 1200, "a", 18000], "trial": 0, "serialpos": 15, "trial_type": "single-audio", "trial_index": 36, "time_elapsed": 221753, "internal_node_id": "0.0-27.0"}}, {"uniqueid": "MTK0631:37QW5D2ZRHTMZ2ARD4V3ZGW6F9T8SZ", "current_trial": 37, "dateTime": 1512574036968, "trialdata": {"rt": -1000, "stimulus": "/static/audio/wordpool/SISTER.wav", "key_press": -1, "type": "PRES_AUD", "word": "sister", "wordID": 1311, "conditions": [18, 1200, "a", 18000], "trial": 0, "serialpos": 16, "trial_type": "single-audio", "trial_index": 37, "time_elapsed": 224152, "internal_node_id": "0.0-28.0"}}, {"uniqueid": "MTK0631:37QW5D2ZRHTMZ2ARD4V3ZGW6F9T8SZ", "current_trial": 38, "dateTime": 1512574039295, "trialdata": {"rt": -1000, "stimulus": "/static/audio/wordpool/PRIMATE.wav", "key_press": -1, "type": "PRES_AUD", "word": "primate", "wordID": 1122, "conditions": [18, 1200, "a", 18000], "trial": 0, "serialpos": 17, "trial_type": "single-audio", "trial_index": 38, "time_elapsed": 226479, "internal_node_id": "0.0-29.0"}}, {"uniqueid": "MTK0631:37QW5D2ZRHTMZ2ARD4V3ZGW6F9T8SZ", "current_trial": 39, "dateTime": 1512574040637, "trialdata": {"rt": -1, "stimulus": "", "key_press": -1, "type": "PRE_RECALL_DELAY", "trial_type": "single-stim", "trial_index": 39, "time_elapsed": 227821, "internal_node_id": "0.0-30.0-0.0"}}, {"uniqueid": "MTK0631:37QW5D2ZRHTMZ2ARD4V3ZGW6F9T8SZ", "current_trial": 40, "dateTime": 1512574041137, "trialdata": {"rt": -1000, "stimulus": "/static/audio/400Hz.wav", "key_press": -1, "type": "PRE_RECALL_ALERT", "trial_type": "single-audio", "trial_index": 40, "time_elapsed": 228321, "internal_node_id": "0.0-31.0"}}, {"uniqueid": "MTK0631:37QW5D2ZRHTMZ2ARD4V3ZGW6F9T8SZ", "current_trial": 41, "dateTime": 1512574101142, "trialdata": {"rt": [1806, 4171, 6347, 7845, 18087, 23664, 33011, 54606], "recwords": ["sister", "quail", "softball", "football", "flipper", "", "timing", ""], "type": "FREE_RECALL", "conditions": [18, 1200, "a", 18000], "trial": 0, "trial_type": "free-recall", "trial_index": 41, "time_elapsed": 288324, "internal_node_id": "0.0-32.0-0.0"}}, {"uniqueid": "MTK0631:37QW5D2ZRHTMZ2ARD4V3ZGW6F9T8SZ", "current_trial": 42, "dateTime": 1512574120487, "trialdata": {"rt": 17344, "key_press": 32, "type": "INSTRUCTIONS", "trial_type": "text", "trial_index": 42, "time_elapsed": 307671, "internal_node_id": "0.0-33.0"}}, {"uniqueid": "MTK0631:37QW5D2ZRHTMZ2ARD4V3ZGW6F9T8SZ", "current_trial": 43, "dateTime": 1512574140494, "trialdata": {"rt": [5096, 6762, 13674, 15380], "responses": ["19", "13", "21", "6"], "num1": [6, 1, 4, 2, 9], "num2": [7, 9, 8, 2, 7], "num3": [6, 3, 9, 2, 1], "type": "DISTRACTOR", "conditions": [18, 1200, "v", 18000], "trial": 1, "trial_type": "math-distractor", "trial_index": 43, "time_elapsed": 327678, "internal_node_id": "0.0-34.0"}}, {"uniqueid": "MTK0631:37QW5D2ZRHTMZ2ARD4V3ZGW6F9T8SZ", "current_trial": 44, "dateTime": 1512574143494, "trialdata": {"rt": -1, "stimulus": "<p id=\"stim\">10</p>", "key_press": -1, "trial_type": "single-stim", "trial_index": 44, "time_elapsed": 330678, "internal_node_id": "0.0-35.0-0.0"}}, {"uniqueid": "MTK0631:37QW5D2ZRHTMZ2ARD4V3ZGW6F9T8SZ", "current_trial": 45, "dateTime": 1512574144494, "trialdata": {"rt": -1, "stimulus": "<p id=\"stim\">9</p>", "key_press": -1, "trial_type": "single-stim", "trial_index": 45, "time_elapsed": 331678, "internal_node_id": "0.0-35.0-1.0"}}, {"uniqueid": "MTK0631:37QW5D2ZRHTMZ2ARD4V3ZGW6F9T8SZ", "current_trial": 46, "dateTime": 1512574145494, "trialdata": {"rt": -1, "stimulus": "<p id=\"stim\">8</p>", "key_press": -1, "trial_type": "single-stim", "trial_index": 46, "time_elapsed": 332678, "internal_node_id": "0.0-35.0-2.0"}}, {"uniqueid": "MTK0631:37QW5D2ZRHTMZ2ARD4V3ZGW6F9T8SZ", "current_trial": 47, "dateTime": 1512574146494, "trialdata": {"rt": -1, "stimulus": "<p id=\"stim\">7</p>", "key_press": -1, "trial_type": "single-stim", "trial_index": 47, "time_elapsed": 333678, "internal_node_id": "0.0-35.0-3.0"}}, {"uniqueid": "MTK0631:37QW5D2ZRHTMZ2ARD4V3ZGW6F9T8SZ", "current_trial": 48, "dateTime": 1512574147494, "trialdata": {"rt": -1, "stimulus": "<p id=\"stim\">6</p>", "key_press": -1, "trial_type": "single-stim", "trial_index": 48, "time_elapsed": 334678, "internal_node_id": "0.0-35.0-4.0"}}, {"uniqueid": "MTK0631:37QW5D2ZRHTMZ2ARD4V3ZGW6F9T8SZ", "current_trial": 49, "dateTime": 1512574148494, "trialdata": {"rt": -1, "stimulus": "<p id=\"stim\">5</p>", "key_press": -1, "trial_type": "single-stim", "trial_index": 49, "time_elapsed": 335678, "internal_node_id": "0.0-35.0-5.0"}}, {"uniqueid": "MTK0631:37QW5D2ZRHTMZ2ARD4V3ZGW6F9T8SZ", "current_trial": 50, "dateTime": 1512574149494, "trialdata": {"rt": -1, "stimulus": "<p id=\"stim\">4</p>", "key_press": -1, "trial_type": "single-stim", "trial_index": 50, "time_elapsed": 336678, "internal_node_id": "0.0-35.0-6.0"}}, {"uniqueid": "MTK0631:37QW5D2ZRHTMZ2ARD4V3ZGW6F9T8SZ", "current_trial": 51, "dateTime": 1512574150494, "trialdata": {"rt": -1, "stimulus": "<p id=\"stim\">3</p>", "key_press": -1, "trial_type": "single-stim", "trial_index": 51, "time_elapsed": 337678, "internal_node_id": "0.0-35.0-7.0"}}, {"uniqueid": "MTK0631:37QW5D2ZRHTMZ2ARD4V3ZGW6F9T8SZ", "current_trial": 52, "dateTime": 1512574151494, "trialdata": {"rt": -1, "stimulus": "<p id=\"stim\">2</p>", "key_press": -1, "trial_type": "single-stim", "trial_index": 52, "time_elapsed": 338678, "internal_node_id": "0.0-35.0-8.0"}}, {"uniqueid": "MTK0631:37QW5D2ZRHTMZ2ARD4V3ZGW6F9T8SZ", "current_trial": 53, "dateTime": 1512574152507, "trialdata": {"rt": -1, "stimulus": "<p id=\"stim\">1</p>", "key_press": -1, "trial_type": "single-stim", "trial_index": 53, "time_elapsed": 339691, "internal_node_id": "0.0-35.0-9.0"}}, {"uniqueid": "MTK0631:37QW5D2ZRHTMZ2ARD4V3ZGW6F9T8SZ", "current_trial": 54, "dateTime": 1512574154007, "trialdata": {"rt": -1, "stimulus": "<p id=\"stim\">+</p>", "key_press": -1, "type": "FIXATION", "trial_type": "single-stim", "trial_index": 54, "time_elapsed": 341191, "internal_node_id": "0.0-36.0-0.0"}}, {"uniqueid": "MTK0631:37QW5D2ZRHTMZ2ARD4V3ZGW6F9T8SZ", "current_trial": 55, "dateTime": 1512574155207, "trialdata": {"rt": -1, "stimulus": "<p id=\"stim\">KNIFE</p>", "key_press": -1, "type": "PRES_VIS", "word": "knife", "wordID": 784, "conditions": [18, 1200, "v", 18000], "trial": 1, "serialpos": 0, "trial_type": "single-stim", "trial_index": 55, "time_elapsed": 342391, "internal_node_id": "0.0-37.0"}}, {"uniqueid": "MTK0631:37QW5D2ZRHTMZ2ARD4V3ZGW6F9T8SZ", "current_trial": 56, "dateTime": 1512574157453, "trialdata": {"rt": -1, "stimulus": "<p id=\"stim\">TUNNEL</p>", "key_press": -1, "type": "PRES_VIS", "word": "tunnel", "wordID": 1518, "conditions": [18, 1200, "v", 18000], "trial": 1, "serialpos": 1, "trial_type": "single-stim", "trial_index": 56, "time_elapsed": 344637, "internal_node_id": "0.0-38.0"}}, {"uniqueid": "MTK0631:37QW5D2ZRHTMZ2ARD4V3ZGW6F9T8SZ", "current_trial": 57, "dateTime": 1512574159562, "trialdata": {"rt": -1, "stimulus": "<p id=\"stim\">STAMP</p>", "key_press": -1, "type": "PRES_VIS", "word": "stamp", "wordID": 1369, "conditions": [18, 1200, "v", 18000], "trial": 1, "serialpos": 2, "trial_type": "single-stim", "trial_index": 57, "time_elapsed": 346746, "internal_node_id": "0.0-39.0"}}, {"uniqueid": "MTK0631:37QW5D2ZRHTMZ2ARD4V3ZGW6F9T8SZ", "current_trial": 58, "dateTime": 1512574161821, "trialdata": {"rt": -1, "stimulus": "<p id=\"stim\">JAPAN</p>", "key_press": -1, "type": "PRES_VIS", "word": "japan", "wordID": 748, "conditions": [18, 1200, "v", 18000], "trial": 1, "serialpos": 3, "trial_type": "single-stim", "trial_index": 58, "time_elapsed": 349005, "internal_node_id": "0.0-40.0"}}, {"uniqueid": "MTK0631:37QW5D2ZRHTMZ2ARD4V3ZGW6F9T8SZ", "current_trial": 59, "dateTime": 1512574164067, "trialdata": {"rt": -1, "stimulus": "<p id=\"stim\">BISON</p>", "key_press": -1, "type": "PRES_VIS", "word": "bison", "wordID": 130, "conditions": [18, 1200, "v", 18000], "trial": 1, "serialpos": 4, "trial_type": "single-stim", "trial_index": 59, "time_elapsed": 351251, "internal_node_id": "0.0-41.0"}}, {"uniqueid": "MTK0631:37QW5D2ZRHTMZ2ARD4V3ZGW6F9T8SZ", "current_trial": 60, "dateTime": 1512574166410, "trialdata": {"rt": -1, "stimulus": "<p id=\"stim\">DASHBOARD</p>", "key_press": -1, "type": "PRES_VIS", "word": "dashboard", "wordID": 440, "conditions": [18, 1200, "v", 18000], "trial": 1, "serialpos": 5, "trial_type": "single-stim", "trial_index": 60, "time_elapsed": 353594, "internal_node_id": "0.0-42.0"}}, {"uniqueid": "MTK0631:37QW5D2ZRHTMZ2ARD4V3ZGW6F9T8SZ", "current_trial": 61, "dateTime": 1512574168808, "trialdata": {"rt": -1, "stimulus": "<p id=\"stim\">IGLOO</p>", "key_press": -1, "type": "PRES_VIS", "word": "igloo", "wordID": 733, "conditions": [18, 1200, "v", 18000], "trial": 1, "serialpos": 6, "trial_type": "single-stim", "trial_index": 61, "time_elapsed": 355992, "internal_node_id": "0.0-43.0"}}, {"uniqueid": "MTK0631:37QW5D2ZRHTMZ2ARD4V3ZGW6F9T8SZ", "current_trial": 62, "dateTime": 1512574170833, "trialdata": {"rt": -1, "stimulus": "<p id=\"stim\">DUSTPAN</p>", "key_press": -1, "type": "PRES_VIS", "word": "dustpan", "wordID": 508, "conditions": [18, 1200, "v", 18000], "trial": 1, "serialpos": 7, "trial_type": "single-stim", "trial_index": 62, "time_elapsed": 358017, "internal_node_id": "0.0-44.0"}}, {"uniqueid": "MTK0631:37QW5D2ZRHTMZ2ARD4V3ZGW6F9T8SZ", "current_trial": 63, "dateTime": 1512574172859, "trialdata": {"rt": -1, "stimulus": "<p id=\"stim\">FOX</p>", "key_press": -1, "type": "PRES_VIS", "word": "fox", "wordID": 597, "conditions": [18, 1200, "v", 18000], "trial": 1, "serialpos": 8, "trial_type": "single-stim", "trial_index": 63, "time_elapsed": 360043, "internal_node_id": "0.0-45.0"}}, {"uniqueid": "MTK0631:37QW5D2ZRHTMZ2ARD4V3ZGW6F9T8SZ", "current_trial": 64, "dateTime": 1512574175115, "trialdata": {"rt": -1, "stimulus": "<p id=\"stim\">POPCORN</p>", "key_press": -1, "type": "PRES_VIS", "word": "popcorn", "wordID": 1103, "conditions": [18, 1200, "v", 18000], "trial": 1, "serialpos": 9, "trial_type": "single-stim", "trial_index": 64, "time_elapsed": 362299, "internal_node_id": "0.0-46.0"}}, {"uniqueid": "MTK0631:37QW5D2ZRHTMZ2ARD4V3ZGW6F9T8SZ", "current_trial": 65, "dateTime": 1512574177490, "trialdata": {"rt": -1, "stimulus": "<p id=\"stim\">ATOM</p>", "key_press": -1, "type": "PRES_VIS", "word": "atom", "wordID": 54, "conditions": [18, 1200, "v", 18000], "trial": 1, "serialpos": 10, "trial_type": "single-stim", "trial_index": 65, "time_elapsed": 364674, "internal_node_id": "0.0-47.0"}}, {"uniqueid": "MTK0631:37QW5D2ZRHTMZ2ARD4V3ZGW6F9T8SZ", "current_trial": 66, "dateTime": 1512574179652, "trialdata": {"rt": -1, "stimulus": "<p id=\"stim\">BLENDER</p>", "key_press": -1, "type": "PRES_VIS", "word": "blender", "wordID": 135, "conditions": [18, 1200, "v", 18000], "trial": 1, "serialpos": 11, "trial_type": "single-stim", "trial_index": 66, "time_elapsed": 366836, "internal_node_id": "0.0-48.0"}}, {"uniqueid": "MTK0631:37QW5D2ZRHTMZ2ARD4V3ZGW6F9T8SZ", "current_trial": 67, "dateTime": 1512574181803, "trialdata": {"rt": -1, "stimulus": "<p id=\"stim\">SEAGULL</p>", "key_press": -1, "type": "PRES_VIS", "word": "seagull", "wordID": 1260, "conditions": [18, 1200, "v", 18000], "trial": 1, "serialpos": 12, "trial_type": "single-stim", "trial_index": 67, "time_elapsed": 368987, "internal_node_id": "0.0-49.0"}}, {"uniqueid": "MTK0631:37QW5D2ZRHTMZ2ARD4V3ZGW6F9T8SZ", "current_trial": 68, "dateTime": 1512574183814, "trialdata": {"rt": -1, "stimulus": "<p id=\"stim\">PUDDING</p>", "key_press": -1, "type": "PRES_VIS", "word": "pudding", "wordID": 1138, "conditions": [18, 1200, "v", 18000], "trial": 1, "serialpos": 13, "trial_type": "single-stim", "trial_index": 68, "time_elapsed": 370995, "internal_node_id": "0.0-50.0"}}, {"uniqueid": "MTK0631:37QW5D2ZRHTMZ2ARD4V3ZGW6F9T8SZ", "current_trial": 69, "dateTime": 1512574185904, "trialdata": {"rt": -1, "stimulus": "<p id=\"stim\">AUTHOR</p>", "key_press": -1, "type": "PRES_VIS", "word": "author", "wordID": 60, "conditions": [18, 1200, "v", 18000], "trial": 1, "serialpos": 14, "trial_type": "single-stim", "trial_index": 69, "time_elapsed": 373088, "internal_node_id": "0.0-51.0"}}, {"uniqueid": "MTK0631:37QW5D2ZRHTMZ2ARD4V3ZGW6F9T8SZ", "current_trial": 70, "dateTime": 1512574188101, "trialdata": {"rt": -1, "stimulus": "<p id=\"stim\">SUPPER</p>", "key_press": -1, "type": "PRES_VIS", "word": "supper", "wordID": 1410, "conditions": [18, 1200, "v", 18000], "trial": 1, "serialpos": 15, "trial_type": "single-stim", "trial_index": 70, "time_elapsed": 375285, "internal_node_id": "0.0-52.0"}}, {"uniqueid": "MTK0631:37QW5D2ZRHTMZ2ARD4V3ZGW6F9T8SZ", "current_trial": 71, "dateTime": 1512574190175, "trialdata": {"rt": -1, "stimulus": "<p id=\"stim\">BEAST</p>", "key_press": -1, "type": "PRES_VIS", "word": "beast", "wordID": 107, "conditions": [18, 1200, "v", 18000], "trial": 1, "serialpos": 16, "trial_type": "single-stim", "trial_index": 71, "time_elapsed": 377359, "internal_node_id": "0.0-53.0"}}, {"uniqueid": "MTK0631:37QW5D2ZRHTMZ2ARD4V3ZGW6F9T8SZ", "current_trial": 72, "dateTime": 1512574192224, "trialdata": {"rt": -1, "stimulus": "<p id=\"stim\">PANTHER</p>", "key_press": -1, "type": "PRES_VIS", "word": "panther", "wordID": 1008, "conditions": [18, 1200, "v", 18000], "trial": 1, "serialpos": 17, "trial_type": "single-stim", "trial_index": 72, "time_elapsed": 379408, "internal_node_id": "0.0-54.0"}}, {"uniqueid": "MTK0631:37QW5D2ZRHTMZ2ARD4V3ZGW6F9T8SZ", "current_trial": 73, "dateTime": 1512574194612, "trialdata": {"rt": -1, "stimulus": "", "key_press": -1, "type": "PRE_RECALL_DELAY", "trial_type": "single-stim", "trial_index": 73, "time_elapsed": 381796, "internal_node_id": "0.0-55.0-0.0"}}, {"uniqueid": "MTK0631:37QW5D2ZRHTMZ2ARD4V3ZGW6F9T8SZ", "current_trial": 74, "dateTime": 1512574195112, "trialdata": {"rt": -1000, "stimulus": "/static/audio/400Hz.wav", "key_press": -1, "type": "PRE_RECALL_ALERT", "trial_type": "single-audio", "trial_index": 74, "time_elapsed": 382296, "internal_node_id": "0.0-56.0"}}, {"uniqueid": "MTK0631:37QW5D2ZRHTMZ2ARD4V3ZGW6F9T8SZ", "current_trial": 75, "dateTime": 1512574255114, "trialdata": {"rt": [1989, 3441, 10551], "recwords": ["beast", "panther", "knife"], "type": "FREE_RECALL", "conditions": [18, 1200, "v", 18000], "trial": 1, "trial_type": "free-recall", "trial_index": 75, "time_elapsed": 442296, "internal_node_id": "0.0-57.0-0.0"}}, {"uniqueid": "MTK0631:37QW5D2ZRHTMZ2ARD4V3ZGW6F9T8SZ", "current_trial": 76, "dateTime": 1512574259523, "trialdata": {"rt": 2404, "key_press": 32, "type": "INSTRUCTIONS", "trial_type": "text", "trial_index": 76, "time_elapsed": 446703, "internal_node_id": "0.0-58.0"}}, {"uniqueid": "MTK0631:37QW5D2ZRHTMZ2ARD4V3ZGW6F9T8SZ", "current_trial": 77, "dateTime": 1512574284524, "trialdata": {"rt": [2818, 6281, 9019, 15254, 18296, 22863], "responses": ["18", "16", "15", "24", "14", "14"], "num1": [9, 8, 8, 8, 2, 5, 4], "num2": [1, 3, 6, 7, 5, 1, 2], "num3": [8, 5, 1, 9, 7, 8, 3], "type": "DISTRACTOR", "conditions": [24, 1600, "a", 24000], "trial": 2, "trial_type": "math-distractor", "trial_index": 77, "time_elapsed": 471708, "internal_node_id": "0.0-59.0"}}, {"uniqueid": "MTK0631:37QW5D2ZRHTMZ2ARD4V3ZGW6F9T8SZ", "current_trial": 78, "dateTime": 1512574287525, "trialdata": {"rt": -1, "stimulus": "<p id=\"stim\">10</p>", "key_press": -1, "trial_type": "single-stim", "trial_index": 78, "time_elapsed": 474709, "internal_node_id": "0.0-60.0-0.0"}}, {"uniqueid": "MTK0631:37QW5D2ZRHTMZ2ARD4V3ZGW6F9T8SZ", "current_trial": 79, "dateTime": 1512574288525, "trialdata": {"rt": -1, "stimulus": "<p id=\"stim\">9</p>", "key_press": -1, "trial_type": "single-stim", "trial_index": 79, "time_elapsed": 475709, "internal_node_id": "0.0-60.0-1.0"}}, {"uniqueid": "MTK0631:37QW5D2ZRHTMZ2ARD4V3ZGW6F9T8SZ", "current_trial": 80, "dateTime": 1512574289525, "trialdata": {"rt": -1, "stimulus": "<p id=\"stim\">8</p>", "key_press": -1, "trial_type": "single-stim", "trial_index": 80, "time_elapsed": 476709, "internal_node_id": "0.0-60.0-2.0"}}, {"uniqueid": "MTK0631:37QW5D2ZRHTMZ2ARD4V3ZGW6F9T8SZ", "current_trial": 81, "dateTime": 1512574290525, "trialdata": {"rt": -1, "stimulus": "<p id=\"stim\">7</p>", "key_press": -1, "trial_type": "single-stim", "trial_index": 81, "time_elapsed": 477709, "internal_node_id": "0.0-60.0-3.0"}}, {"uniqueid": "MTK0631:37QW5D2ZRHTMZ2ARD4V3ZGW6F9T8SZ", "current_trial": 82, "dateTime": 1512574291525, "trialdata": {"rt": -1, "stimulus": "<p id=\"stim\">6</p>", "key_press": -1, "trial_type": "single-stim", "trial_index": 82, "time_elapsed": 478709, "internal_node_id": "0.0-60.0-4.0"}}, {"uniqueid": "MTK0631:37QW5D2ZRHTMZ2ARD4V3ZGW6F9T8SZ", "current_trial": 83, "dateTime": 1512574292525, "trialdata": {"rt": -1, "stimulus": "<p id=\"stim\">5</p>", "key_press": -1, "trial_type": "single-stim", "trial_index": 83, "time_elapsed": 479709, "internal_node_id": "0.0-60.0-5.0"}}, {"uniqueid": "MTK0631:37QW5D2ZRHTMZ2ARD4V3ZGW6F9T8SZ", "current_trial": 84, "dateTime": 1512574293527, "trialdata": {"rt": -1, "stimulus": "<p id=\"stim\">4</p>", "key_press": -1, "trial_type": "single-stim", "trial_index": 84, "time_elapsed": 480711, "internal_node_id": "0.0-60.0-6.0"}}, {"uniqueid": "MTK0631:37QW5D2ZRHTMZ2ARD4V3ZGW6F9T8SZ", "current_trial": 85, "dateTime": 1512574294527, "trialdata": {"rt": -1, "stimulus": "<p id=\"stim\">3</p>", "key_press": -1, "trial_type": "single-stim", "trial_index": 85, "time_elapsed": 481711, "internal_node_id": "0.0-60.0-7.0"}}, {"uniqueid": "MTK0631:37QW5D2ZRHTMZ2ARD4V3ZGW6F9T8SZ", "current_trial": 86, "dateTime": 1512574295527, "trialdata": {"rt": -1, "stimulus": "<p id=\"stim\">2</p>", "key_press": -1, "trial_type": "single-stim", "trial_index": 86, "time_elapsed": 482711, "internal_node_id": "0.0-60.0-8.0"}}, {"uniqueid": "MTK0631:37QW5D2ZRHTMZ2ARD4V3ZGW6F9T8SZ", "current_trial": 87, "dateTime": 1512574296527, "trialdata": {"rt": -1, "stimulus": "<p id=\"stim\">1</p>", "key_press": -1, "trial_type": "single-stim", "trial_index": 87, "time_elapsed": 483711, "internal_node_id": "0.0-60.0-9.0"}}, {"uniqueid": "MTK0631:37QW5D2ZRHTMZ2ARD4V3ZGW6F9T8SZ", "current_trial": 88, "dateTime": 1512574298027, "trialdata": {"rt": -1, "stimulus": "<p id=\"stim\">+</p>", "key_press": -1, "type": "FIXATION", "trial_type": "single-stim", "trial_index": 88, "time_elapsed": 485211, "internal_node_id": "0.0-61.0-0.0"}}, {"uniqueid": "MTK0631:37QW5D2ZRHTMZ2ARD4V3ZGW6F9T8SZ", "current_trial": 89, "dateTime": 1512574300790, "trialdata": {"rt": -1000, "stimulus": "/static/audio/wordpool/OZONE.wav", "key_press": -1, "type": "PRES_AUD", "word": "ozone", "wordID": 995, "conditions": [24, 1600, "a", 24000], "trial": 2, "serialpos": 0, "trial_type": "single-audio", "trial_index": 89, "time_elapsed": 487974, "internal_node_id": "0.0-62.0"}}, {"uniqueid": "MTK0631:37QW5D2ZRHTMZ2ARD4V3ZGW6F9T8SZ", "current_trial": 90, "dateTime": 1512574303336, "trialdata": {"rt": -1000, "stimulus": "/static/audio/wordpool/SANDWICH.wav", "key_press": -1, "type": "PRES_AUD", "word": "sandwich", "wordID": 1231, "conditions": [24, 1600, "a", 24000], "trial": 2, "serialpos": 1, "trial_type": "single-audio", "trial_index": 90, "time_elapsed": 490520, "internal_node_id": "0.0-63.0"}}, {"uniqueid": "MTK0631:37QW5D2ZRHTMZ2ARD4V3ZGW6F9T8SZ", "current_trial": 91, "dateTime": 1512574306096, "trialdata": {"rt": -1000, "stimulus": "/static/audio/wordpool/DRIVER.wav", "key_press": -1, "type": "PRES_AUD", "word": "driver", "wordID": 498, "conditions": [24, 1600, "a", 24000], "trial": 2, "serialpos": 2, "trial_type": "single-audio", "trial_index": 91, "time_elapsed": 493280, "internal_node_id": "0.0-64.0"}}, {"uniqueid": "MTK0631:37QW5D2ZRHTMZ2ARD4V3ZGW6F9T8SZ", "current_trial": 92, "dateTime": 1512574308769, "trialdata": {"rt": -1000, "stimulus": "/static/audio/wordpool/DRESS.wav", "key_press": -1, "type": "PRES_AUD", "word": "dress", "wordID": 494, "conditions": [24, 1600, "a", 24000], "trial": 2, "serialpos": 3, "trial_type": "single-audio", "trial_index": 92, "time_elapsed": 495953, "internal_node_id": "0.0-65.0"}}, {"uniqueid": "MTK0631:37QW5D2ZRHTMZ2ARD4V3ZGW6F9T8SZ", "current_trial": 93, "dateTime": 1512574311518, "trialdata": {"rt": -1000, "stimulus": "/static/audio/wordpool/BLOUSE.wav", "key_press": -1, "type": "PRES_AUD", "word": "blouse", "wordID": 138, "conditions": [24, 1600, "a", 24000], "trial": 2, "serialpos": 4, "trial_type": "single-audio", "trial_index": 93, "time_elapsed": 498702, "internal_node_id": "0.0-66.0"}}, {"uniqueid": "MTK0631:37QW5D2ZRHTMZ2ARD4V3ZGW6F9T8SZ", "current_trial": 94, "dateTime": 1512574314006, "trialdata": {"rt": -1000, "stimulus": "/static/audio/wordpool/LIZARD.wav", "key_press": -1, "type": "PRES_AUD", "word": "lizard", "wordID": 833, "conditions": [24, 1600, "a", 24000], "trial": 2, "serialpos": 5, "trial_type": "single-audio", "trial_index": 94, "time_elapsed": 501190, "internal_node_id": "0.0-67.0"}}, {"uniqueid": "MTK0631:37QW5D2ZRHTMZ2ARD4V3ZGW6F9T8SZ", "current_trial": 95, "dateTime": 1512574316587, "trialdata": {"rt": -1000, "stimulus": "/static/audio/wordpool/YACHT.wav", "key_press": -1, "type": "PRES_AUD", "word": "yacht", "wordID": 1628, "conditions": [24, 1600, "a", 24000], "trial": 2, "serialpos": 6, "trial_type": "single-audio", "trial_index": 95, "time_elapsed": 503771, "internal_node_id": "0.0-68.0"}}, {"uniqueid": "MTK0631:37QW5D2ZRHTMZ2ARD4V3ZGW6F9T8SZ", "current_trial": 96, "dateTime": 1512574319094, "trialdata": {"rt": -1000, "stimulus": "/static/audio/wordpool/CHILD.wav", "key_press": -1, "type": "PRES_AUD", "word": "child", "wordID": 298, "conditions": [24, 1600, "a", 24000], "trial": 2, "serialpos": 7, "trial_type": "single-audio", "trial_index": 96, "time_elapsed": 506278, "internal_node_id": "0.0-69.0"}}, {"uniqueid": "MTK0631:37QW5D2ZRHTMZ2ARD4V3ZGW6F9T8SZ", "current_trial": 97, "dateTime": 1512574321650, "trialdata": {"rt": -1000, "stimulus": "/static/audio/wordpool/CABIN.wav", "key_press": -1, "type": "PRES_AUD", "word": "cabin", "wordID": 210, "conditions": [24, 1600, "a", 24000], "trial": 2, "serialpos": 8, "trial_type": "single-audio", "trial_index": 97, "time_elapsed": 508834, "internal_node_id": "0.0-70.0"}}, {"uniqueid": "MTK0631:37QW5D2ZRHTMZ2ARD4V3ZGW6F9T8SZ", "current_trial": 98, "dateTime": 1512574324435, "trialdata": {"rt": -1000, "stimulus": "/static/audio/wordpool/CREATURE.wav", "key_press": -1, "type": "PRES_AUD", "word": "creature", "wordID": 402, "conditions": [24, 1600, "a", 24000], "trial": 2, "serialpos": 9, "trial_type": "single-audio", "trial_index": 98, "time_elapsed": 511619, "internal_node_id": "0.0-71.0"}}, {"uniqueid": "MTK0631:37QW5D2ZRHTMZ2ARD4V3ZGW6F9T8SZ", "current_trial": 99, "dateTime": 1512574326850, "trialdata": {"rt": -1000, "stimulus": "/static/audio/wordpool/FUNGUS.wav", "key_press": -1, "type": "PRES_AUD", "word": "fungus", "wordID": 613, "conditions": [24, 1600, "a", 24000], "trial": 2, "serialpos": 10, "trial_type": "single-audio", "trial_index": 99, "time_elapsed": 514034, "internal_node_id": "0.0-72.0"}}, {"uniqueid": "MTK0631:37QW5D2ZRHTMZ2ARD4V3ZGW6F9T8SZ", "current_trial": 100, "dateTime": 1512574329334, "trialdata": {"rt": -1000, "stimulus": "/static/audio/wordpool/SAUSAGE.wav", "key_press": -1, "type": "PRES_AUD", "word": "sausage", "wordID": 1237, "conditions": [24, 1600, "a", 24000], "trial": 2, "serialpos": 11, "trial_type": "single-audio", "trial_index": 100, "time_elapsed": 516518, "internal_node_id": "0.0-73.0"}}, {"uniqueid": "MTK0631:37QW5D2ZRHTMZ2ARD4V3ZGW6F9T8SZ", "current_trial": 101, "dateTime": 1512574332051, "trialdata": {"rt": -1000, "stimulus": "/static/audio/wordpool/SALT.wav", "key_press": -1, "type": "PRES_AUD", "word": "salt", "wordID": 1228, "conditions": [24, 1600, "a", 24000], "trial": 2, "serialpos": 12, "trial_type": "single-audio", "trial_index": 101, "time_elapsed": 519235, "internal_node_id": "0.0-74.0"}}, {"uniqueid": "MTK0631:37QW5D2ZRHTMZ2ARD4V3ZGW6F9T8SZ", "current_trial": 102, "dateTime": 1512574334717, "trialdata": {"rt": -1000, "stimulus": "/static/audio/wordpool/JURY.wav", "key_press": -1, "type": "PRES_AUD", "word": "jury", "wordID": 765, "conditions": [24, 1600, "a", 24000], "trial": 2, "serialpos": 13, "trial_type": "single-audio", "trial_index": 102, "time_elapsed": 521901, "internal_node_id": "0.0-75.0"}}, {"uniqueid": "MTK0631:37QW5D2ZRHTMZ2ARD4V3ZGW6F9T8SZ", "current_trial": 103, "dateTime": 1512574337297, "trialdata": {"rt": -1000, "stimulus": "/static/audio/wordpool/AGENT.wav", "key_press": -1, "type": "PRES_AUD", "word": "agent", "wordID": 9, "conditions": [24, 1600, "a", 24000], "trial": 2, "serialpos": 14, "trial_type": "single-audio", "trial_index": 103, "time_elapsed": 524481, "internal_node_id": "0.0-76.0"}}, {"uniqueid": "MTK0631:37QW5D2ZRHTMZ2ARD4V3ZGW6F9T8SZ", "current_trial": 104, "dateTime": 1512574339920, "trialdata": {"rt": -1000, "stimulus": "/static/audio/wordpool/QUARTER.wav", "key_press": -1, "type": "PRES_AUD", "word": "quarter", "wordID": 1147, "conditions": [24, 1600, "a", 24000], "trial": 2, "serialpos": 15, "trial_type": "single-audio", "trial_index": 104, "time_elapsed": 527104, "internal_node_id": "0.0-77.0"}}, {"uniqueid": "MTK0631:37QW5D2ZRHTMZ2ARD4V3ZGW6F9T8SZ", "current_trial": 105, "dateTime": 1512574342614, "trialdata": {"rt": -1000, "stimulus": "/static/audio/wordpool/APRON.wav", "key_press": -1, "type": "PRES_AUD", "word": "apron", "wordID": 34, "conditions": [24, 1600, "a", 24000], "trial": 2, "serialpos": 16, "trial_type": "single-audio", "trial_index": 105, "time_elapsed": 529798, "internal_node_id": "0.0-78.0"}}, {"uniqueid": "MTK0631:37QW5D2ZRHTMZ2ARD4V3ZGW6F9T8SZ", "current_trial": 106, "dateTime": 1512574345275, "trialdata": {"rt": -1000, "stimulus": "/static/audio/wordpool/JUDGE.wav", "key_press": -1, "type": "PRES_AUD", "word": "judge", "wordID": 760, "conditions": [24, 1600, "a", 24000], "trial": 2, "serialpos": 17, "trial_type": "single-audio", "trial_index": 106, "time_elapsed": 532459, "internal_node_id": "0.0-79.0"}}, {"uniqueid": "MTK0631:37QW5D2ZRHTMZ2ARD4V3ZGW6F9T8SZ", "current_trial": 107, "dateTime": 1512574347705, "trialdata": {"rt": -1000, "stimulus": "/static/audio/wordpool/TUBA.wav", "key_press": -1, "type": "PRES_AUD", "word": "tuba", "wordID": 1514, "conditions": [24, 1600, "a", 24000], "trial": 2, "serialpos": 18, "trial_type": "single-audio", "trial_index": 107, "time_elapsed": 534889, "internal_node_id": "0.0-80.0"}}, {"uniqueid": "MTK0631:37QW5D2ZRHTMZ2ARD4V3ZGW6F9T8SZ", "current_trial": 108, "dateTime": 1512574350338, "trialdata": {"rt": -1000, "stimulus": "/static/audio/wordpool/TURKEY.wav", "key_press": -1, "type": "PRES_AUD", "word": "turkey", "wordID": 1519, "conditions": [24, 1600, "a", 24000], "trial": 2, "serialpos": 19, "trial_type": "single-audio", "trial_index": 108, "time_elapsed": 537522, "internal_node_id": "0.0-81.0"}}, {"uniqueid": "MTK0631:37QW5D2ZRHTMZ2ARD4V3ZGW6F9T8SZ", "current_trial": 109, "dateTime": 1512574352745, "trialdata": {"rt": -1000, "stimulus": "/static/audio/wordpool/DAUGHTER.wav", "key_press": -1, "type": "PRES_AUD", "word": "daughter", "wordID": 441, "conditions": [24, 1600, "a", 24000], "trial": 2, "serialpos": 20, "trial_type": "single-audio", "trial_index": 109, "time_elapsed": 539929, "internal_node_id": "0.0-82.0"}}, {"uniqueid": "MTK0631:37QW5D2ZRHTMZ2ARD4V3ZGW6F9T8SZ", "current_trial": 110, "dateTime": 1512574355304, "trialdata": {"rt": -1000, "stimulus": "/static/audio/wordpool/TEACHER.wav", "key_press": -1, "type": "PRES_AUD", "word": "teacher", "wordID": 1439, "conditions": [24, 1600, "a", 24000], "trial": 2, "serialpos": 21, "trial_type": "single-audio", "trial_index": 110, "time_elapsed": 542488, "internal_node_id": "0.0-83.0"}}, {"uniqueid": "MTK0631:37QW5D2ZRHTMZ2ARD4V3ZGW6F9T8SZ", "current_trial": 111, "dateTime": 1512574358015, "trialdata": {"rt": -1000, "stimulus": "/static/audio/wordpool/CAMEL.wav", "key_press": -1, "type": "PRES_AUD", "word": "camel", "wordID": 222, "conditions": [24, 1600, "a", 24000], "trial": 2, "serialpos": 22, "trial_type": "single-audio", "trial_index": 111, "time_elapsed": 545199, "internal_node_id": "0.0-84.0"}}, {"uniqueid": "MTK0631:37QW5D2ZRHTMZ2ARD4V3ZGW6F9T8SZ", "current_trial": 112, "dateTime": 1512574360661, "trialdata": {"rt": -1000, "stimulus": "/static/audio/wordpool/DONKEY.wav", "key_press": -1, "type": "PRES_AUD", "word": "donkey", "wordID": 483, "conditions": [24, 1600, "a", 24000], "trial": 2, "serialpos": 23, "trial_type": "single-audio", "trial_index": 112, "time_elapsed": 547844, "internal_node_id": "0.0-85.0"}}, {"uniqueid": "MTK0631:37QW5D2ZRHTMZ2ARD4V3ZGW6F9T8SZ", "current_trial": 113, "dateTime": 1512574361873, "trialdata": {"rt": -1, "stimulus": "", "key_press": -1, "type": "PRE_RECALL_DELAY", "trial_type": "single-stim", "trial_index": 113, "time_elapsed": 549057, "internal_node_id": "0.0-86.0-0.0"}}, {"uniqueid": "MTK0631:37QW5D2ZRHTMZ2ARD4V3ZGW6F9T8SZ", "current_trial": 114, "dateTime": 1512574362373, "trialdata": {"rt": -1000, "stimulus": "/static/audio/400Hz.wav", "key_press": -1, "type": "PRE_RECALL_ALERT", "trial_type": "single-audio", "trial_index": 114, "time_elapsed": 549557, "internal_node_id": "0.0-87.0"}}, {"uniqueid": "MTK0631:37QW5D2ZRHTMZ2ARD4V3ZGW6F9T8SZ", "current_trial": 115, "dateTime": 1512574422378, "trialdata": {"rt": [1807, 3014, 4137, 5821, 9728, 11619, 15063, 24483, 31268], "recwords": ["daughter", "teacher", "camera", "donkey", "sandwich", "lizard", "fungus", "sausage", "children"], "type": "FREE_RECALL", "conditions": [24, 1600, "a", 24000], "trial": 2, "trial_type": "free-recall", "trial_index": 115, "time_elapsed": 609559, "internal_node_id": "0.0-88.0-0.0"}}, {"uniqueid": "MTK0631:37QW5D2ZRHTMZ2ARD4V3ZGW6F9T8SZ", "current_trial": 116, "dateTime": 1512574429744, "trialdata": {"rt": 5366, "key_press": 32, "type": "INSTRUCTIONS", "trial_type": "text", "trial_index": 116, "time_elapsed": 616928, "internal_node_id": "0.0-89.0"}}, {"uniqueid": "MTK0631:37QW5D2ZRHTMZ2ARD4V3ZGW6F9T8SZ", "current_trial": 117, "dateTime": 1512574443745, "trialdata": {"rt": [4819, 9632], "responses": ["19", "14"], "num1": [2, 5, 5], "num2": [9, 7, 4], "num3": [8, 2, 4], "type": "DISTRACTOR", "conditions": [12, 1600, "a", 12000], "trial": 3, "trial_type": "math-distractor", "trial_index": 117, "time_elapsed": 630929, "internal_node_id": "0.0-90.0"}}, {"uniqueid": "MTK0631:37QW5D2ZRHTMZ2ARD4V3ZGW6F9T8SZ", "current_trial": 118, "dateTime": 1512574446745, "trialdata": {"rt": 76, "stimulus": "<p id=\"stim\">10</p>", "key_press": 13, "trial_type": "single-stim", "trial_index": 118, "time_elapsed": 633929, "internal_node_id": "0.0-91.0-0.0"}}, {"uniqueid": "MTK0631:37QW5D2ZRHTMZ2ARD4V3ZGW6F9T8SZ", "current_trial": 119, "dateTime": 1512574447745, "trialdata": {"rt": -1, "stimulus": "<p id=\"stim\">9</p>", "key_press": -1, "trial_type": "single-stim", "trial_index": 119, "time_elapsed": 634929, "internal_node_id": "0.0-91.0-1.0"}}, {"uniqueid": "MTK0631:37QW5D2ZRHTMZ2ARD4V3ZGW6F9T8SZ", "current_trial": 120, "dateTime": 1512574448745, "trialdata": {"rt": -1, "stimulus": "<p id=\"stim\">8</p>", "key_press": -1, "trial_type": "single-stim", "trial_index": 120, "time_elapsed": 635929, "internal_node_id": "0.0-91.0-2.0"}}, {"uniqueid": "MTK0631:37QW5D2ZRHTMZ2ARD4V3ZGW6F9T8SZ", "current_trial": 121, "dateTime": 1512574449745, "trialdata": {"rt": -1, "stimulus": "<p id=\"stim\">7</p>", "key_press": -1, "trial_type": "single-stim", "trial_index": 121, "time_elapsed": 636929, "internal_node_id": "0.0-91.0-3.0"}}, {"uniqueid": "MTK0631:37QW5D2ZRHTMZ2ARD4V3ZGW6F9T8SZ", "current_trial": 122, "dateTime": 1512574450745, "trialdata": {"rt": -1, "stimulus": "<p id=\"stim\">6</p>", "key_press": -1, "trial_type": "single-stim", "trial_index": 122, "time_elapsed": 637929, "internal_node_id": "0.0-91.0-4.0"}}, {"uniqueid": "MTK0631:37QW5D2ZRHTMZ2ARD4V3ZGW6F9T8SZ", "current_trial": 123, "dateTime": 1512574451745, "trialdata": {"rt": -1, "stimulus": "<p id=\"stim\">5</p>", "key_press": -1, "trial_type": "single-stim", "trial_index": 123, "time_elapsed": 638929, "internal_node_id": "0.0-91.0-5.0"}}, {"uniqueid": "MTK0631:37QW5D2ZRHTMZ2ARD4V3ZGW6F9T8SZ", "current_trial": 124, "dateTime": 1512574452745, "trialdata": {"rt": -1, "stimulus": "<p id=\"stim\">4</p>", "key_press": -1, "trial_type": "single-stim", "trial_index": 124, "time_elapsed": 639929, "internal_node_id": "0.0-91.0-6.0"}}, {"uniqueid": "MTK0631:37QW5D2ZRHTMZ2ARD4V3ZGW6F9T8SZ", "current_trial": 125, "dateTime": 1512574453745, "trialdata": {"rt": -1, "stimulus": "<p id=\"stim\">3</p>", "key_press": -1, "trial_type": "single-stim", "trial_index": 125, "time_elapsed": 640929, "internal_node_id": "0.0-91.0-7.0"}}, {"uniqueid": "MTK0631:37QW5D2ZRHTMZ2ARD4V3ZGW6F9T8SZ", "current_trial": 126, "dateTime": 1512574454745, "trialdata": {"rt": -1, "stimulus": "<p id=\"stim\">2</p>", "key_press": -1, "trial_type": "single-stim", "trial_index": 126, "time_elapsed": 641929, "internal_node_id": "0.0-91.0-8.0"}}, {"uniqueid": "MTK0631:37QW5D2ZRHTMZ2ARD4V3ZGW6F9T8SZ", "current_trial": 127, "dateTime": 1512574455745, "trialdata": {"rt": -1, "stimulus": "<p id=\"stim\">1</p>", "key_press": -1, "trial_type": "single-stim", "trial_index": 127, "time_elapsed": 642929, "internal_node_id": "0.0-91.0-9.0"}}, {"uniqueid": "MTK0631:37QW5D2ZRHTMZ2ARD4V3ZGW6F9T8SZ", "current_trial": 128, "dateTime": 1512574457245, "trialdata": {"rt": -1, "stimulus": "<p id=\"stim\">+</p>", "key_press": -1, "type": "FIXATION", "trial_type": "single-stim", "trial_index": 128, "time_elapsed": 644429, "internal_node_id": "0.0-92.0-0.0"}}, {"uniqueid": "MTK0631:37QW5D2ZRHTMZ2ARD4V3ZGW6F9T8SZ", "current_trial": 129, "dateTime": 1512574460012, "trialdata": {"rt": -1000, "stimulus": "/static/audio/wordpool/GLASS.wav", "key_press": -1, "type": "PRES_AUD", "word": "glass", "wordID": 638, "conditions": [12, 1600, "a", 12000], "trial": 3, "serialpos": 0, "trial_type": "single-audio", "trial_index": 129, "time_elapsed": 647196, "internal_node_id": "0.0-93.0"}}, {"uniqueid": "MTK0631:37QW5D2ZRHTMZ2ARD4V3ZGW6F9T8SZ", "current_trial": 130, "dateTime": 1512574462720, "trialdata": {"rt": -1000, "stimulus": "/static/audio/wordpool/GARLIC.wav", "key_press": -1, "type": "PRES_AUD", "word": "garlic", "wordID": 623, "conditions": [12, 1600, "a", 12000], "trial": 3, "serialpos": 1, "trial_type": "single-audio", "trial_index": 130, "time_elapsed": 649904, "internal_node_id": "0.0-94.0"}}, {"uniqueid": "MTK0631:37QW5D2ZRHTMZ2ARD4V3ZGW6F9T8SZ", "current_trial": 131, "dateTime": 1512574465285, "trialdata": {"rt": -1000, "stimulus": "/static/audio/wordpool/GRILL.wav", "key_press": -1, "type": "PRES_AUD", "word": "grill", "wordID": 660, "conditions": [12, 1600, "a", 12000], "trial": 3, "serialpos": 2, "trial_type": "single-audio", "trial_index": 131, "time_elapsed": 652469, "internal_node_id": "0.0-95.0"}}, {"uniqueid": "MTK0631:37QW5D2ZRHTMZ2ARD4V3ZGW6F9T8SZ", "current_trial": 132, "dateTime": 1512574467839, "trialdata": {"rt": -1000, "stimulus": "/static/audio/wordpool/SIBLING.wav", "key_press": -1, "type": "PRES_AUD", "word": "sibling", "wordID": 1300, "conditions": [12, 1600, "a", 12000], "trial": 3, "serialpos": 3, "trial_type": "single-audio", "trial_index": 132, "time_elapsed": 655023, "internal_node_id": "0.0-96.0"}}, {"uniqueid": "MTK0631:37QW5D2ZRHTMZ2ARD4V3ZGW6F9T8SZ", "current_trial": 133, "dateTime": 1512574470595, "trialdata": {"rt": -1000, "stimulus": "/static/audio/wordpool/WOMAN.wav", "key_press": -1, "type": "PRES_AUD", "word": "woman", "wordID": 1619, "conditions": [12, 1600, "a", 12000], "trial": 3, "serialpos": 4, "trial_type": "single-audio", "trial_index": 133, "time_elapsed": 657779, "internal_node_id": "0.0-97.0"}}, {"uniqueid": "MTK0631:37QW5D2ZRHTMZ2ARD4V3ZGW6F9T8SZ", "current_trial": 134, "dateTime": 1512574473011, "trialdata": {"rt": -1000, "stimulus": "/static/audio/wordpool/FLUTE.wav", "key_press": -1, "type": "PRES_AUD", "word": "flute", "wordID": 584, "conditions": [12, 1600, "a", 12000], "trial": 3, "serialpos": 5, "trial_type": "single-audio", "trial_index": 134, "time_elapsed": 660195, "internal_node_id": "0.0-98.0"}}, {"uniqueid": "MTK0631:37QW5D2ZRHTMZ2ARD4V3ZGW6F9T8SZ", "current_trial": 135, "dateTime": 1512574475588, "trialdata": {"rt": -1000, "stimulus": "/static/audio/wordpool/PIANO.wav", "key_press": -1, "type": "PRES_AUD", "word": "piano", "wordID": 1056, "conditions": [12, 1600, "a", 12000], "trial": 3, "serialpos": 6, "trial_type": "single-audio", "trial_index": 135, "time_elapsed": 662772, "internal_node_id": "0.0-99.0"}}, {"uniqueid": "MTK0631:37QW5D2ZRHTMZ2ARD4V3ZGW6F9T8SZ", "current_trial": 136, "dateTime": 1512574478356, "trialdata": {"rt": -1000, "stimulus": "/static/audio/wordpool/DANCER.wav", "key_press": -1, "type": "PRES_AUD", "word": "dancer", "wordID": 436, "conditions": [12, 1600, "a", 12000], "trial": 3, "serialpos": 7, "trial_type": "single-audio", "trial_index": 136, "time_elapsed": 665540, "internal_node_id": "0.0-100.0"}}, {"uniqueid": "MTK0631:37QW5D2ZRHTMZ2ARD4V3ZGW6F9T8SZ", "current_trial": 137, "dateTime": 1512574481115, "trialdata": {"rt": -1000, "stimulus": "/static/audio/wordpool/ICING.wav", "key_press": -1, "type": "PRES_AUD", "word": "icing", "wordID": 731, "conditions": [12, 1600, "a", 12000], "trial": 3, "serialpos": 8, "trial_type": "single-audio", "trial_index": 137, "time_elapsed": 668299, "internal_node_id": "0.0-101.0"}}, {"uniqueid": "MTK0631:37QW5D2ZRHTMZ2ARD4V3ZGW6F9T8SZ", "current_trial": 138, "dateTime": 1512574483876, "trialdata": {"rt": -1000, "stimulus": "/static/audio/wordpool/BINDER.wav", "key_press": -1, "type": "PRES_AUD", "word": "binder", "wordID": 126, "conditions": [12, 1600, "a", 12000], "trial": 3, "serialpos": 9, "trial_type": "single-audio", "trial_index": 138, "time_elapsed": 671060, "internal_node_id": "0.0-102.0"}}, {"uniqueid": "MTK0631:37QW5D2ZRHTMZ2ARD4V3ZGW6F9T8SZ", "current_trial": 139, "dateTime": 1512574486290, "trialdata": {"rt": -1000, "stimulus": "/static/audio/wordpool/LETTUCE.wav", "key_press": -1, "type": "PRES_AUD", "word": "lettuce", "wordID": 813, "conditions": [12, 1600, "a", 12000], "trial": 3, "serialpos": 10, "trial_type": "single-audio", "trial_index": 139, "time_elapsed": 673474, "internal_node_id": "0.0-103.0"}}, {"uniqueid": "MTK0631:37QW5D2ZRHTMZ2ARD4V3ZGW6F9T8SZ", "current_trial": 140, "dateTime": 1512574488923, "trialdata": {"rt": -1000, "stimulus": "/static/audio/wordpool/MISSILE.wav", "key_press": -1, "type": "PRES_AUD", "word": "missile", "wordID": 899, "conditions": [12, 1600, "a", 12000], "trial": 3, "serialpos": 11, "trial_type": "single-audio", "trial_index": 140, "time_elapsed": 676107, "internal_node_id": "0.0-104.0"}}, {"uniqueid": "MTK0631:37QW5D2ZRHTMZ2ARD4V3ZGW6F9T8SZ", "current_trial": 141, "dateTime": 1512574490168, "trialdata": {"rt": -1, "stimulus": "", "key_press": -1, "type": "PRE_RECALL_DELAY", "trial_type": "single-stim", "trial_index": 141, "time_elapsed": 677352, "internal_node_id": "0.0-105.0-0.0"}}, {"uniqueid": "MTK0631:37QW5D2ZRHTMZ2ARD4V3ZGW6F9T8SZ", "current_trial": 142, "dateTime": 1512574490668, "trialdata": {"rt": -1000, "stimulus": "/static/audio/400Hz.wav", "key_press": -1, "type": "PRE_RECALL_ALERT", "trial_type": "single-audio", "trial_index": 142, "time_elapsed": 677852, "internal_node_id": "0.0-106.0"}}, {"uniqueid": "MTK0631:37QW5D2ZRHTMZ2ARD4V3ZGW6F9T8SZ", "current_trial": 143, "dateTime": 1512574550673, "trialdata": {"rt": [3922, 5432, 6488, 10249, 11400], "recwords": ["lettuce", "missile", "grill", "sibling", "woman"], "type": "FREE_RECALL", "conditions": [12, 1600, "a", 12000], "trial": 3, "trial_type": "free-recall", "trial_index": 143, "time_elapsed": 737853, "internal_node_id": "0.0-107.0-0.0"}}, {"uniqueid": "MTK0631:37QW5D2ZRHTMZ2ARD4V3ZGW6F9T8SZ", "current_trial": 144, "dateTime": 1512574555228, "trialdata": {"rt": 2554, "key_press": 32, "type": "INSTRUCTIONS", "trial_type": "text", "trial_index": 144, "time_elapsed": 742412, "internal_node_id": "0.0-108.0"}}, {"uniqueid": "MTK0631:37QW5D2ZRHTMZ2ARD4V3ZGW6F9T8SZ", "current_trial": 145, "dateTime": 1512574569229, "trialdata": {"rt": [4433, 7296, 9624], "responses": ["16", "11", "10"], "num1": [2, 3, 5, 7], "num2": [9, 6, 4, 4], "num3": [5, 2, 1, 9], "type": "DISTRACTOR", "conditions": [12, 800, "a", 12000], "trial": 4, "trial_type": "math-distractor", "trial_index": 145, "time_elapsed": 756413, "internal_node_id": "0.0-109.0"}}, {"uniqueid": "MTK0631:37QW5D2ZRHTMZ2ARD4V3ZGW6F9T8SZ", "current_trial": 146, "dateTime": 1512574572229, "trialdata": {"rt": 470, "stimulus": "<p id=\"stim\">10</p>", "key_press": 50, "trial_type": "single-stim", "trial_index": 146, "time_elapsed": 759413, "internal_node_id": "0.0-110.0-0.0"}}, {"uniqueid": "MTK0631:37QW5D2ZRHTMZ2ARD4V3ZGW6F9T8SZ", "current_trial": 147, "dateTime": 1512574573229, "trialdata": {"rt": -1, "stimulus": "<p id=\"stim\">9</p>", "key_press": -1, "trial_type": "single-stim", "trial_index": 147, "time_elapsed": 760413, "internal_node_id": "0.0-110.0-1.0"}}, {"uniqueid": "MTK0631:37QW5D2ZRHTMZ2ARD4V3ZGW6F9T8SZ", "current_trial": 148, "dateTime": 1512574574236, "trialdata": {"rt": -1, "stimulus": "<p id=\"stim\">8</p>", "key_press": -1, "trial_type": "single-stim", "trial_index": 148, "time_elapsed": 761420, "internal_node_id": "0.0-110.0-2.0"}}, {"uniqueid": "MTK0631:37QW5D2ZRHTMZ2ARD4V3ZGW6F9T8SZ", "current_trial": 149, "dateTime": 1512574575236, "trialdata": {"rt": -1, "stimulus": "<p id=\"stim\">7</p>", "key_press": -1, "trial_type": "single-stim", "trial_index": 149, "time_elapsed": 762420, "internal_node_id": "0.0-110.0-3.0"}}, {"uniqueid": "MTK0631:37QW5D2ZRHTMZ2ARD4V3ZGW6F9T8SZ", "current_trial": 150, "dateTime": 1512574576236, "trialdata": {"rt": -1, "stimulus": "<p id=\"stim\">6</p>", "key_press": -1, "trial_type": "single-stim", "trial_index": 150, "time_elapsed": 763420, "internal_node_id": "0.0-110.0-4.0"}}, {"uniqueid": "MTK0631:37QW5D2ZRHTMZ2ARD4V3ZGW6F9T8SZ", "current_trial": 151, "dateTime": 1512574577236, "trialdata": {"rt": -1, "stimulus": "<p id=\"stim\">5</p>", "key_press": -1, "trial_type": "single-stim", "trial_index": 151, "time_elapsed": 764420, "internal_node_id": "0.0-110.0-5.0"}}, {"uniqueid": "MTK0631:37QW5D2ZRHTMZ2ARD4V3ZGW6F9T8SZ", "current_trial": 152, "dateTime": 1512574578236, "trialdata": {"rt": -1, "stimulus": "<p id=\"stim\">4</p>", "key_press": -1, "trial_type": "single-stim", "trial_index": 152, "time_elapsed": 765420, "internal_node_id": "0.0-110.0-6.0"}}, {"uniqueid": "MTK0631:37QW5D2ZRHTMZ2ARD4V3ZGW6F9T8SZ", "current_trial": 153, "dateTime": 1512574579236, "trialdata": {"rt": -1, "stimulus": "<p id=\"stim\">3</p>", "key_press": -1, "trial_type": "single-stim", "trial_index": 153, "time_elapsed": 766420, "internal_node_id": "0.0-110.0-7.0"}}, {"uniqueid": "MTK0631:37QW5D2ZRHTMZ2ARD4V3ZGW6F9T8SZ", "current_trial": 154, "dateTime": 1512574580236, "trialdata": {"rt": -1, "stimulus": "<p id=\"stim\">2</p>", "key_press": -1, "trial_type": "single-stim", "trial_index": 154, "time_elapsed": 767420, "internal_node_id": "0.0-110.0-8.0"}}, {"uniqueid": "MTK0631:37QW5D2ZRHTMZ2ARD4V3ZGW6F9T8SZ", "current_trial": 155, "dateTime": 1512574581236, "trialdata": {"rt": -1, "stimulus": "<p id=\"stim\">1</p>", "key_press": -1, "trial_type": "single-stim", "trial_index": 155, "time_elapsed": 768420, "internal_node_id": "0.0-110.0-9.0"}}, {"uniqueid": "MTK0631:37QW5D2ZRHTMZ2ARD4V3ZGW6F9T8SZ", "current_trial": 156, "dateTime": 1512574582736, "trialdata": {"rt": -1, "stimulus": "<p id=\"stim\">+</p>", "key_press": -1, "type": "FIXATION", "trial_type": "single-stim", "trial_index": 156, "time_elapsed": 769920, "internal_node_id": "0.0-111.0-0.0"}}, {"uniqueid": "MTK0631:37QW5D2ZRHTMZ2ARD4V3ZGW6F9T8SZ", "current_trial": 157, "dateTime": 1512574584584, "trialdata": {"rt": -1000, "stimulus": "/static/audio/wordpool/STUDENT.wav", "key_press": -1, "type": "PRES_AUD", "word": "student", "wordID": 1394, "conditions": [12, 800, "a", 12000], "trial": 4, "serialpos": 0, "trial_type": "single-audio", "trial_index": 157, "time_elapsed": 771768, "internal_node_id": "0.0-112.0"}}, {"uniqueid": "MTK0631:37QW5D2ZRHTMZ2ARD4V3ZGW6F9T8SZ", "current_trial": 158, "dateTime": 1512574586407, "trialdata": {"rt": -1000, "stimulus": "/static/audio/wordpool/MAILMAN.wav", "key_press": -1, "type": "PRES_AUD", "word": "mailman", "wordID": 857, "conditions": [12, 800, "a", 12000], "trial": 4, "serialpos": 1, "trial_type": "single-audio", "trial_index": 158, "time_elapsed": 773591, "internal_node_id": "0.0-113.0"}}, {"uniqueid": "MTK0631:37QW5D2ZRHTMZ2ARD4V3ZGW6F9T8SZ", "current_trial": 159, "dateTime": 1512574588237, "trialdata": {"rt": -1000, "stimulus": "/static/audio/wordpool/MAILBOX.wav", "key_press": -1, "type": "PRES_AUD", "word": "mailbox", "wordID": 856, "conditions": [12, 800, "a", 12000], "trial": 4, "serialpos": 2, "trial_type": "single-audio", "trial_index": 159, "time_elapsed": 775421, "internal_node_id": "0.0-114.0"}}, {"uniqueid": "MTK0631:37QW5D2ZRHTMZ2ARD4V3ZGW6F9T8SZ", "current_trial": 160, "dateTime": 1512574590078, "trialdata": {"rt": -1000, "stimulus": "/static/audio/wordpool/ARMY.wav", "key_press": -1, "type": "PRES_AUD", "word": "army", "wordID": 38, "conditions": [12, 800, "a", 12000], "trial": 4, "serialpos": 3, "trial_type": "single-audio", "trial_index": 160, "time_elapsed": 777262, "internal_node_id": "0.0-115.0"}}, {"uniqueid": "MTK0631:37QW5D2ZRHTMZ2ARD4V3ZGW6F9T8SZ", "current_trial": 161, "dateTime": 1512574592070, "trialdata": {"rt": -1000, "stimulus": "/static/audio/wordpool/APPLE.wav", "key_press": -1, "type": "PRES_AUD", "word": "apple", "wordID": 32, "conditions": [12, 800, "a", 12000], "trial": 4, "serialpos": 4, "trial_type": "single-audio", "trial_index": 161, "time_elapsed": 779254, "internal_node_id": "0.0-116.0"}}, {"uniqueid": "MTK0631:37QW5D2ZRHTMZ2ARD4V3ZGW6F9T8SZ", "current_trial": 162, "dateTime": 1512574594004, "trialdata": {"rt": -1000, "stimulus": "/static/audio/wordpool/COMET.wav", "key_press": -1, "type": "PRES_AUD", "word": "comet", "wordID": 352, "conditions": [12, 800, "a", 12000], "trial": 4, "serialpos": 5, "trial_type": "single-audio", "trial_index": 162, "time_elapsed": 781188, "internal_node_id": "0.0-117.0"}}, {"uniqueid": "MTK0631:37QW5D2ZRHTMZ2ARD4V3ZGW6F9T8SZ", "current_trial": 163, "dateTime": 1512574595690, "trialdata": {"rt": -1000, "stimulus": "/static/audio/wordpool/MARKER.wav", "key_press": -1, "type": "PRES_AUD", "word": "marker", "wordID": 869, "conditions": [12, 800, "a", 12000], "trial": 4, "serialpos": 6, "trial_type": "single-audio", "trial_index": 163, "time_elapsed": 782874, "internal_node_id": "0.0-118.0"}}, {"uniqueid": "MTK0631:37QW5D2ZRHTMZ2ARD4V3ZGW6F9T8SZ", "current_trial": 164, "dateTime": 1512574597418, "trialdata": {"rt": -1000, "stimulus": "/static/audio/wordpool/SLIME.wav", "key_press": -1, "type": "PRES_AUD", "word": "slime", "wordID": 1326, "conditions": [12, 800, "a", 12000], "trial": 4, "serialpos": 7, "trial_type": "single-audio", "trial_index": 164, "time_elapsed": 784602, "internal_node_id": "0.0-119.0"}}, {"uniqueid": "MTK0631:37QW5D2ZRHTMZ2ARD4V3ZGW6F9T8SZ", "current_trial": 165, "dateTime": 1512574599416, "trialdata": {"rt": -1000, "stimulus": "/static/audio/wordpool/UMPIRE.wav", "key_press": -1, "type": "PRES_AUD", "word": "umpire", "wordID": 1534, "conditions": [12, 800, "a", 12000], "trial": 4, "serialpos": 8, "trial_type": "single-audio", "trial_index": 165, "time_elapsed": 786600, "internal_node_id": "0.0-120.0"}}, {"uniqueid": "MTK0631:37QW5D2ZRHTMZ2ARD4V3ZGW6F9T8SZ", "current_trial": 166, "dateTime": 1512574601340, "trialdata": {"rt": -1000, "stimulus": "/static/audio/wordpool/VALLEY.wav", "key_press": -1, "type": "PRES_AUD", "word": "valley", "wordID": 1544, "conditions": [12, 800, "a", 12000], "trial": 4, "serialpos": 9, "trial_type": "single-audio", "trial_index": 166, "time_elapsed": 788524, "internal_node_id": "0.0-121.0"}}, {"uniqueid": "MTK0631:37QW5D2ZRHTMZ2ARD4V3ZGW6F9T8SZ", "current_trial": 167, "dateTime": 1512574602980, "trialdata": {"rt": -1000, "stimulus": "/static/audio/wordpool/COLLEGE.wav", "key_press": -1, "type": "PRES_AUD", "word": "college", "wordID": 345, "conditions": [12, 800, "a", 12000], "trial": 4, "serialpos": 10, "trial_type": "single-audio", "trial_index": 167, "time_elapsed": 790164, "internal_node_id": "0.0-122.0"}}, {"uniqueid": "MTK0631:37QW5D2ZRHTMZ2ARD4V3ZGW6F9T8SZ", "current_trial": 168, "dateTime": 1512574604892, "trialdata": {"rt": -1000, "stimulus": "/static/audio/wordpool/DIVER.wav", "key_press": -1, "type": "PRES_AUD", "word": "diver", "wordID": 475, "conditions": [12, 800, "a", 12000], "trial": 4, "serialpos": 11, "trial_type": "single-audio", "trial_index": 168, "time_elapsed": 792076, "internal_node_id": "0.0-123.0"}}, {"uniqueid": "MTK0631:37QW5D2ZRHTMZ2ARD4V3ZGW6F9T8SZ", "current_trial": 169, "dateTime": 1512574606204, "trialdata": {"rt": -1, "stimulus": "", "key_press": -1, "type": "PRE_RECALL_DELAY", "trial_type": "single-stim", "trial_index": 169, "time_elapsed": 793388, "internal_node_id": "0.0-124.0-0.0"}}, {"uniqueid": "MTK0631:37QW5D2ZRHTMZ2ARD4V3ZGW6F9T8SZ", "current_trial": 170, "dateTime": 1512574606704, "trialdata": {"rt": -1000, "stimulus": "/static/audio/400Hz.wav", "key_press": -1, "type": "PRE_RECALL_ALERT", "trial_type": "single-audio", "trial_index": 170, "time_elapsed": 793888, "internal_node_id": "0.0-125.0"}}, {"uniqueid": "MTK0631:37QW5D2ZRHTMZ2ARD4V3ZGW6F9T8SZ", "current_trial": 171, "dateTime": 1512574666720, "trialdata": {"rt": [1606, 2884, 4396, 9134, 10646], "recwords": ["diver", "college", "valley", "mailbox", "mailman"], "type": "FREE_RECALL", "conditions": [12, 800, "a", 12000], "trial": 4, "trial_type": "free-recall", "trial_index": 171, "time_elapsed": 853901, "internal_node_id": "0.0-126.0-0.0"}}, {"uniqueid": "MTK0631:37QW5D2ZRHTMZ2ARD4V3ZGW6F9T8SZ", "current_trial": 172, "dateTime": 1512574679204, "trialdata": {"rt": 10483, "key_press": 32, "type": "INSTRUCTIONS", "trial_type": "text", "trial_index": 172, "time_elapsed": 866388, "internal_node_id": "0.0-127.0"}}, {"uniqueid": "MTK0631:37QW5D2ZRHTMZ2ARD4V3ZGW6F9T8SZ", "current_trial": 173, "dateTime": 1512574705205, "trialdata": {"rt": [3464, 5984, 9847, 12344, 14827, 17255, 19223, 21802], "responses": ["10", "17", "16", "16", "12", "16", "18", "13"], "num1": [3, 8, 9, 7, 3, 6, 2, 5, 9], "num2": [2, 1, 2, 1, 6, 1, 8, 4, 8], "num3": [5, 8, 5, 8, 3, 9, 8, 4, 6], "type": "DISTRACTOR", "conditions": [24, 800, "a", 24000], "trial": 5, "trial_type": "math-distractor", "trial_index": 173, "time_elapsed": 892389, "internal_node_id": "0.0-128.0"}}, {"uniqueid": "MTK0631:37QW5D2ZRHTMZ2ARD4V3ZGW6F9T8SZ", "current_trial": 174, "dateTime": 1512574708206, "trialdata": {"rt": -1, "stimulus": "<p id=\"stim\">10</p>", "key_press": -1, "trial_type": "single-stim", "trial_index": 174, "time_elapsed": 895390, "internal_node_id": "0.0-129.0-0.0"}}, {"uniqueid": "MTK0631:37QW5D2ZRHTMZ2ARD4V3ZGW6F9T8SZ", "current_trial": 175, "dateTime": 1512574709206, "trialdata": {"rt": -1, "stimulus": "<p id=\"stim\">9</p>", "key_press": -1, "trial_type": "single-stim", "trial_index": 175, "time_elapsed": 896390, "internal_node_id": "0.0-129.0-1.0"}}, {"uniqueid": "MTK0631:37QW5D2ZRHTMZ2ARD4V3ZGW6F9T8SZ", "current_trial": 176, "dateTime": 1512574710206, "trialdata": {"rt": -1, "stimulus": "<p id=\"stim\">8</p>", "key_press": -1, "trial_type": "single-stim", "trial_index": 176, "time_elapsed": 897390, "internal_node_id": "0.0-129.0-2.0"}}, {"uniqueid": "MTK0631:37QW5D2ZRHTMZ2ARD4V3ZGW6F9T8SZ", "current_trial": 177, "dateTime": 1512574711206, "trialdata": {"rt": -1, "stimulus": "<p id=\"stim\">7</p>", "key_press": -1, "trial_type": "single-stim", "trial_index": 177, "time_elapsed": 898390, "internal_node_id": "0.0-129.0-3.0"}}, {"uniqueid": "MTK0631:37QW5D2ZRHTMZ2ARD4V3ZGW6F9T8SZ", "current_trial": 178, "dateTime": 1512574712206, "trialdata": {"rt": -1, "stimulus": "<p id=\"stim\">6</p>", "key_press": -1, "trial_type": "single-stim", "trial_index": 178, "time_elapsed": 899390, "internal_node_id": "0.0-129.0-4.0"}}, {"uniqueid": "MTK0631:37QW5D2ZRHTMZ2ARD4V3ZGW6F9T8SZ", "current_trial": 179, "dateTime": 1512574713206, "trialdata": {"rt": -1, "stimulus": "<p id=\"stim\">5</p>", "key_press": -1, "trial_type": "single-stim", "trial_index": 179, "time_elapsed": 900390, "internal_node_id": "0.0-129.0-5.0"}}, {"uniqueid": "MTK0631:37QW5D2ZRHTMZ2ARD4V3ZGW6F9T8SZ", "current_trial": 180, "dateTime": 1512574714206, "trialdata": {"rt": -1, "stimulus": "<p id=\"stim\">4</p>", "key_press": -1, "trial_type": "single-stim", "trial_index": 180, "time_elapsed": 901390, "internal_node_id": "0.0-129.0-6.0"}}, {"uniqueid": "MTK0631:37QW5D2ZRHTMZ2ARD4V3ZGW6F9T8SZ", "current_trial": 181, "dateTime": 1512574715210, "trialdata": {"rt": -1, "stimulus": "<p id=\"stim\">3</p>", "key_press": -1, "trial_type": "single-stim", "trial_index": 181, "time_elapsed": 902394, "internal_node_id": "0.0-129.0-7.0"}}, {"uniqueid": "MTK0631:37QW5D2ZRHTMZ2ARD4V3ZGW6F9T8SZ", "current_trial": 182, "dateTime": 1512574716210, "trialdata": {"rt": -1, "stimulus": "<p id=\"stim\">2</p>", "key_press": -1, "trial_type": "single-stim", "trial_index": 182, "time_elapsed": 903394, "internal_node_id": "0.0-129.0-8.0"}}, {"uniqueid": "MTK0631:37QW5D2ZRHTMZ2ARD4V3ZGW6F9T8SZ", "current_trial": 183, "dateTime": 1512574717210, "trialdata": {"rt": -1, "stimulus": "<p id=\"stim\">1</p>", "key_press": -1, "trial_type": "single-stim", "trial_index": 183, "time_elapsed": 904394, "internal_node_id": "0.0-129.0-9.0"}}, {"uniqueid": "MTK0631:37QW5D2ZRHTMZ2ARD4V3ZGW6F9T8SZ", "current_trial": 184, "dateTime": 1512574718710, "trialdata": {"rt": -1, "stimulus": "<p id=\"stim\">+</p>", "key_press": -1, "type": "FIXATION", "trial_type": "single-stim", "trial_index": 184, "time_elapsed": 905894, "internal_node_id": "0.0-130.0-0.0"}}, {"uniqueid": "MTK0631:37QW5D2ZRHTMZ2ARD4V3ZGW6F9T8SZ", "current_trial": 185, "dateTime": 1512574720607, "trialdata": {"rt": -1000, "stimulus": "/static/audio/wordpool/FLAG.wav", "key_press": -1, "type": "PRES_AUD", "word": "flag", "wordID": 572, "conditions": [24, 800, "a", 24000], "trial": 5, "serialpos": 0, "trial_type": "single-audio", "trial_index": 185, "time_elapsed": 907791, "internal_node_id": "0.0-131.0"}}, {"uniqueid": "MTK0631:37QW5D2ZRHTMZ2ARD4V3ZGW6F9T8SZ", "current_trial": 186, "dateTime": 1512574722605, "trialdata": {"rt": -1000, "stimulus": "/static/audio/wordpool/TRUCK.wav", "key_press": -1, "type": "PRES_AUD", "word": "truck", "wordID": 1511, "conditions": [24, 800, "a", 24000], "trial": 5, "serialpos": 1, "trial_type": "single-audio", "trial_index": 186, "time_elapsed": 909789, "internal_node_id": "0.0-132.0"}}, {"uniqueid": "MTK0631:37QW5D2ZRHTMZ2ARD4V3ZGW6F9T8SZ", "current_trial": 187, "dateTime": 1512574724486, "trialdata": {"rt": -1000, "stimulus": "/static/audio/wordpool/FRECKLE.wav", "key_press": -1, "type": "PRES_AUD", "word": "freckle", "wordID": 601, "conditions": [24, 800, "a", 24000], "trial": 5, "serialpos": 2, "trial_type": "single-audio", "trial_index": 187, "time_elapsed": 911670, "internal_node_id": "0.0-133.0"}}, {"uniqueid": "MTK0631:37QW5D2ZRHTMZ2ARD4V3ZGW6F9T8SZ", "current_trial": 188, "dateTime": 1512574726151, "trialdata": {"rt": -1000, "stimulus": "/static/audio/wordpool/FLOWER.wav", "key_press": -1, "type": "PRES_AUD", "word": "flower", "wordID": 583, "conditions": [24, 800, "a", 24000], "trial": 5, "serialpos": 3, "trial_type": "single-audio", "trial_index": 188, "time_elapsed": 913335, "internal_node_id": "0.0-134.0"}}, {"uniqueid": "MTK0631:37QW5D2ZRHTMZ2ARD4V3ZGW6F9T8SZ", "current_trial": 189, "dateTime": 1512574727993, "trialdata": {"rt": -1000, "stimulus": "/static/audio/wordpool/SUNSET.wav", "key_press": -1, "type": "PRES_AUD", "word": "sunset", "wordID": 1407, "conditions": [24, 800, "a", 24000], "trial": 5, "serialpos": 4, "trial_type": "single-audio", "trial_index": 189, "time_elapsed": 915177, "internal_node_id": "0.0-135.0"}}, {"uniqueid": "MTK0631:37QW5D2ZRHTMZ2ARD4V3ZGW6F9T8SZ", "current_trial": 190, "dateTime": 1512574729877, "trialdata": {"rt": -1000, "stimulus": "/static/audio/wordpool/TRACTOR.wav", "key_press": -1, "type": "PRES_AUD", "word": "tractor", "wordID": 1492, "conditions": [24, 800, "a", 24000], "trial": 5, "serialpos": 5, "trial_type": "single-audio", "trial_index": 190, "time_elapsed": 917061, "internal_node_id": "0.0-136.0"}}, {"uniqueid": "MTK0631:37QW5D2ZRHTMZ2ARD4V3ZGW6F9T8SZ", "current_trial": 191, "dateTime": 1512574731780, "trialdata": {"rt": -1000, "stimulus": "/static/audio/wordpool/BANJO.wav", "key_press": -1, "type": "PRES_AUD", "word": "banjo", "wordID": 81, "conditions": [24, 800, "a", 24000], "trial": 5, "serialpos": 6, "trial_type": "single-audio", "trial_index": 191, "time_elapsed": 918964, "internal_node_id": "0.0-137.0"}}, {"uniqueid": "MTK0631:37QW5D2ZRHTMZ2ARD4V3ZGW6F9T8SZ", "current_trial": 192, "dateTime": 1512574733481, "trialdata": {"rt": -1000, "stimulus": "/static/audio/wordpool/GUITAR.wav", "key_press": -1, "type": "PRES_AUD", "word": "guitar", "wordID": 669, "conditions": [24, 800, "a", 24000], "trial": 5, "serialpos": 7, "trial_type": "single-audio", "trial_index": 192, "time_elapsed": 920665, "internal_node_id": "0.0-138.0"}}, {"uniqueid": "MTK0631:37QW5D2ZRHTMZ2ARD4V3ZGW6F9T8SZ", "current_trial": 193, "dateTime": 1512574735479, "trialdata": {"rt": -1000, "stimulus": "/static/audio/wordpool/SLUG.wav", "key_press": -1, "type": "PRES_AUD", "word": "slug", "wordID": 1328, "conditions": [24, 800, "a", 24000], "trial": 5, "serialpos": 8, "trial_type": "single-audio", "trial_index": 193, "time_elapsed": 922663, "internal_node_id": "0.0-139.0"}}, {"uniqueid": "MTK0631:37QW5D2ZRHTMZ2ARD4V3ZGW6F9T8SZ", "current_trial": 194, "dateTime": 1512574737250, "trialdata": {"rt": -1000, "stimulus": "/static/audio/wordpool/POCKET.wav", "key_press": -1, "type": "PRES_AUD", "word": "pocket", "wordID": 1092, "conditions": [24, 800, "a", 24000], "trial": 5, "serialpos": 9, "trial_type": "single-audio", "trial_index": 194, "time_elapsed": 924434, "internal_node_id": "0.0-140.0"}}, {"uniqueid": "MTK0631:37QW5D2ZRHTMZ2ARD4V3ZGW6F9T8SZ", "current_trial": 195, "dateTime": 1512574739000, "trialdata": {"rt": -1000, "stimulus": "/static/audio/wordpool/RAZOR.wav", "key_press": -1, "type": "PRES_AUD", "word": "razor", "wordID": 1170, "conditions": [24, 800, "a", 24000], "trial": 5, "serialpos": 10, "trial_type": "single-audio", "trial_index": 195, "time_elapsed": 926184, "internal_node_id": "0.0-141.0"}}, {"uniqueid": "MTK0631:37QW5D2ZRHTMZ2ARD4V3ZGW6F9T8SZ", "current_trial": 196, "dateTime": 1512574740826, "trialdata": {"rt": -1000, "stimulus": "/static/audio/wordpool/KLEENEX.wav", "key_press": -1, "type": "PRES_AUD", "word": "kleenex", "wordID": 781, "conditions": [24, 800, "a", 24000], "trial": 5, "serialpos": 11, "trial_type": "single-audio", "trial_index": 196, "time_elapsed": 928010, "internal_node_id": "0.0-142.0"}}, {"uniqueid": "MTK0631:37QW5D2ZRHTMZ2ARD4V3ZGW6F9T8SZ", "current_trial": 197, "dateTime": 1512574742562, "trialdata": {"rt": -1000, "stimulus": "/static/audio/wordpool/MISTER.wav", "key_press": -1, "type": "PRES_AUD", "word": "mister", "wordID": 900, "conditions": [24, 800, "a", 24000], "trial": 5, "serialpos": 12, "trial_type": "single-audio", "trial_index": 197, "time_elapsed": 929746, "internal_node_id": "0.0-143.0"}}, {"uniqueid": "MTK0631:37QW5D2ZRHTMZ2ARD4V3ZGW6F9T8SZ", "current_trial": 198, "dateTime": 1512574744286, "trialdata": {"rt": -1000, "stimulus": "/static/audio/wordpool/EUROPE.wav", "key_press": -1, "type": "PRES_AUD", "word": "europe", "wordID": 540, "conditions": [24, 800, "a", 24000], "trial": 5, "serialpos": 13, "trial_type": "single-audio", "trial_index": 198, "time_elapsed": 931470, "internal_node_id": "0.0-144.0"}}, {"uniqueid": "MTK0631:37QW5D2ZRHTMZ2ARD4V3ZGW6F9T8SZ", "current_trial": 199, "dateTime": 1512574746188, "trialdata": {"rt": -1000, "stimulus": "/static/audio/wordpool/COUNTRY.wav", "key_press": -1, "type": "PRES_AUD", "word": "country", "wordID": 387, "conditions": [24, 800, "a", 24000], "trial": 5, "serialpos": 14, "trial_type": "single-audio", "trial_index": 199, "time_elapsed": 933372, "internal_node_id": "0.0-145.0"}}, {"uniqueid": "MTK0631:37QW5D2ZRHTMZ2ARD4V3ZGW6F9T8SZ", "current_trial": 200, "dateTime": 1512574747964, "trialdata": {"rt": -1000, "stimulus": "/static/audio/wordpool/HAMPER.wav", "key_press": -1, "type": "PRES_AUD", "word": "hamper", "wordID": 681, "conditions": [24, 800, "a", 24000], "trial": 5, "serialpos": 15, "trial_type": "single-audio", "trial_index": 200, "time_elapsed": 935148, "internal_node_id": "0.0-146.0"}}, {"uniqueid": "MTK0631:37QW5D2ZRHTMZ2ARD4V3ZGW6F9T8SZ", "current_trial": 201, "dateTime": 1512574749801, "trialdata": {"rt": -1000, "stimulus": "/static/audio/wordpool/ROBBER.wav", "key_press": -1, "type": "PRES_AUD", "word": "robber", "wordID": 1196, "conditions": [24, 800, "a", 24000], "trial": 5, "serialpos": 16, "trial_type": "single-audio", "trial_index": 201, "time_elapsed": 936985, "internal_node_id": "0.0-147.0"}}, {"uniqueid": "MTK0631:37QW5D2ZRHTMZ2ARD4V3ZGW6F9T8SZ", "current_trial": 202, "dateTime": 1512574751721, "trialdata": {"rt": -1000, "stimulus": "/static/audio/wordpool/TOMBSTONE.wav", "key_press": -1, "type": "PRES_AUD", "word": "tombstone", "wordID": 1477, "conditions": [24, 800, "a", 24000], "trial": 5, "serialpos": 17, "trial_type": "single-audio", "trial_index": 202, "time_elapsed": 938905, "internal_node_id": "0.0-148.0"}}, {"uniqueid": "MTK0631:37QW5D2ZRHTMZ2ARD4V3ZGW6F9T8SZ", "current_trial": 203, "dateTime": 1512574753378, "trialdata": {"rt": -1000, "stimulus": "/static/audio/wordpool/CASKET.wav", "key_press": -1, "type": "PRES_AUD", "word": "casket", "wordID": 254, "conditions": [24, 800, "a", 24000], "trial": 5, "serialpos": 18, "trial_type": "single-audio", "trial_index": 203, "time_elapsed": 940562, "internal_node_id": "0.0-149.0"}}, {"uniqueid": "MTK0631:37QW5D2ZRHTMZ2ARD4V3ZGW6F9T8SZ", "current_trial": 204, "dateTime": 1512574755012, "trialdata": {"rt": -1000, "stimulus": "/static/audio/wordpool/BURGLAR.wav", "key_press": -1, "type": "PRES_AUD", "word": "burglar", "wordID": 199, "conditions": [24, 800, "a", 24000], "trial": 5, "serialpos": 19, "trial_type": "single-audio", "trial_index": 204, "time_elapsed": 942196, "internal_node_id": "0.0-150.0"}}, {"uniqueid": "MTK0631:37QW5D2ZRHTMZ2ARD4V3ZGW6F9T8SZ", "current_trial": 205, "dateTime": 1512574756887, "trialdata": {"rt": -1000, "stimulus": "/static/audio/wordpool/LONDON.wav", "key_press": -1, "type": "PRES_AUD", "word": "london", "wordID": 842, "conditions": [24, 800, "a", 24000], "trial": 5, "serialpos": 20, "trial_type": "single-audio", "trial_index": 205, "time_elapsed": 944070, "internal_node_id": "0.0-151.0"}}, {"uniqueid": "MTK0631:37QW5D2ZRHTMZ2ARD4V3ZGW6F9T8SZ", "current_trial": 206, "dateTime": 1512574758506, "trialdata": {"rt": -1000, "stimulus": "/static/audio/wordpool/WINDOW.wav", "key_press": -1, "type": "PRES_AUD", "word": "window", "wordID": 1610, "conditions": [24, 800, "a", 24000], "trial": 5, "serialpos": 21, "trial_type": "single-audio", "trial_index": 206, "time_elapsed": 945690, "internal_node_id": "0.0-152.0"}}, {"uniqueid": "MTK0631:37QW5D2ZRHTMZ2ARD4V3ZGW6F9T8SZ", "current_trial": 207, "dateTime": 1512574760160, "trialdata": {"rt": -1000, "stimulus": "/static/audio/wordpool/TART.wav", "key_press": -1, "type": "PRES_AUD", "word": "tart", "wordID": 1435, "conditions": [24, 800, "a", 24000], "trial": 5, "serialpos": 22, "trial_type": "single-audio", "trial_index": 207, "time_elapsed": 947344, "internal_node_id": "0.0-153.0"}}, {"uniqueid": "MTK0631:37QW5D2ZRHTMZ2ARD4V3ZGW6F9T8SZ", "current_trial": 208, "dateTime": 1512574762105, "trialdata": {"rt": -1000, "stimulus": "/static/audio/wordpool/GLOVE.wav", "key_press": -1, "type": "PRES_AUD", "word": "glove", "wordID": 641, "conditions": [24, 800, "a", 24000], "trial": 5, "serialpos": 23, "trial_type": "single-audio", "trial_index": 208, "time_elapsed": 949289, "internal_node_id": "0.0-154.0"}}, {"uniqueid": "MTK0631:37QW5D2ZRHTMZ2ARD4V3ZGW6F9T8SZ", "current_trial": 209, "dateTime": 1512574763445, "trialdata": {"rt": -1, "stimulus": "", "key_press": -1, "type": "PRE_RECALL_DELAY", "trial_type": "single-stim", "trial_index": 209, "time_elapsed": 950629, "internal_node_id": "0.0-155.0-0.0"}}, {"uniqueid": "MTK0631:37QW5D2ZRHTMZ2ARD4V3ZGW6F9T8SZ", "current_trial": 210, "dateTime": 1512574763945, "trialdata": {"rt": -1000, "stimulus": "/static/audio/400Hz.wav", "key_press": -1, "type": "PRE_RECALL_ALERT", "trial_type": "single-audio", "trial_index": 210, "time_elapsed": 951129, "internal_node_id": "0.0-156.0"}}, {"uniqueid": "MTK0631:37QW5D2ZRHTMZ2ARD4V3ZGW6F9T8SZ", "current_trial": 211, "dateTime": 1512574823950, "trialdata": {"rt": [1058, 1823, 3442, 5419, 10684, 12325, 13816, 15338, 16992], "recwords": ["glove", "char", "cart", "chart", "england", "london", "robber", "burglar", "glove"], "type": "FREE_RECALL", "conditions": [24, 800, "a", 24000], "trial": 5, "trial_type": "free-recall", "trial_index": 211, "time_elapsed": 1011131, "internal_node_id": "0.0-157.0-0.0"}}, {"uniqueid": "MTK0631:37QW5D2ZRHTMZ2ARD4V3ZGW6F9T8SZ", "current_trial": 212, "dateTime": 1512574826888, "trialdata": {"rt": 936, "key_press": 32, "type": "INSTRUCTIONS", "trial_type": "text", "trial_index": 212, "time_elapsed": 1014072, "internal_node_id": "0.0-158.0"}}, {"uniqueid": "MTK0631:37QW5D2ZRHTMZ2ARD4V3ZGW6F9T8SZ", "current_trial": 213, "dateTime": 1512574852889, "trialdata": {"rt": [3760, 8124, 11703, 17933, 23196], "responses": ["18", "17", "17", "19", "21"], "num1": [8, 4, 4, 6, 5, 9], "num2": [4, 6, 7, 5, 8, 8], "num3": [6, 7, 6, 8, 8, 1], "type": "DISTRACTOR", "conditions": [12, 1600, "a", 24000], "trial": 6, "trial_type": "math-distractor", "trial_index": 213, "time_elapsed": 1040073, "internal_node_id": "0.0-159.0"}}, {"uniqueid": "MTK0631:37QW5D2ZRHTMZ2ARD4V3ZGW6F9T8SZ", "current_trial": 214, "dateTime": 1512574855889, "trialdata": {"rt": -1, "stimulus": "<p id=\"stim\">10</p>", "key_press": -1, "trial_type": "single-stim", "trial_index": 214, "time_elapsed": 1043073, "internal_node_id": "0.0-160.0-0.0"}}, {"uniqueid": "MTK0631:37QW5D2ZRHTMZ2ARD4V3ZGW6F9T8SZ", "current_trial": 215, "dateTime": 1512574856889, "trialdata": {"rt": -1, "stimulus": "<p id=\"stim\">9</p>", "key_press": -1, "trial_type": "single-stim", "trial_index": 215, "time_elapsed": 1044073, "internal_node_id": "0.0-160.0-1.0"}}, {"uniqueid": "MTK0631:37QW5D2ZRHTMZ2ARD4V3ZGW6F9T8SZ", "current_trial": 216, "dateTime": 1512574857889, "trialdata": {"rt": -1, "stimulus": "<p id=\"stim\">8</p>", "key_press": -1, "trial_type": "single-stim", "trial_index": 216, "time_elapsed": 1045073, "internal_node_id": "0.0-160.0-2.0"}}, {"uniqueid": "MTK0631:37QW5D2ZRHTMZ2ARD4V3ZGW6F9T8SZ", "current_trial": 217, "dateTime": 1512574858889, "trialdata": {"rt": -1, "stimulus": "<p id=\"stim\">7</p>", "key_press": -1, "trial_type": "single-stim", "trial_index": 217, "time_elapsed": 1046073, "internal_node_id": "0.0-160.0-3.0"}}, {"uniqueid": "MTK0631:37QW5D2ZRHTMZ2ARD4V3ZGW6F9T8SZ", "current_trial": 218, "dateTime": 1512574859889, "trialdata": {"rt": -1, "stimulus": "<p id=\"stim\">6</p>", "key_press": -1, "trial_type": "single-stim", "trial_index": 218, "time_elapsed": 1047073, "internal_node_id": "0.0-160.0-4.0"}}, {"uniqueid": "MTK0631:37QW5D2ZRHTMZ2ARD4V3ZGW6F9T8SZ", "current_trial": 219, "dateTime": 1512574860889, "trialdata": {"rt": -1, "stimulus": "<p id=\"stim\">5</p>", "key_press": -1, "trial_type": "single-stim", "trial_index": 219, "time_elapsed": 1048073, "internal_node_id": "0.0-160.0-5.0"}}, {"uniqueid": "MTK0631:37QW5D2ZRHTMZ2ARD4V3ZGW6F9T8SZ", "current_trial": 220, "dateTime": 1512574861889, "trialdata": {"rt": -1, "stimulus": "<p id=\"stim\">4</p>", "key_press": -1, "trial_type": "single-stim", "trial_index": 220, "time_elapsed": 1049073, "internal_node_id": "0.0-160.0-6.0"}}, {"uniqueid": "MTK0631:37QW5D2ZRHTMZ2ARD4V3ZGW6F9T8SZ", "current_trial": 221, "dateTime": 1512574862889, "trialdata": {"rt": -1, "stimulus": "<p id=\"stim\">3</p>", "key_press": -1, "trial_type": "single-stim", "trial_index": 221, "time_elapsed": 1050073, "internal_node_id": "0.0-160.0-7.0"}}, {"uniqueid": "MTK0631:37QW5D2ZRHTMZ2ARD4V3ZGW6F9T8SZ", "current_trial": 222, "dateTime": 1512574863889, "trialdata": {"rt": -1, "stimulus": "<p id=\"stim\">2</p>", "key_press": -1, "trial_type": "single-stim", "trial_index": 222, "time_elapsed": 1051073, "internal_node_id": "0.0-160.0-8.0"}}, {"uniqueid": "MTK0631:37QW5D2ZRHTMZ2ARD4V3ZGW6F9T8SZ", "current_trial": 223, "dateTime": 1512574864889, "trialdata": {"rt": -1, "stimulus": "<p id=\"stim\">1</p>", "key_press": -1, "trial_type": "single-stim", "trial_index": 223, "time_elapsed": 1052073, "internal_node_id": "0.0-160.0-9.0"}}, {"uniqueid": "MTK0631:37QW5D2ZRHTMZ2ARD4V3ZGW6F9T8SZ", "current_trial": 224, "dateTime": 1512574866389, "trialdata": {"rt": -1, "stimulus": "<p id=\"stim\">+</p>", "key_press": -1, "type": "FIXATION", "trial_type": "single-stim", "trial_index": 224, "time_elapsed": 1053573, "internal_node_id": "0.0-161.0-0.0"}}, {"uniqueid": "MTK0631:37QW5D2ZRHTMZ2ARD4V3ZGW6F9T8SZ", "current_trial": 225, "dateTime": 1512574868913, "trialdata": {"rt": -1000, "stimulus": "/static/audio/wordpool/STICKER.wav", "key_press": -1, "type": "PRES_AUD", "word": "sticker", "wordID": 1381, "conditions": [12, 1600, "a", 24000], "trial": 6, "serialpos": 0, "trial_type": "single-audio", "trial_index": 225, "time_elapsed": 1056097, "internal_node_id": "0.0-162.0"}}, {"uniqueid": "MTK0631:37QW5D2ZRHTMZ2ARD4V3ZGW6F9T8SZ", "current_trial": 226, "dateTime": 1512574871416, "trialdata": {"rt": -1000, "stimulus": "/static/audio/wordpool/INFANT.wav", "key_press": -1, "type": "PRES_AUD", "word": "infant", "wordID": 736, "conditions": [12, 1600, "a", 24000], "trial": 6, "serialpos": 1, "trial_type": "single-audio", "trial_index": 226, "time_elapsed": 1058600, "internal_node_id": "0.0-163.0"}}, {"uniqueid": "MTK0631:37QW5D2ZRHTMZ2ARD4V3ZGW6F9T8SZ", "current_trial": 227, "dateTime": 1512574874016, "trialdata": {"rt": -1000, "stimulus": "/static/audio/wordpool/NIGHTGOWN.wav", "key_press": -1, "type": "PRES_AUD", "word": "nightgown", "wordID": 952, "conditions": [12, 1600, "a", 24000], "trial": 6, "serialpos": 2, "trial_type": "single-audio", "trial_index": 227, "time_elapsed": 1061200, "internal_node_id": "0.0-164.0"}}, {"uniqueid": "MTK0631:37QW5D2ZRHTMZ2ARD4V3ZGW6F9T8SZ", "current_trial": 228, "dateTime": 1512574876707, "trialdata": {"rt": -1000, "stimulus": "/static/audio/wordpool/GAZELLE.wav", "key_press": -1, "type": "PRES_AUD", "word": "gazelle", "wordID": 627, "conditions": [12, 1600, "a", 24000], "trial": 6, "serialpos": 3, "trial_type": "single-audio", "trial_index": 228, "time_elapsed": 1063891, "internal_node_id": "0.0-165.0"}}, {"uniqueid": "MTK0631:37QW5D2ZRHTMZ2ARD4V3ZGW6F9T8SZ", "current_trial": 229, "dateTime": 1512574879385, "trialdata": {"rt": -1000, "stimulus": "/static/audio/wordpool/JUGGLER.wav", "key_press": -1, "type": "PRES_AUD", "word": "juggler", "wordID": 762, "conditions": [12, 1600, "a", 24000], "trial": 6, "serialpos": 4, "trial_type": "single-audio", "trial_index": 229, "time_elapsed": 1066569, "internal_node_id": "0.0-166.0"}}, {"uniqueid": "MTK0631:37QW5D2ZRHTMZ2ARD4V3ZGW6F9T8SZ", "current_trial": 230, "dateTime": 1512574882128, "trialdata": {"rt": -1000, "stimulus": "/static/audio/wordpool/VICTIM.wav", "key_press": -1, "type": "PRES_AUD", "word": "victim", "wordID": 1561, "conditions": [12, 1600, "a", 24000], "trial": 6, "serialpos": 5, "trial_type": "single-audio", "trial_index": 230, "time_elapsed": 1069312, "internal_node_id": "0.0-167.0"}}, {"uniqueid": "MTK0631:37QW5D2ZRHTMZ2ARD4V3ZGW6F9T8SZ", "current_trial": 231, "dateTime": 1512574884726, "trialdata": {"rt": -1000, "stimulus": "/static/audio/wordpool/SUSPECT.wav", "key_press": -1, "type": "PRES_AUD", "word": "suspect", "wordID": 1414, "conditions": [12, 1600, "a", 24000], "trial": 6, "serialpos": 6, "trial_type": "single-audio", "trial_index": 231, "time_elapsed": 1071910, "internal_node_id": "0.0-168.0"}}, {"uniqueid": "MTK0631:37QW5D2ZRHTMZ2ARD4V3ZGW6F9T8SZ", "current_trial": 232, "dateTime": 1512574887296, "trialdata": {"rt": -1000, "stimulus": "/static/audio/wordpool/JELLO.wav", "key_press": -1, "type": "PRES_AUD", "word": "jello", "wordID": 753, "conditions": [12, 1600, "a", 24000], "trial": 6, "serialpos": 7, "trial_type": "single-audio", "trial_index": 232, "time_elapsed": 1074480, "internal_node_id": "0.0-169.0"}}, {"uniqueid": "MTK0631:37QW5D2ZRHTMZ2ARD4V3ZGW6F9T8SZ", "current_trial": 233, "dateTime": 1512574889750, "trialdata": {"rt": -1000, "stimulus": "/static/audio/wordpool/ACTRESS.wav", "key_press": -1, "type": "PRES_AUD", "word": "actress", "wordID": 5, "conditions": [12, 1600, "a", 24000], "trial": 6, "serialpos": 8, "trial_type": "single-audio", "trial_index": 233, "time_elapsed": 1076934, "internal_node_id": "0.0-170.0"}}, {"uniqueid": "MTK0631:37QW5D2ZRHTMZ2ARD4V3ZGW6F9T8SZ", "current_trial": 234, "dateTime": 1512574892431, "trialdata": {"rt": -1000, "stimulus": "/static/audio/wordpool/SPOOL.wav", "key_press": -1, "type": "PRES_AUD", "word": "spool", "wordID": 1355, "conditions": [12, 1600, "a", 24000], "trial": 6, "serialpos": 9, "trial_type": "single-audio", "trial_index": 234, "time_elapsed": 1079615, "internal_node_id": "0.0-171.0"}}, {"uniqueid": "MTK0631:37QW5D2ZRHTMZ2ARD4V3ZGW6F9T8SZ", "current_trial": 235, "dateTime": 1512574894897, "trialdata": {"rt": -1000, "stimulus": "/static/audio/wordpool/WRENCH.wav", "key_press": -1, "type": "PRES_AUD", "word": "wrench", "wordID": 1624, "conditions": [12, 1600, "a", 24000], "trial": 6, "serialpos": 10, "trial_type": "single-audio", "trial_index": 235, "time_elapsed": 1082081, "internal_node_id": "0.0-172.0"}}, {"uniqueid": "MTK0631:37QW5D2ZRHTMZ2ARD4V3ZGW6F9T8SZ", "current_trial": 236, "dateTime": 1512574897449, "trialdata": {"rt": -1000, "stimulus": "/static/audio/wordpool/BADGE.wav", "key_press": -1, "type": "PRES_AUD", "word": "badge", "wordID": 67, "conditions": [12, 1600, "a", 24000], "trial": 6, "serialpos": 11, "trial_type": "single-audio", "trial_index": 236, "time_elapsed": 1084633, "internal_node_id": "0.0-173.0"}}, {"uniqueid": "MTK0631:37QW5D2ZRHTMZ2ARD4V3ZGW6F9T8SZ", "current_trial": 237, "dateTime": 1512574898658, "trialdata": {"rt": -1, "stimulus": "", "key_press": -1, "type": "PRE_RECALL_DELAY", "trial_type": "single-stim", "trial_index": 237, "time_elapsed": 1085842, "internal_node_id": "0.0-174.0-0.0"}}, {"uniqueid": "MTK0631:37QW5D2ZRHTMZ2ARD4V3ZGW6F9T8SZ", "current_trial": 238, "dateTime": 1512574899158, "trialdata": {"rt": -1000, "stimulus": "/static/audio/400Hz.wav", "key_press": -1, "type": "PRE_RECALL_ALERT", "trial_type": "single-audio", "trial_index": 238, "time_elapsed": 1086342, "internal_node_id": "0.0-175.0"}}, {"uniqueid": "MTK0631:37QW5D2ZRHTMZ2ARD4V3ZGW6F9T8SZ", "current_trial": 239, "dateTime": 1512574959164, "trialdata": {"rt": [1939, 4670, 7887, 11831, 14626, 18009, 36671], "recwords": ["victim", "suspect", "badge", "pillow", "actress", "infant", "nightgown"], "type": "FREE_RECALL", "conditions": [12, 1600, "a", 24000], "trial": 6, "trial_type": "free-recall", "trial_index": 239, "time_elapsed": 1146343, "internal_node_id": "0.0-176.0-0.0"}}, {"uniqueid": "MTK0631:37QW5D2ZRHTMZ2ARD4V3ZGW6F9T8SZ", "current_trial": 240, "dateTime": 1512574962137, "trialdata": {"rt": 972, "key_press": 32, "type": "INSTRUCTIONS", "trial_type": "text", "trial_index": 240, "time_elapsed": 1149321, "internal_node_id": "0.0-177.0"}}, {"uniqueid": "MTK0631:37QW5D2ZRHTMZ2ARD4V3ZGW6F9T8SZ", "current_trial": 241, "dateTime": 1512574976138, "trialdata": {"rt": [3512, 6323, 8864], "responses": ["13", "22", "15"], "num1": [5, 4, 7, 2], "num2": [2, 9, 1, 3], "num3": [6, 9, 7, 6], "type": "DISTRACTOR", "conditions": [24, 1600, "a", 12000], "trial": 7, "trial_type": "math-distractor", "trial_index": 241, "time_elapsed": 1163322, "internal_node_id": "0.0-178.0"}}, {"uniqueid": "MTK0631:37QW5D2ZRHTMZ2ARD4V3ZGW6F9T8SZ", "current_trial": 242, "dateTime": 1512574979138, "trialdata": {"rt": -1, "stimulus": "<p id=\"stim\">10</p>", "key_press": -1, "trial_type": "single-stim", "trial_index": 242, "time_elapsed": 1166322, "internal_node_id": "0.0-179.0-0.0"}}, {"uniqueid": "MTK0631:37QW5D2ZRHTMZ2ARD4V3ZGW6F9T8SZ", "current_trial": 243, "dateTime": 1512574980138, "trialdata": {"rt": -1, "stimulus": "<p id=\"stim\">9</p>", "key_press": -1, "trial_type": "single-stim", "trial_index": 243, "time_elapsed": 1167322, "internal_node_id": "0.0-179.0-1.0"}}, {"uniqueid": "MTK0631:37QW5D2ZRHTMZ2ARD4V3ZGW6F9T8SZ", "current_trial": 244, "dateTime": 1512574981138, "trialdata": {"rt": -1, "stimulus": "<p id=\"stim\">8</p>", "key_press": -1, "trial_type": "single-stim", "trial_index": 244, "time_elapsed": 1168322, "internal_node_id": "0.0-179.0-2.0"}}, {"uniqueid": "MTK0631:37QW5D2ZRHTMZ2ARD4V3ZGW6F9T8SZ", "current_trial": 245, "dateTime": 1512574982140, "trialdata": {"rt": -1, "stimulus": "<p id=\"stim\">7</p>", "key_press": -1, "trial_type": "single-stim", "trial_index": 245, "time_elapsed": 1169324, "internal_node_id": "0.0-179.0-3.0"}}, {"uniqueid": "MTK0631:37QW5D2ZRHTMZ2ARD4V3ZGW6F9T8SZ", "current_trial": 246, "dateTime": 1512574983140, "trialdata": {"rt": -1, "stimulus": "<p id=\"stim\">6</p>", "key_press": -1, "trial_type": "single-stim", "trial_index": 246, "time_elapsed": 1170324, "internal_node_id": "0.0-179.0-4.0"}}, {"uniqueid": "MTK0631:37QW5D2ZRHTMZ2ARD4V3ZGW6F9T8SZ", "current_trial": 247, "dateTime": 1512574984140, "trialdata": {"rt": -1, "stimulus": "<p id=\"stim\">5</p>", "key_press": -1, "trial_type": "single-stim", "trial_index": 247, "time_elapsed": 1171324, "internal_node_id": "0.0-179.0-5.0"}}, {"uniqueid": "MTK0631:37QW5D2ZRHTMZ2ARD4V3ZGW6F9T8SZ", "current_trial": 248, "dateTime": 1512574985140, "trialdata": {"rt": -1, "stimulus": "<p id=\"stim\">4</p>", "key_press": -1, "trial_type": "single-stim", "trial_index": 248, "time_elapsed": 1172324, "internal_node_id": "0.0-179.0-6.0"}}, {"uniqueid": "MTK0631:37QW5D2ZRHTMZ2ARD4V3ZGW6F9T8SZ", "current_trial": 249, "dateTime": 1512574986140, "trialdata": {"rt": -1, "stimulus": "<p id=\"stim\">3</p>", "key_press": -1, "trial_type": "single-stim", "trial_index": 249, "time_elapsed": 1173324, "internal_node_id": "0.0-179.0-7.0"}}, {"uniqueid": "MTK0631:37QW5D2ZRHTMZ2ARD4V3ZGW6F9T8SZ", "current_trial": 250, "dateTime": 1512574987140, "trialdata": {"rt": -1, "stimulus": "<p id=\"stim\">2</p>", "key_press": -1, "trial_type": "single-stim", "trial_index": 250, "time_elapsed": 1174324, "internal_node_id": "0.0-179.0-8.0"}}, {"uniqueid": "MTK0631:37QW5D2ZRHTMZ2ARD4V3ZGW6F9T8SZ", "current_trial": 251, "dateTime": 1512574988140, "trialdata": {"rt": -1, "stimulus": "<p id=\"stim\">1</p>", "key_press": -1, "trial_type": "single-stim", "trial_index": 251, "time_elapsed": 1175324, "internal_node_id": "0.0-179.0-9.0"}}, {"uniqueid": "MTK0631:37QW5D2ZRHTMZ2ARD4V3ZGW6F9T8SZ", "current_trial": 252, "dateTime": 1512574989640, "trialdata": {"rt": -1, "stimulus": "<p id=\"stim\">+</p>", "key_press": -1, "type": "FIXATION", "trial_type": "single-stim", "trial_index": 252, "time_elapsed": 1176824, "internal_node_id": "0.0-180.0-0.0"}}, {"uniqueid": "MTK0631:37QW5D2ZRHTMZ2ARD4V3ZGW6F9T8SZ", "current_trial": 253, "dateTime": 1512574992079, "trialdata": {"rt": -1000, "stimulus": "/static/audio/wordpool/BOYFRIEND.wav", "key_press": -1, "type": "PRES_AUD", "word": "boyfriend", "wordID": 161, "conditions": [24, 1600, "a", 12000], "trial": 7, "serialpos": 0, "trial_type": "single-audio", "trial_index": 253, "time_elapsed": 1179263, "internal_node_id": "0.0-181.0"}}, {"uniqueid": "MTK0631:37QW5D2ZRHTMZ2ARD4V3ZGW6F9T8SZ", "current_trial": 254, "dateTime": 1512574994837, "trialdata": {"rt": -1000, "stimulus": "/static/audio/wordpool/SUMMIT.wav", "key_press": -1, "type": "PRES_AUD", "word": "summit", "wordID": 1404, "conditions": [24, 1600, "a", 12000], "trial": 7, "serialpos": 1, "trial_type": "single-audio", "trial_index": 254, "time_elapsed": 1182021, "internal_node_id": "0.0-182.0"}}, {"uniqueid": "MTK0631:37QW5D2ZRHTMZ2ARD4V3ZGW6F9T8SZ", "current_trial": 255, "dateTime": 1512574997471, "trialdata": {"rt": -1000, "stimulus": "/static/audio/wordpool/SPARROW.wav", "key_press": -1, "type": "PRES_AUD", "word": "sparrow", "wordID": 1346, "conditions": [24, 1600, "a", 12000], "trial": 7, "serialpos": 2, "trial_type": "single-audio", "trial_index": 255, "time_elapsed": 1184655, "internal_node_id": "0.0-183.0"}}, {"uniqueid": "MTK0631:37QW5D2ZRHTMZ2ARD4V3ZGW6F9T8SZ", "current_trial": 256, "dateTime": 1512575000113, "trialdata": {"rt": -1000, "stimulus": "/static/audio/wordpool/NEUTRON.wav", "key_press": -1, "type": "PRES_AUD", "word": "neutron", "wordID": 946, "conditions": [24, 1600, "a", 12000], "trial": 7, "serialpos": 3, "trial_type": "single-audio", "trial_index": 256, "time_elapsed": 1187297, "internal_node_id": "0.0-184.0"}}, {"uniqueid": "MTK0631:37QW5D2ZRHTMZ2ARD4V3ZGW6F9T8SZ", "current_trial": 257, "dateTime": 1512575002911, "trialdata": {"rt": -1000, "stimulus": "/static/audio/wordpool/ANKLE.wav", "key_press": -1, "type": "PRES_AUD", "word": "ankle", "wordID": 23, "conditions": [24, 1600, "a", 12000], "trial": 7, "serialpos": 4, "trial_type": "single-audio", "trial_index": 257, "time_elapsed": 1190095, "internal_node_id": "0.0-185.0"}}, {"uniqueid": "MTK0631:37QW5D2ZRHTMZ2ARD4V3ZGW6F9T8SZ", "current_trial": 258, "dateTime": 1512575005454, "trialdata": {"rt": -1000, "stimulus": "/static/audio/wordpool/CURTAIN.wav", "key_press": -1, "type": "PRES_AUD", "word": "curtain", "wordID": 426, "conditions": [24, 1600, "a", 12000], "trial": 7, "serialpos": 5, "trial_type": "single-audio", "trial_index": 258, "time_elapsed": 1192638, "internal_node_id": "0.0-186.0"}}, {"uniqueid": "MTK0631:37QW5D2ZRHTMZ2ARD4V3ZGW6F9T8SZ", "current_trial": 259, "dateTime": 1512575007914, "trialdata": {"rt": -1000, "stimulus": "/static/audio/wordpool/RUG.wav", "key_press": -1, "type": "PRES_AUD", "word": "rug", "wordID": 1214, "conditions": [24, 1600, "a", 12000], "trial": 7, "serialpos": 6, "trial_type": "single-audio", "trial_index": 259, "time_elapsed": 1195098, "internal_node_id": "0.0-187.0"}}, {"uniqueid": "MTK0631:37QW5D2ZRHTMZ2ARD4V3ZGW6F9T8SZ", "current_trial": 260, "dateTime": 1512575010438, "trialdata": {"rt": -1000, "stimulus": "/static/audio/wordpool/CRICKET.wav", "key_press": -1, "type": "PRES_AUD", "word": "cricket", "wordID": 407, "conditions": [24, 1600, "a", 12000], "trial": 7, "serialpos": 7, "trial_type": "single-audio", "trial_index": 260, "time_elapsed": 1197622, "internal_node_id": "0.0-188.0"}}, {"uniqueid": "MTK0631:37QW5D2ZRHTMZ2ARD4V3ZGW6F9T8SZ", "current_trial": 261, "dateTime": 1512575012855, "trialdata": {"rt": -1000, "stimulus": "/static/audio/wordpool/SNACK.wav", "key_press": -1, "type": "PRES_AUD", "word": "snack", "wordID": 1330, "conditions": [24, 1600, "a", 12000], "trial": 7, "serialpos": 8, "trial_type": "single-audio", "trial_index": 261, "time_elapsed": 1200039, "internal_node_id": "0.0-189.0"}}, {"uniqueid": "MTK0631:37QW5D2ZRHTMZ2ARD4V3ZGW6F9T8SZ", "current_trial": 262, "dateTime": 1512575015444, "trialdata": {"rt": -1000, "stimulus": "/static/audio/wordpool/COSTUME.wav", "key_press": -1, "type": "PRES_AUD", "word": "costume", "wordID": 382, "conditions": [24, 1600, "a", 12000], "trial": 7, "serialpos": 9, "trial_type": "single-audio", "trial_index": 262, "time_elapsed": 1202628, "internal_node_id": "0.0-190.0"}}, {"uniqueid": "MTK0631:37QW5D2ZRHTMZ2ARD4V3ZGW6F9T8SZ", "current_trial": 263, "dateTime": 1512575017907, "trialdata": {"rt": -1000, "stimulus": "/static/audio/wordpool/SCARECROW.wav", "key_press": -1, "type": "PRES_AUD", "word": "scarecrow", "wordID": 1244, "conditions": [24, 1600, "a", 12000], "trial": 7, "serialpos": 10, "trial_type": "single-audio", "trial_index": 263, "time_elapsed": 1205091, "internal_node_id": "0.0-191.0"}}, {"uniqueid": "MTK0631:37QW5D2ZRHTMZ2ARD4V3ZGW6F9T8SZ", "current_trial": 264, "dateTime": 1512575020369, "trialdata": {"rt": -1000, "stimulus": "/static/audio/wordpool/LUNCH.wav", "key_press": -1, "type": "PRES_AUD", "word": "lunch", "wordID": 848, "conditions": [24, 1600, "a", 12000], "trial": 7, "serialpos": 11, "trial_type": "single-audio", "trial_index": 264, "time_elapsed": 1207553, "internal_node_id": "0.0-192.0"}}, {"uniqueid": "MTK0631:37QW5D2ZRHTMZ2ARD4V3ZGW6F9T8SZ", "current_trial": 265, "dateTime": 1512575022887, "trialdata": {"rt": -1000, "stimulus": "/static/audio/wordpool/FRAGRANCE.wav", "key_press": -1, "type": "PRES_AUD", "word": "fragrance", "wordID": 598, "conditions": [24, 1600, "a", 12000], "trial": 7, "serialpos": 12, "trial_type": "single-audio", "trial_index": 265, "time_elapsed": 1210071, "internal_node_id": "0.0-193.0"}}, {"uniqueid": "MTK0631:37QW5D2ZRHTMZ2ARD4V3ZGW6F9T8SZ", "current_trial": 266, "dateTime": 1512575025511, "trialdata": {"rt": -1000, "stimulus": "/static/audio/wordpool/HEADBAND.wav", "key_press": -1, "type": "PRES_AUD", "word": "headband", "wordID": 695, "conditions": [24, 1600, "a", 12000], "trial": 7, "serialpos": 13, "trial_type": "single-audio", "trial_index": 266, "time_elapsed": 1212695, "internal_node_id": "0.0-194.0"}}, {"uniqueid": "MTK0631:37QW5D2ZRHTMZ2ARD4V3ZGW6F9T8SZ", "current_trial": 267, "dateTime": 1512575028198, "trialdata": {"rt": -1000, "stimulus": "/static/audio/wordpool/NOTEBOOK.wav", "key_press": -1, "type": "PRES_AUD", "word": "notebook", "wordID": 958, "conditions": [24, 1600, "a", 12000], "trial": 7, "serialpos": 14, "trial_type": "single-audio", "trial_index": 267, "time_elapsed": 1215382, "internal_node_id": "0.0-195.0"}}, {"uniqueid": "MTK0631:37QW5D2ZRHTMZ2ARD4V3ZGW6F9T8SZ", "current_trial": 268, "dateTime": 1512575030747, "trialdata": {"rt": -1000, "stimulus": "/static/audio/wordpool/DAISY.wav", "key_press": -1, "type": "PRES_AUD", "word": "daisy", "wordID": 434, "conditions": [24, 1600, "a", 12000], "trial": 7, "serialpos": 15, "trial_type": "single-audio", "trial_index": 268, "time_elapsed": 1217931, "internal_node_id": "0.0-196.0"}}, {"uniqueid": "MTK0631:37QW5D2ZRHTMZ2ARD4V3ZGW6F9T8SZ", "current_trial": 269, "dateTime": 1512575033370, "trialdata": {"rt": -1000, "stimulus": "/static/audio/wordpool/CABBAGE.wav", "key_press": -1, "type": "PRES_AUD", "word": "cabbage", "wordID": 209, "conditions": [24, 1600, "a", 12000], "trial": 7, "serialpos": 16, "trial_type": "single-audio", "trial_index": 269, "time_elapsed": 1220554, "internal_node_id": "0.0-197.0"}}, {"uniqueid": "MTK0631:37QW5D2ZRHTMZ2ARD4V3ZGW6F9T8SZ", "current_trial": 270, "dateTime": 1512575036115, "trialdata": {"rt": -1000, "stimulus": "/static/audio/wordpool/RIFLE.wav", "key_press": -1, "type": "PRES_AUD", "word": "rifle", "wordID": 1191, "conditions": [24, 1600, "a", 12000], "trial": 7, "serialpos": 17, "trial_type": "single-audio", "trial_index": 270, "time_elapsed": 1223299, "internal_node_id": "0.0-198.0"}}, {"uniqueid": "MTK0631:37QW5D2ZRHTMZ2ARD4V3ZGW6F9T8SZ", "current_trial": 271, "dateTime": 1512575038534, "trialdata