{"condition": 0, "counterbalance": 2790, "assignmentId": "3FDJT1UU75F5O1EHAXFYWAV5VPKK5W", "workerId": "MTK0610", "hitId": "34D9ZRXCYR1YV65CK0AF6N6HQN7AS9", "currenttrial": 626, "bonus": 0, "data": [{"uniqueid": "MTK0610:3FDJT1UU75F5O1EHAXFYWAV5VPKK5W", "current_trial": 0, "dateTime": 1511565665275, "trialdata": {"rt": 14555, "key_press": 32, "type": "INSTRUCTIONS", "trial_type": "text", "trial_index": 0, "time_elapsed": 14557, "internal_node_id": "0.0-0.0"}}, {"uniqueid": "MTK0610:3FDJT1UU75F5O1EHAXFYWAV5VPKK5W", "current_trial": 1, "dateTime": 1511565690777, "trialdata": {"rt": 25501, "key_press": 32, "type": "INSTRUCTIONS", "trial_type": "text", "trial_index": 1, "time_elapsed": 40060, "internal_node_id": "0.0-1.0"}}, {"uniqueid": "MTK0610:3FDJT1UU75F5O1EHAXFYWAV5VPKK5W", "current_trial": 2, "dateTime": 1511565716258, "trialdata": {"rt": [25475], "responses": ["ocean"], "type": "AUDIO_TEST", "trial_type": "audio-test", "trial_index": 2, "time_elapsed": 65541, "internal_node_id": "0.0-2.0"}}, {"uniqueid": "MTK0610:3FDJT1UU75F5O1EHAXFYWAV5VPKK5W", "current_trial": 3, "dateTime": 1511565722041, "trialdata": {"rt": [5780], "responses": ["crystal"], "type": "AUDIO_TEST", "trial_type": "audio-test", "trial_index": 3, "time_elapsed": 71324, "internal_node_id": "0.0-3.0"}}, {"uniqueid": "MTK0610:3FDJT1UU75F5O1EHAXFYWAV5VPKK5W", "current_trial": 4, "dateTime": 1511565728297, "trialdata": {"rt": [6253], "responses": ["spice"], "type": "AUDIO_TEST", "trial_type": "audio-test", "trial_index": 4, "time_elapsed": 77580, "internal_node_id": "0.0-4.0"}}, {"uniqueid": "MTK0610:3FDJT1UU75F5O1EHAXFYWAV5VPKK5W", "current_trial": 5, "dateTime": 1511565769138, "trialdata": {"rt": 40087, "responses": "{\"Q0\":\"11pm\",\"Q1\":\"10am\",\"Q2\":\"4\"}", "type": "SLEEP_SURVEY", "trial_type": "survey-text", "trial_index": 5, "time_elapsed": 118421, "internal_node_id": "0.0-5.0"}}, {"uniqueid": "MTK0610:3FDJT1UU75F5O1EHAXFYWAV5VPKK5W", "current_trial": 6, "dateTime": 1511565905977, "trialdata": {"rt": 135837, "key_press": 13, "type": "INSTRUCTIONS", "trial_type": "text", "trial_index": 6, "time_elapsed": 255260, "internal_node_id": "0.0-6.0"}}, {"uniqueid": "MTK0610:3FDJT1UU75F5O1EHAXFYWAV5VPKK5W", "current_trial": 7, "dateTime": 1511565951233, "trialdata": {"rt": 44753, "key_press": 32, "type": "INSTRUCTIONS", "trial_type": "text", "trial_index": 7, "time_elapsed": 300516, "internal_node_id": "0.0-7.0"}}, {"uniqueid": "MTK0610:3FDJT1UU75F5O1EHAXFYWAV5VPKK5W", "current_trial": 8, "dateTime": 1511565955161, "trialdata": {"rt": 3425, "key_press": 32, "type": "INSTRUCTIONS", "trial_type": "text", "trial_index": 8, "time_elapsed": 304444, "internal_node_id": "0.0-8.0"}}, {"uniqueid": "MTK0610:3FDJT1UU75F5O1EHAXFYWAV5VPKK5W", "current_trial": 9, "dateTime": 1511565974183, "trialdata": {"rt": [3556, 5307, 7380, 9707, 12707, 14331, 16867], "responses": ["16", "12", "19", "15", "16", "10", "14"], "num1": [4, 5, 7, 2, 4, 4, 7, 8], "num2": [7, 6, 5, 5, 6, 2, 4, 4], "num3": [5, 1, 7, 8, 6, 4, 3, 1], "type": "DISTRACTOR", "conditions": [18, 1200, "v", 18000], "trial": 0, "trial_type": "math-distractor", "trial_index": 9, "time_elapsed": 323466, "internal_node_id": "0.0-9.0"}}, {"uniqueid": "MTK0610:3FDJT1UU75F5O1EHAXFYWAV5VPKK5W", "current_trial": 10, "dateTime": 1511565977186, "trialdata": {"rt": -1, "stimulus": "<p id=\"stim\">10</p>", "key_press": -1, "trial_type": "single-stim", "trial_index": 10, "time_elapsed": 326469, "internal_node_id": "0.0-10.0-0.0"}}, {"uniqueid": "MTK0610:3FDJT1UU75F5O1EHAXFYWAV5VPKK5W", "current_trial": 11, "dateTime": 1511565978188, "trialdata": {"rt": -1, "stimulus": "<p id=\"stim\">9</p>", "key_press": -1, "trial_type": "single-stim", "trial_index": 11, "time_elapsed": 327471, "internal_node_id": "0.0-10.0-1.0"}}, {"uniqueid": "MTK0610:3FDJT1UU75F5O1EHAXFYWAV5VPKK5W", "current_trial": 12, "dateTime": 1511565979188, "trialdata": {"rt": -1, "stimulus": "<p id=\"stim\">8</p>", "key_press": -1, "trial_type": "single-stim", "trial_index": 12, "time_elapsed": 328471, "internal_node_id": "0.0-10.0-2.0"}}, {"uniqueid": "MTK0610:3FDJT1UU75F5O1EHAXFYWAV5VPKK5W", "current_trial": 13, "dateTime": 1511565980189, "trialdata": {"rt": -1, "stimulus": "<p id=\"stim\">7</p>", "key_press": -1, "trial_type": "single-stim", "trial_index": 13, "time_elapsed": 329472, "internal_node_id": "0.0-10.0-3.0"}}, {"uniqueid": "MTK0610:3FDJT1UU75F5O1EHAXFYWAV5VPKK5W", "current_trial": 14, "dateTime": 1511565981190, "trialdata": {"rt": -1, "stimulus": "<p id=\"stim\">6</p>", "key_press": -1, "trial_type": "single-stim", "trial_index": 14, "time_elapsed": 330473, "internal_node_id": "0.0-10.0-4.0"}}, {"uniqueid": "MTK0610:3FDJT1UU75F5O1EHAXFYWAV5VPKK5W", "current_trial": 15, "dateTime": 1511565982190, "trialdata": {"rt": -1, "stimulus": "<p id=\"stim\">5</p>", "key_press": -1, "trial_type": "single-stim", "trial_index": 15, "time_elapsed": 331473, "internal_node_id": "0.0-10.0-5.0"}}, {"uniqueid": "MTK0610:3FDJT1UU75F5O1EHAXFYWAV5VPKK5W", "current_trial": 16, "dateTime": 1511565983194, "trialdata": {"rt": -1, "stimulus": "<p id=\"stim\">4</p>", "key_press": -1, "trial_type": "single-stim", "trial_index": 16, "time_elapsed": 332477, "internal_node_id": "0.0-10.0-6.0"}}, {"uniqueid": "MTK0610:3FDJT1UU75F5O1EHAXFYWAV5VPKK5W", "current_trial": 17, "dateTime": 1511565984195, "trialdata": {"rt": -1, "stimulus": "<p id=\"stim\">3</p>", "key_press": -1, "trial_type": "single-stim", "trial_index": 17, "time_elapsed": 333478, "internal_node_id": "0.0-10.0-7.0"}}, {"uniqueid": "MTK0610:3FDJT1UU75F5O1EHAXFYWAV5VPKK5W", "current_trial": 18, "dateTime": 1511565985196, "trialdata": {"rt": -1, "stimulus": "<p id=\"stim\">2</p>", "key_press": -1, "trial_type": "single-stim", "trial_index": 18, "time_elapsed": 334479, "internal_node_id": "0.0-10.0-8.0"}}, {"uniqueid": "MTK0610:3FDJT1UU75F5O1EHAXFYWAV5VPKK5W", "current_trial": 19, "dateTime": 1511565986198, "trialdata": {"rt": -1, "stimulus": "<p id=\"stim\">1</p>", "key_press": -1, "trial_type": "single-stim", "trial_index": 19, "time_elapsed": 335481, "internal_node_id": "0.0-10.0-9.0"}}, {"uniqueid": "MTK0610:3FDJT1UU75F5O1EHAXFYWAV5VPKK5W", "current_trial": 20, "dateTime": 1511565987699, "trialdata": {"rt": -1, "stimulus": "<p id=\"stim\">+</p>", "key_press": -1, "type": "FIXATION", "trial_type": "single-stim", "trial_index": 20, "time_elapsed": 336982, "internal_node_id": "0.0-11.0-0.0"}}, {"uniqueid": "MTK0610:3FDJT1UU75F5O1EHAXFYWAV5VPKK5W", "current_trial": 21, "dateTime": 1511565988900, "trialdata": {"rt": -1, "stimulus": "<p id=\"stim\">GROUND</p>", "key_press": -1, "type": "PRES_VIS", "word": "ground", "wordID": 665, "conditions": [18, 1200, "v", 18000], "trial": 0, "serialpos": 0, "trial_type": "single-stim", "trial_index": 21, "time_elapsed": 338183, "internal_node_id": "0.0-12.0"}}, {"uniqueid": "MTK0610:3FDJT1UU75F5O1EHAXFYWAV5VPKK5W", "current_trial": 22, "dateTime": 1511565991021, "trialdata": {"rt": -1, "stimulus": "<p id=\"stim\">DAISY</p>", "key_press": -1, "type": "PRES_VIS", "word": "daisy", "wordID": 434, "conditions": [18, 1200, "v", 18000], "trial": 0, "serialpos": 1, "trial_type": "single-stim", "trial_index": 22, "time_elapsed": 340304, "internal_node_id": "0.0-13.0"}}, {"uniqueid": "MTK0610:3FDJT1UU75F5O1EHAXFYWAV5VPKK5W", "current_trial": 23, "dateTime": 1511565993216, "trialdata": {"rt": -1, "stimulus": "<p id=\"stim\">JUDGE</p>", "key_press": -1, "type": "PRES_VIS", "word": "judge", "wordID": 760, "conditions": [18, 1200, "v", 18000], "trial": 0, "serialpos": 2, "trial_type": "single-stim", "trial_index": 23, "time_elapsed": 342499, "internal_node_id": "0.0-14.0"}}, {"uniqueid": "MTK0610:3FDJT1UU75F5O1EHAXFYWAV5VPKK5W", "current_trial": 24, "dateTime": 1511565995487, "trialdata": {"rt": -1, "stimulus": "<p id=\"stim\">DRUG</p>", "key_press": -1, "type": "PRES_VIS", "word": "drug", "wordID": 500, "conditions": [18, 1200, "v", 18000], "trial": 0, "serialpos": 3, "trial_type": "single-stim", "trial_index": 24, "time_elapsed": 344770, "internal_node_id": "0.0-15.0"}}, {"uniqueid": "MTK0610:3FDJT1UU75F5O1EHAXFYWAV5VPKK5W", "current_trial": 25, "dateTime": 1511565997873, "trialdata": {"rt": -1, "stimulus": "<p id=\"stim\">DONKEY</p>", "key_press": -1, "type": "PRES_VIS", "word": "donkey", "wordID": 483, "conditions": [18, 1200, "v", 18000], "trial": 0, "serialpos": 4, "trial_type": "single-stim", "trial_index": 25, "time_elapsed": 347156, "internal_node_id": "0.0-16.0"}}, {"uniqueid": "MTK0610:3FDJT1UU75F5O1EHAXFYWAV5VPKK5W", "current_trial": 26, "dateTime": 1511565999987, "trialdata": {"rt": -1, "stimulus": "<p id=\"stim\">SERVANT</p>", "key_press": -1, "type": "PRES_VIS", "word": "servant", "wordID": 1270, "conditions": [18, 1200, "v", 18000], "trial": 0, "serialpos": 5, "trial_type": "single-stim", "trial_index": 26, "time_elapsed": 349270, "internal_node_id": "0.0-17.0"}}, {"uniqueid": "MTK0610:3FDJT1UU75F5O1EHAXFYWAV5VPKK5W", "current_trial": 27, "dateTime": 1511566002148, "trialdata": {"rt": -1, "stimulus": "<p id=\"stim\">DANCER</p>", "key_press": -1, "type": "PRES_VIS", "word": "dancer", "wordID": 436, "conditions": [18, 1200, "v", 18000], "trial": 0, "serialpos": 6, "trial_type": "single-stim", "trial_index": 27, "time_elapsed": 351431, "internal_node_id": "0.0-18.0"}}, {"uniqueid": "MTK0610:3FDJT1UU75F5O1EHAXFYWAV5VPKK5W", "current_trial": 28, "dateTime": 1511566004367, "trialdata": {"rt": -1, "stimulus": "<p id=\"stim\">TEACHER</p>", "key_press": -1, "type": "PRES_VIS", "word": "teacher", "wordID": 1439, "conditions": [18, 1200, "v", 18000], "trial": 0, "serialpos": 7, "trial_type": "single-stim", "trial_index": 28, "time_elapsed": 353650, "internal_node_id": "0.0-19.0"}}, {"uniqueid": "MTK0610:3FDJT1UU75F5O1EHAXFYWAV5VPKK5W", "current_trial": 29, "dateTime": 1511566006381, "trialdata": {"rt": -1, "stimulus": "<p id=\"stim\">SCALPEL</p>", "key_press": -1, "type": "PRES_VIS", "word": "scalpel", "wordID": 1242, "conditions": [18, 1200, "v", 18000], "trial": 0, "serialpos": 8, "trial_type": "single-stim", "trial_index": 29, "time_elapsed": 355664, "internal_node_id": "0.0-20.0"}}, {"uniqueid": "MTK0610:3FDJT1UU75F5O1EHAXFYWAV5VPKK5W", "current_trial": 30, "dateTime": 1511566008671, "trialdata": {"rt": -1, "stimulus": "<p id=\"stim\">MACHINE</p>", "key_press": -1, "type": "PRES_VIS", "word": "machine", "wordID": 851, "conditions": [18, 1200, "v", 18000], "trial": 0, "serialpos": 9, "trial_type": "single-stim", "trial_index": 30, "time_elapsed": 357954, "internal_node_id": "0.0-21.0"}}, {"uniqueid": "MTK0610:3FDJT1UU75F5O1EHAXFYWAV5VPKK5W", "current_trial": 31, "dateTime": 1511566011027, "trialdata": {"rt": -1, "stimulus": "<p id=\"stim\">FLASK</p>", "key_press": -1, "type": "PRES_VIS", "word": "flask", "wordID": 575, "conditions": [18, 1200, "v", 18000], "trial": 0, "serialpos": 10, "trial_type": "single-stim", "trial_index": 31, "time_elapsed": 360310, "internal_node_id": "0.0-22.0"}}, {"uniqueid": "MTK0610:3FDJT1UU75F5O1EHAXFYWAV5VPKK5W", "current_trial": 32, "dateTime": 1511566013305, "trialdata": {"rt": -1, "stimulus": "<p id=\"stim\">BANK</p>", "key_press": -1, "type": "PRES_VIS", "word": "bank", "wordID": 82, "conditions": [18, 1200, "v", 18000], "trial": 0, "serialpos": 11, "trial_type": "single-stim", "trial_index": 32, "time_elapsed": 362588, "internal_node_id": "0.0-23.0"}}, {"uniqueid": "MTK0610:3FDJT1UU75F5O1EHAXFYWAV5VPKK5W", "current_trial": 33, "dateTime": 1511566015368, "trialdata": {"rt": -1, "stimulus": "<p id=\"stim\">LILY</p>", "key_press": -1, "type": "PRES_VIS", "word": "lily", "wordID": 820, "conditions": [18, 1200, "v", 18000], "trial": 0, "serialpos": 12, "trial_type": "single-stim", "trial_index": 33, "time_elapsed": 364651, "internal_node_id": "0.0-24.0"}}, {"uniqueid": "MTK0610:3FDJT1UU75F5O1EHAXFYWAV5VPKK5W", "current_trial": 34, "dateTime": 1511566017669, "trialdata": {"rt": -1, "stimulus": "<p id=\"stim\">CAMEL</p>", "key_press": -1, "type": "PRES_VIS", "word": "camel", "wordID": 222, "conditions": [18, 1200, "v", 18000], "trial": 0, "serialpos": 13, "trial_type": "single-stim", "trial_index": 34, "time_elapsed": 366952, "internal_node_id": "0.0-25.0"}}, {"uniqueid": "MTK0610:3FDJT1UU75F5O1EHAXFYWAV5VPKK5W", "current_trial": 35, "dateTime": 1511566019940, "trialdata": {"rt": -1, "stimulus": "<p id=\"stim\">COUNTY</p>", "key_press": -1, "type": "PRES_VIS", "word": "county", "wordID": 388, "conditions": [18, 1200, "v", 18000], "trial": 0, "serialpos": 14, "trial_type": "single-stim", "trial_index": 35, "time_elapsed": 369223, "internal_node_id": "0.0-26.0"}}, {"uniqueid": "MTK0610:3FDJT1UU75F5O1EHAXFYWAV5VPKK5W", "current_trial": 36, "dateTime": 1511566022157, "trialdata": {"rt": -1, "stimulus": "<p id=\"stim\">COWBOY</p>", "key_press": -1, "type": "PRES_VIS", "word": "cowboy", "wordID": 394, "conditions": [18, 1200, "v", 18000], "trial": 0, "serialpos": 15, "trial_type": "single-stim", "trial_index": 36, "time_elapsed": 371440, "internal_node_id": "0.0-27.0"}}, {"uniqueid": "MTK0610:3FDJT1UU75F5O1EHAXFYWAV5VPKK5W", "current_trial": 37, "dateTime": 1511566024300, "trialdata": {"rt": -1, "stimulus": "<p id=\"stim\">ROBOT</p>", "key_press": -1, "type": "PRES_VIS", "word": "robot", "wordID": 1199, "conditions": [18, 1200, "v", 18000], "trial": 0, "serialpos": 16, "trial_type": "single-stim", "trial_index": 37, "time_elapsed": 373583, "internal_node_id": "0.0-28.0"}}, {"uniqueid": "MTK0610:3FDJT1UU75F5O1EHAXFYWAV5VPKK5W", "current_trial": 38, "dateTime": 1511566026308, "trialdata": {"rt": -1, "stimulus": "<p id=\"stim\">CASKET</p>", "key_press": -1, "type": "PRES_VIS", "word": "casket", "wordID": 254, "conditions": [18, 1200, "v", 18000], "trial": 0, "serialpos": 17, "trial_type": "single-stim", "trial_index": 38, "time_elapsed": 375591, "internal_node_id": "0.0-29.0"}}, {"uniqueid": "MTK0610:3FDJT1UU75F5O1EHAXFYWAV5VPKK5W", "current_trial": 39, "dateTime": 1511566028710, "trialdata": {"rt": -1, "stimulus": "", "key_press": -1, "type": "PRE_RECALL_DELAY", "trial_type": "single-stim", "trial_index": 39, "time_elapsed": 377993, "internal_node_id": "0.0-30.0-0.0"}}, {"uniqueid": "MTK0610:3FDJT1UU75F5O1EHAXFYWAV5VPKK5W", "current_trial": 40, "dateTime": 1511566029213, "trialdata": {"rt": -1000, "stimulus": "/static/audio/400Hz.wav", "key_press": -1, "type": "PRE_RECALL_ALERT", "trial_type": "single-audio", "trial_index": 40, "time_elapsed": 378496, "internal_node_id": "0.0-31.0"}}, {"uniqueid": "MTK0610:3FDJT1UU75F5O1EHAXFYWAV5VPKK5W", "current_trial": 41, "dateTime": 1511566089218, "trialdata": {"rt": [2186, 3986, 4938, 5882, 6722, 7521, 8826, 9722, 10345, 12314, 13801, 30650, 36410, 37153], "recwords": ["ground", "daisy", "lily", "judge", "drug", "dancer", "teacher", "servant", "bank", "cowboy", "county", "", "", ""], "type": "FREE_RECALL", "conditions": [18, 1200, "v", 18000], "trial": 0, "trial_type": "free-recall", "trial_index": 41, "time_elapsed": 438498, "internal_node_id": "0.0-32.0-0.0"}}, {"uniqueid": "MTK0610:3FDJT1UU75F5O1EHAXFYWAV5VPKK5W", "current_trial": 42, "dateTime": 1511566093720, "trialdata": {"rt": 2500, "key_press": 13, "type": "INSTRUCTIONS", "trial_type": "text", "trial_index": 42, "time_elapsed": 443003, "internal_node_id": "0.0-33.0"}}, {"uniqueid": "MTK0610:3FDJT1UU75F5O1EHAXFYWAV5VPKK5W", "current_trial": 43, "dateTime": 1511566113724, "trialdata": {"rt": [4398, 6510, 9061, 10469, 11853, 14326, 15525, 16829], "responses": ["19", "11", "19", "7", "13", "18", "13", "6"], "num1": [8, 1, 2, 3, 1, 4, 5, 1, 5], "num2": [5, 6, 9, 1, 4, 5, 5, 3, 9], "num3": [6, 4, 8, 3, 8, 9, 3, 2, 7], "type": "DISTRACTOR", "conditions": [18, 1200, "a", 18000], "trial": 1, "trial_type": "math-distractor", "trial_index": 43, "time_elapsed": 463007, "internal_node_id": "0.0-34.0"}}, {"uniqueid": "MTK0610:3FDJT1UU75F5O1EHAXFYWAV5VPKK5W", "current_trial": 44, "dateTime": 1511566116727, "trialdata": {"rt": -1, "stimulus": "<p id=\"stim\">10</p>", "key_press": -1, "trial_type": "single-stim", "trial_index": 44, "time_elapsed": 466009, "internal_node_id": "0.0-35.0-0.0"}}, {"uniqueid": "MTK0610:3FDJT1UU75F5O1EHAXFYWAV5VPKK5W", "current_trial": 45, "dateTime": 1511566117728, "trialdata": {"rt": -1, "stimulus": "<p id=\"stim\">9</p>", "key_press": -1, "trial_type": "single-stim", "trial_index": 45, "time_elapsed": 467011, "internal_node_id": "0.0-35.0-1.0"}}, {"uniqueid": "MTK0610:3FDJT1UU75F5O1EHAXFYWAV5VPKK5W", "current_trial": 46, "dateTime": 1511566118729, "trialdata": {"rt": -1, "stimulus": "<p id=\"stim\">8</p>", "key_press": -1, "trial_type": "single-stim", "trial_index": 46, "time_elapsed": 468012, "internal_node_id": "0.0-35.0-2.0"}}, {"uniqueid": "MTK0610:3FDJT1UU75F5O1EHAXFYWAV5VPKK5W", "current_trial": 47, "dateTime": 1511566119730, "trialdata": {"rt": -1, "stimulus": "<p id=\"stim\">7</p>", "key_press": -1, "trial_type": "single-stim", "trial_index": 47, "time_elapsed": 469013, "internal_node_id": "0.0-35.0-3.0"}}, {"uniqueid": "MTK0610:3FDJT1UU75F5O1EHAXFYWAV5VPKK5W", "current_trial": 48, "dateTime": 1511566120730, "trialdata": {"rt": -1, "stimulus": "<p id=\"stim\">6</p>", "key_press": -1, "trial_type": "single-stim", "trial_index": 48, "time_elapsed": 470013, "internal_node_id": "0.0-35.0-4.0"}}, {"uniqueid": "MTK0610:3FDJT1UU75F5O1EHAXFYWAV5VPKK5W", "current_trial": 49, "dateTime": 1511566121732, "trialdata": {"rt": -1, "stimulus": "<p id=\"stim\">5</p>", "key_press": -1, "trial_type": "single-stim", "trial_index": 49, "time_elapsed": 471015, "internal_node_id": "0.0-35.0-5.0"}}, {"uniqueid": "MTK0610:3FDJT1UU75F5O1EHAXFYWAV5VPKK5W", "current_trial": 50, "dateTime": 1511566122733, "trialdata": {"rt": -1, "stimulus": "<p id=\"stim\">4</p>", "key_press": -1, "trial_type": "single-stim", "trial_index": 50, "time_elapsed": 472016, "internal_node_id": "0.0-35.0-6.0"}}, {"uniqueid": "MTK0610:3FDJT1UU75F5O1EHAXFYWAV5VPKK5W", "current_trial": 51, "dateTime": 1511566123734, "trialdata": {"rt": -1, "stimulus": "<p id=\"stim\">3</p>", "key_press": -1, "trial_type": "single-stim", "trial_index": 51, "time_elapsed": 473017, "internal_node_id": "0.0-35.0-7.0"}}, {"uniqueid": "MTK0610:3FDJT1UU75F5O1EHAXFYWAV5VPKK5W", "current_trial": 52, "dateTime": 1511566124736, "trialdata": {"rt": -1, "stimulus": "<p id=\"stim\">2</p>", "key_press": -1, "trial_type": "single-stim", "trial_index": 52, "time_elapsed": 474019, "internal_node_id": "0.0-35.0-8.0"}}, {"uniqueid": "MTK0610:3FDJT1UU75F5O1EHAXFYWAV5VPKK5W", "current_trial": 53, "dateTime": 1511566125738, "trialdata": {"rt": -1, "stimulus": "<p id=\"stim\">1</p>", "key_press": -1, "trial_type": "single-stim", "trial_index": 53, "time_elapsed": 475021, "internal_node_id": "0.0-35.0-9.0"}}, {"uniqueid": "MTK0610:3FDJT1UU75F5O1EHAXFYWAV5VPKK5W", "current_trial": 54, "dateTime": 1511566127239, "trialdata": {"rt": -1, "stimulus": "<p id=\"stim\">+</p>", "key_press": -1, "type": "FIXATION", "trial_type": "single-stim", "trial_index": 54, "time_elapsed": 476522, "internal_node_id": "0.0-36.0-0.0"}}, {"uniqueid": "MTK0610:3FDJT1UU75F5O1EHAXFYWAV5VPKK5W", "current_trial": 55, "dateTime": 1511566129410, "trialdata": {"rt": -1000, "stimulus": "/static/audio/wordpool/FLAG.wav", "key_press": -1, "type": "PRES_AUD", "word": "flag", "wordID": 572, "conditions": [18, 1200, "a", 18000], "trial": 1, "serialpos": 0, "trial_type": "single-audio", "trial_index": 55, "time_elapsed": 478693, "internal_node_id": "0.0-37.0"}}, {"uniqueid": "MTK0610:3FDJT1UU75F5O1EHAXFYWAV5VPKK5W", "current_trial": 56, "dateTime": 1511566131727, "trialdata": {"rt": -1000, "stimulus": "/static/audio/wordpool/POPCORN.wav", "key_press": -1, "type": "PRES_AUD", "word": "popcorn", "wordID": 1103, "conditions": [18, 1200, "a", 18000], "trial": 1, "serialpos": 1, "trial_type": "single-audio", "trial_index": 56, "time_elapsed": 481010, "internal_node_id": "0.0-38.0"}}, {"uniqueid": "MTK0610:3FDJT1UU75F5O1EHAXFYWAV5VPKK5W", "current_trial": 57, "dateTime": 1511566134010, "trialdata": {"rt": -1000, "stimulus": "/static/audio/wordpool/CABIN.wav", "key_press": -1, "type": "PRES_AUD", "word": "cabin", "wordID": 210, "conditions": [18, 1200, "a", 18000], "trial": 1, "serialpos": 2, "trial_type": "single-audio", "trial_index": 57, "time_elapsed": 483293, "internal_node_id": "0.0-39.0"}}, {"uniqueid": "MTK0610:3FDJT1UU75F5O1EHAXFYWAV5VPKK5W", "current_trial": 58, "dateTime": 1511566136339, "trialdata": {"rt": -1000, "stimulus": "/static/audio/wordpool/PIANO.wav", "key_press": -1, "type": "PRES_AUD", "word": "piano", "wordID": 1056, "conditions": [18, 1200, "a", 18000], "trial": 1, "serialpos": 3, "trial_type": "single-audio", "trial_index": 58, "time_elapsed": 485622, "internal_node_id": "0.0-40.0"}}, {"uniqueid": "MTK0610:3FDJT1UU75F5O1EHAXFYWAV5VPKK5W", "current_trial": 59, "dateTime": 1511566138442, "trialdata": {"rt": -1000, "stimulus": "/static/audio/wordpool/BISON.wav", "key_press": -1, "type": "PRES_AUD", "word": "bison", "wordID": 130, "conditions": [18, 1200, "a", 18000], "trial": 1, "serialpos": 4, "trial_type": "single-audio", "trial_index": 59, "time_elapsed": 487724, "internal_node_id": "0.0-41.0"}}, {"uniqueid": "MTK0610:3FDJT1UU75F5O1EHAXFYWAV5VPKK5W", "current_trial": 60, "dateTime": 1511566140526, "trialdata": {"rt": -1000, "stimulus": "/static/audio/wordpool/GANGSTER.wav", "key_press": -1, "type": "PRES_AUD", "word": "gangster", "wordID": 619, "conditions": [18, 1200, "a", 18000], "trial": 1, "serialpos": 5, "trial_type": "single-audio", "trial_index": 60, "time_elapsed": 489809, "internal_node_id": "0.0-42.0"}}, {"uniqueid": "MTK0610:3FDJT1UU75F5O1EHAXFYWAV5VPKK5W", "current_trial": 61, "dateTime": 1511566142821, "trialdata": {"rt": -1000, "stimulus": "/static/audio/wordpool/CRIB.wav", "key_press": -1, "type": "PRES_AUD", "word": "crib", "wordID": 406, "conditions": [18, 1200, "a", 18000], "trial": 1, "serialpos": 6, "trial_type": "single-audio", "trial_index": 61, "time_elapsed": 492103, "internal_node_id": "0.0-43.0"}}, {"uniqueid": "MTK0610:3FDJT1UU75F5O1EHAXFYWAV5VPKK5W", "current_trial": 62, "dateTime": 1511566145176, "trialdata": {"rt": -1000, "stimulus": "/static/audio/wordpool/PASSAGE.wav", "key_press": -1, "type": "PRES_AUD", "word": "passage", "wordID": 1018, "conditions": [18, 1200, "a", 18000], "trial": 1, "serialpos": 7, "trial_type": "single-audio", "trial_index": 62, "time_elapsed": 494459, "internal_node_id": "0.0-44.0"}}, {"uniqueid": "MTK0610:3FDJT1UU75F5O1EHAXFYWAV5VPKK5W", "current_trial": 63, "dateTime": 1511566147189, "trialdata": {"rt": -1000, "stimulus": "/static/audio/wordpool/RUG.wav", "key_press": -1, "type": "PRES_AUD", "word": "rug", "wordID": 1214, "conditions": [18, 1200, "a", 18000], "trial": 1, "serialpos": 8, "trial_type": "single-audio", "trial_index": 63, "time_elapsed": 496472, "internal_node_id": "0.0-45.0"}}, {"uniqueid": "MTK0610:3FDJT1UU75F5O1EHAXFYWAV5VPKK5W", "current_trial": 64, "dateTime": 1511566149246, "trialdata": {"rt": -1000, "stimulus": "/static/audio/wordpool/VAGRANT.wav", "key_press": -1, "type": "PRES_AUD", "word": "vagrant", "wordID": 1543, "conditions": [18, 1200, "a", 18000], "trial": 1, "serialpos": 9, "trial_type": "single-audio", "trial_index": 64, "time_elapsed": 498528, "internal_node_id": "0.0-46.0"}}, {"uniqueid": "MTK0610:3FDJT1UU75F5O1EHAXFYWAV5VPKK5W", "current_trial": 65, "dateTime": 1511566151467, "trialdata": {"rt": -1000, "stimulus": "/static/audio/wordpool/SNACK.wav", "key_press": -1, "type": "PRES_AUD", "word": "snack", "wordID": 1330, "conditions": [18, 1200, "a", 18000], "trial": 1, "serialpos": 10, "trial_type": "single-audio", "trial_index": 65, "time_elapsed": 500750, "internal_node_id": "0.0-47.0"}}, {"uniqueid": "MTK0610:3FDJT1UU75F5O1EHAXFYWAV5VPKK5W", "current_trial": 66, "dateTime": 1511566153488, "trialdata": {"rt": -1000, "stimulus": "/static/audio/wordpool/DRIVER.wav", "key_press": -1, "type": "PRES_AUD", "word": "driver", "wordID": 498, "conditions": [18, 1200, "a", 18000], "trial": 1, "serialpos": 11, "trial_type": "single-audio", "trial_index": 66, "time_elapsed": 502771, "internal_node_id": "0.0-48.0"}}, {"uniqueid": "MTK0610:3FDJT1UU75F5O1EHAXFYWAV5VPKK5W", "current_trial": 67, "dateTime": 1511566155634, "trialdata": {"rt": -1000, "stimulus": "/static/audio/wordpool/MONEY.wav", "key_press": -1, "type": "PRES_AUD", "word": "money", "wordID": 907, "conditions": [18, 1200, "a", 18000], "trial": 1, "serialpos": 12, "trial_type": "single-audio", "trial_index": 67, "time_elapsed": 504917, "internal_node_id": "0.0-49.0"}}, {"uniqueid": "MTK0610:3FDJT1UU75F5O1EHAXFYWAV5VPKK5W", "current_trial": 68, "dateTime": 1511566157953, "trialdata": {"rt": -1000, "stimulus": "/static/audio/wordpool/MOTOR.wav", "key_press": -1, "type": "PRES_AUD", "word": "motor", "wordID": 921, "conditions": [18, 1200, "a", 18000], "trial": 1, "serialpos": 13, "trial_type": "single-audio", "trial_index": 68, "time_elapsed": 507234, "internal_node_id": "0.0-50.0"}}, {"uniqueid": "MTK0610:3FDJT1UU75F5O1EHAXFYWAV5VPKK5W", "current_trial": 69, "dateTime": 1511566160104, "trialdata": {"rt": -1000, "stimulus": "/static/audio/wordpool/TAXI.wav", "key_press": -1, "type": "PRES_AUD", "word": "taxi", "wordID": 1437, "conditions": [18, 1200, "a", 18000], "trial": 1, "serialpos": 14, "trial_type": "single-audio", "trial_index": 69, "time_elapsed": 509387, "internal_node_id": "0.0-51.0"}}, {"uniqueid": "MTK0610:3FDJT1UU75F5O1EHAXFYWAV5VPKK5W", "current_trial": 70, "dateTime": 1511566162172, "trialdata": {"rt": -1000, "stimulus": "/static/audio/wordpool/BLOCKADE.wav", "key_press": -1, "type": "PRES_AUD", "word": "blockade", "wordID": 136, "conditions": [18, 1200, "a", 18000], "trial": 1, "serialpos": 15, "trial_type": "single-audio", "trial_index": 70, "time_elapsed": 511455, "internal_node_id": "0.0-52.0"}}, {"uniqueid": "MTK0610:3FDJT1UU75F5O1EHAXFYWAV5VPKK5W", "current_trial": 71, "dateTime": 1511566164504, "trialdata": {"rt": -1000, "stimulus": "/static/audio/wordpool/ORCHID.wav", "key_press": -1, "type": "PRES_AUD", "word": "orchid", "wordID": 981, "conditions": [18, 1200, "a", 18000], "trial": 1, "serialpos": 16, "trial_type": "single-audio", "trial_index": 71, "time_elapsed": 513787, "internal_node_id": "0.0-53.0"}}, {"uniqueid": "MTK0610:3FDJT1UU75F5O1EHAXFYWAV5VPKK5W", "current_trial": 72, "dateTime": 1511566166538, "trialdata": {"rt": -1000, "stimulus": "/static/audio/wordpool/BALLOON.wav", "key_press": -1, "type": "PRES_AUD", "word": "balloon", "wordID": 74, "conditions": [18, 1200, "a", 18000], "trial": 1, "serialpos": 17, "trial_type": "single-audio", "trial_index": 72, "time_elapsed": 515821, "internal_node_id": "0.0-54.0"}}, {"uniqueid": "MTK0610:3FDJT1UU75F5O1EHAXFYWAV5VPKK5W", "current_trial": 73, "dateTime": 1511566167926, "trialdata": {"rt": -1, "stimulus": "", "key_press": -1, "type": "PRE_RECALL_DELAY", "trial_type": "single-stim", "trial_index": 73, "time_elapsed": 517208, "internal_node_id": "0.0-55.0-0.0"}}, {"uniqueid": "MTK0610:3FDJT1UU75F5O1EHAXFYWAV5VPKK5W", "current_trial": 74, "dateTime": 1511566168428, "trialdata": {"rt": -1000, "stimulus": "/static/audio/400Hz.wav", "key_press": -1, "type": "PRE_RECALL_ALERT", "trial_type": "single-audio", "trial_index": 74, "time_elapsed": 517711, "internal_node_id": "0.0-56.0"}}, {"uniqueid": "MTK0610:3FDJT1UU75F5O1EHAXFYWAV5VPKK5W", "current_trial": 75, "dateTime": 1511566228432, "trialdata": {"rt": [4499, 8219, 9891, 11100, 12900, 14524, 17764, 20796, 23588, 26813, 28820], "recwords": ["balloon", "moey", "money", "taxi", "driver", "vagrant", "bison", "gangster", "piano", "popcorn", "passage"], "type": "FREE_RECALL", "conditions": [18, 1200, "a", 18000], "trial": 1, "trial_type": "free-recall", "trial_index": 75, "time_elapsed": 577713, "internal_node_id": "0.0-57.0-0.0"}}, {"uniqueid": "MTK0610:3FDJT1UU75F5O1EHAXFYWAV5VPKK5W", "current_trial": 76, "dateTime": 1511566233809, "trialdata": {"rt": 3372, "key_press": 13, "type": "INSTRUCTIONS", "trial_type": "text", "trial_index": 76, "time_elapsed": 583088, "internal_node_id": "0.0-58.0"}}, {"uniqueid": "MTK0610:3FDJT1UU75F5O1EHAXFYWAV5VPKK5W", "current_trial": 77, "dateTime": 1511566246811, "trialdata": {"rt": [3094, 4974, 6134, 7638, 8662], "responses": ["17", "11", "5", "12", "9"], "num1": [5, 2, 2, 9, 3, 5], "num2": [8, 1, 2, 1, 3, 6], "num3": [4, 8, 1, 2, 3, 8], "type": "DISTRACTOR", "conditions": [12, 1600, "v", 12000], "trial": 2, "trial_type": "math-distractor", "trial_index": 77, "time_elapsed": 596094, "internal_node_id": "0.0-59.0"}}, {"uniqueid": "MTK0610:3FDJT1UU75F5O1EHAXFYWAV5VPKK5W", "current_trial": 78, "dateTime": 1511566249813, "trialdata": {"rt": -1, "stimulus": "<p id=\"stim\">10</p>", "key_press": -1, "trial_type": "single-stim", "trial_index": 78, "time_elapsed": 599096, "internal_node_id": "0.0-60.0-0.0"}}, {"uniqueid": "MTK0610:3FDJT1UU75F5O1EHAXFYWAV5VPKK5W", "current_trial": 79, "dateTime": 1511566250814, "trialdata": {"rt": -1, "stimulus": "<p id=\"stim\">9</p>", "key_press": -1, "trial_type": "single-stim", "trial_index": 79, "time_elapsed": 600097, "internal_node_id": "0.0-60.0-1.0"}}, {"uniqueid": "MTK0610:3FDJT1UU75F5O1EHAXFYWAV5VPKK5W", "current_trial": 80, "dateTime": 1511566251816, "trialdata": {"rt": -1, "stimulus": "<p id=\"stim\">8</p>", "key_press": -1, "trial_type": "single-stim", "trial_index": 80, "time_elapsed": 601099, "internal_node_id": "0.0-60.0-2.0"}}, {"uniqueid": "MTK0610:3FDJT1UU75F5O1EHAXFYWAV5VPKK5W", "current_trial": 81, "dateTime": 1511566252819, "trialdata": {"rt": -1, "stimulus": "<p id=\"stim\">7</p>", "key_press": -1, "trial_type": "single-stim", "trial_index": 81, "time_elapsed": 602101, "internal_node_id": "0.0-60.0-3.0"}}, {"uniqueid": "MTK0610:3FDJT1UU75F5O1EHAXFYWAV5VPKK5W", "current_trial": 82, "dateTime": 1511566253820, "trialdata": {"rt": -1, "stimulus": "<p id=\"stim\">6</p>", "key_press": -1, "trial_type": "single-stim", "trial_index": 82, "time_elapsed": 603103, "internal_node_id": "0.0-60.0-4.0"}}, {"uniqueid": "MTK0610:3FDJT1UU75F5O1EHAXFYWAV5VPKK5W", "current_trial": 83, "dateTime": 1511566254821, "trialdata": {"rt": -1, "stimulus": "<p id=\"stim\">5</p>", "key_press": -1, "trial_type": "single-stim", "trial_index": 83, "time_elapsed": 604104, "internal_node_id": "0.0-60.0-5.0"}}, {"uniqueid": "MTK0610:3FDJT1UU75F5O1EHAXFYWAV5VPKK5W", "current_trial": 84, "dateTime": 1511566255822, "trialdata": {"rt": -1, "stimulus": "<p id=\"stim\">4</p>", "key_press": -1, "trial_type": "single-stim", "trial_index": 84, "time_elapsed": 605105, "internal_node_id": "0.0-60.0-6.0"}}, {"uniqueid": "MTK0610:3FDJT1UU75F5O1EHAXFYWAV5VPKK5W", "current_trial": 85, "dateTime": 1511566256823, "trialdata": {"rt": -1, "stimulus": "<p id=\"stim\">3</p>", "key_press": -1, "trial_type": "single-stim", "trial_index": 85, "time_elapsed": 606106, "internal_node_id": "0.0-60.0-7.0"}}, {"uniqueid": "MTK0610:3FDJT1UU75F5O1EHAXFYWAV5VPKK5W", "current_trial": 86, "dateTime": 1511566257825, "trialdata": {"rt": -1, "stimulus": "<p id=\"stim\">2</p>", "key_press": -1, "trial_type": "single-stim", "trial_index": 86, "time_elapsed": 607108, "internal_node_id": "0.0-60.0-8.0"}}, {"uniqueid": "MTK0610:3FDJT1UU75F5O1EHAXFYWAV5VPKK5W", "current_trial": 87, "dateTime": 1511566258826, "trialdata": {"rt": -1, "stimulus": "<p id=\"stim\">1</p>", "key_press": -1, "trial_type": "single-stim", "trial_index": 87, "time_elapsed": 608109, "internal_node_id": "0.0-60.0-9.0"}}, {"uniqueid": "MTK0610:3FDJT1UU75F5O1EHAXFYWAV5VPKK5W", "current_trial": 88, "dateTime": 1511566260327, "trialdata": {"rt": -1, "stimulus": "<p id=\"stim\">+</p>", "key_press": -1, "type": "FIXATION", "trial_type": "single-stim", "trial_index": 88, "time_elapsed": 609610, "internal_node_id": "0.0-61.0-0.0"}}, {"uniqueid": "MTK0610:3FDJT1UU75F5O1EHAXFYWAV5VPKK5W", "current_trial": 89, "dateTime": 1511566261928, "trialdata": {"rt": -1, "stimulus": "<p id=\"stim\">DIVER</p>", "key_press": -1, "type": "PRES_VIS", "word": "diver", "wordID": 475, "conditions": [12, 1600, "v", 12000], "trial": 2, "serialpos": 0, "trial_type": "single-stim", "trial_index": 89, "time_elapsed": 611211, "internal_node_id": "0.0-62.0"}}, {"uniqueid": "MTK0610:3FDJT1UU75F5O1EHAXFYWAV5VPKK5W", "current_trial": 90, "dateTime": 1511566264414, "trialdata": {"rt": -1, "stimulus": "<p id=\"stim\">FARMER</p>", "key_press": -1, "type": "PRES_VIS", "word": "farmer", "wordID": 552, "conditions": [12, 1600, "v", 12000], "trial": 2, "serialpos": 1, "trial_type": "single-stim", "trial_index": 90, "time_elapsed": 613697, "internal_node_id": "0.0-63.0"}}, {"uniqueid": "MTK0610:3FDJT1UU75F5O1EHAXFYWAV5VPKK5W", "current_trial": 91, "dateTime": 1511566267039, "trialdata": {"rt": -1, "stimulus": "<p id=\"stim\">BRACES</p>", "key_press": -1, "type": "PRES_VIS", "word": "braces", "wordID": 163, "conditions": [12, 1600, "v", 12000], "trial": 2, "serialpos": 2, "trial_type": "single-stim", "trial_index": 91, "time_elapsed": 616322, "internal_node_id": "0.0-64.0"}}, {"uniqueid": "MTK0610:3FDJT1UU75F5O1EHAXFYWAV5VPKK5W", "current_trial": 92, "dateTime": 1511566269730, "trialdata": {"rt": -1, "stimulus": "<p id=\"stim\">HUSBAND</p>", "key_press": -1, "type": "PRES_VIS", "word": "husband", "wordID": 727, "conditions": [12, 1600, "v", 12000], "trial": 2, "serialpos": 3, "trial_type": "single-stim", "trial_index": 92, "time_elapsed": 619013, "internal_node_id": "0.0-65.0"}}, {"uniqueid": "MTK0610:3FDJT1UU75F5O1EHAXFYWAV5VPKK5W", "current_trial": 93, "dateTime": 1511566272410, "trialdata": {"rt": -1, "stimulus": "<p id=\"stim\">WIFE</p>", "key_press": -1, "type": "PRES_VIS", "word": "wife", "wordID": 1608, "conditions": [12, 1600, "v", 12000], "trial": 2, "serialpos": 4, "trial_type": "single-stim", "trial_index": 93, "time_elapsed": 621693, "internal_node_id": "0.0-66.0"}}, {"uniqueid": "MTK0610:3FDJT1UU75F5O1EHAXFYWAV5VPKK5W", "current_trial": 94, "dateTime": 1511566274923, "trialdata": {"rt": -1, "stimulus": "<p id=\"stim\">ATOM</p>", "key_press": -1, "type": "PRES_VIS", "word": "atom", "wordID": 54, "conditions": [12, 1600, "v", 12000], "trial": 2, "serialpos": 5, "trial_type": "single-stim", "trial_index": 94, "time_elapsed": 624206, "internal_node_id": "0.0-67.0"}}, {"uniqueid": "MTK0610:3FDJT1UU75F5O1EHAXFYWAV5VPKK5W", "current_trial": 95, "dateTime": 1511566277340, "trialdata": {"rt": -1, "stimulus": "<p id=\"stim\">PLASTER</p>", "key_press": -1, "type": "PRES_VIS", "word": "plaster", "wordID": 1084, "conditions": [12, 1600, "v", 12000], "trial": 2, "serialpos": 6, "trial_type": "single-stim", "trial_index": 95, "time_elapsed": 626623, "internal_node_id": "0.0-68.0"}}, {"uniqueid": "MTK0610:3FDJT1UU75F5O1EHAXFYWAV5VPKK5W", "current_trial": 96, "dateTime": 1511566279799, "trialdata": {"rt": -1, "stimulus": "<p id=\"stim\">HEADBAND</p>", "key_press": -1, "type": "PRES_VIS", "word": "headband", "wordID": 695, "conditions": [12, 1600, "v", 12000], "trial": 2, "serialpos": 7, "trial_type": "single-stim", "trial_index": 96, "time_elapsed": 629082, "internal_node_id": "0.0-69.0"}}, {"uniqueid": "MTK0610:3FDJT1UU75F5O1EHAXFYWAV5VPKK5W", "current_trial": 97, "dateTime": 1511566282418, "trialdata": {"rt": -1, "stimulus": "<p id=\"stim\">WAITRESS</p>", "key_press": -1, "type": "PRES_VIS", "word": "waitress", "wordID": 1580, "conditions": [12, 1600, "v", 12000], "trial": 2, "serialpos": 8, "trial_type": "single-stim", "trial_index": 97, "time_elapsed": 631701, "internal_node_id": "0.0-70.0"}}, {"uniqueid": "MTK0610:3FDJT1UU75F5O1EHAXFYWAV5VPKK5W", "current_trial": 98, "dateTime": 1511566284999, "trialdata": {"rt": -1, "stimulus": "<p id=\"stim\">HOSTESS</p>", "key_press": -1, "type": "PRES_VIS", "word": "hostess", "wordID": 722, "conditions": [12, 1600, "v", 12000], "trial": 2, "serialpos": 9, "trial_type": "single-stim", "trial_index": 98, "time_elapsed": 634282, "internal_node_id": "0.0-71.0"}}, {"uniqueid": "MTK0610:3FDJT1UU75F5O1EHAXFYWAV5VPKK5W", "current_trial": 99, "dateTime": 1511566287652, "trialdata": {"rt": -1, "stimulus": "<p id=\"stim\">MOP</p>", "key_press": -1, "type": "PRES_VIS", "word": "mop", "wordID": 915, "conditions": [12, 1600, "v", 12000], "trial": 2, "serialpos": 10, "trial_type": "single-stim", "trial_index": 99, "time_elapsed": 636935, "internal_node_id": "0.0-72.0"}}, {"uniqueid": "MTK0610:3FDJT1UU75F5O1EHAXFYWAV5VPKK5W", "current_trial": 100, "dateTime": 1511566290355, "trialdata": {"rt": -1, "stimulus": "<p id=\"stim\">SPOUSE</p>", "key_press": -1, "type": "PRES_VIS", "word": "spouse", "wordID": 1357, "conditions": [12, 1600, "v", 12000], "trial": 2, "serialpos": 11, "trial_type": "single-stim", "trial_index": 100, "time_elapsed": 639638, "internal_node_id": "0.0-73.0"}}, {"uniqueid": "MTK0610:3FDJT1UU75F5O1EHAXFYWAV5VPKK5W", "current_trial": 101, "dateTime": 1511566292739, "trialdata": {"rt": -1, "stimulus": "", "key_press": -1, "type": "PRE_RECALL_DELAY", "trial_type": "single-stim", "trial_index": 101, "time_elapsed": 642022, "internal_node_id": "0.0-74.0-0.0"}}, {"uniqueid": "MTK0610:3FDJT1UU75F5O1EHAXFYWAV5VPKK5W", "current_trial": 102, "dateTime": 1511566293247, "trialdata": {"rt": -1000, "stimulus": "/static/audio/400Hz.wav", "key_press": -1, "type": "PRE_RECALL_ALERT", "trial_type": "single-audio", "trial_index": 102, "time_elapsed": 642530, "internal_node_id": "0.0-75.0"}}, {"uniqueid": "MTK0610:3FDJT1UU75F5O1EHAXFYWAV5VPKK5W", "current_trial": 103, "dateTime": 1511566353251, "trialdata": {"rt": [4361, 5848, 7808, 9329, 13992, 15552, 16385, 17440, 21977, 24937, 34784], "recwords": ["atom", "plaster", "headband", "waitress", "husband", "hostess", "wife", "spouse", "braces", "driver", "farmer"], "type": "FREE_RECALL", "conditions": [12, 1600, "v", 12000], "trial": 2, "trial_type": "free-recall", "trial_index": 103, "time_elapsed": 702532, "internal_node_id": "0.0-76.0-0.0"}}, {"uniqueid": "MTK0610:3FDJT1UU75F5O1EHAXFYWAV5VPKK5W", "current_trial": 104, "dateTime": 1511566407353, "trialdata": {"rt": 52101, "key_press": 13, "type": "INSTRUCTIONS", "trial_type": "text", "trial_index": 104, "time_elapsed": 756636, "internal_node_id": "0.0-77.0"}}, {"uniqueid": "MTK0610:3FDJT1UU75F5O1EHAXFYWAV5VPKK5W", "current_trial": 105, "dateTime": 1511566421358, "trialdata": {"rt": [1500, 3492, 4956, 8333, 10165], "responses": ["12", "14", "16", "16", "21"], "num1": [2, 5, 1, 4, 9, 4], "num2": [1, 1, 6, 3, 3, 3], "num3": [9, 8, 9, 9, 9, 1], "type": "DISTRACTOR", "conditions": [12, 800, "v", 12000], "trial": 3, "trial_type": "math-distractor", "trial_index": 105, "time_elapsed": 770641, "internal_node_id": "0.0-78.0"}}, {"uniqueid": "MTK0610:3FDJT1UU75F5O1EHAXFYWAV5VPKK5W", "current_trial": 106, "dateTime": 1511566424359, "trialdata": {"rt": -1, "stimulus": "<p id=\"stim\">10</p>", "key_press": -1, "trial_type": "single-stim", "trial_index": 106, "time_elapsed": 773642, "internal_node_id": "0.0-79.0-0.0"}}, {"uniqueid": "MTK0610:3FDJT1UU75F5O1EHAXFYWAV5VPKK5W", "current_trial": 107, "dateTime": 1511566425361, "trialdata": {"rt": -1, "stimulus": "<p id=\"stim\">9</p>", "key_press": -1, "trial_type": "single-stim", "trial_index": 107, "time_elapsed": 774644, "internal_node_id": "0.0-79.0-1.0"}}, {"uniqueid": "MTK0610:3FDJT1UU75F5O1EHAXFYWAV5VPKK5W", "current_trial": 108, "dateTime": 1511566426363, "trialdata": {"rt": -1, "stimulus": "<p id=\"stim\">8</p>", "key_press": -1, "trial_type": "single-stim", "trial_index": 108, "time_elapsed": 775646, "internal_node_id": "0.0-79.0-2.0"}}, {"uniqueid": "MTK0610:3FDJT1UU75F5O1EHAXFYWAV5VPKK5W", "current_trial": 109, "dateTime": 1511566427363, "trialdata": {"rt": -1, "stimulus": "<p id=\"stim\">7</p>", "key_press": -1, "trial_type": "single-stim", "trial_index": 109, "time_elapsed": 776646, "internal_node_id": "0.0-79.0-3.0"}}, {"uniqueid": "MTK0610:3FDJT1UU75F5O1EHAXFYWAV5VPKK5W", "current_trial": 110, "dateTime": 1511566428365, "trialdata": {"rt": -1, "stimulus": "<p id=\"stim\">6</p>", "key_press": -1, "trial_type": "single-stim", "trial_index": 110, "time_elapsed": 777648, "internal_node_id": "0.0-79.0-4.0"}}, {"uniqueid": "MTK0610:3FDJT1UU75F5O1EHAXFYWAV5VPKK5W", "current_trial": 111, "dateTime": 1511566429366, "trialdata": {"rt": -1, "stimulus": "<p id=\"stim\">5</p>", "key_press": -1, "trial_type": "single-stim", "trial_index": 111, "time_elapsed": 778649, "internal_node_id": "0.0-79.0-5.0"}}, {"uniqueid": "MTK0610:3FDJT1UU75F5O1EHAXFYWAV5VPKK5W", "current_trial": 112, "dateTime": 1511566430367, "trialdata": {"rt": -1, "stimulus": "<p id=\"stim\">4</p>", "key_press": -1, "trial_type": "single-stim", "trial_index": 112, "time_elapsed": 779650, "internal_node_id": "0.0-79.0-6.0"}}, {"uniqueid": "MTK0610:3FDJT1UU75F5O1EHAXFYWAV5VPKK5W", "current_trial": 113, "dateTime": 1511566431368, "trialdata": {"rt": -1, "stimulus": "<p id=\"stim\">3</p>", "key_press": -1, "trial_type": "single-stim", "trial_index": 113, "time_elapsed": 780651, "internal_node_id": "0.0-79.0-7.0"}}, {"uniqueid": "MTK0610:3FDJT1UU75F5O1EHAXFYWAV5VPKK5W", "current_trial": 114, "dateTime": 1511566432369, "trialdata": {"rt": -1, "stimulus": "<p id=\"stim\">2</p>", "key_press": -1, "trial_type": "single-stim", "trial_index": 114, "time_elapsed": 781652, "internal_node_id": "0.0-79.0-8.0"}}, {"uniqueid": "MTK0610:3FDJT1UU75F5O1EHAXFYWAV5VPKK5W", "current_trial": 115, "dateTime": 1511566433371, "trialdata": {"rt": -1, "stimulus": "<p id=\"stim\">1</p>", "key_press": -1, "trial_type": "single-stim", "trial_index": 115, "time_elapsed": 782654, "internal_node_id": "0.0-79.0-9.0"}}, {"uniqueid": "MTK0610:3FDJT1UU75F5O1EHAXFYWAV5VPKK5W", "current_trial": 116, "dateTime": 1511566434873, "trialdata": {"rt": -1, "stimulus": "<p id=\"stim\">+</p>", "key_press": -1, "type": "FIXATION", "trial_type": "single-stim", "trial_index": 116, "time_elapsed": 784156, "internal_node_id": "0.0-80.0-0.0"}}, {"uniqueid": "MTK0610:3FDJT1UU75F5O1EHAXFYWAV5VPKK5W", "current_trial": 117, "dateTime": 1511566435675, "trialdata": {"rt": -1, "stimulus": "<p id=\"stim\">LEOPARD</p>", "key_press": -1, "type": "PRES_VIS", "word": "leopard", "wordID": 811, "conditions": [12, 800, "v", 12000], "trial": 3, "serialpos": 0, "trial_type": "single-stim", "trial_index": 117, "time_elapsed": 784958, "internal_node_id": "0.0-81.0"}}, {"uniqueid": "MTK0610:3FDJT1UU75F5O1EHAXFYWAV5VPKK5W", "current_trial": 118, "dateTime": 1511566437610, "trialdata": {"rt": -1, "stimulus": "<p id=\"stim\">SKILLET</p>", "key_press": -1, "type": "PRES_VIS", "word": "skillet", "wordID": 1316, "conditions": [12, 800, "v", 12000], "trial": 3, "serialpos": 1, "trial_type": "single-stim", "trial_index": 118, "time_elapsed": 786893, "internal_node_id": "0.0-82.0"}}, {"uniqueid": "MTK0610:3FDJT1UU75F5O1EHAXFYWAV5VPKK5W", "current_trial": 119, "dateTime": 1511566439525, "trialdata": {"rt": -1, "stimulus": "<p id=\"stim\">FREEZER</p>", "key_press": -1, "type": "PRES_VIS", "word": "freezer", "wordID": 603, "conditions": [12, 800, "v", 12000], "trial": 3, "serialpos": 2, "trial_type": "single-stim", "trial_index": 119, "time_elapsed": 788808, "internal_node_id": "0.0-83.0"}}, {"uniqueid": "MTK0610:3FDJT1UU75F5O1EHAXFYWAV5VPKK5W", "current_trial": 120, "dateTime": 1511566441229, "trialdata": {"rt": -1, "stimulus": "<p id=\"stim\">CLOTHES</p>", "key_press": -1, "type": "PRES_VIS", "word": "clothes", "wordID": 326, "conditions": [12, 800, "v", 12000], "trial": 3, "serialpos": 3, "trial_type": "single-stim", "trial_index": 120, "time_elapsed": 790512, "internal_node_id": "0.0-84.0"}}, {"uniqueid": "MTK0610:3FDJT1UU75F5O1EHAXFYWAV5VPKK5W", "current_trial": 121, "dateTime": 1511566442835, "trialdata": {"rt": -1, "stimulus": "<p id=\"stim\">PISTOL</p>", "key_press": -1, "type": "PRES_VIS", "word": "pistol", "wordID": 1074, "conditions": [12, 800, "v", 12000], "trial": 3, "serialpos": 4, "trial_type": "single-stim", "trial_index": 121, "time_elapsed": 792118, "internal_node_id": "0.0-85.0"}}, {"uniqueid": "MTK0610:3FDJT1UU75F5O1EHAXFYWAV5VPKK5W", "current_trial": 122, "dateTime": 1511566444705, "trialdata": {"rt": -1, "stimulus": "<p id=\"stim\">STOVE</p>", "key_press": -1, "type": "PRES_VIS", "word": "stove", "wordID": 1387, "conditions": [12, 800, "v", 12000], "trial": 3, "serialpos": 5, "trial_type": "single-stim", "trial_index": 122, "time_elapsed": 793988, "internal_node_id": "0.0-86.0"}}, {"uniqueid": "MTK0610:3FDJT1UU75F5O1EHAXFYWAV5VPKK5W", "current_trial": 123, "dateTime": 1511566446319, "trialdata": {"rt": -1, "stimulus": "<p id=\"stim\">WARDROBE</p>", "key_press": -1, "type": "PRES_VIS", "word": "wardrobe", "wordID": 1586, "conditions": [12, 800, "v", 12000], "trial": 3, "serialpos": 6, "trial_type": "single-stim", "trial_index": 123, "time_elapsed": 795602, "internal_node_id": "0.0-87.0"}}, {"uniqueid": "MTK0610:3FDJT1UU75F5O1EHAXFYWAV5VPKK5W", "current_trial": 124, "dateTime": 1511566448158, "trialdata": {"rt": -1, "stimulus": "<p id=\"stim\">SUPPER</p>", "key_press": -1, "type": "PRES_VIS", "word": "supper", "wordID": 1410, "conditions": [12, 800, "v", 12000], "trial": 3, "serialpos": 7, "trial_type": "single-stim", "trial_index": 124, "time_elapsed": 797441, "internal_node_id": "0.0-88.0"}}, {"uniqueid": "MTK0610:3FDJT1UU75F5O1EHAXFYWAV5VPKK5W", "current_trial": 125, "dateTime": 1511566449823, "trialdata": {"rt": -1, "stimulus": "<p id=\"stim\">POWDER</p>", "key_press": -1, "type": "PRES_VIS", "word": "powder", "wordID": 1116, "conditions": [12, 800, "v", 12000], "trial": 3, "serialpos": 8, "trial_type": "single-stim", "trial_index": 125, "time_elapsed": 799106, "internal_node_id": "0.0-89.0"}}, {"uniqueid": "MTK0610:3FDJT1UU75F5O1EHAXFYWAV5VPKK5W", "current_trial": 126, "dateTime": 1511566451791, "trialdata": {"rt": -1, "stimulus": "<p id=\"stim\">PIMPLE</p>", "key_press": -1, "type": "PRES_VIS", "word": "pimple", "wordID": 1070, "conditions": [12, 800, "v", 12000], "trial": 3, "serialpos": 9, "trial_type": "single-stim", "trial_index": 126, "time_elapsed": 801074, "internal_node_id": "0.0-90.0"}}, {"uniqueid": "MTK0610:3FDJT1UU75F5O1EHAXFYWAV5VPKK5W", "current_trial": 127, "dateTime": 1511566453503, "trialdata": {"rt": -1, "stimulus": "<p id=\"stim\">MAMMAL</p>", "key_press": -1, "type": "PRES_VIS", "word": "mammal", "wordID": 860, "conditions": [12, 800, "v", 12000], "trial": 3, "serialpos": 10, "trial_type": "single-stim", "trial_index": 127, "time_elapsed": 802786, "internal_node_id": "0.0-91.0"}}, {"uniqueid": "MTK0610:3FDJT1UU75F5O1EHAXFYWAV5VPKK5W", "current_trial": 128, "dateTime": 1511566455503, "trialdata": {"rt": -1, "stimulus": "<p id=\"stim\">PRIMATE</p>", "key_press": -1, "type": "PRES_VIS", "word": "primate", "wordID": 1122, "conditions": [12, 800, "v", 12000], "trial": 3, "serialpos": 11, "trial_type": "single-stim", "trial_index": 128, "time_elapsed": 804786, "internal_node_id": "0.0-92.0"}}, {"uniqueid": "MTK0610:3FDJT1UU75F5O1EHAXFYWAV5VPKK5W", "current_trial": 129, "dateTime": 1511566457812, "trialdata": {"rt": -1, "stimulus": "", "key_press": -1, "type": "PRE_RECALL_DELAY", "trial_type": "single-stim", "trial_index": 129, "time_elapsed": 807095, "internal_node_id": "0.0-93.0-0.0"}}, {"uniqueid": "MTK0610:3FDJT1UU75F5O1EHAXFYWAV5VPKK5W", "current_trial": 130, "dateTime": 1511566458314, "trialdata": {"rt": -1000, "stimulus": "/static/audio/400Hz.wav", "key_press": -1, "type": "PRE_RECALL_ALERT", "trial_type": "single-audio", "trial_index": 130, "time_elapsed": 807597, "internal_node_id": "0.0-94.0"}}, {"uniqueid": "MTK0610:3FDJT1UU75F5O1EHAXFYWAV5VPKK5W", "current_trial": 131, "dateTime": 1511566518319, "trialdata": {"rt": [2693, 6189, 11565, 13925, 16197, 18310], "recwords": ["primate", "stove", "pimple", "powder", "supper", "wardrobe"], "type": "FREE_RECALL", "conditions": [12, 800, "v", 12000], "trial": 3, "trial_type": "free-recall", "trial_index": 131, "time_elapsed": 867600, "internal_node_id": "0.0-95.0-0.0"}}, {"uniqueid": "MTK0610:3FDJT1UU75F5O1EHAXFYWAV5VPKK5W", "current_trial": 132, "dateTime": 1511566560049, "trialdata": {"rt": 39727, "key_press": 13, "type": "INSTRUCTIONS", "trial_type": "text", "trial_index": 132, "time_elapsed": 909332, "internal_node_id": "0.0-96.0"}}, {"uniqueid": "MTK0610:3FDJT1UU75F5O1EHAXFYWAV5VPKK5W", "current_trial": 133, "dateTime": 1511566574054, "trialdata": {"rt": [2635, 4003, 5339, 6868, 8556, 10467, 11659], "responses": ["18", "10", "13", "9", "14", "16", "11"], "num1": [8, 5, 1, 2, 6, 2, 1, 9], "num2": [3, 1, 8, 1, 5, 9, 2, 7], "num3": [7, 4, 4, 6, 3, 5, 8, 5], "type": "DISTRACTOR", "conditions": [24, 800, "a", 12000], "trial": 4, "trial_type": "math-distractor", "trial_index": 133, "time_elapsed": 923337, "internal_node_id": "0.0-97.0"}}, {"uniqueid": "MTK0610:3FDJT1UU75F5O1EHAXFYWAV5VPKK5W", "current_trial": 134, "dateTime": 1511566577056, "trialdata": {"rt": -1, "stimulus": "<p id=\"stim\">10</p>", "key_press": -1, "trial_type": "single-stim", "trial_index": 134, "time_elapsed": 926339, "internal_node_id": "0.0-98.0-0.0"}}, {"uniqueid": "MTK0610:3FDJT1UU75F5O1EHAXFYWAV5VPKK5W", "current_trial": 135, "dateTime": 1511566578057, "trialdata": {"rt": -1, "stimulus": "<p id=\"stim\">9</p>", "key_press": -1, "trial_type": "single-stim", "trial_index": 135, "time_elapsed": 927340, "internal_node_id": "0.0-98.0-1.0"}}, {"uniqueid": "MTK0610:3FDJT1UU75F5O1EHAXFYWAV5VPKK5W", "current_trial": 136, "dateTime": 1511566579059, "trialdata": {"rt": -1, "stimulus": "<p id=\"stim\">8</p>", "key_press": -1, "trial_type": "single-stim", "trial_index": 136, "time_elapsed": 928342, "internal_node_id": "0.0-98.0-2.0"}}, {"uniqueid": "MTK0610:3FDJT1UU75F5O1EHAXFYWAV5VPKK5W", "current_trial": 137, "dateTime": 1511566580060, "trialdata": {"rt": -1, "stimulus": "<p id=\"stim\">7</p>", "key_press": -1, "trial_type": "single-stim", "trial_index": 137, "time_elapsed": 929343, "internal_node_id": "0.0-98.0-3.0"}}, {"uniqueid": "MTK0610:3FDJT1UU75F5O1EHAXFYWAV5VPKK5W", "current_trial": 138, "dateTime": 1511566581063, "trialdata": {"rt": -1, "stimulus": "<p id=\"stim\">6</p>", "key_press": -1, "trial_type": "single-stim", "trial_index": 138, "time_elapsed": 930346, "internal_node_id": "0.0-98.0-4.0"}}, {"uniqueid": "MTK0610:3FDJT1UU75F5O1EHAXFYWAV5VPKK5W", "current_trial": 139, "dateTime": 1511566582064, "trialdata": {"rt": -1, "stimulus": "<p id=\"stim\">5</p>", "key_press": -1, "trial_type": "single-stim", "trial_index": 139, "time_elapsed": 931347, "internal_node_id": "0.0-98.0-5.0"}}, {"uniqueid": "MTK0610:3FDJT1UU75F5O1EHAXFYWAV5VPKK5W", "current_trial": 140, "dateTime": 1511566583066, "trialdata": {"rt": -1, "stimulus": "<p id=\"stim\">4</p>", "key_press": -1, "trial_type": "single-stim", "trial_index": 140, "time_elapsed": 932348, "internal_node_id": "0.0-98.0-6.0"}}, {"uniqueid": "MTK0610:3FDJT1UU75F5O1EHAXFYWAV5VPKK5W", "current_trial": 141, "dateTime": 1511566584066, "trialdata": {"rt": -1, "stimulus": "<p id=\"stim\">3</p>", "key_press": -1, "trial_type": "single-stim", "trial_index": 141, "time_elapsed": 933349, "internal_node_id": "0.0-98.0-7.0"}}, {"uniqueid": "MTK0610:3FDJT1UU75F5O1EHAXFYWAV5VPKK5W", "current_trial": 142, "dateTime": 1511566585068, "trialdata": {"rt": -1, "stimulus": "<p id=\"stim\">2</p>", "key_press": -1, "trial_type": "single-stim", "trial_index": 142, "time_elapsed": 934351, "internal_node_id": "0.0-98.0-8.0"}}, {"uniqueid": "MTK0610:3FDJT1UU75F5O1EHAXFYWAV5VPKK5W", "current_trial": 143, "dateTime": 1511566586070, "trialdata": {"rt": -1, "stimulus": "<p id=\"stim\">1</p>", "key_press": -1, "trial_type": "single-stim", "trial_index": 143, "time_elapsed": 935353, "internal_node_id": "0.0-98.0-9.0"}}, {"uniqueid": "MTK0610:3FDJT1UU75F5O1EHAXFYWAV5VPKK5W", "current_trial": 144, "dateTime": 1511566587571, "trialdata": {"rt": -1, "stimulus": "<p id=\"stim\">+</p>", "key_press": -1, "type": "FIXATION", "trial_type": "single-stim", "trial_index": 144, "time_elapsed": 936854, "internal_node_id": "0.0-99.0-0.0"}}, {"uniqueid": "MTK0610:3FDJT1UU75F5O1EHAXFYWAV5VPKK5W", "current_trial": 145, "dateTime": 1511566589482, "trialdata": {"rt": -1000, "stimulus": "/static/audio/wordpool/PARTNER.wav", "key_press": -1, "type": "PRES_AUD", "word": "partner", "wordID": 1016, "conditions": [24, 800, "a", 12000], "trial": 4, "serialpos": 0, "trial_type": "single-audio", "trial_index": 145, "time_elapsed": 938765, "internal_node_id": "0.0-100.0"}}, {"uniqueid": "MTK0610:3FDJT1UU75F5O1EHAXFYWAV5VPKK5W", "current_trial": 146, "dateTime": 1511566591175, "trialdata": {"rt": -1000, "stimulus": "/static/audio/wordpool/BANKER.wav", "key_press": -1, "type": "PRES_AUD", "word": "banker", "wordID": 83, "conditions": [24, 800, "a", 12000], "trial": 4, "serialpos": 1, "trial_type": "single-audio", "trial_index": 146, "time_elapsed": 940458, "internal_node_id": "0.0-101.0"}}, {"uniqueid": "MTK0610:3FDJT1UU75F5O1EHAXFYWAV5VPKK5W", "current_trial": 147, "dateTime": 1511566592929, "trialdata": {"rt": -1000, "stimulus": "/static/audio/wordpool/RAZOR.wav", "key_press": -1, "type": "PRES_AUD", "word": "razor", "wordID": 1170, "conditions": [24, 800, "a", 12000], "trial": 4, "serialpos": 2, "trial_type": "single-audio", "trial_index": 147, "time_elapsed": 942212, "internal_node_id": "0.0-102.0"}}, {"uniqueid": "MTK0610:3FDJT1UU75F5O1EHAXFYWAV5VPKK5W", "current_trial": 148, "dateTime": 1511566594713, "trialdata": {"rt": -1000, "stimulus": "/static/audio/wordpool/KNIFE.wav", "key_press": -1, "type": "PRES_AUD", "word": "knife", "wordID": 784, "conditions": [24, 800, "a", 12000], "trial": 4, "serialpos": 3, "trial_type": "single-audio", "trial_index": 148, "time_elapsed": 943996, "internal_node_id": "0.0-103.0"}}, {"uniqueid": "MTK0610:3FDJT1UU75F5O1EHAXFYWAV5VPKK5W", "current_trial": 149, "dateTime": 1511566596571, "trialdata": {"rt": -1000, "stimulus": "/static/audio/wordpool/CELLAR.wav", "key_press": -1, "type": "PRES_AUD", "word": "cellar", "wordID": 266, "conditions": [24, 800, "a", 12000], "trial": 4, "serialpos": 4, "trial_type": "single-audio", "trial_index": 149, "time_elapsed": 945854, "internal_node_id": "0.0-104.0"}}, {"uniqueid": "MTK0610:3FDJT1UU75F5O1EHAXFYWAV5VPKK5W", "current_trial": 150, "dateTime": 1511566598438, "trialdata": {"rt": -1000, "stimulus": "/static/audio/wordpool/LOVER.wav", "key_press": -1, "type": "PRES_AUD", "word": "lover", "wordID": 845, "conditions": [24, 800, "a", 12000], "trial": 4, "serialpos": 5, "trial_type": "single-audio", "trial_index": 150, "time_elapsed": 947721, "internal_node_id": "0.0-105.0"}}, {"uniqueid": "MTK0610:3FDJT1UU75F5O1EHAXFYWAV5VPKK5W", "current_trial": 151, "dateTime": 1511566600232, "trialdata": {"rt": -1000, "stimulus": "/static/audio/wordpool/WASHER.wav", "key_press": -1, "type": "PRES_AUD", "word": "washer", "wordID": 1591, "conditions": [24, 800, "a", 12000], "trial": 4, "serialpos": 6, "trial_type": "single-audio", "trial_index": 151, "time_elapsed": 949514, "internal_node_id": "0.0-106.0"}}, {"uniqueid": "MTK0610:3FDJT1UU75F5O1EHAXFYWAV5VPKK5W", "current_trial": 152, "dateTime": 1511566601936, "trialdata": {"rt": -1000, "stimulus": "/static/audio/wordpool/BOX.wav", "key_press": -1, "type": "PRES_AUD", "word": "box", "wordID": 158, "conditions": [24, 800, "a", 12000], "trial": 4, "serialpos": 7, "trial_type": "single-audio", "trial_index": 152, "time_elapsed": 951219, "internal_node_id": "0.0-107.0"}}, {"uniqueid": "MTK0610:3FDJT1UU75F5O1EHAXFYWAV5VPKK5W", "current_trial": 153, "dateTime": 1511566603895, "trialdata": {"rt": -1000, "stimulus": "/static/audio/wordpool/GARBAGE.wav", "key_press": -1, "type": "PRES_AUD", "word": "garbage", "wordID": 621, "conditions": [24, 800, "a", 12000], "trial": 4, "serialpos": 8, "trial_type": "single-audio", "trial_index": 153, "time_elapsed": 953177, "internal_node_id": "0.0-108.0"}}, {"uniqueid": "MTK0610:3FDJT1UU75F5O1EHAXFYWAV5VPKK5W", "current_trial": 154, "dateTime": 1511566605585, "trialdata": {"rt": -1000, "stimulus": "/static/audio/wordpool/FIREMAN.wav", "key_press": -1, "type": "PRES_AUD", "word": "fireman", "wordID": 568, "conditions": [24, 800, "a", 12000], "trial": 4, "serialpos": 9, "trial_type": "single-audio", "trial_index": 154, "time_elapsed": 954868, "internal_node_id": "0.0-109.0"}}, {"uniqueid": "MTK0610:3FDJT1UU75F5O1EHAXFYWAV5VPKK5W", "current_trial": 155, "dateTime": 1511566607282, "trialdata": {"rt": -1000, "stimulus": "/static/audio/wordpool/BASEMENT.wav", "key_press": -1, "type": "PRES_AUD", "word": "basement", "wordID": 93, "conditions": [24, 800, "a", 12000], "trial": 4, "serialpos": 10, "trial_type": "single-audio", "trial_index": 155, "time_elapsed": 956564, "internal_node_id": "0.0-110.0"}}, {"uniqueid": "MTK0610:3FDJT1UU75F5O1EHAXFYWAV5VPKK5W", "current_trial": 156, "dateTime": 1511566609081, "trialdata": {"rt": -1000, "stimulus": "/static/audio/wordpool/LUNCH.wav", "key_press": -1, "type": "PRES_AUD", "word": "lunch", "wordID": 848, "conditions": [24, 800, "a", 12000], "trial": 4, "serialpos": 11, "trial_type": "single-audio", "trial_index": 156, "time_elapsed": 958364, "internal_node_id": "0.0-111.0"}}, {"uniqueid": "MTK0610:3FDJT1UU75F5O1EHAXFYWAV5VPKK5W", "current_trial": 157, "dateTime": 1511566611071, "trialdata": {"rt": -1000, "stimulus": "/static/audio/wordpool/RATTLE.wav", "key_press": -1, "type": "PRES_AUD", "word": "rattle", "wordID": 1169, "conditions": [24, 800, "a", 12000], "trial": 4, "serialpos": 12, "trial_type": "single-audio", "trial_index": 157, "time_elapsed": 960354, "internal_node_id": "0.0-112.0"}}, {"uniqueid": "MTK0610:3FDJT1UU75F5O1EHAXFYWAV5VPKK5W", "current_trial": 158, "dateTime": 1511566612773, "trialdata": {"rt": -1000, "stimulus": "/static/audio/wordpool/SISTER.wav", "key_press": -1, "type": "PRES_AUD", "word": "sister", "wordID": 1311, "conditions": [24, 800, "a", 12000], "trial": 4, "serialpos": 13, "trial_type": "single-audio", "trial_index": 158, "time_elapsed": 962056, "internal_node_id": "0.0-113.0"}}, {"uniqueid": "MTK0610:3FDJT1UU75F5O1EHAXFYWAV5VPKK5W", "current_trial": 159, "dateTime": 1511566614634, "trialdata": {"rt": -1000, "stimulus": "/static/audio/wordpool/FOX.wav", "key_press": -1, "type": "PRES_AUD", "word": "fox", "wordID": 597, "conditions": [24, 800, "a", 12000], "trial": 4, "serialpos": 14, "trial_type": "single-audio", "trial_index": 159, "time_elapsed": 963917, "internal_node_id": "0.0-114.0"}}, {"uniqueid": "MTK0610:3FDJT1UU75F5O1EHAXFYWAV5VPKK5W", "current_trial": 160, "dateTime": 1511566616467, "trialdata": {"rt": -1000, "stimulus": "/static/audio/wordpool/FOOT.wav", "key_press": -1, "type": "PRES_AUD", "word": "foot", "wordID": 589, "conditions": [24, 800, "a", 12000], "trial": 4, "serialpos": 15, "trial_type": "single-audio", "trial_index": 160, "time_elapsed": 965750, "internal_node_id": "0.0-115.0"}}, {"uniqueid": "MTK0610:3FDJT1UU75F5O1EHAXFYWAV5VPKK5W", "current_trial": 161, "dateTime": 1511566618173, "trialdata": {"rt": -1000, "stimulus": "/static/audio/wordpool/MILK.wav", "key_press": -1, "type": "PRES_AUD", "word": "milk", "wordID": 894, "conditions": [24, 800, "a", 12000], "trial": 4, "serialpos": 16, "trial_type": "single-audio", "trial_index": 161, "time_elapsed": 967456, "internal_node_id": "0.0-116.0"}}, {"uniqueid": "MTK0610:3FDJT1UU75F5O1EHAXFYWAV5VPKK5W", "current_trial": 162, "dateTime": 1511566619901, "trialdata": {"rt": -1000, "stimulus": "/static/audio/wordpool/FRIEND.wav", "key_press": -1, "type": "PRES_AUD", "word": "friend", "wordID": 605, "conditions": [24, 800, "a", 12000], "trial": 4, "serialpos": 17, "trial_type": "single-audio", "trial_index": 162, "time_elapsed": 969184, "internal_node_id": "0.0-117.0"}}, {"uniqueid": "MTK0610:3FDJT1UU75F5O1EHAXFYWAV5VPKK5W", "current_trial": 163, "dateTime": 1511566621701, "trialdata": {"rt": -1000, "stimulus": "/static/audio/wordpool/CANYON.wav", "key_press": -1, "type": "PRES_AUD", "word": "canyon", "wordID": 234, "conditions": [24, 800, "a", 12000], "trial": 4, "serialpos": 18, "trial_type": "single-audio", "trial_index": 163, "time_elapsed": 970984, "internal_node_id": "0.0-118.0"}}, {"uniqueid": "MTK0610:3FDJT1UU75F5O1EHAXFYWAV5VPKK5W", "current_trial": 164, "dateTime": 1511566623465, "trialdata": {"rt": -1000, "stimulus": "/static/audio/wordpool/VALLEY.wav", "key_press": -1, "type": "PRES_AUD", "word": "valley", "wordID": 1544, "conditions": [24, 800, "a", 12000], "trial": 4, "serialpos": 19, "trial_type": "single-audio", "trial_index": 164, "time_elapsed": 972748, "internal_node_id": "0.0-119.0"}}, {"uniqueid": "MTK0610:3FDJT1UU75F5O1EHAXFYWAV5VPKK5W", "current_trial": 165, "dateTime": 1511566625114, "trialdata": {"rt": -1000, "stimulus": "/static/audio/wordpool/HIGHWAY.wav", "key_press": -1, "type": "PRES_AUD", "word": "highway", "wordID": 706, "conditions": [24, 800, "a", 12000], "trial": 4, "serialpos": 20, "trial_type": "single-audio", "trial_index": 165, "time_elapsed": 974396, "internal_node_id": "0.0-120.0"}}, {"uniqueid": "MTK0610:3FDJT1UU75F5O1EHAXFYWAV5VPKK5W", "current_trial": 166, "dateTime": 1511566627087, "trialdata": {"rt": -1000, "stimulus": "/static/audio/wordpool/RACKET.wav", "key_press": -1, "type": "PRES_AUD", "word": "racket", "wordID": 1154, "conditions": [24, 800, "a", 12000], "trial": 4, "serialpos": 21, "trial_type": "single-audio", "trial_index": 166, "time_elapsed": 976370, "internal_node_id": "0.0-121.0"}}, {"uniqueid": "MTK0610:3FDJT1UU75F5O1EHAXFYWAV5VPKK5W", "current_trial": 167, "dateTime": 1511566628767, "trialdata": {"rt": -1000, "stimulus": "/static/audio/wordpool/WHISTLE.wav", "key_press": -1, "type": "PRES_AUD", "word": "whistle", "wordID": 1605, "conditions": [24, 800, "a", 12000], "trial": 4, "serialpos": 22, "trial_type": "single-audio", "trial_index": 167, "time_elapsed": 978049, "internal_node_id": "0.0-122.0"}}, {"uniqueid": "MTK0610:3FDJT1UU75F5O1EHAXFYWAV5VPKK5W", "current_trial": 168, "dateTime": 1511566630479, "trialdata": {"rt": -1000, "stimulus": "/static/audio/wordpool/ROOSTER.wav", "key_press": -1, "type": "PRES_AUD", "word": "rooster", "wordID": 1208, "conditions": [24, 800, "a", 12000], "trial": 4, "serialpos": 23, "trial_type": "single-audio", "trial_index": 168, "time_elapsed": 979762, "internal_node_id": "0.0-123.0"}}, {"uniqueid": "MTK0610:3FDJT1UU75F5O1EHAXFYWAV5VPKK5W", "current_trial": 169, "dateTime": 1511566631875, "trialdata": {"rt": -1, "stimulus": "", "key_press": -1, "type": "PRE_RECALL_DELAY", "trial_type": "single-stim", "trial_index": 169, "time_elapsed": 981158, "internal_node_id": "0.0-124.0-0.0"}}, {"uniqueid": "MTK0610:3FDJT1UU75F5O1EHAXFYWAV5VPKK5W", "current_trial": 170, "dateTime": 1511566632379, "trialdata": {"rt": -1000, "stimulus": "/static/audio/400Hz.wav", "key_press": -1, "type": "PRE_RECALL_ALERT", "trial_type": "single-audio", "trial_index": 170, "time_elapsed": 981662, "internal_node_id": "0.0-125.0"}}, {"uniqueid": "MTK0610:3FDJT1UU75F5O1EHAXFYWAV5VPKK5W", "current_trial": 171, "dateTime": 1511566692383, "trialdata": {"rt": [4548, 5724, 8180, 9349, 11492, 12965, 15564, 31356, 33484, 34412], "recwords": ["bracket", "whistle", "rooster", "milk", "knife", "washer", "garbage", "razor", "banker", "partner"], "type": "FREE_RECALL", "conditions": [24, 800, "a", 12000], "trial": 4, "trial_type": "free-recall", "trial_index": 171, "time_elapsed": 1041664, "internal_node_id": "0.0-126.0-0.0"}}, {"uniqueid": "MTK0610:3FDJT1UU75F5O1EHAXFYWAV5VPKK5W", "current_trial": 172, "dateTime": 1511566713969, "trialdata": {"rt": 19584, "key_press": 13, "type": "INSTRUCTIONS", "trial_type": "text", "trial_index": 172, "time_elapsed": 1063252, "internal_node_id": "0.0-127.0"}}, {"uniqueid": "MTK0610:3FDJT1UU75F5O1EHAXFYWAV5VPKK5W", "current_trial": 173, "dateTime": 1511566739972, "trialdata": {"rt": [2525, 3982, 5285, 6829, 8117, 9525, 11037, 14021, 16269, 17901, 18957, 20589, 22677], "responses": ["13", "15", "14", "13", "18", "11", "11", "21", "19", "13", "5", "11", "17"], "num1": [4, 1, 2, 3, 9, 8, 2, 8, 5, 9, 1, 6, 9, 4], "num2": [2, 5, 4, 1, 1, 1, 3, 5, 6, 2, 2, 1, 3, 5], "num3": [7, 9, 8, 9, 8, 2, 6, 7, 8, 2, 2, 4, 5, 7], "type": "DISTRACTOR", "conditions": [24, 800, "a", 24000], "trial": 5, "trial_type": "math-distractor", "trial_index": 173, "time_elapsed": 1089255, "internal_node_id": "0.0-128.0"}}, {"uniqueid": "MTK0610:3FDJT1UU75F5O1EHAXFYWAV5VPKK5W", "current_trial": 174, "dateTime": 1511566742974, "trialdata": {"rt": -1, "stimulus": "<p id=\"stim\">10</p>", "key_press": -1, "trial_type": "single-stim", "trial_index": 174, "time_elapsed": 1092257, "internal_node_id": "0.0-129.0-0.0"}}, {"uniqueid": "MTK0610:3FDJT1UU75F5O1EHAXFYWAV5VPKK5W", "current_trial": 175, "dateTime": 1511566743974, "trialdata": {"rt": -1, "stimulus": "<p id=\"stim\">9</p>", "key_press": -1, "trial_type": "single-stim", "trial_index": 175, "time_elapsed": 1093257, "internal_node_id": "0.0-129.0-1.0"}}, {"uniqueid": "MTK0610:3FDJT1UU75F5O1EHAXFYWAV5VPKK5W", "current_trial": 176, "dateTime": 1511566744975, "trialdata": {"rt": -1, "stimulus": "<p id=\"stim\">8</p>", "key_press": -1, "trial_type": "single-stim", "trial_index": 176, "time_elapsed": 1094258, "internal_node_id": "0.0-129.0-2.0"}}, {"uniqueid": "MTK0610:3FDJT1UU75F5O1EHAXFYWAV5VPKK5W", "current_trial": 177, "dateTime": 1511566745977, "trialdata": {"rt": -1, "stimulus": "<p id=\"stim\">7</p>", "key_press": -1, "trial_type": "single-stim", "trial_index": 177, "time_elapsed": 1095260, "internal_node_id": "0.0-129.0-3.0"}}, {"uniqueid": "MTK0610:3FDJT1UU75F5O1EHAXFYWAV5VPKK5W", "current_trial": 178, "dateTime": 1511566746978, "trialdata": {"rt": -1, "stimulus": "<p id=\"stim\">6</p>", "key_press": -1, "trial_type": "single-stim", "trial_index": 178, "time_elapsed": 1096261, "internal_node_id": "0.0-129.0-4.0"}}, {"uniqueid": "MTK0610:3FDJT1UU75F5O1EHAXFYWAV5VPKK5W", "current_trial": 179, "dateTime": 1511566747980, "trialdata": {"rt": -1, "stimulus": "<p id=\"stim\">5</p>", "key_press": -1, "trial_type": "single-stim", "trial_index": 179, "time_elapsed": 1097263, "internal_node_id": "0.0-129.0-5.0"}}, {"uniqueid": "MTK0610:3FDJT1UU75F5O1EHAXFYWAV5VPKK5W", "current_trial": 180, "dateTime": 1511566748981, "trialdata": {"rt": -1, "stimulus": "<p id=\"stim\">4</p>", "key_press": -1, "trial_type": "single-stim", "trial_index": 180, "time_elapsed": 1098264, "internal_node_id": "0.0-129.0-6.0"}}, {"uniqueid": "MTK0610:3FDJT1UU75F5O1EHAXFYWAV5VPKK5W", "current_trial": 181, "dateTime": 1511566749982, "trialdata": {"rt": -1, "stimulus": "<p id=\"stim\">3</p>", "key_press": -1, "trial_type": "single-stim", "trial_index": 181, "time_elapsed": 1099265, "internal_node_id": "0.0-129.0-7.0"}}, {"uniqueid": "MTK0610:3FDJT1UU75F5O1EHAXFYWAV5VPKK5W", "current_trial": 182, "dateTime": 1511566750983, "trialdata": {"rt": -1, "stimulus": "<p id=\"stim\">2</p>", "key_press": -1, "trial_type": "single-stim", "trial_index": 182, "time_elapsed": 1100266, "internal_node_id": "0.0-129.0-8.0"}}, {"uniqueid": "MTK0610:3FDJT1UU75F5O1EHAXFYWAV5VPKK5W", "current_trial": 183, "dateTime": 1511566751984, "trialdata": {"rt": -1, "stimulus": "<p id=\"stim\">1</p>", "key_press": -1, "trial_type": "single-stim", "trial_index": 183, "time_elapsed": 1101267, "internal_node_id": "0.0-129.0-9.0"}}, {"uniqueid": "MTK0610:3FDJT1UU75F5O1EHAXFYWAV5VPKK5W", "current_trial": 184, "dateTime": 1511566753486, "trialdata": {"rt": -1, "stimulus": "<p id=\"stim\">+</p>", "key_press": -1, "type": "FIXATION", "trial_type": "single-stim", "trial_index": 184, "time_elapsed": 1102769, "internal_node_id": "0.0-130.0-0.0"}}, {"uniqueid": "MTK0610:3FDJT1UU75F5O1EHAXFYWAV5VPKK5W", "current_trial": 185, "dateTime": 1511566755305, "trialdata": {"rt": -1000, "stimulus": "/static/audio/wordpool/HAWK.wav", "key_press": -1, "type": "PRES_AUD", "word": "hawk", "wordID": 691, "conditions": [24, 800, "a", 24000], "trial": 5, "serialpos": 0, "trial_type": "single-audio", "trial_index": 185, "time_elapsed": 1104588, "internal_node_id": "0.0-131.0"}}, {"uniqueid": "MTK0610:3FDJT1UU75F5O1EHAXFYWAV5VPKK5W", "current_trial": 186, "dateTime": 1511566757140, "trialdata": {"rt": -1000, "stimulus": "/static/audio/wordpool/ROBIN.wav", "key_press": -1, "type": "PRES_AUD", "word": "robin", "wordID": 1198, "conditions": [24, 800, "a", 24000], "trial": 5, "serialpos": 1, "trial_type": "single-audio", "trial_index": 186, "time_elapsed": 1106423, "internal_node_id": "0.0-132.0"}}, {"uniqueid": "MTK0610:3FDJT1UU75F5O1EHAXFYWAV5VPKK5W", "current_trial": 187, "dateTime": 1511566758942, "trialdata": {"rt": -1000, "stimulus": "/static/audio/wordpool/SURVEY.wav", "key_press": -1, "type": "PRES_AUD", "word": "survey", "wordID": 1413, "conditions": [24, 800, "a", 24000], "trial": 5, "serialpos": 2, "trial_type": "single-audio", "trial_index": 187, "time_elapsed": 1108225, "internal_node_id": "0.0-133.0"}}, {"uniqueid": "MTK0610:3FDJT1UU75F5O1EHAXFYWAV5VPKK5W", "current_trial": 188, "dateTime": 1511566760790, "trialdata": {"rt": -1000, "stimulus": "/static/audio/wordpool/REPORT.wav", "key_press": -1, "type": "PRES_AUD", "word": "report", "wordID": 1183, "conditions": [24, 800, "a", 24000], "trial": 5, "serialpos": 3, "trial_type": "single-audio", "trial_index": 188, "time_elapsed": 1110073, "internal_node_id": "0.0-134.0"}}, {"uniqueid": "MTK0610:3FDJT1UU75F5O1EHAXFYWAV5VPKK5W", "current_trial": 189, "dateTime": 1511566762785, "trialdata": {"rt": -1000, "stimulus": "/static/audio/wordpool/JELLO.wav", "key_press": -1, "type": "PRES_AUD", "word": "jello", "wordID": 753, "conditions": [24, 800, "a", 24000], "trial": 5, "serialpos": 4, "trial_type": "single-audio", "trial_index": 189, "time_elapsed": 1112067, "internal_node_id": "0.0-135.0"}}, {"uniqueid": "MTK0610:3FDJT1UU75F5O1EHAXFYWAV5VPKK5W", "current_trial": 190, "dateTime": 1511566764420, "trialdata": {"rt": -1000, "stimulus": "/static/audio/wordpool/AWARD.wav", "key_press": -1, "type": "PRES_AUD", "word": "award", "wordID": 62, "conditions": [24, 800, "a", 24000], "trial": 5, "serialpos": 5, "trial_type": "single-audio", "trial_index": 190, "time_elapsed": 1113703, "internal_node_id": "0.0-136.0"}}, {"uniqueid": "MTK0610:3FDJT1UU75F5O1EHAXFYWAV5VPKK5W", "current_trial": 191, "dateTime": 1511566766189, "trialdata": {"rt": -1000, "stimulus": "/static/audio/wordpool/OMELET.wav", "key_press": -1, "type": "PRES_AUD", "word": "omelet", "wordID": 975, "conditions": [24, 800, "a", 24000], "trial": 5, "serialpos": 6, "trial_type": "single-audio", "trial_index": 191, "time_elapsed": 1115472, "internal_node_id": "0.0-137.0"}}, {"uniqueid": "MTK0610:3FDJT1UU75F5O1EHAXFYWAV5VPKK5W", "current_trial": 192, "dateTime": 1511566767862, "trialdata": {"rt": -1000, "stimulus": "/static/audio/wordpool/EYELASH.wav", "key_press": -1, "type": "PRES_AUD", "word": "eyelash", "wordID": 545, "conditions": [24, 800, "a", 24000], "trial": 5, "serialpos": 7, "trial_type": "single-audio", "trial_index": 192, "time_elapsed": 1117145, "internal_node_id": "0.0-138.0"}}, {"uniqueid": "MTK0610:3FDJT1UU75F5O1EHAXFYWAV5VPKK5W", "current_trial": 193, "dateTime": 1511566769673, "trialdata": {"rt": -1000, "stimulus": "/static/audio/wordpool/OYSTER.wav", "key_press": -1, "type": "PRES_AUD", "word": "oyster", "wordID": 994, "conditions": [24, 800, "a", 24000], "trial": 5, "serialpos": 8, "trial_type": "single-audio", "trial_index": 193, "time_elapsed": 1118956, "internal_node_id": "0.0-139.0"}}, {"uniqueid": "MTK0610:3FDJT1UU75F5O1EHAXFYWAV5VPKK5W", "current_trial": 194, "dateTime": 1511566771533, "trialdata": {"rt": -1000, "stimulus": "/static/audio/wordpool/MUSTARD.wav", "key_press": -1, "type": "PRES_AUD", "word": "mustard", "wordID": 934, "conditions": [24, 800, "a", 24000], "trial": 5, "serialpos": 9, "trial_type": "single-audio", "trial_index": 194, "time_elapsed": 1120816, "internal_node_id": "0.0-140.0"}}, {"uniqueid": "MTK0610:3FDJT1UU75F5O1EHAXFYWAV5VPKK5W", "current_trial": 195, "dateTime": 1511566773297, "trialdata": {"rt": -1000, "stimulus": "/static/audio/wordpool/JELLY.wav", "key_press": -1, "type": "PRES_AUD", "word": "jelly", "wordID": 754, "conditions": [24, 800, "a", 24000], "trial": 5, "serialpos": 10, "trial_type": "single-audio", "trial_index": 195, "time_elapsed": 1122580, "internal_node_id": "0.0-141.0"}}, {"uniqueid": "MTK0610:3FDJT1UU75F5O1EHAXFYWAV5VPKK5W", "current_trial": 196, "dateTime": 1511566774983, "trialdata": {"rt": -1000, "stimulus": "/static/audio/wordpool/FEMALE.wav", "key_press": -1, "type": "PRES_AUD", "word": "female", "wordID": 558, "conditions": [24, 800, "a", 24000], "trial": 5, "serialpos": 11, "trial_type": "single-audio", "trial_index": 196, "time_elapsed": 1124266, "internal_node_id": "0.0-142.0"}}, {"uniqueid": "MTK0610:3FDJT1UU75F5O1EHAXFYWAV5VPKK5W", "current_trial": 197, "dateTime": 1511566776796, "trialdata": {"rt": -1000, "stimulus": "/static/audio/wordpool/COBRA.wav", "key_press": -1, "type": "PRES_AUD", "word": "cobra", "wordID": 335, "conditions": [24, 800, "a", 24000], "trial": 5, "serialpos": 12, "trial_type": "single-audio", "trial_index": 197, "time_elapsed": 1126079, "internal_node_id": "0.0-143.0"}}, {"uniqueid": "MTK0610:3FDJT1UU75F5O1EHAXFYWAV5VPKK5W", "current_trial": 198, "dateTime": 1511566778630, "trialdata": {"rt": -1000, "stimulus": "/static/audio/wordpool/PANTHER.wav", "key_press": -1, "type": "PRES_AUD", "word": "panther", "wordID": 1008, "conditions": [24, 800, "a", 24000], "trial": 5, "serialpos": 13, "trial_type": "single-audio", "trial_index": 198, "time_elapsed": 1127913, "internal_node_id": "0.0-144.0"}}, {"uniqueid": "MTK0610:3FDJT1UU75F5O1EHAXFYWAV5VPKK5W", "current_trial": 199, "dateTime": 1511566780402, "trialdata": {"rt": -1000, "stimulus": "/static/audio/wordpool/PERMIT.wav", "key_press": -1, "type": "PRES_AUD", "word": "permit", "wordID": 1050, "conditions": [24, 800, "a", 24000], "trial": 5, "serialpos": 14, "trial_type": "single-audio", "trial_index": 199, "time_elapsed": 1129685, "internal_node_id": "0.0-145.0"}}, {"uniqueid": "MTK0610:3FDJT1UU75F5O1EHAXFYWAV5VPKK5W", "current_trial": 200, "dateTime": 1511566782182, "trialdata": {"rt": -1000, "stimulus": "/static/audio/wordpool/SNAKE.wav", "key_press": -1, "type": "PRES_AUD", "word": "snake", "wordID": 1332, "conditions": [24, 800, "a", 24000], "trial": 5, "serialpos": 15, "trial_type": "single-audio", "trial_index": 200, "time_elapsed": 1131465, "internal_node_id": "0.0-146.0"}}, {"uniqueid": "MTK0610:3FDJT1UU75F5O1EHAXFYWAV5VPKK5W", "current_trial": 201, "dateTime": 1511566784131, "trialdata": {"rt": -1000, "stimulus": "/static/audio/wordpool/BLADE.wav", "key_press": -1, "type": "PRES_AUD", "word": "blade", "wordID": 133, "conditions": [24, 800, "a", 24000], "trial": 5, "serialpos": 16, "trial_type": "single-audio", "trial_index": 201, "time_elapsed": 1133414, "internal_node_id": "0.0-147.0"}}, {"uniqueid": "MTK0610:3FDJT1UU75F5O1EHAXFYWAV5VPKK5W", "current_trial": 202, "dateTime": 1511566786038, "trialdata": {"rt": -1000, "stimulus": "/static/audio/wordpool/FIREPLACE.wav", "key_press": -1, "type": "PRES_AUD", "word": "fireplace", "wordID": 569, "conditions": [24, 800, "a", 24000], "trial": 5, "serialpos": 17, "trial_type": "single-audio", "trial_index": 202, "time_elapsed": 1135321, "internal_node_id": "0.0-148.0"}}, {"uniqueid": "MTK0610:3FDJT1UU75F5O1EHAXFYWAV5VPKK5W", "current_trial": 203, "dateTime": 1511566787816, "trialdata": {"rt": -1000, "stimulus": "/static/audio/wordpool/HELMET.wav", "key_press": -1, "type": "PRES_AUD", "word": "helmet", "wordID": 701, "conditions": [24, 800, "a", 24000], "trial": 5, "serialpos": 18, "trial_type": "single-audio", "trial_index": 203, "time_elapsed": 1137099, "internal_node_id": "0.0-149.0"}}, {"uniqueid": "MTK0610:3FDJT1UU75F5O1EHAXFYWAV5VPKK5W", "current_trial": 204, "dateTime": 1511566789637, "trialdata": {"rt": -1000, "stimulus": "/static/audio/wordpool/SWORD.wav", "key_press": -1, "type": "PRES_AUD", "word": "sword", "wordID": 1422, "conditions": [24, 800, "a", 24000], "trial": 5, "serialpos": 19, "trial_type": "single-audio", "trial_index": 204, "time_elapsed": 1138920, "internal_node_id": "0.0-150.0"}}, {"uniqueid": "MTK0610:3FDJT1UU75F5O1EHAXFYWAV5VPKK5W", "current_trial": 205, "dateTime": 1511566791498, "trialdata": {"rt": -1000, "stimulus": "/static/audio/wordpool/TROUT.wav", "key_press": -1, "type": "PRES_AUD", "word": "trout", "wordID": 1510, "conditions": [24, 800, "a", 24000], "trial": 5, "serialpos": 20, "trial_type": "single-audio", "trial_index": 205, "time_elapsed": 1140781, "internal_node_id": "0.0-151.0"}}, {"uniqueid": "MTK0610:3FDJT1UU75F5O1EHAXFYWAV5VPKK5W", "current_trial": 206, "dateTime": 1511566793498, "trialdata": {"rt": -1000, "stimulus": "/static/audio/wordpool/SALMON.wav", "key_press": -1, "type": "PRES_AUD", "word": "salmon", "wordID": 1226, "conditions": [24, 800, "a", 24000], "trial": 5, "serialpos": 21, "trial_type": "single-audio", "trial_index": 206, "time_elapsed": 1142781, "internal_node_id": "0.0-152.0"}}, {"uniqueid": "MTK0610:3FDJT1UU75F5O1EHAXFYWAV5VPKK5W", "current_trial": 207, "dateTime": 1511566795325, "trialdata": {"rt": -1000, "stimulus": "/static/audio/wordpool/KIDNEY.wav", "key_press": -1, "type": "PRES_AUD", "word": "kidney", "wordID": 775, "conditions": [24, 800, "a", 24000], "trial": 5, "serialpos": 22, "trial_type": "single-audio", "trial_index": 207, "time_elapsed": 1144607, "internal_node_id": "0.0-153.0"}}, {"uniqueid": "MTK0610:3FDJT1UU75F5O1EHAXFYWAV5VPKK5W", "current_trial": 208, "dateTime": 1511566797193, "trialdata": {"rt": -1000, "stimulus": "/static/audio/wordpool/PRINCESS.wav", "key_press": -1, "type": "PRES_AUD", "word": "princess", "wordID": 1124, "conditions": [24, 800, "a", 24000], "trial": 5, "serialpos": 23, "trial_type": "single-audio", "trial_index": 208, "time_elapsed": 1146476, "internal_node_id": "0.0-154.0"}}, {"uniqueid": "MTK0610:3FDJT1UU75F5O1EHAXFYWAV5VPKK5W", "current_trial": 209, "dateTime": 1511566798566, "trialdata": {"rt": -1, "stimulus": "", "key_press": -1, "type": "PRE_RECALL_DELAY", "trial_type": "single-stim", "trial_index": 209, "time_elapsed": 1147847, "internal_node_id": "0.0-155.0-0.0"}}, {"uniqueid": "MTK0610:3FDJT1UU75F5O1EHAXFYWAV5VPKK5W", "current_trial": 210, "dateTime": 1511566799067, "trialdata": {"rt": -1000, "stimulus": "/static/audio/400Hz.wav", "key_press": -1, "type": "PRE_RECALL_ALERT", "trial_type": "single-audio", "trial_index": 210, "time_elapsed": 1148350, "internal_node_id": "0.0-156.0"}}, {"uniqueid": "MTK0610:3FDJT1UU75F5O1EHAXFYWAV5VPKK5W", "current_trial": 211, "dateTime": 1511566859071, "trialdata": {"rt": [4172, 7724, 8420, 15356, 16324, 24412, 29012, 30796, 36868, 39492, 46812], "recwords": ["princess", "trout", "salmon", "report", "survey", "snake", "jelly", "mustard", "omelet", "snake", "robin"], "type": "FREE_RECALL", "conditions": [24, 800, "a", 24000], "trial": 5, "trial_type": "free-recall", "trial_index": 211, "time_elapsed": 1208352, "internal_node_id": "0.0-157.0-0.0"}}, {"uniqueid": "MTK0610:3FDJT1UU75F5O1EHAXFYWAV5VPKK5W", "current_trial": 212, "dateTime": 1511566977649, "trialdata": {"rt": 116577, "key_press": 13, "type": "INSTRUCTIONS", "trial_type": "text", "trial_index": 212, "time_elapsed": 1326932, "internal_node_id": "0.0-158.0"}}, {"uniqueid": "MTK0610:3FDJT1UU75F5O1EHAXFYWAV5VPKK5W", "current_trial": 213, "dateTime": 1511567003653, "trialdata": {"rt": [2045, 3469, 4869, 7269, 8429, 9645, 12029, 13917, 15181, 16790, 18381, 19621, 23805], "responses": ["13", "10", "14", "12", "13", "6", "23", "15", "10", "11", "17", "13", "20"], "num1": [2, 5, 2, 7, 4, 1, 6, 7, 1, 2, 5, 5, 5, 7], "num2": [4, 1, 7, 1, 8, 1, 9, 4, 6, 7, 7, 5, 7, 2], "num3": [7, 4, 5, 4, 1, 4, 8, 4, 3, 2, 5, 3, 8, 1], "type": "DISTRACTOR", "conditions": [12, 800, "a", 24000], "trial": 6, "trial_type": "math-distractor", "trial_index": 213, "time_elapsed": 1352936, "internal_node_id": "0.0-159.0"}}, {"uniqueid": "MTK0610:3FDJT1UU75F5O1EHAXFYWAV5VPKK5W", "current_trial": 214, "dateTime": 1511567006655, "trialdata": {"rt": -1, "stimulus": "<p id=\"stim\">10</p>", "key_press": -1, "trial_type": "single-stim", "trial_index": 214, "time_elapsed": 1355938, "internal_node_id": "0.0-160.0-0.0"}}, {"uniqueid": "MTK0610:3FDJT1UU75F5O1EHAXFYWAV5VPKK5W", "current_trial": 215, "dateTime": 1511567007658, "trialdata": {"rt": -1, "stimulus": "<p id=\"stim\">9</p>", "key_press": -1, "trial_type": "single-stim", "trial_index": 215, "time_elapsed": 1356941, "internal_node_id": "0.0-160.0-1.0"}}, {"uniqueid": "MTK0610:3FDJT1UU75F5O1EHAXFYWAV5VPKK5W", "current_trial": 216, "dateTime": 1511567008658, "trialdata": {"rt": -1, "stimulus": "<p id=\"stim\">8</p>", "key_press": -1, "trial_type": "single-stim", "trial_index": 216, "time_elapsed": 1357941, "internal_node_id": "0.0-160.0-2.0"}}, {"uniqueid": "MTK0610:3FDJT1UU75F5O1EHAXFYWAV5VPKK5W", "current_trial": 217, "dateTime": 1511567009659, "trialdata": {"rt": -1, "stimulus": "<p id=\"stim\">7</p>", "key_press": -1, "trial_type": "single-stim", "trial_index": 217, "time_elapsed": 1358942, "internal_node_id": "0.0-160.0-3.0"}}, {"uniqueid": "MTK0610:3FDJT1UU75F5O1EHAXFYWAV5VPKK5W", "current_trial": 218, "dateTime": 1511567010662, "trialdata": {"rt": -1, "stimulus": "<p id=\"stim\">6</p>", "key_press": -1, "trial_type": "single-stim", "trial_index": 218, "time_elapsed": 1359945, "internal_node_id": "0.0-160.0-4.0"}}, {"uniqueid": "MTK0610:3FDJT1UU75F5O1EHAXFYWAV5VPKK5W", "current_trial": 219, "dateTime": 1511567011663, "trialdata": {"rt": -1, "stimulus": "<p id=\"stim\">5</p>", "key_press": -1, "trial_type": "single-stim", "trial_index": 219, "time_elapsed": 1360946, "internal_node_id": "0.0-160.0-5.0"}}, {"uniqueid": "MTK0610:3FDJT1UU75F5O1EHAXFYWAV5VPKK5W", "current_trial": 220, "dateTime": 1511567012664, "trialdata": {"rt": -1, "stimulus": "<p id=\"stim\">4</p>", "key_press": -1, "trial_type": "single-stim", "trial_index": 220, "time_elapsed": 1361947, "internal_node_id": "0.0-160.0-6.0"}}, {"uniqueid": "MTK0610:3FDJT1UU75F5O1EHAXFYWAV5VPKK5W", "current_trial": 221, "dateTime": 1511567013665, "trialdata": {"rt": -1, "stimulus": "<p id=\"stim\">3</p>", "key_press": -1, "trial_type": "single-stim", "trial_index": 221, "time_elapsed": 1362948, "internal_node_id": "0.0-160.0-7.0"}}, {"uniqueid": "MTK0610:3FDJT1UU75F5O1EHAXFYWAV5VPKK5W", "current_trial": 222, "dateTime": 1511567014667, "trialdata": {"rt": -1, "stimulus": "<p id=\"stim\">2</p>", "key_press": -1, "trial_type": "single-stim", "trial_index": 222, "time_elapsed": 1363949, "internal_node_id": "0.0-160.0-8.0"}}, {"uniqueid": "MTK0610:3FDJT1UU75F5O1EHAXFYWAV5VPKK5W", "current_trial": 223, "dateTime": 1511567015669, "trialdata": {"rt": -1, "stimulus": "<p id=\"stim\">1</p>", "key_press": -1, "trial_type": "single-stim", "trial_index": 223, "time_elapsed": 1364952, "internal_node_id": "0.0-160.0-9.0"}}, {"uniqueid": "MTK0610:3FDJT1UU75F5O1EHAXFYWAV5VPKK5W", "current_trial": 224, "dateTime": 1511567017170, "trialdata": {"rt": -1, "stimulus": "<p id=\"stim\">+</p>", "key_press": -1, "type": "FIXATION", "trial_type": "single-stim", "trial_index": 224, "time_elapsed": 1366453, "internal_node_id": "0.0-161.0-0.0"}}, {"uniqueid": "MTK0610:3FDJT1UU75F5O1EHAXFYWAV5VPKK5W", "current_trial": 225, "dateTime": 1511567018814, "trialdata": {"rt": -1000, "stimulus": "/static/audio/wordpool/TWEEZERS.wav", "key_press": -1, "type": "PRES_AUD", "word": "tweezers", "wordID": 1525, "conditions": [12, 800, "a", 24000], "trial": 6, "serialpos": 0, "trial_type": "single-audio", "trial_index": 225, "time_elapsed": 1368096, "internal_node_id": "0.0-162.0"}}, {"uniqueid": "MTK0610:3FDJT1UU75F5O1EHAXFYWAV5VPKK5W", "current_trial": 226, "dateTime": 1511567020696, "trialdata": {"rt": -1000, "stimulus": "/static/audio/wordpool/DANDRUFF.wav", "key_press": -1, "type": "PRES_AUD", "word": "dandruff", "wordID": 438, "conditions": [12, 800, "a", 24000], "trial": 6, "serialpos": 1, "trial_type": "single-audio", "trial_index": 226, "time_elapsed": 1369979, "internal_node_id": "0.0-163.0"}}, {"uniqueid": "MTK0610:3FDJT1UU75F5O1EHAXFYWAV5VPKK5W", "current_trial": 227, "dateTime": 1511567022432, "trialdata": {"rt": -1000, "stimulus": "/static/audio/wordpool/PLAID.wav", "key_press": -1, "type": "PRES_AUD", "word": "plaid", "wordID": 1079, "conditions": [12, 800, "a", 24000], "trial": 6, "serialpos": 2, "trial_type": "single-audio", "trial_index": 227, "time_elapsed": 1371714, "internal_node_id": "0.0-164.0"}}, {"uniqueid": "MTK0610:3FDJT1UU75F5O1EHAXFYWAV5VPKK5W", "current_trial": 228, "dateTime": 1511567024094, "trialdata": {"rt": -1000, "stimulus": "/static/audio/wordpool/GUARD.wav", "key_press": -1, "type": "PRES_AUD", "word": "guard", "wordID": 666, "conditions": [12, 800, "a", 24000], "trial": 6, "serialpos": 3, "trial_type": "single-audio", "trial_index": 228, "time_elapsed": 1373377, "internal_node_id": "0.0-165.0"}}, {"uniqueid": "MTK0610:3FDJT1UU75F5O1EHAXFYWAV5VPKK5W", "current_trial": 229, "dateTime": 1511567025701, "trialdata": {"rt": -1000, "stimulus": "/static/audio/wordpool/FRAGRANCE.wav", "key_press": -1, "type": "PRES_AUD", "word": "fragrance", "wordID": 598, "conditions": [12, 800, "a", 24000], "trial": 6, "serialpos": 4, "trial_type": "single-audio", "trial_index": 229, "time_elapsed": 1374983, "internal_node_id": "0.0-166.0"}}, {"uniqueid": "MTK0610:3FDJT1UU75F5O1EHAXFYWAV5VPKK5W", "current_trial": 230, "dateTime": 1511567027605, "trialdata": {"rt": -1000, "stimulus": "/static/audio/wordpool/RABBIT.wav", "key_press": -1, "type": "PRES_AUD", "word": "rabbit", "wordID": 1151, "conditions": [12, 800, "a", 24000], "trial": 6, "serialpos": 5, "trial_type": "single-audio", "trial_index": 230, "time_elapsed": 1376888, "internal_node_id": "0.0-167.0"}}, {"uniqueid": "MTK0610:3FDJT1UU75F5O1EHAXFYWAV5VPKK5W", "current_trial": 231, "dateTime": 1511567029463, "trialdata": {"rt": -1000, "stimulus": "/static/audio/wordpool/TORTOISE.wav", "key_press": -1, "type": "PRES_AUD", "word": "tortoise", "wordID": 1485, "conditions": [12, 800, "a", 24000], "trial": 6, "serialpos": 6, "trial_type": "single-audio", "trial_index": 231, "time_elapsed": 1378746, "internal_node_id": "0.0-168.0"}}, {"uniqueid": "MTK0610:3FDJT1UU75F5O1EHAXFYWAV5VPKK5W", "current_trial": 232, "dateTime": 1511567031327, "trialdata": {"rt": -1000, "stimulus": "/static/audio/wordpool/ANKLE.wav", "key_press": -1, "type": "PRES_AUD", "word": "ankle", "wordID": 23, "conditions": [12, 800, "a", 24000], "trial": 6, "serialpos": 7, "trial_type": "single-audio", "trial_index": 232, "time_elapsed": 1380610, "internal_node_id": "0.0-169.0"}}, {"uniqueid": "MTK0610:3FDJT1UU75F5O1EHAXFYWAV5VPKK5W", "current_trial": 233, "dateTime": 1511567032986, "trialdata": {"rt": -1000, "stimulus": "/static/audio/wordpool/PERFUME.wav", "key_press": -1, "type": "PRES_AUD", "word": "perfume", "wordID": 1048, "conditions": [12, 800, "a", 24000], "trial": 6, "serialpos": 8, "trial_type": "single-audio", "trial_index": 233, "time_elapsed": 1382269, "internal_node_id": "0.0-170.0"}}, {"uniqueid": "MTK0610:3FDJT1UU75F5O1EHAXFYWAV5VPKK5W", "current_trial": 234, "dateTime": 1511567034648, "trialdata": {"rt": -1000, "stimulus": "/static/audio/wordpool/OZONE.wav", "key_press": -1, "type": "PRES_AUD", "word": "ozone", "wordID": 995, "conditions": [12, 800, "a", 24000], "trial": 6, "serialpos": 9, "trial_type": "single-audio", "trial_index": 234, "time_elapsed": 1383931, "internal_node_id": "0.0-171.0"}}, {"uniqueid": "MTK0610:3FDJT1UU75F5O1EHAXFYWAV5VPKK5W", "current_trial": 235, "dateTime": 1511567036452, "trialdata": {"rt": -1000, "stimulus": "/static/audio/wordpool/CONCERT.wav", "key_press": -1, "type": "PRES_AUD", "word": "concert", "wordID": 359, "conditions": [12, 800, "a", 24000], "trial": 6, "serialpos": 10, "trial_type": "single-audio", "trial_index": 235, "time_elapsed": 1385735, "internal_node_id": "0.0-172.0"}}, {"uniqueid": "MTK0610:3FDJT1UU75F5O1EHAXFYWAV5VPKK5W", "current_trial": 236, "dateTime": 1511567038448, "trialdata": {"rt": -1000, "stimulus": "/static/audio/wordpool/SNAIL.wav", "key_press": -1, "type": "PRES_AUD", "word": "snail", "wordID": 1331, "conditions": [12, 800, "a", 24000], "trial": 6, "serialpos": 11, "trial_type": "single-audio", "trial_index": 236, "time_elapsed": 1387731, "internal_node_id": "0.0-173.0"}}, {"uniqueid": "MTK0610:3FDJT1UU75F5O1EHAXFYWAV5VPKK5W", "current_trial": 237, "dateTime": 1511567039739, "trialdata": {"rt": -1, "stimulus": "", "key_press": -1, "type": "PRE_RECALL_DELAY", "trial_type": "single-stim", "trial_index": 237, "time_elapsed": 1389022, "internal_node_id": "0.0-174.0-0.0"}}, {"uniqueid": "MTK0610:3FDJT1UU75F5O1EHAXFYWAV5VPKK5W", "current_trial": 238, "dateTime": 1511567040249, "trialdata": {"rt": -1000, "stimulus": "/static/audio/400Hz.wav", "key_press": -1, "type": "PRE_RECALL_ALERT", "trial_type": "single-audio", "trial_index": 238, "time_elapsed": 1389531, "internal_node_id": "0.0-175.0"}}, {"uniqueid": "MTK0610:3FDJT1UU75F5O1EHAXFYWAV5VPKK5W", "current_trial": 239, "dateTime": 1511567100255, "trialdata": {"rt": [4278, 5366, 7510, 9238, 11622, 13703, 14934, 16167], "recwords": ["snail", "concert", "perfume", "fragrance", "rabbit", "tortoise", "dandruff", "tweezers"], "type": "FREE_RECALL", "conditions": [12, 800, "a", 24000], "trial": 6, "trial_type": "free-recall", "trial_index": 239, "time_elapsed": 1449535, "internal_node_id": "0.0-176.0-0.0"}}, {"uniqueid": "MTK0610:3FDJT1UU75F5O1EHAXFYWAV5VPKK5W", "current_trial": 240, "dateTime": 1511567109288, "trialdata": {"rt": 7031, "key_press": 13, "type": "INSTRUCTIONS", "trial_type": "text", "trial_index": 240, "time_elapsed": 1458571, "internal_node_id": "0.0-177.0"}}, {"uniqueid": "MTK0610:3FDJT1UU75F5O1EHAXFYWAV5VPKK5W", "current_trial": 241, "dateTime": 1511567123291, "trialdata": {"rt": [1158, 3150, 4710, 6814, 9550, 11174], "responses": ["11", "15", "14", "11", "20", "13"], "num1": [1, 2, 4, 4, 6, 5, 1], "num2": [6, 5, 8, 4, 5, 7, 7], "num3": [4, 8, 2, 3, 9, 1, 3], "type": "DISTRACTOR", "conditions": [24, 1600, "a", 12000], "trial": 7, "trial_type": "math-distractor", "trial_index": 241, "time_elapsed": 1472574, "internal_node_id": "0.0-178.0"}}, {"uniqueid": "MTK0610:3FDJT1UU75F5O1EHAXFYWAV5VPKK5W", "current_trial": 242, "dateTime": 1511567126293, "trialdata": {"rt": -1, "stimulus": "<p id=\"stim\">10</p>", "key_press": -1, "trial_type": "single-stim", "trial_index": 242, "time_elapsed": 1475576, "internal_node_id": "0.0-179.0-0.0"}}, {"uniqueid": "MTK0610:3FDJT1UU75F5O1EHAXFYWAV5VPKK5W", "current_trial": 243, "dateTime": 1511567127295, "trialdata": {"rt": -1, "stimulus": "<p id=\"stim\">9</p>", "key_press": -1, "trial_type": "single-stim", "trial_index": 243, "time_elapsed": 1476577, "internal_node_id": "0.0-179.0-1.0"}}, {"uniqueid": "MTK0610:3FDJT1UU75F5O1EHAXFYWAV5VPKK5W", "current_trial": 244, "dateTime": 1511567128296, "trialdata": {"rt": -1, "stimulus": "<p id=\"stim\">8</p>", "key_press": -1, "trial_type": "single-stim", "trial_index": 244, "time_elapsed": 1477579, "internal_node_id": "0.0-179.0-2.0"}}, {"uniqueid": "MTK0610:3FDJT1UU75F5O1EHAXFYWAV5VPKK5W", "current_trial": 245, "dateTime": 1511567129298, "trialdata": {"rt": -1, "stimulus": "<p id=\"stim\">7</p>", "key_press": -1, "trial_type": "single-stim", "trial_index": 245, "time_elapsed": 1478581, "internal_node_id": "0.0-179.0-3.0"}}, {"uniqueid": "MTK0610:3FDJT1UU75F5O1EHAXFYWAV5VPKK5W", "current_trial": 246, "dateTime": 1511567130299, "trialdata": {"rt": -1, "stimulus": "<p id=\"stim\">6</p>", "key_press": -1, "trial_type": "single-stim", "trial_index": 246, "time_elapsed": 1479582, "internal_node_id": "0.0-179.0-4.0"}}, {"uniqueid": "MTK0610:3FDJT1UU75F5O1EHAXFYWAV5VPKK5W", "current_trial": 247, "dateTime": 1511567131300, "trialdata": {"rt": -1, "stimulus": "<p id=\"stim\">5</p>", "key_press": -1, "trial_type": "single-stim", "trial_index": 247, "time_elapsed": 1480583, "internal_node_id": "0.0-179.0-5.0"}}, {"uniqueid": "MTK0610:3FDJT1UU75F5O1EHAXFYWAV5VPKK5W", "current_trial": 248, "dateTime": 1511567132301, "trialdata": {"rt": -1, "stimulus": "<p id=\"stim\">4</p>", "key_press": -1, "trial_type": "single-stim", "trial_index": 248, "time_elapsed": 1481584, "internal_node_id": "0.0-179.0-6.0"}}, {"uniqueid": "MTK0610:3FDJT1UU75F5O1EHAXFYWAV5VPKK5W", "current_trial": 249, "dateTime": 1511567133302, "trialdata": {"rt": -1, "stimulus": "<p id=\"stim\">3</p>", "key_press": -1, "trial_type": "single-stim", "trial_index": 249, "time_elapsed": 1482585, "internal_node_id": "0.0-179.0-7.0"}}, {"uniqueid": "MTK0610:3FDJT1UU75F5O1EHAXFYWAV5VPKK5W", "current_trial": 250, "dateTime": 1511567134303, "trialdata": {"rt": -1, "stimulus": "<p id=\"stim\">2</p>", "key_press": -1, "trial_type": "single-stim", "trial_index": 250, "time_elapsed": 1483586, "internal_node_id": "0.0-179.0-8.0"}}, {"uniqueid": "MTK0610:3FDJT1UU75F5O1EHAXFYWAV5VPKK5W", "current_trial": 251, "dateTime": 1511567135305, "trialdata": {"rt": -1, "stimulus": "<p id=\"stim\">1</p>", "key_press": -1, "trial_type": "single-stim", "trial_index": 251, "time_elapsed": 1484588, "internal_node_id": "0.0-179.0-9.0"}}, {"uniqueid": "MTK0610:3FDJT1UU75F5O1EHAXFYWAV5VPKK5W", "current_trial": 252, "dateTime": 1511567136807, "trialdata": {"rt": -1, "stimulus": "<p id=\"stim\">+</p>", "key_press": -1, "type": "FIXATION", "trial_type": "single-stim", "trial_index": 252, "time_elapsed": 1486090, "internal_node_id": "0.0-180.0-0.0"}}, {"uniqueid": "MTK0610:3FDJT1UU75F5O1EHAXFYWAV5VPKK5W", "current_trial": 253, "dateTime": 1511567139510, "trialdata": {"rt": -1000, "stimulus": "/static/audio/wordpool/CHEST.wav", "key_press": -1, "type": "PRES_AUD", "word": "chest", "wordID": 294, "conditions": [24, 1600, "a", 12000], "trial": 7, "serialpos": 0, "trial_type": "single-audio", "trial_index": 253, "time_elapsed": 1488792, "internal_node_id": "0.0-181.0"}}, {"uniqueid": "MTK0610:3FDJT1UU75F5O1EHAXFYWAV5VPKK5W", "current_trial": 254, "dateTime": 1511567142093, "trialdata": {"rt": -1000, "stimulus": "/static/audio/wordpool/ARMY.wav", "key_press": -1, "type": "PRES_AUD", "word": "army", "wordID": 38, "conditions": [24, 1600, "a", 12000], "trial": 7, "serialpos": 1, "trial_type": "single-audio", "trial_index": 254, "time_elapsed": 1491376, "internal_node_id": "0.0-182.0"}}, {"uniqueid": "MTK0610:3FDJT1UU75F5O1EHAXFYWAV5VPKK5W", "current_trial": 255, "dateTime": 1511567144787, "trialdata": {"rt": -1000, "stimulus": "/static/audio/wordpool/SWAMP.wav", "key_press": -1, "type": "PRES_AUD", "word": "swamp", "wordID": 1415, "conditions": [24, 1600, "a", 12000], "trial": 7, "serialpos": 2, "trial_type": "single-audio", "trial_index": 255, "time_elapsed": 1494070, "internal_node_id": "0.0-183.0"}}, {"uniqueid": "MTK0610:3FDJT1UU75F5O1EHAXFYWAV5VPKK5W", "current_trial": 256, "dateTime": 1511567147313, "trialdata": {"rt": -1000, "stimulus": "/static/audio/wordpool/HORNET.wav", "key_press": -1, "type": "PRES_AUD", "word": "hornet", "wordID": 717, "conditions": [24, 1600, "a", 12000], "trial": 7, "serialpos": 3, "trial_type": "single-audio", "trial_index": 256, "time_elapsed": 1496596, "internal_node_id": "0.0-184.0"}}, {"uniqueid": "MTK0610:3FDJT1UU75F5O1EHAXFYWAV5VPKK5W", "current_trial": 257, "dateTime": 1511567149748, "trialdata": {"rt": -1000, "stimulus": "/static/audio/wordpool/COIN.wav", "key_press": -1, "type": "PRES_AUD", "word": "coin", "wordID": 342, "conditions": [24, 1600, "a", 12000], "trial": 7, "serialpos": 4, "trial_type": "single-audio", "trial_index": 257, "time_elapsed": 1499031, "internal_node_id": "0.0-185.0"}}, {"uniqueid": "MTK0610:3FDJT1UU75F5O1EHAXFYWAV5VPKK5W", "current_trial": 258, "dateTime": 1511567152465, "trialdata": {"rt": -1000, "stimulus": "/static/audio/wordpool/BUNNY.wav", "key_press": -1, "type": "PRES_AUD", "word": "bunny", "wordID": 197, "conditions": [24, 1600, "a", 12000], "trial": 7, "serialpos": 5, "trial_type": "single-audio", "trial_index": 258, "time_elapsed": 1501747, "internal_node_id": "0.0-186.0"}}, {"uniqueid": "MTK0610:3FDJT1UU75F5O1EHAXFYWAV5VPKK5W", "current_trial": 259, "dateTime": 1511567155255, "trialdata": {"rt": -1000, "stimulus": "/static/audio/wordpool/FOREHEAD.wav", "key_press": -1, "type": "PRES_AUD", "word": "forehead", "wordID": 591, "conditions": [24, 1600, "a", 12000], "trial": 7, "serialpos": 6, "trial_type": "single-audio", "trial_index": 259, "time_elapsed": 1504538, "internal_node_id": "0.0-187.0"}}, {"uniqueid": "MTK0610:3FDJT1UU75F5O1EHAXFYWAV5VPKK5W", "current_trial": 260, "dateTime": 1511567157833, "trialdata": {"rt": -1000, "stimulus": "/static/audio/wordpool/GALLON.wav", "key_press": -1, "type": "PRES_AUD", "word": "gallon", "wordID": 617, "conditions": [24, 1600, "a", 12000], "trial": 7, "serialpos": 7, "trial_type": "single-audio", "trial_index": 260, "time_elapsed": 1507116, "internal_node_id": "0.0-188.0"}}, {"uniqueid": "MTK0610:3FDJT1UU75F5O1EHAXFYWAV5VPKK5W", "current_trial": 261, "dateTime": 1511567160604, "trialdata": {"rt": -1000, "stimulus": "/static/audio/wordpool/BARREL.wav", "key_press": -1, "type": "PRES_AUD", "word": "barrel", "wordID": 90, "conditions": [24, 1600, "a", 12000], "trial": 7, "serialpos": 8, "trial_type": "single-audio", "trial_index": 261, "time_elapsed": 1509887, "internal_node_id": "0.0-189.0"}}, {"uniqueid": "MTK0610:3FDJT1UU75F5O1EHAXFYWAV5VPKK5W", "current_trial": 262, "dateTime": 1511567163126, "trialdata": {"rt": -1000, "stimulus": "/static/audio/wordpool/NECKLACE.wav", "key_press": -1, "type": "PRES_AUD", "word": "necklace", "wordID": 939, "conditions": [24, 1600, "a", 12000], "trial": 7, "serialpos": 9, "trial_type": "single-audio", "trial_index": 262, "time_elapsed": 1512409, "internal_node_id": "0.0-190.0"}}, {"uniqueid": "MTK0610:3FDJT1UU75F5O1EHAXFYWAV5VPKK5W", "current_trial": 263, "dateTime": 1511567165871, "trialdata": {"rt": -1000, "stimulus": "/static/audio/wordpool/ROBBER.wav", "key_press": -1, "type": "PRES_AUD", "word": "robber", "wordID": 1196, "conditions": [24, 1600, "a", 12000], "trial": 7, "serialpos": 10, "trial_type": "single-audio", "trial_index": 263, "time_elapsed": 1515154, "internal_node_id": "0.0-191.0"}}, {"uniqueid": "MTK0610:3FDJT1UU75F5O1EHAXFYWAV5VPKK5W", "current_trial": 264, "dateTime": 1511567168626, "trialdata": {"rt": -1000, "stimulus": "/static/audio/wordpool/COUNTRY.wav", "key_press": -1, "type": "PRES_AUD", "word": "country", "wordID": 387, "conditions": [24, 1600, "a", 12000], "trial": 7, "serialpos": 11, "trial_type": "single-audio", "trial_index": 264, "time_elapsed": 1517909, "internal_node_id": "0.0-192.0"}}, {"uniqueid": "MTK0610:3FDJT1UU75F5O1EHAXFYWAV5VPKK5W", "current_trial": 265, "dateTime": 1511567171364, "trialdata": {"rt": -1000, "stimulus": "/static/audio/wordpool/PORTRAIT.wav", "key_press": -1, "type": "PRES_AUD", "word": "portrait", "wordID": 1110, "conditions": [24, 1600, "a", 12000], "trial": 7, "serialpos": 12, "trial_type": "single-audio", "trial_index": 265, "time_elapsed": 1520647, "internal_node_id": "0.0-193.0"}}, {"uniqueid": "MTK0610:3FDJT1UU75F5O1EHAXFYWAV5VPKK5W", "current_trial": 266, "dateTime": 1511567174048, "trialdata": {"rt": -1000, "stimulus": "/static/audio/wordpool/BROOK.wav", "key_press": -1, "type": "PRES_AUD", "word": "brook", "wordID": 176, "conditions": [24, 1600, "a", 12000], "trial": 7, "serialpos": 13, "trial_type": "single-audio", "trial_index": 266, "time_elapsed": 1523331, "internal_node_id": "0.0-194.0"}}, {"uniqueid": "MTK0610:3FDJT1UU75F5O1EHAXFYWAV5VPKK5W", "current_trial": 267, "dateTime": 1511567176750, "trialdata": {"rt": -1000, "stimulus": "/static/audio/wordpool/ISLAND.wav", "key_press": -1, "type": "PRES_AUD", "word": "island", "wordID": 744, "conditions": [24, 1600, "a", 12000], "trial": 7, "serialpos": 14, "trial_type": "single-audio", "trial_index": 267, "time_elapsed": 1526032, "internal_node_id": "0.0-195.0"}}, {"uniqueid": "MTK0610:3FDJT1UU75F5O1EHAXFYWAV5VPKK5W", "current_trial": 268, "dateTime": 1511567179389, "trialdata": {"rt": -1000, "stimulus": "/static/audio/wordpool/LAKE.wav", "key_press": -1, "type": "PRES_AUD", "word": "lake", "wordID": 795, "conditions": [24, 1600, "a", 12000], "trial": 7, "serialpos": 15, "trial_type": "single-audio", "trial_index": 268, "time_elapsed": 1528672, "internal_node_id": "0.0-196.0"}}, {"uniqueid": "MTK0610:3FDJT1UU75F5O1EHAXFYWAV5VPKK5W", "current_trial": 269, "dateTime": 1511567182131, "trialdata": {"rt": -1000, "stimulus": "/static/audio/wordpool/PICTURE.wav", "key_press": -1, "type": "PRES_AUD", "word": "picture", "wordID": 1060, "conditions": [24, 1600, "a", 12000], "tria