{"condition": 0, "counterbalance": 594, "assignmentId": "3NS0A6KXC5FYTT2NRU1ZNMA7NDRZG5", "workerId": "MTK0003", "hitId": "3D17ECOUOE2YH17XY2GLNE52THQ31H", "currenttrial": 625, "bonus": 0, "data": [{"uniqueid": "MTK0003:3NS0A6KXC5FYTT2NRU1ZNMA7NDRZG5", "current_trial": 0, "dateTime": 1508957703205, "trialdata": {"rt": 4638, "key_press": 71, "type": "INSTRUCTIONS", "trial_type": "text", "trial_index": 0, "time_elapsed": 4641, "internal_node_id": "0.0-0.0"}}, {"uniqueid": "MTK0003:3NS0A6KXC5FYTT2NRU1ZNMA7NDRZG5", "current_trial": 1, "dateTime": 1508957705918, "trialdata": {"rt": 2707, "key_press": 173, "type": "INSTRUCTIONS", "trial_type": "text", "trial_index": 1, "time_elapsed": 7352, "internal_node_id": "0.0-1.0"}}, {"uniqueid": "MTK0003:3NS0A6KXC5FYTT2NRU1ZNMA7NDRZG5", "current_trial": 2, "dateTime": 1508957716516, "trialdata": {"rt": [10572], "responses": ["ocean"], "type": "AUDIO_TEST", "trial_type": "audio-test", "trial_index": 2, "time_elapsed": 17953, "internal_node_id": "0.0-2.0"}}, {"uniqueid": "MTK0003:3NS0A6KXC5FYTT2NRU1ZNMA7NDRZG5", "current_trial": 3, "dateTime": 1508957721542, "trialdata": {"rt": [5022], "responses": ["crystal"], "type": "AUDIO_TEST", "trial_type": "audio-test", "trial_index": 3, "time_elapsed": 22979, "internal_node_id": "0.0-3.0"}}, {"uniqueid": "MTK0003:3NS0A6KXC5FYTT2NRU1ZNMA7NDRZG5", "current_trial": 4, "dateTime": 1508957725899, "trialdata": {"rt": [4353], "responses": ["spice"], "type": "AUDIO_TEST", "trial_type": "audio-test", "trial_index": 4, "time_elapsed": 27336, "internal_node_id": "0.0-4.0"}}, {"uniqueid": "MTK0003:3NS0A6KXC5FYTT2NRU1ZNMA7NDRZG5", "current_trial": 5, "dateTime": 1508957729806, "trialdata": {"rt": 3155, "key_press": 13, "type": "INSTRUCTIONS", "trial_type": "text", "trial_index": 5, "time_elapsed": 31243, "internal_node_id": "0.0-5.0"}}, {"uniqueid": "MTK0003:3NS0A6KXC5FYTT2NRU1ZNMA7NDRZG5", "current_trial": 6, "dateTime": 1508958156793, "trialdata": {"rt": 426986, "key_press": 13, "type": "INSTRUCTIONS", "trial_type": "text", "trial_index": 6, "time_elapsed": 458230, "internal_node_id": "0.0-6.0"}}, {"uniqueid": "MTK0003:3NS0A6KXC5FYTT2NRU1ZNMA7NDRZG5", "current_trial": 7, "dateTime": 1508958158597, "trialdata": {"rt": 1803, "key_press": 13, "type": "INSTRUCTIONS", "trial_type": "text", "trial_index": 7, "time_elapsed": 460034, "internal_node_id": "0.0-7.0"}}, {"uniqueid": "MTK0003:3NS0A6KXC5FYTT2NRU1ZNMA7NDRZG5", "current_trial": 8, "dateTime": 1508958159538, "trialdata": {"rt": 940, "key_press": 13, "type": "INSTRUCTIONS", "trial_type": "text", "trial_index": 8, "time_elapsed": 460975, "internal_node_id": "0.0-8.0"}}, {"uniqueid": "MTK0003:3NS0A6KXC5FYTT2NRU1ZNMA7NDRZG5", "current_trial": 9, "dateTime": 1508958178562, "trialdata": {"rt": [3139, 4868, 7884, 9672, 12423, 14193, 15997, 17563], "responses": ["23", "17", "22", "19", "23", "10", "19", "21"], "num1": [4, 9, 7, 5, 5, 6, 6, 8, 2], "num2": [8, 7, 8, 9, 8, 2, 8, 8, 3], "num3": [9, 1, 7, 5, 9, 2, 5, 5, 4], "type": "DISTRACTOR", "conditions": [18, 1200, "v", 18000], "trial": 0, "trial_type": "math-distractor", "trial_index": 9, "time_elapsed": 479999, "internal_node_id": "0.0-9.0"}}, {"uniqueid": "MTK0003:3NS0A6KXC5FYTT2NRU1ZNMA7NDRZG5", "current_trial": 10, "dateTime": 1508958181566, "trialdata": {"rt": -1, "stimulus": "<p id=\"stim\">10</p>", "key_press": -1, "trial_type": "single-stim", "trial_index": 10, "time_elapsed": 483003, "internal_node_id": "0.0-10.0-0.0"}}, {"uniqueid": "MTK0003:3NS0A6KXC5FYTT2NRU1ZNMA7NDRZG5", "current_trial": 11, "dateTime": 1508958182568, "trialdata": {"rt": -1, "stimulus": "<p id=\"stim\">9</p>", "key_press": -1, "trial_type": "single-stim", "trial_index": 11, "time_elapsed": 484005, "internal_node_id": "0.0-10.0-1.0"}}, {"uniqueid": "MTK0003:3NS0A6KXC5FYTT2NRU1ZNMA7NDRZG5", "current_trial": 12, "dateTime": 1508958183570, "trialdata": {"rt": -1, "stimulus": "<p id=\"stim\">8</p>", "key_press": -1, "trial_type": "single-stim", "trial_index": 12, "time_elapsed": 485007, "internal_node_id": "0.0-10.0-2.0"}}, {"uniqueid": "MTK0003:3NS0A6KXC5FYTT2NRU1ZNMA7NDRZG5", "current_trial": 13, "dateTime": 1508958184572, "trialdata": {"rt": -1, "stimulus": "<p id=\"stim\">7</p>", "key_press": -1, "trial_type": "single-stim", "trial_index": 13, "time_elapsed": 486008, "internal_node_id": "0.0-10.0-3.0"}}, {"uniqueid": "MTK0003:3NS0A6KXC5FYTT2NRU1ZNMA7NDRZG5", "current_trial": 14, "dateTime": 1508958185572, "trialdata": {"rt": -1, "stimulus": "<p id=\"stim\">6</p>", "key_press": -1, "trial_type": "single-stim", "trial_index": 14, "time_elapsed": 487009, "internal_node_id": "0.0-10.0-4.0"}}, {"uniqueid": "MTK0003:3NS0A6KXC5FYTT2NRU1ZNMA7NDRZG5", "current_trial": 15, "dateTime": 1508958186574, "trialdata": {"rt": -1, "stimulus": "<p id=\"stim\">5</p>", "key_press": -1, "trial_type": "single-stim", "trial_index": 15, "time_elapsed": 488011, "internal_node_id": "0.0-10.0-5.0"}}, {"uniqueid": "MTK0003:3NS0A6KXC5FYTT2NRU1ZNMA7NDRZG5", "current_trial": 16, "dateTime": 1508958187576, "trialdata": {"rt": -1, "stimulus": "<p id=\"stim\">4</p>", "key_press": -1, "trial_type": "single-stim", "trial_index": 16, "time_elapsed": 489013, "internal_node_id": "0.0-10.0-6.0"}}, {"uniqueid": "MTK0003:3NS0A6KXC5FYTT2NRU1ZNMA7NDRZG5", "current_trial": 17, "dateTime": 1508958188578, "trialdata": {"rt": -1, "stimulus": "<p id=\"stim\">3</p>", "key_press": -1, "trial_type": "single-stim", "trial_index": 17, "time_elapsed": 490015, "internal_node_id": "0.0-10.0-7.0"}}, {"uniqueid": "MTK0003:3NS0A6KXC5FYTT2NRU1ZNMA7NDRZG5", "current_trial": 18, "dateTime": 1508958189579, "trialdata": {"rt": -1, "stimulus": "<p id=\"stim\">2</p>", "key_press": -1, "trial_type": "single-stim", "trial_index": 18, "time_elapsed": 491016, "internal_node_id": "0.0-10.0-8.0"}}, {"uniqueid": "MTK0003:3NS0A6KXC5FYTT2NRU1ZNMA7NDRZG5", "current_trial": 19, "dateTime": 1508958190580, "trialdata": {"rt": -1, "stimulus": "<p id=\"stim\">1</p>", "key_press": -1, "trial_type": "single-stim", "trial_index": 19, "time_elapsed": 492017, "internal_node_id": "0.0-10.0-9.0"}}, {"uniqueid": "MTK0003:3NS0A6KXC5FYTT2NRU1ZNMA7NDRZG5", "current_trial": 20, "dateTime": 1508958192082, "trialdata": {"rt": -1, "stimulus": "<p id=\"stim\">+</p>", "key_press": -1, "type": "FIXATION", "trial_type": "single-stim", "trial_index": 20, "time_elapsed": 493519, "internal_node_id": "0.0-11.0-0.0"}}, {"uniqueid": "MTK0003:3NS0A6KXC5FYTT2NRU1ZNMA7NDRZG5", "current_trial": 21, "dateTime": 1508958193284, "trialdata": {"rt": -1, "stimulus": "<p id=\"stim\">XEROX</p>", "key_press": -1, "type": "PRES_VIS", "word": "xerox", "wordID": 1627, "conditions": [18, 1200, "v", 18000], "trial": 0, "serialpos": 0, "trial_type": "single-stim", "trial_index": 21, "time_elapsed": 494721, "internal_node_id": "0.0-12.0"}}, {"uniqueid": "MTK0003:3NS0A6KXC5FYTT2NRU1ZNMA7NDRZG5", "current_trial": 22, "dateTime": 1508958195446, "trialdata": {"rt": 1072, "stimulus": "<p id=\"stim\">ROBIN</p>", "key_press": 32, "type": "PRES_VIS", "word": "robin", "wordID": 1198, "conditions": [18, 1200, "v", 18000], "trial": 0, "serialpos": 1, "trial_type": "single-stim", "trial_index": 22, "time_elapsed": 496883, "internal_node_id": "0.0-13.0"}}, {"uniqueid": "MTK0003:3NS0A6KXC5FYTT2NRU1ZNMA7NDRZG5", "current_trial": 23, "dateTime": 1508958197618, "trialdata": {"rt": 823, "stimulus": "<p id=\"stim\">QUEEN</p>", "key_press": 13, "type": "PRES_VIS", "word": "queen", "wordID": 1148, "conditions": [18, 1200, "v", 18000], "trial": 0, "serialpos": 2, "trial_type": "single-stim", "trial_index": 23, "time_elapsed": 499055, "internal_node_id": "0.0-14.0"}}, {"uniqueid": "MTK0003:3NS0A6KXC5FYTT2NRU1ZNMA7NDRZG5", "current_trial": 24, "dateTime": 1508958199831, "trialdata": {"rt": -1, "stimulus": "<p id=\"stim\">PERFUME</p>", "key_press": -1, "type": "PRES_VIS", "word": "perfume", "wordID": 1048, "conditions": [18, 1200, "v", 18000], "trial": 0, "serialpos": 3, "trial_type": "single-stim", "trial_index": 24, "time_elapsed": 501268, "internal_node_id": "0.0-15.0"}}, {"uniqueid": "MTK0003:3NS0A6KXC5FYTT2NRU1ZNMA7NDRZG5", "current_trial": 25, "dateTime": 1508958202202, "trialdata": {"rt": -1, "stimulus": "<p id=\"stim\">SEAFOOD</p>", "key_press": -1, "type": "PRES_VIS", "word": "seafood", "wordID": 1259, "conditions": [18, 1200, "v", 18000], "trial": 0, "serialpos": 4, "trial_type": "single-stim", "trial_index": 25, "time_elapsed": 503639, "internal_node_id": "0.0-16.0"}}, {"uniqueid": "MTK0003:3NS0A6KXC5FYTT2NRU1ZNMA7NDRZG5", "current_trial": 26, "dateTime": 1508958204373, "trialdata": {"rt": -1, "stimulus": "<p id=\"stim\">COIN</p>", "key_press": -1, "type": "PRES_VIS", "word": "coin", "wordID": 342, "conditions": [18, 1200, "v", 18000], "trial": 0, "serialpos": 5, "trial_type": "single-stim", "trial_index": 26, "time_elapsed": 505810, "internal_node_id": "0.0-17.0"}}, {"uniqueid": "MTK0003:3NS0A6KXC5FYTT2NRU1ZNMA7NDRZG5", "current_trial": 27, "dateTime": 1508958206407, "trialdata": {"rt": -1, "stimulus": "<p id=\"stim\">CURTAIN</p>", "key_press": -1, "type": "PRES_VIS", "word": "curtain", "wordID": 426, "conditions": [18, 1200, "v", 18000], "trial": 0, "serialpos": 6, "trial_type": "single-stim", "trial_index": 27, "time_elapsed": 507844, "internal_node_id": "0.0-18.0"}}, {"uniqueid": "MTK0003:3NS0A6KXC5FYTT2NRU1ZNMA7NDRZG5", "current_trial": 28, "dateTime": 1508958208500, "trialdata": {"rt": -1, "stimulus": "<p id=\"stim\">EMPIRE</p>", "key_press": -1, "type": "PRES_VIS", "word": "empire", "wordID": 529, "conditions": [18, 1200, "v", 18000], "trial": 0, "serialpos": 7, "trial_type": "single-stim", "trial_index": 28, "time_elapsed": 509937, "internal_node_id": "0.0-19.0"}}, {"uniqueid": "MTK0003:3NS0A6KXC5FYTT2NRU1ZNMA7NDRZG5", "current_trial": 29, "dateTime": 1508958210506, "trialdata": {"rt": -1, "stimulus": "<p id=\"stim\">CIGAR</p>", "key_press": -1, "type": "PRES_VIS", "word": "cigar", "wordID": 307, "conditions": [18, 1200, "v", 18000], "trial": 0, "serialpos": 8, "trial_type": "single-stim", "trial_index": 29, "time_elapsed": 511943, "internal_node_id": "0.0-20.0"}}, {"uniqueid": "MTK0003:3NS0A6KXC5FYTT2NRU1ZNMA7NDRZG5", "current_trial": 30, "dateTime": 1508958212631, "trialdata": {"rt": -1, "stimulus": "<p id=\"stim\">ATLAS</p>", "key_press": -1, "type": "PRES_VIS", "word": "atlas", "wordID": 52, "conditions": [18, 1200, "v", 18000], "trial": 0, "serialpos": 9, "trial_type": "single-stim", "trial_index": 30, "time_elapsed": 514067, "internal_node_id": "0.0-21.0"}}, {"uniqueid": "MTK0003:3NS0A6KXC5FYTT2NRU1ZNMA7NDRZG5", "current_trial": 31, "dateTime": 1508958214635, "trialdata": {"rt": -1, "stimulus": "<p id=\"stim\">BACON</p>", "key_press": -1, "type": "PRES_VIS", "word": "bacon", "wordID": 66, "conditions": [18, 1200, "v", 18000], "trial": 0, "serialpos": 10, "trial_type": "single-stim", "trial_index": 31, "time_elapsed": 516072, "internal_node_id": "0.0-22.0"}}, {"uniqueid": "MTK0003:3NS0A6KXC5FYTT2NRU1ZNMA7NDRZG5", "current_trial": 32, "dateTime": 1508958216975, "trialdata": {"rt": -1, "stimulus": "<p id=\"stim\">CONVICT</p>", "key_press": -1, "type": "PRES_VIS", "word": "convict", "wordID": 370, "conditions": [18, 1200, "v", 18000], "trial": 0, "serialpos": 11, "trial_type": "single-stim", "trial_index": 32, "time_elapsed": 518412, "internal_node_id": "0.0-23.0"}}, {"uniqueid": "MTK0003:3NS0A6KXC5FYTT2NRU1ZNMA7NDRZG5", "current_trial": 33, "dateTime": 1508958219304, "trialdata": {"rt": -1, "stimulus": "<p id=\"stim\">SALAD</p>", "key_press": -1, "type": "PRES_VIS", "word": "salad", "wordID": 1223, "conditions": [18, 1200, "v", 18000], "trial": 0, "serialpos": 12, "trial_type": "single-stim", "trial_index": 33, "time_elapsed": 520741, "internal_node_id": "0.0-24.0"}}, {"uniqueid": "MTK0003:3NS0A6KXC5FYTT2NRU1ZNMA7NDRZG5", "current_trial": 34, "dateTime": 1508958221503, "trialdata": {"rt": -1, "stimulus": "<p id=\"stim\">GUITAR</p>", "key_press": -1, "type": "PRES_VIS", "word": "guitar", "wordID": 669, "conditions": [18, 1200, "v", 18000], "trial": 0, "serialpos": 13, "trial_type": "single-stim", "trial_index": 34, "time_elapsed": 522940, "internal_node_id": "0.0-25.0"}}, {"uniqueid": "MTK0003:3NS0A6KXC5FYTT2NRU1ZNMA7NDRZG5", "current_trial": 35, "dateTime": 1508958223774, "trialdata": {"rt": -1, "stimulus": "<p id=\"stim\">BANJO</p>", "key_press": -1, "type": "PRES_VIS", "word": "banjo", "wordID": 81, "conditions": [18, 1200, "v", 18000], "trial": 0, "serialpos": 14, "trial_type": "single-stim", "trial_index": 35, "time_elapsed": 525211, "internal_node_id": "0.0-26.0"}}, {"uniqueid": "MTK0003:3NS0A6KXC5FYTT2NRU1ZNMA7NDRZG5", "current_trial": 36, "dateTime": 1508958225971, "trialdata": {"rt": -1, "stimulus": "<p id=\"stim\">MATTRESS</p>", "key_press": -1, "type": "PRES_VIS", "word": "mattress", "wordID": 878, "conditions": [18, 1200, "v", 18000], "trial": 0, "serialpos": 15, "trial_type": "single-stim", "trial_index": 36, "time_elapsed": 527408, "internal_node_id": "0.0-27.0"}}, {"uniqueid": "MTK0003:3NS0A6KXC5FYTT2NRU1ZNMA7NDRZG5", "current_trial": 37, "dateTime": 1508958228367, "trialdata": {"rt": -1, "stimulus": "<p id=\"stim\">FLIPPER</p>", "key_press": -1, "type": "PRES_VIS", "word": "flipper", "wordID": 579, "conditions": [18, 1200, "v", 18000], "trial": 0, "serialpos": 16, "trial_type": "single-stim", "trial_index": 37, "time_elapsed": 529804, "internal_node_id": "0.0-28.0"}}, {"uniqueid": "MTK0003:3NS0A6KXC5FYTT2NRU1ZNMA7NDRZG5", "current_trial": 38, "dateTime": 1508958230610, "trialdata": {"rt": -1, "stimulus": "<p id=\"stim\">HERO</p>", "key_press": -1, "type": "PRES_VIS", "word": "hero", "wordID": 705, "conditions": [18, 1200, "v", 18000], "trial": 0, "serialpos": 17, "trial_type": "single-stim", "trial_index": 38, "time_elapsed": 532047, "internal_node_id": "0.0-29.0"}}, {"uniqueid": "MTK0003:3NS0A6KXC5FYTT2NRU1ZNMA7NDRZG5", "current_trial": 39, "dateTime": 1508958232684, "trialdata": {"rt": -1, "stimulus": "", "key_press": -1, "type": "PRE_RECALL_DELAY", "trial_type": "single-stim", "trial_index": 39, "time_elapsed": 534121, "internal_node_id": "0.0-30.0-0.0"}}, {"uniqueid": "MTK0003:3NS0A6KXC5FYTT2NRU1ZNMA7NDRZG5", "current_trial": 40, "dateTime": 1508958233187, "trialdata": {"rt": -1000, "stimulus": "/static/audio/400Hz.wav", "key_press": -1, "type": "PRE_RECALL_ALERT", "trial_type": "single-audio", "trial_index": 40, "time_elapsed": 534624, "internal_node_id": "0.0-31.0"}}, {"uniqueid": "MTK0003:3NS0A6KXC5FYTT2NRU1ZNMA7NDRZG5", "current_trial": 41, "dateTime": 1508958293193, "trialdata": {"rt": [4973, 7317, 8642, 15446, 29595], "recwords": ["xerox", "seafood", "coin", "robin", "happy"], "type": "FREE_RECALL", "conditions": [18, 1200, "v", 18000], "trial": 0, "trial_type": "free-recall", "trial_index": 41, "time_elapsed": 594630, "internal_node_id": "0.0-32.0-0.0"}}, {"uniqueid": "MTK0003:3NS0A6KXC5FYTT2NRU1ZNMA7NDRZG5", "current_trial": 42, "dateTime": 1508958326046, "trialdata": {"rt": 30850, "key_press": 32, "type": "INSTRUCTIONS", "trial_type": "text", "trial_index": 42, "time_elapsed": 627483, "internal_node_id": "0.0-33.0"}}, {"uniqueid": "MTK0003:3NS0A6KXC5FYTT2NRU1ZNMA7NDRZG5", "current_trial": 43, "dateTime": 1508958346050, "trialdata": {"rt": [3004, 4637, 6760, 8203, 9549, 11355, 12743, 14128, 15809], "responses": ["18", "13", "19", "7", "8", "18", "11", "6", "15"], "num1": [7, 1, 7, 1, 3, 9, 1, 4, 8, 6], "num2": [5, 8, 4, 1, 4, 8, 9, 1, 4, 6], "num3": [6, 4, 8, 5, 1, 1, 1, 1, 3, 7], "type": "DISTRACTOR", "conditions": [18, 1200, "a", 18000], "trial": 1, "trial_type": "math-distractor", "trial_index": 43, "time_elapsed": 647487, "internal_node_id": "0.0-34.0"}}, {"uniqueid": "MTK0003:3NS0A6KXC5FYTT2NRU1ZNMA7NDRZG5", "current_trial": 44, "dateTime": 1508958349052, "trialdata": {"rt": -1, "stimulus": "<p id=\"stim\">10</p>", "key_press": -1, "trial_type": "single-stim", "trial_index": 44, "time_elapsed": 650489, "internal_node_id": "0.0-35.0-0.0"}}, {"uniqueid": "MTK0003:3NS0A6KXC5FYTT2NRU1ZNMA7NDRZG5", "current_trial": 45, "dateTime": 1508958350054, "trialdata": {"rt": -1, "stimulus": "<p id=\"stim\">9</p>", "key_press": -1, "trial_type": "single-stim", "trial_index": 45, "time_elapsed": 651491, "internal_node_id": "0.0-35.0-1.0"}}, {"uniqueid": "MTK0003:3NS0A6KXC5FYTT2NRU1ZNMA7NDRZG5", "current_trial": 46, "dateTime": 1508958351055, "trialdata": {"rt": -1, "stimulus": "<p id=\"stim\">8</p>", "key_press": -1, "trial_type": "single-stim", "trial_index": 46, "time_elapsed": 652492, "internal_node_id": "0.0-35.0-2.0"}}, {"uniqueid": "MTK0003:3NS0A6KXC5FYTT2NRU1ZNMA7NDRZG5", "current_trial": 47, "dateTime": 1508958352057, "trialdata": {"rt": -1, "stimulus": "<p id=\"stim\">7</p>", "key_press": -1, "trial_type": "single-stim", "trial_index": 47, "time_elapsed": 653494, "internal_node_id": "0.0-35.0-3.0"}}, {"uniqueid": "MTK0003:3NS0A6KXC5FYTT2NRU1ZNMA7NDRZG5", "current_trial": 48, "dateTime": 1508958353058, "trialdata": {"rt": -1, "stimulus": "<p id=\"stim\">6</p>", "key_press": -1, "trial_type": "single-stim", "trial_index": 48, "time_elapsed": 654495, "internal_node_id": "0.0-35.0-4.0"}}, {"uniqueid": "MTK0003:3NS0A6KXC5FYTT2NRU1ZNMA7NDRZG5", "current_trial": 49, "dateTime": 1508958354058, "trialdata": {"rt": -1, "stimulus": "<p id=\"stim\">5</p>", "key_press": -1, "trial_type": "single-stim", "trial_index": 49, "time_elapsed": 655495, "internal_node_id": "0.0-35.0-5.0"}}, {"uniqueid": "MTK0003:3NS0A6KXC5FYTT2NRU1ZNMA7NDRZG5", "current_trial": 50, "dateTime": 1508958355061, "trialdata": {"rt": -1, "stimulus": "<p id=\"stim\">4</p>", "key_press": -1, "trial_type": "single-stim", "trial_index": 50, "time_elapsed": 656498, "internal_node_id": "0.0-35.0-6.0"}}, {"uniqueid": "MTK0003:3NS0A6KXC5FYTT2NRU1ZNMA7NDRZG5", "current_trial": 51, "dateTime": 1508958356062, "trialdata": {"rt": -1, "stimulus": "<p id=\"stim\">3</p>", "key_press": -1, "trial_type": "single-stim", "trial_index": 51, "time_elapsed": 657499, "internal_node_id": "0.0-35.0-7.0"}}, {"uniqueid": "MTK0003:3NS0A6KXC5FYTT2NRU1ZNMA7NDRZG5", "current_trial": 52, "dateTime": 1508958357064, "trialdata": {"rt": -1, "stimulus": "<p id=\"stim\">2</p>", "key_press": -1, "trial_type": "single-stim", "trial_index": 52, "time_elapsed": 658501, "internal_node_id": "0.0-35.0-8.0"}}, {"uniqueid": "MTK0003:3NS0A6KXC5FYTT2NRU1ZNMA7NDRZG5", "current_trial": 53, "dateTime": 1508958358068, "trialdata": {"rt": -1, "stimulus": "<p id=\"stim\">1</p>", "key_press": -1, "trial_type": "single-stim", "trial_index": 53, "time_elapsed": 659505, "internal_node_id": "0.0-35.0-9.0"}}, {"uniqueid": "MTK0003:3NS0A6KXC5FYTT2NRU1ZNMA7NDRZG5", "current_trial": 54, "dateTime": 1508958359571, "trialdata": {"rt": -1, "stimulus": "<p id=\"stim\">+</p>", "key_press": -1, "type": "FIXATION", "trial_type": "single-stim", "trial_index": 54, "time_elapsed": 661007, "internal_node_id": "0.0-36.0-0.0"}}, {"uniqueid": "MTK0003:3NS0A6KXC5FYTT2NRU1ZNMA7NDRZG5", "current_trial": 55, "dateTime": 1508958361870, "trialdata": {"rt": -1000, "stimulus": "/static/audio/wordpool/CASHEW.wav", "key_press": -1, "type": "PRES_AUD", "word": "cashew", "wordID": 252, "conditions": [18, 1200, "a", 18000], "trial": 1, "serialpos": 0, "trial_type": "single-audio", "trial_index": 55, "time_elapsed": 663307, "internal_node_id": "0.0-37.0"}}, {"uniqueid": "MTK0003:3NS0A6KXC5FYTT2NRU1ZNMA7NDRZG5", "current_trial": 56, "dateTime": 1508958364081, "trialdata": {"rt": 139.99999999987267, "stimulus": "/static/audio/wordpool/MATCH.wav", "key_press": 175, "type": "PRES_AUD", "word": "match", "wordID": 877, "conditions": [18, 1200, "a", 18000], "trial": 1, "serialpos": 1, "trial_type": "single-audio", "trial_index": 56, "time_elapsed": 665518, "internal_node_id": "0.0-38.0"}}, {"uniqueid": "MTK0003:3NS0A6KXC5FYTT2NRU1ZNMA7NDRZG5", "current_trial": 57, "dateTime": 1508958366310, "trialdata": {"rt": -1000, "stimulus": "/static/audio/wordpool/BARLEY.wav", "key_press": -1, "type": "PRES_AUD", "word": "barley", "wordID": 87, "conditions": [18, 1200, "a", 18000], "trial": 1, "serialpos": 2, "trial_type": "single-audio", "trial_index": 57, "time_elapsed": 667747, "internal_node_id": "0.0-39.0"}}, {"uniqueid": "MTK0003:3NS0A6KXC5FYTT2NRU1ZNMA7NDRZG5", "current_trial": 58, "dateTime": 1508958368511, "trialdata": {"rt": -1000, "stimulus": "/static/audio/wordpool/SPACE.wav", "key_press": -1, "type": "PRES_AUD", "word": "space", "wordID": 1344, "conditions": [18, 1200, "a", 18000], "trial": 1, "serialpos": 3, "trial_type": "single-audio", "trial_index": 58, "time_elapsed": 669948, "internal_node_id": "0.0-40.0"}}, {"uniqueid": "MTK0003:3NS0A6KXC5FYTT2NRU1ZNMA7NDRZG5", "current_trial": 59, "dateTime": 1508958370733, "trialdata": {"rt": -1000, "stimulus": "/static/audio/wordpool/KITCHEN.wav", "key_press": -1, "type": "PRES_AUD", "word": "kitchen", "wordID": 777, "conditions": [18, 1200, "a", 18000], "trial": 1, "serialpos": 4, "trial_type": "single-audio", "trial_index": 59, "time_elapsed": 672170, "internal_node_id": "0.0-41.0"}}, {"uniqueid": "MTK0003:3NS0A6KXC5FYTT2NRU1ZNMA7NDRZG5", "current_trial": 60, "dateTime": 1508958373097, "trialdata": {"rt": -1000, "stimulus": "/static/audio/wordpool/FLESH.wav", "key_press": -1, "type": "PRES_AUD", "word": "flesh", "wordID": 578, "conditions": [18, 1200, "a", 18000], "trial": 1, "serialpos": 5, "trial_type": "single-audio", "trial_index": 60, "time_elapsed": 674534, "internal_node_id": "0.0-42.0"}}, {"uniqueid": "MTK0003:3NS0A6KXC5FYTT2NRU1ZNMA7NDRZG5", "current_trial": 61, "dateTime": 1508958375404, "trialdata": {"rt": -1000, "stimulus": "/static/audio/wordpool/EGYPT.wav", "key_press": -1, "type": "PRES_AUD", "word": "egypt", "wordID": 518, "conditions": [18, 1200, "a", 18000], "trial": 1, "serialpos": 6, "trial_type": "single-audio", "trial_index": 61, "time_elapsed": 676841, "internal_node_id": "0.0-43.0"}}, {"uniqueid": "MTK0003:3NS0A6KXC5FYTT2NRU1ZNMA7NDRZG5", "current_trial": 62, "dateTime": 1508958377578, "trialdata": {"rt": -1000, "stimulus": "/static/audio/wordpool/KIDNEY.wav", "key_press": -1, "type": "PRES_AUD", "word": "kidney", "wordID": 775, "conditions": [18, 1200, "a", 18000], "trial": 1, "serialpos": 7, "trial_type": "single-audio", "trial_index": 62, "time_elapsed": 679015, "internal_node_id": "0.0-44.0"}}, {"uniqueid": "MTK0003:3NS0A6KXC5FYTT2NRU1ZNMA7NDRZG5", "current_trial": 63, "dateTime": 1508958379931, "trialdata": {"rt": -1000, "stimulus": "/static/audio/wordpool/ICEBERG.wav", "key_press": -1, "type": "PRES_AUD", "word": "iceberg", "wordID": 730, "conditions": [18, 1200, "a", 18000], "trial": 1, "serialpos": 8, "trial_type": "single-audio", "trial_index": 63, "time_elapsed": 681368, "internal_node_id": "0.0-45.0"}}, {"uniqueid": "MTK0003:3NS0A6KXC5FYTT2NRU1ZNMA7NDRZG5", "current_trial": 64, "dateTime": 1508958382314, "trialdata": {"rt": -1000, "stimulus": "/static/audio/wordpool/DENIM.wav", "key_press": -1, "type": "PRES_AUD", "word": "denim", "wordID": 445, "conditions": [18, 1200, "a", 18000], "trial": 1, "serialpos": 9, "trial_type": "single-audio", "trial_index": 64, "time_elapsed": 683751, "internal_node_id": "0.0-46.0"}}, {"uniqueid": "MTK0003:3NS0A6KXC5FYTT2NRU1ZNMA7NDRZG5", "current_trial": 65, "dateTime": 1508958384600, "trialdata": {"rt": -1000, "stimulus": "/static/audio/wordpool/GLASS.wav", "key_press": -1, "type": "PRES_AUD", "word": "glass", "wordID": 638, "conditions": [18, 1200, "a", 18000], "trial": 1, "serialpos": 10, "trial_type": "single-audio", "trial_index": 65, "time_elapsed": 686037, "internal_node_id": "0.0-47.0"}}, {"uniqueid": "MTK0003:3NS0A6KXC5FYTT2NRU1ZNMA7NDRZG5", "current_trial": 66, "dateTime": 1508958386963, "trialdata": {"rt": -1000, "stimulus": "/static/audio/wordpool/SUNSET.wav", "key_press": -1, "type": "PRES_AUD", "word": "sunset", "wordID": 1407, "conditions": [18, 1200, "a", 18000], "trial": 1, "serialpos": 11, "trial_type": "single-audio", "trial_index": 66, "time_elapsed": 688400, "internal_node_id": "0.0-48.0"}}, {"uniqueid": "MTK0003:3NS0A6KXC5FYTT2NRU1ZNMA7NDRZG5", "current_trial": 67, "dateTime": 1508958389130, "trialdata": {"rt": -1000, "stimulus": "/static/audio/wordpool/PATIENT.wav", "key_press": -1, "type": "PRES_AUD", "word": "patient", "wordID": 1023, "conditions": [18, 1200, "a", 18000], "trial": 1, "serialpos": 12, "trial_type": "single-audio", "trial_index": 67, "time_elapsed": 690567, "internal_node_id": "0.0-49.0"}}, {"uniqueid": "MTK0003:3NS0A6KXC5FYTT2NRU1ZNMA7NDRZG5", "current_trial": 68, "dateTime": 1508958391291, "trialdata": {"rt": -1000, "stimulus": "/static/audio/wordpool/PREACHER.wav", "key_press": -1, "type": "PRES_AUD", "word": "preacher", "wordID": 1118, "conditions": [18, 1200, "a", 18000], "trial": 1, "serialpos": 13, "trial_type": "single-audio", "trial_index": 68, "time_elapsed": 692727, "internal_node_id": "0.0-50.0"}}, {"uniqueid": "MTK0003:3NS0A6KXC5FYTT2NRU1ZNMA7NDRZG5", "current_trial": 69, "dateTime": 1508958393540, "trialdata": {"rt": -1000, "stimulus": "/static/audio/wordpool/POPCORN.wav", "key_press": -1, "type": "PRES_AUD", "word": "popcorn", "wordID": 1103, "conditions": [18, 1200, "a", 18000], "trial": 1, "serialpos": 14, "trial_type": "single-audio", "trial_index": 69, "time_elapsed": 694977, "internal_node_id": "0.0-51.0"}}, {"uniqueid": "MTK0003:3NS0A6KXC5FYTT2NRU1ZNMA7NDRZG5", "current_trial": 70, "dateTime": 1508958395936, "trialdata": {"rt": -1000, "stimulus": "/static/audio/wordpool/COSTUME.wav", "key_press": -1, "type": "PRES_AUD", "word": "costume", "wordID": 382, "conditions": [18, 1200, "a", 18000], "trial": 1, "serialpos": 15, "trial_type": "single-audio", "trial_index": 70, "time_elapsed": 697373, "internal_node_id": "0.0-52.0"}}, {"uniqueid": "MTK0003:3NS0A6KXC5FYTT2NRU1ZNMA7NDRZG5", "current_trial": 71, "dateTime": 1508958398184, "trialdata": {"rt": -1000, "stimulus": "/static/audio/wordpool/COOK.wav", "key_press": -1, "type": "PRES_AUD", "word": "cook", "wordID": 371, "conditions": [18, 1200, "a", 18000], "trial": 1, "serialpos": 16, "trial_type": "single-audio", "trial_index": 71, "time_elapsed": 699621, "internal_node_id": "0.0-53.0"}}, {"uniqueid": "MTK0003:3NS0A6KXC5FYTT2NRU1ZNMA7NDRZG5", "current_trial": 72, "dateTime": 1508958400540, "trialdata": {"rt": -1000, "stimulus": "/static/audio/wordpool/CELLAR.wav", "key_press": -1, "type": "PRES_AUD", "word": "cellar", "wordID": 266, "conditions": [18, 1200, "a", 18000], "trial": 1, "serialpos": 17, "trial_type": "single-audio", "trial_index": 72, "time_elapsed": 701977, "internal_node_id": "0.0-54.0"}}, {"uniqueid": "MTK0003:3NS0A6KXC5FYTT2NRU1ZNMA7NDRZG5", "current_trial": 73, "dateTime": 1508958401847, "trialdata": {"rt": -1, "stimulus": "", "key_press": -1, "type": "PRE_RECALL_DELAY", "trial_type": "single-stim", "trial_index": 73, "time_elapsed": 703283, "internal_node_id": "0.0-55.0-0.0"}}, {"uniqueid": "MTK0003:3NS0A6KXC5FYTT2NRU1ZNMA7NDRZG5", "current_trial": 74, "dateTime": 1508958402348, "trialdata": {"rt": -1000, "stimulus": "/static/audio/400Hz.wav", "key_press": -1, "type": "PRE_RECALL_ALERT", "trial_type": "single-audio", "trial_index": 74, "time_elapsed": 703785, "internal_node_id": "0.0-56.0"}}, {"uniqueid": "MTK0003:3NS0A6KXC5FYTT2NRU1ZNMA7NDRZG5", "current_trial": 75, "dateTime": 1508958462352, "trialdata": {"rt": [1956, 3860, 5516, 7267, 9158], "recwords": ["cashew", "match", "egypt", "patient", "cellar"], "type": "FREE_RECALL", "conditions": [18, 1200, "a", 18000], "trial": 1, "trial_type": "free-recall", "trial_index": 75, "time_elapsed": 763789, "internal_node_id": "0.0-57.0-0.0"}}, {"uniqueid": "MTK0003:3NS0A6KXC5FYTT2NRU1ZNMA7NDRZG5", "current_trial": 76, "dateTime": 1508958469561, "trialdata": {"rt": 5207, "key_press": 13, "type": "INSTRUCTIONS", "trial_type": "text", "trial_index": 76, "time_elapsed": 770998, "internal_node_id": "0.0-58.0"}}, {"uniqueid": "MTK0003:3NS0A6KXC5FYTT2NRU1ZNMA7NDRZG5", "current_trial": 77, "dateTime": 1508958482565, "trialdata": {"rt": [3309, 5584, 8119, 10534], "responses": ["16", "19", "13", "22"], "num1": [7, 7, 1, 6, 5], "num2": [7, 5, 4, 8, 5], "num3": [2, 7, 8, 8, 8], "type": "DISTRACTOR", "conditions": [12, 800, "v", 12000], "trial": 2, "trial_type": "math-distractor", "trial_index": 77, "time_elapsed": 784002, "internal_node_id": "0.0-59.0"}}, {"uniqueid": "MTK0003:3NS0A6KXC5FYTT2NRU1ZNMA7NDRZG5", "current_trial": 78, "dateTime": 1508958485567, "trialdata": {"rt": -1, "stimulus": "<p id=\"stim\">10</p>", "key_press": -1, "trial_type": "single-stim", "trial_index": 78, "time_elapsed": 787004, "internal_node_id": "0.0-60.0-0.0"}}, {"uniqueid": "MTK0003:3NS0A6KXC5FYTT2NRU1ZNMA7NDRZG5", "current_trial": 79, "dateTime": 1508958486568, "trialdata": {"rt": -1, "stimulus": "<p id=\"stim\">9</p>", "key_press": -1, "trial_type": "single-stim", "trial_index": 79, "time_elapsed": 788005, "internal_node_id": "0.0-60.0-1.0"}}, {"uniqueid": "MTK0003:3NS0A6KXC5FYTT2NRU1ZNMA7NDRZG5", "current_trial": 80, "dateTime": 1508958487570, "trialdata": {"rt": -1, "stimulus": "<p id=\"stim\">8</p>", "key_press": -1, "trial_type": "single-stim", "trial_index": 80, "time_elapsed": 789007, "internal_node_id": "0.0-60.0-2.0"}}, {"uniqueid": "MTK0003:3NS0A6KXC5FYTT2NRU1ZNMA7NDRZG5", "current_trial": 81, "dateTime": 1508958488571, "trialdata": {"rt": -1, "stimulus": "<p id=\"stim\">7</p>", "key_press": -1, "trial_type": "single-stim", "trial_index": 81, "time_elapsed": 790008, "internal_node_id": "0.0-60.0-3.0"}}, {"uniqueid": "MTK0003:3NS0A6KXC5FYTT2NRU1ZNMA7NDRZG5", "current_trial": 82, "dateTime": 1508958489572, "trialdata": {"rt": -1, "stimulus": "<p id=\"stim\">6</p>", "key_press": -1, "trial_type": "single-stim", "trial_index": 82, "time_elapsed": 791009, "internal_node_id": "0.0-60.0-4.0"}}, {"uniqueid": "MTK0003:3NS0A6KXC5FYTT2NRU1ZNMA7NDRZG5", "current_trial": 83, "dateTime": 1508958490574, "trialdata": {"rt": -1, "stimulus": "<p id=\"stim\">5</p>", "key_press": -1, "trial_type": "single-stim", "trial_index": 83, "time_elapsed": 792011, "internal_node_id": "0.0-60.0-5.0"}}, {"uniqueid": "MTK0003:3NS0A6KXC5FYTT2NRU1ZNMA7NDRZG5", "current_trial": 84, "dateTime": 1508958491576, "trialdata": {"rt": -1, "stimulus": "<p id=\"stim\">4</p>", "key_press": -1, "trial_type": "single-stim", "trial_index": 84, "time_elapsed": 793013, "internal_node_id": "0.0-60.0-6.0"}}, {"uniqueid": "MTK0003:3NS0A6KXC5FYTT2NRU1ZNMA7NDRZG5", "current_trial": 85, "dateTime": 1508958492578, "trialdata": {"rt": -1, "stimulus": "<p id=\"stim\">3</p>", "key_press": -1, "trial_type": "single-stim", "trial_index": 85, "time_elapsed": 794015, "internal_node_id": "0.0-60.0-7.0"}}, {"uniqueid": "MTK0003:3NS0A6KXC5FYTT2NRU1ZNMA7NDRZG5", "current_trial": 86, "dateTime": 1508958493579, "trialdata": {"rt": -1, "stimulus": "<p id=\"stim\">2</p>", "key_press": -1, "trial_type": "single-stim", "trial_index": 86, "time_elapsed": 795016, "internal_node_id": "0.0-60.0-8.0"}}, {"uniqueid": "MTK0003:3NS0A6KXC5FYTT2NRU1ZNMA7NDRZG5", "current_trial": 87, "dateTime": 1508958494581, "trialdata": {"rt": -1, "stimulus": "<p id=\"stim\">1</p>", "key_press": -1, "trial_type": "single-stim", "trial_index": 87, "time_elapsed": 796018, "internal_node_id": "0.0-60.0-9.0"}}, {"uniqueid": "MTK0003:3NS0A6KXC5FYTT2NRU1ZNMA7NDRZG5", "current_trial": 88, "dateTime": 1508958496083, "trialdata": {"rt": -1, "stimulus": "<p id=\"stim\">+</p>", "key_press": -1, "type": "FIXATION", "trial_type": "single-stim", "trial_index": 88, "time_elapsed": 797520, "internal_node_id": "0.0-61.0-0.0"}}, {"uniqueid": "MTK0003:3NS0A6KXC5FYTT2NRU1ZNMA7NDRZG5", "current_trial": 89, "dateTime": 1508958496885, "trialdata": {"rt": -1, "stimulus": "<p id=\"stim\">WARDROBE</p>", "key_press": -1, "type": "PRES_VIS", "word": "wardrobe", "wordID": 1586, "conditions": [12, 800, "v", 12000], "trial": 2, "serialpos": 0, "trial_type": "single-stim", "trial_index": 89, "time_elapsed": 798322, "internal_node_id": "0.0-62.0"}}, {"uniqueid": "MTK0003:3NS0A6KXC5FYTT2NRU1ZNMA7NDRZG5", "current_trial": 90, "dateTime": 1508958498492, "trialdata": {"rt": -1, "stimulus": "<p id=\"stim\">DRESS</p>", "key_press": -1, "type": "PRES_VIS", "word": "dress", "wordID": 494, "conditions": [12, 800, "v", 12000], "trial": 2, "serialpos": 1, "trial_type": "single-stim", "trial_index": 90, "time_elapsed": 799929, "internal_node_id": "0.0-63.0"}}, {"uniqueid": "MTK0003:3NS0A6KXC5FYTT2NRU1ZNMA7NDRZG5", "current_trial": 91, "dateTime": 1508958500098, "trialdata": {"rt": -1, "stimulus": "<p id=\"stim\">ANKLE</p>", "key_press": -1, "type": "PRES_VIS", "word": "ankle", "wordID": 23, "conditions": [12, 800, "v", 12000], "trial": 2, "serialpos": 2, "trial_type": "single-stim", "trial_index": 91, "time_elapsed": 801535, "internal_node_id": "0.0-64.0"}}, {"uniqueid": "MTK0003:3NS0A6KXC5FYTT2NRU1ZNMA7NDRZG5", "current_trial": 92, "dateTime": 1508958501878, "trialdata": {"rt": -1, "stimulus": "<p id=\"stim\">SKIRT</p>", "key_press": -1, "type": "PRES_VIS", "word": "skirt", "wordID": 1318, "conditions": [12, 800, "v", 12000], "trial": 2, "serialpos": 3, "trial_type": "single-stim", "trial_index": 92, "time_elapsed": 803315, "internal_node_id": "0.0-65.0"}}, {"uniqueid": "MTK0003:3NS0A6KXC5FYTT2NRU1ZNMA7NDRZG5", "current_trial": 93, "dateTime": 1508958503720, "trialdata": {"rt": -1, "stimulus": "<p id=\"stim\">WIDOW</p>", "key_press": -1, "type": "PRES_VIS", "word": "widow", "wordID": 1607, "conditions": [12, 800, "v", 12000], "trial": 2, "serialpos": 4, "trial_type": "single-stim", "trial_index": 93, "time_elapsed": 805157, "internal_node_id": "0.0-66.0"}}, {"uniqueid": "MTK0003:3NS0A6KXC5FYTT2NRU1ZNMA7NDRZG5", "current_trial": 94, "dateTime": 1508958505715, "trialdata": {"rt": -1, "stimulus": "<p id=\"stim\">JURY</p>", "key_press": -1, "type": "PRES_VIS", "word": "jury", "wordID": 765, "conditions": [12, 800, "v", 12000], "trial": 2, "serialpos": 5, "trial_type": "single-stim", "trial_index": 94, "time_elapsed": 807152, "internal_node_id": "0.0-67.0"}}, {"uniqueid": "MTK0003:3NS0A6KXC5FYTT2NRU1ZNMA7NDRZG5", "current_trial": 95, "dateTime": 1508958507560, "trialdata": {"rt": -1, "stimulus": "<p id=\"stim\">STICKER</p>", "key_press": -1, "type": "PRES_VIS", "word": "sticker", "wordID": 1381, "conditions": [12, 800, "v", 12000], "trial": 2, "serialpos": 6, "trial_type": "single-stim", "trial_index": 95, "time_elapsed": 808995, "internal_node_id": "0.0-68.0"}}, {"uniqueid": "MTK0003:3NS0A6KXC5FYTT2NRU1ZNMA7NDRZG5", "current_trial": 96, "dateTime": 1508958509481, "trialdata": {"rt": -1, "stimulus": "<p id=\"stim\">BADGE</p>", "key_press": -1, "type": "PRES_VIS", "word": "badge", "wordID": 67, "conditions": [12, 800, "v", 12000], "trial": 2, "serialpos": 7, "trial_type": "single-stim", "trial_index": 96, "time_elapsed": 810918, "internal_node_id": "0.0-69.0"}}, {"uniqueid": "MTK0003:3NS0A6KXC5FYTT2NRU1ZNMA7NDRZG5", "current_trial": 97, "dateTime": 1508958511262, "trialdata": {"rt": -1, "stimulus": "<p id=\"stim\">CRIB</p>", "key_press": -1, "type": "PRES_VIS", "word": "crib", "wordID": 406, "conditions": [12, 800, "v", 12000], "trial": 2, "serialpos": 8, "trial_type": "single-stim", "trial_index": 97, "time_elapsed": 812699, "internal_node_id": "0.0-70.0"}}, {"uniqueid": "MTK0003:3NS0A6KXC5FYTT2NRU1ZNMA7NDRZG5", "current_trial": 98, "dateTime": 1508958513245, "trialdata": {"rt": -1, "stimulus": "<p id=\"stim\">LEG</p>", "key_press": -1, "type": "PRES_VIS", "word": "leg", "wordID": 808, "conditions": [12, 800, "v", 12000], "trial": 2, "serialpos": 9, "trial_type": "single-stim", "trial_index": 98, "time_elapsed": 814682, "internal_node_id": "0.0-71.0"}}, {"uniqueid": "MTK0003:3NS0A6KXC5FYTT2NRU1ZNMA7NDRZG5", "current_trial": 99, "dateTime": 1508958514850, "trialdata": {"rt": -1, "stimulus": "<p id=\"stim\">DRILL</p>", "key_press": -1, "type": "PRES_VIS", "word": "drill", "wordID": 496, "conditions": [12, 800, "v", 12000], "trial": 2, "serialpos": 10, "trial_type": "single-stim", "trial_index": 99, "time_elapsed": 816287, "internal_node_id": "0.0-72.0"}}, {"uniqueid": "MTK0003:3NS0A6KXC5FYTT2NRU1ZNMA7NDRZG5", "current_trial": 100, "dateTime": 1508958516780, "trialdata": {"rt": -1, "stimulus": "<p id=\"stim\">CATTLE</p>", "key_press": -1, "type": "PRES_VIS", "word": "cattle", "wordID": 260, "conditions": [12, 800, "v", 12000], "trial": 2, "serialpos": 11, "trial_type": "single-stim", "trial_index": 100, "time_elapsed": 818217, "internal_node_id": "0.0-73.0"}}, {"uniqueid": "MTK0003:3NS0A6KXC5FYTT2NRU1ZNMA7NDRZG5", "current_trial": 101, "dateTime": 1508958519082, "trialdata": {"rt": -1, "stimulus": "", "key_press": -1, "type": "PRE_RECALL_DELAY", "trial_type": "single-stim", "trial_index": 101, "time_elapsed": 820519, "internal_node_id": "0.0-74.0-0.0"}}, {"uniqueid": "MTK0003:3NS0A6KXC5FYTT2NRU1ZNMA7NDRZG5", "current_trial": 102, "dateTime": 1508958519583, "trialdata": {"rt": -1000, "stimulus": "/static/audio/400Hz.wav", "key_press": -1, "type": "PRE_RECALL_ALERT", "trial_type": "single-audio", "trial_index": 102, "time_elapsed": 821020, "internal_node_id": "0.0-75.0"}}, {"uniqueid": "MTK0003:3NS0A6KXC5FYTT2NRU1ZNMA7NDRZG5", "current_trial": 103, "dateTime": 1508958579588, "trialdata": {"rt": [6277, 7169, 8892, 11043, 53177], "recwords": ["wardrobe", "dress", "jury", "sticker", "jewelry"], "type": "FREE_RECALL", "conditions": [12, 800, "v", 12000], "trial": 2, "trial_type": "free-recall", "trial_index": 103, "time_elapsed": 881024, "internal_node_id": "0.0-76.0-0.0"}}, {"uniqueid": "MTK0003:3NS0A6KXC5FYTT2NRU1ZNMA7NDRZG5", "current_trial": 104, "dateTime": 1508958609458, "trialdata": {"rt": 27868, "key_press": 32, "type": "INSTRUCTIONS", "trial_type": "text", "trial_index": 104, "time_elapsed": 910894, "internal_node_id": "0.0-77.0"}}, {"uniqueid": "MTK0003:3NS0A6KXC5FYTT2NRU1ZNMA7NDRZG5", "current_trial": 105, "dateTime": 1508958635464, "trialdata": {"rt": [2219, 4017, 6294, 8350, 10342, 12097, 13928, 15935, 17208, 19169, 20880, 22696], "responses": ["18", "9", "17", "19", "21", "7", "23", "16", "6", "16", "14", "4"], "num1": [5, 5, 5, 1, 9, 4, 9, 6, 2, 8, 3, 1, 5], "num2": [8, 2, 4, 9, 4, 1, 5, 9, 1, 5, 2, 2, 9], "num3": [5, 2, 8, 9, 8, 2, 9, 1, 3, 3, 9, 1, 4], "type": "DISTRACTOR", "conditions": [12, 1600, "a", 24000], "trial": 3, "trial_type": "math-distractor", "trial_index": 105, "time_elapsed": 936901, "internal_node_id": "0.0-78.0"}}, {"uniqueid": "MTK0003:3NS0A6KXC5FYTT2NRU1ZNMA7NDRZG5", "current_trial": 106, "dateTime": 1508958638468, "trialdata": {"rt": -1, "stimulus": "<p id=\"stim\">10</p>", "key_press": -1, "trial_type": "single-stim", "trial_index": 106, "time_elapsed": 939904, "internal_node_id": "0.0-79.0-0.0"}}, {"uniqueid": "MTK0003:3NS0A6KXC5FYTT2NRU1ZNMA7NDRZG5", "current_trial": 107, "dateTime": 1508958639469, "trialdata": {"rt": -1, "stimulus": "<p id=\"stim\">9</p>", "key_press": -1, "trial_type": "single-stim", "trial_index": 107, "time_elapsed": 940906, "internal_node_id": "0.0-79.0-1.0"}}, {"uniqueid": "MTK0003:3NS0A6KXC5FYTT2NRU1ZNMA7NDRZG5", "current_trial": 108, "dateTime": 1508958640471, "trialdata": {"rt": -1, "stimulus": "<p id=\"stim\">8</p>", "key_press": -1, "trial_type": "single-stim", "trial_index": 108, "time_elapsed": 941907, "internal_node_id": "0.0-79.0-2.0"}}, {"uniqueid": "MTK0003:3NS0A6KXC5FYTT2NRU1ZNMA7NDRZG5", "current_trial": 109, "dateTime": 1508958641472, "trialdata": {"rt": -1, "stimulus": "<p id=\"stim\">7</p>", "key_press": -1, "trial_type": "single-stim", "trial_index": 109, "time_elapsed": 942909, "internal_node_id": "0.0-79.0-3.0"}}, {"uniqueid": "MTK0003:3NS0A6KXC5FYTT2NRU1ZNMA7NDRZG5", "current_trial": 110, "dateTime": 1508958642475, "trialdata": {"rt": -1, "stimulus": "<p id=\"stim\">6</p>", "key_press": -1, "trial_type": "single-stim", "trial_index": 110, "time_elapsed": 943912, "internal_node_id": "0.0-79.0-4.0"}}, {"uniqueid": "MTK0003:3NS0A6KXC5FYTT2NRU1ZNMA7NDRZG5", "current_trial": 111, "dateTime": 1508958643476, "trialdata": {"rt": -1, "stimulus": "<p id=\"stim\">5</p>", "key_press": -1, "trial_type": "single-stim", "trial_index": 111, "time_elapsed": 944913, "internal_node_id": "0.0-79.0-5.0"}}, {"uniqueid": "MTK0003:3NS0A6KXC5FYTT2NRU1ZNMA7NDRZG5", "current_trial": 112, "dateTime": 1508958644477, "trialdata": {"rt": -1, "stimulus": "<p id=\"stim\">4</p>", "key_press": -1, "trial_type": "single-stim", "trial_index": 112, "time_elapsed": 945914, "internal_node_id": "0.0-79.0-6.0"}}, {"uniqueid": "MTK0003:3NS0A6KXC5FYTT2NRU1ZNMA7NDRZG5", "current_trial": 113, "dateTime": 1508958645479, "trialdata": {"rt": 860, "stimulus": "<p id=\"stim\">3</p>", "key_press": 175, "trial_type": "single-stim", "trial_index": 113, "time_elapsed": 946915, "internal_node_id": "0.0-79.0-7.0"}}, {"uniqueid": "MTK0003:3NS0A6KXC5FYTT2NRU1ZNMA7NDRZG5", "current_trial": 114, "dateTime": 1508958646480, "trialdata": {"rt": -1, "stimulus": "<p id=\"stim\">2</p>", "key_press": -1, "trial_type": "single-stim", "trial_index": 114, "time_elapsed": 947917, "internal_node_id": "0.0-79.0-8.0"}}, {"uniqueid": "MTK0003:3NS0A6KXC5FYTT2NRU1ZNMA7NDRZG5", "current_trial": 115, "dateTime": 1508958647481, "trialdata": {"rt": -1, "stimulus": "<p id=\"stim\">1</p>", "key_press": -1, "trial_type": "single-stim", "trial_index": 115, "time_elapsed": 948918, "internal_node_id": "0.0-79.0-9.0"}}, {"uniqueid": "MTK0003:3NS0A6KXC5FYTT2NRU1ZNMA7NDRZG5", "current_trial": 116, "dateTime": 1508958648983, "trialdata": {"rt": -1, "stimulus": "<p id=\"stim\">+</p>", "key_press": -1, "type": "FIXATION", "trial_type": "single-stim", "trial_index": 116, "time_elapsed": 950420, "internal_node_id": "0.0-80.0-0.0"}}, {"uniqueid": "MTK0003:3NS0A6KXC5FYTT2NRU1ZNMA7NDRZG5", "current_trial": 117, "dateTime": 1508958651460, "trialdata": {"rt": -1000, "stimulus": "/static/audio/wordpool/POCKET.wav", "key_press": -1, "type": "PRES_AUD", "word": "pocket", "wordID": 1092, "conditions": [12, 1600, "a", 24000], "trial": 3, "serialpos": 0, "trial_type": "single-audio", "trial_index": 117, "time_elapsed": 952897, "internal_node_id": "0.0-81.0"}}, {"uniqueid": "MTK0003:3NS0A6KXC5FYTT2NRU1ZNMA7NDRZG5", "current_trial": 118, "dateTime": 1508958654129, "trialdata": {"rt": -1000, "stimulus": "/static/audio/wordpool/NIGHTGOWN.wav", "key_press": -1, "type": "PRES_AUD", "word": "nightgown", "wordID": 952, "conditions": [12, 1600, "a", 24000], "trial": 3, "serialpos": 1, "trial_type": "single-audio", "trial_index": 118, "time_elapsed": 955566, "internal_node_id": "0.0-82.0"}}, {"uniqueid": "MTK0003:3NS0A6KXC5FYTT2NRU1ZNMA7NDRZG5", "current_trial": 119, "dateTime": 1508958656790, "trialdata": {"rt": -1000, "stimulus": "/static/audio/wordpool/SHIRT.wav", "key_press": -1, "type": "PRES_AUD", "word": "shirt", "wordID": 1286, "conditions": [12, 1600, "a", 24000], "trial": 3, "serialpos": 2, "trial_type": "single-audio", "trial_index": 119, "time_elapsed": 958226, "internal_node_id": "0.0-83.0"}}, {"uniqueid": "MTK0003:3NS0A6KXC5FYTT2NRU1ZNMA7NDRZG5", "current_trial": 120, "dateTime": 1508958659298, "trialdata": {"rt": -1000, "stimulus": "/static/audio/wordpool/SCULPTURE.wav", "key_press": -1, "type": "PRES_AUD", "word": "sculpture", "wordID": 1257, "conditions": [12, 1600, "a", 24000], "trial": 3, "serialpos": 3, "trial_type": "single-audio", "trial_index": 120, "time_elapsed": 960734, "internal_node_id": "0.0-84.0"}}, {"uniqueid": "MTK0003:3NS0A6KXC5FYTT2NRU1ZNMA7NDRZG5", "current_trial": 121, "dateTime": 1508958661762, "trialdata": {"rt": -1000, "stimulus": "/static/audio/wordpool/SALT.wav", "key_press": -1, "type": "PRES_AUD", "word": "salt", "wordID": 1228, "conditions": [12, 1600, "a", 24000], "trial": 3, "serialpos": 4, "trial_type": "single-audio", "trial_index": 121, "time_elapsed": 963199, "internal_node_id": "0.0-85.0"}}, {"uniqueid": "MTK0003:3NS0A6KXC5FYTT2NRU1ZNMA7NDRZG5", "current_trial": 122, "dateTime": 1508958664401, "trialdata": {"rt": -1000, "stimulus": "/static/audio/wordpool/FUNGUS.wav", "key_press": -1, "type": "PRES_AUD", "word": "fungus", "wordID": 613, "conditions": [12, 1600, "a", 24000], "trial": 3, "serialpos": 5, "trial_type": "single-audio", "trial_index": 122, "time_elapsed": 965838, "internal_node_id": "0.0-86.0"}}, {"uniqueid": "MTK0003:3NS0A6KXC5FYTT2NRU1ZNMA7NDRZG5", "current_trial": 123, "dateTime": 1508958666851, "trialdata": {"rt": -1000, "stimulus": "/static/audio/wordpool/DRIVER.wav", "key_press": -1, "type": "PRES_AUD", "word": "driver", "wordID": 498, "conditions": [12, 1600, "a", 24000], "trial": 3, "serialpos": 6, "trial_type": "single-audio", "trial_index": 123, "time_elapsed": 968287, "internal_node_id": "0.0-87.0"}}, {"uniqueid": "MTK0003:3NS0A6KXC5FYTT2NRU1ZNMA7NDRZG5", "current_trial": 124, "dateTime": 1508958669616, "trialdata": {"rt": -1000, "stimulus": "/static/audio/wordpool/TRUCK.wav", "key_press": -1, "type": "PRES_AUD", "word": "truck", "wordID": 1511, "conditions": [12, 1600, "a", 24000], "trial": 3, "serialpos": 7, "trial_type": "single-audio", "trial_index": 124, "time_elapsed": 971050, "internal_node_id": "0.0-88.0"}}, {"uniqueid": "MTK0003:3NS0A6KXC5FYTT2NRU1ZNMA7NDRZG5", "current_trial": 125, "dateTime": 1508958672262, "trialdata": {"rt": -1000, "stimulus": "/static/audio/wordpool/PLIERS.wav", "key_press": -1, "type": "PRES_AUD", "word": "pliers", "wordID": 1088, "conditions": [12, 1600, "a", 24000], "trial": 3, "serialpos": 8, "trial_type": "single-audio", "trial_index": 125, "time_elapsed": 973699, "internal_node_id": "0.0-89.0"}}, {"uniqueid": "MTK0003:3NS0A6KXC5FYTT2NRU1ZNMA7NDRZG5", "current_trial": 126, "dateTime": 1508958674949, "trialdata": {"rt": -1000, "stimulus": "/static/audio/wordpool/BRIEFCASE.wav", "key_press": -1, "type": "PRES_AUD", "word": "briefcase", "wordID": 174, "conditions": [12, 1600, "a", 24000], "trial": 3, "serialpos": 9, "trial_type": "single-audio", "trial_index": 126, "time_elapsed": 976386, "internal_node_id": "0.0-90.0"}}, {"uniqueid": "MTK0003:3NS0A6KXC5FYTT2NRU1ZNMA7NDRZG5", "current_trial": 127, "dateTime": 1508958677720, "trialdata": {"rt": -1000, "stimulus": "/static/audio/wordpool/SCOTCH.wav", "key_press": -1, "type": "PRES_AUD", "word": "scotch", "wordID": 1250, "conditions": [12, 1600, "a", 24000], "trial": 3, "serialpos": 10, "trial_type": "single-audio", "trial_index": 127, "time_elapsed": 979157, "internal_node_id": "0.0-91.0"}}, {"uniqueid": "MTK0003:3NS0A6KXC5FYTT2NRU1ZNMA7NDRZG5", "current_trial": 128, "dateTime": 1508958680366, "trialdata": {"rt": -1000, "stimulus": "/static/audio/wordpool/SODA.wav", "key_press": -1, "type": "PRES_AUD", "word": "soda", "wordID": 1340, "conditions": [12, 1600, "a", 24000], "trial": 3, "serialpos": 11, "trial_type": "single-audio", "trial_index": 128, "time_elapsed": 981803, "internal_node_id": "0.0-92.0"}}, {"uniqueid": "MTK0003:3NS0A6KXC5FYTT2NRU1ZNMA7NDRZG5", "current_trial": 129, "dateTime": 1508958681748, "trialdata": {"rt": -1, "stimulus": "", "key_press": -1, "type": "PRE_RECALL_DELAY", "trial_type": "single-stim", "trial_index": 129, "time_elapsed": 983184, "internal_node_id": "0.0-93.0-0.0"}}, {"uniqueid": "MTK0003:3NS0A6KXC5FYTT2NRU1ZNMA7NDRZG5", "current_trial": 130, "dateTime": 1508958682250, "trialdata": {"rt": -1000, "stimulus": "/static/audio/400Hz.wav", "key_press": -1, "type": "PRE_RECALL_ALERT", "trial_type": "single-audio", "trial_index": 130, "time_elapsed": 983687, "internal_node_id": "0.0-94.0"}}, {"uniqueid": "MTK0003:3NS0A6KXC5FYTT2NRU1ZNMA7NDRZG5", "current_trial": 131, "dateTime": 1508958742256, "trialdata": {"rt": [1866, 4865, 6953, 9073, 12521, 55622], "recwords": ["soda", "briefcase", "pliers", "scotch", "shirt", "soda"], "type": "FREE_RECALL", "conditions": [12, 1600, "a", 24000], "trial": 3, "trial_type": "free-recall", "trial_index": 131, "time_elapsed": 1043692, "internal_node_id": "0.0-95.0-0.0"}}, {"uniqueid": "MTK0003:3NS0A6KXC5FYTT2NRU1ZNMA7NDRZG5", "current_trial": 132, "dateTime": 1508958745542, "trialdata": {"rt": 1285, "key_press": 32, "type": "INSTRUCTIONS", "trial_type": "text", "trial_index": 132, "time_elapsed": 1046979, "internal_node_id": "0.0-96.0"}}, {"uniqueid": "MTK0003:3NS0A6KXC5FYTT2NRU1ZNMA7NDRZG5", "current_trial": 133, "dateTime": 1508958759547, "trialdata": {"rt": [2029, 3693, 6315, 8985, 10605], "responses": ["5", "'18", "11", "23", "13"], "num1": [2, 2, 4, 8, 4, 8], "num2": [2, 8, 2, 8, 4, 3], "num3": [1, 8, 5, 7, 5, 7], "type": "DISTRACTOR", "conditions": [24, 1600, "v", 12000], "trial": 4, "trial_type": "math-distractor", "trial_index": 133, "time_elapsed": 1060984, "internal_node_id": "0.0-97.0"}}, {"uniqueid": "MTK0003:3NS0A6KXC5FYTT2NRU1ZNMA7NDRZG5", "current_trial": 134, "dateTime": 1508958762549, "trialdata": {"rt": -1, "stimulus": "<p id=\"stim\">10</p>", "key_press": -1, "trial_type": "single-stim", "trial_index": 134, "time_elapsed": 1063986, "internal_node_id": "0.0-98.0-0.0"}}, {"uniqueid": "MTK0003:3NS0A6KXC5FYTT2NRU1ZNMA7NDRZG5", "current_trial": 135, "dateTime": 1508958763551, "trialdata": {"rt": -1, "stimulus": "<p id=\"stim\">9</p>", "key_press": -1, "trial_type": "single-stim", "trial_index": 135, "time_elapsed": 1064988, "internal_node_id": "0.0-98.0-1.0"}}, {"uniqueid": "MTK0003:3NS0A6KXC5FYTT2NRU1ZNMA7NDRZG5", "current_trial": 136, "dateTime": 1508958764552, "trialdata": {"rt": -1, "stimulus": "<p id=\"stim\">8</p>", "key_press": -1, "trial_type": "single-stim", "trial_index": 136, "time_elapsed": 1065989, "internal_node_id": "0.0-98.0-2.0"}}, {"uniqueid": "MTK0003:3NS0A6KXC5FYTT2NRU1ZNMA7NDRZG5", "current_trial": 137, "dateTime": 1508958765553, "trialdata": {"rt": -1, "stimulus": "<p id=\"stim\">7</p>", "key_press": -1, "trial_type": "single-stim", "trial_index": 137, "time_elapsed": 1066990, "internal_node_id": "0.0-98.0-3.0"}}, {"uniqueid": "MTK0003:3NS0A6KXC5FYTT2NRU1ZNMA7NDRZG5", "current_trial": 138, "dateTime": 1508958766556, "trialdata": {"rt": -1, "stimulus": "<p id=\"stim\">6</p>", "key_press": -1, "trial_type": "single-stim", "trial_index": 138, "time_elapsed": 1067992, "internal_node_id": "0.0-98.0-4.0"}}, {"uniqueid": "MTK0003:3NS0A6KXC5FYTT2NRU1ZNMA7NDRZG5", "current_trial": 139, "dateTime": 1508958767557, "trialdata": {"rt": -1, "stimulus": "<p id=\"stim\">5</p>", "key_press": -1, "trial_type": "single-stim", "trial_index": 139, "time_elapsed": 1068994, "internal_node_id": "0.0-98.0-5.0"}}, {"uniqueid": "MTK0003:3NS0A6KXC5FYTT2NRU1ZNMA7NDRZG5", "current_trial": 140, "dateTime": 1508958768558, "trialdata": {"rt": -1, "stimulus": "<p id=\"stim\">4</p>", "key_press": -1, "trial_type": "single-stim", "trial_index": 140, "time_elapsed": 1069995, "internal_node_id": "0.0-98.0-6.0"}}, {"uniqueid": "MTK0003:3NS0A6KXC5FYTT2NRU1ZNMA7NDRZG5", "current_trial": 141, "dateTime": 1508958769560, "trialdata": {"rt": -1, "stimulus": "<p id=\"stim\">3</p>", "key_press": -1, "trial_type": "single-stim", "trial_index": 141, "time_elapsed": 1070997, "internal_node_id": "0.0-98.0-7.0"}}, {"uniqueid": "MTK0003:3NS0A6KXC5FYTT2NRU1ZNMA7NDRZG5", "current_trial": 142, "dateTime": 1508958770562, "trialdata": {"rt": -1, "stimulus": "<p id=\"stim\">2</p>", "key_press": -1, "trial_type": "single-stim", "trial_index": 142, "time_elapsed": 1071999, "internal_node_id": "0.0-98.0-8.0"}}, {"uniqueid": "MTK0003:3NS0A6KXC5FYTT2NRU1ZNMA7NDRZG5", "current_trial": 143, "dateTime": 1508958771563, "trialdata": {"rt": -1, "stimulus": "<p id=\"stim\">1</p>", "key_press": -1, "trial_type": "single-stim", "trial_index": 143, "time_elapsed": 1073000, "internal_node_id": "0.0-98.0-9.0"}}, {"uniqueid": "MTK0003:3NS0A6KXC5FYTT2NRU1ZNMA7NDRZG5", "current_trial": 144, "dateTime": 1508958773065, "trialdata": {"rt": -1, "stimulus": "<p id=\"stim\">+</p>", "key_press": -1, "type": "FIXATION", "trial_type": "single-stim", "trial_index": 144, "time_elapsed": 1074502, "internal_node_id": "0.0-99.0-0.0"}}, {"uniqueid": "MTK0003:3NS0A6KXC5FYTT2NRU1ZNMA7NDRZG5", "current_trial": 145, "dateTime": 1508958774667, "trialdata": {"rt": -1, "stimulus": "<p id=\"stim\">SWORD</p>", "key_press": -1, "type": "PRES_VIS", "word": "sword", "wordID": 1422, "conditions": [24, 1600, "v", 12000], "trial": 4, "serialpos": 0, "trial_type": "single-stim", "trial_index": 145, "time_elapsed": 1076104, "internal_node_id": "0.0-100.0"}}, {"uniqueid": "MTK0003:3NS0A6KXC5FYTT2NRU1ZNMA7NDRZG5", "current_trial": 146, "dateTime": 1508958777221, "trialdata": {"rt": -1, "stimulus": "<p id=\"stim\">BRICK</p>", "key_press": -1, "type": "PRES_VIS", "word": "brick", "wordID": 171, "conditions": [24, 1600, "v", 12000], "trial": 4, "serialpos": 1, "trial_type": "single-stim", "trial_index": 146, "time_elapsed": 1078658, "internal_node_id": "0.0-101.0"}}, {"uniqueid": "MTK0003:3NS0A6KXC5FYTT2NRU1ZNMA7NDRZG5", "current_trial": 147, "dateTime": 1508958779643, "trialdata": {"rt": -1, "stimulus": "<p id=\"stim\">SUPPER</p>", "key_press": -1, "type": "PRES_VIS", "word": "supper", "wordID": 1410, "conditions": [24, 1600, "v", 12000], "trial": 4, "serialpos": 2, "trial_type": "single-stim", "trial_index": 147, "time_elapsed": 1081080, "internal_node_id": "0.0-102.0"}}, {"uniqueid": "MTK0003:3NS0A6KXC5FYTT2NRU1ZNMA7NDRZG5", "current_trial": 148, "dateTime": 1508958782419, "trialdata": {"rt": -1, "stimulus": "<p id=\"stim\">SHORTCAKE</p>", "key_press": -1, "type": "PRES_VIS", "word": "shortcake", "wordID": 1291, "conditions": [24, 1600, "v", 12000], "trial": 4, "serialpos": 3, "trial_type": "single-stim", "trial_index": 148, "time_elapsed": 1083856, "internal_node_id": "0.0-103.0"}}, {"uniqueid": "MTK0003:3NS0A6KXC5FYTT2NRU1ZNMA7NDRZG5", "current_trial": 149, "dateTime": 1508958785118, "trialdata": {"rt": -1, "stimulus": "<p id=\"stim\">PASTA</p>", "key_press": -1, "type": "PRES_VIS", "word": "pasta", "wordID": 1020, "conditions": [24, 1600, "v", 12000], "trial": 4, "serialpos": 4, "trial_type": "single-stim", "trial_index": 149, "time_elapsed": 1086555, "internal_node_id": "0.0-104.0"}}, {"uniqueid": "MTK0003:3NS0A6KXC5FYTT2NRU1ZNMA7NDRZG5", "current_trial": 150, "dateTime": 1508958787690, "trialdata": {"rt": -1, "stimulus": "<p id=\"stim\">BOYFRIEND</p>", "key_press": -1, "type": "PRES_VIS", "word": "boyfriend", "wordID": 161, "conditions": [24, 1600, "v", 12000], "trial": 4, "serialpos": 5, "trial_type": "single-stim", "trial_index": 150, "time_elapsed": 1089127, "internal_node_id": "0.0-105.0"}}, {"uniqueid": "MTK0003:3NS0A6KXC5FYTT2NRU1ZNMA7NDRZG5", "current_trial": 151, "dateTime": 1508958790401, "trialdata": {"rt": -1, "stimulus": "<p id=\"stim\">TRIBE</p>", "key_press": -1, "type": "PRES_VIS", "word": "tribe", "wordID": 1504, "conditions": [24, 1600, "v", 12000], "trial": 4, "serialpos": 6, "trial_type": "single-stim", "trial_index": 151, "time_elapsed": 1091838, "internal_node_id": "0.0-106.0"}}, {"uniqueid": "MTK0003:3NS0A6KXC5FYTT2NRU1ZNMA7NDRZG5", "current_trial": 152, "dateTime": 1508958793648, "trialdata": {"rt": -1, "stimulus": "<p id=\"stim\">LION</p>", "key_press": -1, "type": "PRES_VIS", "word": "lion", "wordID": 826, "conditions": [24, 1600, "v", 12000], "trial": 4, "serialpos": 7, "trial_type": "single-stim", "trial_index": 152, "time_elapsed": 1095085, "internal_node_id": "0.0-107.0"}}, {"uniqueid": "MTK0003:3NS0A6KXC5FYTT2NRU1ZNMA7NDRZG5", "current_trial": 153, "dateTime": 1508958796393, "trialdata": {"rt": -1, "stimulus": "<p id=\"stim\">DRESSER</p>", "key_press": -1, "type": "PRES_VIS", "word": "dresser", "wordID": 495, "conditions": [24, 1600, "v", 12000], "trial": 4, "serialpos": 8, "trial_type": "single-stim", "trial_index": 153, "time_elapsed": 1097830, "internal_node_id": "0.0-108.0"}}, {"uniqueid": "MTK0003:3NS0A6KXC5FYTT2NRU1ZNMA7NDRZG5", "current_trial": 154, "dateTime": 1508958799105, "trialdata": {"rt": -1, "stimulus": "<p id=\"stim\">KNIFE</p>", "key_press": -1, "type": "PRES_VIS", "word": "knife", "wordID": 784, "conditions": [24, 1600, "v", 12000], "trial": 4, "serialpos": 9, "trial_type": "single-stim", "trial_index": 154, "time_elapsed": 1100542, "internal_node_id": "0.0-109.0"}}, {"uniqueid": "MTK0003:3NS0A6KXC5FYTT2NRU1ZNMA7NDRZG5", "current_trial": 155, "dateTime": 1508958801800, "trialdata": {"rt": -1, "stimulus": "<p id=\"stim\">AIRPLANE</p>", "key_press": -1, "type": "PRES_VIS", "word": "airplane", "wordID": 11, "conditions": [24, 1600, "v", 12000], "trial": 4, "serialpos": 10, "trial_type": "single-stim", "trial_index": 155, "time_elapsed": 1103237, "internal_node_id": "0.0-110.0"}}, {"uniqueid": "MTK0003:3NS0A6KXC5FYTT2NRU1ZNMA7NDRZG5", "current_trial": 156, "dateTime": 1508958804416, "trialdata": {"rt": -1, "stimulus": "<p id=\"stim\">RABBIT</p>", "key_press": -1, "type": "PRES_VIS", "word": "rabbit", "wordID": 1151, "conditions": [24, 1600, "v", 12000], "trial": 4, "serialpos": 11, "trial_type": "single-stim", "trial_index": 156, "time_elapsed": 1105853, "internal_node_id": "0.0-111.0"}}, {"uniqueid": "MTK0003:3NS0A6KXC5FYTT2NRU1ZNMA7NDRZG5", "current_trial": 157, "dateTime": 1508958806855, "trialdata": {"rt": -1, "stimulus": "<p id=\"stim\">LAGOON</p>", "key_press": -1, "type": "PRES_VIS", "word": "lagoon", "wordID": 794, "conditions": [24, 1600, "v", 12000], "trial": 4, "serialpos": 12, "trial_type": "single-stim", "trial_index": 157, "time_elapsed": 1108292, "internal_node_id": "0.0-112.0"}}, {"uniqueid": "MTK0003:3NS0A6KXC5FYTT2NRU1ZNMA7NDRZG5", "current_trial": 158, "dateTime": 1508958809327, "trialdata": {"rt": -1, "stimulus": "<p id=\"stim\">PACKAGE</p>", "key_press": -1, "type": "PRES_VIS", "word": "package", "wordID": 996, "conditions": [24, 1600, "v", 12000], "trial": 4, "serialpos": 13, "trial_type": "single-stim", "trial_index": 158, "time_elapsed": 1110764, "internal_node_id": "0.0-113.0"}}, {"uniqueid": "MTK0003:3NS0A6KXC5FYTT2NRU1ZNMA7NDRZG5", "current_trial": 159, "dateTime": 1508958811973, "trialdata": {"rt": -1, "stimulus": "<p id=\"stim\">GAVEL</p>", "key_press": -1, "type": "PRES_VIS", "word": "gavel", "wordID": 626, "conditions": [24, 1600, "v", 12000], "trial": 4, "serialpos": 14, "trial_type": "single-stim", "trial_index": 159, "time_elapsed": 1113409, "internal_node_id": "0.0-114.0"}}, {"uniqueid": "MTK0003:3NS0A6KXC5FYTT2NRU1ZNMA7NDRZG5", "current_trial": 160, "dateTime": 1508958814661, "trialdata": {"rt": -1, "stimulus": "<p id=\"stim\">FOREHEAD</p>", "key_press": -1, "type": "PRES_VIS", "word": "forehead", "wordID": 591, "conditions": [24, 1600, "v", 12000], "trial": 4, "serialpos": 15, "trial_type": "single-stim", "trial_index": 160, "time_elapsed": 1116097, "internal_node_id": "0.0-115.0"}}, {"uniqueid": "MTK0003:3NS0A6KXC5FYTT2NRU1ZNMA7NDRZG5", "current_trial": 161, "dateTime": 1508958817307, "trialdata": {"rt": -1, "stimulus": "<p id=\"stim\">HEART</p>", "key_press": -1, "type": "PRES_VIS", "word": "heart", "wordID": 696, "conditions": [24, 1600, "v", 12000], "trial": 4, "serialpos": 16, "trial_type": "single-stim", "trial_index": 161, "time_elapsed": 1118744, "internal_node_id": "0.0-116.0"}}, {"uniqueid": "MTK0003:3NS0A6KXC5FYTT2NRU1ZNMA7NDRZG5", "current_trial": 162, "dateTime": 1508958820108, "trialdata": {"rt": -1, "stimulus": "<p id=\"stim\">RELISH</p>", "key_press": -1, "type": "PRES_VIS", "word": "relish", "wordID": 1182, "conditions": [24, 1600, "v", 12000], "trial": 4, "serialpos": 17, "trial_type": "single-stim", "trial_index": 162, "time_elapsed": 1121544, "internal_node_id": "0.0-117.0"}}, {"uniqueid": "MTK0003:3NS0A6KXC5FYTT2NRU1ZNMA7NDRZG5", "current_trial": 163, "dateTime": 1508958822758, "trialdata": {"rt": -1, "stimulus": "<p id=\"stim\">BABY</p>", "key_press": -1, "type": "PRES_VIS", "word": "baby", "wordID": 63, "conditions": [24, 1600, "v", 12000], "trial": 4, "serialpos": 18, "trial_type": "single-stim", "trial_index": 163, "time_elapsed": 1124194, "internal_node_id": "0.0-118.0"}}, {"uniqueid": "MTK0003:3NS0A6KXC5FYTT2NRU1ZNMA7NDRZG5", "current_trial": 164, "dateTime": 1508958825250, "trialdata": {"rt": -1, "stimulus": "<p id=\"stim\">RIVER</p>", "key_press": -1, "type": "PRES_VIS", "word": "river", "wordID": 1193, "conditions": [24, 1600, "v", 12000], "trial": 4, "serialpos": 19, "trial_type": "single-stim", "trial_index": 164, "time_elapsed": 1126686, "internal_node_id": "0.0-119.0"}}, {"uniqueid": "MTK0003:3NS0A6KXC5FYTT2NRU1ZNMA7NDRZG5", "current_trial": 165, "dateTime": 1508958827716, "trialdata": {"rt": -1, "stimulus": "<p id=\"stim\">MISSILE</p>", "key_press": -1, "type": "PRES_VIS", "word": "missile", "wordID": 899, "conditions": [24, 1600, "v", 12000], "trial": 4, "serialpos": 20, "trial_type": "single-stim", "trial_index": 165, "time_elapsed": 1129152, "internal_node_id": "0.0-120.0"}}, {"uniqueid": "MTK0003:3NS0A6KXC5FYTT2NRU1ZNMA7NDRZG5", "current_trial": 166, "dateTime": 1508958830197, "trialdata": {"rt": -1, "stimulus": "<p id=\"stim\">CAFE</p>", "key_press": -1, "type": "PRES_VIS", "word": "cafe", "wordID": 215, "conditions": [24, 1600, "v", 12000], "trial": 4, "serialpos": 21, "trial_type": "single-stim", "trial_index": 166, "time_elapsed": 1131634, "internal_node_id": "0.0-121.0"}}, {"uniqueid": "MTK0003:3NS0A6KXC5FYTT2NRU1ZNMA7NDRZG5", "current_trial": 167, "dateTime": 1508958832641, "trialdata": {"rt": -1, "stimulus": "<p id=\"stim\">DINER</p>", "key_press": -1, "type": "PRES_VIS", "word": "diner", "wordID": 466, "conditions": [24, 1600, "v", 12000], "trial": 4, "serialpos": 22, "trial_type": "single-stim", "trial_index": 167, "time_elapsed": 1134077, "internal_node_id": "0.0-122.0"}}, {"uniqueid": "MTK0003:3NS0A6KXC5FYTT2NRU1ZNMA7NDRZG5", "current_trial": 168, "dateTime": 1508958835256, "trialdata": {"rt": -1, "stimulus": "<p id=\"stim\">PRIMATE</p>", "key_press": -1, "type": "PRES_VIS", "word": "primate", "wordID": 1122, "conditions": [24, 1600, "v", 12000], "trial": 4, "serialpos": 23, "trial_type": "single-stim", "trial_index": 168, "time_elapsed": 1136693, "internal_node_id": "0.0-123.0"}}, {"uniqueid": "MTK0003:3NS0A6KXC5FYTT2NRU1ZNMA7NDRZG5", "current_trial": 169, "dateTime": 1508958837665, "trialdata": {"rt": -1, "stimulus": "", "key_press": -1, "type": "PRE_RECALL_DELAY", "trial_type": "single-stim", "trial_index": 169, "time_elapsed": 1139101, "internal_node_id": "0.0-124.0-0.0"}}, {"uniqueid": "MTK0003:3NS0A6KXC5FYTT2NRU1ZNMA7NDRZG5", "current_trial": 170, "dateTime": 1508958838167, "trialdata": {"rt": -1000, "stimulus": "/static/audio/400Hz.wav", "key_press": -1, "type": "PRE_RECALL_ALERT", "trial_type": "single-audio", "trial_index": 170, "time_elapsed": 1139604, "internal_node_id": "0.0-125.0"}}, {"uniqueid": "MTK0003:3NS0A6KXC5FYTT2NRU1ZNMA7NDRZG5", "current_trial": 171, "dateTime": 1508958898172, "trialdata": {"rt": [1956, 4548, 6149, 8265, 10706], "recwords": ["sword", "brick", "supper", "rabbit", "lagoon"], "type": "FREE_RECALL", "conditions": [24, 1600, "v", 12000], "trial": 4, "trial_type": "free-recall", "trial_index": 171, "time_elapsed": 1199608, "internal_node_id": "0.0-126.0-0.0"}}, {"uniqueid": "MTK0003:3NS0A6KXC5FYTT2NRU1ZNMA7NDRZG5", "current_trial": 172, "dateTime": 1508958901589, "trialdata": {"rt": 1415, "key_press": 32, "type": "INSTRUCTIONS", "trial_type": "text", "trial_index": 172, "time_elapsed": 1203025, "internal_node_id": "0.0-127.0"}}, {"uniqueid": "MTK0003:3NS0A6KXC5FYTT2NRU1ZNMA7NDRZG5", "current_trial": 173, "dateTime": 1508958927594, "trialdata": {"rt": [2088, 3660, 4982, 7240, 8949, 10555, 11835, 13007, 15924, 17335, 18649, 20659, 22881], "responses": ["23", "13", "6", "22", "11", "19", "5", "6", "23", "12", "11", "15", "12"], "num1": [4, 5, 2, 7, 6, 7, 3, 2, 9, 6, 2, 6, 3, 1], "num2": [9, 3, 1, 6, 2, 9, 1, 1, 8, 4, 5, 7, 4, 7], "num3": [8, 5, 3, 9, 3, 3, 1, 3, 5, 2, 4, 2, 5, 7], "type": "DISTRACTOR", "conditions": [24, 1600, "v", 24000], "trial": 5, "trial_type": "math-distractor", "trial_index": 173, "time_elapsed": 1229031, "internal_node_id": "0.0-128.0"}}, {"uniqueid": "MTK0003:3NS0A6KXC5FYTT2NRU1ZNMA7NDRZG5", "current_trial": 174, "dateTime": 1508958930598, "trialdata": {"rt": -1, "stimulus": "<p id=\"stim\">10</p>", "key_press": -1, "trial_type": "single-stim", "trial_index": 174, "time_elapsed": 1232034, "internal_node_id": "0.0-129.0-0.0"}}, {"uniqueid": "MTK0003:3NS0A6KXC5FYTT2NRU1ZNMA7NDRZG5", "current_trial": 175, "dateTime": 1508958931601, "trialdata": {"rt": -1, "stimulus": "<p id=\"stim\">9</p>", "key_press": -1, "trial_type": "single-stim", "trial_index": 175, "time_elapsed": 1233036, "internal_node_id": "0.0-129.0-1.0"}}, {"uniqueid": "MTK0003:3NS0A6KXC5FYTT2NRU1ZNMA7NDRZG5", "current_trial": 176, "dateTime": 1508958932602, "trialdata": {"rt": -1, "stimulus": "<p id=\"stim\">8</p>", "key_press": -1, "trial_type": "single-stim", "trial_index": 176, "time_elapsed": 1234039, "internal_node_id": "0.0-129.0-2.0"}}, {"uniqueid": "MTK0003:3NS0A6KXC5FYTT2NRU1ZNMA7NDRZG5", "current_trial": 177, "dateTime": 1508958933604, "trialdata": {"rt": -1, "stimulus": "<p id=\"stim\">7</p>", "key_press": -1, "trial_type": "single-stim", "trial_index": 177, "time_elapsed": 1235041, "internal_node_id": "0.0-129.0-3.0"}}, {"uniqueid": "MTK0003:3NS0A6KXC5FYTT2NRU1ZNMA7NDRZG5", "current_trial": 178, "dateTime": 1508958934606, "trialdata": {"rt": -1, "stimulus": "<p id=\"stim\">6</p>", "key_press": -1, "trial_type": "single-stim", "trial_index": 178, "time_elapsed": 1236043, "internal_node_id": "0.0-129.0-4.0"}}, {"uniqueid": "MTK0003:3NS0A6KXC5FYTT2NRU1ZNMA7NDRZG5", "current_trial": 179, "dateTime": 1508958935608, "trialdata": {"rt": -1, "stimulus": "<p id=\"stim\">5</p>", "key_press": -1, "trial_type": "single-stim", "trial_index": 179, "time_elapsed": 1237045, "internal_node_id": "0.0-129.0-5.0"}}, {"uniqueid": "MTK0003:3NS0A6KXC5FYTT2NRU1ZNMA7NDRZG5", "current_trial": 180, "dateTime": 1508958936610, "trialdata": {"rt": -1, "stimulus": "<p id=\"stim\">4</p>", "key_press": -1, "trial_type": "single-stim", "trial_index": 180, "time_elapsed": 1238047, "internal_node_id": "0.0-129.0-6.0"}}, {"uniqueid": "MTK0003:3NS0A6KXC5FYTT2NRU1ZNMA7NDRZG5", "current_trial": 181, "dateTime": 1508958937611, "trialdata": {"rt": -1, "stimulus": "<p id=\"stim\">3</p>", "key_press": -1, "trial_type": "single-stim", "trial_index": 181, "time_elapsed": 1239048, "internal_node_id": "0.0-129.0-7.0"}}, {"uniqueid": "MTK0003:3NS0A6KXC5FYTT2NRU1ZNMA7NDRZG5", "current_trial": 182, "dateTime": 1508958938614, "trialdata": {"rt": -1, "stimulus": "<p id=\"stim\">2</p>", "key_press": -1, "trial_type": "single-stim", "trial_index": 182, "time_elapsed": 1240051, "internal_node_id": "0.0-129.0-8.0"}}, {"uniqueid": "MTK0003:3NS0A6KXC5FYTT2NRU1ZNMA7NDRZG5", "current_trial": 183, "dateTime": 1508958939616, "trialdata": {"rt": -1, "stimulus": "<p id=\"stim\">1</p>", "key_press": -1, "trial_type": "single-stim", "trial_index": 183, "time_elapsed": 1241052, "internal_node_id": "0.0-129.0-9.0"}}, {"uniqueid": "MTK0003:3NS0A6KXC5FYTT2NRU1ZNMA7NDRZG5", "current_trial": 184, "dateTime": 1508958941117, "trialdata": {"rt": -1, "stimulus": "<p id=\"stim\">+</p>", "key_press": -1, "type": "FIXATION", "trial_type": "single-stim", "trial_index": 184, "time_elapsed": 1242554, "internal_node_id": "0.0-130.0-0.0"}}, {"uniqueid": "MTK0003:3NS0A6KXC5FYTT2NRU1ZNMA7NDRZG5", "current_trial": 185, "dateTime": 1508958942719, "trialdata": {"rt": -1, "stimulus": "<p id=\"stim\">IGLOO</p>", "key_press": -1, "type": "PRES_VIS", "word": "igloo", "wordID": 733, "conditions": [24, 1600, "v", 24000], "trial": 5, "serialpos": 0, "trial_type": "single-stim", "trial_index": 185, "time_elapsed": 1244156, "internal_node_id": "0.0-131.0"}}, {"uniqueid": "MTK0003:3NS0A6KXC5FYTT2NRU1ZNMA7NDRZG5", "current_trial": 186, "dateTime": 1508958945481, "trialdata": {"rt": -1, "stimulus": "<p id=\"stim\">SCARF</p>", "key_press": -1, "type": "PRES_VIS", "word": "scarf", "wordID": 1245, "conditions": [24, 1600, "v", 24000], "trial": 5, "serialpos": 1, "trial_type": "single-stim", "trial_index": 186, "time_elapsed": 1246917, "internal_node_id": "0.0-132.0"}}, {"uniqueid": "MTK0003:3NS0A6KXC5FYTT2NRU1ZNMA7NDRZG5", "current_trial": 187, "dateTime": 1508958948234, "trialdata": {"rt": -1, "stimulus": "<p id=\"stim\">BLOUSE</p>", "key_press": -1, "type": "PRES_VIS", "word": "blouse", "wordID": 138, "conditions": [24, 1600, "v", 24000], "trial": 5, "serialpos": 2, "trial_type": "single-stim", "trial_index": 187, "time_elapsed": 1249671, "internal_node_id": "0.0-133.0"}}, {"uniqueid": "MTK0003:3NS0A6KXC5FYTT2NRU1ZNMA7NDRZG5", "current_trial": 188, "dateTime": 1508958950955, "trialdata": {"rt": -1, "stimulus": "<p id=\"stim\">STAR</p>", "key_press": -1, "type": "PRES_VIS", "word": "star", "wordID": 1372, "conditions": [24, 1600, "v", 24000], "trial": 5, "serialpos": 3, "trial_type": "single-stim", "trial_index": 188, "time_elapsed": 1252392, "internal_node_id": "0.0-134.0"}}, {"uniqueid": "MTK0003:3NS0A6KXC5FYTT2NRU1ZNMA7NDRZG5", "current_trial": 189, "dateTime": 1508958953382, "trialdata": {"rt": -1, "stimulus": "<p id=\"stim\">WRIST</p>", "key_press": -1, "type": "PRES_VIS", "word": "wrist", "wordID": 1625, "conditions": [24, 1600, "v", 24000], "trial": 5, "serialpos": 4, "trial_type": "single-stim", "trial_index": 189, "time_elapsed": 1254819, "internal_node_id": "0.0-135.0"}}, {"uniqueid": "MTK0003:3NS0A6KXC5FYTT2NRU1ZNMA7NDRZG5", "current_trial": 190, "dateTime": 1508958956027, "trialdata": {"rt": -1, "stimulus": "<p id=\"stim\">CHIPMUNK</p>", "key_press": -1, "type": "PRES_VIS", "word": "chipmunk", "wordID": 303, "conditions": [24, 1600, "v", 24000], "trial": 5, "serialpos": 5, "trial_type": "single-stim", "trial_index": 190, "time_elapsed": 1257463, "internal_node_id": "0.0-136.0"}}, {"uniqueid": "MTK0003:3NS0A6KXC5FYTT2NRU1ZNMA7NDRZG5", "current_trial": 191, "dateTime": 1508958958441, "trialdata": {"rt": -1, "stimulus": "<p id=\"stim\">ROOSTER</p>", "key_press": -1, "type": "PRES_VIS", "word": "rooster", "wordID": 1208, "conditions": [24, 1600, "v", 24000], "trial": 5, "serialpos": 6, "trial_type": "single-stim", "trial_index": 191, "time_elapsed": 1259878, "internal_node_id": "0.0-137.0"}}, {"uniqueid": "MTK0003:3NS0A6KXC5FYTT2NRU1ZNMA7NDRZG5", "current_trial": 192, "dateTime": 1508958961067, "trialdata": {"rt": -1, "stimulus": "<p id=\"stim\">DOLPHIN</p>", "key_press": -1, "type": "PRES_VIS", "word": "dolphin", "wordID": 482, "conditions": [24, 1600, "v", 24000], "trial": 5, "serialpos": 7, "trial_type": "single-stim", "trial_index": 192, "time_elapsed": 1262504, "internal_node_id": "0.0-138.0"}}, {"uniqueid": "MTK0003:3NS0A6KXC5FYTT2NRU1ZNMA7NDRZG5", "current_trial": 193, "dateTime": 1508958963559, "trialdata": {"rt": -1, "stimulus": "<p id=\"stim\">SOFTBALL</p>", "key_press": -1, "type": "PRES_VIS", "word": "softball", "wordID": 1342, "conditions": [24, 1600, "v", 24000], "trial": 5, "serialpos": 8, "trial_type": "single-stim", "trial_index": 193, "time_elapsed": 1264996, "internal_node_id": "0.0-139.0"}}, {"uniqueid": "MTK0003:3NS0A6KXC5FYTT2NRU1ZNMA7NDRZG5", "current_trial": 194, "dateTime": 1508958965963, "trialdata": {"rt": -1, "stimulus": "<p id=\"stim\">BULLET</p>", "key_press": -1, "type": "PRES_VIS", "word": "bullet", "wordID": 193, "conditions": [24, 1600, "v", 24000], "trial": 5, "serialpos": 9, "trial_type": "single-stim", "trial_index": 194, "time_elapsed": 1267400, "internal_node_id": "0.0-140.0"}}, {"uniqueid": "MTK0003:3NS0A6KXC5FYTT2NRU1ZNMA7NDRZG5", "current_trial": 195, "dateTime": 1508958968618, "trialdata": {"rt": -1, "stimulus": "<p id=\"stim\">CLOCK</p>", "key_press": -1, "type": "PRES_VIS", "word": "clock", "wordID": 324, "conditions": [24, 1600, "v", 24000], "trial": 5, "serialpos": 10, "trial_type": "single-stim", "trial_index": 195, "time_elapsed": 1270055, "internal_node_id": "0.0-141.0"}}, {"uniqueid": "MTK0003:3NS0A6KXC5FYTT2NRU1ZNMA7NDRZG5", "current_trial": 196, "dateTime": 1508958971080, "trialdata": {"rt": -1, "stimulus": "<p id=\"stim\">SHOULDER</p>", "key_press": -1, "type": "PRES_VIS", "word": "shoulder", "wordID": 1293, "conditions": [24, 1600, "v", 24000], "trial": 5, "serialpos": 11, "trial_type": "single-stim", "trial_index": 196, "time_elapsed": 1272517, "internal_node_id": "0.0-142.0"}}, {"uniqueid": "MTK0003:3NS0A6KXC5FYTT2NRU1ZNMA7NDRZG5", "current_trial": 197, "dateTime": 1508958973592, "trialdata": {"rt": -1, "stimulus": "<p id=\"stim\">GRAVEL</p>", "key_press": -1, "type": "PRES_VIS", "word": "gravel", "wordID": 658, "conditions": [24, 1600, "v", 24000], "trial": 5, "serialpos": 12, "trial_type": "single-stim", "trial_index": 197, "time_elapsed": 1275029, "internal_node_id": "0.0-143.0"}}, {"uniqueid": "MTK0003:3NS0A6KXC5FYTT2NRU1ZNMA7NDRZG5", "current_trial": 198, "dateTime": 1508958976347, "trialdata": {"rt": -1, "stimulus": "<p id=\"stim\">STREAM</p>", "key_press": -1, "type": "PRES_VIS", "word": "stream", "wordID": 1391, "conditions": [24, 1600, "v", 24000], "trial": 5, "serialpos": 13, "trial_type": "single-stim", "trial_index": 198, "time_elapsed": 1277784, "internal_node_id": "0.0-144.0"}}, {"uniqueid": "MTK0003:3NS0A6KXC5FYTT2NRU1ZNMA7NDRZG5", "current_trial": 199, "dateTime": 1508958979089, "trialdata": {"rt": -1, "stimulus": "<p id=\"stim\">CRAB</p>", "key_press": -1, "type": "PRES_VIS", "word": "crab", "wordID": 396, "conditions": [24, 1600, "v", 24000], "trial": 5, "serialpos": 14, "trial_type": "single-stim", "trial_index": 199, "time_elapsed": 1280526, "internal_node_id": "0.0-145.0"}}, {"uniqueid": "MTK0003:3NS0A6KXC5FYTT2NRU1ZNMA7NDRZG5", "current_trial": 200, "dateTime": 1508958981559, "trialdata": {"rt": -1, "stimulus": "<p id=\"stim\">LAVA</p>", "key_press": -1, "type": "PRES_VIS", "word": "lava", "wordID": 803, "conditions": [24, 1600, "v", 24000], "trial": 5, "serialpos": 15, "trial_type": "single-stim", "trial_index": 200, "time_elapsed": 1282996, "internal_node_id": "0.0-146.0"}}, {"uniqueid": "MTK0003:3NS0A6KXC5FYTT2NRU1ZNMA7NDRZG5", "current_trial": 201, "dateTime": 1508958984333, "trialdata": {"rt": -1, "stimulus": "<p id=\"stim\">FOX</p>", "key_press": -1, "type": "PRES_VIS", "word": "fox", "wordID": 597, "conditions": [24, 1600, "v", 24000], "trial": 5, "serialpos": 16, "trial_type": "single-stim", "trial_index": 201, "time_elapsed": 1285770, "internal_node_id": "0.0-147.0"}}, {"uniqueid": "MTK0003:3NS0A6KXC5FYTT2NRU1ZNMA7NDRZG5", "current_trial": 202, "dateTime": 1508958987065, "trialdata": {"rt": -1, "stimulus": "<p id=\"stim\">JELLO</p>", "key_press": -1, "type": "PRES_VIS", "word": "jello", "wordID": 753, "conditions": [24, 1600, "v", 24000], "trial": 5, "serialpos": 17, "trial_type": "single-stim", "trial_index": 202, "time_elapsed": 1288502, "internal_node_id": "0.0-148.0"}}, {"uniqueid": "MTK0003:3NS0A6KXC5FYTT2NRU1ZNMA7NDRZG5", "current_trial": 203, "dateTime": 1508958989667, "trialdata": {"rt": -1, "stimulus": "<p id=\"stim\">COCKTAIL</p>", "key_press": -1, "type": "PRES_VIS", "word": "cocktail", "wordID": 337, "conditions": [24, 1600, "v", 24000], "trial": 5, "serialpos": 18, "trial_type": "single-stim", "trial_index": 203, "time_elapsed": 1291104, "internal_node_id": "0.0-149.0"}}, {"uniqueid": "MTK0003:3NS0A6KXC5FYTT2NRU1ZNMA7NDRZG5", "current_trial": 204, "dateTime": 1508958992469, "trialdata": {"rt": -1, "stimulus": "<p id=\"stim\">LIZARD</p>", "key_press": -1, "type": "PRES_VIS", "word": "lizard", "wordID": 833, "conditions": [24, 1600, "v", 24000], "trial": 5, "serialpos": 19, "trial_type": "single-stim", "trial_index": 204, "time_elapsed": 1293905, "internal_node_id": "0.0-150.0"}}, {"uniqueid": "MTK0003:3NS0A6KXC5FYTT2NRU1ZNMA7NDRZG5", "current_trial": 205, "dateTime": 1508958995246, "trialdata": {"rt": -1, "stimulus": "<p id=\"stim\">PICNIC</p>", "key_press": -1, "type": "PRES_VIS", "word": "picnic", "wordID": 1059, "conditions": [24, 1600, "v", 24000], "trial": 5, "serialpos": 20, "trial_type": "single-stim", "trial_index": 205, "time_elapsed": 1296683, "internal_node_id": "0.0-151.0"}}, {"uniqueid": "MTK0003:3NS0A6KXC5FYTT2NRU1ZNMA7NDRZG5", "current_trial": 206, "dateTime": 1508958997738, "trialdata": {"rt": -1, "stimulus": "<p id=\"stim\">SWITCH</p>", "key_press": -1, "type": "PRES_VIS", "word": "switch", "wordID": 1421, "conditions": [24, 1600, "v", 24000], "trial": 5, "serialpos": 21, "trial_type": "single-stim", "trial_index": 206, "time_elapsed": 1299175, "internal_node_id": "0.0-152.0"}}, {"uniqueid": "MTK0003:3NS0A6KXC5FYTT2NRU1ZNMA7NDRZG5", "current_trial": 207, "dateTime": 1508959000337, "trialdata": {"rt": -1, "stimulus": "<p id=\"stim\">FRANCE</p>", "key_press": -1, "type": "PRES_VIS", "word": "france", "wordID": 600, "conditions": [24, 1600, "v", 24000], "trial": 5, "serialpos": 22, "trial_type": "single-stim", "trial_index": 207, "time_elapsed": 1301774, "internal_node_id": "0.0-153.0"}}, {"uniqueid": "MTK0003:3NS0A6KXC5FYTT2NRU1ZNMA7NDRZG5", "current_trial": 208, "dateTime": 1508959002743, "trialdata": {"rt": -1, "stimulus": "<p id=\"stim\">LONDON</p>", "key_press": -1, "type": "PRES_VIS", "word": "london", "wordID": 842, "conditions": [24, 1600, "v", 24000], "trial": 5, "serialpos": 23, "trial_type": "single-stim", "trial_index": 208, "time_elapsed": 1304179, "internal_node_id": "0.0-154.0"}}, {"uniqueid": "MTK0003:3NS0A6KXC5FYTT2NRU1ZNMA7NDRZG5", "current_trial": 209, "dateTime": 1508959004876, "trialdata": {"rt": -1, "stimulus": "", "key_press": -1, "type": "PRE_RECALL_DELAY", "trial_type": "single-stim", "trial_index": 209, "time_elapsed": 1306313, "internal_node_id": "0.0-155.0-0.0"}}, {"uniqueid": "MTK0003:3NS0A6KXC5FYTT2NRU1ZNMA7NDRZG5", "current_trial": 210, "dateTime": 1508959005435, "trialdata": {"rt": -1000, "stimulus": "/static/audio/400Hz.wav", "key_press": -1, "type": "PRE_RECALL_ALERT", "trial_type": "single-audio", "trial_index": 210, "time_elapsed": 1306872, "internal_node_id": "0.0-156.0"}}, {"uniqueid": "MTK0003:3NS0A6KXC5FYTT2NRU1ZNMA7NDRZG5", "current_trial": 211, "dateTime": 1508959065437, "trialdata": {"rt": [3371, 5283, 6579], "recwords": ["london", "igloo", "scarf"], "type": "FREE_RECALL", "conditions": [24, 1600, "v", 24000], "trial": 5, "trial_type": "free-recall", "trial_index": 211, "time_elapsed": 1366874, "internal_node_id": "0.0-157.0-0.0"}}, {"uniqueid": "MTK0003:3NS0A6KXC5FYTT2NRU1ZNMA7NDRZG5", "current_trial": 212, "dateTime": 1508959070940, "trialdata": {"rt": 3501, "key_press": 32, "type": "INSTRUCTIONS", "trial_type": "text", "trial_index": 212, "time_elapsed": 1372377, "internal_node_id": "0.0-158.0"}}, {"uniqueid": "MTK0003:3NS0A6KXC5FYTT2NRU1ZNMA7NDRZG5", "current_trial": 213, "dateTime": 1508959084944, "trialdata": {"rt": [2792, 4511, 8329, 10897], "responses": ["11", "10", "19", "17"], "num1": [1, 1, 3, 9, 2], "num2": [2, 4, 9, 2, 9], "num3": [8, 5, 7, 6, 9], "type": "DISTRACTOR", "conditions": [24, 800, "v", 12000], "trial": 6, "trial_type": "math-distractor", "trial_index": 213, "time_elapsed": 1386381, "internal_node_id": "0.0-159.0"}}, {"uniqueid": "MTK0003:3NS0A6KXC5FYTT2NRU1ZNMA7NDRZG5", "current_trial": 214, "dateTime": 1508959087948, "trialdata": {"rt": -1, "stimulus": "<p id=\"stim\">10</p>", "key_press": -1, "trial_type": "single-stim", "trial_index": 214, "time_elapsed": 1389384, "internal_node_id": "0.0-160.0-0.0"}}, {"uniqueid": "MTK0003:3NS0A6KXC5FYTT2NRU1ZNMA7NDRZG5", "current_trial": 215, "dateTime": 1508959088950, "trialdata": {"rt": -1, "stimulus": "<p id=\"stim\">9</p>", "key_press": -1, "trial_type": "single-stim", "trial_index": 215, "time_elapsed": 1390387, "internal_node_id": "0.0-160.0-1.0"}}, {"uniqueid": "MTK0003:3NS0A6KXC5FYTT2NRU1ZNMA7NDRZG5", "current_trial": 216, "dateTime": 1508959089952, "trialdata": {"rt": -1, "stimulus": "<p id=\"stim\">8</p>", "key_press": -1, "trial_type": "single-stim", "trial_index": 216, "time_elapsed": 1391389, "internal_node_id": "0.0-160.0-2.0"}}, {"uniqueid": "MTK0003:3NS0A6KXC5FYTT2NRU1ZNMA7NDRZG5", "current_trial": 217, "dateTime": 1508959090954, "trialdata": {"rt": -1, "stimulus": "<p id=\"stim\">7</p>", "key_press": -1, "trial_type": "single-stim", "trial_index": 217, "time_elapsed": 1392390, "internal_node_id": "0.0-160.0-3.0"}}, {"uniqueid": "MTK0003:3NS0A6KXC5FYTT2NRU1ZNMA7NDRZG5", "current_trial": 218, "dateTime": 1508959091955, "trialdata": {"rt": -1, "stimulus": "<p id=\"stim\">6</p>", "key_press": -1, "trial_type": "single-stim", "trial_index": 218, "time_elapsed": 1393392, "internal_node_id": "0.0-160.0-4.0"}}, {"uniqueid": "MTK0003:3NS0A6KXC5FYTT2NRU1ZNMA7NDRZG5", "current_trial": 219, "dateTime": 1508959092956, "trialdata": {"rt": -1, "stimulus": "<p id=\"stim\">5</p>", "key_press": -1, "trial_type": "single-stim", "trial_index": 219, "time_elapsed": 1394393, "internal_node_id": "0.0-160.0-5.0"}}, {"uniqueid": "MTK0003:3NS0A6KXC5FYTT2NRU1ZNMA7NDRZG5", "current_trial": 220, "dateTime": 1508959093958, "trialdata": {"rt": -1, "stimulus": "<p id=\"stim\">4</p>", "key_press": -1, "trial_type": "single-stim", "trial_index": 220, "time_elapsed": 1395395, "internal_node_id": "0.0-160.0-6.0"}}, {"uniqueid": "MTK0003:3NS0A6KXC5FYTT2NRU1ZNMA7NDRZG5", "current_trial": 221, "dateTime": 1508959094959, "trialdata": {"rt": -1, "stimulus": "<p id=\"stim\">3</p>", "key_press": -1, "trial_type": "single-stim", "trial_index": 221, "time_elapsed": 1396396, "internal_node_id": "0.0-160.0-7.0"}}, {"uniqueid": "MTK0003:3NS0A6KXC5FYTT2NRU1ZNMA7NDRZG5", "current_trial": 222, "dateTime": 1508959095961, "trialdata": {"rt": -1, "stimulus": "<p id=\"stim\">2</p>", "key_press": -1, "trial_type": "single-stim", "trial_index": 222, "time_elapsed": 1397397, "internal_node_id": "0.0-160.0-8.0"}}, {"uniqueid": "MTK0003:3NS0A6KXC5FYTT2NRU1ZNMA7NDRZG5", "current_trial": 223, "dateTime": 1508959096961, "trialdata": {"rt": -1, "stimulus": "<p id=\"stim\">1</p>", "key_press": -1, "trial_type": "single-stim", "trial_index": 223, "time_elapsed": 1398398, "internal_node_id": "0.0-160.0-9.0"}}, {"uniqueid": "MTK0003:3NS0A6KXC5FYTT2NRU1ZNMA7NDRZG5", "current_trial": 224, "dateTime": 1508959098464, "trialdata": {"rt": -1, "stimulus": "<p id=\"stim\">+</p>", "key_press": -1, "type": "FIXATION", "trial_type": "single-stim", "trial_index": 224, "time_elapsed": 1399900, "internal_node_id": "0.0-161.0-0.0"}}, {"uniqueid": "MTK0003:3NS0A6KXC5FYTT2NRU1ZNMA7NDRZG5", "current_trial": 225, "dateTime": 1508959099265, "trialdata": {"rt": -1, "stimulus": "<p id=\"stim\">PUPPY</p>", "key_press": -1, "type": "PRES_VIS", "word": "puppy", "wordID": 1143, "conditions": [24, 800, "v", 12000], "trial": 6, "serialpos": 0, "trial_type": "single-stim", "trial_index": 225, "time_elapsed": 1400702, "internal_node_id": "0.0-162.0"}}, {"uniqueid": "MTK0003:3NS0A6KXC5FYTT2NRU1ZNMA7NDRZG5", "current_trial": 226, "dateTime": 1508959101174, "trialdata": {"rt": -1, "stimulus": "<p id=\"stim\">WINDOW</p>", "key_press": -1, "type": "PRES_VIS", "word": "window", "wordID": 1610, "conditions": [24, 800, "v", 12000], "trial": 6, "serialpos": 1, "trial_type": "single-stim", "trial_index": 226, "time_elapsed": 1402610, "internal_node_id": "0.0-163.0"}}, {"uniqueid": "MTK0003:3NS0A6KXC5FYTT2NRU1ZNMA7NDRZG5", "current_trial": 227, "dateTime": 1508959102891, "trialdata": {"rt": -1, "stimulus": "<p id=\"stim\">MAILBOX</p>", "key_press": -1, "type": "PRES_VIS", "word": "mailbox", "wordID": 856, "conditions": [24, 800, "v", 12000], "trial": 6, "serialpos": 2, "trial_type": "single-stim", "trial_index": 227, "time_elapsed": 1404328, "internal_node_id": "0.0-164.0"}}, {"uniqueid": "MTK0003:3NS0A6KXC5FYTT2NRU1ZNMA7NDRZG5", "current_trial": 228, "dateTime": 1508959104512, "trialdata": {"rt": -1, "stimulus": "<p id=\"stim\">FOOT</p>", "key_press": -1, "type": "PRES_VIS", "word": "foot", "wordID": 589, "conditions": [24, 800, "v", 12000], "trial": 6, "serialpos": 3, "trial_type": "single-stim", "trial_index": 228, "time_elapsed": 1405949, "internal_node_id": "0.0-165.0"}}, {"uniqueid": "MTK0003:3NS0A6KXC5FYTT2NRU1ZNMA7NDRZG5", "current_trial": 229, "dateTime": 1508959106304, "trialdata": {"rt": -1, "stimulus": "<p id=\"stim\">THREAD</p>", "key_press": -1, "type": "PRES_VIS", "word": "thread", "wordID": 1459, "conditions": [24, 800, "v", 12000], "trial": 6, "serialpos": 4, "trial_type": "single-stim", "trial_index": 229, "time_elapsed": 1407740, "internal_node_id": "0.0-166.0"}}, {"uniqueid": "MTK0003:3NS0A6KXC5FYTT2NRU1ZNMA7NDRZG5", "current_trial": 230, "dateTime": 1508959107922, "trialdata": {"rt": -1, "stimulus": "<p id=\"stim\">BRANDY</p>", "key_press": -1, "type": "PRES_VIS", "word": "brandy", "wordID": 168, "conditions": [24, 800, "v", 12000], "trial": 6, "serialpos": 5, "trial_type": "single-stim", "trial_index": 230, "time_elapsed": 1409359, "internal_node_id": "0.0-167.0"}}, {"uniqueid": "MTK0003:3NS0A6KXC5FYTT2NRU1ZNMA7NDRZG5", "current_trial": 231, "dateTime": 1508959109587, "trialdata": {"rt": -1, "stimulus": "<p id=\"stim\">CAMEL</p>", "key_press": -1, "type": "PRES_VIS", "word": "camel", "wordID": 222, "conditions": [24, 800, "v", 12000], "trial": 6, "serialpos": 6, "trial_type": "single-stim", "trial_index": 231, "time_elapsed": 1411024, "internal_node_id": "0.0-168.0"}}, {"uniqueid": "MTK0003:3NS0A6KXC5FYTT2NRU1ZNMA7NDRZG5", "current_trial": 232, "dateTime": 1508959111485, "trialdata": {"rt": -1, "stimulus": "<p id=\"stim\">BUNNY</p>", "key_press": -1, "type": "PRES_VIS", "word": "bunny", "wordID": 197, "conditions": [24, 800, "v", 12000], "trial": 6, "serialpos": 7, "trial_type": "single-stim", "trial_index": 232, "time_elapsed": 1412922, "internal_node_id": "0.0-169.0"}}, {"uniqueid": "MTK0003:3NS0A6KXC5FYTT2NRU1ZNMA7NDRZG5", "current_trial": 233, "dateTime": 1508959113194, "trialdata": {"rt": -1, "stimulus": "<p id=\"stim\">SADDLE</p>", "key_press": -1, "type": "PRES_VIS", "word": "saddle", "wordID": 1220, "conditions": [24, 800, "v", 12000], "trial": 6, "serialpos": 8, "trial_type": "single-stim", "trial_index": 233, "time_elapsed": 1414631, "internal_node_id": "0.0-170.0"}}, {"uniqueid": "MTK0003:3NS0A6KXC5FYTT2NRU1ZNMA7NDRZG5", "current_trial": 234, "dateTime": 1508959114809, "trialdata": {"rt": -1, "stimulus": "<p id=\"stim\">TURKEY</p>", "key_press": -1, "type": "PRES_VIS", "word": "turkey", "wordID": 1519, "conditions": [24, 800, "v", 12000], "trial": 6, "serialpos": 9, "trial_type": "single-stim", "trial_index": 234, "time_elapsed": 1416245, "internal_node_id": "0.0-171.0"}}, {"uniqueid": "MTK0003:3NS0A6KXC5FYTT2NRU1ZNMA7NDRZG5", "current_trial": 235, "dateTime": 1508959116766, "trialdata": {"rt": -1, "stimulus": "<p id=\"stim\">PORK</p>", "key_press": -1, "type": "PRES_VIS", "word": "pork", "wordID": 1107, "conditions": [24, 800, "v", 12000], "trial": 6, "serialpos": 10, "trial_type": "single-stim", "trial_index": 235, "time_elapsed": 1418203, "internal_node_id": "0.0-172.0"}}, {"uniqueid": "MTK0003:3NS0A6KXC5FYTT2NRU1ZNMA7NDRZG5", "current_trial": 236, "dateTime": 1508959118690, "trialdata": {"rt": -1, "stimulus": "<p id=\"stim\">CUPBOARD</p>", "key_press": -1, "type": "PRES_VIS", "word": "cupboard", "wordID": 424, "conditions": [24, 800, "v", 12000], "trial": 6, "serialpos": 11, "trial_type": "single-stim", "trial_index": 236, "time_elapsed": 1420127, "internal_node_id": "0.0-173.0"}}, {"uniqueid": "MTK0003:3NS0A6KXC5FYTT2NRU1ZNMA7NDRZG5", "current_trial": 237, "dateTime": 1508959120384, "trialdata": {"rt": -1, "stimulus": "<p id=\"stim\">ICING</p>", "key_press": -1, "type": "PRES_VIS", "word": "icing", "wordID": 731, "conditions": [24, 800, "v", 12000], "trial": 6, "serialpos": 12, "trial_type": "single-stim", "trial_index": 237, "time_elapsed": 1421820, "internal_node_id": "0.0-174.0"}}, {"uniqueid": "MTK0003:3NS0A6KXC5FYTT2NRU1ZNMA7NDRZG5", "current_trial": 238, "dateTime": 1508959122318, "trialdata": {"rt": -1, "stimulus": "<p id=\"stim\">DAUGHTER</p>", "key_press": -1, "type": "PRES_VIS", "word": "daughter", "wordID": 441, "conditions": [24, 800, "v", 12000], "trial": 6, "serialpos": 13, "trial_type": "single-stim", "trial_index": 238, "time_elapsed": 1423755, "internal_node_id": "0.0-175.0"}}, {"uniqueid": "MTK0003:3NS0A6KXC5FYTT2NRU1ZNMA7NDRZG5", "current_trial": 239, "dateTime": 1508959124021, "trialdata": {"rt": -1, "stimulus": "<p id=\"stim\">SIBLING</p>", "key_press": -1, "type": "PRES_VIS", "word": "sibling", "wordID": 1300, "conditions": [24, 800, "v", 12000], "trial": 6, "serialpos": 14, "trial_type": "single-stim", "trial_index": 239, "time_elapsed": 1425458, "internal_node_id": "0.0-176.0"}}, {"uniqueid": "MTK0003:3NS0A6KXC5FYTT2NRU1ZNMA7NDRZG5", "current_trial": 240, "dateTime": 1508959125896, "trialdata": {"rt": -1, "stimulus": "<p id=\"stim\">PECAN</p>", "key_press": -1, "type": "PRES_VIS", "word": "pecan", "wordID": 1035, "conditions": [24, 800, "v", 12000], "trial": 6, "serialpos": 15, "trial_type": "single-stim", "trial_index": 240, "time_elapsed": 1427333, "internal_node_id": "0.0-177.0"}}, {"uniqueid": "MTK0003:3NS0A6KXC5FYTT2NRU1ZNMA7NDRZG5", "current_trial": 241, "dateTime": 1508959127766, "trialdata": {"rt": -1, "stimulus": "<p id=\"stim\">PEANUT</p>", "key_press": -1, "type": "PRES_VIS", "word": "peanut", "wordID": 1031, "conditions": [24, 800, "v", 12000], "trial": 6, "serialpos": 16, "trial_type": "single-stim", "trial_index": 241, "time_elapsed": 1429203, "internal_node_id": "0.0-178.0"}}, {"uniqueid": "MTK0003:3NS0A6KXC5FYTT2NRU1ZNMA7NDRZG5", "current_trial": 242, "dateTime": 1508959129687, "trialdata": {"rt": -1, "stimulus": "<p id=\"stim\">MARS</p>", "key_press": -1, "type": "PRES_VIS", "word": "mars", "wordID": 872, "conditions": [24, 800, "v", 12000], "trial": 6, "serialpos": 17, "trial_type": "single-stim", "trial_index": 242, "time_elapsed": 1431123, "internal_node_id": "0.0-179.0"}}, {"uniqueid": "MTK0003:3NS0A6KXC5FYTT2NRU1ZNMA7NDRZG5", "current_trial": 243, "dateTime": 1508959131308, "trialdata": {"rt": -1, "stimulus": "<p id=\"stim\">DRAWING</p>", "key_press": -1, "type": "PRES_VIS", "word": "drawing", "wordID": 493, "conditions": [24, 800, "v", 12000], "trial": 6, "serialpos": 18, "trial_type": "single-stim", "trial_index": 243, "time_elapsed": 1432745, "internal_node_id": "0.0-180.0"}}, {"uniqueid": "MTK0003:3NS0A6KXC5FYTT2NRU1ZNMA7NDRZG5", "current_trial": 244, "dateTime": 1508959133128, "trialdata": {"rt": -1, "stimulus": "<p id=\"stim\">CHILD</p>", "key_press": -1, "type": "PRES_VIS", "word": "child", "wordID": 298, "conditions": [24, 800, "v", 12000], "trial": 6, "serialpos": 19, "trial_type": "single-stim", "trial_index": 244, "time_elapsed": 1434565, "internal_node_id": "0.0-181.0"}}, {"uniqueid": "MTK0003:3NS0A6KXC5FYTT2NRU1ZNMA7NDRZG5", "current_trial": 245, "dateTime": 1508959135113, "trialdata": {"rt": -1, "stimulus": "<p id=\"stim\">PARENT</p>", "key_press": -1, "type": "PRES_VIS", "word": "parent", "wordID": 1012, "conditions": [24, 800, "v", 12000], "trial": 6, "serialpos": 20, "trial_type": "single-stim", "trial_index": 245, "time_elapsed": 1436550, "internal_node_id": "0.0-182.0"}}, {"uniqueid": "MTK0003:3NS0A6KXC5FYTT2NRU1ZNMA7NDRZG5", "current_trial": 246, "dateTime": 1508959136925, "trialdata": {"rt": -1, "stimulus": "<p id=\"stim\">BROTHER</p>", "key_press": -1, "type": "PRES_VIS", "word": "brother", "wordID": 178, "conditions": [24, 800, "v", 12000], "trial": 6, "serialpos": 21, "trial_type": "single-stim", "trial_index": 246, "time_elapsed": 1438362, "internal_node_id": "0.0-183.0"}}, {"uniqueid": "MTK0003:3NS0A6KXC5FYTT2NRU1ZNMA7NDRZG5", "current_trial": 247, "dateTime": 1508959138764, "trialdata": {"rt": -1, "stimulus": "<p id=\"stim\">ONION</p>", "key_press": -1, "type": "PRES_VIS", "word": "onion", "wordID": 976, "conditions": [24, 800, "v", 12000], "trial": 6, "serialpos": 22, "trial_type": "single-stim", "trial_index": 247, "time_elapsed": 1440201, "internal_node_id": "0.0-184.0"}}, {"uniqueid": "MTK0003:3NS0A6KXC5FYTT2NRU1ZNMA7NDRZG5", "current_trial": 248, "dateTime": 1508959140642, "trialdata": {"rt": -1, "stimulus": "<p id=\"stim\">FRAME</p>", "key_press": -1, "type": "PRES_VIS", "word": "frame", "wordID": 599, "conditions": [24, 800, "v", 12000], "trial": 6, "serialpos": 23, "trial_type": "single-stim", "trial_index": 248, "time_elapsed": 1442078, "internal_node_id": "0.0-185.0"}}, {"uniqueid": "MTK0003:3NS0A6KXC5FYTT2NRU1ZNMA7NDRZG5", "current_trial": 249, "dateTime": 1508959142961, "trialdata": {"rt": -1, "stimulus": "", "key_press": -1, "type": "PRE_RECALL_DELAY", "trial_type": "single-stim", "trial_index": 249, "time_elapsed": 1444397, "internal_node_id": "0.0-186.0-0.0"}}, {"uniqueid": "MTK0003:3NS0A6KXC5FYTT2NRU1ZNMA7NDRZG5", "current_trial": 250, "dateTime": 1508959143463, "trialdata": {"rt": -1000, "stimulus": "/static/audio/400Hz.wav", "key_press": -1, "type": "PRE_RECALL_ALERT", "trial_type": "single-audio", "trial_index": 250, "time_elapsed": 1444900, "internal_node_id": "0.0-187.0"}}, {"uniqueid": "MTK0003:3NS0A6KXC5FYTT2NRU1ZNMA7NDRZG5", "current_trial": 251, "dateTime": 1508959203466, "trialdata": {"rt": [3331, 6304, 7804, 9627], "recwords": ["puppy", "window", "foot", "thread"], "type": "FREE_RECALL", "conditions": [24, 800, "v", 12000], "trial": 6, "trial_type": "free-recall", "trial_index": 251, "time_elapsed": 1504903, "internal_node_id": "0.0-188.0-0.0"}}, {"uniqueid": "MTK0003:3NS0A6KXC5FYTT2NRU1ZNMA7NDRZG5", "current_trial": 252, "dateTime": 1508959208713, "trialdata": {"rt": 3246, "key_press": 32, "type": "INSTRUCTIONS", "trial_type": "text", "trial_index": 252, "time_elapsed": 1510150, "internal_node_id": "0.0-189.0"}}, {"uniqueid": "MTK0003:3NS0A6KXC5FYTT2NRU1ZNMA7NDRZG5", "current_trial": 253, "dateTime": 1508959234719, "trialdata": {"rt": [3932, 6381, 9030, 11289, 14353, 16719, 19089, 22090], "responses": ["14", "14", "21", "16", "11", "16", "15", "14"], "num1": [6, 4, 7, 6, 4, 9, 8, 2, 5], "num2": [1, 1, 5, 7, 5, 2, 3, 9, 7], "num3": [7, 9, 9, 3, 2, 5, 4, 3, 2], "type": "DISTRACTOR", "conditions": [24, 1600, "a", 24000], "trial": 7, "trial_type": "math-distractor", "trial_index": 253, "time_elapsed": 1536156, "internal_node_id": "0.0-190.0"}}, {"uniqueid": "MTK0003:3NS0A6KXC5FYTT2NRU1ZNMA7NDRZG5", "current_trial": 254, "dateTime": 1508959237721, "trialdata": {"rt": -1, "stimulus": "<p id=\"stim\">10</p>", "key_press": -1, "trial_type": "single-stim", "trial_index": 254, "time_elapsed": 1539158, "internal_node_id": "0.0-191.0-0.0"}}, {"uniqueid": "MTK0003:3NS0A6KXC5FYTT2NRU1ZNMA7NDRZG5", "current_trial": 255, "dateTime": 1508959238723, "trialdata": {"rt": -1, "stimulus": "<p id=\"stim\">9</p>", "key_press": -1, "trial_type": "single-stim", "trial_index": 255, "time_elapsed": 1540159, "internal_node_id": "0.0-191.0-1.0"}}, {"uniqueid": "MTK0003:3NS0A6KXC5FYTT2NRU1ZNMA7NDRZG5", "current_trial": 256, "dateTime": 1508959239725, "trialdata": {"rt": -1, "stimulus": "<p id=\"stim\">8</p>", "key_press": -1, "trial_type": "single-stim", "trial_index": 256, "time_elapsed": 1541161, "internal_node_id": "0.0-191.0-2.0"}}, {"uniqueid": "MTK0003:3NS0A6KXC5FYTT2NRU1ZNMA7NDRZG5", "current_trial": 257, "dateTime": 1508959240726, "trialdata": {"rt": -1, "stimulus": "<p id=\"stim\">7</p>", "key_press": -1, "trial_type": "single-stim", "trial_index": 257, "time_elapsed": 1542163, "internal_node_id": "0.0-191.0-3.0"}}, {"uniqueid": "MTK0003:3NS0A6KXC5FYTT2NRU1ZNMA7NDRZG5", "current_trial": 258, "dateTime": 1508959241728, "trialdata": {"rt": -1, "stimulus": "<p id=\"stim\">6</p>", "key_press": -1, "trial_type": "single-stim", "trial_index": 258, "time_elapsed": 1543164, "internal_node_id": "0.0-191.0-4.0"}}, {"uniqueid": "MTK0003:3NS0A6KXC5FYTT2NRU1ZNMA7NDRZG5", "current_trial": 259, "dateTime": 1508959242733, "trialdata": {"rt": -1, "stimulus": "<p id=\"stim\">5</p>", "key_press": -1, "trial_type": "single-stim", "trial_index": 259, "time_elapsed": 1544167, "internal_node_id": "0.0-191.0-5.0"}}, {"uniqueid": "MTK0003:3NS0A6KXC5FYTT2NRU1ZNMA7NDRZG5", "current_trial": 260, "dateTime": 1508959243734, "trialdata": {"rt": -1, "stimulus": "<p id=\"stim\">4</p>", "key_press": -1, "trial_type": "single-stim", "trial_index": 260, "time_elapsed": 1545171, "internal_node_id": "0.0-191.0-6.0"}}, {"uniqueid": "MTK0003:3NS0A6KXC5FYTT2NRU1ZNMA7NDRZG5", "current_trial": 261, "dateTime": 1508959244736, "trialdata": {"rt": -1, "stimulus": "<p id=\"stim\">3</p>", "key_press": -1, "trial_type": "single-stim", "trial_index": 261, "time_elapsed": 1546173, "internal_node_id": "0.0-191.0-7.0"}}, {"uniqueid": "MTK0003:3NS0A6KXC5FYTT2NRU1ZNMA7NDRZG5", "current_trial": 262, "dateTime": 1508959245737, "trialdata": {"rt": -1, "stimulus": "<p id=\"stim\">2</p>", "key_press": -1, "trial_type": "single-stim", "trial_index": 262, "time_elapsed": 1547174, "internal_node_id": "0.0-191.0-8.0"}}, {"uniqueid": "MTK0003:3NS0A6KXC5FYTT2NRU1ZNMA7NDRZG5", "current_trial": 263, "dateTime": 1508959246739, "trialdata": {"rt": -1, "stimulus": "<p id=\"stim\">1</p>", "key_press": -1, "trial_type": "single-stim", "trial_index": 263, "time_elapsed": 1548176, "internal_node_id": "0.0-191.0-9.0"}}, {"uniqueid": "MTK0003:3NS0A6KXC5FYTT2NRU1ZNMA7NDRZG5", "current_trial": 264, "dateTime": 1508959248242, "trialdata": {"rt": -1, "stimulus": "<p id=\"stim\">+</p>", "key_press": -1, "type": "FIXATION", "trial_type": "single-stim", "trial_index": 264, "time_elapsed": 1549679, "internal_node_id": "0.0-192.0-0.0"}}, {"uniqueid": "MTK0003:3NS0A6KXC5FYTT2NRU1ZNMA7NDRZG5", "current_trial": 265, "dateTime": 1508959250992, "trialdata": {"rt": -1000, "stimulus": "/static/audio/wordpool/SNAKE.wav", "key_press": -1, "type": "PRES_AUD", "word": "snake", "wordID": 1332, "conditions": [24, 1600, "a", 24000], "trial": 7, "serialpos": 0, "trial_type": "single-audio", "trial_index": 265, "time_elapsed": 1552428, "internal_node_id": "0.0-193.0"}}, {"uniqueid": "MTK0003:3NS0A6KXC5FYTT2NRU1ZNMA7NDRZG5", "current_trial": 266, "dateTime": 1508959253503, "trialdata": {"rt": -1000, "stimulus": "/static/audio/wordpool/LOFT.wav", "key_press": -1, "type": "PRES_AUD", "word": "loft", "wordID": 839, "conditions": [24, 1600, "a", 24000], "trial": 7, "serialpos": 1, "trial_type": "single-audio", "trial_index": 266, "time_elapsed": 1554939, "internal_node_id": "0.0-194.0"}}, {"uniqueid": "MTK0003:3NS0A6KXC5FYTT2NRU1ZNMA7NDRZG5", "current_trial": 267, "dateTime": 1508959256092, "trialdata": {"rt": -1000, "stimulus": "/static/audio/wordpool/PLAID.wav", "key_press": -1, "type": "PRES_AUD", "word": "plaid", "wordID": 1079, "conditions": [24, 1600, "a", 24000], "trial": 7, "serialpos": 2, "trial_type": "single-audio", "trial_index": 267, "time_elapsed": 1557529, "internal_node_id": "0.0-195.0"}}, {"uniqueid": "MTK0003:3NS0A6KXC5FYTT2NRU1ZNMA7NDRZG5", "current_trial": 268, "dateTime": 1508959258716, "trialdata": {"rt": -1000, "stimulus": "/static/audio/wordpool/COUNTY.wav", "key_press": -1, "type": "PRES_AUD", "word": "county", "wordID": 388, "conditions": [24, 1600, "a", 24000], "trial": 7, "serialpos": 3, "trial_type": "single-audio", "trial_index": 268, "time_elapsed": 1560152, "internal_node_id": "0.0-196.0"}}, {"uniqueid": "MTK0003:3NS0A6KXC5FYTT2NRU1ZNMA7NDRZG5", "current_trial": 269, "dateTime": 1508959261261, "trialdata": {"rt": -1000, "stimulus": "/static/audio/wordpool/SHERIFF.wav", "key_press": -1, "type": "PRES_AUD", "word": "sheriff", "wordID": 1283, "conditions": [24, 1600, "a", 24000], "trial": 7, "serialpos": 4, "trial_type": "single-audio", "trial_index": 269, "time_elapsed": 1562697, "internal_node_id": "0.0-197.0"}}, {"uniqueid": "MTK0003:3NS0A6KXC5FYTT2NRU1ZNMA7NDRZG5", "current_trial": 270, "dateTime": 1508959263851, "trialdata": {"rt": -1000, "stimulus": "/static/audio/wordpool/NURSE.wav", "key_press": -1, "type": "PRES_AUD", "word": "nurse", "wordID": 962, "conditions": [24, 1600, "a", 24000], "trial": 7, "serialpos": 5, "trial_type": "single-audio", "trial_index": 270, "time_elapsed": 1565288, "internal_node_id": "0.0-198.0"}}, {"uniqueid": "MTK0003:3NS0A6KXC5FYTT2NRU1ZNMA7NDRZG5", "current_trial": 271, "dateTime": 1508959266645, "trialdata": {"rt": -1000, "stimulus": "/static/audio/wordpool/TURTLE.wav", "key_press": -1, "type": "PRES_AUD", "word": "turtle", "wordID": 1521, "conditions": [24, 1600, "a", 24000], "trial": 7, "serialpos": 6, "trial_type": "single-audio", "trial_index": 271, "time_elapsed": 1568081, "internal_node_id": "0.0-199.0"}}, {"uniqueid": "MTK0003:3NS0A6KXC5FYTT2NRU1ZNMA7NDRZG5", "current_trial": 272, "dateTime": 1508959269314, "trialdata": {"rt": -1000, "stimulus": "/static/audio/wordpool/AIRPORT.wav", "key_press": -1, "type": "PRES_AUD", "word": "airport", "wordID": 12, "conditions": [24, 1600, "a", 24000], "trial": 7, "serialpos": 7, "trial_type": "single-audio", "trial_index": 272, "time_elapsed":