{"condition": 0, "counterbalance": 2240, "assignmentId": "31QTRG6Q2UK41GLHYRP33OFXMDIYPZ", "workerId": "MTK0965", "hitId": "3MD8CKRQZZUXVK83ZHNN9C44UJEJRS", "currenttrial": 626, "bonus": 0, "data": [{"uniqueid": "MTK0965:31QTRG6Q2UK41GLHYRP33OFXMDIYPZ", "current_trial": 0, "dateTime": 1512939127593, "trialdata": {"rt": 48222, "key_press": 32, "type": "INSTRUCTIONS", "trial_type": "text", "trial_index": 0, "time_elapsed": 48229, "internal_node_id": "0.0-0.0"}}, {"uniqueid": "MTK0965:31QTRG6Q2UK41GLHYRP33OFXMDIYPZ", "current_trial": 1, "dateTime": 1512939153604, "trialdata": {"rt": 26007, "key_press": 13, "type": "INSTRUCTIONS", "trial_type": "text", "trial_index": 1, "time_elapsed": 74243, "internal_node_id": "0.0-1.0"}}, {"uniqueid": "MTK0965:31QTRG6Q2UK41GLHYRP33OFXMDIYPZ", "current_trial": 2, "dateTime": 1512939162008, "trialdata": {"rt": [8317], "responses": ["ocean"], "type": "AUDIO_TEST", "trial_type": "audio-test", "trial_index": 2, "time_elapsed": 82647, "internal_node_id": "0.0-2.0"}}, {"uniqueid": "MTK0965:31QTRG6Q2UK41GLHYRP33OFXMDIYPZ", "current_trial": 3, "dateTime": 1512939167632, "trialdata": {"rt": [5613], "responses": ["crystal"], "type": "AUDIO_TEST", "trial_type": "audio-test", "trial_index": 3, "time_elapsed": 88271, "internal_node_id": "0.0-3.0"}}, {"uniqueid": "MTK0965:31QTRG6Q2UK41GLHYRP33OFXMDIYPZ", "current_trial": 4, "dateTime": 1512939174507, "trialdata": {"rt": [6865], "responses": ["spice"], "type": "AUDIO_TEST", "trial_type": "audio-test", "trial_index": 4, "time_elapsed": 95146, "internal_node_id": "0.0-4.0"}}, {"uniqueid": "MTK0965:31QTRG6Q2UK41GLHYRP33OFXMDIYPZ", "current_trial": 5, "dateTime": 1512939191445, "trialdata": {"rt": 16180, "responses": "{\"Q0\":\"1:00 AM\",\"Q1\":\"11:00 AM\",\"Q2\":\"5\"}", "type": "SLEEP_SURVEY", "trial_type": "survey-text", "trial_index": 5, "time_elapsed": 112084, "internal_node_id": "0.0-5.0"}}, {"uniqueid": "MTK0965:31QTRG6Q2UK41GLHYRP33OFXMDIYPZ", "current_trial": 6, "dateTime": 1512939270657, "trialdata": {"rt": 78207, "key_press": 32, "type": "INSTRUCTIONS", "trial_type": "text", "trial_index": 6, "time_elapsed": 191296, "internal_node_id": "0.0-6.0"}}, {"uniqueid": "MTK0965:31QTRG6Q2UK41GLHYRP33OFXMDIYPZ", "current_trial": 7, "dateTime": 1512939281129, "trialdata": {"rt": 9970, "key_press": 32, "type": "INSTRUCTIONS", "trial_type": "text", "trial_index": 7, "time_elapsed": 201768, "internal_node_id": "0.0-7.0"}}, {"uniqueid": "MTK0965:31QTRG6Q2UK41GLHYRP33OFXMDIYPZ", "current_trial": 8, "dateTime": 1512939284054, "trialdata": {"rt": 2422, "key_press": 32, "type": "INSTRUCTIONS", "trial_type": "text", "trial_index": 8, "time_elapsed": 204692, "internal_node_id": "0.0-8.0"}}, {"uniqueid": "MTK0965:31QTRG6Q2UK41GLHYRP33OFXMDIYPZ", "current_trial": 9, "dateTime": 1512939303068, "trialdata": {"rt": [2132, 6280, 9146, 10939, 12750, 14415, 15761, 17325], "responses": ["12", "10", "21", "18", "13", "11", "10", "13"], "num1": [9, 2, 7, 4, 5, 4, 2, 1, 2], "num2": [2, 5, 5, 6, 1, 3, 1, 3, 1], "num3": [1, 3, 9, 8, 7, 4, 7, 9, 5], "type": "DISTRACTOR", "conditions": [18, 1200, "a", 18000], "trial": 0, "trial_type": "math-distractor", "trial_index": 9, "time_elapsed": 223706, "internal_node_id": "0.0-9.0"}}, {"uniqueid": "MTK0965:31QTRG6Q2UK41GLHYRP33OFXMDIYPZ", "current_trial": 10, "dateTime": 1512939306074, "trialdata": {"rt": -1, "stimulus": "<p id=\"stim\">10</p>", "key_press": -1, "trial_type": "single-stim", "trial_index": 10, "time_elapsed": 226712, "internal_node_id": "0.0-10.0-0.0"}}, {"uniqueid": "MTK0965:31QTRG6Q2UK41GLHYRP33OFXMDIYPZ", "current_trial": 11, "dateTime": 1512939307076, "trialdata": {"rt": -1, "stimulus": "<p id=\"stim\">9</p>", "key_press": -1, "trial_type": "single-stim", "trial_index": 11, "time_elapsed": 227715, "internal_node_id": "0.0-10.0-1.0"}}, {"uniqueid": "MTK0965:31QTRG6Q2UK41GLHYRP33OFXMDIYPZ", "current_trial": 12, "dateTime": 1512939308097, "trialdata": {"rt": -1, "stimulus": "<p id=\"stim\">8</p>", "key_press": -1, "trial_type": "single-stim", "trial_index": 12, "time_elapsed": 228736, "internal_node_id": "0.0-10.0-2.0"}}, {"uniqueid": "MTK0965:31QTRG6Q2UK41GLHYRP33OFXMDIYPZ", "current_trial": 13, "dateTime": 1512939309099, "trialdata": {"rt": -1, "stimulus": "<p id=\"stim\">7</p>", "key_press": -1, "trial_type": "single-stim", "trial_index": 13, "time_elapsed": 229738, "internal_node_id": "0.0-10.0-3.0"}}, {"uniqueid": "MTK0965:31QTRG6Q2UK41GLHYRP33OFXMDIYPZ", "current_trial": 14, "dateTime": 1512939310101, "trialdata": {"rt": -1, "stimulus": "<p id=\"stim\">6</p>", "key_press": -1, "trial_type": "single-stim", "trial_index": 14, "time_elapsed": 230740, "internal_node_id": "0.0-10.0-4.0"}}, {"uniqueid": "MTK0965:31QTRG6Q2UK41GLHYRP33OFXMDIYPZ", "current_trial": 15, "dateTime": 1512939311104, "trialdata": {"rt": -1, "stimulus": "<p id=\"stim\">5</p>", "key_press": -1, "trial_type": "single-stim", "trial_index": 15, "time_elapsed": 231743, "internal_node_id": "0.0-10.0-5.0"}}, {"uniqueid": "MTK0965:31QTRG6Q2UK41GLHYRP33OFXMDIYPZ", "current_trial": 16, "dateTime": 1512939312107, "trialdata": {"rt": -1, "stimulus": "<p id=\"stim\">4</p>", "key_press": -1, "trial_type": "single-stim", "trial_index": 16, "time_elapsed": 232746, "internal_node_id": "0.0-10.0-6.0"}}, {"uniqueid": "MTK0965:31QTRG6Q2UK41GLHYRP33OFXMDIYPZ", "current_trial": 17, "dateTime": 1512939313109, "trialdata": {"rt": -1, "stimulus": "<p id=\"stim\">3</p>", "key_press": -1, "trial_type": "single-stim", "trial_index": 17, "time_elapsed": 233748, "internal_node_id": "0.0-10.0-7.0"}}, {"uniqueid": "MTK0965:31QTRG6Q2UK41GLHYRP33OFXMDIYPZ", "current_trial": 18, "dateTime": 1512939314112, "trialdata": {"rt": -1, "stimulus": "<p id=\"stim\">2</p>", "key_press": -1, "trial_type": "single-stim", "trial_index": 18, "time_elapsed": 234751, "internal_node_id": "0.0-10.0-8.0"}}, {"uniqueid": "MTK0965:31QTRG6Q2UK41GLHYRP33OFXMDIYPZ", "current_trial": 19, "dateTime": 1512939315115, "trialdata": {"rt": -1, "stimulus": "<p id=\"stim\">1</p>", "key_press": -1, "trial_type": "single-stim", "trial_index": 19, "time_elapsed": 235753, "internal_node_id": "0.0-10.0-9.0"}}, {"uniqueid": "MTK0965:31QTRG6Q2UK41GLHYRP33OFXMDIYPZ", "current_trial": 20, "dateTime": 1512939316617, "trialdata": {"rt": -1, "stimulus": "<p id=\"stim\">+</p>", "key_press": -1, "type": "FIXATION", "trial_type": "single-stim", "trial_index": 20, "time_elapsed": 237256, "internal_node_id": "0.0-11.0-0.0"}}, {"uniqueid": "MTK0965:31QTRG6Q2UK41GLHYRP33OFXMDIYPZ", "current_trial": 21, "dateTime": 1512939318890, "trialdata": {"rt": -1000, "stimulus": "/static/audio/wordpool/MARS.wav", "key_press": -1, "type": "PRES_AUD", "word": "mars", "wordID": 872, "conditions": [18, 1200, "a", 18000], "trial": 0, "serialpos": 0, "trial_type": "single-audio", "trial_index": 21, "time_elapsed": 239529, "internal_node_id": "0.0-12.0"}}, {"uniqueid": "MTK0965:31QTRG6Q2UK41GLHYRP33OFXMDIYPZ", "current_trial": 22, "dateTime": 1512939320899, "trialdata": {"rt": 1699.9999999999886, "stimulus": "/static/audio/wordpool/SMOG.wav", "key_press": 175, "type": "PRES_AUD", "word": "smog", "wordID": 1329, "conditions": [18, 1200, "a", 18000], "trial": 0, "serialpos": 1, "trial_type": "single-audio", "trial_index": 22, "time_elapsed": 241538, "internal_node_id": "0.0-13.0"}}, {"uniqueid": "MTK0965:31QTRG6Q2UK41GLHYRP33OFXMDIYPZ", "current_trial": 23, "dateTime": 1512939322913, "trialdata": {"rt": -9.33333333335895, "stimulus": "/static/audio/wordpool/CLIMBER.wav", "key_press": 175, "type": "PRES_AUD", "word": "climber", "wordID": 322, "conditions": [18, 1200, "a", 18000], "trial": 0, "serialpos": 2, "trial_type": "single-audio", "trial_index": 23, "time_elapsed": 243551, "internal_node_id": "0.0-14.0"}}, {"uniqueid": "MTK0965:31QTRG6Q2UK41GLHYRP33OFXMDIYPZ", "current_trial": 24, "dateTime": 1512939325060, "trialdata": {"rt": -1000, "stimulus": "/static/audio/wordpool/PECAN.wav", "key_press": -1, "type": "PRES_AUD", "word": "pecan", "wordID": 1035, "conditions": [18, 1200, "a", 18000], "trial": 0, "serialpos": 3, "trial_type": "single-audio", "trial_index": 24, "time_elapsed": 245698, "internal_node_id": "0.0-15.0"}}, {"uniqueid": "MTK0965:31QTRG6Q2UK41GLHYRP33OFXMDIYPZ", "current_trial": 25, "dateTime": 1512939327065, "trialdata": {"rt": -1000, "stimulus": "/static/audio/wordpool/BEAKER.wav", "key_press": -1, "type": "PRES_AUD", "word": "beaker", "wordID": 103, "conditions": [18, 1200, "a", 18000], "trial": 0, "serialpos": 4, "trial_type": "single-audio", "trial_index": 25, "time_elapsed": 247703, "internal_node_id": "0.0-16.0"}}, {"uniqueid": "MTK0965:31QTRG6Q2UK41GLHYRP33OFXMDIYPZ", "current_trial": 26, "dateTime": 1512939329264, "trialdata": {"rt": -1000, "stimulus": "/static/audio/wordpool/BUTCHER.wav", "key_press": -1, "type": "PRES_AUD", "word": "butcher", "wordID": 202, "conditions": [18, 1200, "a", 18000], "trial": 0, "serialpos": 5, "trial_type": "single-audio", "trial_index": 26, "time_elapsed": 249903, "internal_node_id": "0.0-17.0"}}, {"uniqueid": "MTK0965:31QTRG6Q2UK41GLHYRP33OFXMDIYPZ", "current_trial": 27, "dateTime": 1512939331614, "trialdata": {"rt": -1000, "stimulus": "/static/audio/wordpool/ANTLER.wav", "key_press": -1, "type": "PRES_AUD", "word": "antler", "wordID": 28, "conditions": [18, 1200, "a", 18000], "trial": 0, "serialpos": 6, "trial_type": "single-audio", "trial_index": 27, "time_elapsed": 252253, "internal_node_id": "0.0-18.0"}}, {"uniqueid": "MTK0965:31QTRG6Q2UK41GLHYRP33OFXMDIYPZ", "current_trial": 28, "dateTime": 1512939333878, "trialdata": {"rt": -1000, "stimulus": "/static/audio/wordpool/MUMMY.wav", "key_press": -1, "type": "PRES_AUD", "word": "mummy", "wordID": 931, "conditions": [18, 1200, "a", 18000], "trial": 0, "serialpos": 7, "trial_type": "single-audio", "trial_index": 28, "time_elapsed": 254517, "internal_node_id": "0.0-19.0"}}, {"uniqueid": "MTK0965:31QTRG6Q2UK41GLHYRP33OFXMDIYPZ", "current_trial": 29, "dateTime": 1512939335971, "trialdata": {"rt": -1000, "stimulus": "/static/audio/wordpool/WRENCH.wav", "key_press": -1, "type": "PRES_AUD", "word": "wrench", "wordID": 1624, "conditions": [18, 1200, "a", 18000], "trial": 0, "serialpos": 8, "trial_type": "single-audio", "trial_index": 29, "time_elapsed": 256610, "internal_node_id": "0.0-20.0"}}, {"uniqueid": "MTK0965:31QTRG6Q2UK41GLHYRP33OFXMDIYPZ", "current_trial": 30, "dateTime": 1512939338289, "trialdata": {"rt": -1000, "stimulus": "/static/audio/wordpool/SPOUSE.wav", "key_press": -1, "type": "PRES_AUD", "word": "spouse", "wordID": 1357, "conditions": [18, 1200, "a", 18000], "trial": 0, "serialpos": 9, "trial_type": "single-audio", "trial_index": 30, "time_elapsed": 258928, "internal_node_id": "0.0-21.0"}}, {"uniqueid": "MTK0965:31QTRG6Q2UK41GLHYRP33OFXMDIYPZ", "current_trial": 31, "dateTime": 1512939340609, "trialdata": {"rt": -1000, "stimulus": "/static/audio/wordpool/CLAM.wav", "key_press": -1, "type": "PRES_AUD", "word": "clam", "wordID": 314, "conditions": [18, 1200, "a", 18000], "trial": 0, "serialpos": 10, "trial_type": "single-audio", "trial_index": 31, "time_elapsed": 261248, "internal_node_id": "0.0-22.0"}}, {"uniqueid": "MTK0965:31QTRG6Q2UK41GLHYRP33OFXMDIYPZ", "current_trial": 32, "dateTime": 1512939342669, "trialdata": {"rt": -1000, "stimulus": "/static/audio/wordpool/FOOT.wav", "key_press": -1, "type": "PRES_AUD", "word": "foot", "wordID": 589, "conditions": [18, 1200, "a", 18000], "trial": 0, "serialpos": 11, "trial_type": "single-audio", "trial_index": 32, "time_elapsed": 263308, "internal_node_id": "0.0-23.0"}}, {"uniqueid": "MTK0965:31QTRG6Q2UK41GLHYRP33OFXMDIYPZ", "current_trial": 33, "dateTime": 1512939344678, "trialdata": {"rt": -1000, "stimulus": "/static/audio/wordpool/DRESSER.wav", "key_press": -1, "type": "PRES_AUD", "word": "dresser", "wordID": 495, "conditions": [18, 1200, "a", 18000], "trial": 0, "serialpos": 12, "trial_type": "single-audio", "trial_index": 33, "time_elapsed": 265317, "internal_node_id": "0.0-24.0"}}, {"uniqueid": "MTK0965:31QTRG6Q2UK41GLHYRP33OFXMDIYPZ", "current_trial": 34, "dateTime": 1512939347018, "trialdata": {"rt": -1000, "stimulus": "/static/audio/wordpool/LIVER.wav", "key_press": -1, "type": "PRES_AUD", "word": "liver", "wordID": 832, "conditions": [18, 1200, "a", 18000], "trial": 0, "serialpos": 13, "trial_type": "single-audio", "trial_index": 34, "time_elapsed": 267657, "internal_node_id": "0.0-25.0"}}, {"uniqueid": "MTK0965:31QTRG6Q2UK41GLHYRP33OFXMDIYPZ", "current_trial": 35, "dateTime": 1512939349355, "trialdata": {"rt": -1000, "stimulus": "/static/audio/wordpool/YACHT.wav", "key_press": -1, "type": "PRES_AUD", "word": "yacht", "wordID": 1628, "conditions": [18, 1200, "a", 18000], "trial": 0, "serialpos": 14, "trial_type": "single-audio", "trial_index": 35, "time_elapsed": 269994, "internal_node_id": "0.0-26.0"}}, {"uniqueid": "MTK0965:31QTRG6Q2UK41GLHYRP33OFXMDIYPZ", "current_trial": 36, "dateTime": 1512939351414, "trialdata": {"rt": -1000, "stimulus": "/static/audio/wordpool/DASHBOARD.wav", "key_press": -1, "type": "PRES_AUD", "word": "dashboard", "wordID": 440, "conditions": [18, 1200, "a", 18000], "trial": 0, "serialpos": 15, "trial_type": "single-audio", "trial_index": 36, "time_elapsed": 272053, "internal_node_id": "0.0-27.0"}}, {"uniqueid": "MTK0965:31QTRG6Q2UK41GLHYRP33OFXMDIYPZ", "current_trial": 37, "dateTime": 1512939353778, "trialdata": {"rt": -1000, "stimulus": "/static/audio/wordpool/COUCH.wav", "key_press": -1, "type": "PRES_AUD", "word": "couch", "wordID": 385, "conditions": [18, 1200, "a", 18000], "trial": 0, "serialpos": 16, "trial_type": "single-audio", "trial_index": 37, "time_elapsed": 274417, "internal_node_id": "0.0-28.0"}}, {"uniqueid": "MTK0965:31QTRG6Q2UK41GLHYRP33OFXMDIYPZ", "current_trial": 38, "dateTime": 1512939355916, "trialdata": {"rt": -1000, "stimulus": "/static/audio/wordpool/PAPER.wav", "key_press": -1, "type": "PRES_AUD", "word": "paper", "wordID": 1010, "conditions": [18, 1200, "a", 18000], "trial": 0, "serialpos": 17, "trial_type": "single-audio", "trial_index": 38, "time_elapsed": 276554, "internal_node_id": "0.0-29.0"}}, {"uniqueid": "MTK0965:31QTRG6Q2UK41GLHYRP33OFXMDIYPZ", "current_trial": 39, "dateTime": 1512939357313, "trialdata": {"rt": -1, "stimulus": "", "key_press": -1, "type": "PRE_RECALL_DELAY", "trial_type": "single-stim", "trial_index": 39, "time_elapsed": 277951, "internal_node_id": "0.0-30.0-0.0"}}, {"uniqueid": "MTK0965:31QTRG6Q2UK41GLHYRP33OFXMDIYPZ", "current_trial": 40, "dateTime": 1512939357820, "trialdata": {"rt": -1000, "stimulus": "/static/audio/400Hz.wav", "key_press": -1, "type": "PRE_RECALL_ALERT", "trial_type": "single-audio", "trial_index": 40, "time_elapsed": 278458, "internal_node_id": "0.0-31.0"}}, {"uniqueid": "MTK0965:31QTRG6Q2UK41GLHYRP33OFXMDIYPZ", "current_trial": 41, "dateTime": 1512939417836, "trialdata": {"rt": [3363, 4530, 5244, 7211, 47670], "recwords": ["couch", "mummy", "paper", "wrench", ""], "type": "FREE_RECALL", "conditions": [18, 1200, "a", 18000], "trial": 0, "trial_type": "free-recall", "trial_index": 41, "time_elapsed": 338467, "internal_node_id": "0.0-32.0-0.0"}}, {"uniqueid": "MTK0965:31QTRG6Q2UK41GLHYRP33OFXMDIYPZ", "current_trial": 42, "dateTime": 1512939421749, "trialdata": {"rt": 1908, "key_press": 32, "type": "INSTRUCTIONS", "trial_type": "text", "trial_index": 42, "time_elapsed": 342388, "internal_node_id": "0.0-33.0"}}, {"uniqueid": "MTK0965:31QTRG6Q2UK41GLHYRP33OFXMDIYPZ", "current_trial": 43, "dateTime": 1512939441757, "trialdata": {"rt": [4336, 7470, 9770, 11319, 12845, 16321], "responses": ["11", "15", "16", "15", "17", "15"], "num1": [4, 8, 9, 8, 7, 4, 5], "num2": [6, 4, 3, 2, 9, 2, 1], "num3": [1, 3, 4, 5, 1, 9, 8], "type": "DISTRACTOR", "conditions": [18, 1200, "v", 18000], "trial": 1, "trial_type": "math-distractor", "trial_index": 43, "time_elapsed": 362396, "internal_node_id": "0.0-34.0"}}, {"uniqueid": "MTK0965:31QTRG6Q2UK41GLHYRP33OFXMDIYPZ", "current_trial": 44, "dateTime": 1512939444761, "trialdata": {"rt": -1, "stimulus": "<p id=\"stim\">10</p>", "key_press": -1, "trial_type": "single-stim", "trial_index": 44, "time_elapsed": 365399, "internal_node_id": "0.0-35.0-0.0"}}, {"uniqueid": "MTK0965:31QTRG6Q2UK41GLHYRP33OFXMDIYPZ", "current_trial": 45, "dateTime": 1512939445763, "trialdata": {"rt": -1, "stimulus": "<p id=\"stim\">9</p>", "key_press": -1, "trial_type": "single-stim", "trial_index": 45, "time_elapsed": 366402, "internal_node_id": "0.0-35.0-1.0"}}, {"uniqueid": "MTK0965:31QTRG6Q2UK41GLHYRP33OFXMDIYPZ", "current_trial": 46, "dateTime": 1512939446765, "trialdata": {"rt": -1, "stimulus": "<p id=\"stim\">8</p>", "key_press": -1, "trial_type": "single-stim", "trial_index": 46, "time_elapsed": 367403, "internal_node_id": "0.0-35.0-2.0"}}, {"uniqueid": "MTK0965:31QTRG6Q2UK41GLHYRP33OFXMDIYPZ", "current_trial": 47, "dateTime": 1512939447766, "trialdata": {"rt": -1, "stimulus": "<p id=\"stim\">7</p>", "key_press": -1, "trial_type": "single-stim", "trial_index": 47, "time_elapsed": 368405, "internal_node_id": "0.0-35.0-3.0"}}, {"uniqueid": "MTK0965:31QTRG6Q2UK41GLHYRP33OFXMDIYPZ", "current_trial": 48, "dateTime": 1512939448768, "trialdata": {"rt": -1, "stimulus": "<p id=\"stim\">6</p>", "key_press": -1, "trial_type": "single-stim", "trial_index": 48, "time_elapsed": 369407, "internal_node_id": "0.0-35.0-4.0"}}, {"uniqueid": "MTK0965:31QTRG6Q2UK41GLHYRP33OFXMDIYPZ", "current_trial": 49, "dateTime": 1512939449769, "trialdata": {"rt": -1, "stimulus": "<p id=\"stim\">5</p>", "key_press": -1, "trial_type": "single-stim", "trial_index": 49, "time_elapsed": 370408, "internal_node_id": "0.0-35.0-5.0"}}, {"uniqueid": "MTK0965:31QTRG6Q2UK41GLHYRP33OFXMDIYPZ", "current_trial": 50, "dateTime": 1512939450773, "trialdata": {"rt": -1, "stimulus": "<p id=\"stim\">4</p>", "key_press": -1, "trial_type": "single-stim", "trial_index": 50, "time_elapsed": 371412, "internal_node_id": "0.0-35.0-6.0"}}, {"uniqueid": "MTK0965:31QTRG6Q2UK41GLHYRP33OFXMDIYPZ", "current_trial": 51, "dateTime": 1512939451776, "trialdata": {"rt": -1, "stimulus": "<p id=\"stim\">3</p>", "key_press": -1, "trial_type": "single-stim", "trial_index": 51, "time_elapsed": 372414, "internal_node_id": "0.0-35.0-7.0"}}, {"uniqueid": "MTK0965:31QTRG6Q2UK41GLHYRP33OFXMDIYPZ", "current_trial": 52, "dateTime": 1512939452778, "trialdata": {"rt": -1, "stimulus": "<p id=\"stim\">2</p>", "key_press": -1, "trial_type": "single-stim", "trial_index": 52, "time_elapsed": 373416, "internal_node_id": "0.0-35.0-8.0"}}, {"uniqueid": "MTK0965:31QTRG6Q2UK41GLHYRP33OFXMDIYPZ", "current_trial": 53, "dateTime": 1512939453779, "trialdata": {"rt": -1, "stimulus": "<p id=\"stim\">1</p>", "key_press": -1, "trial_type": "single-stim", "trial_index": 53, "time_elapsed": 374418, "internal_node_id": "0.0-35.0-9.0"}}, {"uniqueid": "MTK0965:31QTRG6Q2UK41GLHYRP33OFXMDIYPZ", "current_trial": 54, "dateTime": 1512939455282, "trialdata": {"rt": -1, "stimulus": "<p id=\"stim\">+</p>", "key_press": -1, "type": "FIXATION", "trial_type": "single-stim", "trial_index": 54, "time_elapsed": 375920, "internal_node_id": "0.0-36.0-0.0"}}, {"uniqueid": "MTK0965:31QTRG6Q2UK41GLHYRP33OFXMDIYPZ", "current_trial": 55, "dateTime": 1512939456484, "trialdata": {"rt": -1, "stimulus": "<p id=\"stim\">POLICE</p>", "key_press": -1, "type": "PRES_VIS", "word": "police", "wordID": 1097, "conditions": [18, 1200, "v", 18000], "trial": 1, "serialpos": 0, "trial_type": "single-stim", "trial_index": 55, "time_elapsed": 377123, "internal_node_id": "0.0-37.0"}}, {"uniqueid": "MTK0965:31QTRG6Q2UK41GLHYRP33OFXMDIYPZ", "current_trial": 56, "dateTime": 1512939458779, "trialdata": {"rt": -1, "stimulus": "<p id=\"stim\">HEART</p>", "key_press": -1, "type": "PRES_VIS", "word": "heart", "wordID": 696, "conditions": [18, 1200, "v", 18000], "trial": 1, "serialpos": 1, "trial_type": "single-stim", "trial_index": 56, "time_elapsed": 379418, "internal_node_id": "0.0-38.0"}}, {"uniqueid": "MTK0965:31QTRG6Q2UK41GLHYRP33OFXMDIYPZ", "current_trial": 57, "dateTime": 1512939461162, "trialdata": {"rt": -1, "stimulus": "<p id=\"stim\">BUG</p>", "key_press": -1, "type": "PRES_VIS", "word": "bug", "wordID": 186, "conditions": [18, 1200, "v", 18000], "trial": 1, "serialpos": 2, "trial_type": "single-stim", "trial_index": 57, "time_elapsed": 381801, "internal_node_id": "0.0-39.0"}}, {"uniqueid": "MTK0965:31QTRG6Q2UK41GLHYRP33OFXMDIYPZ", "current_trial": 58, "dateTime": 1512939463220, "trialdata": {"rt": -1, "stimulus": "<p id=\"stim\">BRACES</p>", "key_press": -1, "type": "PRES_VIS", "word": "braces", "wordID": 163, "conditions": [18, 1200, "v", 18000], "trial": 1, "serialpos": 3, "trial_type": "single-stim", "trial_index": 58, "time_elapsed": 383859, "internal_node_id": "0.0-40.0"}}, {"uniqueid": "MTK0965:31QTRG6Q2UK41GLHYRP33OFXMDIYPZ", "current_trial": 59, "dateTime": 1512939465250, "trialdata": {"rt": -1, "stimulus": "<p id=\"stim\">HARP</p>", "key_press": -1, "type": "PRES_VIS", "word": "harp", "wordID": 688, "conditions": [18, 1200, "v", 18000], "trial": 1, "serialpos": 4, "trial_type": "single-stim", "trial_index": 59, "time_elapsed": 385889, "internal_node_id": "0.0-41.0"}}, {"uniqueid": "MTK0965:31QTRG6Q2UK41GLHYRP33OFXMDIYPZ", "current_trial": 60, "dateTime": 1512939467489, "trialdata": {"rt": -1, "stimulus": "<p id=\"stim\">LAGOON</p>", "key_press": -1, "type": "PRES_VIS", "word": "lagoon", "wordID": 794, "conditions": [18, 1200, "v", 18000], "trial": 1, "serialpos": 5, "trial_type": "single-stim", "trial_index": 60, "time_elapsed": 388128, "internal_node_id": "0.0-42.0"}}, {"uniqueid": "MTK0965:31QTRG6Q2UK41GLHYRP33OFXMDIYPZ", "current_trial": 61, "dateTime": 1512939469832, "trialdata": {"rt": -1, "stimulus": "<p id=\"stim\">AWARD</p>", "key_press": -1, "type": "PRES_VIS", "word": "award", "wordID": 62, "conditions": [18, 1200, "v", 18000], "trial": 1, "serialpos": 6, "trial_type": "single-stim", "trial_index": 61, "time_elapsed": 390469, "internal_node_id": "0.0-43.0"}}, {"uniqueid": "MTK0965:31QTRG6Q2UK41GLHYRP33OFXMDIYPZ", "current_trial": 62, "dateTime": 1512939472057, "trialdata": {"rt": -1, "stimulus": "<p id=\"stim\">BRIEFCASE</p>", "key_press": -1, "type": "PRES_VIS", "word": "briefcase", "wordID": 174, "conditions": [18, 1200, "v", 18000], "trial": 1, "serialpos": 7, "trial_type": "single-stim", "trial_index": 62, "time_elapsed": 392696, "internal_node_id": "0.0-44.0"}}, {"uniqueid": "MTK0965:31QTRG6Q2UK41GLHYRP33OFXMDIYPZ", "current_trial": 63, "dateTime": 1512939474095, "trialdata": {"rt": -1, "stimulus": "<p id=\"stim\">TOURIST</p>", "key_press": -1, "type": "PRES_VIS", "word": "tourist", "wordID": 1487, "conditions": [18, 1200, "v", 18000], "trial": 1, "serialpos": 8, "trial_type": "single-stim", "trial_index": 63, "time_elapsed": 394734, "internal_node_id": "0.0-45.0"}}, {"uniqueid": "MTK0965:31QTRG6Q2UK41GLHYRP33OFXMDIYPZ", "current_trial": 64, "dateTime": 1512939476478, "trialdata": {"rt": -1, "stimulus": "<p id=\"stim\">SCOTCH</p>", "key_press": -1, "type": "PRES_VIS", "word": "scotch", "wordID": 1250, "conditions": [18, 1200, "v", 18000], "trial": 1, "serialpos": 9, "trial_type": "single-stim", "trial_index": 64, "time_elapsed": 397116, "internal_node_id": "0.0-46.0"}}, {"uniqueid": "MTK0965:31QTRG6Q2UK41GLHYRP33OFXMDIYPZ", "current_trial": 65, "dateTime": 1512939478854, "trialdata": {"rt": -1, "stimulus": "<p id=\"stim\">CRUTCH</p>", "key_press": -1, "type": "PRES_VIS", "word": "crutch", "wordID": 416, "conditions": [18, 1200, "v", 18000], "trial": 1, "serialpos": 10, "trial_type": "single-stim", "trial_index": 65, "time_elapsed": 399493, "internal_node_id": "0.0-47.0"}}, {"uniqueid": "MTK0965:31QTRG6Q2UK41GLHYRP33OFXMDIYPZ", "current_trial": 66, "dateTime": 1512939480951, "trialdata": {"rt": -1, "stimulus": "<p id=\"stim\">LODGE</p>", "key_press": -1, "type": "PRES_VIS", "word": "lodge", "wordID": 838, "conditions": [18, 1200, "v", 18000], "trial": 1, "serialpos": 11, "trial_type": "single-stim", "trial_index": 66, "time_elapsed": 401590, "internal_node_id": "0.0-48.0"}}, {"uniqueid": "MTK0965:31QTRG6Q2UK41GLHYRP33OFXMDIYPZ", "current_trial": 67, "dateTime": 1512939482984, "trialdata": {"rt": -1, "stimulus": "<p id=\"stim\">MAMMAL</p>", "key_press": -1, "type": "PRES_VIS", "word": "mammal", "wordID": 860, "conditions": [18, 1200, "v", 18000], "trial": 1, "serialpos": 12, "trial_type": "single-stim", "trial_index": 67, "time_elapsed": 403622, "internal_node_id": "0.0-49.0"}}, {"uniqueid": "MTK0965:31QTRG6Q2UK41GLHYRP33OFXMDIYPZ", "current_trial": 68, "dateTime": 1512939485134, "trialdata": {"rt": -1, "stimulus": "<p id=\"stim\">DANCER</p>", "key_press": -1, "type": "PRES_VIS", "word": "dancer", "wordID": 436, "conditions": [18, 1200, "v", 18000], "trial": 1, "serialpos": 13, "trial_type": "single-stim", "trial_index": 68, "time_elapsed": 405766, "internal_node_id": "0.0-50.0"}}, {"uniqueid": "MTK0965:31QTRG6Q2UK41GLHYRP33OFXMDIYPZ", "current_trial": 69, "dateTime": 1512939487250, "trialdata": {"rt": -1, "stimulus": "<p id=\"stim\">WOMAN</p>", "key_press": -1, "type": "PRES_VIS", "word": "woman", "wordID": 1619, "conditions": [18, 1200, "v", 18000], "trial": 1, "serialpos": 14, "trial_type": "single-stim", "trial_index": 69, "time_elapsed": 407889, "internal_node_id": "0.0-51.0"}}, {"uniqueid": "MTK0965:31QTRG6Q2UK41GLHYRP33OFXMDIYPZ", "current_trial": 70, "dateTime": 1512939489547, "trialdata": {"rt": -1, "stimulus": "<p id=\"stim\">SIDEWALK</p>", "key_press": -1, "type": "PRES_VIS", "word": "sidewalk", "wordID": 1302, "conditions": [18, 1200, "v", 18000], "trial": 1, "serialpos": 15, "trial_type": "single-stim", "trial_index": 70, "time_elapsed": 410186, "internal_node_id": "0.0-52.0"}}, {"uniqueid": "MTK0965:31QTRG6Q2UK41GLHYRP33OFXMDIYPZ", "current_trial": 71, "dateTime": 1512939491902, "trialdata": {"rt": -1, "stimulus": "<p id=\"stim\">STALLION</p>", "key_press": -1, "type": "PRES_VIS", "word": "stallion", "wordID": 1368, "conditions": [18, 1200, "v", 18000], "trial": 1, "serialpos": 16, "trial_type": "single-stim", "trial_index": 71, "time_elapsed": 412541, "internal_node_id": "0.0-53.0"}}, {"uniqueid": "MTK0965:31QTRG6Q2UK41GLHYRP33OFXMDIYPZ", "current_trial": 72, "dateTime": 1512939494037, "trialdata": {"rt": -1, "stimulus": "<p id=\"stim\">FLAG</p>", "key_press": -1, "type": "PRES_VIS", "word": "flag", "wordID": 572, "conditions": [18, 1200, "v", 18000], "trial": 1, "serialpos": 17, "trial_type": "single-stim", "trial_index": 72, "time_elapsed": 414676, "internal_node_id": "0.0-54.0"}}, {"uniqueid": "MTK0965:31QTRG6Q2UK41GLHYRP33OFXMDIYPZ", "current_trial": 73, "dateTime": 1512939496501, "trialdata": {"rt": -1, "stimulus": "", "key_press": -1, "type": "PRE_RECALL_DELAY", "trial_type": "single-stim", "trial_index": 73, "time_elapsed": 417140, "internal_node_id": "0.0-55.0-0.0"}}, {"uniqueid": "MTK0965:31QTRG6Q2UK41GLHYRP33OFXMDIYPZ", "current_trial": 74, "dateTime": 1512939497006, "trialdata": {"rt": -1000, "stimulus": "/static/audio/400Hz.wav", "key_press": -1, "type": "PRE_RECALL_ALERT", "trial_type": "single-audio", "trial_index": 74, "time_elapsed": 417645, "internal_node_id": "0.0-56.0"}}, {"uniqueid": "MTK0965:31QTRG6Q2UK41GLHYRP33OFXMDIYPZ", "current_trial": 75, "dateTime": 1512939557022, "trialdata": {"rt": [2534, 3087, 3803, 4913, 5611, 24544, 25473], "recwords": ["sidewalk", "flag", "woman", "police", "heart", "suitcase", "travel"], "type": "FREE_RECALL", "conditions": [18, 1200, "v", 18000], "trial": 1, "trial_type": "free-recall", "trial_index": 75, "time_elapsed": 477651, "internal_node_id": "0.0-57.0-0.0"}}, {"uniqueid": "MTK0965:31QTRG6Q2UK41GLHYRP33OFXMDIYPZ", "current_trial": 76, "dateTime": 1512939564108, "trialdata": {"rt": 5072, "key_press": 78, "type": "INSTRUCTIONS", "trial_type": "text", "trial_index": 76, "time_elapsed": 484736, "internal_node_id": "0.0-58.0"}}, {"uniqueid": "MTK0965:31QTRG6Q2UK41GLHYRP33OFXMDIYPZ", "current_trial": 77, "dateTime": 1512939577115, "trialdata": {"rt": [2225, 5873, 7205, 8655, 9835, 10928], "responses": ["10", "21", "10", "6", "6", "11"], "num1": [6, 4, 6, 4, 2, 1, 3], "num2": [3, 8, 2, 1, 3, 7, 4], "num3": [1, 9, 2, 1, 1, 3, 5], "type": "DISTRACTOR", "conditions": [24, 1600, "a", 12000], "trial": 2, "trial_type": "math-distractor", "trial_index": 77, "time_elapsed": 497754, "internal_node_id": "0.0-59.0"}}, {"uniqueid": "MTK0965:31QTRG6Q2UK41GLHYRP33OFXMDIYPZ", "current_trial": 78, "dateTime": 1512939580118, "trialdata": {"rt": -1, "stimulus": "<p id=\"stim\">10</p>", "key_press": -1, "trial_type": "single-stim", "trial_index": 78, "time_elapsed": 500757, "internal_node_id": "0.0-60.0-0.0"}}, {"uniqueid": "MTK0965:31QTRG6Q2UK41GLHYRP33OFXMDIYPZ", "current_trial": 79, "dateTime": 1512939581120, "trialdata": {"rt": -1, "stimulus": "<p id=\"stim\">9</p>", "key_press": -1, "trial_type": "single-stim", "trial_index": 79, "time_elapsed": 501758, "internal_node_id": "0.0-60.0-1.0"}}, {"uniqueid": "MTK0965:31QTRG6Q2UK41GLHYRP33OFXMDIYPZ", "current_trial": 80, "dateTime": 1512939582121, "trialdata": {"rt": -1, "stimulus": "<p id=\"stim\">8</p>", "key_press": -1, "trial_type": "single-stim", "trial_index": 80, "time_elapsed": 502760, "internal_node_id": "0.0-60.0-2.0"}}, {"uniqueid": "MTK0965:31QTRG6Q2UK41GLHYRP33OFXMDIYPZ", "current_trial": 81, "dateTime": 1512939583125, "trialdata": {"rt": -1, "stimulus": "<p id=\"stim\">7</p>", "key_press": -1, "trial_type": "single-stim", "trial_index": 81, "time_elapsed": 503764, "internal_node_id": "0.0-60.0-3.0"}}, {"uniqueid": "MTK0965:31QTRG6Q2UK41GLHYRP33OFXMDIYPZ", "current_trial": 82, "dateTime": 1512939584127, "trialdata": {"rt": -1, "stimulus": "<p id=\"stim\">6</p>", "key_press": -1, "trial_type": "single-stim", "trial_index": 82, "time_elapsed": 504766, "internal_node_id": "0.0-60.0-4.0"}}, {"uniqueid": "MTK0965:31QTRG6Q2UK41GLHYRP33OFXMDIYPZ", "current_trial": 83, "dateTime": 1512939585129, "trialdata": {"rt": -1, "stimulus": "<p id=\"stim\">5</p>", "key_press": -1, "trial_type": "single-stim", "trial_index": 83, "time_elapsed": 505768, "internal_node_id": "0.0-60.0-5.0"}}, {"uniqueid": "MTK0965:31QTRG6Q2UK41GLHYRP33OFXMDIYPZ", "current_trial": 84, "dateTime": 1512939586132, "trialdata": {"rt": -1, "stimulus": "<p id=\"stim\">4</p>", "key_press": -1, "trial_type": "single-stim", "trial_index": 84, "time_elapsed": 506770, "internal_node_id": "0.0-60.0-6.0"}}, {"uniqueid": "MTK0965:31QTRG6Q2UK41GLHYRP33OFXMDIYPZ", "current_trial": 85, "dateTime": 1512939587134, "trialdata": {"rt": -1, "stimulus": "<p id=\"stim\">3</p>", "key_press": -1, "trial_type": "single-stim", "trial_index": 85, "time_elapsed": 507773, "internal_node_id": "0.0-60.0-7.0"}}, {"uniqueid": "MTK0965:31QTRG6Q2UK41GLHYRP33OFXMDIYPZ", "current_trial": 86, "dateTime": 1512939588137, "trialdata": {"rt": -1, "stimulus": "<p id=\"stim\">2</p>", "key_press": -1, "trial_type": "single-stim", "trial_index": 86, "time_elapsed": 508776, "internal_node_id": "0.0-60.0-8.0"}}, {"uniqueid": "MTK0965:31QTRG6Q2UK41GLHYRP33OFXMDIYPZ", "current_trial": 87, "dateTime": 1512939589140, "trialdata": {"rt": -1, "stimulus": "<p id=\"stim\">1</p>", "key_press": -1, "trial_type": "single-stim", "trial_index": 87, "time_elapsed": 509778, "internal_node_id": "0.0-60.0-9.0"}}, {"uniqueid": "MTK0965:31QTRG6Q2UK41GLHYRP33OFXMDIYPZ", "current_trial": 88, "dateTime": 1512939590642, "trialdata": {"rt": -1, "stimulus": "<p id=\"stim\">+</p>", "key_press": -1, "type": "FIXATION", "trial_type": "single-stim", "trial_index": 88, "time_elapsed": 511280, "internal_node_id": "0.0-61.0-0.0"}}, {"uniqueid": "MTK0965:31QTRG6Q2UK41GLHYRP33OFXMDIYPZ", "current_trial": 89, "dateTime": 1512939593409, "trialdata": {"rt": -1000, "stimulus": "/static/audio/wordpool/SNAIL.wav", "key_press": -1, "type": "PRES_AUD", "word": "snail", "wordID": 1331, "conditions": [24, 1600, "a", 12000], "trial": 2, "serialpos": 0, "trial_type": "single-audio", "trial_index": 89, "time_elapsed": 514048, "internal_node_id": "0.0-62.0"}}, {"uniqueid": "MTK0965:31QTRG6Q2UK41GLHYRP33OFXMDIYPZ", "current_trial": 90, "dateTime": 1512939596095, "trialdata": {"rt": -1000, "stimulus": "/static/audio/wordpool/SOFTBALL.wav", "key_press": -1, "type": "PRES_AUD", "word": "softball", "wordID": 1342, "conditions": [24, 1600, "a", 12000], "trial": 2, "serialpos": 1, "trial_type": "single-audio", "trial_index": 90, "time_elapsed": 516734, "internal_node_id": "0.0-63.0"}}, {"uniqueid": "MTK0965:31QTRG6Q2UK41GLHYRP33OFXMDIYPZ", "current_trial": 91, "dateTime": 1512939598792, "trialdata": {"rt": -1000, "stimulus": "/static/audio/wordpool/ROBBER.wav", "key_press": -1, "type": "PRES_AUD", "word": "robber", "wordID": 1196, "conditions": [24, 1600, "a", 12000], "trial": 2, "serialpos": 2, "trial_type": "single-audio", "trial_index": 91, "time_elapsed": 519431, "internal_node_id": "0.0-64.0"}}, {"uniqueid": "MTK0965:31QTRG6Q2UK41GLHYRP33OFXMDIYPZ", "current_trial": 92, "dateTime": 1512939601428, "trialdata": {"rt": -1000, "stimulus": "/static/audio/wordpool/FLOWER.wav", "key_press": -1, "type": "PRES_AUD", "word": "flower", "wordID": 583, "conditions": [24, 1600, "a", 12000], "trial": 2, "serialpos": 3, "trial_type": "single-audio", "trial_index": 92, "time_elapsed": 522067, "internal_node_id": "0.0-65.0"}}, {"uniqueid": "MTK0965:31QTRG6Q2UK41GLHYRP33OFXMDIYPZ", "current_trial": 93, "dateTime": 1512939604216, "trialdata": {"rt": -1000, "stimulus": "/static/audio/wordpool/STUDENT.wav", "key_press": -1, "type": "PRES_AUD", "word": "student", "wordID": 1394, "conditions": [24, 1600, "a", 12000], "trial": 2, "serialpos": 4, "trial_type": "single-audio", "trial_index": 93, "time_elapsed": 524855, "internal_node_id": "0.0-66.0"}}, {"uniqueid": "MTK0965:31QTRG6Q2UK41GLHYRP33OFXMDIYPZ", "current_trial": 94, "dateTime": 1512939606767, "trialdata": {"rt": -1000, "stimulus": "/static/audio/wordpool/DORM.wav", "key_press": -1, "type": "PRES_AUD", "word": "dorm", "wordID": 487, "conditions": [24, 1600, "a", 12000], "trial": 2, "serialpos": 5, "trial_type": "single-audio", "trial_index": 94, "time_elapsed": 527406, "internal_node_id": "0.0-67.0"}}, {"uniqueid": "MTK0965:31QTRG6Q2UK41GLHYRP33OFXMDIYPZ", "current_trial": 95, "dateTime": 1512939609233, "trialdata": {"rt": -1000, "stimulus": "/static/audio/wordpool/PENGUIN.wav", "key_press": -1, "type": "PRES_AUD", "word": "penguin", "wordID": 1043, "conditions": [24, 1600, "a", 12000], "trial": 2, "serialpos": 6, "trial_type": "single-audio", "trial_index": 95, "time_elapsed": 529871, "internal_node_id": "0.0-68.0"}}, {"uniqueid": "MTK0965:31QTRG6Q2UK41GLHYRP33OFXMDIYPZ", "current_trial": 96, "dateTime": 1512939611918, "trialdata": {"rt": -1000, "stimulus": "/static/audio/wordpool/INMATE.wav", "key_press": -1, "type": "PRES_AUD", "word": "inmate", "wordID": 737, "conditions": [24, 1600, "a", 12000], "trial": 2, "serialpos": 7, "trial_type": "single-audio", "trial_index": 96, "time_elapsed": 532557, "internal_node_id": "0.0-69.0"}}, {"uniqueid": "MTK0965:31QTRG6Q2UK41GLHYRP33OFXMDIYPZ", "current_trial": 97, "dateTime": 1512939614428, "trialdata": {"rt": -1000, "stimulus": "/static/audio/wordpool/MAILMAN.wav", "key_press": -1, "type": "PRES_AUD", "word": "mailman", "wordID": 857, "conditions": [24, 1600, "a", 12000], "trial": 2, "serialpos": 8, "trial_type": "single-audio", "trial_index": 97, "time_elapsed": 535067, "internal_node_id": "0.0-70.0"}}, {"uniqueid": "MTK0965:31QTRG6Q2UK41GLHYRP33OFXMDIYPZ", "current_trial": 98, "dateTime": 1512939617118, "trialdata": {"rt": -1000, "stimulus": "/static/audio/wordpool/SHRUB.wav", "key_press": -1, "type": "PRES_AUD", "word": "shrub", "wordID": 1298, "conditions": [24, 1600, "a", 12000], "trial": 2, "serialpos": 9, "trial_type": "single-audio", "trial_index": 98, "time_elapsed": 537757, "internal_node_id": "0.0-71.0"}}, {"uniqueid": "MTK0965:31QTRG6Q2UK41GLHYRP33OFXMDIYPZ", "current_trial": 99, "dateTime": 1512939619651, "trialdata": {"rt": -1000, "stimulus": "/static/audio/wordpool/FRAGRANCE.wav", "key_press": -1, "type": "PRES_AUD", "word": "fragrance", "wordID": 598, "conditions": [24, 1600, "a", 12000], "trial": 2, "serialpos": 10, "trial_type": "single-audio", "trial_index": 99, "time_elapsed": 540289, "internal_node_id": "0.0-72.0"}}, {"uniqueid": "MTK0965:31QTRG6Q2UK41GLHYRP33OFXMDIYPZ", "current_trial": 100, "dateTime": 1512939622143, "trialdata": {"rt": -1000, "stimulus": "/static/audio/wordpool/PEBBLE.wav", "key_press": -1, "type": "PRES_AUD", "word": "pebble", "wordID": 1034, "conditions": [24, 1600, "a", 12000], "trial": 2, "serialpos": 11, "trial_type": "single-audio", "trial_index": 100, "time_elapsed": 542781, "internal_node_id": "0.0-73.0"}}, {"uniqueid": "MTK0965:31QTRG6Q2UK41GLHYRP33OFXMDIYPZ", "current_trial": 101, "dateTime": 1512939624848, "trialdata": {"rt": -1000, "stimulus": "/static/audio/wordpool/RECEIPT.wav", "key_press": -1, "type": "PRES_AUD", "word": "receipt", "wordID": 1172, "conditions": [24, 1600, "a", 12000], "trial": 2, "serialpos": 12, "trial_type": "single-audio", "trial_index": 101, "time_elapsed": 545486, "internal_node_id": "0.0-74.0"}}, {"uniqueid": "MTK0965:31QTRG6Q2UK41GLHYRP33OFXMDIYPZ", "current_trial": 102, "dateTime": 1512939627425, "trialdata": {"rt": -1000, "stimulus": "/static/audio/wordpool/ANKLE.wav", "key_press": -1, "type": "PRES_AUD", "word": "ankle", "wordID": 23, "conditions": [24, 1600, "a", 12000], "trial": 2, "serialpos": 13, "trial_type": "single-audio", "trial_index": 102, "time_elapsed": 548064, "internal_node_id": "0.0-75.0"}}, {"uniqueid": "MTK0965:31QTRG6Q2UK41GLHYRP33OFXMDIYPZ", "current_trial": 103, "dateTime": 1512939629961, "trialdata": {"rt": -1000, "stimulus": "/static/audio/wordpool/FREEZER.wav", "key_press": -1, "type": "PRES_AUD", "word": "freezer", "wordID": 603, "conditions": [24, 1600, "a", 12000], "trial": 2, "serialpos": 14, "trial_type": "single-audio", "trial_index": 103, "time_elapsed": 550600, "internal_node_id": "0.0-76.0"}}, {"uniqueid": "MTK0965:31QTRG6Q2UK41GLHYRP33OFXMDIYPZ", "current_trial": 104, "dateTime": 1512939632420, "trialdata": {"rt": -1000, "stimulus": "/static/audio/wordpool/FINGER.wav", "key_press": -1, "type": "PRES_AUD", "word": "finger", "wordID": 566, "conditions": [24, 1600, "a", 12000], "trial": 2, "serialpos": 15, "trial_type": "single-audio", "trial_index": 104, "time_elapsed": 553058, "internal_node_id": "0.0-77.0"}}, {"uniqueid": "MTK0965:31QTRG6Q2UK41GLHYRP33OFXMDIYPZ", "current_trial": 105, "dateTime": 1512939635019, "trialdata": {"rt": -1000, "stimulus": "/static/audio/wordpool/WRIST.wav", "key_press": -1, "type": "PRES_AUD", "word": "wrist", "wordID": 1625, "conditions": [24, 1600, "a", 12000], "trial": 2, "serialpos": 16, "trial_type": "single-audio", "trial_index": 105, "time_elapsed": 555658, "internal_node_id": "0.0-78.0"}}, {"uniqueid": "MTK0965:31QTRG6Q2UK41GLHYRP33OFXMDIYPZ", "current_trial": 106, "dateTime": 1512939637539, "trialdata": {"rt": -1000, "stimulus": "/static/audio/wordpool/ELBOW.wav", "key_press": -1, "type": "PRES_AUD", "word": "elbow", "wordID": 519, "conditions": [24, 1600, "a", 12000], "trial": 2, "serialpos": 17, "trial_type": "single-audio", "trial_index": 106, "time_elapsed": 558178, "internal_node_id": "0.0-79.0"}}, {"uniqueid": "MTK0965:31QTRG6Q2UK41GLHYRP33OFXMDIYPZ", "current_trial": 107, "dateTime": 1512939639947, "trialdata": {"rt": -1000, "stimulus": "/static/audio/wordpool/TART.wav", "key_press": -1, "type": "PRES_AUD", "word": "tart", "wordID": 1435, "conditions": [24, 1600, "a", 12000], "trial": 2, "serialpos": 18, "trial_type": "single-audio", "trial_index": 107, "time_elapsed": 560586, "internal_node_id": "0.0-80.0"}}, {"uniqueid": "MTK0965:31QTRG6Q2UK41GLHYRP33OFXMDIYPZ", "current_trial": 108, "dateTime": 1512939642594, "trialdata": {"rt": -1000, "stimulus": "/static/audio/wordpool/CHURCH.wav", "key_press": -1, "type": "PRES_AUD", "word": "church", "wordID": 306, "conditions": [24, 1600, "a", 12000], "trial": 2, "serialpos": 19, "trial_type": "single-audio", "trial_index": 108, "time_elapsed": 563233, "internal_node_id": "0.0-81.0"}}, {"uniqueid": "MTK0965:31QTRG6Q2UK41GLHYRP33OFXMDIYPZ", "current_trial": 109, "dateTime": 1512939645044, "trialdata": {"rt": -1000, "stimulus": "/static/audio/wordpool/SILK.wav", "key_press": -1, "type": "PRES_AUD", "word": "silk", "wordID": 1306, "conditions": [24, 1600, "a", 12000], "trial": 2, "serialpos": 20, "trial_type": "single-audio", "trial_index": 109, "time_elapsed": 565683, "internal_node_id": "0.0-82.0"}}, {"uniqueid": "MTK0965:31QTRG6Q2UK41GLHYRP33OFXMDIYPZ", "current_trial": 110, "dateTime": 1512939647723, "trialdata": {"rt": -1000, "stimulus": "/static/audio/wordpool/SNAKE.wav", "key_press": -1, "type": "PRES_AUD", "word": "snake", "wordID": 1332, "conditions": [24, 1600, "a", 12000], "trial": 2, "serialpos": 21, "trial_type": "single-audio", "trial_index": 110, "time_elapsed": 568361, "internal_node_id": "0.0-83.0"}}, {"uniqueid": "MTK0965:31QTRG6Q2UK41GLHYRP33OFXMDIYPZ", "current_trial": 111, "dateTime": 1512939650231, "trialdata": {"rt": -1000, "stimulus": "/static/audio/wordpool/CABBAGE.wav", "key_press": -1, "type": "PRES_AUD", "word": "cabbage", "wordID": 209, "conditions": [24, 1600, "a", 12000], "trial": 2, "serialpos": 22, "trial_type": "single-audio", "trial_index": 111, "time_elapsed": 570866, "internal_node_id": "0.0-84.0"}}, {"uniqueid": "MTK0965:31QTRG6Q2UK41GLHYRP33OFXMDIYPZ", "current_trial": 112, "dateTime": 1512939652673, "trialdata": {"rt": -1000, "stimulus": "/static/audio/wordpool/VELVET.wav", "key_press": -1, "type": "PRES_AUD", "word": "velvet", "wordID": 1554, "conditions": [24, 1600, "a", 12000], "trial": 2, "serialpos": 23, "trial_type": "single-audio", "trial_index": 112, "time_elapsed": 573312, "internal_node_id": "0.0-85.0"}}, {"uniqueid": "MTK0965:31QTRG6Q2UK41GLHYRP33OFXMDIYPZ", "current_trial": 113, "dateTime": 1512939654031, "trialdata": {"rt": -1, "stimulus": "", "key_press": -1, "type": "PRE_RECALL_DELAY", "trial_type": "single-stim", "trial_index": 113, "time_elapsed": 574670, "internal_node_id": "0.0-86.0-0.0"}}, {"uniqueid": "MTK0965:31QTRG6Q2UK41GLHYRP33OFXMDIYPZ", "current_trial": 114, "dateTime": 1512939654537, "trialdata": {"rt": -1000, "stimulus": "/static/audio/400Hz.wav", "key_press": -1, "type": "PRE_RECALL_ALERT", "trial_type": "single-audio", "trial_index": 114, "time_elapsed": 575176, "internal_node_id": "0.0-87.0"}}, {"uniqueid": "MTK0965:31QTRG6Q2UK41GLHYRP33OFXMDIYPZ", "current_trial": 115, "dateTime": 1512939714548, "trialdata": {"rt": [2589, 3491, 4665, 5796, 7370, 8034, 15424, 18717, 23598], "recwords": ["cabbage", "silk", "church", "anle", "ankle", "wrist", "tart", "snake", "receipt"], "type": "FREE_RECALL", "conditions": [24, 1600, "a", 12000], "trial": 2, "trial_type": "free-recall", "trial_index": 115, "time_elapsed": 635182, "internal_node_id": "0.0-88.0-0.0"}}, {"uniqueid": "MTK0965:31QTRG6Q2UK41GLHYRP33OFXMDIYPZ", "current_trial": 116, "dateTime": 1512939720889, "trialdata": {"rt": 4339, "key_press": 77, "type": "INSTRUCTIONS", "trial_type": "text", "trial_index": 116, "time_elapsed": 641528, "internal_node_id": "0.0-89.0"}}, {"uniqueid": "MTK0965:31QTRG6Q2UK41GLHYRP33OFXMDIYPZ", "current_trial": 117, "dateTime": 1512939734896, "trialdata": {"rt": [1833, 3537, 7579, 9018, 10627, 11782], "responses": ["12", "16", "18", "10", "9", "12"], "num1": [2, 7, 5, 5, 3, 2, 4], "num2": [4, 1, 4, 4, 4, 7, 4], "num3": [6, 8, 9, 1, 2, 3, 4], "type": "DISTRACTOR", "conditions": [12, 1600, "a", 12000], "trial": 3, "trial_type": "math-distractor", "trial_index": 117, "time_elapsed": 655535, "internal_node_id": "0.0-90.0"}}, {"uniqueid": "MTK0965:31QTRG6Q2UK41GLHYRP33OFXMDIYPZ", "current_trial": 118, "dateTime": 1512939737900, "trialdata": {"rt": -1, "stimulus": "<p id=\"stim\">10</p>", "key_press": -1, "trial_type": "single-stim", "trial_index": 118, "time_elapsed": 658539, "internal_node_id": "0.0-91.0-0.0"}}, {"uniqueid": "MTK0965:31QTRG6Q2UK41GLHYRP33OFXMDIYPZ", "current_trial": 119, "dateTime": 1512939738904, "trialdata": {"rt": -1, "stimulus": "<p id=\"stim\">9</p>", "key_press": -1, "trial_type": "single-stim", "trial_index": 119, "time_elapsed": 659543, "internal_node_id": "0.0-91.0-1.0"}}, {"uniqueid": "MTK0965:31QTRG6Q2UK41GLHYRP33OFXMDIYPZ", "current_trial": 120, "dateTime": 1512939739907, "trialdata": {"rt": -1, "stimulus": "<p id=\"stim\">8</p>", "key_press": -1, "trial_type": "single-stim", "trial_index": 120, "time_elapsed": 660546, "internal_node_id": "0.0-91.0-2.0"}}, {"uniqueid": "MTK0965:31QTRG6Q2UK41GLHYRP33OFXMDIYPZ", "current_trial": 121, "dateTime": 1512939740909, "trialdata": {"rt": -1, "stimulus": "<p id=\"stim\">7</p>", "key_press": -1, "trial_type": "single-stim", "trial_index": 121, "time_elapsed": 661548, "internal_node_id": "0.0-91.0-3.0"}}, {"uniqueid": "MTK0965:31QTRG6Q2UK41GLHYRP33OFXMDIYPZ", "current_trial": 122, "dateTime": 1512939741912, "trialdata": {"rt": -1, "stimulus": "<p id=\"stim\">6</p>", "key_press": -1, "trial_type": "single-stim", "trial_index": 122, "time_elapsed": 662550, "internal_node_id": "0.0-91.0-4.0"}}, {"uniqueid": "MTK0965:31QTRG6Q2UK41GLHYRP33OFXMDIYPZ", "current_trial": 123, "dateTime": 1512939742915, "trialdata": {"rt": -1, "stimulus": "<p id=\"stim\">5</p>", "key_press": -1, "trial_type": "single-stim", "trial_index": 123, "time_elapsed": 663554, "internal_node_id": "0.0-91.0-5.0"}}, {"uniqueid": "MTK0965:31QTRG6Q2UK41GLHYRP33OFXMDIYPZ", "current_trial": 124, "dateTime": 1512939743918, "trialdata": {"rt": -1, "stimulus": "<p id=\"stim\">4</p>", "key_press": -1, "trial_type": "single-stim", "trial_index": 124, "time_elapsed": 664557, "internal_node_id": "0.0-91.0-6.0"}}, {"uniqueid": "MTK0965:31QTRG6Q2UK41GLHYRP33OFXMDIYPZ", "current_trial": 125, "dateTime": 1512939744920, "trialdata": {"rt": -1, "stimulus": "<p id=\"stim\">3</p>", "key_press": -1, "trial_type": "single-stim", "trial_index": 125, "time_elapsed": 665559, "internal_node_id": "0.0-91.0-7.0"}}, {"uniqueid": "MTK0965:31QTRG6Q2UK41GLHYRP33OFXMDIYPZ", "current_trial": 126, "dateTime": 1512939745922, "trialdata": {"rt": -1, "stimulus": "<p id=\"stim\">2</p>", "key_press": -1, "trial_type": "single-stim", "trial_index": 126, "time_elapsed": 666560, "internal_node_id": "0.0-91.0-8.0"}}, {"uniqueid": "MTK0965:31QTRG6Q2UK41GLHYRP33OFXMDIYPZ", "current_trial": 127, "dateTime": 1512939746923, "trialdata": {"rt": -1, "stimulus": "<p id=\"stim\">1</p>", "key_press": -1, "trial_type": "single-stim", "trial_index": 127, "time_elapsed": 667562, "internal_node_id": "0.0-91.0-9.0"}}, {"uniqueid": "MTK0965:31QTRG6Q2UK41GLHYRP33OFXMDIYPZ", "current_trial": 128, "dateTime": 1512939748425, "trialdata": {"rt": -1, "stimulus": "<p id=\"stim\">+</p>", "key_press": -1, "type": "FIXATION", "trial_type": "single-stim", "trial_index": 128, "time_elapsed": 669064, "internal_node_id": "0.0-92.0-0.0"}}, {"uniqueid": "MTK0965:31QTRG6Q2UK41GLHYRP33OFXMDIYPZ", "current_trial": 129, "dateTime": 1512939751118, "trialdata": {"rt": -1000, "stimulus": "/static/audio/wordpool/CREATURE.wav", "key_press": -1, "type": "PRES_AUD", "word": "creature", "wordID": 402, "conditions": [12, 1600, "a", 12000], "trial": 3, "serialpos": 0, "trial_type": "single-audio", "trial_index": 129, "time_elapsed": 671757, "internal_node_id": "0.0-93.0"}}, {"uniqueid": "MTK0965:31QTRG6Q2UK41GLHYRP33OFXMDIYPZ", "current_trial": 130, "dateTime": 1512939753784, "trialdata": {"rt": -1000, "stimulus": "/static/audio/wordpool/KEEPER.wav", "key_press": -1, "type": "PRES_AUD", "word": "keeper", "wordID": 768, "conditions": [12, 1600, "a", 12000], "trial": 3, "serialpos": 1, "trial_type": "single-audio", "trial_index": 130, "time_elapsed": 674423, "internal_node_id": "0.0-94.0"}}, {"uniqueid": "MTK0965:31QTRG6Q2UK41GLHYRP33OFXMDIYPZ", "current_trial": 131, "dateTime": 1512939756513, "trialdata": {"rt": -1000, "stimulus": "/static/audio/wordpool/MISTER.wav", "key_press": -1, "type": "PRES_AUD", "word": "mister", "wordID": 900, "conditions": [12, 1600, "a", 12000], "trial": 3, "serialpos": 2, "trial_type": "single-audio", "trial_index": 131, "time_elapsed": 677152, "internal_node_id": "0.0-95.0"}}, {"uniqueid": "MTK0965:31QTRG6Q2UK41GLHYRP33OFXMDIYPZ", "current_trial": 132, "dateTime": 1512939759052, "trialdata": {"rt": -1000, "stimulus": "/static/audio/wordpool/LONDON.wav", "key_press": -1, "type": "PRES_AUD", "word": "london", "wordID": 842, "conditions": [12, 1600, "a", 12000], "trial": 3, "serialpos": 3, "trial_type": "single-audio", "trial_index": 132, "time_elapsed": 679691, "internal_node_id": "0.0-96.0"}}, {"uniqueid": "MTK0965:31QTRG6Q2UK41GLHYRP33OFXMDIYPZ", "current_trial": 133, "dateTime": 1512939761679, "trialdata": {"rt": -1000, "stimulus": "/static/audio/wordpool/DRAGON.wav", "key_press": -1, "type": "PRES_AUD", "word": "dragon", "wordID": 491, "conditions": [12, 1600, "a", 12000], "trial": 3, "serialpos": 4, "trial_type": "single-audio", "trial_index": 133, "time_elapsed": 682318, "internal_node_id": "0.0-97.0"}}, {"uniqueid": "MTK0965:31QTRG6Q2UK41GLHYRP33OFXMDIYPZ", "current_trial": 134, "dateTime": 1512939764132, "trialdata": {"rt": -1000, "stimulus": "/static/audio/wordpool/MASK.wav", "key_press": -1, "type": "PRES_AUD", "word": "mask", "wordID": 875, "conditions": [12, 1600, "a", 12000], "trial": 3, "serialpos": 5, "trial_type": "single-audio", "trial_index": 134, "time_elapsed": 684771, "internal_node_id": "0.0-98.0"}}, {"uniqueid": "MTK0965:31QTRG6Q2UK41GLHYRP33OFXMDIYPZ", "current_trial": 135, "dateTime": 1512939766707, "trialdata": {"rt": -1000, "stimulus": "/static/audio/wordpool/CASHIER.wav", "key_press": -1, "type": "PRES_AUD", "word": "cashier", "wordID": 253, "conditions": [12, 1600, "a", 12000], "trial": 3, "serialpos": 6, "trial_type": "single-audio", "trial_index": 135, "time_elapsed": 687346, "internal_node_id": "0.0-99.0"}}, {"uniqueid": "MTK0965:31QTRG6Q2UK41GLHYRP33OFXMDIYPZ", "current_trial": 136, "dateTime": 1512939769251, "trialdata": {"rt": -1000, "stimulus": "/static/audio/wordpool/GALLON.wav", "key_press": -1, "type": "PRES_AUD", "word": "gallon", "wordID": 617, "conditions": [12, 1600, "a", 12000], "trial": 3, "serialpos": 7, "trial_type": "single-audio", "trial_index": 136, "time_elapsed": 689890, "internal_node_id": "0.0-100.0"}}, {"uniqueid": "MTK0965:31QTRG6Q2UK41GLHYRP33OFXMDIYPZ", "current_trial": 137, "dateTime": 1512939771742, "trialdata": {"rt": -1000, "stimulus": "/static/audio/wordpool/BARREL.wav", "key_press": -1, "type": "PRES_AUD", "word": "barrel", "wordID": 90, "conditions": [12, 1600, "a", 12000], "trial": 3, "serialpos": 8, "trial_type": "single-audio", "trial_index": 137, "time_elapsed": 692381, "internal_node_id": "0.0-101.0"}}, {"uniqueid": "MTK0965:31QTRG6Q2UK41GLHYRP33OFXMDIYPZ", "current_trial": 138, "dateTime": 1512939774146, "trialdata": {"rt": -1000, "stimulus": "/static/audio/wordpool/VALLEY.wav", "key_press": -1, "type": "PRES_AUD", "word": "valley", "wordID": 1544, "conditions": [12, 1600, "a", 12000], "trial": 3, "serialpos": 9, "trial_type": "single-audio", "trial_index": 138, "time_elapsed": 694785, "internal_node_id": "0.0-102.0"}}, {"uniqueid": "MTK0965:31QTRG6Q2UK41GLHYRP33OFXMDIYPZ", "current_trial": 139, "dateTime": 1512939776756, "trialdata": {"rt": -1000, "stimulus": "/static/audio/wordpool/JUDGE.wav", "key_press": -1, "type": "PRES_AUD", "word": "judge", "wordID": 760, "conditions": [12, 1600, "a", 12000], "trial": 3, "serialpos": 10, "trial_type": "single-audio", "trial_index": 139, "time_elapsed": 697395, "internal_node_id": "0.0-103.0"}}, {"uniqueid": "MTK0965:31QTRG6Q2UK41GLHYRP33OFXMDIYPZ", "current_trial": 140, "dateTime": 1512939779231, "trialdata": {"rt": -1000, "stimulus": "/static/audio/wordpool/CRAB.wav", "key_press": -1, "type": "PRES_AUD", "word": "crab", "wordID": 396, "conditions": [12, 1600, "a", 12000], "trial": 3, "serialpos": 11, "trial_type": "single-audio", "trial_index": 140, "time_elapsed": 699870, "internal_node_id": "0.0-104.0"}}, {"uniqueid": "MTK0965:31QTRG6Q2UK41GLHYRP33OFXMDIYPZ", "current_trial": 141, "dateTime": 1512939780566, "trialdata": {"rt": -1, "stimulus": "", "key_press": -1, "type": "PRE_RECALL_DELAY", "trial_type": "single-stim", "trial_index": 141, "time_elapsed": 701205, "internal_node_id": "0.0-105.0-0.0"}}, {"uniqueid": "MTK0965:31QTRG6Q2UK41GLHYRP33OFXMDIYPZ", "current_trial": 142, "dateTime": 1512939781071, "trialdata": {"rt": -1000, "stimulus": "/static/audio/400Hz.wav", "key_press": -1, "type": "PRE_RECALL_ALERT", "trial_type": "single-audio", "trial_index": 142, "time_elapsed": 701709, "internal_node_id": "0.0-106.0"}}, {"uniqueid": "MTK0965:31QTRG6Q2UK41GLHYRP33OFXMDIYPZ", "current_trial": 143, "dateTime": 1512939841083, "trialdata": {"rt": [2477, 3248, 4016, 5581, 6673, 7322, 31805], "recwords": ["judge", "crab", "valley", "barrel", "gallon", "cashier", "london"], "type": "FREE_RECALL", "conditions": [12, 1600, "a", 12000], "trial": 3, "trial_type": "free-recall", "trial_index": 143, "time_elapsed": 761715, "internal_node_id": "0.0-107.0-0.0"}}, {"uniqueid": "MTK0965:31QTRG6Q2UK41GLHYRP33OFXMDIYPZ", "current_trial": 144, "dateTime": 1512939843978, "trialdata": {"rt": 892, "key_press": 13, "type": "INSTRUCTIONS", "trial_type": "text", "trial_index": 144, "time_elapsed": 764617, "internal_node_id": "0.0-108.0"}}, {"uniqueid": "MTK0965:31QTRG6Q2UK41GLHYRP33OFXMDIYPZ", "current_trial": 145, "dateTime": 1512939869985, "trialdata": {"rt": [3841, 5080, 6244, 8980, 10308, 14569, 17543, 18950, 20885, 22669], "responses": ["22", "15", "11", "17", "7", "17", "19", "8", "15", "16"], "num1": [8, 5, 1, 5, 5, 6, 7, 4, 4, 8, 2], "num2": [5, 7, 9, 9, 1, 2, 6, 2, 8, 4, 5], "num3": [9, 3, 1, 3, 1, 9, 6, 2, 3, 8, 1], "type": "DISTRACTOR", "conditions": [24, 800, "v", 24000], "trial": 4, "trial_type": "math-distractor", "trial_index": 145, "time_elapsed": 790623, "internal_node_id": "0.0-109.0"}}, {"uniqueid": "MTK0965:31QTRG6Q2UK41GLHYRP33OFXMDIYPZ", "current_trial": 146, "dateTime": 1512939872988, "trialdata": {"rt": -1, "stimulus": "<p id=\"stim\">10</p>", "key_press": -1, "trial_type": "single-stim", "trial_index": 146, "time_elapsed": 793627, "internal_node_id": "0.0-110.0-0.0"}}, {"uniqueid": "MTK0965:31QTRG6Q2UK41GLHYRP33OFXMDIYPZ", "current_trial": 147, "dateTime": 1512939873990, "trialdata": {"rt": -1, "stimulus": "<p id=\"stim\">9</p>", "key_press": -1, "trial_type": "single-stim", "trial_index": 147, "time_elapsed": 794629, "internal_node_id": "0.0-110.0-1.0"}}, {"uniqueid": "MTK0965:31QTRG6Q2UK41GLHYRP33OFXMDIYPZ", "current_trial": 148, "dateTime": 1512939874992, "trialdata": {"rt": -1, "stimulus": "<p id=\"stim\">8</p>", "key_press": -1, "trial_type": "single-stim", "trial_index": 148, "time_elapsed": 795631, "internal_node_id": "0.0-110.0-2.0"}}, {"uniqueid": "MTK0965:31QTRG6Q2UK41GLHYRP33OFXMDIYPZ", "current_trial": 149, "dateTime": 1512939875997, "trialdata": {"rt": -1, "stimulus": "<p id=\"stim\">7</p>", "key_press": -1, "trial_type": "single-stim", "trial_index": 149, "time_elapsed": 796636, "internal_node_id": "0.0-110.0-3.0"}}, {"uniqueid": "MTK0965:31QTRG6Q2UK41GLHYRP33OFXMDIYPZ", "current_trial": 150, "dateTime": 1512939876999, "trialdata": {"rt": -1, "stimulus": "<p id=\"stim\">6</p>", "key_press": -1, "trial_type": "single-stim", "trial_index": 150, "time_elapsed": 797638, "internal_node_id": "0.0-110.0-4.0"}}, {"uniqueid": "MTK0965:31QTRG6Q2UK41GLHYRP33OFXMDIYPZ", "current_trial": 151, "dateTime": 1512939878005, "trialdata": {"rt": -1, "stimulus": "<p id=\"stim\">5</p>", "key_press": -1, "trial_type": "single-stim", "trial_index": 151, "time_elapsed": 798643, "internal_node_id": "0.0-110.0-5.0"}}, {"uniqueid": "MTK0965:31QTRG6Q2UK41GLHYRP33OFXMDIYPZ", "current_trial": 152, "dateTime": 1512939879008, "trialdata": {"rt": -1, "stimulus": "<p id=\"stim\">4</p>", "key_press": -1, "trial_type": "single-stim", "trial_index": 152, "time_elapsed": 799647, "internal_node_id": "0.0-110.0-6.0"}}, {"uniqueid": "MTK0965:31QTRG6Q2UK41GLHYRP33OFXMDIYPZ", "current_trial": 153, "dateTime": 1512939880011, "trialdata": {"rt": -1, "stimulus": "<p id=\"stim\">3</p>", "key_press": -1, "trial_type": "single-stim", "trial_index": 153, "time_elapsed": 800650, "internal_node_id": "0.0-110.0-7.0"}}, {"uniqueid": "MTK0965:31QTRG6Q2UK41GLHYRP33OFXMDIYPZ", "current_trial": 154, "dateTime": 1512939881014, "trialdata": {"rt": -1, "stimulus": "<p id=\"stim\">2</p>", "key_press": -1, "trial_type": "single-stim", "trial_index": 154, "time_elapsed": 801653, "internal_node_id": "0.0-110.0-8.0"}}, {"uniqueid": "MTK0965:31QTRG6Q2UK41GLHYRP33OFXMDIYPZ", "current_trial": 155, "dateTime": 1512939882018, "trialdata": {"rt": -1, "stimulus": "<p id=\"stim\">1</p>", "key_press": -1, "trial_type": "single-stim", "trial_index": 155, "time_elapsed": 802656, "internal_node_id": "0.0-110.0-9.0"}}, {"uniqueid": "MTK0965:31QTRG6Q2UK41GLHYRP33OFXMDIYPZ", "current_trial": 156, "dateTime": 1512939883521, "trialdata": {"rt": -1, "stimulus": "<p id=\"stim\">+</p>", "key_press": -1, "type": "FIXATION", "trial_type": "single-stim", "trial_index": 156, "time_elapsed": 804160, "internal_node_id": "0.0-111.0-0.0"}}, {"uniqueid": "MTK0965:31QTRG6Q2UK41GLHYRP33OFXMDIYPZ", "current_trial": 157, "dateTime": 1512939884323, "trialdata": {"rt": -1, "stimulus": "<p id=\"stim\">DRESS</p>", "key_press": -1, "type": "PRES_VIS", "word": "dress", "wordID": 494, "conditions": [24, 800, "v", 24000], "trial": 4, "serialpos": 0, "trial_type": "single-stim", "trial_index": 157, "time_elapsed": 804962, "internal_node_id": "0.0-112.0"}}, {"uniqueid": "MTK0965:31QTRG6Q2UK41GLHYRP33OFXMDIYPZ", "current_trial": 158, "dateTime": 1512939886086, "trialdata": {"rt": -1, "stimulus": "<p id=\"stim\">WITNESS</p>", "key_press": -1, "type": "PRES_VIS", "word": "witness", "wordID": 1617, "conditions": [24, 800, "v", 24000], "trial": 4, "serialpos": 1, "trial_type": "single-stim", "trial_index": 158, "time_elapsed": 806725, "internal_node_id": "0.0-113.0"}}, {"uniqueid": "MTK0965:31QTRG6Q2UK41GLHYRP33OFXMDIYPZ", "current_trial": 159, "dateTime": 1512939887968, "trialdata": {"rt": -1, "stimulus": "<p id=\"stim\">DRIVER</p>", "key_press": -1, "type": "PRES_VIS", "word": "driver", "wordID": 498, "conditions": [24, 800, "v", 24000], "trial": 4, "serialpos": 2, "trial_type": "single-stim", "trial_index": 159, "time_elapsed": 808607, "internal_node_id": "0.0-114.0"}}, {"uniqueid": "MTK0965:31QTRG6Q2UK41GLHYRP33OFXMDIYPZ", "current_trial": 160, "dateTime": 1512939889880, "trialdata": {"rt": -1, "stimulus": "<p id=\"stim\">WAITRESS</p>", "key_press": -1, "type": "PRES_VIS", "word": "waitress", "wordID": 1580, "conditions": [24, 800, "v", 24000], "trial": 4, "serialpos": 3, "trial_type": "single-stim", "trial_index": 160, "time_elapsed": 810519, "internal_node_id": "0.0-115.0"}}, {"uniqueid": "MTK0965:31QTRG6Q2UK41GLHYRP33OFXMDIYPZ", "current_trial": 161, "dateTime": 1512939891651, "trialdata": {"rt": -1, "stimulus": "<p id=\"stim\">OFFICE</p>", "key_press": -1, "type": "PRES_VIS", "word": "office", "wordID": 971, "conditions": [24, 800, "v", 24000], "trial": 4, "serialpos": 4, "trial_type": "single-stim", "trial_index": 161, "time_elapsed": 812290, "internal_node_id": "0.0-116.0"}}, {"uniqueid": "MTK0965:31QTRG6Q2UK41GLHYRP33OFXMDIYPZ", "current_trial": 162, "dateTime": 1512939893349, "trialdata": {"rt": -1, "stimulus": "<p id=\"stim\">SWIMMER</p>", "key_press": -1, "type": "PRES_VIS", "word": "swimmer", "wordID": 1419, "conditions": [24, 800, "v", 24000], "trial": 4, "serialpos": 5, "trial_type": "single-stim", "trial_index": 162, "time_elapsed": 813987, "internal_node_id": "0.0-117.0"}}, {"uniqueid": "MTK0965:31QTRG6Q2UK41GLHYRP33OFXMDIYPZ", "current_trial": 163, "dateTime": 1512939894966, "trialdata": {"rt": -1, "stimulus": "<p id=\"stim\">FRUIT</p>", "key_press": -1, "type": "PRES_VIS", "word": "fruit", "wordID": 609, "conditions": [24, 800, "v", 24000], "trial": 4, "serialpos": 6, "trial_type": "single-stim", "trial_index": 163, "time_elapsed": 815605, "internal_node_id": "0.0-118.0"}}, {"uniqueid": "MTK0965:31QTRG6Q2UK41GLHYRP33OFXMDIYPZ", "current_trial": 164, "dateTime": 1512939896779, "trialdata": {"rt": -1, "stimulus": "<p id=\"stim\">CITRUS</p>", "key_press": -1, "type": "PRES_VIS", "word": "citrus", "wordID": 312, "conditions": [24, 800, "v", 24000], "trial": 4, "serialpos": 7, "trial_type": "single-stim", "trial_index": 164, "time_elapsed": 817418, "internal_node_id": "0.0-119.0"}}, {"uniqueid": "MTK0965:31QTRG6Q2UK41GLHYRP33OFXMDIYPZ", "current_trial": 165, "dateTime": 1512939898563, "trialdata": {"rt": -1, "stimulus": "<p id=\"stim\">SCARF</p>", "key_press": -1, "type": "PRES_VIS", "word": "scarf", "wordID": 1245, "conditions": [24, 800, "v", 24000], "trial": 4, "serialpos": 8, "trial_type": "single-stim", "trial_index": 165, "time_elapsed": 819201, "internal_node_id": "0.0-120.0"}}, {"uniqueid": "MTK0965:31QTRG6Q2UK41GLHYRP33OFXMDIYPZ", "current_trial": 166, "dateTime": 1512939900521, "trialdata": {"rt": -1, "stimulus": "<p id=\"stim\">SERVANT</p>", "key_press": -1, "type": "PRES_VIS", "word": "servant", "wordID": 1270, "conditions": [24, 800, "v", 24000], "trial": 4, "serialpos": 9, "trial_type": "single-stim", "trial_index": 166, "time_elapsed": 821160, "internal_node_id": "0.0-121.0"}}, {"uniqueid": "MTK0965:31QTRG6Q2UK41GLHYRP33OFXMDIYPZ", "current_trial": 167, "dateTime": 1512939902218, "trialdata": {"rt": -1, "stimulus": "<p id=\"stim\">RECORD</p>", "key_press": -1, "type": "PRES_VIS", "word": "record", "wordID": 1175, "conditions": [24, 800, "v", 24000], "trial": 4, "serialpos": 10, "trial_type": "single-stim", "trial_index": 167, "time_elapsed": 822857, "internal_node_id": "0.0-122.0"}}, {"uniqueid": "MTK0965:31QTRG6Q2UK41GLHYRP33OFXMDIYPZ", "current_trial": 168, "dateTime": 1512939904102, "trialdata": {"rt": -1, "stimulus": "<p id=\"stim\">SHELTER</p>", "key_press": -1, "type": "PRES_VIS", "word": "shelter", "wordID": 1281, "conditions": [24, 800, "v", 24000], "trial": 4, "serialpos": 11, "trial_type": "single-stim", "trial_index": 168, "time_elapsed": 824741, "internal_node_id": "0.0-123.0"}}, {"uniqueid": "MTK0965:31QTRG6Q2UK41GLHYRP33OFXMDIYPZ", "current_trial": 169, "dateTime": 1512939905795, "trialdata": {"rt": -1, "stimulus": "<p id=\"stim\">PASTRY</p>", "key_press": -1, "type": "PRES_VIS", "word": "pastry", "wordID": 1021, "conditions": [24, 800, "v", 24000], "trial": 4, "serialpos": 12, "trial_type": "single-stim", "trial_index": 169, "time_elapsed": 826434, "internal_node_id": "0.0-124.0"}}, {"uniqueid": "MTK0965:31QTRG6Q2UK41GLHYRP33OFXMDIYPZ", "current_trial": 170, "dateTime": 1512939907557, "trialdata": {"rt": -1, "stimulus": "<p id=\"stim\">COUNTRY</p>", "key_press": -1, "type": "PRES_VIS", "word": "country", "wordID": 387, "conditions": [24, 800, "v", 24000], "trial": 4, "serialpos": 13, "trial_type": "single-stim", "trial_index": 170, "time_elapsed": 828194, "internal_node_id": "0.0-125.0"}}, {"uniqueid": "MTK0965:31QTRG6Q2UK41GLHYRP33OFXMDIYPZ", "current_trial": 171, "dateTime": 1512939909196, "trialdata": {"rt": -1, "stimulus": "<p id=\"stim\">BRANCH</p>", "key_press": -1, "type": "PRES_VIS", "word": "branch", "wordID": 167, "conditions": [24, 800, "v", 24000], "trial": 4, "serialpos": 14, "trial_type": "single-stim", "trial_index": 171, "time_elapsed": 829835, "internal_node_id": "0.0-126.0"}}, {"uniqueid": "MTK0965:31QTRG6Q2UK41GLHYRP33OFXMDIYPZ", "current_trial": 172, "dateTime": 1512939910870, "trialdata": {"rt": -1, "stimulus": "<p id=\"stim\">CANAL</p>", "key_press": -1, "type": "PRES_VIS", "word": "canal", "wordID": 225, "conditions": [24, 800, "v", 24000], "trial": 4, "serialpos": 15, "trial_type": "single-stim", "trial_index": 172, "time_elapsed": 831509, "internal_node_id": "0.0-127.0"}}, {"uniqueid": "MTK0965:31QTRG6Q2UK41GLHYRP33OFXMDIYPZ", "current_trial": 173, "dateTime": 1512939912787, "trialdata": {"rt": -1, "stimulus": "<p id=\"stim\">BLADE</p>", "key_press": -1, "type": "PRES_VIS", "word": "blade", "wordID": 133, "conditions": [24, 800, "v", 24000], "trial": 4, "serialpos": 16, "trial_type": "single-stim", "trial_index": 173, "time_elapsed": 833425, "internal_node_id": "0.0-128.0"}}, {"uniqueid": "MTK0965:31QTRG6Q2UK41GLHYRP33OFXMDIYPZ", "current_trial": 174, "dateTime": 1512939914534, "trialdata": {"rt": -1, "stimulus": "<p id=\"stim\">NIGHTGOWN</p>", "key_press": -1, "type": "PRES_VIS", "word": "nightgown", "wordID": 952, "conditions": [24, 800, "v", 24000], "trial": 4, "serialpos": 17, "trial_type": "single-stim", "trial_index": 174, "time_elapsed": 835173, "internal_node_id": "0.0-129.0"}}, {"uniqueid": "MTK0965:31QTRG6Q2UK41GLHYRP33OFXMDIYPZ", "current_trial": 175, "dateTime": 1512939916381, "trialdata": {"rt": -1, "stimulus": "<p id=\"stim\">TUTU</p>", "key_press": -1, "type": "PRES_VIS", "word": "tutu", "wordID": 1523, "conditions": [24, 800, "v", 24000], "trial": 4, "serialpos": 18, "trial_type": "single-stim", "trial_index": 175, "time_elapsed": 837020, "internal_node_id": "0.0-130.0"}}, {"uniqueid": "MTK0965:31QTRG6Q2UK41GLHYRP33OFXMDIYPZ", "current_trial": 176, "dateTime": 1512939918221, "trialdata": {"rt": -1, "stimulus": "<p id=\"stim\">TWEEZERS</p>", "key_press": -1, "type": "PRES_VIS", "word": "tweezers", "wordID": 1525, "conditions": [24, 800, "v", 24000], "trial": 4, "serialpos": 19, "trial_type": "single-stim", "trial_index": 176, "time_elapsed": 838860, "internal_node_id": "0.0-131.0"}}, {"uniqueid": "MTK0965:31QTRG6Q2UK41GLHYRP33OFXMDIYPZ", "current_trial": 177, "dateTime": 1512939919848, "trialdata": {"rt": -1, "stimulus": "<p id=\"stim\">KIDNEY</p>", "key_press": -1, "type": "PRES_VIS", "word": "kidney", "wordID": 775, "conditions": [24, 800, "v", 24000], "trial": 4, "serialpos": 20, "trial_type": "single-stim", "trial_index": 177, "time_elapsed": 840486, "internal_node_id": "0.0-132.0"}}, {"uniqueid": "MTK0965:31QTRG6Q2UK41GLHYRP33OFXMDIYPZ", "current_trial": 178, "dateTime": 1512939921454, "trialdata": {"rt": -1, "stimulus": "<p id=\"stim\">BUCKET</p>", "key_press": -1, "type": "PRES_VIS", "word": "bucket", "wordID": 183, "conditions": [24, 800, "v", 24000], "trial": 4, "serialpos": 21, "trial_type": "single-stim", "trial_index": 178, "time_elapsed": 842093, "internal_node_id": "0.0-133.0"}}, {"uniqueid": "MTK0965:31QTRG6Q2UK41GLHYRP33OFXMDIYPZ", "current_trial": 179, "dateTime": 1512939923146, "trialdata": {"rt": -1, "stimulus": "<p id=\"stim\">KNIFE</p>", "key_press": -1, "type": "PRES_VIS", "word": "knife", "wordID": 784, "conditions": [24, 800, "v", 24000], "trial": 4, "serialpos": 22, "trial_type": "single-stim", "trial_index": 179, "time_elapsed": 843784, "internal_node_id": "0.0-134.0"}}, {"uniqueid": "MTK0965:31QTRG6Q2UK41GLHYRP33OFXMDIYPZ", "current_trial": 180, "dateTime": 1512939924998, "trialdata": {"rt": -1, "stimulus": "<p id=\"stim\">HONEY</p>", "key_press": -1, "type": "PRES_VIS", "word": "honey", "wordID": 712, "conditions": [24, 800, "v", 24000], "trial": 4, "serialpos": 23, "trial_type": "single-stim", "trial_index": 180, "time_elapsed": 845637, "internal_node_id": "0.0-135.0"}}, {"uniqueid": "MTK0965:31QTRG6Q2UK41GLHYRP33OFXMDIYPZ", "current_trial": 181, "dateTime": 1512939927525, "trialdata": {"rt": -1, "stimulus": "", "key_press": -1, "type": "PRE_RECALL_DELAY", "trial_type": "single-stim", "trial_index": 181, "time_elapsed": 848164, "internal_node_id": "0.0-136.0-0.0"}}, {"uniqueid": "MTK0965:31QTRG6Q2UK41GLHYRP33OFXMDIYPZ", "current_trial": 182, "dateTime": 1512939928027, "trialdata": {"rt": -1000, "stimulus": "/static/audio/400Hz.wav", "key_press": -1, "type": "PRE_RECALL_ALERT", "trial_type": "single-audio", "trial_index": 182, "time_elapsed": 848666, "internal_node_id": "0.0-137.0"}}, {"uniqueid": "MTK0965:31QTRG6Q2UK41GLHYRP33OFXMDIYPZ", "current_trial": 183, "dateTime": 1512939988040, "trialdata": {"rt": [1577, 2437, 3676, 5146, 6346, 28081, 31149], "recwords": ["knife", "honey", "shelter", "tutu", "nightgown", "canal", "citrus"], "type": "FREE_RECALL", "conditions": [24, 800, "v", 24000], "trial": 4, "trial_type": "free-recall", "trial_index": 183, "time_elapsed": 908673, "internal_node_id": "0.0-138.0-0.0"}}, {"uniqueid": "MTK0965:31QTRG6Q2UK41GLHYRP33OFXMDIYPZ", "current_trial": 184, "dateTime": 1512939990914, "trialdata": {"rt": 871, "key_press": 32, "type": "INSTRUCTIONS", "trial_type": "text", "trial_index": 184, "time_elapsed": 911552, "internal_node_id": "0.0-139.0"}}, {"uniqueid": "MTK0965:31QTRG6Q2UK41GLHYRP33OFXMDIYPZ", "current_trial": 185, "dateTime": 1512940004922, "trialdata": {"rt": [2845, 5152, 6195, 8263, 10085, 11671], "responses": ["13", "17", "9", "20", "16", "14"], "num1": [4, 8, 3, 6, 6, 5, 5], "num2": [5, 4, 3, 7, 8, 1, 7], "num3": [4, 5, 3, 7, 2, 8, 9], "type": "DISTRACTOR", "conditions": [12, 800, "a", 12000], "trial": 5, "trial_type": "math-distractor", "trial_index": 185, "time_elapsed": 925561, "internal_node_id": "0.0-140.0"}}, {"uniqueid": "MTK0965:31QTRG6Q2UK41GLHYRP33OFXMDIYPZ", "current_trial": 186, "dateTime": 1512940007925, "trialdata": {"rt": -1, "stimulus": "<p id=\"stim\">10</p>", "key_press": -1, "trial_type": "single-stim", "trial_index": 186, "time_elapsed": 928564, "internal_node_id": "0.0-141.0-0.0"}}, {"uniqueid": "MTK0965:31QTRG6Q2UK41GLHYRP33OFXMDIYPZ", "current_trial": 187, "dateTime": 1512940008928, "trialdata": {"rt": -1, "stimulus": "<p id=\"stim\">9</p>", "key_press": -1, "trial_type": "single-stim", "trial_index": 187, "time_elapsed": 929566, "internal_node_id": "0.0-141.0-1.0"}}, {"uniqueid": "MTK0965:31QTRG6Q2UK41GLHYRP33OFXMDIYPZ", "current_trial": 188, "dateTime": 1512940009930, "trialdata": {"rt": -1, "stimulus": "<p id=\"stim\">8</p>", "key_press": -1, "trial_type": "single-stim", "trial_index": 188, "time_elapsed": 930569, "internal_node_id": "0.0-141.0-2.0"}}, {"uniqueid": "MTK0965:31QTRG6Q2UK41GLHYRP33OFXMDIYPZ", "current_trial": 189, "dateTime": 1512940010933, "trialdata": {"rt": -1, "stimulus": "<p id=\"stim\">7</p>", "key_press": -1, "trial_type": "single-stim", "trial_index": 189, "time_elapsed": 931572, "internal_node_id": "0.0-141.0-3.0"}}, {"uniqueid": "MTK0965:31QTRG6Q2UK41GLHYRP33OFXMDIYPZ", "current_trial": 190, "dateTime": 1512940011936, "trialdata": {"rt": -1, "stimulus": "<p id=\"stim\">6</p>", "key_press": -1, "trial_type": "single-stim", "trial_index": 190, "time_elapsed": 932575, "internal_node_id": "0.0-141.0-4.0"}}, {"uniqueid": "MTK0965:31QTRG6Q2UK41GLHYRP33OFXMDIYPZ", "current_trial": 191, "dateTime": 1512940012938, "trialdata": {"rt": -1, "stimulus": "<p id=\"stim\">5</p>", "key_press": -1, "trial_type": "single-stim", "trial_index": 191, "time_elapsed": 933577, "internal_node_id": "0.0-141.0-5.0"}}, {"uniqueid": "MTK0965:31QTRG6Q2UK41GLHYRP33OFXMDIYPZ", "current_trial": 192, "dateTime": 1512940013941, "trialdata": {"rt": -1, "stimulus": "<p id=\"stim\">4</p>", "key_press": -1, "trial_type": "single-stim", "trial_index": 192, "time_elapsed": 934580, "internal_node_id": "0.0-141.0-6.0"}}, {"uniqueid": "MTK0965:31QTRG6Q2UK41GLHYRP33OFXMDIYPZ", "current_trial": 193, "dateTime": 1512940014943, "trialdata": {"rt": -1, "stimulus": "<p id=\"stim\">3</p>", "key_press": -1, "trial_type": "single-stim", "trial_index": 193, "time_elapsed": 935582, "internal_node_id": "0.0-141.0-7.0"}}, {"uniqueid": "MTK0965:31QTRG6Q2UK41GLHYRP33OFXMDIYPZ", "current_trial": 194, "dateTime": 1512940015946, "trialdata": {"rt": -1, "stimulus": "<p id=\"stim\">2</p>", "key_press": -1, "trial_type": "single-stim", "trial_index": 194, "time_elapsed": 936585, "internal_node_id": "0.0-141.0-8.0"}}, {"uniqueid": "MTK0965:31QTRG6Q2UK41GLHYRP33OFXMDIYPZ", "current_trial": 195, "dateTime": 1512940016948, "trialdata": {"rt": -1, "stimulus": "<p id=\"stim\">1</p>", "key_press": -1, "trial_type": "single-stim", "trial_index": 195, "time_elapsed": 937587, "internal_node_id": "0.0-141.0-9.0"}}, {"uniqueid": "MTK0965:31QTRG6Q2UK41GLHYRP33OFXMDIYPZ", "current_trial": 196, "dateTime": 1512940018450, "trialdata": {"rt": -1, "stimulus": "<p id=\"stim\">+</p>", "key_press": -1, "type": "FIXATION", "trial_type": "single-stim", "trial_index": 196, "time_elapsed": 939089, "internal_node_id": "0.0-142.0-0.0"}}, {"uniqueid": "MTK0965:31QTRG6Q2UK41GLHYRP33OFXMDIYPZ", "current_trial": 197, "dateTime": 1512940020291, "trialdata": {"rt": -1000, "stimulus": "/static/audio/wordpool/SODA.wav", "key_press": -1, "type": "PRES_AUD", "word": "soda", "wordID": 1340, "conditions": [12, 800, "a", 12000], "trial": 5, "serialpos": 0, "trial_type": "single-audio", "trial_index": 197, "time_elapsed": 940930, "internal_node_id": "0.0-143.0"}}, {"uniqueid": "MTK0965:31QTRG6Q2UK41GLHYRP33OFXMDIYPZ", "current_trial": 198, "dateTime": 1512940022080, "trialdata": {"rt": -1000, "stimulus": "/static/audio/wordpool/PERCH.wav", "key_press": -1, "type": "PRES_AUD", "word": "perch", "wordID": 1047, "conditions": [12, 800, "a", 12000], "trial": 5, "serialpos": 1, "trial_type": "single-audio", "trial_index": 198, "time_elapsed": 942719, "internal_node_id": "0.0-144.0"}}, {"uniqueid": "MTK0965:31QTRG6Q2UK41GLHYRP33OFXMDIYPZ", "current_trial": 199, "dateTime": 1512940023732, "trialdata": {"rt": -1000, "stimulus": "/static/audio/wordpool/SCULPTURE.wav", "key_press": -1, "type": "PRES_AUD", "word": "sculpture", "wordID": 1257, "conditions": [12, 800, "a", 12000], "trial": 5, "serialpos": 2, "trial_type": "single-audio", "trial_index": 199, "time_elapsed": 944371, "internal_node_id": "0.0-145.0"}}, {"uniqueid": "MTK0965:31QTRG6Q2UK41GLHYRP33OFXMDIYPZ", "current_trial": 200, "dateTime": 1512940025677, "trialdata": {"rt": -1000, "stimulus": "/static/audio/wordpool/STATUE.wav", "key_press": -1, "type": "PRES_AUD", "word": "statue", "wordID": 1373, "conditions": [12, 800, "a", 12000], "trial": 5, "serialpos": 3, "trial_type": "single-audio", "trial_index": 200, "time_elapsed": 946316, "internal_node_id": "0.0-146.0"}}, {"uniqueid": "MTK0965:31QTRG6Q2UK41GLHYRP33OFXMDIYPZ", "current_trial": 201, "dateTime": 1512940027608, "trialdata": {"rt": -1000, "stimulus": "/static/audio/wordpool/LIPSTICK.wav", "key_press": -1, "type": "PRES_AUD", "word": "lipstick", "wordID": 828, "conditions": [12, 800, "a", 12000], "trial": 5, "serialpos": 4, "trial_type": "single-audio", "trial_index": 201, "time_elapsed": 948247, "internal_node_id": "0.0-147.0"}}, {"uniqueid": "MTK0965:31QTRG6Q2UK41GLHYRP33OFXMDIYPZ", "current_trial": 202, "dateTime": 1512940029422, "trialdata": {"rt": -1000, "stimulus": "/static/audio/wordpool/LEG.wav", "key_press": -1, "type": "PRES_AUD", "word": "leg", "wordID": 808, "conditions": [12, 800, "a", 12000], "trial": 5, "serialpos": 5, "trial_type": "single-audio", "trial_index": 202, "time_elapsed": 950061, "internal_node_id": "0.0-148.0"}}, {"uniqueid": "MTK0965:31QTRG6Q2UK41GLHYRP33OFXMDIYPZ", "current_trial": 203, "dateTime": 1512940031237, "trialdata": {"rt": -1000, "stimulus": "/static/audio/wordpool/COFFEE.wav", "key_press": -1, "type": "PRES_AUD", "word": "coffee", "wordID": 340, "conditions": [12, 800, "a", 12000], "trial": 5, "serialpos": 6, "trial_type": "single-audio", "trial_index": 203, "time_elapsed": 951876, "internal_node_id": "0.0-149.0"}}, {"uniqueid": "MTK0965:31QTRG6Q2UK41GLHYRP33OFXMDIYPZ", "current_trial": 204, "dateTime": 1512940033142, "trialdata": {"rt": -1000, "stimulus": "/static/audio/wordpool/FOOTBALL.wav", "key_press": -1, "type": "PRES_AUD", "word": "football", "wordID": 590, "conditions": [12, 800, "a", 12000], "trial": 5, "serialpos": 7, "trial_type": "single-audio", "trial_index": 204, "time_elapsed": 953781, "internal_node_id": "0.0-150.0"}}, {"uniqueid": "MTK0965:31QTRG6Q2UK41GLHYRP33OFXMDIYPZ", "current_trial": 205, "dateTime": 1512940034839, "trialdata": {"rt": -1000, "stimulus": "/static/audio/wordpool/STAR.wav", "key_press": -1, "type": "PRES_AUD", "word": "star", "wordID": 1372, "conditions": [12, 800, "a", 12000], "trial": 5, "serialpos": 8, "trial_type": "single-audio", "trial_index": 205, "time_elapsed": 955478, "internal_node_id": "0.0-151.0"}}, {"uniqueid": "MTK0965:31QTRG6Q2UK41GLHYRP33OFXMDIYPZ", "current_trial": 206, "dateTime": 1512940036807, "trialdata": {"rt": -1000, "stimulus": "/static/audio/wordpool/ASIA.wav", "key_press": -1, "type": "PRES_AUD", "word": "asia", "wordID": 45, "conditions": [12, 800, "a", 12000], "trial": 5, "serialpos": 9, "trial_type": "single-audio", "trial_index": 206, "time_elapsed": 957445, "internal_node_id": "0.0-152.0"}}, {"uniqueid": "MTK0965:31QTRG6Q2UK41GLHYRP33OFXMDIYPZ", "current_trial": 207, "dateTime": 1512940038750, "trialdata": {"rt": -1000, "stimulus": "/static/audio/wordpool/PISTON.wav", "key_press": -1, "type": "PRES_AUD", "word": "piston", "wordID": 1075, "conditions": [12, 800, "a", 12000], "trial": 5, "serialpos": 10, "trial_type": "single-audio", "trial_index": 207, "time_elapsed": 959389, "internal_node_id": "0.0-153.0"}}, {"uniqueid": "MTK0965:31QTRG6Q2UK41GLHYRP33OFXMDIYPZ", "current_trial": 208, "dateTime": 1512940040403, "trialdata": {"rt": -1000, "stimulus": "/static/audio/wordpool/NAPKIN.wav", "key_press": -1, "type": "PRES_AUD", "word": "napkin", "wordID": 936, "conditions": [12, 800, "a", 12000], "trial": 5, "serialpos": 11, "trial_type": "single-audio", "trial_index": 208, "time_elapsed": 961042, "internal_node_id": "0.0-154.0"}}, {"uniqueid": "MTK0965:31QTRG6Q2UK41GLHYRP33OFXMDIYPZ", "current_trial": 209, "dateTime": 1512940041698, "trialdata": {"rt": -1, "stimulus": "", "key_press": -1, "type": "PRE_RECALL_DELAY", "trial_type": "single-stim", "trial_index": 209, "time_elapsed": 962337, "internal_node_id": "0.0-155.0-0.0"}}, {"uniqueid": "MTK0965:31QTRG6Q2UK41GLHYRP33OFXMDIYPZ", "current_trial": 210, "dateTime": 1512940042201, "trialdata": {"rt": -1000, "stimulus": "/static/audio/400Hz.wav", "key_press": -1, "type": "PRE_RECALL_ALERT", "trial_type": "single-audio", "trial_index": 210, "time_elapsed": 962839, "internal_node_id": "0.0-156.0"}}, {"uniqueid": "MTK0965:31QTRG6Q2UK41GLHYRP33OFXMDIYPZ", "current_trial": 211, "dateTime": 1512940102239, "trialdata": {"rt": [2587, 3743, 4966, 5669, 9572, 10483, 11743, 15338], "recwords": ["star", "napkin", "piston", "asia", "coffee", "soda", "perch", "sculpture"], "type": "FREE_RECALL", "conditions": [12, 800, "a", 12000], "trial": 5, "trial_type": "free-recall", "trial_index": 211, "time_elapsed": 1022847, "internal_node_id": "0.0-157.0-0.0"}}, {"uniqueid": "MTK0965:31QTRG6Q2UK41GLHYRP33OFXMDIYPZ", "current_trial": 212, "dateTime": 1512940108280, "trialdata": {"rt": 4039, "key_press": 77, "type": "INSTRUCTIONS", "trial_type": "text", "trial_index": 212, "time_elapsed": 1028919, "internal_node_id": "0.0-158.0"}}, {"uniqueid": "MTK0965:31QTRG6Q2UK41GLHYRP33OFXMDIYPZ", "current_trial": 213, "dateTime": 1512940122287, "trialdata": {"rt": [2955, 4213, 6337, 8541, 11533], "responses": ["17", "6", "19", "21", "14"], "num1": [8, 1, 2, 7, 3, 1], "num2": [4, 4, 9, 5, 9, 8], "num3": [5, 1, 8, 9, 2, 3], "type": "DISTRACTOR", "conditions": [12, 1600, "v", 12000], "trial": 6, "trial_type": "math-distractor", "trial_index": 213, "time_elapsed": 1042926, "internal_node_id": "0.0-159.0"}}, {"uniqueid": "MTK0965:31QTRG6Q2UK41GLHYRP33OFXMDIYPZ", "current_trial": 214, "dateTime": 1512940125291, "trialdata": {"rt": -1, "stimulus": "<p id=\"stim\">10</p>", "key_press": -1, "trial_type": "single-stim", "trial_index": 214, "time_elapsed": 1045930, "internal_node_id": "0.0-160.0-0.0"}}, {"uniqueid": "MTK0965:31QTRG6Q2UK41GLHYRP33OFXMDIYPZ", "current_trial": 215, "dateTime": 1512940126293, "trialdata": {"rt": -1, "stimulus": "<p id=\"stim\">9</p>", "key_press": -1, "trial_type": "single-stim", "trial_index": 215, "time_elapsed": 1046932, "internal_node_id": "0.0-160.0-1.0"}}, {"uniqueid": "MTK0965:31QTRG6Q2UK41GLHYRP33OFXMDIYPZ", "current_trial": 216, "dateTime": 1512940127296, "trialdata": {"rt": -1, "stimulus": "<p id=\"stim\">8</p>", "key_press": -1, "trial_type": "single-stim", "trial_index": 216, "time_elapsed": 1047934, "internal_node_id": "0.0-160.0-2.0"}}, {"uniqueid": "MTK0965:31QTRG6Q2UK41GLHYRP33OFXMDIYPZ", "current_trial": 217, "dateTime": 1512940128298, "trialdata": {"rt": -1, "stimulus": "<p id=\"stim\">7</p>", "key_press": -1, "trial_type": "single-stim", "trial_index": 217, "time_elapsed": 1048937, "internal_node_id": "0.0-160.0-3.0"}}, {"uniqueid": "MTK0965:31QTRG6Q2UK41GLHYRP33OFXMDIYPZ", "current_trial": 218, "dateTime": 1512940129381, "trialdata": {"rt": -1, "stimulus": "<p id=\"stim\">6</p>", "key_press": -1, "trial_type": "single-stim", "trial_index": 218, "time_elapsed": 1050020, "internal_node_id": "0.0-160.0-4.0"}}, {"uniqueid": "MTK0965:31QTRG6Q2UK41GLHYRP33OFXMDIYPZ", "current_trial": 219, "dateTime": 1512940130383, "trialdata": {"rt": -1, "stimulus": "<p id=\"stim\">5</p>", "key_press": -1, "trial_type": "single-stim", "trial_index": 219, "time_elapsed": 1051022, "internal_node_id": "0.0-160.0-5.0"}}, {"uniqueid": "MTK0965:31QTRG6Q2UK41GLHYRP33OFXMDIYPZ", "current_trial": 220, "dateTime": 1512940131385, "trialdata": {"rt": -1, "stimulus": "<p id=\"stim\">4</p>", "key_press": -1, "trial_type": "single-stim", "trial_index": 220, "time_elapsed": 1052024, "internal_node_id": "0.0-160.0-6.0"}}, {"uniqueid": "MTK0965:31QTRG6Q2UK41GLHYRP33OFXMDIYPZ", "current_trial": 221, "dateTime": 1512940132387, "trialdata": {"rt": -1, "stimulus": "<p id=\"stim\">3</p>", "key_press": -1, "trial_type": "single-stim", "trial_index": 221, "time_elapsed": 1053026, "internal_node_id": "0.0-160.0-7.0"}}, {"uniqueid": "MTK0965:31QTRG6Q2UK41GLHYRP33OFXMDIYPZ", "current_trial": 222, "dateTime": 1512940133389, "trialdata": {"rt": -1, "stimulus": "<p id=\"stim\">2</p>", "key_press": -1, "trial_type": "single-stim", "trial_index": 222, "time_elapsed": 1054028, "internal_node_id": "0.0-160.0-8.0"}}, {"uniqueid": "MTK0965:31QTRG6Q2UK41GLHYRP33OFXMDIYPZ", "current_trial": 223, "dateTime": 1512940134390, "trialdata": {"rt": -1, "stimulus": "<p id=\"stim\">1</p>", "key_press": -1, "trial_type": "single-stim", "trial_index": 223, "time_elapsed": 1055029, "internal_node_id": "0.0-160.0-9.0"}}, {"uniqueid": "MTK0965:31QTRG6Q2UK41GLHYRP33OFXMDIYPZ", "current_trial": 224, "dateTime": 1512940135892, "trialdata": {"rt": -1, "stimulus": "<p id=\"stim\">+</p>", "key_press": -1, "type": "FIXATION", "trial_type": "single-stim", "trial_index": 224, "time_elapsed": 1056531, "internal_node_id": "0.0-161.0-0.0"}}, {"uniqueid": "MTK0965:31QTRG6Q2UK41GLHYRP33OFXMDIYPZ", "current_trial": 225, "dateTime": 1512940137494, "trialdata": {"rt": -1, "stimulus": "<p id=\"stim\">BISON</p>", "key_press": -1, "type": "PRES_VIS", "word": "bison", "wordID": 130, "conditions": [12, 1600, "v", 12000], "trial": 6, "serialpos": 0, "trial_type": "single-stim", "trial_index": 225, "time_elapsed": 1058133, "internal_node_id": "0.0-162.0"}}, {"uniqueid": "MTK0965:31QTRG6Q2UK41GLHYRP33OFXMDIYPZ", "current_trial": 226, "dateTime": 1512940139939, "trialdata": {"rt": -1, "stimulus": "<p id=\"stim\">CAFE</p>", "key_press": -1, "type": "PRES_VIS", "word": "cafe", "wordID": 215, "conditions": [12, 1600, "v", 12000], "trial": 6, "serialpos": 1, "trial_type": "single-stim", "trial_index": 226, "time_elapsed": 1060578, "internal_node_id": "0.0-163.0"}}, {"uniqueid": "MTK0965:31QTRG6Q2UK41GLHYRP33OFXMDIYPZ", "current_trial": 227, "dateTime": 1512940142590, "trialdata": {"rt": -1, "stimulus": "<p id=\"stim\">FIREMAN</p>", "key_press": -1, "type": "PRES_VIS", "word": "fireman", "wordID": 568, "conditions": [12, 1600, "v", 12000], "trial": 6, "serialpos": 2, "trial_type": "single-stim", "trial_index": 227, "time_elapsed": 1063228, "internal_node_id": "0.0-164.0"}}, {"uniqueid": "MTK0965:31QTRG6Q2UK41GLHYRP33OFXMDIYPZ", "current_trial": 228, "dateTime": 1512940145137, "trialdata": {"rt": -1, "stimulus": "<p id=\"stim\">MARINE</p>", "key_press": -1, "type": "PRES_VIS", "word": "marine", "wordID": 868, "conditions": [12, 1600, "v", 12000], "trial": 6, "serialpos": 3, "trial_type": "single-stim", "trial_index": 228, "time_elapsed": 1065776, "internal_node_id": "0.0-165.0"}}, {"uniqueid": "MTK0965:31QTRG6Q2UK41GLHYRP33OFXMDIYPZ", "current_trial": 229, "dateTime": 1512940147557, "trialdata": {"rt": -1, "stimulus": "<p id=\"stim\">POCKET</p>", "key_press": -1, "type": "PRES_VIS", "word": "pocket", "wordID": 1092, "conditions": [12, 1600, "v", 12000], "trial": 6, "serialpos": 4, "trial_type": "single-stim", "trial_index": 229, "time_elapsed": 1068196, "internal_node_id": "0.0-166.0"}}, {"uniqueid": "MTK0965:31QTRG6Q2UK41GLHYRP33OFXMDIYPZ", "current_trial": 230, "dateTime": 1512940150256, "trialdata": {"rt": -1, "stimulus": "<p id=\"stim\">CATTLE</p>", "key_press": -1, "type": "PRES_VIS", "word": "cattle", "wordID": 260, "conditions": [12, 1600, "v", 12000], "trial": 6, "serialpos": 5, "trial_type": "single-stim", "trial_index": 230, "time_elapsed": 1070894, "internal_node_id": "0.0-167.0"}}, {"uniqueid": "MTK0965:31QTRG6Q2UK41GLHYRP33OFXMDIYPZ", "current_trial": 231, "dateTime": 1512940152767, "trialdata": {"rt": -1, "stimulus": "<p id=\"stim\">LUGGAGE</p>", "key_press": -1, "type": "PRES_VIS", "word": "luggage", "wordID": 846, "conditions": [12, 1600, "v", 12000], "trial": 6, "serialpos": 6, "trial_type": "single-stim", "trial_index": 231, "time_elapsed": 1073406, "internal_node_id": "0.0-168.0"}}, {"uniqueid": "MTK0965:31QTRG6Q2UK41GLHYRP33OFXMDIYPZ", "current_trial": 232, "dateTime": 1512940155427, "trialdata": {"rt": -1, "stimulus": "<p id=\"stim\">SUITCASE</p>", "key_press": -1, "type": "PRES_VIS", "word": "suitcase", "wordID": 1402, "conditions": [12, 1600, "v", 12000], "trial": 6, "serialpos": 7, "trial_type": "single-stim", "trial_index": 232, "time_elapsed": 1076066, "internal_node_id": "0.0-169.0"}}, {"uniqueid": "MTK0965:31QTRG6Q2UK41GLHYRP33OFXMDIYPZ", "current_trial": 233, "dateTime": 1512940158000, "trialdata": {"rt": -1, "stimulus": "<p id=\"stim\">JELLO</p>", "key_press": -1, "type": "PRES_VIS", "word": "jello", "wordID": 753, "conditions": [12, 1600, "v", 12000], "trial": 6, "serialpos": 8, "trial_type": "single-stim", "trial_index": 233, "time_elapsed": 1078639, "internal_node_id": "0.0-170.0"}}, {"uniqueid": "MTK0965:31QTRG6Q2UK41GLHYRP33OFXMDIYPZ", "current_trial": 234, "dateTime": 1512940160784, "trialdata": {"rt": -1, "stimulus": "<p id=\"stim\">CONCERT</p>", "key_press": -1, "type": "PRES_VIS", "word": "concert", "wordID": 359, "conditions": [12, 1600, "v", 12000], "trial": 6, "serialpos": 9, "trial_type": "single-stim", "trial_index": 234, "time_elapsed": 1081423, "internal_node_id": "0.0-171.0"}}, {"uniqueid": "MTK0965:31QTRG6Q2UK41GLHYRP33OFXMDIYPZ", "current_trial": 235, "dateTime": 1512940163309, "trialdata": {"rt": -1, "stimulus": "<p id=\"stim\">FLEET</p>", "key_press": -1, "type": "PRES_VIS", "word": "fleet", "wordID": 577, "conditions": [12, 1600, "v", 12000], "trial": 6, "serialpos": 10, "trial_type": "single-stim", "trial_index": 235, "time_elapsed": 1083948, "internal_node_id": "0.0-172.0"}}, {"uniqueid": "MTK0965:31QTRG6Q2UK41GLHYRP33OFXMDIYPZ", "current_trial": 236, "dateTime": 1512940165961, "trialdata": {"rt": -1, "stimulus": "<p id=\"stim\">SUPPER</p>", "key_press": -1, "type": "PRES_VIS", "word": "supper", "wordID": 1410, "conditions": [12, 1600, "v", 12000], "trial": 6, "serialpos": 11, "trial_type": "single-stim", "trial_index": 236, "time_elapsed": 1086600, "internal_node_id": "0.0-173.0"}}, {"uniqueid": "MTK0965:31QTRG6Q2UK41GLHYRP33OFXMDIYPZ", "current_trial": 237, "dateTime": 1512940168101, "trialdata": {"rt": -1, "stimulus": "", "key_press": -1, "type": "PRE_RECALL_DELAY", "trial_type": "single-stim", "trial_index": 237, "time_elapsed": 1088740, "internal_node_id": "0.0-174.0-0.0"}}, {"uniqueid": "MTK0965:31QTRG6Q2UK41GLHYRP33OFXMDIYPZ", "current_trial": 238, "dateTime": 1512940168603, "trialdata": {"rt": -1000, "stimulus": "/static/audio/400Hz.wav", "key_press": -1, "type": "PRE_RECALL_ALERT", "trial_type": "single-audio", "trial_index": 238, "time_elapsed": 1089242, "internal_node_id": "0.0-175.0"}}, {"uniqueid": "MTK0965:31QTRG6Q2UK41GLHYRP33OFXMDIYPZ", "current_trial": 239, "dateTime": 1512940228619, "trialdata": {"rt": [1627, 2341, 4234, 5230, 7702, 8315, 10348, 11665], "recwords": ["suitcase", "fleet", "supper", "jello", "pocket", "bison", "fireman", "jello"], "type": "FREE_RECALL", "conditions": [12, 1600, "v", 12000], "trial": 6, "trial_type": "free-recall", "trial_index": 239, "time_elapsed": 1149249, "internal_node_id": "0.0-176.0-0.0"}}, {"uniqueid": "MTK0965:31QTRG6Q2UK41GLHYRP33OFXMDIYPZ", "current_trial": 240, "dateTime": 1512940241933, "trialdata": {"rt": 11312, "key_press": 13, "type": "INSTRUCTIONS", "trial_type": "text", "trial_index": 240, "time_elapsed": 1162572, "internal_node_id": "0.0-177.0"}}, {"uniqueid": "MTK0965:31QTRG6Q2UK41GLHYRP33OFXMDIYPZ", "current_trial": 241, "dateTime": 1512940267941, "trialdata": {"rt": [3626, 5188, 6277, 7706, 7997, 9891, 15821, 18172, 19683, 21858, 23018], "responses": ["21", "7", "12", "1", "0", "14", "24", "17", "15", "19", "6"], "num1": [8, 3, 1, 5, 7, 8, 6, 3, 8, 4, 1, 3], "num2": [8, 3, 7, 3, 9, 1, 9, 6, 4, 9, 4, 9], "num3": [5, 1, 4, 2, 7, 5, 9, 8, 3, 6, 1, 3], "type": "DISTRACTOR", "conditions": [12, 1600, "v", 24000], "trial": 7, "trial_type": "math-distractor", "trial_index": 241, "time_elapsed": 1188580, "internal_node_id": "0.0-178.0"}}, {"uniqueid": "MTK0965:31QTRG6Q2UK41GLHYRP33OFXMDIYPZ", "current_trial": 242, "dateTime": 1512940270946, "trialdata": {"rt": -1, "stimulus": "<p id=\"stim\">10</p>", "key_press": -1, "trial_type": "single-stim", "trial_index": 242, "time_elapsed": 1191585, "internal_node_id": "0.0-179.0-0.0"}}, {"uniqueid": "MTK0965:31QTRG6Q2UK41GLHYRP33OFXMDIYPZ", "current_trial": 243, "dateTime": 1512940271948, "trialdata": {"rt": -1, "stimulus": "<p id=\"stim\">9</p>", "key_press": -1, "trial_type": "single-stim", "trial_index": 243, "time_elapsed": 1192586, "internal_node_id": "0.0-179.0-1.0"}}, {"uniqueid": "MTK0965:31QTRG6Q2UK41GLHYRP33OFXMDIYPZ", "current_trial": 244, "dateTime": 1512940272951, "trialdata": {"rt": -1, "stimulus": "<p id=\"stim\">8</p>", "key_press": -1, "trial_type": "single-stim", "trial_index": 244, "time_elapsed": 1193589, "internal_node_id": "0.0-179.0-2.0"}}, {"uniqueid": "MTK0965:31QTRG6Q2UK41GLHYRP33OFXMDIYPZ", "current_trial": 245, "dateTime": 1512940273953, "trialdata": {"rt": -1, "stimulus": "<p id=\"stim\">7</p>", "key_press": -1, "trial_type": "single-stim", "trial_index": 245, "time_elapsed": 1194592, "internal_node_id": "0.0-179.0-3.0"}}, {"uniqueid": "MTK0965:31QTRG6Q2UK41GLHYRP33OFXMDIYPZ", "current_trial": 246, "dateTime": 1512940274956, "trialdata": {"rt": -1, "stimulus": "<p id=\"stim\">6</p>", "key_press": -1, "trial_type": "single-stim", "trial_index": 246, "time_elapsed": 1195595, "internal_node_id": "0.0-179.0-4.0"}}, {"uniqueid": "MTK0965:31QTRG6Q2UK41GLHYRP33OFXMDIYPZ", "current_trial": 247, "dateTime": 1512940275958, "trialdata": {"rt": -1, "stimulus": "<p id=\"stim\">5</p>", "key_press": -1, "trial_type": "single-stim", "trial_index": 247, "time_elapsed": 1196597, "internal_node_id": "0.0-179.0-5.0"}}, {"uniqueid": "MTK0965:31QTRG6Q2UK41GLHYRP33OFXMDIYPZ", "current_trial": 248, "dateTime": 1512940276961, "trialdata": {"rt": -1, "stimulus": "<p id=\"stim\">4</p>", "key_press": -1, "trial_type": "single-stim", "trial_index": 248, "time_elapsed": 1197599, "internal_node_id": "0.0-179.0-6.0"}}, {"uniqueid": "MTK0965:31QTRG6Q2UK41GLHYRP33OFXMDIYPZ", "current_trial": 249, "dateTime": 1512940277963, "trialdata": {"rt": -1, "stimulus": "<p id=\"stim\">3</p>", "key_press": -1, "trial_type": "single-stim", "trial_index": 249, "time_elapsed": 1198602, "internal_node_id": "0.0-179.0-7.0"}}, {"uniqueid": "MTK0965:31QTRG6Q2UK41GLHYRP33OFXMDIYPZ", "current_trial": 250, "dateTime": 1512940278966, "trialdata": {"rt": -1, "stimulus": "<p id=\"stim\">2</p>", "key_press": -1, "trial_type": "single-stim", "trial_index": 250, "time_elapsed": 1199605, "internal_node_id": "0.0-179.0-8.0"}}, {"uniqueid": "MTK0965:31QTRG6Q2UK41GLHYRP33OFXMDIYPZ", "current_trial": 251, "dateTime": 1512940279969, "trialdata": {"rt": -1, "stimulus": "<p id=\"stim\">1</p>", "key_press": -1, "trial_type": "single-stim", "trial_index": 251, "time_elapsed": 1200607, "internal_node_id": "0.0-179.0-9.0"}}, {"uniqueid": "MTK0965:31QTRG6Q2UK41GLHYRP33OFXMDIYPZ", "current_trial": 252, "dateTime": 1512940281471, "trialdata": {"rt": -1, "stimulus": "<p id=\"stim\">+</p>", "key_press": -1, "type": "FIXATION", "trial_type": "single-stim", "trial_index": 252, "time_elapsed": 1202110, "internal_node_id": "0.0-180.0-0.0"}}, {"uniqueid": "MTK0965:31QTRG6Q2UK41GLHYRP33OFXMDIYPZ", "current_trial": 253, "dateTime": 1512940283077, "trialdata": {"rt": -1, "stimulus": "<p id=\"stim\">FOX</p>", "key_press": -1, "type": "PRES_VIS", "word": "fox", "wordID": 597, "conditions": [12, 1600, "v", 24000], "trial": 7, "serialpos": 0, "trial_type": "single-stim", "trial_index": 253, "time_elapsed": 1203715, "internal_node_id": "0.0-181.0"}}, {"uniqueid": "MTK0965:31QTRG6Q2UK41GLHYRP33OFXMDIYPZ", "current_trial": 254, "dateTime": 1512940285691, "trialdata": {"rt": -1, "stimulus": "<p id=\"stim\">ROBIN</p>", "key_press": -1, "type": "PRES_VIS", "word": "robin", "wordID": 1198, "conditions": [12, 1600, "v", 24000], "trial": 7, "serialpos": 1, "trial_type": "single-stim", "trial_index": 254, "time_elapsed": 1206330, "internal_node_id": "0.0-182.0"}}, {"uniqueid": "MTK0965:31QTRG6Q2UK41GLHYRP33OFXMDIYPZ", "current_trial": 255, "dateTime": 1512940288373, "trialdata": {"rt": -1, "stimulus": "<p id=\"stim\">ITEM</p>", "key_press": -1, "type": "PRES_VIS", "word": "item", "wordID": 745, "conditions": [12, 1600, "v", 24000], "trial": 7, "serialpos": 2, "trial_type": "single-stim", "trial_index": 255, "time_elapsed": 1209012, "internal_node_id": "0.0-183.0"}}, {"uniqueid": "MTK0965:31QTRG6Q2UK41GLHYRP33OFXMDIYPZ", "current_trial": 256, "dateTime": 1512940291001, "trialdata": {"rt": -1, "stimulus": "<p id=\"stim\">APRON</p>", "key_press": -1, "type": "PRES_VIS", "word": "apron", "wordID": 34, "conditions": [12, 1600, "v", 24000], "trial": 7, "serialpos": 3, "trial_type": "single-stim", "trial_index": 256, "time_elapsed": 1211640, "internal_node_id": "0.0-184.0"}}, {"uniqueid": "MTK0965:31QTRG6Q2UK41GLHYRP33OFXMDIYPZ", "current_trial": 257, "dateTime": 1512940293645, "trialdata": {"rt": -1, "stimulus": "<p id=\"stim\">FLESH</p>", "key_press": -1, "type": "PRES_VIS", "word": "flesh", "wordID": 578, "conditions": [12, 1600, "v", 24000], "trial": 7, "serialpos": 4, "trial_type": "single-stim", "trial_index": 257, "time_elapsed": 1214284, "internal_node_id": "0.0-185.0"}}, {"uniqueid": "MTK0965:31QTRG6Q2UK41GLHYRP33OFXMDIYPZ", "current_trial": 258, "dateTime": 1512940296201, "trialdata": {"rt": -1, "stimulus": "<p id=\"stim\">SEAFOOD</p>", "key_press": -1, "type": "PRES_VIS", "word": "seafood", "wordID": 1259, "conditions": [12, 1600, "v", 24000], "trial": 7, "serialpos": 5, "trial_type": "single-stim", "trial_index": 258, "time_elapsed": 1216840, "internal_node_id": "0.0-186.0"}}, {"uniqueid": "MTK0965:31QTRG6Q2UK41GLHYRP33OFXMDIYPZ", "current_trial": 259, "dateTime": 1512940298928, "trialdata": {"rt": -1, "stimulus": "<p id=\"stim\">PICTURE</p>", "key_press": -1, "type": "PRES_VIS", "word": "picture", "wordID": 1060, "conditions": [12, 1600, "v", 24000], "trial": 7, "serialpos": 6, "trial_type": "single-stim", "trial_index": 259, "time_elapsed": 1219567, "internal_node_id": "0.0-187.0"}}, {"uniqueid": "MTK0965:31QTRG6Q2UK41GLHYRP33OFXMDIYPZ", "current_trial": 260, "dateTime": 1512940301430, "trialdata": {"rt": -1, "stimulus": "<p id=\"stim\">WIFE</p>", "key_press": -1, "type": "PRES_VIS", "word": "wife", "wordID": 1608, "conditions": [12, 1600, "v", 24000], "trial": 7, "serialpos": 7, "trial_type": "single-stim", "trial_index": 260, "time_elapsed": 1222069, "internal_node_id": "0.0-188.0"}}, {"uniqueid": "MTK0965:31QTRG6Q2UK41GLHYRP33OFXMDIYPZ", "current_trial": 261, "dateTime": 1512940304088, "trialdata": {"rt": -1, "stimulus": "<p id=\"stim\">BEAST</p>", "key_press": -1, "type": "PRES_VIS", "word": "beast", "wordID": 107, "conditions": [12, 1600, "v", 24000], "trial": 7, "serialpos": 8, "trial_type": "single-stim", "trial_index": 261, "time_elapsed": 1224727, "internal_node_id": "0.0-189.0"}}, {"uniqueid": "MTK0965:31QTRG6Q2UK41GLHYRP33OFXMDIYPZ", "current_trial": 262, "dateTime": 1512940306843, "trialdata": {"rt": -1, "stimulus": "<p id=\"stim\">OYSTER</p>", "key_press": -1, "type": "PRES_VIS", "word": "oyster", "wordID": 994, "conditions": [12, 1600, "v", 24000], "trial": 7, "serialpos": 9, "trial_type": "single-stim", "trial_index": 262, "time_elapsed": 1227481, "internal_node_id": "0.0-190.0"}}, {"uniqueid": "MTK0965:31QTRG6Q2UK41GLHYRP33OFXMDIYPZ", "current_trial": 263, "dateTime": 1512940309423, "trialdata": {"rt": -1, "stimulus": "<p id=\"stim\">SCALPEL</p>", "key_press": -1, "type": "PRES_VIS", "word": "scalpel", "wordID": 1242, "conditions": [12, 1600, "v", 24000], "trial": 7, "serialpos": 10, "trial_type": "single-stim", "trial_index": 263, "time_elapsed": 1230059, "internal_node_id": "0.0-191.0"}}, {"uniqueid": "MTK0965:31QTRG6Q2UK41GLHYRP33OFXMDIYPZ", "current_trial": 264, "dateTime": 1512940311946, "trialdata": {"rt": -1, "stimulus": "<p id=\"stim\">BACON</p>", "key_press": -1, "type": "PRES_VIS", "word": "bacon", "wordID": 66, "conditions": [12, 1600, "v", 24000], "trial": 7, "serialpos": 11, "trial_type": "single-stim", "trial_index": 264, "time_elapsed": 1232585, "internal_node_id": "0.0-192.0"}}, {"uniqueid": "MTK0965:31QTRG6Q2UK41GLHYRP33OFXMDIYPZ", "current_trial": 265, "dateTime": 1512940314206, "trialdata": {"rt": -1, "stimulus": "", "key_press": -1, "type": "PRE_RECALL_DELAY", "trial_type": "single-stim", "trial_index": 265, "time_elapsed": 1234845, "internal_node_id": "0.0-193.0-0.0"}}, {"uniqueid": "MTK0965:31QTRG6Q2UK41GLHYRP33OFXMDIYPZ", "current_trial": 266, "dateTime": 1512940314712, "trialdata": {"rt": -1000, "stimulus": "/static/audio/400Hz.wav", "key_press": -1, "type": "PRE_RECALL_ALERT", "trial_type": "single-audio", "trial_index": 266, "time_elapsed": 1235351, "internal_node_id": "0.0-194.0"}}, {"uniqueid": "MTK0965:31QTRG6Q2UK41GLHYRP33OFXMDIYPZ", "current_trial": 267, "dateTime": 1512940374730, "trialdata": {"rt": [2451, 4771, 5557, 6821, 7594, 9228, 10152, 10296, 11160, 15165, 15797], "recwords": ["oyster", "scapel", "bacon", "seafood", "wife", "picture", "fox", "", "robin", "flesh", "apron"], "type": "FREE_RECALL", "conditions": [12, 1600, "v", 24000], "trial": 7, "trial_type": "free-recall", "trial_index": 267, "time_elapsed": 1295358, "internal_node_id": "0.0-195.0-0.0"}}, {"uniqueid": "MTK0965:31QTRG6Q2UK41GLHYRP33OFXMDIYPZ", "current_trial": 268, "dateTime": 1512940429649, "trialdata": {"rt": 52904, "key_press": 75, "type": "INSTRUCTIONS", "trial_type": "text", "trial_index": 268, "time_elapsed": 1350288, "internal_node_id": "0.0-196.0"}}, {"uniqueid": "MTK0965:31QTRG6Q2UK41GLHYRP33OFXMDIYPZ", "current_trial": 269, "dateTime": 1512940443662, "trialdata": {"rt": [3834, 5311, 6301, 7759, 8931, 10589], "responses": ["16", "8", "8", "12", "11", "16"], "num1": [5, 2, 5, 3, 1, 6, 6], "num2": [8, 2, 2, 5, 9, 4, 2], "num3": [3, 4, 1, 4, 1, 5, 6], "type": "DISTRACTOR", "conditions": [24, 800, "v", 12000], "trial": 8, "trial_type": "math-distractor", "trial_index": 269, "time_elapsed": 1364300, "internal_node_id": "0.0-197.0"}}, {"uniqueid": "MTK0965:31QTRG6Q2UK41GLHYRP33OFXMDIYPZ", "current_trial": 270, "dateTime": 1512940446666, "trialdata": {"rt": -1, "stimulus": "<p id=\"stim\">10</p>", "key_press": -1, "trial_type": "single-stim", "trial_index": 270, "time_elapsed": 1367304, "internal_node_id": "0.0-198.0-0.0"}}, {"uniqueid": "MTK0965:31QTRG6Q2UK41GLHYRP33OFXMDIYPZ", "current_trial": 271, "dateTime": 1512940447669, "trialdata": {"rt": -1, "stimulus": "<p id=\"stim\">9</p>", "key_press": -1, "trial_type": "single-stim", "trial_index": 271, "time_elapsed": 1368308, "internal_node_id": "0.0-198.0-1.0"}}, {"uniqueid": "MTK0965:31QTRG6Q2UK41GLHYRP33OFXMDIYPZ", "current_trial": 272, "dateTime": 1512940448678, "trialdata": {"rt": -1, "stimulus": "<p id=\"stim\">8</p>", "key_press": -1, "trial_type": "single-stim", "trial_index": 272, "time_elapsed": 1369316, "internal_node_id": "0.0-198.0-2.0"}},