{"condition": 0, "counterbalance": 309, "assignmentId": "3KOPY89HM997Z2LVETRTGYX835TJ39", "workerId": "MTK0695", "hitId": "3TC2K6WK9G9R7JVZTNBVJENI2DY826", "currenttrial": 626, "bonus": 0, "data": [{"uniqueid": "MTK0695:3KOPY89HM997Z2LVETRTGYX835TJ39", "current_trial": 0, "dateTime": 1512602437351, "trialdata": {"rt": 645865, "key_press": 32, "type": "INSTRUCTIONS", "trial_type": "text", "trial_index": 0, "time_elapsed": 645865, "internal_node_id": "0.0-0.0"}}, {"uniqueid": "MTK0695:3KOPY89HM997Z2LVETRTGYX835TJ39", "current_trial": 1, "dateTime": 1512602461929, "trialdata": {"rt": 24574, "key_press": 40, "type": "INSTRUCTIONS", "trial_type": "text", "trial_index": 1, "time_elapsed": 670443, "internal_node_id": "0.0-1.0"}}, {"uniqueid": "MTK0695:3KOPY89HM997Z2LVETRTGYX835TJ39", "current_trial": 2, "dateTime": 1512602471864, "trialdata": {"rt": [9911], "responses": ["ocean"], "type": "AUDIO_TEST", "trial_type": "audio-test", "trial_index": 2, "time_elapsed": 680379, "internal_node_id": "0.0-2.0"}}, {"uniqueid": "MTK0695:3KOPY89HM997Z2LVETRTGYX835TJ39", "current_trial": 3, "dateTime": 1512602478536, "trialdata": {"rt": [6657], "responses": ["crystal"], "type": "AUDIO_TEST", "trial_type": "audio-test", "trial_index": 3, "time_elapsed": 687051, "internal_node_id": "0.0-3.0"}}, {"uniqueid": "MTK0695:3KOPY89HM997Z2LVETRTGYX835TJ39", "current_trial": 4, "dateTime": 1512602483911, "trialdata": {"rt": [5360], "responses": ["spice"], "type": "AUDIO_TEST", "trial_type": "audio-test", "trial_index": 4, "time_elapsed": 692425, "internal_node_id": "0.0-4.0"}}, {"uniqueid": "MTK0695:3KOPY89HM997Z2LVETRTGYX835TJ39", "current_trial": 5, "dateTime": 1512602507148, "trialdata": {"rt": 22481, "responses": "{\"Q0\":\"12AM\",\"Q1\":\"10AM\",\"Q2\":\"4\"}", "type": "SLEEP_SURVEY", "trial_type": "survey-text", "trial_index": 5, "time_elapsed": 715663, "internal_node_id": "0.0-5.0"}}, {"uniqueid": "MTK0695:3KOPY89HM997Z2LVETRTGYX835TJ39", "current_trial": 6, "dateTime": 1512602511415, "trialdata": {"rt": 3262, "key_press": 38, "type": "INSTRUCTIONS", "trial_type": "text", "trial_index": 6, "time_elapsed": 719929, "internal_node_id": "0.0-6.0"}}, {"uniqueid": "MTK0695:3KOPY89HM997Z2LVETRTGYX835TJ39", "current_trial": 7, "dateTime": 1512602533519, "trialdata": {"rt": 21600, "key_press": 32, "type": "INSTRUCTIONS", "trial_type": "text", "trial_index": 7, "time_elapsed": 742034, "internal_node_id": "0.0-7.0"}}, {"uniqueid": "MTK0695:3KOPY89HM997Z2LVETRTGYX835TJ39", "current_trial": 8, "dateTime": 1512602551218, "trialdata": {"rt": 17193, "key_press": 32, "type": "INSTRUCTIONS", "trial_type": "text", "trial_index": 8, "time_elapsed": 759732, "internal_node_id": "0.0-8.0"}}, {"uniqueid": "MTK0695:3KOPY89HM997Z2LVETRTGYX835TJ39", "current_trial": 9, "dateTime": 1512602570235, "trialdata": {"rt": [6275, 8697, 11340, 14966, 16612], "responses": ["20", "11", "11", "21", "11"], "num1": [7, 1, 2, 8, 6, 1], "num2": [6, 8, 7, 9, 4, 4], "num3": [7, 2, 2, 4, 1, 3], "type": "DISTRACTOR", "conditions": [18, 1200, "a", 18000], "trial": 0, "trial_type": "math-distractor", "trial_index": 9, "time_elapsed": 778749, "internal_node_id": "0.0-9.0"}}, {"uniqueid": "MTK0695:3KOPY89HM997Z2LVETRTGYX835TJ39", "current_trial": 10, "dateTime": 1512602573246, "trialdata": {"rt": -1, "stimulus": "<p id=\"stim\">10</p>", "key_press": -1, "trial_type": "single-stim", "trial_index": 10, "time_elapsed": 781760, "internal_node_id": "0.0-10.0-0.0"}}, {"uniqueid": "MTK0695:3KOPY89HM997Z2LVETRTGYX835TJ39", "current_trial": 11, "dateTime": 1512602574251, "trialdata": {"rt": -1, "stimulus": "<p id=\"stim\">9</p>", "key_press": -1, "trial_type": "single-stim", "trial_index": 11, "time_elapsed": 782766, "internal_node_id": "0.0-10.0-1.0"}}, {"uniqueid": "MTK0695:3KOPY89HM997Z2LVETRTGYX835TJ39", "current_trial": 12, "dateTime": 1512602575256, "trialdata": {"rt": -1, "stimulus": "<p id=\"stim\">8</p>", "key_press": -1, "trial_type": "single-stim", "trial_index": 12, "time_elapsed": 783770, "internal_node_id": "0.0-10.0-2.0"}}, {"uniqueid": "MTK0695:3KOPY89HM997Z2LVETRTGYX835TJ39", "current_trial": 13, "dateTime": 1512602576263, "trialdata": {"rt": -1, "stimulus": "<p id=\"stim\">7</p>", "key_press": -1, "trial_type": "single-stim", "trial_index": 13, "time_elapsed": 784778, "internal_node_id": "0.0-10.0-3.0"}}, {"uniqueid": "MTK0695:3KOPY89HM997Z2LVETRTGYX835TJ39", "current_trial": 14, "dateTime": 1512602577272, "trialdata": {"rt": -1, "stimulus": "<p id=\"stim\">6</p>", "key_press": -1, "trial_type": "single-stim", "trial_index": 14, "time_elapsed": 785787, "internal_node_id": "0.0-10.0-4.0"}}, {"uniqueid": "MTK0695:3KOPY89HM997Z2LVETRTGYX835TJ39", "current_trial": 15, "dateTime": 1512602578275, "trialdata": {"rt": -1, "stimulus": "<p id=\"stim\">5</p>", "key_press": -1, "trial_type": "single-stim", "trial_index": 15, "time_elapsed": 786789, "internal_node_id": "0.0-10.0-5.0"}}, {"uniqueid": "MTK0695:3KOPY89HM997Z2LVETRTGYX835TJ39", "current_trial": 16, "dateTime": 1512602579282, "trialdata": {"rt": -1, "stimulus": "<p id=\"stim\">4</p>", "key_press": -1, "trial_type": "single-stim", "trial_index": 16, "time_elapsed": 787796, "internal_node_id": "0.0-10.0-6.0"}}, {"uniqueid": "MTK0695:3KOPY89HM997Z2LVETRTGYX835TJ39", "current_trial": 17, "dateTime": 1512602580284, "trialdata": {"rt": -1, "stimulus": "<p id=\"stim\">3</p>", "key_press": -1, "trial_type": "single-stim", "trial_index": 17, "time_elapsed": 788799, "internal_node_id": "0.0-10.0-7.0"}}, {"uniqueid": "MTK0695:3KOPY89HM997Z2LVETRTGYX835TJ39", "current_trial": 18, "dateTime": 1512602581287, "trialdata": {"rt": -1, "stimulus": "<p id=\"stim\">2</p>", "key_press": -1, "trial_type": "single-stim", "trial_index": 18, "time_elapsed": 789802, "internal_node_id": "0.0-10.0-8.0"}}, {"uniqueid": "MTK0695:3KOPY89HM997Z2LVETRTGYX835TJ39", "current_trial": 19, "dateTime": 1512602582292, "trialdata": {"rt": -1, "stimulus": "<p id=\"stim\">1</p>", "key_press": -1, "trial_type": "single-stim", "trial_index": 19, "time_elapsed": 790806, "internal_node_id": "0.0-10.0-9.0"}}, {"uniqueid": "MTK0695:3KOPY89HM997Z2LVETRTGYX835TJ39", "current_trial": 20, "dateTime": 1512602583796, "trialdata": {"rt": -1, "stimulus": "<p id=\"stim\">+</p>", "key_press": -1, "type": "FIXATION", "trial_type": "single-stim", "trial_index": 20, "time_elapsed": 792311, "internal_node_id": "0.0-11.0-0.0"}}, {"uniqueid": "MTK0695:3KOPY89HM997Z2LVETRTGYX835TJ39", "current_trial": 21, "dateTime": 1512602585905, "trialdata": {"rt": -1000, "stimulus": "/static/audio/wordpool/PASTA.wav", "key_press": -1, "type": "PRES_AUD", "word": "pasta", "wordID": 1020, "conditions": [18, 1200, "a", 18000], "trial": 0, "serialpos": 0, "trial_type": "single-audio", "trial_index": 21, "time_elapsed": 794420, "internal_node_id": "0.0-12.0"}}, {"uniqueid": "MTK0695:3KOPY89HM997Z2LVETRTGYX835TJ39", "current_trial": 22, "dateTime": 1512602588226, "trialdata": {"rt": -1000, "stimulus": "/static/audio/wordpool/ULCER.wav", "key_press": -1, "type": "PRES_AUD", "word": "ulcer", "wordID": 1532, "conditions": [18, 1200, "a", 18000], "trial": 0, "serialpos": 1, "trial_type": "single-audio", "trial_index": 22, "time_elapsed": 796741, "internal_node_id": "0.0-13.0"}}, {"uniqueid": "MTK0695:3KOPY89HM997Z2LVETRTGYX835TJ39", "current_trial": 23, "dateTime": 1512602590543, "trialdata": {"rt": -1000, "stimulus": "/static/audio/wordpool/OUTDOORS.wav", "key_press": -1, "type": "PRES_AUD", "word": "outdoors", "wordID": 986, "conditions": [18, 1200, "a", 18000], "trial": 0, "serialpos": 2, "trial_type": "single-audio", "trial_index": 23, "time_elapsed": 799058, "internal_node_id": "0.0-14.0"}}, {"uniqueid": "MTK0695:3KOPY89HM997Z2LVETRTGYX835TJ39", "current_trial": 24, "dateTime": 1512602592597, "trialdata": {"rt": -1000, "stimulus": "/static/audio/wordpool/POISON.wav", "key_press": -1, "type": "PRES_AUD", "word": "poison", "wordID": 1095, "conditions": [18, 1200, "a", 18000], "trial": 0, "serialpos": 3, "trial_type": "single-audio", "trial_index": 24, "time_elapsed": 801112, "internal_node_id": "0.0-15.0"}}, {"uniqueid": "MTK0695:3KOPY89HM997Z2LVETRTGYX835TJ39", "current_trial": 25, "dateTime": 1512602594850, "trialdata": {"rt": -1000, "stimulus": "/static/audio/wordpool/PARROT.wav", "key_press": -1, "type": "PRES_AUD", "word": "parrot", "wordID": 1014, "conditions": [18, 1200, "a", 18000], "trial": 0, "serialpos": 4, "trial_type": "single-audio", "trial_index": 25, "time_elapsed": 803365, "internal_node_id": "0.0-16.0"}}, {"uniqueid": "MTK0695:3KOPY89HM997Z2LVETRTGYX835TJ39", "current_trial": 26, "dateTime": 1512602597004, "trialdata": {"rt": -1000, "stimulus": "/static/audio/wordpool/BOYFRIEND.wav", "key_press": -1, "type": "PRES_AUD", "word": "boyfriend", "wordID": 161, "conditions": [18, 1200, "a", 18000], "trial": 0, "serialpos": 5, "trial_type": "single-audio", "trial_index": 26, "time_elapsed": 805519, "internal_node_id": "0.0-17.0"}}, {"uniqueid": "MTK0695:3KOPY89HM997Z2LVETRTGYX835TJ39", "current_trial": 27, "dateTime": 1512602599247, "trialdata": {"rt": -1000, "stimulus": "/static/audio/wordpool/PIGMENT.wav", "key_press": -1, "type": "PRES_AUD", "word": "pigment", "wordID": 1065, "conditions": [18, 1200, "a", 18000], "trial": 0, "serialpos": 6, "trial_type": "single-audio", "trial_index": 27, "time_elapsed": 807762, "internal_node_id": "0.0-18.0"}}, {"uniqueid": "MTK0695:3KOPY89HM997Z2LVETRTGYX835TJ39", "current_trial": 28, "dateTime": 1512602601639, "trialdata": {"rt": -1000, "stimulus": "/static/audio/wordpool/SUITCASE.wav", "key_press": -1, "type": "PRES_AUD", "word": "suitcase", "wordID": 1402, "conditions": [18, 1200, "a", 18000], "trial": 0, "serialpos": 7, "trial_type": "single-audio", "trial_index": 28, "time_elapsed": 810153, "internal_node_id": "0.0-19.0"}}, {"uniqueid": "MTK0695:3KOPY89HM997Z2LVETRTGYX835TJ39", "current_trial": 29, "dateTime": 1512602604032, "trialdata": {"rt": -1000, "stimulus": "/static/audio/wordpool/XEROX.wav", "key_press": -1, "type": "PRES_AUD", "word": "xerox", "wordID": 1627, "conditions": [18, 1200, "a", 18000], "trial": 0, "serialpos": 8, "trial_type": "single-audio", "trial_index": 29, "time_elapsed": 812546, "internal_node_id": "0.0-20.0"}}, {"uniqueid": "MTK0695:3KOPY89HM997Z2LVETRTGYX835TJ39", "current_trial": 30, "dateTime": 1512602606431, "trialdata": {"rt": -1000, "stimulus": "/static/audio/wordpool/CRATER.wav", "key_press": -1, "type": "PRES_AUD", "word": "crater", "wordID": 399, "conditions": [18, 1200, "a", 18000], "trial": 0, "serialpos": 9, "trial_type": "single-audio", "trial_index": 30, "time_elapsed": 814946, "internal_node_id": "0.0-21.0"}}, {"uniqueid": "MTK0695:3KOPY89HM997Z2LVETRTGYX835TJ39", "current_trial": 31, "dateTime": 1512602608728, "trialdata": {"rt": -1000, "stimulus": "/static/audio/wordpool/COFFEE.wav", "key_press": -1, "type": "PRES_AUD", "word": "coffee", "wordID": 340, "conditions": [18, 1200, "a", 18000], "trial": 0, "serialpos": 10, "trial_type": "single-audio", "trial_index": 31, "time_elapsed": 817243, "internal_node_id": "0.0-22.0"}}, {"uniqueid": "MTK0695:3KOPY89HM997Z2LVETRTGYX835TJ39", "current_trial": 32, "dateTime": 1512602611081, "trialdata": {"rt": -1000, "stimulus": "/static/audio/wordpool/GOBLIN.wav", "key_press": -1, "type": "PRES_AUD", "word": "goblin", "wordID": 644, "conditions": [18, 1200, "a", 18000], "trial": 0, "serialpos": 11, "trial_type": "single-audio", "trial_index": 32, "time_elapsed": 819596, "internal_node_id": "0.0-23.0"}}, {"uniqueid": "MTK0695:3KOPY89HM997Z2LVETRTGYX835TJ39", "current_trial": 33, "dateTime": 1512602613283, "trialdata": {"rt": -1000, "stimulus": "/static/audio/wordpool/TUNNEL.wav", "key_press": -1, "type": "PRES_AUD", "word": "tunnel", "wordID": 1518, "conditions": [18, 1200, "a", 18000], "trial": 0, "serialpos": 12, "trial_type": "single-audio", "trial_index": 33, "time_elapsed": 821798, "internal_node_id": "0.0-24.0"}}, {"uniqueid": "MTK0695:3KOPY89HM997Z2LVETRTGYX835TJ39", "current_trial": 34, "dateTime": 1512602615591, "trialdata": {"rt": -1000, "stimulus": "/static/audio/wordpool/CABIN.wav", "key_press": -1, "type": "PRES_AUD", "word": "cabin", "wordID": 210, "conditions": [18, 1200, "a", 18000], "trial": 0, "serialpos": 13, "trial_type": "single-audio", "trial_index": 34, "time_elapsed": 824105, "internal_node_id": "0.0-25.0"}}, {"uniqueid": "MTK0695:3KOPY89HM997Z2LVETRTGYX835TJ39", "current_trial": 35, "dateTime": 1512602617811, "trialdata": {"rt": -1000, "stimulus": "/static/audio/wordpool/CONVICT.wav", "key_press": -1, "type": "PRES_AUD", "word": "convict", "wordID": 370, "conditions": [18, 1200, "a", 18000], "trial": 0, "serialpos": 14, "trial_type": "single-audio", "trial_index": 35, "time_elapsed": 826325, "internal_node_id": "0.0-26.0"}}, {"uniqueid": "MTK0695:3KOPY89HM997Z2LVETRTGYX835TJ39", "current_trial": 36, "dateTime": 1512602620164, "trialdata": {"rt": -1000, "stimulus": "/static/audio/wordpool/BIKE.wav", "key_press": -1, "type": "PRES_AUD", "word": "bike", "wordID": 124, "conditions": [18, 1200, "a", 18000], "trial": 0, "serialpos": 15, "trial_type": "single-audio", "trial_index": 36, "time_elapsed": 828679, "internal_node_id": "0.0-27.0"}}, {"uniqueid": "MTK0695:3KOPY89HM997Z2LVETRTGYX835TJ39", "current_trial": 37, "dateTime": 1512602622205, "trialdata": {"rt": -1000, "stimulus": "/static/audio/wordpool/BUCKET.wav", "key_press": -1, "type": "PRES_AUD", "word": "bucket", "wordID": 183, "conditions": [18, 1200, "a", 18000], "trial": 0, "serialpos": 16, "trial_type": "single-audio", "trial_index": 37, "time_elapsed": 830719, "internal_node_id": "0.0-28.0"}}, {"uniqueid": "MTK0695:3KOPY89HM997Z2LVETRTGYX835TJ39", "current_trial": 38, "dateTime": 1512602624552, "trialdata": {"rt": -1000, "stimulus": "/static/audio/wordpool/LADY.wav", "key_press": -1, "type": "PRES_AUD", "word": "lady", "wordID": 793, "conditions": [18, 1200, "a", 18000], "trial": 0, "serialpos": 17, "trial_type": "single-audio", "trial_index": 38, "time_elapsed": 833066, "internal_node_id": "0.0-29.0"}}, {"uniqueid": "MTK0695:3KOPY89HM997Z2LVETRTGYX835TJ39", "current_trial": 39, "dateTime": 1512602625784, "trialdata": {"rt": -1, "stimulus": "", "key_press": -1, "type": "PRE_RECALL_DELAY", "trial_type": "single-stim", "trial_index": 39, "time_elapsed": 834299, "internal_node_id": "0.0-30.0-0.0"}}, {"uniqueid": "MTK0695:3KOPY89HM997Z2LVETRTGYX835TJ39", "current_trial": 40, "dateTime": 1512602626287, "trialdata": {"rt": -1000, "stimulus": "/static/audio/400Hz.wav", "key_press": -1, "type": "PRE_RECALL_ALERT", "trial_type": "single-audio", "trial_index": 40, "time_elapsed": 834801, "internal_node_id": "0.0-31.0"}}, {"uniqueid": "MTK0695:3KOPY89HM997Z2LVETRTGYX835TJ39", "current_trial": 41, "dateTime": 1512602686323, "trialdata": {"rt": [5019, 5067, 9538, 13479, 15190, 17071, 19200, 21640, 31023], "recwords": ["lady", "", "bucket", "boyfriend", "pasta", "poison", "crater", "bike", "ulcer"], "type": "FREE_RECALL", "conditions": [18, 1200, "a", 18000], "trial": 0, "trial_type": "free-recall", "trial_index": 41, "time_elapsed": 894830, "internal_node_id": "0.0-32.0-0.0"}}, {"uniqueid": "MTK0695:3KOPY89HM997Z2LVETRTGYX835TJ39", "current_trial": 42, "dateTime": 1512602699734, "trialdata": {"rt": 11407, "key_press": 32, "type": "INSTRUCTIONS", "trial_type": "text", "trial_index": 42, "time_elapsed": 908249, "internal_node_id": "0.0-33.0"}}, {"uniqueid": "MTK0695:3KOPY89HM997Z2LVETRTGYX835TJ39", "current_trial": 43, "dateTime": 1512602719748, "trialdata": {"rt": [2890, 5322, 7177, 10651, 13357, 17355], "responses": ["11", "23", "7", "17", "22", "16"], "num1": [3, 7, 2, 5, 9, 3, 8], "num2": [7, 8, 3, 4, 5, 7, 5], "num3": [1, 8, 2, 8, 8, 6, 8], "type": "DISTRACTOR", "conditions": [18, 1200, "v", 18000], "trial": 1, "trial_type": "math-distractor", "trial_index": 43, "time_elapsed": 928262, "internal_node_id": "0.0-34.0"}}, {"uniqueid": "MTK0695:3KOPY89HM997Z2LVETRTGYX835TJ39", "current_trial": 44, "dateTime": 1512602722758, "trialdata": {"rt": -1, "stimulus": "<p id=\"stim\">10</p>", "key_press": -1, "trial_type": "single-stim", "trial_index": 44, "time_elapsed": 931272, "internal_node_id": "0.0-35.0-0.0"}}, {"uniqueid": "MTK0695:3KOPY89HM997Z2LVETRTGYX835TJ39", "current_trial": 45, "dateTime": 1512602723760, "trialdata": {"rt": -1, "stimulus": "<p id=\"stim\">9</p>", "key_press": -1, "trial_type": "single-stim", "trial_index": 45, "time_elapsed": 932275, "internal_node_id": "0.0-35.0-1.0"}}, {"uniqueid": "MTK0695:3KOPY89HM997Z2LVETRTGYX835TJ39", "current_trial": 46, "dateTime": 1512602724765, "trialdata": {"rt": -1, "stimulus": "<p id=\"stim\">8</p>", "key_press": -1, "trial_type": "single-stim", "trial_index": 46, "time_elapsed": 933279, "internal_node_id": "0.0-35.0-2.0"}}, {"uniqueid": "MTK0695:3KOPY89HM997Z2LVETRTGYX835TJ39", "current_trial": 47, "dateTime": 1512602725769, "trialdata": {"rt": -1, "stimulus": "<p id=\"stim\">7</p>", "key_press": -1, "trial_type": "single-stim", "trial_index": 47, "time_elapsed": 934283, "internal_node_id": "0.0-35.0-3.0"}}, {"uniqueid": "MTK0695:3KOPY89HM997Z2LVETRTGYX835TJ39", "current_trial": 48, "dateTime": 1512602726771, "trialdata": {"rt": -1, "stimulus": "<p id=\"stim\">6</p>", "key_press": -1, "trial_type": "single-stim", "trial_index": 48, "time_elapsed": 935286, "internal_node_id": "0.0-35.0-4.0"}}, {"uniqueid": "MTK0695:3KOPY89HM997Z2LVETRTGYX835TJ39", "current_trial": 49, "dateTime": 1512602727776, "trialdata": {"rt": -1, "stimulus": "<p id=\"stim\">5</p>", "key_press": -1, "trial_type": "single-stim", "trial_index": 49, "time_elapsed": 936291, "internal_node_id": "0.0-35.0-5.0"}}, {"uniqueid": "MTK0695:3KOPY89HM997Z2LVETRTGYX835TJ39", "current_trial": 50, "dateTime": 1512602728780, "trialdata": {"rt": -1, "stimulus": "<p id=\"stim\">4</p>", "key_press": -1, "trial_type": "single-stim", "trial_index": 50, "time_elapsed": 937295, "internal_node_id": "0.0-35.0-6.0"}}, {"uniqueid": "MTK0695:3KOPY89HM997Z2LVETRTGYX835TJ39", "current_trial": 51, "dateTime": 1512602729782, "trialdata": {"rt": -1, "stimulus": "<p id=\"stim\">3</p>", "key_press": -1, "trial_type": "single-stim", "trial_index": 51, "time_elapsed": 938296, "internal_node_id": "0.0-35.0-7.0"}}, {"uniqueid": "MTK0695:3KOPY89HM997Z2LVETRTGYX835TJ39", "current_trial": 52, "dateTime": 1512602730784, "trialdata": {"rt": -1, "stimulus": "<p id=\"stim\">2</p>", "key_press": -1, "trial_type": "single-stim", "trial_index": 52, "time_elapsed": 939299, "internal_node_id": "0.0-35.0-8.0"}}, {"uniqueid": "MTK0695:3KOPY89HM997Z2LVETRTGYX835TJ39", "current_trial": 53, "dateTime": 1512602731791, "trialdata": {"rt": -1, "stimulus": "<p id=\"stim\">1</p>", "key_press": -1, "trial_type": "single-stim", "trial_index": 53, "time_elapsed": 940301, "internal_node_id": "0.0-35.0-9.0"}}, {"uniqueid": "MTK0695:3KOPY89HM997Z2LVETRTGYX835TJ39", "current_trial": 54, "dateTime": 1512602733298, "trialdata": {"rt": -1, "stimulus": "<p id=\"stim\">+</p>", "key_press": -1, "type": "FIXATION", "trial_type": "single-stim", "trial_index": 54, "time_elapsed": 941813, "internal_node_id": "0.0-36.0-0.0"}}, {"uniqueid": "MTK0695:3KOPY89HM997Z2LVETRTGYX835TJ39", "current_trial": 55, "dateTime": 1512602734505, "trialdata": {"rt": -1, "stimulus": "<p id=\"stim\">SPHINX</p>", "key_press": -1, "type": "PRES_VIS", "word": "sphinx", "wordID": 1348, "conditions": [18, 1200, "v", 18000], "trial": 1, "serialpos": 0, "trial_type": "single-stim", "trial_index": 55, "time_elapsed": 943020, "internal_node_id": "0.0-37.0"}}, {"uniqueid": "MTK0695:3KOPY89HM997Z2LVETRTGYX835TJ39", "current_trial": 56, "dateTime": 1512602736812, "trialdata": {"rt": -1, "stimulus": "<p id=\"stim\">DONKEY</p>", "key_press": -1, "type": "PRES_VIS", "word": "donkey", "wordID": 483, "conditions": [18, 1200, "v", 18000], "trial": 1, "serialpos": 1, "trial_type": "single-stim", "trial_index": 56, "time_elapsed": 945327, "internal_node_id": "0.0-38.0"}}, {"uniqueid": "MTK0695:3KOPY89HM997Z2LVETRTGYX835TJ39", "current_trial": 57, "dateTime": 1512602738843, "trialdata": {"rt": -1, "stimulus": "<p id=\"stim\">CAPTIVE</p>", "key_press": -1, "type": "PRES_VIS", "word": "captive", "wordID": 239, "conditions": [18, 1200, "v", 18000], "trial": 1, "serialpos": 2, "trial_type": "single-stim", "trial_index": 57, "time_elapsed": 947357, "internal_node_id": "0.0-39.0"}}, {"uniqueid": "MTK0695:3KOPY89HM997Z2LVETRTGYX835TJ39", "current_trial": 58, "dateTime": 1512602741170, "trialdata": {"rt": -1, "stimulus": "<p id=\"stim\">FLASHLIGHT</p>", "key_press": -1, "type": "PRES_VIS", "word": "flashlight", "wordID": 574, "conditions": [18, 1200, "v", 18000], "trial": 1, "serialpos": 3, "trial_type": "single-stim", "trial_index": 58, "time_elapsed": 949684, "internal_node_id": "0.0-40.0"}}, {"uniqueid": "MTK0695:3KOPY89HM997Z2LVETRTGYX835TJ39", "current_trial": 59, "dateTime": 1512602743219, "trialdata": {"rt": -1, "stimulus": "<p id=\"stim\">SURVEY</p>", "key_press": -1, "type": "PRES_VIS", "word": "survey", "wordID": 1413, "conditions": [18, 1200, "v", 18000], "trial": 1, "serialpos": 4, "trial_type": "single-stim", "trial_index": 59, "time_elapsed": 951734, "internal_node_id": "0.0-41.0"}}, {"uniqueid": "MTK0695:3KOPY89HM997Z2LVETRTGYX835TJ39", "current_trial": 60, "dateTime": 1512602745335, "trialdata": {"rt": -1, "stimulus": "<p id=\"stim\">COMET</p>", "key_press": -1, "type": "PRES_VIS", "word": "comet", "wordID": 352, "conditions": [18, 1200, "v", 18000], "trial": 1, "serialpos": 5, "trial_type": "single-stim", "trial_index": 60, "time_elapsed": 953850, "internal_node_id": "0.0-42.0"}}, {"uniqueid": "MTK0695:3KOPY89HM997Z2LVETRTGYX835TJ39", "current_trial": 61, "dateTime": 1512602747547, "trialdata": {"rt": -1, "stimulus": "<p id=\"stim\">SCOTCH</p>", "key_press": -1, "type": "PRES_VIS", "word": "scotch", "wordID": 1250, "conditions": [18, 1200, "v", 18000], "trial": 1, "serialpos": 6, "trial_type": "single-stim", "trial_index": 61, "time_elapsed": 956062, "internal_node_id": "0.0-43.0"}}, {"uniqueid": "MTK0695:3KOPY89HM997Z2LVETRTGYX835TJ39", "current_trial": 62, "dateTime": 1512602749953, "trialdata": {"rt": -1, "stimulus": "<p id=\"stim\">BURGLAR</p>", "key_press": -1, "type": "PRES_VIS", "word": "burglar", "wordID": 199, "conditions": [18, 1200, "v", 18000], "trial": 1, "serialpos": 7, "trial_type": "single-stim", "trial_index": 62, "time_elapsed": 958468, "internal_node_id": "0.0-44.0"}}, {"uniqueid": "MTK0695:3KOPY89HM997Z2LVETRTGYX835TJ39", "current_trial": 63, "dateTime": 1512602752016, "trialdata": {"rt": -1, "stimulus": "<p id=\"stim\">AUTHOR</p>", "key_press": -1, "type": "PRES_VIS", "word": "author", "wordID": 60, "conditions": [18, 1200, "v", 18000], "trial": 1, "serialpos": 8, "trial_type": "single-stim", "trial_index": 63, "time_elapsed": 960531, "internal_node_id": "0.0-45.0"}}, {"uniqueid": "MTK0695:3KOPY89HM997Z2LVETRTGYX835TJ39", "current_trial": 64, "dateTime": 1512602754131, "trialdata": {"rt": -1, "stimulus": "<p id=\"stim\">MARSH</p>", "key_press": -1, "type": "PRES_VIS", "word": "marsh", "wordID": 873, "conditions": [18, 1200, "v", 18000], "trial": 1, "serialpos": 9, "trial_type": "single-stim", "trial_index": 64, "time_elapsed": 962646, "internal_node_id": "0.0-46.0"}}, {"uniqueid": "MTK0695:3KOPY89HM997Z2LVETRTGYX835TJ39", "current_trial": 65, "dateTime": 1512602756248, "trialdata": {"rt": -1, "stimulus": "<p id=\"stim\">WASP</p>", "key_press": -1, "type": "PRES_VIS", "word": "wasp", "wordID": 1592, "conditions": [18, 1200, "v", 18000], "trial": 1, "serialpos": 10, "trial_type": "single-stim", "trial_index": 65, "time_elapsed": 964763, "internal_node_id": "0.0-47.0"}}, {"uniqueid": "MTK0695:3KOPY89HM997Z2LVETRTGYX835TJ39", "current_trial": 66, "dateTime": 1512602758327, "trialdata": {"rt": -1, "stimulus": "<p id=\"stim\">TRENCH</p>", "key_press": -1, "type": "PRES_VIS", "word": "trench", "wordID": 1502, "conditions": [18, 1200, "v", 18000], "trial": 1, "serialpos": 11, "trial_type": "single-stim", "trial_index": 66, "time_elapsed": 966841, "internal_node_id": "0.0-48.0"}}, {"uniqueid": "MTK0695:3KOPY89HM997Z2LVETRTGYX835TJ39", "current_trial": 67, "dateTime": 1512602760548, "trialdata": {"rt": -1, "stimulus": "<p id=\"stim\">OZONE</p>", "key_press": -1, "type": "PRES_VIS", "word": "ozone", "wordID": 995, "conditions": [18, 1200, "v", 18000], "trial": 1, "serialpos": 12, "trial_type": "single-stim", "trial_index": 67, "time_elapsed": 969063, "internal_node_id": "0.0-49.0"}}, {"uniqueid": "MTK0695:3KOPY89HM997Z2LVETRTGYX835TJ39", "current_trial": 68, "dateTime": 1512602762750, "trialdata": {"rt": -1, "stimulus": "<p id=\"stim\">TROMBONE</p>", "key_press": -1, "type": "PRES_VIS", "word": "trombone", "wordID": 1507, "conditions": [18, 1200, "v", 18000], "trial": 1, "serialpos": 13, "trial_type": "single-stim", "trial_index": 68, "time_elapsed": 971264, "internal_node_id": "0.0-50.0"}}, {"uniqueid": "MTK0695:3KOPY89HM997Z2LVETRTGYX835TJ39", "current_trial": 69, "dateTime": 1512602764762, "trialdata": {"rt": -1, "stimulus": "<p id=\"stim\">ROOSTER</p>", "key_press": -1, "type": "PRES_VIS", "word": "rooster", "wordID": 1208, "conditions": [18, 1200, "v", 18000], "trial": 1, "serialpos": 14, "trial_type": "single-stim", "trial_index": 69, "time_elapsed": 973277, "internal_node_id": "0.0-51.0"}}, {"uniqueid": "MTK0695:3KOPY89HM997Z2LVETRTGYX835TJ39", "current_trial": 70, "dateTime": 1512602766854, "trialdata": {"rt": -1, "stimulus": "<p id=\"stim\">BULLET</p>", "key_press": -1, "type": "PRES_VIS", "word": "bullet", "wordID": 193, "conditions": [18, 1200, "v", 18000], "trial": 1, "serialpos": 15, "trial_type": "single-stim", "trial_index": 70, "time_elapsed": 975369, "internal_node_id": "0.0-52.0"}}, {"uniqueid": "MTK0695:3KOPY89HM997Z2LVETRTGYX835TJ39", "current_trial": 71, "dateTime": 1512602769209, "trialdata": {"rt": -1, "stimulus": "<p id=\"stim\">APRON</p>", "key_press": -1, "type": "PRES_VIS", "word": "apron", "wordID": 34, "conditions": [18, 1200, "v", 18000], "trial": 1, "serialpos": 16, "trial_type": "single-stim", "trial_index": 71, "time_elapsed": 977723, "internal_node_id": "0.0-53.0"}}, {"uniqueid": "MTK0695:3KOPY89HM997Z2LVETRTGYX835TJ39", "current_trial": 72, "dateTime": 1512602771454, "trialdata": {"rt": -1, "stimulus": "<p id=\"stim\">JELLO</p>", "key_press": -1, "type": "PRES_VIS", "word": "jello", "wordID": 753, "conditions": [18, 1200, "v", 18000], "trial": 1, "serialpos": 17, "trial_type": "single-stim", "trial_index": 72, "time_elapsed": 979968, "internal_node_id": "0.0-54.0"}}, {"uniqueid": "MTK0695:3KOPY89HM997Z2LVETRTGYX835TJ39", "current_trial": 73, "dateTime": 1512602773783, "trialdata": {"rt": -1, "stimulus": "", "key_press": -1, "type": "PRE_RECALL_DELAY", "trial_type": "single-stim", "trial_index": 73, "time_elapsed": 982298, "internal_node_id": "0.0-55.0-0.0"}}, {"uniqueid": "MTK0695:3KOPY89HM997Z2LVETRTGYX835TJ39", "current_trial": 74, "dateTime": 1512602774292, "trialdata": {"rt": -1000, "stimulus": "/static/audio/400Hz.wav", "key_press": -1, "type": "PRE_RECALL_ALERT", "trial_type": "single-audio", "trial_index": 74, "time_elapsed": 982806, "internal_node_id": "0.0-56.0"}}, {"uniqueid": "MTK0695:3KOPY89HM997Z2LVETRTGYX835TJ39", "current_trial": 75, "dateTime": 1512602834318, "trialdata": {"rt": [3148, 4860, 7791, 12528, 20322, 22170, 23312, 26570], "recwords": ["rooster", "jello", "apron", "marsh", "donkey", "survey", "comet", "sphinx"], "type": "FREE_RECALL", "conditions": [18, 1200, "v", 18000], "trial": 1, "trial_type": "free-recall", "trial_index": 75, "time_elapsed": 1042826, "internal_node_id": "0.0-57.0-0.0"}}, {"uniqueid": "MTK0695:3KOPY89HM997Z2LVETRTGYX835TJ39", "current_trial": 76, "dateTime": 1512603193194, "trialdata": {"rt": 356863, "key_press": 32, "type": "INSTRUCTIONS", "trial_type": "text", "trial_index": 76, "time_elapsed": 1401699, "internal_node_id": "0.0-58.0"}}, {"uniqueid": "MTK0695:3KOPY89HM997Z2LVETRTGYX835TJ39", "current_trial": 77, "dateTime": 1512603218210, "trialdata": {"rt": [5051, 9155, 12259, 15037, 16956, 19975, 22385], "responses": ["10", "16", "16", "14", "18", "17", "15"], "num1": [3, 3, 7, 6, 9, 5, 7, 1], "num2": [6, 4, 8, 7, 8, 9, 5, 5], "num3": [3, 9, 1, 1, 1, 3, 3, 9], "type": "DISTRACTOR", "conditions": [12, 800, "a", 24000], "trial": 2, "trial_type": "math-distractor", "trial_index": 77, "time_elapsed": 1426724, "internal_node_id": "0.0-59.0"}}, {"uniqueid": "MTK0695:3KOPY89HM997Z2LVETRTGYX835TJ39", "current_trial": 78, "dateTime": 1512603221216, "trialdata": {"rt": -1, "stimulus": "<p id=\"stim\">10</p>", "key_press": -1, "trial_type": "single-stim", "trial_index": 78, "time_elapsed": 1429731, "internal_node_id": "0.0-60.0-0.0"}}, {"uniqueid": "MTK0695:3KOPY89HM997Z2LVETRTGYX835TJ39", "current_trial": 79, "dateTime": 1512603222221, "trialdata": {"rt": -1, "stimulus": "<p id=\"stim\">9</p>", "key_press": -1, "trial_type": "single-stim", "trial_index": 79, "time_elapsed": 1430735, "internal_node_id": "0.0-60.0-1.0"}}, {"uniqueid": "MTK0695:3KOPY89HM997Z2LVETRTGYX835TJ39", "current_trial": 80, "dateTime": 1512603223225, "trialdata": {"rt": -1, "stimulus": "<p id=\"stim\">8</p>", "key_press": -1, "trial_type": "single-stim", "trial_index": 80, "time_elapsed": 1431740, "internal_node_id": "0.0-60.0-2.0"}}, {"uniqueid": "MTK0695:3KOPY89HM997Z2LVETRTGYX835TJ39", "current_trial": 81, "dateTime": 1512603224230, "trialdata": {"rt": -1, "stimulus": "<p id=\"stim\">7</p>", "key_press": -1, "trial_type": "single-stim", "trial_index": 81, "time_elapsed": 1432745, "internal_node_id": "0.0-60.0-3.0"}}, {"uniqueid": "MTK0695:3KOPY89HM997Z2LVETRTGYX835TJ39", "current_trial": 82, "dateTime": 1512603225233, "trialdata": {"rt": -1, "stimulus": "<p id=\"stim\">6</p>", "key_press": -1, "trial_type": "single-stim", "trial_index": 82, "time_elapsed": 1433748, "internal_node_id": "0.0-60.0-4.0"}}, {"uniqueid": "MTK0695:3KOPY89HM997Z2LVETRTGYX835TJ39", "current_trial": 83, "dateTime": 1512603226318, "trialdata": {"rt": -1, "stimulus": "<p id=\"stim\">5</p>", "key_press": -1, "trial_type": "single-stim", "trial_index": 83, "time_elapsed": 1434832, "internal_node_id": "0.0-60.0-5.0"}}, {"uniqueid": "MTK0695:3KOPY89HM997Z2LVETRTGYX835TJ39", "current_trial": 84, "dateTime": 1512603227323, "trialdata": {"rt": -1, "stimulus": "<p id=\"stim\">4</p>", "key_press": -1, "trial_type": "single-stim", "trial_index": 84, "time_elapsed": 1435837, "internal_node_id": "0.0-60.0-6.0"}}, {"uniqueid": "MTK0695:3KOPY89HM997Z2LVETRTGYX835TJ39", "current_trial": 85, "dateTime": 1512603228387, "trialdata": {"rt": -1, "stimulus": "<p id=\"stim\">3</p>", "key_press": -1, "trial_type": "single-stim", "trial_index": 85, "time_elapsed": 1436902, "internal_node_id": "0.0-60.0-7.0"}}, {"uniqueid": "MTK0695:3KOPY89HM997Z2LVETRTGYX835TJ39", "current_trial": 86, "dateTime": 1512603229396, "trialdata": {"rt": -1, "stimulus": "<p id=\"stim\">2</p>", "key_press": -1, "trial_type": "single-stim", "trial_index": 86, "time_elapsed": 1437911, "internal_node_id": "0.0-60.0-8.0"}}, {"uniqueid": "MTK0695:3KOPY89HM997Z2LVETRTGYX835TJ39", "current_trial": 87, "dateTime": 1512603230398, "trialdata": {"rt": -1, "stimulus": "<p id=\"stim\">1</p>", "key_press": -1, "trial_type": "single-stim", "trial_index": 87, "time_elapsed": 1438913, "internal_node_id": "0.0-60.0-9.0"}}, {"uniqueid": "MTK0695:3KOPY89HM997Z2LVETRTGYX835TJ39", "current_trial": 88, "dateTime": 1512603231904, "trialdata": {"rt": -1, "stimulus": "<p id=\"stim\">+</p>", "key_press": -1, "type": "FIXATION", "trial_type": "single-stim", "trial_index": 88, "time_elapsed": 1440418, "internal_node_id": "0.0-61.0-0.0"}}, {"uniqueid": "MTK0695:3KOPY89HM997Z2LVETRTGYX835TJ39", "current_trial": 89, "dateTime": 1512603233755, "trialdata": {"rt": -1000, "stimulus": "/static/audio/wordpool/CLIMBER.wav", "key_press": -1, "type": "PRES_AUD", "word": "climber", "wordID": 322, "conditions": [12, 800, "a", 24000], "trial": 2, "serialpos": 0, "trial_type": "single-audio", "trial_index": 89, "time_elapsed": 1442268, "internal_node_id": "0.0-62.0"}}, {"uniqueid": "MTK0695:3KOPY89HM997Z2LVETRTGYX835TJ39", "current_trial": 90, "dateTime": 1512603235483, "trialdata": {"rt": -1000, "stimulus": "/static/audio/wordpool/BOX.wav", "key_press": -1, "type": "PRES_AUD", "word": "box", "wordID": 158, "conditions": [12, 800, "a", 24000], "trial": 2, "serialpos": 1, "trial_type": "single-audio", "trial_index": 90, "time_elapsed": 1443998, "internal_node_id": "0.0-63.0"}}, {"uniqueid": "MTK0695:3KOPY89HM997Z2LVETRTGYX835TJ39", "current_trial": 91, "dateTime": 1512603237318, "trialdata": {"rt": -1000, "stimulus": "/static/audio/wordpool/PEANUT.wav", "key_press": -1, "type": "PRES_AUD", "word": "peanut", "wordID": 1031, "conditions": [12, 800, "a", 24000], "trial": 2, "serialpos": 2, "trial_type": "single-audio", "trial_index": 91, "time_elapsed": 1445832, "internal_node_id": "0.0-64.0"}}, {"uniqueid": "MTK0695:3KOPY89HM997Z2LVETRTGYX835TJ39", "current_trial": 92, "dateTime": 1512603238950, "trialdata": {"rt": -1000, "stimulus": "/static/audio/wordpool/PECAN.wav", "key_press": -1, "type": "PRES_AUD", "word": "pecan", "wordID": 1035, "conditions": [12, 800, "a", 24000], "trial": 2, "serialpos": 3, "trial_type": "single-audio", "trial_index": 92, "time_elapsed": 1447465, "internal_node_id": "0.0-65.0"}}, {"uniqueid": "MTK0695:3KOPY89HM997Z2LVETRTGYX835TJ39", "current_trial": 93, "dateTime": 1512603240640, "trialdata": {"rt": -1000, "stimulus": "/static/audio/wordpool/MUSTARD.wav", "key_press": -1, "type": "PRES_AUD", "word": "mustard", "wordID": 934, "conditions": [12, 800, "a", 24000], "trial": 2, "serialpos": 4, "trial_type": "single-audio", "trial_index": 93, "time_elapsed": 1449155, "internal_node_id": "0.0-66.0"}}, {"uniqueid": "MTK0695:3KOPY89HM997Z2LVETRTGYX835TJ39", "current_trial": 94, "dateTime": 1512603242451, "trialdata": {"rt": -1000, "stimulus": "/static/audio/wordpool/CHEST.wav", "key_press": -1, "type": "PRES_AUD", "word": "chest", "wordID": 294, "conditions": [12, 800, "a", 24000], "trial": 2, "serialpos": 5, "trial_type": "single-audio", "trial_index": 94, "time_elapsed": 1450966, "internal_node_id": "0.0-67.0"}}, {"uniqueid": "MTK0695:3KOPY89HM997Z2LVETRTGYX835TJ39", "current_trial": 95, "dateTime": 1512603244092, "trialdata": {"rt": -1000, "stimulus": "/static/audio/wordpool/HARP.wav", "key_press": -1, "type": "PRES_AUD", "word": "harp", "wordID": 688, "conditions": [12, 800, "a", 24000], "trial": 2, "serialpos": 6, "trial_type": "single-audio", "trial_index": 95, "time_elapsed": 1452606, "internal_node_id": "0.0-68.0"}}, {"uniqueid": "MTK0695:3KOPY89HM997Z2LVETRTGYX835TJ39", "current_trial": 96, "dateTime": 1512603245776, "trialdata": {"rt": -1000, "stimulus": "/static/audio/wordpool/BUTCHER.wav", "key_press": -1, "type": "PRES_AUD", "word": "butcher", "wordID": 202, "conditions": [12, 800, "a", 24000], "trial": 2, "serialpos": 7, "trial_type": "single-audio", "trial_index": 96, "time_elapsed": 1454290, "internal_node_id": "0.0-69.0"}}, {"uniqueid": "MTK0695:3KOPY89HM997Z2LVETRTGYX835TJ39", "current_trial": 97, "dateTime": 1512603247483, "trialdata": {"rt": -1000, "stimulus": "/static/audio/wordpool/STOMACH.wav", "key_press": -1, "type": "PRES_AUD", "word": "stomach", "wordID": 1383, "conditions": [12, 800, "a", 24000], "trial": 2, "serialpos": 8, "trial_type": "single-audio", "trial_index": 97, "time_elapsed": 1455998, "internal_node_id": "0.0-70.0"}}, {"uniqueid": "MTK0695:3KOPY89HM997Z2LVETRTGYX835TJ39", "current_trial": 98, "dateTime": 1512603249449, "trialdata": {"rt": -1000, "stimulus": "/static/audio/wordpool/SHRUB.wav", "key_press": -1, "type": "PRES_AUD", "word": "shrub", "wordID": 1298, "conditions": [12, 800, "a", 24000], "trial": 2, "serialpos": 9, "trial_type": "single-audio", "trial_index": 98, "time_elapsed": 1457964, "internal_node_id": "0.0-71.0"}}, {"uniqueid": "MTK0695:3KOPY89HM997Z2LVETRTGYX835TJ39", "current_trial": 99, "dateTime": 1512603251237, "trialdata": {"rt": -1000, "stimulus": "/static/audio/wordpool/TWIG.wav", "key_press": -1, "type": "PRES_AUD", "word": "twig", "wordID": 1526, "conditions": [12, 800, "a", 24000], "trial": 2, "serialpos": 10, "trial_type": "single-audio", "trial_index": 99, "time_elapsed": 1459752, "internal_node_id": "0.0-72.0"}}, {"uniqueid": "MTK0695:3KOPY89HM997Z2LVETRTGYX835TJ39", "current_trial": 100, "dateTime": 1512603252967, "trialdata": {"rt": -1000, "stimulus": "/static/audio/wordpool/COBRA.wav", "key_press": -1, "type": "PRES_AUD", "word": "cobra", "wordID": 335, "conditions": [12, 800, "a", 24000], "trial": 2, "serialpos": 11, "trial_type": "single-audio", "trial_index": 100, "time_elapsed": 1461482, "internal_node_id": "0.0-73.0"}}, {"uniqueid": "MTK0695:3KOPY89HM997Z2LVETRTGYX835TJ39", "current_trial": 101, "dateTime": 1512603254339, "trialdata": {"rt": -1, "stimulus": "", "key_press": -1, "type": "PRE_RECALL_DELAY", "trial_type": "single-stim", "trial_index": 101, "time_elapsed": 1462853, "internal_node_id": "0.0-74.0-0.0"}}, {"uniqueid": "MTK0695:3KOPY89HM997Z2LVETRTGYX835TJ39", "current_trial": 102, "dateTime": 1512603254843, "trialdata": {"rt": -1000, "stimulus": "/static/audio/400Hz.wav", "key_press": -1, "type": "PRE_RECALL_ALERT", "trial_type": "single-audio", "trial_index": 102, "time_elapsed": 1463358, "internal_node_id": "0.0-75.0"}}, {"uniqueid": "MTK0695:3KOPY89HM997Z2LVETRTGYX835TJ39", "current_trial": 103, "dateTime": 1512603314860, "trialdata": {"rt": [3979, 5334, 6594, 8840], "recwords": ["cobra", "pecan", "chest", "climber"], "type": "FREE_RECALL", "conditions": [12, 800, "a", 24000], "trial": 2, "trial_type": "free-recall", "trial_index": 103, "time_elapsed": 1523369, "internal_node_id": "0.0-76.0-0.0"}}, {"uniqueid": "MTK0695:3KOPY89HM997Z2LVETRTGYX835TJ39", "current_trial": 104, "dateTime": 1512603318847, "trialdata": {"rt": 1984, "key_press": 32, "type": "INSTRUCTIONS", "trial_type": "text", "trial_index": 104, "time_elapsed": 1527361, "internal_node_id": "0.0-77.0"}}, {"uniqueid": "MTK0695:3KOPY89HM997Z2LVETRTGYX835TJ39", "current_trial": 105, "dateTime": 1512603332861, "trialdata": {"rt": [4483, 8998, 11910], "responses": ["10", "15", "17"], "num1": [5, 5, 9, 8], "num2": [2, 3, 3, 1], "num3": [3, 6, 5, 3], "type": "DISTRACTOR", "conditions": [12, 800, "v", 12000], "trial": 3, "trial_type": "math-distractor", "trial_index": 105, "time_elapsed": 1541375, "internal_node_id": "0.0-78.0"}}, {"uniqueid": "MTK0695:3KOPY89HM997Z2LVETRTGYX835TJ39", "current_trial": 106, "dateTime": 1512603335870, "trialdata": {"rt": -1, "stimulus": "<p id=\"stim\">10</p>", "key_press": -1, "trial_type": "single-stim", "trial_index": 106, "time_elapsed": 1544385, "internal_node_id": "0.0-79.0-0.0"}}, {"uniqueid": "MTK0695:3KOPY89HM997Z2LVETRTGYX835TJ39", "current_trial": 107, "dateTime": 1512603336876, "trialdata": {"rt": -1, "stimulus": "<p id=\"stim\">9</p>", "key_press": -1, "trial_type": "single-stim", "trial_index": 107, "time_elapsed": 1545390, "internal_node_id": "0.0-79.0-1.0"}}, {"uniqueid": "MTK0695:3KOPY89HM997Z2LVETRTGYX835TJ39", "current_trial": 108, "dateTime": 1512603337879, "trialdata": {"rt": -1, "stimulus": "<p id=\"stim\">8</p>", "key_press": -1, "trial_type": "single-stim", "trial_index": 108, "time_elapsed": 1546394, "internal_node_id": "0.0-79.0-2.0"}}, {"uniqueid": "MTK0695:3KOPY89HM997Z2LVETRTGYX835TJ39", "current_trial": 109, "dateTime": 1512603338883, "trialdata": {"rt": -1, "stimulus": "<p id=\"stim\">7</p>", "key_press": -1, "trial_type": "single-stim", "trial_index": 109, "time_elapsed": 1547398, "internal_node_id": "0.0-79.0-3.0"}}, {"uniqueid": "MTK0695:3KOPY89HM997Z2LVETRTGYX835TJ39", "current_trial": 110, "dateTime": 1512603339888, "trialdata": {"rt": -1, "stimulus": "<p id=\"stim\">6</p>", "key_press": -1, "trial_type": "single-stim", "trial_index": 110, "time_elapsed": 1548402, "internal_node_id": "0.0-79.0-4.0"}}, {"uniqueid": "MTK0695:3KOPY89HM997Z2LVETRTGYX835TJ39", "current_trial": 111, "dateTime": 1512603340890, "trialdata": {"rt": -1, "stimulus": "<p id=\"stim\">5</p>", "key_press": -1, "trial_type": "single-stim", "trial_index": 111, "time_elapsed": 1549405, "internal_node_id": "0.0-79.0-5.0"}}, {"uniqueid": "MTK0695:3KOPY89HM997Z2LVETRTGYX835TJ39", "current_trial": 112, "dateTime": 1512603341894, "trialdata": {"rt": -1, "stimulus": "<p id=\"stim\">4</p>", "key_press": -1, "trial_type": "single-stim", "trial_index": 112, "time_elapsed": 1550409, "internal_node_id": "0.0-79.0-6.0"}}, {"uniqueid": "MTK0695:3KOPY89HM997Z2LVETRTGYX835TJ39", "current_trial": 113, "dateTime": 1512603342897, "trialdata": {"rt": -1, "stimulus": "<p id=\"stim\">3</p>", "key_press": -1, "trial_type": "single-stim", "trial_index": 113, "time_elapsed": 1551411, "internal_node_id": "0.0-79.0-7.0"}}, {"uniqueid": "MTK0695:3KOPY89HM997Z2LVETRTGYX835TJ39", "current_trial": 114, "dateTime": 1512603343902, "trialdata": {"rt": -1, "stimulus": "<p id=\"stim\">2</p>", "key_press": -1, "trial_type": "single-stim", "trial_index": 114, "time_elapsed": 1552416, "internal_node_id": "0.0-79.0-8.0"}}, {"uniqueid": "MTK0695:3KOPY89HM997Z2LVETRTGYX835TJ39", "current_trial": 115, "dateTime": 1512603344906, "trialdata": {"rt": -1, "stimulus": "<p id=\"stim\">1</p>", "key_press": -1, "trial_type": "single-stim", "trial_index": 115, "time_elapsed": 1553421, "internal_node_id": "0.0-79.0-9.0"}}, {"uniqueid": "MTK0695:3KOPY89HM997Z2LVETRTGYX835TJ39", "current_trial": 116, "dateTime": 1512603346412, "trialdata": {"rt": -1, "stimulus": "<p id=\"stim\">+</p>", "key_press": -1, "type": "FIXATION", "trial_type": "single-stim", "trial_index": 116, "time_elapsed": 1554927, "internal_node_id": "0.0-80.0-0.0"}}, {"uniqueid": "MTK0695:3KOPY89HM997Z2LVETRTGYX835TJ39", "current_trial": 117, "dateTime": 1512603347216, "trialdata": {"rt": -1, "stimulus": "<p id=\"stim\">CRAB</p>", "key_press": -1, "type": "PRES_VIS", "word": "crab", "wordID": 396, "conditions": [12, 800, "v", 12000], "trial": 3, "serialpos": 0, "trial_type": "single-stim", "trial_index": 117, "time_elapsed": 1555730, "internal_node_id": "0.0-81.0"}}, {"uniqueid": "MTK0695:3KOPY89HM997Z2LVETRTGYX835TJ39", "current_trial": 118, "dateTime": 1512603349005, "trialdata": {"rt": -1, "stimulus": "<p id=\"stim\">CLAM</p>", "key_press": -1, "type": "PRES_VIS", "word": "clam", "wordID": 314, "conditions": [12, 800, "v", 12000], "trial": 3, "serialpos": 1, "trial_type": "single-stim", "trial_index": 118, "time_elapsed": 1557520, "internal_node_id": "0.0-82.0"}}, {"uniqueid": "MTK0695:3KOPY89HM997Z2LVETRTGYX835TJ39", "current_trial": 119, "dateTime": 1512603350890, "trialdata": {"rt": -1, "stimulus": "<p id=\"stim\">POCKET</p>", "key_press": -1, "type": "PRES_VIS", "word": "pocket", "wordID": 1092, "conditions": [12, 800, "v", 12000], "trial": 3, "serialpos": 2, "trial_type": "single-stim", "trial_index": 119, "time_elapsed": 1559405, "internal_node_id": "0.0-83.0"}}, {"uniqueid": "MTK0695:3KOPY89HM997Z2LVETRTGYX835TJ39", "current_trial": 120, "dateTime": 1512603352705, "trialdata": {"rt": -1, "stimulus": "<p id=\"stim\">VENUS</p>", "key_press": -1, "type": "PRES_VIS", "word": "venus", "wordID": 1556, "conditions": [12, 800, "v", 12000], "trial": 3, "serialpos": 3, "trial_type": "single-stim", "trial_index": 120, "time_elapsed": 1561220, "internal_node_id": "0.0-84.0"}}, {"uniqueid": "MTK0695:3KOPY89HM997Z2LVETRTGYX835TJ39", "current_trial": 121, "dateTime": 1512603354437, "trialdata": {"rt": -1, "stimulus": "<p id=\"stim\">LAGOON</p>", "key_press": -1, "type": "PRES_VIS", "word": "lagoon", "wordID": 794, "conditions": [12, 800, "v", 12000], "trial": 3, "serialpos": 4, "trial_type": "single-stim", "trial_index": 121, "time_elapsed": 1562952, "internal_node_id": "0.0-85.0"}}, {"uniqueid": "MTK0695:3KOPY89HM997Z2LVETRTGYX835TJ39", "current_trial": 122, "dateTime": 1512603356342, "trialdata": {"rt": -1, "stimulus": "<p id=\"stim\">TURKEY</p>", "key_press": -1, "type": "PRES_VIS", "word": "turkey", "wordID": 1519, "conditions": [12, 800, "v", 12000], "trial": 3, "serialpos": 5, "trial_type": "single-stim", "trial_index": 122, "time_elapsed": 1564856, "internal_node_id": "0.0-86.0"}}, {"uniqueid": "MTK0695:3KOPY89HM997Z2LVETRTGYX835TJ39", "current_trial": 123, "dateTime": 1512603358333, "trialdata": {"rt": -1, "stimulus": "<p id=\"stim\">PATROL</p>", "key_press": -1, "type": "PRES_VIS", "word": "patrol", "wordID": 1026, "conditions": [12, 800, "v", 12000], "trial": 3, "serialpos": 6, "trial_type": "single-stim", "trial_index": 123, "time_elapsed": 1566848, "internal_node_id": "0.0-87.0"}}, {"uniqueid": "MTK0695:3KOPY89HM997Z2LVETRTGYX835TJ39", "current_trial": 124, "dateTime": 1512603360024, "trialdata": {"rt": -1, "stimulus": "<p id=\"stim\">ITEM</p>", "key_press": -1, "type": "PRES_VIS", "word": "item", "wordID": 745, "conditions": [12, 800, "v", 12000], "trial": 3, "serialpos": 7, "trial_type": "single-stim", "trial_index": 124, "time_elapsed": 1568539, "internal_node_id": "0.0-88.0"}}, {"uniqueid": "MTK0695:3KOPY89HM997Z2LVETRTGYX835TJ39", "current_trial": 125, "dateTime": 1512603361862, "trialdata": {"rt": -1, "stimulus": "<p id=\"stim\">BRANDY</p>", "key_press": -1, "type": "PRES_VIS", "word": "brandy", "wordID": 168, "conditions": [12, 800, "v", 12000], "trial": 3, "serialpos": 8, "trial_type": "single-stim", "trial_index": 125, "time_elapsed": 1570377, "internal_node_id": "0.0-89.0"}}, {"uniqueid": "MTK0695:3KOPY89HM997Z2LVETRTGYX835TJ39", "current_trial": 126, "dateTime": 1512603363800, "trialdata": {"rt": -1, "stimulus": "<p id=\"stim\">PORK</p>", "key_press": -1, "type": "PRES_VIS", "word": "pork", "wordID": 1107, "conditions": [12, 800, "v", 12000], "trial": 3, "serialpos": 9, "trial_type": "single-stim", "trial_index": 126, "time_elapsed": 1572314, "internal_node_id": "0.0-90.0"}}, {"uniqueid": "MTK0695:3KOPY89HM997Z2LVETRTGYX835TJ39", "current_trial": 127, "dateTime": 1512603365719, "trialdata": {"rt": -1, "stimulus": "<p id=\"stim\">GLASS</p>", "key_press": -1, "type": "PRES_VIS", "word": "glass", "wordID": 638, "conditions": [12, 800, "v", 12000], "trial": 3, "serialpos": 10, "trial_type": "single-stim", "trial_index": 127, "time_elapsed": 1574234, "internal_node_id": "0.0-91.0"}}, {"uniqueid": "MTK0695:3KOPY89HM997Z2LVETRTGYX835TJ39", "current_trial": 128, "dateTime": 1512603367474, "trialdata": {"rt": -1, "stimulus": "<p id=\"stim\">CREVICE</p>", "key_press": -1, "type": "PRES_VIS", "word": "crevice", "wordID": 404, "conditions": [12, 800, "v", 12000], "trial": 3, "serialpos": 11, "trial_type": "single-stim", "trial_index": 128, "time_elapsed": 1575988, "internal_node_id": "0.0-92.0"}}, {"uniqueid": "MTK0695:3KOPY89HM997Z2LVETRTGYX835TJ39", "current_trial": 129, "dateTime": 1512603369682, "trialdata": {"rt": -1, "stimulus": "", "key_press": -1, "type": "PRE_RECALL_DELAY", "trial_type": "single-stim", "trial_index": 129, "time_elapsed": 1578197, "internal_node_id": "0.0-93.0-0.0"}}, {"uniqueid": "MTK0695:3KOPY89HM997Z2LVETRTGYX835TJ39", "current_trial": 130, "dateTime": 1512603370187, "trialdata": {"rt": -1000, "stimulus": "/static/audio/400Hz.wav", "key_press": -1, "type": "PRE_RECALL_ALERT", "trial_type": "single-audio", "trial_index": 130, "time_elapsed": 1578702, "internal_node_id": "0.0-94.0"}}, {"uniqueid": "MTK0695:3KOPY89HM997Z2LVETRTGYX835TJ39", "current_trial": 131, "dateTime": 1512603430201, "trialdata": {"rt": [2713, 4263, 6175, 7519, 10110, 13570], "recwords": ["glass", "pork", "brandy", "venus", "lagoon", "pocket"], "type": "FREE_RECALL", "conditions": [12, 800, "v", 12000], "trial": 3, "trial_type": "free-recall", "trial_index": 131, "time_elapsed": 1638711, "internal_node_id": "0.0-95.0-0.0"}}, {"uniqueid": "MTK0695:3KOPY89HM997Z2LVETRTGYX835TJ39", "current_trial": 132, "dateTime": 1512603447181, "trialdata": {"rt": 14976, "key_press": 32, "type": "INSTRUCTIONS", "trial_type": "text", "trial_index": 132, "time_elapsed": 1655695, "internal_node_id": "0.0-96.0"}}, {"uniqueid": "MTK0695:3KOPY89HM997Z2LVETRTGYX835TJ39", "current_trial": 133, "dateTime": 1512603473193, "trialdata": {"rt": [3280, 6189, 8208, 11442, 13839, 16678, 19942, 21675], "responses": ["18", "21", "16", "18", "23", "13", "22", "15"], "num1": [9, 8, 7, 6, 8, 1, 6, 5, 6], "num2": [1, 5, 6, 5, 8, 5, 9, 3, 7], "num3": [8, 8, 3, 7, 7, 7, 7, 7, 2], "type": "DISTRACTOR", "conditions": [12, 1600, "v", 24000], "trial": 4, "trial_type": "math-distractor", "trial_index": 133, "time_elapsed": 1681707, "internal_node_id": "0.0-97.0"}}, {"uniqueid": "MTK0695:3KOPY89HM997Z2LVETRTGYX835TJ39", "current_trial": 134, "dateTime": 1512603476199, "trialdata": {"rt": -1, "stimulus": "<p id=\"stim\">10</p>", "key_press": -1, "trial_type": "single-stim", "trial_index": 134, "time_elapsed": 1684713, "internal_node_id": "0.0-98.0-0.0"}}, {"uniqueid": "MTK0695:3KOPY89HM997Z2LVETRTGYX835TJ39", "current_trial": 135, "dateTime": 1512603477204, "trialdata": {"rt": -1, "stimulus": "<p id=\"stim\">9</p>", "key_press": -1, "trial_type": "single-stim", "trial_index": 135, "time_elapsed": 1685718, "internal_node_id": "0.0-98.0-1.0"}}, {"uniqueid": "MTK0695:3KOPY89HM997Z2LVETRTGYX835TJ39", "current_trial": 136, "dateTime": 1512603478211, "trialdata": {"rt": -1, "stimulus": "<p id=\"stim\">8</p>", "key_press": -1, "trial_type": "single-stim", "trial_index": 136, "time_elapsed": 1686725, "internal_node_id": "0.0-98.0-2.0"}}, {"uniqueid": "MTK0695:3KOPY89HM997Z2LVETRTGYX835TJ39", "current_trial": 137, "dateTime": 1512603479218, "trialdata": {"rt": -1, "stimulus": "<p id=\"stim\">7</p>", "key_press": -1, "trial_type": "single-stim", "trial_index": 137, "time_elapsed": 1687732, "internal_node_id": "0.0-98.0-3.0"}}, {"uniqueid": "MTK0695:3KOPY89HM997Z2LVETRTGYX835TJ39", "current_trial": 138, "dateTime": 1512603480221, "trialdata": {"rt": -1, "stimulus": "<p id=\"stim\">6</p>", "key_press": -1, "trial_type": "single-stim", "trial_index": 138, "time_elapsed": 1688735, "internal_node_id": "0.0-98.0-4.0"}}, {"uniqueid": "MTK0695:3KOPY89HM997Z2LVETRTGYX835TJ39", "current_trial": 139, "dateTime": 1512603481227, "trialdata": {"rt": -1, "stimulus": "<p id=\"stim\">5</p>", "key_press": -1, "trial_type": "single-stim", "trial_index": 139, "time_elapsed": 1689742, "internal_node_id": "0.0-98.0-5.0"}}, {"uniqueid": "MTK0695:3KOPY89HM997Z2LVETRTGYX835TJ39", "current_trial": 140, "dateTime": 1512603482232, "trialdata": {"rt": -1, "stimulus": "<p id=\"stim\">4</p>", "key_press": -1, "trial_type": "single-stim", "trial_index": 140, "time_elapsed": 1690747, "internal_node_id": "0.0-98.0-6.0"}}, {"uniqueid": "MTK0695:3KOPY89HM997Z2LVETRTGYX835TJ39", "current_trial": 141, "dateTime": 1512603483234, "trialdata": {"rt": -1, "stimulus": "<p id=\"stim\">3</p>", "key_press": -1, "trial_type": "single-stim", "trial_index": 141, "time_elapsed": 1691748, "internal_node_id": "0.0-98.0-7.0"}}, {"uniqueid": "MTK0695:3KOPY89HM997Z2LVETRTGYX835TJ39", "current_trial": 142, "dateTime": 1512603484237, "trialdata": {"rt": -1, "stimulus": "<p id=\"stim\">2</p>", "key_press": -1, "trial_type": "single-stim", "trial_index": 142, "time_elapsed": 1692751, "internal_node_id": "0.0-98.0-8.0"}}, {"uniqueid": "MTK0695:3KOPY89HM997Z2LVETRTGYX835TJ39", "current_trial": 143, "dateTime": 1512603485239, "trialdata": {"rt": -1, "stimulus": "<p id=\"stim\">1</p>", "key_press": -1, "trial_type": "single-stim", "trial_index": 143, "time_elapsed": 1693753, "internal_node_id": "0.0-98.0-9.0"}}, {"uniqueid": "MTK0695:3KOPY89HM997Z2LVETRTGYX835TJ39", "current_trial": 144, "dateTime": 1512603486743, "trialdata": {"rt": -1, "stimulus": "<p id=\"stim\">+</p>", "key_press": -1, "type": "FIXATION", "trial_type": "single-stim", "trial_index": 144, "time_elapsed": 1695258, "internal_node_id": "0.0-99.0-0.0"}}, {"uniqueid": "MTK0695:3KOPY89HM997Z2LVETRTGYX835TJ39", "current_trial": 145, "dateTime": 1512603488345, "trialdata": {"rt": -1, "stimulus": "<p id=\"stim\">PEPPER</p>", "key_press": -1, "type": "PRES_VIS", "word": "pepper", "wordID": 1046, "conditions": [12, 1600, "v", 24000], "trial": 4, "serialpos": 0, "trial_type": "single-stim", "trial_index": 145, "time_elapsed": 1696860, "internal_node_id": "0.0-100.0"}}, {"uniqueid": "MTK0695:3KOPY89HM997Z2LVETRTGYX835TJ39", "current_trial": 146, "dateTime": 1512603490808, "trialdata": {"rt": -1, "stimulus": "<p id=\"stim\">PERMIT</p>", "key_press": -1, "type": "PRES_VIS", "word": "permit", "wordID": 1050, "conditions": [12, 1600, "v", 24000], "trial": 4, "serialpos": 1, "trial_type": "single-stim", "trial_index": 146, "time_elapsed": 1699323, "internal_node_id": "0.0-101.0"}}, {"uniqueid": "MTK0695:3KOPY89HM997Z2LVETRTGYX835TJ39", "current_trial": 147, "dateTime": 1512603493467, "trialdata": {"rt": -1, "stimulus": "<p id=\"stim\">GROUND</p>", "key_press": -1, "type": "PRES_VIS", "word": "ground", "wordID": 665, "conditions": [12, 1600, "v", 24000], "trial": 4, "serialpos": 2, "trial_type": "single-stim", "trial_index": 147, "time_elapsed": 1701981, "internal_node_id": "0.0-102.0"}}, {"uniqueid": "MTK0695:3KOPY89HM997Z2LVETRTGYX835TJ39", "current_trial": 148, "dateTime": 1512603496187, "trialdata": {"rt": -1, "stimulus": "<p id=\"stim\">GLOVE</p>", "key_press": -1, "type": "PRES_VIS", "word": "glove", "wordID": 641, "conditions": [12, 1600, "v", 24000], "trial": 4, "serialpos": 3, "trial_type": "single-stim", "trial_index": 148, "time_elapsed": 1704701, "internal_node_id": "0.0-103.0"}}, {"uniqueid": "MTK0695:3KOPY89HM997Z2LVETRTGYX835TJ39", "current_trial": 149, "dateTime": 1512603498675, "trialdata": {"rt": -1, "stimulus": "<p id=\"stim\">EGYPT</p>", "key_press": -1, "type": "PRES_VIS", "word": "egypt", "wordID": 518, "conditions": [12, 1600, "v", 24000], "trial": 4, "serialpos": 4, "trial_type": "single-stim", "trial_index": 149, "time_elapsed": 1707190, "internal_node_id": "0.0-104.0"}}, {"uniqueid": "MTK0695:3KOPY89HM997Z2LVETRTGYX835TJ39", "current_trial": 150, "dateTime": 1512603501426, "trialdata": {"rt": -1, "stimulus": "<p id=\"stim\">BASEMENT</p>", "key_press": -1, "type": "PRES_VIS", "word": "basement", "wordID": 93, "conditions": [12, 1600, "v", 24000], "trial": 4, "serialpos": 5, "trial_type": "single-stim", "trial_index": 150, "time_elapsed": 1709941, "internal_node_id": "0.0-105.0"}}, {"uniqueid": "MTK0695:3KOPY89HM997Z2LVETRTGYX835TJ39", "current_trial": 151, "dateTime": 1512603503972, "trialdata": {"rt": -1, "stimulus": "<p id=\"stim\">TABLE</p>", "key_press": -1, "type": "PRES_VIS", "word": "table", "wordID": 1425, "conditions": [12, 1600, "v", 24000], "trial": 4, "serialpos": 6, "trial_type": "single-stim", "trial_index": 151, "time_elapsed": 1712486, "internal_node_id": "0.0-106.0"}}, {"uniqueid": "MTK0695:3KOPY89HM997Z2LVETRTGYX835TJ39", "current_trial": 152, "dateTime": 1512603506404, "trialdata": {"rt": -1, "stimulus": "<p id=\"stim\">CHAUFFEUR</p>", "key_press": -1, "type": "PRES_VIS", "word": "chauffeur", "wordID": 282, "conditions": [12, 1600, "v", 24000], "trial": 4, "serialpos": 7, "trial_type": "single-stim", "trial_index": 152, "time_elapsed": 1714918, "internal_node_id": "0.0-107.0"}}, {"uniqueid": "MTK0695:3KOPY89HM997Z2LVETRTGYX835TJ39", "current_trial": 153, "dateTime": 1512603508918, "trialdata": {"rt": -1, "stimulus": "<p id=\"stim\">LEOPARD</p>", "key_press": -1, "type": "PRES_VIS", "word": "leopard", "wordID": 811, "conditions": [12, 1600, "v", 24000], "trial": 4, "serialpos": 8, "trial_type": "single-stim", "trial_index": 153, "time_elapsed": 1717433, "internal_node_id": "0.0-108.0"}}, {"uniqueid": "MTK0695:3KOPY89HM997Z2LVETRTGYX835TJ39", "current_trial": 154, "dateTime": 1512603511379, "trialdata": {"rt": -1, "stimulus": "<p id=\"stim\">ZEBRA</p>", "key_press": -1, "type": "PRES_VIS", "word": "zebra", "wordID": 1634, "conditions": [12, 1600, "v", 24000], "trial": 4, "serialpos": 9, "trial_type": "single-stim", "trial_index": 154, "time_elapsed": 1719894, "internal_node_id": "0.0-109.0"}}, {"uniqueid": "MTK0695:3KOPY89HM997Z2LVETRTGYX835TJ39", "current_trial": 155, "dateTime": 1512603513802, "trialdata": {"rt": -1, "stimulus": "<p id=\"stim\">GARLIC</p>", "key_press": -1, "type": "PRES_VIS", "word": "garlic", "wordID": 623, "conditions": [12, 1600, "v", 24000], "trial": 4, "serialpos": 10, "trial_type": "single-stim", "trial_index": 155, "time_elapsed": 1722316, "internal_node_id": "0.0-110.0"}}, {"uniqueid": "MTK0695:3KOPY89HM997Z2LVETRTGYX835TJ39", "current_trial": 156, "dateTime": 1512603516468, "trialdata": {"rt": -1, "stimulus": "<p id=\"stim\">GHETTO</p>", "key_press": -1, "type": "PRES_VIS", "word": "ghetto", "wordID": 632, "conditions": [12, 1600, "v", 24000], "trial": 4, "serialpos": 11, "trial_type": "single-stim", "trial_index": 156, "time_elapsed": 1724982, "internal_node_id": "0.0-111.0"}}, {"uniqueid": "MTK0695:3KOPY89HM997Z2LVETRTGYX835TJ39", "current_trial": 157, "dateTime": 1512603518930, "trialdata": {"rt": -1, "stimulus": "", "key_press": -1, "type": "PRE_RECALL_DELAY", "trial_type": "single-stim", "trial_index": 157, "time_elapsed": 1727443, "internal_node_id": "0.0-112.0-0.0"}}, {"uniqueid": "MTK0695:3KOPY89HM997Z2LVETRTGYX835TJ39", "current_trial": 158, "dateTime": 1512603519438, "trialdata": {"rt": -1000, "stimulus": "/static/audio/400Hz.wav", "key_press": -1, "type": "PRE_RECALL_ALERT", "trial_type": "single-audio", "trial_index": 158, "time_elapsed": 1727951, "internal_node_id": "0.0-113.0"}}, {"uniqueid": "MTK0695:3KOPY89HM997Z2LVETRTGYX835TJ39", "current_trial": 159, "dateTime": 1512603579462, "trialdata": {"rt": [2588, 5457, 7195, 9378, 11996, 13733], "recwords": ["ghetto", "garlic", "basement", "pepper", "leopard", "zebra"], "type": "FREE_RECALL", "conditions": [12, 1600, "v", 24000], "trial": 4, "trial_type": "free-recall", "trial_index": 159, "time_elapsed": 1787966, "internal_node_id": "0.0-114.0-0.0"}}, {"uniqueid": "MTK0695:3KOPY89HM997Z2LVETRTGYX835TJ39", "current_trial": 160, "dateTime": 1512603745387, "trialdata": {"rt": 163636, "key_press": 32, "type": "INSTRUCTIONS", "trial_type": "text", "trial_index": 160, "time_elapsed": 1953901, "internal_node_id": "0.0-115.0"}}, {"uniqueid": "MTK0695:3KOPY89HM997Z2LVETRTGYX835TJ39", "current_trial": 161, "dateTime": 1512603771410, "trialdata": {"rt": [3704, 5612, 7273, 10927, 14596, 18414, 20375, 23232], "responses": ["8", "17", "12", "20", "24", "16", "16", "13"], "num1": [1, 1, 3, 5, 8, 4, 6, 2, 9], "num2": [6, 9, 7, 8, 7, 3, 3, 5, 1], "num3": [1, 7, 2, 7, 9, 9, 7, 7, 3], "type": "DISTRACTOR", "conditions": [24, 1600, "a", 24000], "trial": 5, "trial_type": "math-distractor", "trial_index": 161, "time_elapsed": 1979923, "internal_node_id": "0.0-116.0"}}, {"uniqueid": "MTK0695:3KOPY89HM997Z2LVETRTGYX835TJ39", "current_trial": 162, "dateTime": 1512603774421, "trialdata": {"rt": -1, "stimulus": "<p id=\"stim\">10</p>", "key_press": -1, "trial_type": "single-stim", "trial_index": 162, "time_elapsed": 1982935, "internal_node_id": "0.0-117.0-0.0"}}, {"uniqueid": "MTK0695:3KOPY89HM997Z2LVETRTGYX835TJ39", "current_trial": 163, "dateTime": 1512603775428, "trialdata": {"rt": -1, "stimulus": "<p id=\"stim\">9</p>", "key_press": -1, "trial_type": "single-stim", "trial_index": 163, "time_elapsed": 1983942, "internal_node_id": "0.0-117.0-1.0"}}, {"uniqueid": "MTK0695:3KOPY89HM997Z2LVETRTGYX835TJ39", "current_trial": 164, "dateTime": 1512603776431, "trialdata": {"rt": -1, "stimulus": "<p id=\"stim\">8</p>", "key_press": -1, "trial_type": "single-stim", "trial_index": 164, "time_elapsed": 1984946, "internal_node_id": "0.0-117.0-2.0"}}, {"uniqueid": "MTK0695:3KOPY89HM997Z2LVETRTGYX835TJ39", "current_trial": 165, "dateTime": 1512603777437, "trialdata": {"rt": -1, "stimulus": "<p id=\"stim\">7</p>", "key_press": -1, "trial_type": "single-stim", "trial_index": 165, "time_elapsed": 1985950, "internal_node_id": "0.0-117.0-3.0"}}, {"uniqueid": "MTK0695:3KOPY89HM997Z2LVETRTGYX835TJ39", "current_trial": 166, "dateTime": 1512603778440, "trialdata": {"rt": -1, "stimulus": "<p id=\"stim\">6</p>", "key_press": -1, "trial_type": "single-stim", "trial_index": 166, "time_elapsed": 1986954, "internal_node_id": "0.0-117.0-4.0"}}, {"uniqueid": "MTK0695:3KOPY89HM997Z2LVETRTGYX835TJ39", "current_trial": 167, "dateTime": 1512603779445, "trialdata": {"rt": -1, "stimulus": "<p id=\"stim\">5</p>", "key_press": -1, "trial_type": "single-stim", "trial_index": 167, "time_elapsed": 1987960, "internal_node_id": "0.0-117.0-5.0"}}, {"uniqueid": "MTK0695:3KOPY89HM997Z2LVETRTGYX835TJ39", "current_trial": 168, "dateTime": 1512603780450, "trialdata": {"rt": -1, "stimulus": "<p id=\"stim\">4</p>", "key_press": -1, "trial_type": "single-stim", "trial_index": 168, "time_elapsed": 1988965, "internal_node_id": "0.0-117.0-6.0"}}, {"uniqueid": "MTK0695:3KOPY89HM997Z2LVETRTGYX835TJ39", "current_trial": 169, "dateTime": 1512603781460, "trialdata": {"rt": -1, "stimulus": "<p id=\"stim\">3</p>", "key_press": -1, "trial_type": "single-stim", "trial_index": 169, "time_elapsed": 1989975, "internal_node_id": "0.0-117.0-7.0"}}, {"uniqueid": "MTK0695:3KOPY89HM997Z2LVETRTGYX835TJ39", "current_trial": 170, "dateTime": 1512603782489, "trialdata": {"rt": -1, "stimulus": "<p id=\"stim\">2</p>", "key_press": -1, "trial_type": "single-stim", "trial_index": 170, "time_elapsed": 1991003, "internal_node_id": "0.0-117.0-8.0"}}, {"uniqueid": "MTK0695:3KOPY89HM997Z2LVETRTGYX835TJ39", "current_trial": 171, "dateTime": 1512603783494, "trialdata": {"rt": -1, "stimulus": "<p id=\"stim\">1</p>", "key_press": -1, "trial_type": "single-stim", "trial_index": 171, "time_elapsed": 1992008, "internal_node_id": "0.0-117.0-9.0"}}, {"uniqueid": "MTK0695:3KOPY89HM997Z2LVETRTGYX835TJ39", "current_trial": 172, "dateTime": 1512603785001, "trialdata": {"rt": -1, "stimulus": "<p id=\"stim\">+</p>", "key_press": -1, "type": "FIXATION", "trial_type": "single-stim", "trial_index": 172, "time_elapsed": 1993516, "internal_node_id": "0.0-118.0-0.0"}}, {"uniqueid": "MTK0695:3KOPY89HM997Z2LVETRTGYX835TJ39", "current_trial": 173, "dateTime": 1512603787537, "trialdata": {"rt": -1000, "stimulus": "/static/audio/wordpool/BATHTUB.wav", "key_press": -1, "type": "PRES_AUD", "word": "bathtub", "wordID": 99, "conditions": [24, 1600, "a", 24000], "trial": 5, "serialpos": 0, "trial_type": "single-audio", "trial_index": 173, "time_elapsed": 1996052, "internal_node_id": "0.0-119.0"}}, {"uniqueid": "MTK0695:3KOPY89HM997Z2LVETRTGYX835TJ39", "current_trial": 174, "dateTime": 1512603790264, "trialdata": {"rt": -1000, "stimulus": "/static/audio/wordpool/SADDLE.wav", "key_press": -1, "type": "PRES_AUD", "word": "saddle", "wordID": 1220, "conditions": [24, 1600, "a", 24000], "trial": 5, "serialpos": 1, "trial_type": "single-audio", "trial_index": 174, "time_elapsed": 1998779, "internal_node_id": "0.0-120.0"}}, {"uniqueid": "MTK0695:3KOPY89HM997Z2LVETRTGYX835TJ39", "current_trial": 175, "dateTime": 1512603792881, "trialdata": {"rt": -1000, "stimulus": "/static/audio/wordpool/DOLPHIN.wav", "key_press": -1, "type": "PRES_AUD", "word": "dolphin", "wordID": 482, "conditions": [24, 1600, "a", 24000], "trial": 5, "serialpos": 2, "trial_type": "single-audio", "trial_index": 175, "time_elapsed": 2001396, "internal_node_id": "0.0-121.0"}}, {"uniqueid": "MTK0695:3KOPY89HM997Z2LVETRTGYX835TJ39", "current_trial": 176, "dateTime": 1512603795425, "trialdata": {"rt": -1000, "stimulus": "/static/audio/wordpool/SUBWAY.wav", "key_press": -1, "type": "PRES_AUD", "word": "subway", "wordID": 1399, "conditions": [24, 1600, "a", 24000], "trial": 5, "serialpos": 3, "trial_type": "single-audio", "trial_index": 176, "time_elapsed": 2003940, "internal_node_id": "0.0-122.0"}}, {"uniqueid": "MTK0695:3KOPY89HM997Z2LVETRTGYX835TJ39", "current_trial": 177, "dateTime": 1512603798163, "trialdata": {"rt": -1000, "stimulus": "/static/audio/wordpool/APPLE.wav", "key_press": -1, "type": "PRES_AUD", "word": "apple", "wordID": 32, "conditions": [24, 1600, "a", 24000], "trial": 5, "serialpos": 4, "trial_type": "single-audio", "trial_index": 177, "time_elapsed": 2006678, "internal_node_id": "0.0-123.0"}}, {"uniqueid": "MTK0695:3KOPY89HM997Z2LVETRTGYX835TJ39", "current_trial": 178, "dateTime": 1512603800747, "trialdata": {"rt": -1000, "stimulus": "/static/audio/wordpool/FRUIT.wav", "key_press": -1, "type": "PRES_AUD", "word": "fruit", "wordID": 609, "conditions": [24, 1600, "a", 24000], "trial": 5, "serialpos": 5, "trial_type": "single-audio", "trial_index": 178, "time_elapsed": 2009262, "internal_node_id": "0.0-124.0"}}, {"uniqueid": "MTK0695:3KOPY89HM997Z2LVETRTGYX835TJ39", "current_trial": 179, "dateTime": 1512603803166, "trialdata": {"rt": -1000, "stimulus": "/static/audio/wordpool/BLENDER.wav", "key_press": -1, "type": "PRES_AUD", "word": "blender", "wordID": 135, "conditions": [24, 1600, "a", 24000], "trial": 5, "serialpos": 6, "trial_type": "single-audio", "trial_index": 179, "time_elapsed": 2011680, "internal_node_id": "0.0-125.0"}}, {"uniqueid": "MTK0695:3KOPY89HM997Z2LVETRTGYX835TJ39", "current_trial": 180, "dateTime": 1512603805568, "trialdata": {"rt": -1000, "stimulus": "/static/audio/wordpool/SCULPTURE.wav", "key_press": -1, "type": "PRES_AUD", "word": "sculpture", "wordID": 1257, "conditions": [24, 1600, "a", 24000], "trial": 5, "serialpos": 7, "trial_type": "single-audio", "trial_index": 180, "time_elapsed": 2014083, "internal_node_id": "0.0-126.0"}}, {"uniqueid": "MTK0695:3KOPY89HM997Z2LVETRTGYX835TJ39", "current_trial": 181, "dateTime": 1512603808232, "trialdata": {"rt": -1000, "stimulus": "/static/audio/wordpool/SHOVEL.wav", "key_press": -1, "type": "PRES_AUD", "word": "shovel", "wordID": 1294, "conditions": [24, 1600, "a", 24000], "trial": 5, "serialpos": 8, "trial_type": "single-audio", "trial_index": 181, "time_elapsed": 2016747, "internal_node_id": "0.0-127.0"}}, {"uniqueid": "MTK0695:3KOPY89HM997Z2LVETRTGYX835TJ39", "current_trial": 182, "dateTime": 1512603810725, "trialdata": {"rt": -1000, "stimulus": "/static/audio/wordpool/SKILLET.wav", "key_press": -1, "type": "PRES_AUD", "word": "skillet", "wordID": 1316, "conditions": [24, 1600, "a", 24000], "trial": 5, "serialpos": 9, "trial_type": "single-audio", "trial_index": 182, "time_elapsed": 2019240, "internal_node_id": "0.0-128.0"}}, {"uniqueid": "MTK0695:3KOPY89HM997Z2LVETRTGYX835TJ39", "current_trial": 183, "dateTime": 1512603813369, "trialdata": {"rt": -1000, "stimulus": "/static/audio/wordpool/PADDLE.wav", "key_press": -1, "type": "PRES_AUD", "word": "paddle", "wordID": 999, "conditions": [24, 1600, "a", 24000], "trial": 5, "serialpos": 10, "trial_type": "single-audio", "trial_index": 183, "time_elapsed": 2021884, "internal_node_id": "0.0-129.0"}}, {"uniqueid": "MTK0695:3KOPY89HM997Z2LVETRTGYX835TJ39", "current_trial": 184, "dateTime": 1512603815889, "trialdata": {"rt": -1000, "stimulus": "/static/audio/wordpool/KITCHEN.wav", "key_press": -1, "type": "PRES_AUD", "word": "kitchen", "wordID": 777, "conditions": [24, 1600, "a", 24000], "trial": 5, "serialpos": 11, "trial_type": "single-audio", "trial_index": 184, "time_elapsed": 2024404, "internal_node_id": "0.0-130.0"}}, {"uniqueid": "MTK0695:3KOPY89HM997Z2LVETRTGYX835TJ39", "current_trial": 185, "dateTime": 1512603818660, "trialdata": {"rt": -1000, "stimulus": "/static/audio/wordpool/OINTMENT.wav", "key_press": -1, "type": "PRES_AUD", "word": "ointment", "wordID": 973, "conditions": [24, 1600, "a", 24000], "trial": 5, "serialpos": 12, "trial_type": "single-audio", "trial_index": 185, "time_elapsed": 2027173, "internal_node_id": "0.0-131.0"}}, {"uniqueid": "MTK0695:3KOPY89HM997Z2LVETRTGYX835TJ39", "current_trial": 186, "dateTime": 1512603821299, "trialdata": {"rt": -1000, "stimulus": "/static/audio/wordpool/GYMNAST.wav", "key_press": -1, "type": "PRES_AUD", "word": "gymnast", "wordID": 674, "conditions": [24, 1600, "a", 24000], "trial": 5, "serialpos": 13, "trial_type": "single-audio", "trial_index": 186, "time_elapsed": 2029813, "internal_node_id": "0.0-132.0"}}, {"uniqueid": "MTK0695:3KOPY89HM997Z2LVETRTGYX835TJ39", "current_trial": 187, "dateTime": 1512603823996, "trialdata": {"rt": -1000, "stimulus": "/static/audio/wordpool/CAMEL.wav", "key_press": -1, "type": "PRES_AUD", "word": "camel", "wordID": 222, "conditions": [24, 1600, "a", 24000], "trial": 5, "serialpos": 14, "trial_type": "single-audio", "trial_index": 187, "time_elapsed": 2032510, "internal_node_id": "0.0-133.0"}}, {"uniqueid": "MTK0695:3KOPY89HM997Z2LVETRTGYX835TJ39", "current_trial": 188, "dateTime": 1512603826795, "trialdata": {"rt": -1000, "stimulus": "/static/audio/wordpool/SUNRISE.wav", "key_press": -1, "type": "PRES_AUD", "word": "sunrise", "wordID": 1406, "conditions": [24, 1600, "a", 24000], "trial": 5, "serialpos": 15, "trial_type": "single-audio", "trial_index": 188, "time_elapsed": 2035309, "internal_node_id": "0.0-134.0"}}, {"uniqueid": "MTK0695:3KOPY89HM997Z2LVETRTGYX835TJ39", "current_trial": 189, "dateTime": 1512603829235, "trialdata": {"rt": -1000, "stimulus": "/static/audio/wordpool/WHISTLE.wav", "key_press": -1, "type": "PRES_AUD", "word": "whistle", "wordID": 1605, "conditions": [24, 1600, "a", 24000], "trial": 5, "serialpos": 16, "trial_type": "single-audio", "trial_index": 189, "time_elapsed": 2037749, "internal_node_id": "0.0-135.0"}}, {"uniqueid": "MTK0695:3KOPY89HM997Z2LVETRTGYX835TJ39", "current_trial": 190, "dateTime": 1512603831804, "trialdata": {"rt": -1000, "stimulus": "/static/audio/wordpool/LONDON.wav", "key_press": -1, "type": "PRES_AUD", "word": "london", "wordID": 842, "conditions": [24, 1600, "a", 24000], "trial": 5, "serialpos": 17, "trial_type": "single-audio", "trial_index": 190, "time_elapsed": 2040318, "internal_node_id": "0.0-136.0"}}, {"uniqueid": "MTK0695:3KOPY89HM997Z2LVETRTGYX835TJ39", "current_trial": 191, "dateTime": 1512603834470, "trialdata": {"rt": -1000, "stimulus": "/static/audio/wordpool/MARS.wav", "key_press": -1, "type": "PRES_AUD", "word": "mars", "wordID": 872, "conditions": [24, 1600, "a", 24000], "trial": 5, "serialpos": 18, "trial_type": "single-audio", "trial_index": 191, "time_elapsed": 2042984, "internal_node_id": "0.0-137.0"}}, {"uniqueid": "MTK0695:3KOPY89HM997Z2LVETRTGYX835TJ39", "current_trial": 192, "dateTime": 1512603837013, "trialdata": {"rt": -1000, "stimulus": "/static/audio/wordpool/BEAVER.wav", "key_press": -1, "type": "PRES_AUD", "word": "beaver", "wordID": 108, "conditions": [24, 1600, "a", 24000], "trial": 5, "serialpos": 19, "trial_type": "single-audio", "trial_index": 192, "time_elapsed": 2045527, "internal_node_id": "0.0-138.0"}}, {"uniqueid": "MTK0695:3KOPY89HM997Z2LVETRTGYX835TJ39", "current_trial": 193, "dateTime": 1512603839569, "trialdata": {"rt": -1000, "stimulus": "/static/audio/wordpool/TOMBSTONE.wav", "key_press": -1, "type": "PRES_AUD", "word": "tombstone", "wordID": 1477, "conditions": [24, 1600, "a", 24000], "trial": 5, "serialpos": 20, "trial_type": "single-audio", "trial_index": 193, "time_elapsed": 2048084, "internal_node_id": "0.0-139.0"}}, {"uniqueid": "MTK0695:3KOPY89HM997Z2LVETRTGYX835TJ39", "current_trial": 194, "dateTime": 1512603842087, "trialdata": {"rt": -1000, "stimulus": "/static/audio/wordpool/CASKET.wav", "key_press": -1, "type": "PRES_AUD", "word": "casket", "wordID": 254, "conditions": [24, 1600, "a", 24000], "trial": 5, "serialpos": 21, "trial_type": "single-audio", "trial_index": 194, "time_elapsed": 2050601, "internal_node_id": "0.0-140.0"}}, {"uniqueid": "MTK0695:3KOPY89HM997Z2LVETRTGYX835TJ39", "current_trial": 195, "dateTime": 1512603844815, "trialdata": {"rt": -1000, "stimulus": "/static/audio/wordpool/RADISH.wav", "key_press": -1, "type": "PRES_AUD", "word": "radish", "wordID": 1157, "conditions": [24, 1600, "a", 24000], "trial": 5, "serialpos": 22, "trial_type": "single-audio", "trial_index": 195, "time_elapsed": 2053329, "internal_node_id": "0.0-141.0"}}, {"uniqueid": "MTK0695:3KOPY89HM997Z2LVETRTGYX835TJ39", "current_trial": 196, "dateTime": 1512603847423, "trialdata": {"rt": -1000, "stimulus": "/static/audio/wordpool/DANCER.wav", "key_press": -1, "type": "PRES_AUD", "word": "dancer", "wordID": 436, "conditions": [24, 1600, "a", 24000], "trial": 5, "serialpos": 23, "trial_type": "single-audio", "trial_index": 196, "time_elapsed": 2055938, "internal_node_id": "0.0-142.0"}}, {"uniqueid": "MTK0695:3KOPY89HM997Z2LVETRTGYX835TJ39", "current_trial": 197, "dateTime": 1512603848710, "trialdata": {"rt": -1, "stimulus": "", "key_press": -1, "type": "PRE_RECALL_DELAY", "trial_type": "single-stim", "trial_index": 197, "time_elapsed": 2057225, "internal_node_id": "0.0-143.0-0.0"}}, {"uniqueid": "MTK0695:3KOPY89HM997Z2LVETRTGYX835TJ39", "current_trial": 198, "dateTime": 1512603849216, "trialdata": {"rt": -1000, "stimulus": "/static/audio/400Hz.wav", "key_press": -1, "type": "PRE_RECALL_ALERT", "trial_type": "single-audio", "trial_index": 198, "time_elapsed": 2057730, "internal_node_id": "0.0-144.0"}}, {"uniqueid": "MTK0695:3KOPY89HM997Z2LVETRTGYX835TJ39", "current_trial": 199, "dateTime": 1512603909233, "trialdata": {"rt": [2231, 4080, 5792, 9320, 12301, 13637, 15484, 18346], "recwords": ["dancer", "raddish", "ointment", "paddle", "saddle", "apple", "fruit", "tombstone"], "type": "FREE_RECALL", "conditions": [24, 1600, "a", 24000], "trial": 5, "trial_type": "free-recall", "trial_index": 199, "time_elapsed": 2117740, "internal_node_id": "0.0-145.0-0.0"}}, {"uniqueid": "MTK0695:3KOPY89HM997Z2LVETRTGYX835TJ39", "current_trial": 200, "dateTime": 1512603985984, "trialdata": {"rt": 74748, "key_press": 32, "type": "INSTRUCTIONS", "trial_type": "text", "trial_index": 200, "time_elapsed": 2194498, "internal_node_id": "0.0-146.0"}}, {"uniqueid": "MTK0695:3KOPY89HM997Z2LVETRTGYX835TJ39", "current_trial": 201, "dateTime": 1512604000002, "trialdata": {"rt": [6719, 10085], "responses": ["21", "15"], "num1": [6, 4, 7], "num2": [7, 3, 4], "num3": [8, 8, 6], "type": "DISTRACTOR", "conditions": [24, 800, "v", 12000], "trial": 6, "trial_type": "math-distractor", "trial_index": 201, "time_elapsed": 2208516, "internal_node_id": "0.0-147.0"}}, {"uniqueid": "MTK0695:3KOPY89HM997Z2LVETRTGYX835TJ39", "current_trial": 202, "dateTime": 1512604003009, "trialdata": {"rt": -1, "stimulus": "<p id=\"stim\">10</p>", "key_press": -1, "trial_type": "single-stim", "trial_index": 202, "time_elapsed": 2211523, "internal_node_id": "0.0-148.0-0.0"}}, {"uniqueid": "MTK0695:3KOPY89HM997Z2LVETRTGYX835TJ39", "current_trial": 203, "dateTime": 1512604004013, "trialdata": {"rt": -1, "stimulus": "<p id=\"stim\">9</p>", "key_press": -1, "trial_type": "single-stim", "trial_index": 203, "time_elapsed": 2212527, "internal_node_id": "0.0-148.0-1.0"}}, {"uniqueid": "MTK0695:3KOPY89HM997Z2LVETRTGYX835TJ39", "current_trial": 204, "dateTime": 1512604005019, "trialdata": {"rt": -1, "stimulus": "<p id=\"stim\">8</p>", "key_press": -1, "trial_type": "single-stim", "trial_index": 204, "time_elapsed": 2213533, "internal_node_id": "0.0-148.0-2.0"}}, {"uniqueid": "MTK0695:3KOPY89HM997Z2LVETRTGYX835TJ39", "current_trial": 205, "dateTime": 1512604006028, "trialdata": {"rt": -1, "stimulus": "<p id=\"stim\">7</p>", "key_press": -1, "trial_type": "single-stim", "trial_index": 205, "time_elapsed": 2214542, "internal_node_id": "0.0-148.0-3.0"}}, {"uniqueid": "MTK0695:3KOPY89HM997Z2LVETRTGYX835TJ39", "current_trial": 206, "dateTime": 1512604007034, "trialdata": {"rt": -1, "stimulus": "<p id=\"stim\">6</p>", "key_press": -1, "trial_type": "single-stim", "trial_index": 206, "time_elapsed": 2215549, "internal_node_id": "0.0-148.0-4.0"}}, {"uniqueid": "MTK0695:3KOPY89HM997Z2LVETRTGYX835TJ39", "current_trial": 207, "dateTime": 1512604008042, "trialdata": {"rt": -1, "stimulus": "<p id=\"stim\">5</p>", "key_press": -1, "trial_type": "single-stim", "trial_index": 207, "time_elapsed": 2216557, "internal_node_id": "0.0-148.0-5.0"}}, {"uniqueid": "MTK0695:3KOPY89HM997Z2LVETRTGYX835TJ39", "current_trial": 208, "dateTime": 1512604009048, "trialdata": {"rt": -1, "stimulus": "<p id=\"stim\">4</p>", "key_press": -1, "trial_type": "single-stim", "trial_index": 208, "time_elapsed": 2217563, "internal_node_id": "0.0-148.0-6.0"}}, {"uniqueid": "MTK0695:3KOPY89HM997Z2LVETRTGYX835TJ39", "current_trial": 209, "dateTime": 1512604010058, "trialdata": {"rt": -1, "stimulus": "<p id=\"stim\">3</p>", "key_press": -1, "trial_type": "single-stim", "trial_index": 209, "time_elapsed": 2218572, "internal_node_id": "0.0-148.0-7.0"}}, {"uniqueid": "MTK0695:3KOPY89HM997Z2LVETRTGYX835TJ39", "current_trial": 210, "dateTime": 1512604011063, "trialdata": {"rt": -1, "stimulus": "<p id=\"stim\">2</p>", "key_press": -1, "trial_type": "single-stim", "trial_index": 210, "time_elapsed": 2219576, "internal_node_id": "0.0-148.0-8.0"}}, {"uniqueid": "MTK0695:3KOPY89HM997Z2LVETRTGYX835TJ39", "current_trial": 211, "dateTime": 1512604012072, "trialdata": {"rt": -1, "stimulus": "<p id=\"stim\">1</p>", "key_press": -1, "trial_type": "single-stim", "trial_index": 211, "time_elapsed": 2220587, "internal_node_id": "0.0-148.0-9.0"}}, {"uniqueid": "MTK0695:3KOPY89HM997Z2LVETRTGYX835TJ39", "current_trial": 212, "dateTime": 1512604013579, "trialdata": {"rt": -1, "stimulus": "<p id=\"stim\">+</p>", "key_press": -1, "type": "FIXATION", "trial_type": "single-stim", "trial_index": 212, "time_elapsed": 2222094, "internal_node_id": "0.0-149.0-0.0"}}, {"uniqueid": "MTK0695:3KOPY89HM997Z2LVETRTGYX835TJ39", "current_trial": 213, "dateTime": 1512604014387, "trialdata": {"rt": -1, "stimulus": "<p id=\"stim\">PENGUIN</p>", "key_press": -1, "type": "PRES_VIS", "word": "penguin", "wordID": 1043, "conditions": [24, 800, "v", 12000], "trial": 6, "serialpos": 0, "trial_type": "single-stim", "trial_index": 213, "time_elapsed": 2222901, "internal_node_id": "0.0-150.0"}}, {"uniqueid": "MTK0695:3KOPY89HM997Z2LVETRTGYX835TJ39", "current_trial": 214, "dateTime": 1512604016335, "trialdata": {"rt": -1, "stimulus": "<p id=\"stim\">POPCORN</p>", "key_press": -1, "type": "PRES_VIS", "word": "popcorn", "wordID": 1103, "conditions": [24, 800, "v", 12000], "trial": 6, "serialpos": 1, "trial_type": "single-stim", "trial_index": 214, "time_elapsed": 2224850, "internal_node_id": "0.0-151.0"}}, {"uniqueid": "MTK0695:3KOPY89HM997Z2LVETRTGYX835TJ39", "current_trial": 215, "dateTime": 1512604017951, "trialdata": {"rt": -1, "stimulus": "<p id=\"stim\">PASTRY</p>", "key_press": -1, "type": "PRES_VIS", "word": "pastry", "wordID": 1021, "conditions": [24, 800, "v", 12000], "trial": 6, "serialpos": 2, "trial_type": "single-stim", "trial_index": 215, "time_elapsed": 2226466, "internal_node_id": "0.0-152.0"}}, {"uniqueid": "MTK0695:3KOPY89HM997Z2LVETRTGYX835TJ39", "current_trial": 216, "dateTime": 1512604019820, "trialdata": {"rt": -1, "stimulus": "<p id=\"stim\">JUNGLE</p>", "key_press": -1, "type": "PRES_VIS", "word": "jungle", "wordID": 763, "conditions": [24, 800, "v", 12000], "trial": 6, "serialpos": 3, "trial_type": "single-stim", "trial_index": 216, "time_elapsed": 2228335, "internal_node_id": "0.0-153.0"}}, {"uniqueid": "MTK0695:3KOPY89HM997Z2LVETRTGYX835TJ39", "current_trial": 217, "dateTime": 1512604021758, "trialdata": {"rt": -1, "stimulus": "<p id=\"stim\">BRACES</p>", "key_press": -1, "type": "PRES_VIS", "word": "braces", "wordID": 163, "conditions": [24, 800, "v", 12000], "trial": 6, "serialpos": 4, "trial_type": "single-stim", "trial_index": 217, "time_elapsed": 2230273, "internal_node_id": "0.0-154.0"}}, {"uniqueid": "MTK0695:3KOPY89HM997Z2LVETRTGYX835TJ39", "current_trial": 218, "dateTime": 1512604023586, "trialdata": {"rt": -1, "stimulus": "<p id=\"stim\">TRACTOR</p>", "key_press": -1, "type": "PRES_VIS", "word": "tractor", "wordID": 1492, "conditions": [24, 800, "v", 12000], "trial": 6, "serialpos": 5, "trial_type": "single-stim", "trial_index": 218, "time_elapsed": 2232100, "internal_node_id": "0.0-155.0"}}, {"uniqueid": "MTK0695:3KOPY89HM997Z2LVETRTGYX835TJ39", "current_trial": 219, "dateTime": 1512604025265, "trialdata": {"rt": -1, "stimulus": "<p id=\"stim\">WAGON</p>", "key_press": -1, "type": "PRES_VIS", "word": "wagon", "wordID": 1577, "conditions": [24, 800, "v", 12000], "trial": 6, "serialpos": 6, "trial_type": "single-stim", "trial_index": 219, "time_elapsed": 2233780, "internal_node_id": "0.0-156.0"}}, {"uniqueid": "MTK0695:3KOPY89HM997Z2LVETRTGYX835TJ39", "current_trial": 220, "dateTime": 1512604026879, "trialdata": {"rt": -1, "stimulus": "<p id=\"stim\">SHORTCAKE</p>", "key_press": -1, "type": "PRES_VIS", "word": "shortcake", "wordID": 1291, "conditions": [24, 800, "v", 12000], "trial": 6, "serialpos": 7, "trial_type": "single-stim", "trial_index": 220, "time_elapsed": 2235394, "internal_node_id": "0.0-157.0"}}, {"uniqueid": "MTK0695:3KOPY89HM997Z2LVETRTGYX835TJ39", "current_trial": 221, "dateTime": 1512604028683, "trialdata": {"rt": -1, "stimulus": "<p id=\"stim\">PERCH</p>", "key_press": -1, "type": "PRES_VIS", "word": "perch", "wordID": 1047, "conditions": [24, 800, "v", 12000], "trial": 6, "serialpos": 8, "trial_type": "single-stim", "trial_index": 221, "time_elapsed": 2237198, "internal_node_id": "0.0-158.0"}}, {"uniqueid": "MTK0695:3KOPY89HM997Z2LVETRTGYX835TJ39", "current_trial": 222, "dateTime": 1512604030489, "trialdata": {"rt": -1, "stimulus": "<p id=\"stim\">INMATE</p>", "key_press": -1, "type": "PRES_VIS", "word": "inmate", "wordID": 737, "conditions": [24, 800, "v", 12000], "trial": 6, "serialpos": 9, "trial_type": "single-stim", "trial_index": 222, "time_elapsed": 2239004, "internal_node_id": "0.0-159.0"}}, {"uniqueid": "MTK0695:3KOPY89HM997Z2LVETRTGYX835TJ39", "current_trial": 223, "dateTime": 1512604032458, "trialdata": {"rt": -1, "stimulus": "<p id=\"stim\">TURTLE</p>", "key_press": -1, "type": "PRES_VIS", "word": "turtle", "wordID": 1521, "conditions": [24, 800, "v", 12000], "trial": 6, "serialpos": 10, "trial_type": "single-stim", "trial_index": 223, "time_elapsed": 2240972, "internal_node_id": "0.0-160.0"}}, {"uniqueid": "MTK0695:3KOPY89HM997Z2LVETRTGYX835TJ39", "current_trial": 224, "dateTime": 1512604034253, "trialdata": {"rt": -1, "stimulus": "<p id=\"stim\">WARDROBE</p>", "key_press": -1, "type": "PRES_VIS", "word": "wardrobe", "wordID": 1586, "conditions": [24, 800, "v", 12000], "trial": 6, "serialpos": 11, "trial_type": "single-stim", "trial_index": 224, "time_elapsed": 2242767, "internal_node_id": "0.0-161.0"}}, {"uniqueid": "MTK0695:3KOPY89HM997Z2LVETRTGYX835TJ39", "current_trial": 225, "dateTime": 1512604035990, "trialdata": {"rt": -1, "stimulus": "<p id=\"stim\">THREAD</p>", "key_press": -1, "type": "PRES_VIS", "word": "thread", "wordID": 1459, "conditions": [24, 800, "v", 12000], "trial": 6, "serialpos": 12, "trial_type": "single-stim", "trial_index": 225, "time_elapsed": 2244504, "internal_node_id": "0.0-162.0"}}, {"uniqueid": "MTK0695:3KOPY89HM997Z2LVETRTGYX835TJ39", "current_trial": 226, "dateTime": 1512604037943, "trialdata": {"rt": -1, "stimulus": "<p id=\"stim\">PLAZA</p>", "key_press": -1, "type": "PRES_VIS", "word": "plaza", "wordID": 1087, "conditions": [24, 800, "v", 12000], "trial": 6, "serialpos": 13, "trial_type": "single-stim", "trial_index": 226, "time_elapsed": 2246458, "internal_node_id": "0.0-163.0"}}, {"uniqueid": "MTK0695:3KOPY89HM997Z2LVETRTGYX835TJ39", "current_trial": 227, "dateTime": 1512604039584, "trialdata": {"rt": -1, "stimulus": "<p id=\"stim\">BANKER</p>", "key_press": -1, "type": "PRES_VIS", "word": "banker", "wordID": 83, "conditions": [24, 800, "v", 12000], "trial": 6, "serialpos": 14, "trial_type": "single-stim", "trial_index": 227, "time_elapsed": 2248099, "internal_node_id": "0.0-164.0"}}, {"uniqueid": "MTK0695:3KOPY89HM997Z2LVETRTGYX835TJ39", "current_trial": 228, "dateTime": 1512604041420, "trialdata": {"rt": -1, "stimulus": "<p id=\"stim\">CARRIAGE</p>", "key_press": -1, "type": "PRES_VIS", "word": "carriage", "wordID": 247, "conditions": [24, 800, "v", 12000], "trial": 6, "serialpos": 15, "trial_type": "single-stim", "trial_index": 228, "time_elapsed": 2249934, "internal_node_id": "0.0-165.0"}}, {"uniqueid": "MTK0695:3KOPY89HM997Z2LVETRTGYX835TJ39", "current_trial": 229, "dateTime": 1512604043196, "trialdata": {"rt": -1, "stimulus": "<p id=\"stim\">TUTU</p>", "key_press": -1, "type": "PRES_VIS", "word": "tutu", "wordID": 1523, "conditions": [24, 800, "v", 12000], "trial": 6, "serialpos": 16, "trial_type": "single-stim", "trial_index": 229, "time_elapsed": 2251711, "internal_node_id": "0.0-166.0"}}, {"uniqueid": "MTK0695:3KOPY89HM997Z2LVETRTGYX835TJ39", "current_trial": 230, "dateTime": 1512604044937, "trialdata": {"rt": -1, "stimulus": "<p id=\"stim\">DRESS</p>", "key_press": -1, "type": "PRES_VIS", "word": "dress", "wordID": 494, "conditions": [24, 800, "v", 12000], "trial": 6, "serialpos": 17, "trial_type": "single-stim", "trial_index": 230, "time_elapsed": 2253451, "internal_node_id": "0.0-167.0"}}, {"uniqueid": "MTK0695:3KOPY89HM997Z2LVETRTGYX835TJ39", "current_trial": 231, "dateTime": 1512604046608, "trialdata": {"rt": -1, "stimulus": "<p id=\"stim\">TROUT</p>", "key_press": -1, "type": "PRES_VIS", "word": "trout", "wordID": 1510, "conditions": [24, 800, "v", 12000], "trial": 6, "serialpos": 18, "trial_type": "single-stim", "trial_index": 231, "time_elapsed": 2255122, "internal_node_id": "0.0-168.0"}}, {"uniqueid": "MTK0695:3KOPY89HM997Z2LVETRTGYX835TJ39", "current_trial": 232, "dateTime": 1512604048492, "trialdata": {"rt": -1, "stimulus": "<p id=\"stim\">MARINE</p>", "key_press": -1, "type": "PRES_VIS", "word": "marine", "wordID": 868, "conditions": [24, 800, "v", 12000], "trial": 6, "serialpos": 19, "trial_type": "single-stim", "trial_index": 232, "time_elapsed": 2257007, "internal_node_id": "0.0-169.0"}}, {"uniqueid": "MTK0695:3KOPY89HM997Z2LVETRTGYX835TJ39", "current_trial": 233, "dateTime": 1512604050480, "trialdata": {"rt": -1, "stimulus": "<p id=\"stim\">BODY</p>", "key_press": -1, "type": "PRES_VIS", "word": "body", "wordID": 144, "conditions": [24, 800, "v", 12000], "trial": 6, "serialpos": 20, "trial_type": "single-stim", "trial_index": 233, "time_elapsed": 2258995, "internal_node_id": "0.0-170.0"}}, {"uniqueid": "MTK0695:3KOPY89HM997Z2LVETRTGYX835TJ39", "current_trial": 234, "dateTime": 1512604052169, "trialdata": {"rt": -1, "stimulus": "<p id=\"stim\">BEAST</p>", "key_press": -1, "type": "PRES_VIS", "word": "beast", "wordID": 107, "conditions": [24, 800, "v", 12000], "trial": 6, "serialpos": 21, "trial_type": "single-stim", "trial_index": 234, "time_elapsed": 2260683, "internal_node_id": "0.0-171.0"}}, {"uniqueid": "MTK0695:3KOPY89HM997Z2LVETRTGYX835TJ39", "current_trial": 235, "dateTime": 1512604053945, "trialdata": {"rt": -1, "stimulus": "<p id=\"stim\">BANK</p>", "key_press": -1, "type": "PRES_VIS", "word": "bank", "wordID": 82, "conditions": [24, 800, "v", 12000], "trial": 6, "serialpos": 22, "trial_type": "single-stim", "trial_index": 235, "time_elapsed": 2262460, "internal_node_id": "0.0-172.0"}}, {"uniqueid": "MTK0695:3KOPY89HM997Z2LVETRTGYX835TJ39", "current_trial": 236, "dateTime": 1512604055909, "trialdata": {"rt": -1, "stimulus": "<p id=\"stim\">HELMET</p>", "key_press": -1, "type": "PRES_VIS", "word": "helmet", "wordID": 701, "conditions": [24, 800, "v", 12000], "trial": 6, "serialpos": 23, "trial_type": "single-stim", "trial_index": 236, "time_elapsed": 2264423, "internal_node_id": "0.0-173.0"}}, {"uniqueid": "MTK0695:3KOPY89HM997Z2LVETRTGYX835TJ39", "current_trial": 237, "dateTime": 1512604058342, "trialdata": {"rt": -1, "stimulus": "", "key_press": -1, "type": "PRE_RECALL_DELAY", "trial_type": "single-stim", "trial_index": 237, "time_elapsed": 2266856, "internal_node_id": "0.0-174.0-0.0"}}, {"uniqueid": "MTK0695:3KOPY89HM997Z2LVETRTGYX835TJ39", "current_trial": 238, "dateTime": 1512604058848, "trialdata": {"rt": -1000, "stimulus": "/static/audio/400Hz.wav", "key_press": -1, "type": "PRE_RECALL_ALERT", "trial_type": "single-audio", "trial_index": 238, "time_elapsed": 2267363, "internal_node_id": "0.0-175.0"}}, {"uniqueid": "MTK0695:3KOPY89HM997Z2LVETRTGYX835TJ39", "current_trial": 239, "dateTime": 1512604118868, "trialdata": {"rt": [2387, 4234, 5115, 8944, 10844, 13168, 15534, 23371], "recwords": ["helmet", "tutu", "bank", "banker", "plaza", "panguin", "perch", "basement"], "type": "FREE_RECALL", "conditions": [24, 800, "v", 12000], "trial": 6, "trial_type": "free-recall", "trial_index": 239, "time_elapsed": 2327376, "internal_node_id": "0.0-176.0-0.0"}}, {"uniqueid": "MTK0695:3KOPY89HM997Z2LVETRTGYX835TJ39", "current_trial": 240, "dateTime": 1512604222601, "trialdata": {"rt": 101729, "key_press": 32, "type": "INSTRUCTIONS", "trial_type": "text", "trial_index": 240, "time_elapsed": 2431115, "internal_node_id": "0.0-177.0"}}, {"uniqueid": "MTK0695:3KOPY89HM997Z2LVETRTGYX835TJ39", "current_trial": 241, "dateTime": 1512604236618, "trialdata": {"rt": [5910, 10680], "responses": ["20", "13"], "num1": [9, 4, 2], "num2": [3, 8, 7], "num3": [8, 1, 1], "type": "DISTRACTOR", "conditions": [24, 800, "a", 12000], "trial": 7, "trial_type": "math-distractor", "trial_index": 241, "time_elapsed": 2445132, "internal_node_id": "0.0-178.0"}}, {"uniqueid": "MTK0695:3KOPY89HM997Z2LVETRTGYX835TJ39", "current_trial": 242, "dateTime": 1512604239657, "trialdata": {"rt": -1, "stimulus": "<p id=\"stim\">10</p>", "key_press": -1, "trial_type": "single-stim", "trial_index": 242, "time_elapsed": 2448172, "internal_node_id": "0.0-179.0-0.0"}}, {"uniqueid": "MTK0695:3KOPY89HM997Z2LVETRTGYX835TJ39", "current_trial": 243, "dateTime": 1512604240660, "trialdata": {"rt": -1, "stimulus": "<p id=\"stim\">9</p>", "key_press": -1, "trial_type": "single-stim", "trial_index": 243, "time_elapsed": 2449174, "internal_node_id": "0.0-179.0-1.0"}}, {"uniqueid": "MTK0695:3KOPY89HM997Z2LVETRTGYX835TJ39", "current_trial": 244, "dateTime": 1512604241665, "trialdata": {"rt": -1, "stimulus": "<p id=\"stim\">8</p>", "key_press": -1, "trial_type": "single-stim", "trial_index": 244, "time_elapsed": 2450178, "internal_node_id": "0.0-179.0-2.0"}}, {"uniqueid": "MTK0695:3KOPY89HM997Z2LVETRTGYX835TJ39", "current_trial": 245, "dateTime": 1512604242673, "trialdata": {"rt": -1, "stimulus": "<p id=\"stim\">7</p>", "key_press": -1, "trial_type": "single-stim", "trial_index": 245, "time_elapsed": 2451186, "internal_node_id": "0.0-179.0-3.0"}}, {"uniqueid": "MTK0695:3KOPY89HM997Z2LVETRTGYX835TJ39", "current_trial": 246, "dateTime": 1512604243680, "trialdata": {"rt": -1, "stimulus": "<p id=\"stim\">6</p>", "key_press": -1, "trial_type": "single-stim", "trial_index": 246, "time_elapsed": 2452195, "internal_node_id": "0.0-179.0-4.0"}}, {"uniqueid": "MTK0695:3KOPY89HM997Z2LVETRTGYX835TJ39", "current_trial": 247, "dateTime": 1512604244686, "trialdata": {"rt": -1, "stimulus": "<p id=\"stim\">5</p>", "key_press": -1, "trial_type": "single-stim", "trial_index": 247, "time_elapsed": 2453200, "internal_node_id": "0.0-179.0-5.0"}}, {"uniqueid": "MTK0695:3KOPY89HM997Z2LVETRTGYX835TJ39", "current_trial": 248, "dateTime": 1512604245689, "trialdata": {"rt": -1, "stimulus": "<p id=\"stim\">4</p>", "key_press": -1, "trial_type": "single-stim", "trial_index": 248, "time_elapsed": 2454204, "internal_node_id": "0.0-179.0-6.0"}}, {"uniqueid": "MTK0695:3KOPY89HM997Z2LVETRTGYX835TJ39", "current_trial": 249, "dateTime": 1512604246694, "trialdata": {"rt": -1, "stimulus": "<p id=\"stim\">3</p>", "key_press": -1, "trial_type": "single-stim", "trial_index": 249, "time_elapsed": 2455209, "internal_node_id": "0.0-179.0-7.0"}}, {"uniqueid": "MTK0695:3KOPY89HM997Z2LVETRTGYX835TJ39", "current_trial": 250, "dateTime": 1512604247703, "trialdata": {"rt": -1, "stimulus": "<p id=\"stim\">2</p>", "key_press": -1, "trial_type": "single-stim", "trial_index": 250, "time_elapsed": 2456216, "internal_node_id": "0.0-179.0-8.0"}}, {"uniqueid": "MTK0695:3KOPY89HM997Z2LVETRTGYX835TJ39", "current_trial": 251, "dateTime": 1512604248710, "trialdata": {"rt": -1, "stimulus": "<p id=\"stim\">1</p>", "key_press": -1, "trial_type": "single-stim", "trial_index": 251, "time_elapsed": 2457224, "internal_node_id": "0.0-179.0-9.0"}}, {"uniqueid": "MTK0695:3KOPY89HM997Z2LVETRTGYX835TJ39", "current_trial": 252, "dateTime": 1512604250229, "trialdata": {"rt": -1, "stimulus": "<p id=\"stim\">+</p>", "key_press": -1, "type": "FIXATION", "trial_type": "single-stim", "trial_index": 252, "time_elapsed": 2458744, "internal_node_id": "0.0-180.0-0.0"}}, {"uniqueid": "MTK0695:3KOPY89HM997Z2LVETRTGYX835TJ39", "current_trial": 253, "dateTime": 1512604252168, "trialdata": {"rt": -1000, "stimulus": "/static/audio/wordpool/RABBIT.wav", "key_press": -1, "type": "PRES_AUD", "word": "rabbit", "wordID": 1151, "conditions": [24, 800, "a", 12000], "trial": 7, "serialpos": 0, "trial_type": "single-audio", "trial_index": 253, "time_elapsed": 2460683, "internal_node_id": "0.0-181.0"}}, {"uniqueid": "MTK0695:3KOPY89HM997Z2LVETRTGYX835TJ39", "current_trial": 254, "dateTime": 1512604253778, "trialdata": {"rt": -1000, "stimulus": "/static/audio/wordpool/PORTRAIT.wav", "key_press": -1, "type": "PRES_AUD", "word": "portrait", "wordID": 1110, "conditions": [24, 800, "a", 12000], "trial": 7, "serialpos": 1, "trial_type": "single-audio", "trial_index": 254, "time_elapsed": 2462293, "internal_node_id": "0.0-182.0"}}, {"uniqueid": "MTK0695:3KOPY89HM997Z2LVETRTGYX835TJ39", "current_trial": 255, "dateTime": 1512604255556, "trialdata": {"rt": -1000, "stimulus": "/static/audio/wordpool/PICTURE.wav", "key_press": -1, "type": "PRES_AUD", "word": "picture", "wordID": 1060, "conditions": [24, 800, "a", 12000], "trial": 7, "serialpos": 2, "trial_type": "single-audio", "trial_index": 255, "time_elapsed": 2464070, "internal_node_id": "0.0-183.0"}}, {"uniqueid": "MTK0695:3KOPY89HM997Z2LVETRTGYX835TJ39", "current_trial": 256, "dateTime": 1512604257434, "trialdata": {"rt": -1000, "stimulus": "/static/audio/wordpool/SPOUSE.wav", "key_press": -1, "type": "PRES_AUD", "word": "spouse", "wordID": 1357, "conditions": [24, 800, "a", 12000], "trial": 7, "serialpos": 3, "trial_type": "single-audio", "trial_index": 256, "time_elapsed": 2465949, "internal_node_id": "0.0-184.0"}}, {"uniqueid": "MTK0695:3KOPY89HM997Z2LVETRTGYX835TJ39", "current_trial": 257, "dateTime": 1512604259309, "trialdata": {"rt": -1000, "stimulus": "/static/audio/wordpool/HORNET.wav", "key_press": -1, "type": "PRES_AUD", "word": "hornet", "wordID": 717, "conditions": [24, 800, "a", 12000], "trial": 7, "serialpos": 4, "trial_type": "single-audio", "trial_index": 257, "time_elapsed": 2467823, "internal_node_id": "0.0-185.0"}}, {"uniqueid": "MTK0695:3KOPY89HM997Z2LVETRTGYX835TJ39", "current_trial": 258, "dateTime": 1512604261224, "trialdata": {"rt": -1000, "stimulus": "/static/audio/wordpool/CLAMP.wav", "key_press": -1, "type": "PRES_AUD", "word": "clamp", "wordID": 315, "conditions": [24, 800, "a", 12000], "trial": 7, "serialpos": 5, "trial_type": "single-audio", "trial_index": 258, "time_elapsed": 2469739, "internal_node_id": "0.0-186.0"}}, {"uniqueid": "MTK0695:3KOPY89HM997Z2LVETRTGYX835TJ39", "current_trial": 259, "dateTime": 1512604263130, "trialdata": {"rt": -1000, "stimulus": "/static/audio/wordpool/SPOOL.wav", "key_press": -1, "type": "PRES_AUD", "word": "spool", "wordID": 1355, "conditions": [24, 800, "a", 12000], "trial": 7, "serialpos": 6, "trial_type": "single-audio", "trial_index": 259, "time_elapsed": 2471645, "internal_node_id": "0.0-187.0"}}, {"uniqueid": "MTK0695:3KOPY89HM997Z2LVETRTGYX835TJ39", "current_trial": 260, "dateTime": 1512604264858, "trialdata": {"rt": -1000, "stimulus": "/static/audio/wordpool/NIGHTGOWN.wav", "key_press": -1, "type": "PRES_AUD", "word": "nightgown", "wordID": 952, "conditions": [24, 800, "a", 12000], "trial": 7, "serialpos": 7, "trial_type": "single-audio", "trial_index": 260, "time_elapsed": 2473373, "internal_node_id": "0.0-188.0"}}, {"uniqueid": "MTK0695:3KOPY89HM997Z2LVETRTGYX835TJ39", "current_trial": 261, "dateTime": 1512604266510, "trialdata": {"rt": -1000, "stimulus": "/static/audio/wordpool/WIFE.wav", "key_press": -1, "type": "PRES_AUD", "word": "wife", "wordID": 1608, "conditions": [24, 800, "a", 12000], "trial": 7, "serialpos": 8, "trial_type": "single-audio", "trial_index": 261, "time_elapsed": 2475025, "internal_node_id": "0.0-189.0"}}, {"uniqueid": "MTK0695:3KOPY89HM997Z2LVETRTGYX835TJ39", "current_trial": 262, "dateTime": 1512604268232, "trialdata": {"rt": -1000, "stimulus": "/static/audio/wordpool/WAITRESS.wav", "key_press": -1, "type": "PRES_AUD", "word": "waitress", "wordID": 1580, "conditions": [24, 800, "a", 12000], "trial": 7, "serialpos": 9, "trial_type": "single-audio", "trial_index": 262, "time_elapsed": 2476747, "internal_node_id": "0.0-190.0"}}, {"uniqueid": "MTK0695:3KOPY89HM997Z2LVETRTGYX835TJ39", "current_trial": 263, "dateTime": 1512604270032, "trialdata": {"rt": -1000, "stimulus": "/static/audio/wordpool/SHORTS.wav", "key_press": -1, "type": "PRES_AUD", "word": "shorts", "wordID": 1292, "conditions": [24, 800, "a", 12000], "trial": 7, "serialpos": 10, "trial_type": "single-audio", "trial_index": 263, "time_elapsed": 2478547, "internal_node_id": "0.0-191.0"}}, {"uniqueid": "MTK0695:3KOPY89HM997Z2LVETRTGYX835TJ39", "current_trial": 264, "dateTime": 1512604272027, "trialdata": {"rt": -1000, "stimulus": "/static/audio/wordpool/BACKBONE.wav", "key_press": -1, "type": "PRES_AUD", "word": "backbone", "wordID": 65, "conditions": [24, 800, "a", 12000], "trial": 7, "serialpos": 11, "trial_type": "single-audio", "trial_index": 264, "time_elapsed": 2480542, "internal_node_id": "0.0-192.0"}}, {"uniqueid": "MTK0695:3KOPY89HM997Z2LVETRTGYX835TJ39", "current_trial": 265, "dateTime": 1512604273791, "trialdata": {"rt": -1000, "stimulus": "/static/audio/wordpool/FLASK.wav", "key_press": -1, "type": "PRES_AUD", "word": "flask", "wordID": 575, "conditions": [24, 800, "a", 12000], "trial": 7, "serialpos": 12, "trial_type": "single-audio", "trial_index": 265, "time_elapsed": 2482306, "internal_node_id": "0.0-193.0"}}, {"uniqueid": "MTK0695:3KOPY89HM997Z2LVETRTGYX835TJ39", "current_trial": 266, "dateTime": 1512604275440, "trialdata": {"rt": -1000, "stimulus": "/static/audio/wordpool/POSTAGE.wav", "key_press": -1, "type": "PRES_AUD", "word": "postage", "wordID": 1112, "conditions": [24, 800, "a", 12000], "trial": 7, "serialpos": 13, "trial_type": "single-audio", "trial_index": 266, "time_elapsed": 2483954, "internal_node_id": "0.0-194.0"}}, {"uniqueid": "MTK0695:3KOPY89HM997Z2LVETRTGYX835TJ39", "current_trial": 267, "dateTime": 1512604277086, "trialdata": {"rt": -1000, "stimulus": "/static/audio/wordpool/PANTHER.wav", "key_press": -1, "type": "PRES_AUD", "word": "panther", "wordID": 1008, "conditions": [24, 800, "a", 12000], "trial": 7, "serialpos": 14, "trial_type": "single-audio", "trial_index": 267, "time_elapsed": 2485599, "internal_node_id": "0.0-195.0"}}, {"uniqueid": "MTK0695:3KOPY89HM997Z2LVETRTGYX835TJ39", "current_trial": 268, "dateTime": 1512604278802, "trialdata": {"rt": -1000, "stimulus": "/static/audio/wordpool/BLADE.wav", "key_press": -1, "type": "PRES_AUD", "word": "blade", "wordID": 133, "conditions": [24, 800, "a", 12000], "trial": 7, "serialpos": 15, "trial_type": "single-audio", "trial_index": 268, "time_elapsed": 2487316, "internal_node_id": "0.0-196.0"}}, {"uniqueid": "MTK0695:3KOPY89HM997Z2LVETRTGYX835TJ39", "current_trial": 269, "dateTime": 1512604280711, "trialdata": {"rt": -1000, "stimulus": "/static/audio/wordpool/PICNIC.wav", "key_press": -1, "type": "PRES_AUD", "word": "picnic", "wordID": 1059, "conditions": [24, 800, "a", 12000], "trial": 7, "serialpos": 16, "trial_type": "single-audio", "trial_index": 269, "time_elapsed": 2489225, "internal_node_id": "0.0-197.0"}}, {"uniqueid": "MTK0695:3KOPY89HM997Z2LVETRTGYX835TJ39", "current_trial": 270, "dateTime": 1512604282584, "trialdata": {"rt": -1000, "stimulus": "/static/audio/wordpool/BEAKER.wav", "key_press": -1, "type": "PRES_AUD", "word": "beaker", "wordID": 103, "conditions": [24, 800, "a", 12000], "trial": 7, "serialpos": 17, "trial_type": "single-audio", "trial_index": 270, "time_elapsed": 2491099, "internal_node_id": "0.0-198.0"}}, {"uniqueid": "MTK0695:3KOPY89HM997Z2LVETRTGYX835TJ39", "current_trial": 271, "dateTime": 1512604284412, "trialdata": {"rt": -1000, "stimulus": "/static/audio/wordpool/GRAPE.wav", "key_press": -1, "type": "PRES_AUD", "word": "grape", "wordID": 653, "conditions": [24, 800, "a", 12000], "trial": 7, "serialpos": 18, "trial_type": "single-audio", "trial_index": 271, "time_elapsed": 2492925, "internal_node_id": "0.0-199.0"}}, {"