{"condition": 0, "counterbalance": 1289, "assignmentId": "3KIBXJ1WD61RWBKZFCBX5GVWDKKOK1", "workerId": "MTK0636", "hitId": "34OWYT6U3WOVW9SBNI216QPABF5I98", "currenttrial": 626, "bonus": 0, "data": [{"uniqueid": "MTK0636:3KIBXJ1WD61RWBKZFCBX5GVWDKKOK1", "current_trial": 0, "dateTime": 1512573899543, "trialdata": {"rt": 52275, "key_press": 32, "type": "INSTRUCTIONS", "trial_type": "text", "trial_index": 0, "time_elapsed": 52287, "internal_node_id": "0.0-0.0"}}, {"uniqueid": "MTK0636:3KIBXJ1WD61RWBKZFCBX5GVWDKKOK1", "current_trial": 1, "dateTime": 1512573903122, "trialdata": {"rt": 3575, "key_press": 17, "type": "INSTRUCTIONS", "trial_type": "text", "trial_index": 1, "time_elapsed": 55868, "internal_node_id": "0.0-1.0"}}, {"uniqueid": "MTK0636:3KIBXJ1WD61RWBKZFCBX5GVWDKKOK1", "current_trial": 2, "dateTime": 1512573934635, "trialdata": {"rt": [31473], "responses": ["ocean"], "type": "AUDIO_TEST", "trial_type": "audio-test", "trial_index": 2, "time_elapsed": 87382, "internal_node_id": "0.0-2.0"}}, {"uniqueid": "MTK0636:3KIBXJ1WD61RWBKZFCBX5GVWDKKOK1", "current_trial": 3, "dateTime": 1512573946496, "trialdata": {"rt": [11814], "responses": ["crystal"], "type": "AUDIO_TEST", "trial_type": "audio-test", "trial_index": 3, "time_elapsed": 99243, "internal_node_id": "0.0-3.0"}}, {"uniqueid": "MTK0636:3KIBXJ1WD61RWBKZFCBX5GVWDKKOK1", "current_trial": 4, "dateTime": 1512573960006, "trialdata": {"rt": [13481], "responses": ["spice"], "type": "AUDIO_TEST", "trial_type": "audio-test", "trial_index": 4, "time_elapsed": 112752, "internal_node_id": "0.0-4.0"}}, {"uniqueid": "MTK0636:3KIBXJ1WD61RWBKZFCBX5GVWDKKOK1", "current_trial": 5, "dateTime": 1512574079018, "trialdata": {"rt": 118246, "responses": "{\"Q0\":\"12:00 A.M.\",\"Q1\":\"7:30 A.M.\",\"Q2\":\"4\"}", "type": "SLEEP_SURVEY", "trial_type": "survey-text", "trial_index": 5, "time_elapsed": 231764, "internal_node_id": "0.0-5.0"}}, {"uniqueid": "MTK0636:3KIBXJ1WD61RWBKZFCBX5GVWDKKOK1", "current_trial": 6, "dateTime": 1512574166096, "trialdata": {"rt": 86073, "key_press": 32, "type": "INSTRUCTIONS", "trial_type": "text", "trial_index": 6, "time_elapsed": 318843, "internal_node_id": "0.0-6.0"}}, {"uniqueid": "MTK0636:3KIBXJ1WD61RWBKZFCBX5GVWDKKOK1", "current_trial": 7, "dateTime": 1512574184202, "trialdata": {"rt": 17599, "key_press": 32, "type": "INSTRUCTIONS", "trial_type": "text", "trial_index": 7, "time_elapsed": 336949, "internal_node_id": "0.0-7.0"}}, {"uniqueid": "MTK0636:3KIBXJ1WD61RWBKZFCBX5GVWDKKOK1", "current_trial": 8, "dateTime": 1512574199660, "trialdata": {"rt": 14949, "key_press": 32, "type": "INSTRUCTIONS", "trial_type": "text", "trial_index": 8, "time_elapsed": 352407, "internal_node_id": "0.0-8.0"}}, {"uniqueid": "MTK0636:3KIBXJ1WD61RWBKZFCBX5GVWDKKOK1", "current_trial": 9, "dateTime": 1512574218699, "trialdata": {"rt": [4984, 8023, 11562, 16901], "responses": ["19", "17", "14", "17 "], "num1": [5, 9, 5, 4, 6], "num2": [8, 1, 1, 6, 2], "num3": [6, 7, 8, 7, 4], "type": "DISTRACTOR", "conditions": [18, 1200, "a", 18000], "trial": 0, "trial_type": "math-distractor", "trial_index": 9, "time_elapsed": 371446, "internal_node_id": "0.0-9.0"}}, {"uniqueid": "MTK0636:3KIBXJ1WD61RWBKZFCBX5GVWDKKOK1", "current_trial": 10, "dateTime": 1512574221710, "trialdata": {"rt": -1, "stimulus": "<p id=\"stim\">10</p>", "key_press": -1, "trial_type": "single-stim", "trial_index": 10, "time_elapsed": 374456, "internal_node_id": "0.0-10.0-0.0"}}, {"uniqueid": "MTK0636:3KIBXJ1WD61RWBKZFCBX5GVWDKKOK1", "current_trial": 11, "dateTime": 1512574222714, "trialdata": {"rt": -1, "stimulus": "<p id=\"stim\">9</p>", "key_press": -1, "trial_type": "single-stim", "trial_index": 11, "time_elapsed": 375461, "internal_node_id": "0.0-10.0-1.0"}}, {"uniqueid": "MTK0636:3KIBXJ1WD61RWBKZFCBX5GVWDKKOK1", "current_trial": 12, "dateTime": 1512574223719, "trialdata": {"rt": -1, "stimulus": "<p id=\"stim\">8</p>", "key_press": -1, "trial_type": "single-stim", "trial_index": 12, "time_elapsed": 376466, "internal_node_id": "0.0-10.0-2.0"}}, {"uniqueid": "MTK0636:3KIBXJ1WD61RWBKZFCBX5GVWDKKOK1", "current_trial": 13, "dateTime": 1512574224723, "trialdata": {"rt": -1, "stimulus": "<p id=\"stim\">7</p>", "key_press": -1, "trial_type": "single-stim", "trial_index": 13, "time_elapsed": 377470, "internal_node_id": "0.0-10.0-3.0"}}, {"uniqueid": "MTK0636:3KIBXJ1WD61RWBKZFCBX5GVWDKKOK1", "current_trial": 14, "dateTime": 1512574225730, "trialdata": {"rt": -1, "stimulus": "<p id=\"stim\">6</p>", "key_press": -1, "trial_type": "single-stim", "trial_index": 14, "time_elapsed": 378476, "internal_node_id": "0.0-10.0-4.0"}}, {"uniqueid": "MTK0636:3KIBXJ1WD61RWBKZFCBX5GVWDKKOK1", "current_trial": 15, "dateTime": 1512574226735, "trialdata": {"rt": -1, "stimulus": "<p id=\"stim\">5</p>", "key_press": -1, "trial_type": "single-stim", "trial_index": 15, "time_elapsed": 379481, "internal_node_id": "0.0-10.0-5.0"}}, {"uniqueid": "MTK0636:3KIBXJ1WD61RWBKZFCBX5GVWDKKOK1", "current_trial": 16, "dateTime": 1512574227739, "trialdata": {"rt": -1, "stimulus": "<p id=\"stim\">4</p>", "key_press": -1, "trial_type": "single-stim", "trial_index": 16, "time_elapsed": 380486, "internal_node_id": "0.0-10.0-6.0"}}, {"uniqueid": "MTK0636:3KIBXJ1WD61RWBKZFCBX5GVWDKKOK1", "current_trial": 17, "dateTime": 1512574228782, "trialdata": {"rt": -1, "stimulus": "<p id=\"stim\">3</p>", "key_press": -1, "trial_type": "single-stim", "trial_index": 17, "time_elapsed": 381528, "internal_node_id": "0.0-10.0-7.0"}}, {"uniqueid": "MTK0636:3KIBXJ1WD61RWBKZFCBX5GVWDKKOK1", "current_trial": 18, "dateTime": 1512574229786, "trialdata": {"rt": -1, "stimulus": "<p id=\"stim\">2</p>", "key_press": -1, "trial_type": "single-stim", "trial_index": 18, "time_elapsed": 382533, "internal_node_id": "0.0-10.0-8.0"}}, {"uniqueid": "MTK0636:3KIBXJ1WD61RWBKZFCBX5GVWDKKOK1", "current_trial": 19, "dateTime": 1512574230790, "trialdata": {"rt": -1, "stimulus": "<p id=\"stim\">1</p>", "key_press": -1, "trial_type": "single-stim", "trial_index": 19, "time_elapsed": 383537, "internal_node_id": "0.0-10.0-9.0"}}, {"uniqueid": "MTK0636:3KIBXJ1WD61RWBKZFCBX5GVWDKKOK1", "current_trial": 20, "dateTime": 1512574232297, "trialdata": {"rt": -1, "stimulus": "<p id=\"stim\">+</p>", "key_press": -1, "type": "FIXATION", "trial_type": "single-stim", "trial_index": 20, "time_elapsed": 385043, "internal_node_id": "0.0-11.0-0.0"}}, {"uniqueid": "MTK0636:3KIBXJ1WD61RWBKZFCBX5GVWDKKOK1", "current_trial": 21, "dateTime": 1512574234587, "trialdata": {"rt": -1000, "stimulus": "/static/audio/wordpool/MASK.wav", "key_press": -1, "type": "PRES_AUD", "word": "mask", "wordID": 875, "conditions": [18, 1200, "a", 18000], "trial": 0, "serialpos": 0, "trial_type": "single-audio", "trial_index": 21, "time_elapsed": 387333, "internal_node_id": "0.0-12.0"}}, {"uniqueid": "MTK0636:3KIBXJ1WD61RWBKZFCBX5GVWDKKOK1", "current_trial": 22, "dateTime": 1512574236828, "trialdata": {"rt": -1000, "stimulus": "/static/audio/wordpool/BUCKET.wav", "key_press": -1, "type": "PRES_AUD", "word": "bucket", "wordID": 183, "conditions": [18, 1200, "a", 18000], "trial": 0, "serialpos": 1, "trial_type": "single-audio", "trial_index": 22, "time_elapsed": 389575, "internal_node_id": "0.0-13.0"}}, {"uniqueid": "MTK0636:3KIBXJ1WD61RWBKZFCBX5GVWDKKOK1", "current_trial": 23, "dateTime": 1512574238861, "trialdata": {"rt": -1000, "stimulus": "/static/audio/wordpool/CHAPEL.wav", "key_press": -1, "type": "PRES_AUD", "word": "chapel", "wordID": 279, "conditions": [18, 1200, "a", 18000], "trial": 0, "serialpos": 2, "trial_type": "single-audio", "trial_index": 23, "time_elapsed": 391608, "internal_node_id": "0.0-14.0"}}, {"uniqueid": "MTK0636:3KIBXJ1WD61RWBKZFCBX5GVWDKKOK1", "current_trial": 24, "dateTime": 1512574240956, "trialdata": {"rt": -1000, "stimulus": "/static/audio/wordpool/SALMON.wav", "key_press": -1, "type": "PRES_AUD", "word": "salmon", "wordID": 1226, "conditions": [18, 1200, "a", 18000], "trial": 0, "serialpos": 3, "trial_type": "single-audio", "trial_index": 24, "time_elapsed": 393702, "internal_node_id": "0.0-15.0"}}, {"uniqueid": "MTK0636:3KIBXJ1WD61RWBKZFCBX5GVWDKKOK1", "current_trial": 25, "dateTime": 1512574243080, "trialdata": {"rt": -1000, "stimulus": "/static/audio/wordpool/HONEY.wav", "key_press": -1, "type": "PRES_AUD", "word": "honey", "wordID": 712, "conditions": [18, 1200, "a", 18000], "trial": 0, "serialpos": 4, "trial_type": "single-audio", "trial_index": 25, "time_elapsed": 395827, "internal_node_id": "0.0-16.0"}}, {"uniqueid": "MTK0636:3KIBXJ1WD61RWBKZFCBX5GVWDKKOK1", "current_trial": 26, "dateTime": 1512574245251, "trialdata": {"rt": -1000, "stimulus": "/static/audio/wordpool/SPARROW.wav", "key_press": -1, "type": "PRES_AUD", "word": "sparrow", "wordID": 1346, "conditions": [18, 1200, "a", 18000], "trial": 0, "serialpos": 5, "trial_type": "single-audio", "trial_index": 26, "time_elapsed": 397997, "internal_node_id": "0.0-17.0"}}, {"uniqueid": "MTK0636:3KIBXJ1WD61RWBKZFCBX5GVWDKKOK1", "current_trial": 27, "dateTime": 1512574247451, "trialdata": {"rt": -1000, "stimulus": "/static/audio/wordpool/BASEMENT.wav", "key_press": -1, "type": "PRES_AUD", "word": "basement", "wordID": 93, "conditions": [18, 1200, "a", 18000], "trial": 0, "serialpos": 6, "trial_type": "single-audio", "trial_index": 27, "time_elapsed": 400197, "internal_node_id": "0.0-18.0"}}, {"uniqueid": "MTK0636:3KIBXJ1WD61RWBKZFCBX5GVWDKKOK1", "current_trial": 28, "dateTime": 1512574249492, "trialdata": {"rt": -1000, "stimulus": "/static/audio/wordpool/ICING.wav", "key_press": -1, "type": "PRES_AUD", "word": "icing", "wordID": 731, "conditions": [18, 1200, "a", 18000], "trial": 0, "serialpos": 7, "trial_type": "single-audio", "trial_index": 28, "time_elapsed": 402238, "internal_node_id": "0.0-19.0"}}, {"uniqueid": "MTK0636:3KIBXJ1WD61RWBKZFCBX5GVWDKKOK1", "current_trial": 29, "dateTime": 1512574251555, "trialdata": {"rt": -1000, "stimulus": "/static/audio/wordpool/FLOWER.wav", "key_press": -1, "type": "PRES_AUD", "word": "flower", "wordID": 583, "conditions": [18, 1200, "a", 18000], "trial": 0, "serialpos": 8, "trial_type": "single-audio", "trial_index": 29, "time_elapsed": 404302, "internal_node_id": "0.0-20.0"}}, {"uniqueid": "MTK0636:3KIBXJ1WD61RWBKZFCBX5GVWDKKOK1", "current_trial": 30, "dateTime": 1512574253769, "trialdata": {"rt": -1000, "stimulus": "/static/audio/wordpool/MARKER.wav", "key_press": -1, "type": "PRES_AUD", "word": "marker", "wordID": 869, "conditions": [18, 1200, "a", 18000], "trial": 0, "serialpos": 9, "trial_type": "single-audio", "trial_index": 30, "time_elapsed": 406516, "internal_node_id": "0.0-21.0"}}, {"uniqueid": "MTK0636:3KIBXJ1WD61RWBKZFCBX5GVWDKKOK1", "current_trial": 31, "dateTime": 1512574255976, "trialdata": {"rt": -1000, "stimulus": "/static/audio/wordpool/BLENDER.wav", "key_press": -1, "type": "PRES_AUD", "word": "blender", "wordID": 135, "conditions": [18, 1200, "a", 18000], "trial": 0, "serialpos": 10, "trial_type": "single-audio", "trial_index": 31, "time_elapsed": 408722, "internal_node_id": "0.0-22.0"}}, {"uniqueid": "MTK0636:3KIBXJ1WD61RWBKZFCBX5GVWDKKOK1", "current_trial": 32, "dateTime": 1512574258165, "trialdata": {"rt": -1000, "stimulus": "/static/audio/wordpool/FOOT.wav", "key_press": -1, "type": "PRES_AUD", "word": "foot", "wordID": 589, "conditions": [18, 1200, "a", 18000], "trial": 0, "serialpos": 11, "trial_type": "single-audio", "trial_index": 32, "time_elapsed": 410912, "internal_node_id": "0.0-23.0"}}, {"uniqueid": "MTK0636:3KIBXJ1WD61RWBKZFCBX5GVWDKKOK1", "current_trial": 33, "dateTime": 1512574260529, "trialdata": {"rt": -1000, "stimulus": "/static/audio/wordpool/CLOTHES.wav", "key_press": -1, "type": "PRES_AUD", "word": "clothes", "wordID": 326, "conditions": [18, 1200, "a", 18000], "trial": 0, "serialpos": 12, "trial_type": "single-audio", "trial_index": 33, "time_elapsed": 413276, "internal_node_id": "0.0-24.0"}}, {"uniqueid": "MTK0636:3KIBXJ1WD61RWBKZFCBX5GVWDKKOK1", "current_trial": 34, "dateTime": 1512574262663, "trialdata": {"rt": -1000, "stimulus": "/static/audio/wordpool/CANDY.wav", "key_press": -1, "type": "PRES_AUD", "word": "candy", "wordID": 229, "conditions": [18, 1200, "a", 18000], "trial": 0, "serialpos": 13, "trial_type": "single-audio", "trial_index": 34, "time_elapsed": 415409, "internal_node_id": "0.0-25.0"}}, {"uniqueid": "MTK0636:3KIBXJ1WD61RWBKZFCBX5GVWDKKOK1", "current_trial": 35, "dateTime": 1512574264933, "trialdata": {"rt": -1000, "stimulus": "/static/audio/wordpool/PARROT.wav", "key_press": -1, "type": "PRES_AUD", "word": "parrot", "wordID": 1014, "conditions": [18, 1200, "a", 18000], "trial": 0, "serialpos": 14, "trial_type": "single-audio", "trial_index": 35, "time_elapsed": 417679, "internal_node_id": "0.0-26.0"}}, {"uniqueid": "MTK0636:3KIBXJ1WD61RWBKZFCBX5GVWDKKOK1", "current_trial": 36, "dateTime": 1512574267297, "trialdata": {"rt": -1000, "stimulus": "/static/audio/wordpool/LAVA.wav", "key_press": -1, "type": "PRES_AUD", "word": "lava", "wordID": 803, "conditions": [18, 1200, "a", 18000], "trial": 0, "serialpos": 15, "trial_type": "single-audio", "trial_index": 36, "time_elapsed": 420044, "internal_node_id": "0.0-27.0"}}, {"uniqueid": "MTK0636:3KIBXJ1WD61RWBKZFCBX5GVWDKKOK1", "current_trial": 37, "dateTime": 1512574269689, "trialdata": {"rt": -1000, "stimulus": "/static/audio/wordpool/FLAG.wav", "key_press": -1, "type": "PRES_AUD", "word": "flag", "wordID": 572, "conditions": [18, 1200, "a", 18000], "trial": 0, "serialpos": 16, "trial_type": "single-audio", "trial_index": 37, "time_elapsed": 422436, "internal_node_id": "0.0-28.0"}}, {"uniqueid": "MTK0636:3KIBXJ1WD61RWBKZFCBX5GVWDKKOK1", "current_trial": 38, "dateTime": 1512574271795, "trialdata": {"rt": -1000, "stimulus": "/static/audio/wordpool/PLUTO.wav", "key_press": -1, "type": "PRES_AUD", "word": "pluto", "wordID": 1091, "conditions": [18, 1200, "a", 18000], "trial": 0, "serialpos": 17, "trial_type": "single-audio", "trial_index": 38, "time_elapsed": 424541, "internal_node_id": "0.0-29.0"}}, {"uniqueid": "MTK0636:3KIBXJ1WD61RWBKZFCBX5GVWDKKOK1", "current_trial": 39, "dateTime": 1512574273168, "trialdata": {"rt": -1, "stimulus": "", "key_press": -1, "type": "PRE_RECALL_DELAY", "trial_type": "single-stim", "trial_index": 39, "time_elapsed": 425914, "internal_node_id": "0.0-30.0-0.0"}}, {"uniqueid": "MTK0636:3KIBXJ1WD61RWBKZFCBX5GVWDKKOK1", "current_trial": 40, "dateTime": 1512574273675, "trialdata": {"rt": -1000, "stimulus": "/static/audio/400Hz.wav", "key_press": -1, "type": "PRE_RECALL_ALERT", "trial_type": "single-audio", "trial_index": 40, "time_elapsed": 426422, "internal_node_id": "0.0-31.0"}}, {"uniqueid": "MTK0636:3KIBXJ1WD61RWBKZFCBX5GVWDKKOK1", "current_trial": 41, "dateTime": 1512574333707, "trialdata": {"rt": [4458, 14492, 21225, 25392, 28568, 33392], "recwords": ["flag", "pluto", "flour", "bucket", "lava", "chapel"], "type": "FREE_RECALL", "conditions": [18, 1200, "a", 18000], "trial": 0, "trial_type": "free-recall", "trial_index": 41, "time_elapsed": 486436, "internal_node_id": "0.0-32.0-0.0"}}, {"uniqueid": "MTK0636:3KIBXJ1WD61RWBKZFCBX5GVWDKKOK1", "current_trial": 42, "dateTime": 1512574343237, "trialdata": {"rt": 7523, "key_press": 32, "type": "INSTRUCTIONS", "trial_type": "text", "trial_index": 42, "time_elapsed": 495983, "internal_node_id": "0.0-33.0"}}, {"uniqueid": "MTK0636:3KIBXJ1WD61RWBKZFCBX5GVWDKKOK1", "current_trial": 43, "dateTime": 1512574363250, "trialdata": {"rt": [4482, 9304, 14233, 17290], "responses": ["15", "24", "21", "14"], "num1": [6, 9, 7, 2, 1], "num2": [8, 7, 9, 3, 6], "num3": [1, 8, 5, 9, 9], "type": "DISTRACTOR", "conditions": [18, 1200, "v", 18000], "trial": 1, "trial_type": "math-distractor", "trial_index": 43, "time_elapsed": 515996, "internal_node_id": "0.0-34.0"}}, {"uniqueid": "MTK0636:3KIBXJ1WD61RWBKZFCBX5GVWDKKOK1", "current_trial": 44, "dateTime": 1512574366261, "trialdata": {"rt": -1, "stimulus": "<p id=\"stim\">10</p>", "key_press": -1, "trial_type": "single-stim", "trial_index": 44, "time_elapsed": 519007, "internal_node_id": "0.0-35.0-0.0"}}, {"uniqueid": "MTK0636:3KIBXJ1WD61RWBKZFCBX5GVWDKKOK1", "current_trial": 45, "dateTime": 1512574367267, "trialdata": {"rt": -1, "stimulus": "<p id=\"stim\">9</p>", "key_press": -1, "trial_type": "single-stim", "trial_index": 45, "time_elapsed": 520013, "internal_node_id": "0.0-35.0-1.0"}}, {"uniqueid": "MTK0636:3KIBXJ1WD61RWBKZFCBX5GVWDKKOK1", "current_trial": 46, "dateTime": 1512574368272, "trialdata": {"rt": -1, "stimulus": "<p id=\"stim\">8</p>", "key_press": -1, "trial_type": "single-stim", "trial_index": 46, "time_elapsed": 521018, "internal_node_id": "0.0-35.0-2.0"}}, {"uniqueid": "MTK0636:3KIBXJ1WD61RWBKZFCBX5GVWDKKOK1", "current_trial": 47, "dateTime": 1512574369278, "trialdata": {"rt": -1, "stimulus": "<p id=\"stim\">7</p>", "key_press": -1, "trial_type": "single-stim", "trial_index": 47, "time_elapsed": 522024, "internal_node_id": "0.0-35.0-3.0"}}, {"uniqueid": "MTK0636:3KIBXJ1WD61RWBKZFCBX5GVWDKKOK1", "current_trial": 48, "dateTime": 1512574370283, "trialdata": {"rt": -1, "stimulus": "<p id=\"stim\">6</p>", "key_press": -1, "trial_type": "single-stim", "trial_index": 48, "time_elapsed": 523029, "internal_node_id": "0.0-35.0-4.0"}}, {"uniqueid": "MTK0636:3KIBXJ1WD61RWBKZFCBX5GVWDKKOK1", "current_trial": 49, "dateTime": 1512574371292, "trialdata": {"rt": -1, "stimulus": "<p id=\"stim\">5</p>", "key_press": -1, "trial_type": "single-stim", "trial_index": 49, "time_elapsed": 524038, "internal_node_id": "0.0-35.0-5.0"}}, {"uniqueid": "MTK0636:3KIBXJ1WD61RWBKZFCBX5GVWDKKOK1", "current_trial": 50, "dateTime": 1512574372299, "trialdata": {"rt": -1, "stimulus": "<p id=\"stim\">4</p>", "key_press": -1, "trial_type": "single-stim", "trial_index": 50, "time_elapsed": 525046, "internal_node_id": "0.0-35.0-6.0"}}, {"uniqueid": "MTK0636:3KIBXJ1WD61RWBKZFCBX5GVWDKKOK1", "current_trial": 51, "dateTime": 1512574373307, "trialdata": {"rt": -1, "stimulus": "<p id=\"stim\">3</p>", "key_press": -1, "trial_type": "single-stim", "trial_index": 51, "time_elapsed": 526053, "internal_node_id": "0.0-35.0-7.0"}}, {"uniqueid": "MTK0636:3KIBXJ1WD61RWBKZFCBX5GVWDKKOK1", "current_trial": 52, "dateTime": 1512574374313, "trialdata": {"rt": -1, "stimulus": "<p id=\"stim\">2</p>", "key_press": -1, "trial_type": "single-stim", "trial_index": 52, "time_elapsed": 527059, "internal_node_id": "0.0-35.0-8.0"}}, {"uniqueid": "MTK0636:3KIBXJ1WD61RWBKZFCBX5GVWDKKOK1", "current_trial": 53, "dateTime": 1512574375319, "trialdata": {"rt": -1, "stimulus": "<p id=\"stim\">1</p>", "key_press": -1, "trial_type": "single-stim", "trial_index": 53, "time_elapsed": 528065, "internal_node_id": "0.0-35.0-9.0"}}, {"uniqueid": "MTK0636:3KIBXJ1WD61RWBKZFCBX5GVWDKKOK1", "current_trial": 54, "dateTime": 1512574376822, "trialdata": {"rt": -1, "stimulus": "<p id=\"stim\">+</p>", "key_press": -1, "type": "FIXATION", "trial_type": "single-stim", "trial_index": 54, "time_elapsed": 529568, "internal_node_id": "0.0-36.0-0.0"}}, {"uniqueid": "MTK0636:3KIBXJ1WD61RWBKZFCBX5GVWDKKOK1", "current_trial": 55, "dateTime": 1512574378029, "trialdata": {"rt": -1, "stimulus": "<p id=\"stim\">COIN</p>", "key_press": -1, "type": "PRES_VIS", "word": "coin", "wordID": 342, "conditions": [18, 1200, "v", 18000], "trial": 1, "serialpos": 0, "trial_type": "single-stim", "trial_index": 55, "time_elapsed": 530775, "internal_node_id": "0.0-37.0"}}, {"uniqueid": "MTK0636:3KIBXJ1WD61RWBKZFCBX5GVWDKKOK1", "current_trial": 56, "dateTime": 1512574380135, "trialdata": {"rt": -1, "stimulus": "<p id=\"stim\">TWIG</p>", "key_press": -1, "type": "PRES_VIS", "word": "twig", "wordID": 1526, "conditions": [18, 1200, "v", 18000], "trial": 1, "serialpos": 1, "trial_type": "single-stim", "trial_index": 56, "time_elapsed": 532881, "internal_node_id": "0.0-38.0"}}, {"uniqueid": "MTK0636:3KIBXJ1WD61RWBKZFCBX5GVWDKKOK1", "current_trial": 57, "dateTime": 1512574382493, "trialdata": {"rt": -1, "stimulus": "<p id=\"stim\">KITCHEN</p>", "key_press": -1, "type": "PRES_VIS", "word": "kitchen", "wordID": 777, "conditions": [18, 1200, "v", 18000], "trial": 1, "serialpos": 2, "trial_type": "single-stim", "trial_index": 57, "time_elapsed": 535239, "internal_node_id": "0.0-39.0"}}, {"uniqueid": "MTK0636:3KIBXJ1WD61RWBKZFCBX5GVWDKKOK1", "current_trial": 58, "dateTime": 1512574384761, "trialdata": {"rt": -1, "stimulus": "<p id=\"stim\">MILDEW</p>", "key_press": -1, "type": "PRES_VIS", "word": "mildew", "wordID": 892, "conditions": [18, 1200, "v", 18000], "trial": 1, "serialpos": 3, "trial_type": "single-stim", "trial_index": 58, "time_elapsed": 537507, "internal_node_id": "0.0-40.0"}}, {"uniqueid": "MTK0636:3KIBXJ1WD61RWBKZFCBX5GVWDKKOK1", "current_trial": 59, "dateTime": 1512574387165, "trialdata": {"rt": -1, "stimulus": "<p id=\"stim\">LIGHTNING</p>", "key_press": -1, "type": "PRES_VIS", "word": "lightning", "wordID": 819, "conditions": [18, 1200, "v", 18000], "trial": 1, "serialpos": 4, "trial_type": "single-stim", "trial_index": 59, "time_elapsed": 539912, "internal_node_id": "0.0-41.0"}}, {"uniqueid": "MTK0636:3KIBXJ1WD61RWBKZFCBX5GVWDKKOK1", "current_trial": 60, "dateTime": 1512574389230, "trialdata": {"rt": -1, "stimulus": "<p id=\"stim\">ISLAND</p>", "key_press": -1, "type": "PRES_VIS", "word": "island", "wordID": 744, "conditions": [18, 1200, "v", 18000], "trial": 1, "serialpos": 5, "trial_type": "single-stim", "trial_index": 60, "time_elapsed": 541977, "internal_node_id": "0.0-42.0"}}, {"uniqueid": "MTK0636:3KIBXJ1WD61RWBKZFCBX5GVWDKKOK1", "current_trial": 61, "dateTime": 1512574391622, "trialdata": {"rt": -1, "stimulus": "<p id=\"stim\">CASHEW</p>", "key_press": -1, "type": "PRES_VIS", "word": "cashew", "wordID": 252, "conditions": [18, 1200, "v", 18000], "trial": 1, "serialpos": 6, "trial_type": "single-stim", "trial_index": 61, "time_elapsed": 544368, "internal_node_id": "0.0-43.0"}}, {"uniqueid": "MTK0636:3KIBXJ1WD61RWBKZFCBX5GVWDKKOK1", "current_trial": 62, "dateTime": 1512574393829, "trialdata": {"rt": -1, "stimulus": "<p id=\"stim\">PORK</p>", "key_press": -1, "type": "PRES_VIS", "word": "pork", "wordID": 1107, "conditions": [18, 1200, "v", 18000], "trial": 1, "serialpos": 7, "trial_type": "single-stim", "trial_index": 62, "time_elapsed": 546576, "internal_node_id": "0.0-44.0"}}, {"uniqueid": "MTK0636:3KIBXJ1WD61RWBKZFCBX5GVWDKKOK1", "current_trial": 63, "dateTime": 1512574395933, "trialdata": {"rt": -1, "stimulus": "<p id=\"stim\">FUNGUS</p>", "key_press": -1, "type": "PRES_VIS", "word": "fungus", "wordID": 613, "conditions": [18, 1200, "v", 18000], "trial": 1, "serialpos": 8, "trial_type": "single-stim", "trial_index": 63, "time_elapsed": 548679, "internal_node_id": "0.0-45.0"}}, {"uniqueid": "MTK0636:3KIBXJ1WD61RWBKZFCBX5GVWDKKOK1", "current_trial": 64, "dateTime": 1512574397995, "trialdata": {"rt": -1, "stimulus": "<p id=\"stim\">SMOG</p>", "key_press": -1, "type": "PRES_VIS", "word": "smog", "wordID": 1329, "conditions": [18, 1200, "v", 18000], "trial": 1, "serialpos": 9, "trial_type": "single-stim", "trial_index": 64, "time_elapsed": 550741, "internal_node_id": "0.0-46.0"}}, {"uniqueid": "MTK0636:3KIBXJ1WD61RWBKZFCBX5GVWDKKOK1", "current_trial": 65, "dateTime": 1512574400166, "trialdata": {"rt": -1, "stimulus": "<p id=\"stim\">BRIEFCASE</p>", "key_press": -1, "type": "PRES_VIS", "word": "briefcase", "wordID": 174, "conditions": [18, 1200, "v", 18000], "trial": 1, "serialpos": 10, "trial_type": "single-stim", "trial_index": 65, "time_elapsed": 552911, "internal_node_id": "0.0-47.0"}}, {"uniqueid": "MTK0636:3KIBXJ1WD61RWBKZFCBX5GVWDKKOK1", "current_trial": 66, "dateTime": 1512574402466, "trialdata": {"rt": -1, "stimulus": "<p id=\"stim\">WORKER</p>", "key_press": -1, "type": "PRES_VIS", "word": "worker", "wordID": 1620, "conditions": [18, 1200, "v", 18000], "trial": 1, "serialpos": 11, "trial_type": "single-stim", "trial_index": 66, "time_elapsed": 555213, "internal_node_id": "0.0-48.0"}}, {"uniqueid": "MTK0636:3KIBXJ1WD61RWBKZFCBX5GVWDKKOK1", "current_trial": 67, "dateTime": 1512574404509, "trialdata": {"rt": -1, "stimulus": "<p id=\"stim\">GARLIC</p>", "key_press": -1, "type": "PRES_VIS", "word": "garlic", "wordID": 623, "conditions": [18, 1200, "v", 18000], "trial": 1, "serialpos": 12, "trial_type": "single-stim", "trial_index": 67, "time_elapsed": 557256, "internal_node_id": "0.0-49.0"}}, {"uniqueid": "MTK0636:3KIBXJ1WD61RWBKZFCBX5GVWDKKOK1", "current_trial": 68, "dateTime": 1512574406830, "trialdata": {"rt": -1, "stimulus": "<p id=\"stim\">CATTLE</p>", "key_press": -1, "type": "PRES_VIS", "word": "cattle", "wordID": 260, "conditions": [18, 1200, "v", 18000], "trial": 1, "serialpos": 13, "trial_type": "single-stim", "trial_index": 68, "time_elapsed": 559555, "internal_node_id": "0.0-50.0"}}, {"uniqueid": "MTK0636:3KIBXJ1WD61RWBKZFCBX5GVWDKKOK1", "current_trial": 69, "dateTime": 1512574409163, "trialdata": {"rt": -1, "stimulus": "<p id=\"stim\">COCKTAIL</p>", "key_press": -1, "type": "PRES_VIS", "word": "cocktail", "wordID": 337, "conditions": [18, 1200, "v", 18000], "trial": 1, "serialpos": 14, "trial_type": "single-stim", "trial_index": 69, "time_elapsed": 561910, "internal_node_id": "0.0-51.0"}}, {"uniqueid": "MTK0636:3KIBXJ1WD61RWBKZFCBX5GVWDKKOK1", "current_trial": 70, "dateTime": 1512574411177, "trialdata": {"rt": -1, "stimulus": "<p id=\"stim\">BUGGY</p>", "key_press": -1, "type": "PRES_VIS", "word": "buggy", "wordID": 187, "conditions": [18, 1200, "v", 18000], "trial": 1, "serialpos": 15, "trial_type": "single-stim", "trial_index": 70, "time_elapsed": 563923, "internal_node_id": "0.0-52.0"}}, {"uniqueid": "MTK0636:3KIBXJ1WD61RWBKZFCBX5GVWDKKOK1", "current_trial": 71, "dateTime": 1512574413213, "trialdata": {"rt": -1, "stimulus": "<p id=\"stim\">POET</p>", "key_press": -1, "type": "PRES_VIS", "word": "poet", "wordID": 1094, "conditions": [18, 1200, "v", 18000], "trial": 1, "serialpos": 16, "trial_type": "single-stim", "trial_index": 71, "time_elapsed": 565960, "internal_node_id": "0.0-53.0"}}, {"uniqueid": "MTK0636:3KIBXJ1WD61RWBKZFCBX5GVWDKKOK1", "current_trial": 72, "dateTime": 1512574415604, "trialdata": {"rt": -1, "stimulus": "<p id=\"stim\">QUAIL</p>", "key_press": -1, "type": "PRES_VIS", "word": "quail", "wordID": 1146, "conditions": [18, 1200, "v", 18000], "trial": 1, "serialpos": 17, "trial_type": "single-stim", "trial_index": 72, "time_elapsed": 568350, "internal_node_id": "0.0-54.0"}}, {"uniqueid": "MTK0636:3KIBXJ1WD61RWBKZFCBX5GVWDKKOK1", "current_trial": 73, "dateTime": 1512574418086, "trialdata": {"rt": -1, "stimulus": "", "key_press": -1, "type": "PRE_RECALL_DELAY", "trial_type": "single-stim", "trial_index": 73, "time_elapsed": 570833, "internal_node_id": "0.0-55.0-0.0"}}, {"uniqueid": "MTK0636:3KIBXJ1WD61RWBKZFCBX5GVWDKKOK1", "current_trial": 74, "dateTime": 1512574418598, "trialdata": {"rt": -1000, "stimulus": "/static/audio/400Hz.wav", "key_press": -1, "type": "PRE_RECALL_ALERT", "trial_type": "single-audio", "trial_index": 74, "time_elapsed": 571345, "internal_node_id": "0.0-56.0"}}, {"uniqueid": "MTK0636:3KIBXJ1WD61RWBKZFCBX5GVWDKKOK1", "current_trial": 75, "dateTime": 1512574478627, "trialdata": {"rt": [3548, 5835, 8412, 11185, 16148, 21177, 30632, 36963, 39572, 59229], "recwords": ["coin", "twig", "poet", "quail", "buggy", "cocktail", "poet", "fungus", "mildew", "bucket"], "type": "FREE_RECALL", "conditions": [18, 1200, "v", 18000], "trial": 1, "trial_type": "free-recall", "trial_index": 75, "time_elapsed": 631358, "internal_node_id": "0.0-57.0-0.0"}}, {"uniqueid": "MTK0636:3KIBXJ1WD61RWBKZFCBX5GVWDKKOK1", "current_trial": 76, "dateTime": 1512574515615, "trialdata": {"rt": 34953, "key_press": 32, "type": "INSTRUCTIONS", "trial_type": "text", "trial_index": 76, "time_elapsed": 668332, "internal_node_id": "0.0-58.0"}}, {"uniqueid": "MTK0636:3KIBXJ1WD61RWBKZFCBX5GVWDKKOK1", "current_trial": 77, "dateTime": 1512574528631, "trialdata": {"rt": [6259, 10773], "responses": ["20", "16"], "num1": [5, 5, 8], "num2": [9, 4, 1], "num3": [6, 7, 6], "type": "DISTRACTOR", "conditions": [24, 800, "a", 12000], "trial": 2, "trial_type": "math-distractor", "trial_index": 77, "time_elapsed": 681378, "internal_node_id": "0.0-59.0"}}, {"uniqueid": "MTK0636:3KIBXJ1WD61RWBKZFCBX5GVWDKKOK1", "current_trial": 78, "dateTime": 1512574531637, "trialdata": {"rt": -1, "stimulus": "<p id=\"stim\">10</p>", "key_press": -1, "trial_type": "single-stim", "trial_index": 78, "time_elapsed": 684383, "internal_node_id": "0.0-60.0-0.0"}}, {"uniqueid": "MTK0636:3KIBXJ1WD61RWBKZFCBX5GVWDKKOK1", "current_trial": 79, "dateTime": 1512574532640, "trialdata": {"rt": -1, "stimulus": "<p id=\"stim\">9</p>", "key_press": -1, "trial_type": "single-stim", "trial_index": 79, "time_elapsed": 685387, "internal_node_id": "0.0-60.0-1.0"}}, {"uniqueid": "MTK0636:3KIBXJ1WD61RWBKZFCBX5GVWDKKOK1", "current_trial": 80, "dateTime": 1512574533645, "trialdata": {"rt": -1, "stimulus": "<p id=\"stim\">8</p>", "key_press": -1, "trial_type": "single-stim", "trial_index": 80, "time_elapsed": 686392, "internal_node_id": "0.0-60.0-2.0"}}, {"uniqueid": "MTK0636:3KIBXJ1WD61RWBKZFCBX5GVWDKKOK1", "current_trial": 81, "dateTime": 1512574534648, "trialdata": {"rt": -1, "stimulus": "<p id=\"stim\">7</p>", "key_press": -1, "trial_type": "single-stim", "trial_index": 81, "time_elapsed": 687395, "internal_node_id": "0.0-60.0-3.0"}}, {"uniqueid": "MTK0636:3KIBXJ1WD61RWBKZFCBX5GVWDKKOK1", "current_trial": 82, "dateTime": 1512574535654, "trialdata": {"rt": -1, "stimulus": "<p id=\"stim\">6</p>", "key_press": -1, "trial_type": "single-stim", "trial_index": 82, "time_elapsed": 688399, "internal_node_id": "0.0-60.0-4.0"}}, {"uniqueid": "MTK0636:3KIBXJ1WD61RWBKZFCBX5GVWDKKOK1", "current_trial": 83, "dateTime": 1512574536658, "trialdata": {"rt": -1, "stimulus": "<p id=\"stim\">5</p>", "key_press": -1, "trial_type": "single-stim", "trial_index": 83, "time_elapsed": 689405, "internal_node_id": "0.0-60.0-5.0"}}, {"uniqueid": "MTK0636:3KIBXJ1WD61RWBKZFCBX5GVWDKKOK1", "current_trial": 84, "dateTime": 1512574537663, "trialdata": {"rt": -1, "stimulus": "<p id=\"stim\">4</p>", "key_press": -1, "trial_type": "single-stim", "trial_index": 84, "time_elapsed": 690409, "internal_node_id": "0.0-60.0-6.0"}}, {"uniqueid": "MTK0636:3KIBXJ1WD61RWBKZFCBX5GVWDKKOK1", "current_trial": 85, "dateTime": 1512574538666, "trialdata": {"rt": -1, "stimulus": "<p id=\"stim\">3</p>", "key_press": -1, "trial_type": "single-stim", "trial_index": 85, "time_elapsed": 691413, "internal_node_id": "0.0-60.0-7.0"}}, {"uniqueid": "MTK0636:3KIBXJ1WD61RWBKZFCBX5GVWDKKOK1", "current_trial": 86, "dateTime": 1512574539671, "trialdata": {"rt": -1, "stimulus": "<p id=\"stim\">2</p>", "key_press": -1, "trial_type": "single-stim", "trial_index": 86, "time_elapsed": 692418, "internal_node_id": "0.0-60.0-8.0"}}, {"uniqueid": "MTK0636:3KIBXJ1WD61RWBKZFCBX5GVWDKKOK1", "current_trial": 87, "dateTime": 1512574540675, "trialdata": {"rt": -1, "stimulus": "<p id=\"stim\">1</p>", "key_press": -1, "trial_type": "single-stim", "trial_index": 87, "time_elapsed": 693422, "internal_node_id": "0.0-60.0-9.0"}}, {"uniqueid": "MTK0636:3KIBXJ1WD61RWBKZFCBX5GVWDKKOK1", "current_trial": 88, "dateTime": 1512574542181, "trialdata": {"rt": -1, "stimulus": "<p id=\"stim\">+</p>", "key_press": -1, "type": "FIXATION", "trial_type": "single-stim", "trial_index": 88, "time_elapsed": 694928, "internal_node_id": "0.0-61.0-0.0"}}, {"uniqueid": "MTK0636:3KIBXJ1WD61RWBKZFCBX5GVWDKKOK1", "current_trial": 89, "dateTime": 1512574544027, "trialdata": {"rt": -1000, "stimulus": "/static/audio/wordpool/GLASS.wav", "key_press": -1, "type": "PRES_AUD", "word": "glass", "wordID": 638, "conditions": [24, 800, "a", 12000], "trial": 2, "serialpos": 0, "trial_type": "single-audio", "trial_index": 89, "time_elapsed": 696773, "internal_node_id": "0.0-62.0"}}, {"uniqueid": "MTK0636:3KIBXJ1WD61RWBKZFCBX5GVWDKKOK1", "current_trial": 90, "dateTime": 1512574545801, "trialdata": {"rt": -1000, "stimulus": "/static/audio/wordpool/WAITRESS.wav", "key_press": -1, "type": "PRES_AUD", "word": "waitress", "wordID": 1580, "conditions": [24, 800, "a", 12000], "trial": 2, "serialpos": 1, "trial_type": "single-audio", "trial_index": 90, "time_elapsed": 698547, "internal_node_id": "0.0-63.0"}}, {"uniqueid": "MTK0636:3KIBXJ1WD61RWBKZFCBX5GVWDKKOK1", "current_trial": 91, "dateTime": 1512574547551, "trialdata": {"rt": -1000, "stimulus": "/static/audio/wordpool/CASHIER.wav", "key_press": -1, "type": "PRES_AUD", "word": "cashier", "wordID": 253, "conditions": [24, 800, "a", 12000], "trial": 2, "serialpos": 2, "trial_type": "single-audio", "trial_index": 91, "time_elapsed": 700297, "internal_node_id": "0.0-64.0"}}, {"uniqueid": "MTK0636:3KIBXJ1WD61RWBKZFCBX5GVWDKKOK1", "current_trial": 92, "dateTime": 1512574549341, "trialdata": {"rt": -1000, "stimulus": "/static/audio/wordpool/SHELF.wav", "key_press": -1, "type": "PRES_AUD", "word": "shelf", "wordID": 1279, "conditions": [24, 800, "a", 12000], "trial": 2, "serialpos": 3, "trial_type": "single-audio", "trial_index": 92, "time_elapsed": 702087, "internal_node_id": "0.0-65.0"}}, {"uniqueid": "MTK0636:3KIBXJ1WD61RWBKZFCBX5GVWDKKOK1", "current_trial": 93, "dateTime": 1512574551329, "trialdata": {"rt": -1000, "stimulus": "/static/audio/wordpool/PASSAGE.wav", "key_press": -1, "type": "PRES_AUD", "word": "passage", "wordID": 1018, "conditions": [24, 800, "a", 12000], "trial": 2, "serialpos": 4, "trial_type": "single-audio", "trial_index": 93, "time_elapsed": 704076, "internal_node_id": "0.0-66.0"}}, {"uniqueid": "MTK0636:3KIBXJ1WD61RWBKZFCBX5GVWDKKOK1", "current_trial": 94, "dateTime": 1512574553088, "trialdata": {"rt": -1000, "stimulus": "/static/audio/wordpool/JUDGE.wav", "key_press": -1, "type": "PRES_AUD", "word": "judge", "wordID": 760, "conditions": [24, 800, "a", 12000], "trial": 2, "serialpos": 5, "trial_type": "single-audio", "trial_index": 94, "time_elapsed": 705835, "internal_node_id": "0.0-67.0"}}, {"uniqueid": "MTK0636:3KIBXJ1WD61RWBKZFCBX5GVWDKKOK1", "current_trial": 95, "dateTime": 1512574555072, "trialdata": {"rt": -1000, "stimulus": "/static/audio/wordpool/LEG.wav", "key_press": -1, "type": "PRES_AUD", "word": "leg", "wordID": 808, "conditions": [24, 800, "a", 12000], "trial": 2, "serialpos": 6, "trial_type": "single-audio", "trial_index": 95, "time_elapsed": 707819, "internal_node_id": "0.0-68.0"}}, {"uniqueid": "MTK0636:3KIBXJ1WD61RWBKZFCBX5GVWDKKOK1", "current_trial": 96, "dateTime": 1512574556973, "trialdata": {"rt": -1000, "stimulus": "/static/audio/wordpool/CARROT.wav", "key_press": -1, "type": "PRES_AUD", "word": "carrot", "wordID": 248, "conditions": [24, 800, "a", 12000], "trial": 2, "serialpos": 7, "trial_type": "single-audio", "trial_index": 96, "time_elapsed": 709720, "internal_node_id": "0.0-69.0"}}, {"uniqueid": "MTK0636:3KIBXJ1WD61RWBKZFCBX5GVWDKKOK1", "current_trial": 97, "dateTime": 1512574558870, "trialdata": {"rt": -1000, "stimulus": "/static/audio/wordpool/CANAL.wav", "key_press": -1, "type": "PRES_AUD", "word": "canal", "wordID": 225, "conditions": [24, 800, "a", 12000], "trial": 2, "serialpos": 8, "trial_type": "single-audio", "trial_index": 97, "time_elapsed": 711617, "internal_node_id": "0.0-70.0"}}, {"uniqueid": "MTK0636:3KIBXJ1WD61RWBKZFCBX5GVWDKKOK1", "current_trial": 98, "dateTime": 1512574560861, "trialdata": {"rt": -1000, "stimulus": "/static/audio/wordpool/BLOCKADE.wav", "key_press": -1, "type": "PRES_AUD", "word": "blockade", "wordID": 136, "conditions": [24, 800, "a", 12000], "trial": 2, "serialpos": 9, "trial_type": "single-audio", "trial_index": 98, "time_elapsed": 713608, "internal_node_id": "0.0-71.0"}}, {"uniqueid": "MTK0636:3KIBXJ1WD61RWBKZFCBX5GVWDKKOK1", "current_trial": 99, "dateTime": 1512574562742, "trialdata": {"rt": -1000, "stimulus": "/static/audio/wordpool/JURY.wav", "key_press": -1, "type": "PRES_AUD", "word": "jury", "wordID": 765, "conditions": [24, 800, "a", 12000], "trial": 2, "serialpos": 10, "trial_type": "single-audio", "trial_index": 99, "time_elapsed": 715489, "internal_node_id": "0.0-72.0"}}, {"uniqueid": "MTK0636:3KIBXJ1WD61RWBKZFCBX5GVWDKKOK1", "current_trial": 100, "dateTime": 1512574564688, "trialdata": {"rt": -1000, "stimulus": "/static/audio/wordpool/HATCHET.wav", "key_press": -1, "type": "PRES_AUD", "word": "hatchet", "wordID": 690, "conditions": [24, 800, "a", 12000], "trial": 2, "serialpos": 11, "trial_type": "single-audio", "trial_index": 100, "time_elapsed": 717435, "internal_node_id": "0.0-73.0"}}, {"uniqueid": "MTK0636:3KIBXJ1WD61RWBKZFCBX5GVWDKKOK1", "current_trial": 101, "dateTime": 1512574566640, "trialdata": {"rt": -1000, "stimulus": "/static/audio/wordpool/GROUND.wav", "key_press": -1, "type": "PRES_AUD", "word": "ground", "wordID": 665, "conditions": [24, 800, "a", 12000], "trial": 2, "serialpos": 12, "trial_type": "single-audio", "trial_index": 101, "time_elapsed": 719387, "internal_node_id": "0.0-74.0"}}, {"uniqueid": "MTK0636:3KIBXJ1WD61RWBKZFCBX5GVWDKKOK1", "current_trial": 102, "dateTime": 1512574568541, "trialdata": {"rt": -1000, "stimulus": "/static/audio/wordpool/SEAL.wav", "key_press": -1, "type": "PRES_AUD", "word": "seal", "wordID": 1261, "conditions": [24, 800, "a", 12000], "trial": 2, "serialpos": 13, "trial_type": "single-audio", "trial_index": 102, "time_elapsed": 721288, "internal_node_id": "0.0-75.0"}}, {"uniqueid": "MTK0636:3KIBXJ1WD61RWBKZFCBX5GVWDKKOK1", "current_trial": 103, "dateTime": 1512574570247, "trialdata": {"rt": -1000, "stimulus": "/static/audio/wordpool/CROSS.wav", "key_press": -1, "type": "PRES_AUD", "word": "cross", "wordID": 412, "conditions": [24, 800, "a", 12000], "trial": 2, "serialpos": 14, "trial_type": "single-audio", "trial_index": 103, "time_elapsed": 722994, "internal_node_id": "0.0-76.0"}}, {"uniqueid": "MTK0636:3KIBXJ1WD61RWBKZFCBX5GVWDKKOK1", "current_trial": 104, "dateTime": 1512574572222, "trialdata": {"rt": -1000, "stimulus": "/static/audio/wordpool/DINER.wav", "key_press": -1, "type": "PRES_AUD", "word": "diner", "wordID": 466, "conditions": [24, 800, "a", 12000], "trial": 2, "serialpos": 15, "trial_type": "single-audio", "trial_index": 104, "time_elapsed": 724968, "internal_node_id": "0.0-77.0"}}, {"uniqueid": "MTK0636:3KIBXJ1WD61RWBKZFCBX5GVWDKKOK1", "current_trial": 105, "dateTime": 1512574574021, "trialdata": {"rt": -1000, "stimulus": "/static/audio/wordpool/FILM.wav", "key_press": -1, "type": "PRES_AUD", "word": "film", "wordID": 564, "conditions": [24, 800, "a", 12000], "trial": 2, "serialpos": 16, "trial_type": "single-audio", "trial_index": 105, "time_elapsed": 726768, "internal_node_id": "0.0-78.0"}}, {"uniqueid": "MTK0636:3KIBXJ1WD61RWBKZFCBX5GVWDKKOK1", "current_trial": 106, "dateTime": 1512574575759, "trialdata": {"rt": -1000, "stimulus": "/static/audio/wordpool/ACTOR.wav", "key_press": -1, "type": "PRES_AUD", "word": "actor", "wordID": 4, "conditions": [24, 800, "a", 12000], "trial": 2, "serialpos": 17, "trial_type": "single-audio", "trial_index": 106, "time_elapsed": 728505, "internal_node_id": "0.0-79.0"}}, {"uniqueid": "MTK0636:3KIBXJ1WD61RWBKZFCBX5GVWDKKOK1", "current_trial": 107, "dateTime": 1512574577722, "trialdata": {"rt": -1000, "stimulus": "/static/audio/wordpool/FRUIT.wav", "key_press": -1, "type": "PRES_AUD", "word": "fruit", "wordID": 609, "conditions": [24, 800, "a", 12000], "trial": 2, "serialpos": 18, "trial_type": "single-audio", "trial_index": 107, "time_elapsed": 730469, "internal_node_id": "0.0-80.0"}}, {"uniqueid": "MTK0636:3KIBXJ1WD61RWBKZFCBX5GVWDKKOK1", "current_trial": 108, "dateTime": 1512574579511, "trialdata": {"rt": -1000, "stimulus": "/static/audio/wordpool/COLLEGE.wav", "key_press": -1, "type": "PRES_AUD", "word": "college", "wordID": 345, "conditions": [24, 800, "a", 12000], "trial": 2, "serialpos": 19, "trial_type": "single-audio", "trial_index": 108, "time_elapsed": 732258, "internal_node_id": "0.0-81.0"}}, {"uniqueid": "MTK0636:3KIBXJ1WD61RWBKZFCBX5GVWDKKOK1", "current_trial": 109, "dateTime": 1512574581274, "trialdata": {"rt": -1000, "stimulus": "/static/audio/wordpool/TOASTER.wav", "key_press": -1, "type": "PRES_AUD", "word": "toaster", "wordID": 1471, "conditions": [24, 800, "a", 12000], "trial": 2, "serialpos": 20, "trial_type": "single-audio", "trial_index": 109, "time_elapsed": 734020, "internal_node_id": "0.0-82.0"}}, {"uniqueid": "MTK0636:3KIBXJ1WD61RWBKZFCBX5GVWDKKOK1", "current_trial": 110, "dateTime": 1512574583006, "trialdata": {"rt": -1000, "stimulus": "/static/audio/wordpool/ITEM.wav", "key_press": -1, "type": "PRES_AUD", "word": "item", "wordID": 745, "conditions": [24, 800, "a", 12000], "trial": 2, "serialpos": 21, "trial_type": "single-audio", "trial_index": 110, "time_elapsed": 735753, "internal_node_id": "0.0-83.0"}}, {"uniqueid": "MTK0636:3KIBXJ1WD61RWBKZFCBX5GVWDKKOK1", "current_trial": 111, "dateTime": 1512574584819, "trialdata": {"rt": -1000, "stimulus": "/static/audio/wordpool/ROD.wav", "key_press": -1, "type": "PRES_AUD", "word": "rod", "wordID": 1202, "conditions": [24, 800, "a", 12000], "trial": 2, "serialpos": 22, "trial_type": "single-audio", "trial_index": 111, "time_elapsed": 737566, "internal_node_id": "0.0-84.0"}}, {"uniqueid": "MTK0636:3KIBXJ1WD61RWBKZFCBX5GVWDKKOK1", "current_trial": 112, "dateTime": 1512574586632, "trialdata": {"rt": -1000, "stimulus": "/static/audio/wordpool/APPLE.wav", "key_press": -1, "type": "PRES_AUD", "word": "apple", "wordID": 32, "conditions": [24, 800, "a", 12000], "trial": 2, "serialpos": 23, "trial_type": "single-audio", "trial_index": 112, "time_elapsed": 739379, "internal_node_id": "0.0-85.0"}}, {"uniqueid": "MTK0636:3KIBXJ1WD61RWBKZFCBX5GVWDKKOK1", "current_trial": 113, "dateTime": 1512574587961, "trialdata": {"rt": -1, "stimulus": "", "key_press": -1, "type": "PRE_RECALL_DELAY", "trial_type": "single-stim", "trial_index": 113, "time_elapsed": 740708, "internal_node_id": "0.0-86.0-0.0"}}, {"uniqueid": "MTK0636:3KIBXJ1WD61RWBKZFCBX5GVWDKKOK1", "current_trial": 114, "dateTime": 1512574588466, "trialdata": {"rt": -1000, "stimulus": "/static/audio/400Hz.wav", "key_press": -1, "type": "PRE_RECALL_ALERT", "trial_type": "single-audio", "trial_index": 114, "time_elapsed": 741213, "internal_node_id": "0.0-87.0"}}, {"uniqueid": "MTK0636:3KIBXJ1WD61RWBKZFCBX5GVWDKKOK1", "current_trial": 115, "dateTime": 1512574648488, "trialdata": {"rt": [2509, 2706, 5326, 9266, 12215, 15774, 18516, 25958], "recwords": ["rod", "", "apple", "cashier", "waitress", "shelf", "diner", "college"], "type": "FREE_RECALL", "conditions": [24, 800, "a", 12000], "trial": 2, "trial_type": "free-recall", "trial_index": 115, "time_elapsed": 801220, "internal_node_id": "0.0-88.0-0.0"}}, {"uniqueid": "MTK0636:3KIBXJ1WD61RWBKZFCBX5GVWDKKOK1", "current_trial": 116, "dateTime": 1512574657891, "trialdata": {"rt": 7397, "key_press": 32, "type": "INSTRUCTIONS", "trial_type": "text", "trial_index": 116, "time_elapsed": 810638, "internal_node_id": "0.0-89.0"}}, {"uniqueid": "MTK0636:3KIBXJ1WD61RWBKZFCBX5GVWDKKOK1", "current_trial": 117, "dateTime": 1512574671908, "trialdata": {"rt": [3687, 6472, 10168], "responses": ["14", "11", "24"], "num1": [6, 3, 9, 8], "num2": [2, 2, 6, 3], "num3": [6, 6, 9, 7], "type": "DISTRACTOR", "conditions": [24, 1600, "a", 12000], "trial": 3, "trial_type": "math-distractor", "trial_index": 117, "time_elapsed": 824655, "internal_node_id": "0.0-90.0"}}, {"uniqueid": "MTK0636:3KIBXJ1WD61RWBKZFCBX5GVWDKKOK1", "current_trial": 118, "dateTime": 1512574674915, "trialdata": {"rt": -1, "stimulus": "<p id=\"stim\">10</p>", "key_press": -1, "trial_type": "single-stim", "trial_index": 118, "time_elapsed": 827661, "internal_node_id": "0.0-91.0-0.0"}}, {"uniqueid": "MTK0636:3KIBXJ1WD61RWBKZFCBX5GVWDKKOK1", "current_trial": 119, "dateTime": 1512574675922, "trialdata": {"rt": -1, "stimulus": "<p id=\"stim\">9</p>", "key_press": -1, "trial_type": "single-stim", "trial_index": 119, "time_elapsed": 828669, "internal_node_id": "0.0-91.0-1.0"}}, {"uniqueid": "MTK0636:3KIBXJ1WD61RWBKZFCBX5GVWDKKOK1", "current_trial": 120, "dateTime": 1512574676929, "trialdata": {"rt": -1, "stimulus": "<p id=\"stim\">8</p>", "key_press": -1, "trial_type": "single-stim", "trial_index": 120, "time_elapsed": 829676, "internal_node_id": "0.0-91.0-2.0"}}, {"uniqueid": "MTK0636:3KIBXJ1WD61RWBKZFCBX5GVWDKKOK1", "current_trial": 121, "dateTime": 1512574677934, "trialdata": {"rt": -1, "stimulus": "<p id=\"stim\">7</p>", "key_press": -1, "trial_type": "single-stim", "trial_index": 121, "time_elapsed": 830681, "internal_node_id": "0.0-91.0-3.0"}}, {"uniqueid": "MTK0636:3KIBXJ1WD61RWBKZFCBX5GVWDKKOK1", "current_trial": 122, "dateTime": 1512574678939, "trialdata": {"rt": -1, "stimulus": "<p id=\"stim\">6</p>", "key_press": -1, "trial_type": "single-stim", "trial_index": 122, "time_elapsed": 831686, "internal_node_id": "0.0-91.0-4.0"}}, {"uniqueid": "MTK0636:3KIBXJ1WD61RWBKZFCBX5GVWDKKOK1", "current_trial": 123, "dateTime": 1512574679947, "trialdata": {"rt": -1, "stimulus": "<p id=\"stim\">5</p>", "key_press": -1, "trial_type": "single-stim", "trial_index": 123, "time_elapsed": 832693, "internal_node_id": "0.0-91.0-5.0"}}, {"uniqueid": "MTK0636:3KIBXJ1WD61RWBKZFCBX5GVWDKKOK1", "current_trial": 124, "dateTime": 1512574680952, "trialdata": {"rt": -1, "stimulus": "<p id=\"stim\">4</p>", "key_press": -1, "trial_type": "single-stim", "trial_index": 124, "time_elapsed": 833699, "internal_node_id": "0.0-91.0-6.0"}}, {"uniqueid": "MTK0636:3KIBXJ1WD61RWBKZFCBX5GVWDKKOK1", "current_trial": 125, "dateTime": 1512574681956, "trialdata": {"rt": -1, "stimulus": "<p id=\"stim\">3</p>", "key_press": -1, "trial_type": "single-stim", "trial_index": 125, "time_elapsed": 834703, "internal_node_id": "0.0-91.0-7.0"}}, {"uniqueid": "MTK0636:3KIBXJ1WD61RWBKZFCBX5GVWDKKOK1", "current_trial": 126, "dateTime": 1512574682961, "trialdata": {"rt": -1, "stimulus": "<p id=\"stim\">2</p>", "key_press": -1, "trial_type": "single-stim", "trial_index": 126, "time_elapsed": 835708, "internal_node_id": "0.0-91.0-8.0"}}, {"uniqueid": "MTK0636:3KIBXJ1WD61RWBKZFCBX5GVWDKKOK1", "current_trial": 127, "dateTime": 1512574683966, "trialdata": {"rt": -1, "stimulus": "<p id=\"stim\">1</p>", "key_press": -1, "trial_type": "single-stim", "trial_index": 127, "time_elapsed": 836713, "internal_node_id": "0.0-91.0-9.0"}}, {"uniqueid": "MTK0636:3KIBXJ1WD61RWBKZFCBX5GVWDKKOK1", "current_trial": 128, "dateTime": 1512574685470, "trialdata": {"rt": -1, "stimulus": "<p id=\"stim\">+</p>", "key_press": -1, "type": "FIXATION", "trial_type": "single-stim", "trial_index": 128, "time_elapsed": 838215, "internal_node_id": "0.0-92.0-0.0"}}, {"uniqueid": "MTK0636:3KIBXJ1WD61RWBKZFCBX5GVWDKKOK1", "current_trial": 129, "dateTime": 1512574687916, "trialdata": {"rt": -1000, "stimulus": "/static/audio/wordpool/LAPEL.wav", "key_press": -1, "type": "PRES_AUD", "word": "lapel", "wordID": 799, "conditions": [24, 1600, "a", 12000], "trial": 3, "serialpos": 0, "trial_type": "single-audio", "trial_index": 129, "time_elapsed": 840662, "internal_node_id": "0.0-93.0"}}, {"uniqueid": "MTK0636:3KIBXJ1WD61RWBKZFCBX5GVWDKKOK1", "current_trial": 130, "dateTime": 1512574690675, "trialdata": {"rt": -1000, "stimulus": "/static/audio/wordpool/SPHINX.wav", "key_press": -1, "type": "PRES_AUD", "word": "sphinx", "wordID": 1348, "conditions": [24, 1600, "a", 12000], "trial": 3, "serialpos": 1, "trial_type": "single-audio", "trial_index": 130, "time_elapsed": 843421, "internal_node_id": "0.0-94.0"}}, {"uniqueid": "MTK0636:3KIBXJ1WD61RWBKZFCBX5GVWDKKOK1", "current_trial": 131, "dateTime": 1512574693480, "trialdata": {"rt": -1000, "stimulus": "/static/audio/wordpool/PIGEON.wav", "key_press": -1, "type": "PRES_AUD", "word": "pigeon", "wordID": 1064, "conditions": [24, 1600, "a", 12000], "trial": 3, "serialpos": 2, "trial_type": "single-audio", "trial_index": 131, "time_elapsed": 846227, "internal_node_id": "0.0-95.0"}}, {"uniqueid": "MTK0636:3KIBXJ1WD61RWBKZFCBX5GVWDKKOK1", "current_trial": 132, "dateTime": 1512574696165, "trialdata": {"rt": -1000, "stimulus": "/static/audio/wordpool/OINTMENT.wav", "key_press": -1, "type": "PRES_AUD", "word": "ointment", "wordID": 973, "conditions": [24, 1600, "a", 12000], "trial": 3, "serialpos": 3, "trial_type": "single-audio", "trial_index": 132, "time_elapsed": 848912, "internal_node_id": "0.0-96.0"}}, {"uniqueid": "MTK0636:3KIBXJ1WD61RWBKZFCBX5GVWDKKOK1", "current_trial": 133, "dateTime": 1512574698660, "trialdata": {"rt": -1000, "stimulus": "/static/audio/wordpool/PICTURE.wav", "key_press": -1, "type": "PRES_AUD", "word": "picture", "wordID": 1060, "conditions": [24, 1600, "a", 12000], "trial": 3, "serialpos": 4, "trial_type": "single-audio", "trial_index": 133, "time_elapsed": 851407, "internal_node_id": "0.0-97.0"}}, {"uniqueid": "MTK0636:3KIBXJ1WD61RWBKZFCBX5GVWDKKOK1", "current_trial": 134, "dateTime": 1512574701396, "trialdata": {"rt": -1000, "stimulus": "/static/audio/wordpool/BURGLAR.wav", "key_press": -1, "type": "PRES_AUD", "word": "burglar", "wordID": 199, "conditions": [24, 1600, "a", 12000], "trial": 3, "serialpos": 5, "trial_type": "single-audio", "trial_index": 134, "time_elapsed": 854143, "internal_node_id": "0.0-98.0"}}, {"uniqueid": "MTK0636:3KIBXJ1WD61RWBKZFCBX5GVWDKKOK1", "current_trial": 135, "dateTime": 1512574703931, "trialdata": {"rt": -1000, "stimulus": "/static/audio/wordpool/THIEF.wav", "key_press": -1, "type": "PRES_AUD", "word": "thief", "wordID": 1455, "conditions": [24, 1600, "a", 12000], "trial": 3, "serialpos": 6, "trial_type": "single-audio", "trial_index": 135, "time_elapsed": 856678, "internal_node_id": "0.0-99.0"}}, {"uniqueid": "MTK0636:3KIBXJ1WD61RWBKZFCBX5GVWDKKOK1", "current_trial": 136, "dateTime": 1512574706696, "trialdata": {"rt": -1000, "stimulus": "/static/audio/wordpool/PORTRAIT.wav", "key_press": -1, "type": "PRES_AUD", "word": "portrait", "wordID": 1110, "conditions": [24, 1600, "a", 12000], "trial": 3, "serialpos": 7, "trial_type": "single-audio", "trial_index": 136, "time_elapsed": 859443, "internal_node_id": "0.0-100.0"}}, {"uniqueid": "MTK0636:3KIBXJ1WD61RWBKZFCBX5GVWDKKOK1", "current_trial": 137, "dateTime": 1512574709477, "trialdata": {"rt": -1000, "stimulus": "/static/audio/wordpool/DASHBOARD.wav", "key_press": -1, "type": "PRES_AUD", "word": "dashboard", "wordID": 440, "conditions": [24, 1600, "a", 12000], "trial": 3, "serialpos": 8, "trial_type": "single-audio", "trial_index": 137, "time_elapsed": 862224, "internal_node_id": "0.0-101.0"}}, {"uniqueid": "MTK0636:3KIBXJ1WD61RWBKZFCBX5GVWDKKOK1", "current_trial": 138, "dateTime": 1512574712141, "trialdata": {"rt": -1000, "stimulus": "/static/audio/wordpool/TOURIST.wav", "key_press": -1, "type": "PRES_AUD", "word": "tourist", "wordID": 1487, "conditions": [24, 1600, "a", 12000], "trial": 3, "serialpos": 9, "trial_type": "single-audio", "trial_index": 138, "time_elapsed": 864887, "internal_node_id": "0.0-102.0"}}, {"uniqueid": "MTK0636:3KIBXJ1WD61RWBKZFCBX5GVWDKKOK1", "current_trial": 139, "dateTime": 1512574714613, "trialdata": {"rt": -1000, "stimulus": "/static/audio/wordpool/SCARECROW.wav", "key_press": -1, "type": "PRES_AUD", "word": "scarecrow", "wordID": 1244, "conditions": [24, 1600, "a", 12000], "trial": 3, "serialpos": 10, "trial_type": "single-audio", "trial_index": 139, "time_elapsed": 867360, "internal_node_id": "0.0-103.0"}}, {"uniqueid": "MTK0636:3KIBXJ1WD61RWBKZFCBX5GVWDKKOK1", "current_trial": 140, "dateTime": 1512574717147, "trialdata": {"rt": -1000, "stimulus": "/static/audio/wordpool/HIKER.wav", "key_press": -1, "type": "PRES_AUD", "word": "hiker", "wordID": 707, "conditions": [24, 1600, "a", 12000], "trial": 3, "serialpos": 11, "trial_type": "single-audio", "trial_index": 140, "time_elapsed": 869894, "internal_node_id": "0.0-104.0"}}, {"uniqueid": "MTK0636:3KIBXJ1WD61RWBKZFCBX5GVWDKKOK1", "current_trial": 141, "dateTime": 1512574719601, "trialdata": {"rt": -1000, "stimulus": "/static/audio/wordpool/SHARK.wav", "key_press": -1, "type": "PRES_AUD", "word": "shark", "wordID": 1274, "conditions": [24, 1600, "a", 12000], "trial": 3, "serialpos": 12, "trial_type": "single-audio", "trial_index": 141, "time_elapsed": 872348, "internal_node_id": "0.0-105.0"}}, {"uniqueid": "MTK0636:3KIBXJ1WD61RWBKZFCBX5GVWDKKOK1", "current_trial": 142, "dateTime": 1512574722057, "trialdata": {"rt": -1000, "stimulus": "/static/audio/wordpool/ARM.wav", "key_press": -1, "type": "PRES_AUD", "word": "arm", "wordID": 37, "conditions": [24, 1600, "a", 12000], "trial": 3, "serialpos": 13, "trial_type": "single-audio", "trial_index": 142, "time_elapsed": 874804, "internal_node_id": "0.0-106.0"}}, {"uniqueid": "MTK0636:3KIBXJ1WD61RWBKZFCBX5GVWDKKOK1", "current_trial": 143, "dateTime": 1512574724769, "trialdata": {"rt": -1000, "stimulus": "/static/audio/wordpool/SEAGULL.wav", "key_press": -1, "type": "PRES_AUD", "word": "seagull", "wordID": 1260, "conditions": [24, 1600, "a", 12000], "trial": 3, "serialpos": 14, "trial_type": "single-audio", "trial_index": 143, "time_elapsed": 877516, "internal_node_id": "0.0-107.0"}}, {"uniqueid": "MTK0636:3KIBXJ1WD61RWBKZFCBX5GVWDKKOK1", "current_trial": 144, "dateTime": 1512574727212, "trialdata": {"rt": -1000, "stimulus": "/static/audio/wordpool/RECEIPT.wav", "key_press": -1, "type": "PRES_AUD", "word": "receipt", "wordID": 1172, "conditions": [24, 1600, "a", 12000], "trial": 3, "serialpos": 15, "trial_type": "single-audio", "trial_index": 144, "time_elapsed": 879959, "internal_node_id": "0.0-108.0"}}, {"uniqueid": "MTK0636:3KIBXJ1WD61RWBKZFCBX5GVWDKKOK1", "current_trial": 145, "dateTime": 1512574729875, "trialdata": {"rt": -1000, "stimulus": "/static/audio/wordpool/NIGHTGOWN.wav", "key_press": -1, "type": "PRES_AUD", "word": "nightgown", "wordID": 952, "conditions": [24, 1600, "a", 12000], "trial": 3, "serialpos": 16, "trial_type": "single-audio", "trial_index": 145, "time_elapsed": 882622, "internal_node_id": "0.0-109.0"}}, {"uniqueid": "MTK0636:3KIBXJ1WD61RWBKZFCBX5GVWDKKOK1", "current_trial": 146, "dateTime": 1512574732624, "trialdata": {"rt": -1000, "stimulus": "/static/audio/wordpool/CHIPMUNK.wav", "key_press": -1, "type": "PRES_AUD", "word": "chipmunk", "wordID": 303, "conditions": [24, 1600, "a", 12000], "trial": 3, "serialpos": 17, "trial_type": "single-audio", "trial_index": 146, "time_elapsed": 885371, "internal_node_id": "0.0-110.0"}}, {"uniqueid": "MTK0636:3KIBXJ1WD61RWBKZFCBX5GVWDKKOK1", "current_trial": 147, "dateTime": 1512574735030, "trialdata": {"rt": -1000, "stimulus": "/static/audio/wordpool/BLOUSE.wav", "key_press": -1, "type": "PRES_AUD", "word": "blouse", "wordID": 138, "conditions": [24, 1600, "a", 12000], "trial": 3, "serialpos": 18, "trial_type": "single-audio", "trial_index": 147, "time_elapsed": 887777, "internal_node_id": "0.0-111.0"}}, {"uniqueid": "MTK0636:3KIBXJ1WD61RWBKZFCBX5GVWDKKOK1", "current_trial": 148, "dateTime": 1512574737477, "trialdata": {"rt": -1000, "stimulus": "/static/audio/wordpool/TUTU.wav", "key_press": -1, "type": "PRES_AUD", "word": "tutu", "wordID": 1523, "conditions": [24, 1600, "a", 12000], "trial": 3, "serialpos": 19, "trial_type": "single-audio", "trial_index": 148, "time_elapsed": 890224, "internal_node_id": "0.0-112.0"}}, {"uniqueid": "MTK0636:3KIBXJ1WD61RWBKZFCBX5GVWDKKOK1", "current_trial": 149, "dateTime": 1512574740183, "trialdata": {"rt": -1000, "stimulus": "/static/audio/wordpool/PIMPLE.wav", "key_press": -1, "type": "PRES_AUD", "word": "pimple", "wordID": 1070, "conditions": [24, 1600, "a", 12000], "trial": 3, "serialpos": 20, "trial_type": "single-audio", "trial_index": 149, "time_elapsed": 892930, "internal_node_id": "0.0-113.0"}}, {"uniqueid": "MTK0636:3KIBXJ1WD61RWBKZFCBX5GVWDKKOK1", "current_trial": 150, "dateTime": 1512574742636, "trialdata": {"rt": -1000, "stimulus": "/static/audio/wordpool/FRECKLE.wav", "key_press": -1, "type": "PRES_AUD", "word": "freckle", "wordID": 601, "conditions": [24, 1600, "a", 12000], "trial": 3, "serialpos": 21, "trial_type": "single-audio", "trial_index": 150, "time_elapsed": 895382, "internal_node_id": "0.0-114.0"}}, {"uniqueid": "MTK0636:3KIBXJ1WD61RWBKZFCBX5GVWDKKOK1", "current_trial": 151, "dateTime": 1512574745192, "trialdata": {"rt": -1000, "stimulus": "/static/audio/wordpool/MATTRESS.wav", "key_press": -1, "type": "PRES_AUD", "word": "mattress", "wordID": 878, "conditions": [24, 1600, "a", 12000], "trial": 3, "serialpos": 22, "trial_type": "single-audio", "trial_index": 151, "time_elapsed": 897939, "internal_node_id": "0.0-115.0"}}, {"uniqueid": "MTK0636:3KIBXJ1WD61RWBKZFCBX5GVWDKKOK1", "current_trial": 152, "dateTime": 1512574747896, "trialdata": {"rt": -1000, "stimulus": "/static/audio/wordpool/LACE.wav", "key_press": -1, "type": "PRES_AUD", "word": "lace", "wordID": 791, "conditions": [24, 1600, "a", 12000], "trial": 3, "serialpos": 23, "trial_type": "single-audio", "trial_index": 152, "time_elapsed": 900643, "internal_node_id": "0.0-116.0"}}, {"uniqueid": "MTK0636:3KIBXJ1WD61RWBKZFCBX5GVWDKKOK1", "current_trial": 153, "dateTime": 1512574749176, "trialdata": {"rt": -1, "stimulus": "", "key_press": -1, "type": "PRE_RECALL_DELAY", "trial_type": "single-stim", "trial_index": 153, "time_elapsed": 901922, "internal_node_id": "0.0-117.0-0.0"}}, {"uniqueid": "MTK0636:3KIBXJ1WD61RWBKZFCBX5GVWDKKOK1", "current_trial": 154, "dateTime": 1512574749680, "trialdata": {"rt": -1000, "stimulus": "/static/audio/400Hz.wav", "key_press": -1, "type": "PRE_RECALL_ALERT", "trial_type": "single-audio", "trial_index": 154, "time_elapsed": 902427, "internal_node_id": "0.0-118.0"}}, {"uniqueid": "MTK0636:3KIBXJ1WD61RWBKZFCBX5GVWDKKOK1", "current_trial": 155, "dateTime": 1512574809712, "trialdata": {"rt": [6572, 8636, 11880, 14303, 17281, 20563, 25034, 28397], "recwords": ["matress", "lace", "picture", "pimple", "freckle", "sphinx", "tutu", "picture"], "type": "FREE_RECALL", "conditions": [24, 1600, "a", 12000], "trial": 3, "trial_type": "free-recall", "trial_index": 155, "time_elapsed": 962440, "internal_node_id": "0.0-119.0-0.0"}}, {"uniqueid": "MTK0636:3KIBXJ1WD61RWBKZFCBX5GVWDKKOK1", "current_trial": 156, "dateTime": 1512574816546, "trialdata": {"rt": 4831, "key_press": 32, "type": "INSTRUCTIONS", "trial_type": "text", "trial_index": 156, "time_elapsed": 969292, "internal_node_id": "0.0-120.0"}}, {"uniqueid": "MTK0636:3KIBXJ1WD61RWBKZFCBX5GVWDKKOK1", "current_trial": 157, "dateTime": 1512574830568, "trialdata": {"rt": [4402, 6897, 11118], "responses": ["11", "11", "17"], "num1": [3, 7, 9, 4], "num2": [5, 2, 4, 6], "num3": [3, 2, 4, 1], "type": "DISTRACTOR", "conditions": [12, 800, "a", 12000], "trial": 4, "trial_type": "math-distractor", "trial_index": 157, "time_elapsed": 983315, "internal_node_id": "0.0-121.0"}}, {"uniqueid": "MTK0636:3KIBXJ1WD61RWBKZFCBX5GVWDKKOK1", "current_trial": 158, "dateTime": 1512574833578, "trialdata": {"rt": -1, "stimulus": "<p id=\"stim\">10</p>", "key_press": -1, "trial_type": "single-stim", "trial_index": 158, "time_elapsed": 986324, "internal_node_id": "0.0-122.0-0.0"}}, {"uniqueid": "MTK0636:3KIBXJ1WD61RWBKZFCBX5GVWDKKOK1", "current_trial": 159, "dateTime": 1512574834583, "trialdata": {"rt": -1, "stimulus": "<p id=\"stim\">9</p>", "key_press": -1, "trial_type": "single-stim", "trial_index": 159, "time_elapsed": 987329, "internal_node_id": "0.0-122.0-1.0"}}, {"uniqueid": "MTK0636:3KIBXJ1WD61RWBKZFCBX5GVWDKKOK1", "current_trial": 160, "dateTime": 1512574835587, "trialdata": {"rt": -1, "stimulus": "<p id=\"stim\">8</p>", "key_press": -1, "trial_type": "single-stim", "trial_index": 160, "time_elapsed": 988334, "internal_node_id": "0.0-122.0-2.0"}}, {"uniqueid": "MTK0636:3KIBXJ1WD61RWBKZFCBX5GVWDKKOK1", "current_trial": 161, "dateTime": 1512574836594, "trialdata": {"rt": -1, "stimulus": "<p id=\"stim\">7</p>", "key_press": -1, "trial_type": "single-stim", "trial_index": 161, "time_elapsed": 989341, "internal_node_id": "0.0-122.0-3.0"}}, {"uniqueid": "MTK0636:3KIBXJ1WD61RWBKZFCBX5GVWDKKOK1", "current_trial": 162, "dateTime": 1512574837599, "trialdata": {"rt": -1, "stimulus": "<p id=\"stim\">6</p>", "key_press": -1, "trial_type": "single-stim", "trial_index": 162, "time_elapsed": 990346, "internal_node_id": "0.0-122.0-4.0"}}, {"uniqueid": "MTK0636:3KIBXJ1WD61RWBKZFCBX5GVWDKKOK1", "current_trial": 163, "dateTime": 1512574838604, "trialdata": {"rt": -1, "stimulus": "<p id=\"stim\">5</p>", "key_press": -1, "trial_type": "single-stim", "trial_index": 163, "time_elapsed": 991351, "internal_node_id": "0.0-122.0-5.0"}}, {"uniqueid": "MTK0636:3KIBXJ1WD61RWBKZFCBX5GVWDKKOK1", "current_trial": 164, "dateTime": 1512574839608, "trialdata": {"rt": -1, "stimulus": "<p id=\"stim\">4</p>", "key_press": -1, "trial_type": "single-stim", "trial_index": 164, "time_elapsed": 992355, "internal_node_id": "0.0-122.0-6.0"}}, {"uniqueid": "MTK0636:3KIBXJ1WD61RWBKZFCBX5GVWDKKOK1", "current_trial": 165, "dateTime": 1512574840613, "trialdata": {"rt": -1, "stimulus": "<p id=\"stim\">3</p>", "key_press": -1, "trial_type": "single-stim", "trial_index": 165, "time_elapsed": 993360, "internal_node_id": "0.0-122.0-7.0"}}, {"uniqueid": "MTK0636:3KIBXJ1WD61RWBKZFCBX5GVWDKKOK1", "current_trial": 166, "dateTime": 1512574841618, "trialdata": {"rt": -1, "stimulus": "<p id=\"stim\">2</p>", "key_press": -1, "trial_type": "single-stim", "trial_index": 166, "time_elapsed": 994365, "internal_node_id": "0.0-122.0-8.0"}}, {"uniqueid": "MTK0636:3KIBXJ1WD61RWBKZFCBX5GVWDKKOK1", "current_trial": 167, "dateTime": 1512574842626, "trialdata": {"rt": -1, "stimulus": "<p id=\"stim\">1</p>", "key_press": -1, "trial_type": "single-stim", "trial_index": 167, "time_elapsed": 995373, "internal_node_id": "0.0-122.0-9.0"}}, {"uniqueid": "MTK0636:3KIBXJ1WD61RWBKZFCBX5GVWDKKOK1", "current_trial": 168, "dateTime": 1512574844131, "trialdata": {"rt": -1, "stimulus": "<p id=\"stim\">+</p>", "key_press": -1, "type": "FIXATION", "trial_type": "single-stim", "trial_index": 168, "time_elapsed": 996878, "internal_node_id": "0.0-123.0-0.0"}}, {"uniqueid": "MTK0636:3KIBXJ1WD61RWBKZFCBX5GVWDKKOK1", "current_trial": 169, "dateTime": 1512574846030, "trialdata": {"rt": -1000, "stimulus": "/static/audio/wordpool/BEAST.wav", "key_press": -1, "type": "PRES_AUD", "word": "beast", "wordID": 107, "conditions": [12, 800, "a", 12000], "trial": 4, "serialpos": 0, "trial_type": "single-audio", "trial_index": 169, "time_elapsed": 998777, "internal_node_id": "0.0-124.0"}}, {"uniqueid": "MTK0636:3KIBXJ1WD61RWBKZFCBX5GVWDKKOK1", "current_trial": 170, "dateTime": 1512574847665, "trialdata": {"rt": -1000, "stimulus": "/static/audio/wordpool/HUMAN.wav", "key_press": -1, "type": "PRES_AUD", "word": "human", "wordID": 725, "conditions": [12, 800, "a", 12000], "trial": 4, "serialpos": 1, "trial_type": "single-audio", "trial_index": 170, "time_elapsed": 1000412, "internal_node_id": "0.0-125.0"}}, {"uniqueid": "MTK0636:3KIBXJ1WD61RWBKZFCBX5GVWDKKOK1", "current_trial": 171, "dateTime": 1512574849616, "trialdata": {"rt": -1000, "stimulus": "/static/audio/wordpool/EUROPE.wav", "key_press": -1, "type": "PRES_AUD", "word": "europe", "wordID": 540, "conditions": [12, 800, "a", 12000], "trial": 4, "serialpos": 2, "trial_type": "single-audio", "trial_index": 171, "time_elapsed": 1002363, "internal_node_id": "0.0-126.0"}}, {"uniqueid": "MTK0636:3KIBXJ1WD61RWBKZFCBX5GVWDKKOK1", "current_trial": 172, "dateTime": 1512574851496, "trialdata": {"rt": -1000, "stimulus": "/static/audio/wordpool/SLUG.wav", "key_press": -1, "type": "PRES_AUD", "word": "slug", "wordID": 1328, "conditions": [12, 800, "a", 12000], "trial": 4, "serialpos": 3, "trial_type": "single-audio", "trial_index": 172, "time_elapsed": 1004242, "internal_node_id": "0.0-127.0"}}, {"uniqueid": "MTK0636:3KIBXJ1WD61RWBKZFCBX5GVWDKKOK1", "current_trial": 173, "dateTime": 1512574853283, "trialdata": {"rt": -1000, "stimulus": "/static/audio/wordpool/WRIST.wav", "key_press": -1, "type": "PRES_AUD", "word": "wrist", "wordID": 1625, "conditions": [12, 800, "a", 12000], "trial": 4, "serialpos": 4, "trial_type": "single-audio", "trial_index": 173, "time_elapsed": 1006030, "internal_node_id": "0.0-128.0"}}, {"uniqueid": "MTK0636:3KIBXJ1WD61RWBKZFCBX5GVWDKKOK1", "current_trial": 174, "dateTime": 1512574855114, "trialdata": {"rt": -1000, "stimulus": "/static/audio/wordpool/BACKBONE.wav", "key_press": -1, "type": "PRES_AUD", "word": "backbone", "wordID": 65, "conditions": [12, 800, "a", 12000], "trial": 4, "serialpos": 5, "trial_type": "single-audio", "trial_index": 174, "time_elapsed": 1007861, "internal_node_id": "0.0-129.0"}}, {"uniqueid": "MTK0636:3KIBXJ1WD61RWBKZFCBX5GVWDKKOK1", "current_trial": 175, "dateTime": 1512574856923, "trialdata": {"rt": -1000, "stimulus": "/static/audio/wordpool/ROBOT.wav", "key_press": -1, "type": "PRES_AUD", "word": "robot", "wordID": 1199, "conditions": [12, 800, "a", 12000], "trial": 4, "serialpos": 6, "trial_type": "single-audio", "trial_index": 175, "time_elapsed": 1009669, "internal_node_id": "0.0-130.0"}}, {"uniqueid": "MTK0636:3KIBXJ1WD61RWBKZFCBX5GVWDKKOK1", "current_trial": 176, "dateTime": 1512574858614, "trialdata": {"rt": -1000, "stimulus": "/static/audio/wordpool/FIREPLACE.wav", "key_press": -1, "type": "PRES_AUD", "word": "fireplace", "wordID": 569, "conditions": [12, 800, "a", 12000], "trial": 4, "serialpos": 7, "trial_type": "single-audio", "trial_index": 176, "time_elapsed": 1011361, "internal_node_id": "0.0-131.0"}}, {"uniqueid": "MTK0636:3KIBXJ1WD61RWBKZFCBX5GVWDKKOK1", "current_trial": 177, "dateTime": 1512574860347, "trialdata": {"rt": -1000, "stimulus": "/static/audio/wordpool/ROOSTER.wav", "key_press": -1, "type": "PRES_AUD", "word": "rooster", "wordID": 1208, "conditions": [12, 800, "a", 12000], "trial": 4, "serialpos": 8, "trial_type": "single-audio", "trial_index": 177, "time_elapsed": 1013094, "internal_node_id": "0.0-132.0"}}, {"uniqueid": "MTK0636:3KIBXJ1WD61RWBKZFCBX5GVWDKKOK1", "current_trial": 178, "dateTime": 1512574862095, "trialdata": {"rt": -1000, "stimulus": "/static/audio/wordpool/FOX.wav", "key_press": -1, "type": "PRES_AUD", "word": "fox", "wordID": 597, "conditions": [12, 800, "a", 12000], "trial": 4, "serialpos": 9, "trial_type": "single-audio", "trial_index": 178, "time_elapsed": 1014842, "internal_node_id": "0.0-133.0"}}, {"uniqueid": "MTK0636:3KIBXJ1WD61RWBKZFCBX5GVWDKKOK1", "current_trial": 179, "dateTime": 1512574864060, "trialdata": {"rt": -1000, "stimulus": "/static/audio/wordpool/PEANUT.wav", "key_press": -1, "type": "PRES_AUD", "word": "peanut", "wordID": 1031, "conditions": [12, 800, "a", 12000], "trial": 4, "serialpos": 10, "trial_type": "single-audio", "trial_index": 179, "time_elapsed": 1016806, "internal_node_id": "0.0-134.0"}}, {"uniqueid": "MTK0636:3KIBXJ1WD61RWBKZFCBX5GVWDKKOK1", "current_trial": 180, "dateTime": 1512574866028, "trialdata": {"rt": -1000, "stimulus": "/static/audio/wordpool/ASIA.wav", "key_press": -1, "type": "PRES_AUD", "word": "asia", "wordID": 45, "conditions": [12, 800, "a", 12000], "trial": 4, "serialpos": 11, "trial_type": "single-audio", "trial_index": 180, "time_elapsed": 1018775, "internal_node_id": "0.0-135.0"}}, {"uniqueid": "MTK0636:3KIBXJ1WD61RWBKZFCBX5GVWDKKOK1", "current_trial": 181, "dateTime": 1512574867395, "trialdata": {"rt": -1, "stimulus": "", "key_press": -1, "type": "PRE_RECALL_DELAY", "trial_type": "single-stim", "trial_index": 181, "time_elapsed": 1020141, "internal_node_id": "0.0-136.0-0.0"}}, {"uniqueid": "MTK0636:3KIBXJ1WD61RWBKZFCBX5GVWDKKOK1", "current_trial": 182, "dateTime": 1512574867900, "trialdata": {"rt": -1000, "stimulus": "/static/audio/400Hz.wav", "key_press": -1, "type": "PRE_RECALL_ALERT", "trial_type": "single-audio", "trial_index": 182, "time_elapsed": 1020647, "internal_node_id": "0.0-137.0"}}, {"uniqueid": "MTK0636:3KIBXJ1WD61RWBKZFCBX5GVWDKKOK1", "current_trial": 183, "dateTime": 1512574927931, "trialdata": {"rt": [3940, 7754, 9511, 13966, 19146], "recwords": ["beast", "human", "fox", "europe", "asia"], "type": "FREE_RECALL", "conditions": [12, 800, "a", 12000], "trial": 4, "trial_type": "free-recall", "trial_index": 183, "time_elapsed": 1080659, "internal_node_id": "0.0-138.0-0.0"}}, {"uniqueid": "MTK0636:3KIBXJ1WD61RWBKZFCBX5GVWDKKOK1", "current_trial": 184, "dateTime": 1512574938123, "trialdata": {"rt": 8189, "key_press": 32, "type": "INSTRUCTIONS", "trial_type": "text", "trial_index": 184, "time_elapsed": 1090869, "internal_node_id": "0.0-139.0"}}, {"uniqueid": "MTK0636:3KIBXJ1WD61RWBKZFCBX5GVWDKKOK1", "current_trial": 185, "dateTime": 1512574964141, "trialdata": {"rt": [3583, 7127, 9636, 12854, 15583, 18398, 21063, 23532], "responses": ["19", "23", "13", "19", "22", "19", "19", "23"], "num1": [3, 8, 5, 5, 8, 7, 9, 8, 4], "num2": [8, 8, 6, 7, 7, 8, 8, 8, 1], "num3": [8, 7, 2, 7, 7, 4, 2, 7, 2], "type": "DISTRACTOR", "conditions": [24, 1600, "a", 24000], "trial": 5, "trial_type": "math-distractor", "trial_index": 185, "time_elapsed": 1116888, "internal_node_id": "0.0-140.0"}}, {"uniqueid": "MTK0636:3KIBXJ1WD61RWBKZFCBX5GVWDKKOK1", "current_trial": 186, "dateTime": 1512574967149, "trialdata": {"rt": -1, "stimulus": "<p id=\"stim\">10</p>", "key_press": -1, "trial_type": "single-stim", "trial_index": 186, "time_elapsed": 1119895, "internal_node_id": "0.0-141.0-0.0"}}, {"uniqueid": "MTK0636:3KIBXJ1WD61RWBKZFCBX5GVWDKKOK1", "current_trial": 187, "dateTime": 1512574968156, "trialdata": {"rt": -1, "stimulus": "<p id=\"stim\">9</p>", "key_press": -1, "trial_type": "single-stim", "trial_index": 187, "time_elapsed": 1120902, "internal_node_id": "0.0-141.0-1.0"}}, {"uniqueid": "MTK0636:3KIBXJ1WD61RWBKZFCBX5GVWDKKOK1", "current_trial": 188, "dateTime": 1512574969162, "trialdata": {"rt": -1, "stimulus": "<p id=\"stim\">8</p>", "key_press": -1, "trial_type": "single-stim", "trial_index": 188, "time_elapsed": 1121908, "internal_node_id": "0.0-141.0-2.0"}}, {"uniqueid": "MTK0636:3KIBXJ1WD61RWBKZFCBX5GVWDKKOK1", "current_trial": 189, "dateTime": 1512574970169, "trialdata": {"rt": -1, "stimulus": "<p id=\"stim\">7</p>", "key_press": -1, "trial_type": "single-stim", "trial_index": 189, "time_elapsed": 1122913, "internal_node_id": "0.0-141.0-3.0"}}, {"uniqueid": "MTK0636:3KIBXJ1WD61RWBKZFCBX5GVWDKKOK1", "current_trial": 190, "dateTime": 1512574971175, "trialdata": {"rt": -1, "stimulus": "<p id=\"stim\">6</p>", "key_press": -1, "trial_type": "single-stim", "trial_index": 190, "time_elapsed": 1123921, "internal_node_id": "0.0-141.0-4.0"}}, {"uniqueid": "MTK0636:3KIBXJ1WD61RWBKZFCBX5GVWDKKOK1", "current_trial": 191, "dateTime": 1512574972180, "trialdata": {"rt": -1, "stimulus": "<p id=\"stim\">5</p>", "key_press": -1, "trial_type": "single-stim", "trial_index": 191, "time_elapsed": 1124926, "internal_node_id": "0.0-141.0-5.0"}}, {"uniqueid": "MTK0636:3KIBXJ1WD61RWBKZFCBX5GVWDKKOK1", "current_trial": 192, "dateTime": 1512574973186, "trialdata": {"rt": -1, "stimulus": "<p id=\"stim\">4</p>", "key_press": -1, "trial_type": "single-stim", "trial_index": 192, "time_elapsed": 1125932, "internal_node_id": "0.0-141.0-6.0"}}, {"uniqueid": "MTK0636:3KIBXJ1WD61RWBKZFCBX5GVWDKKOK1", "current_trial": 193, "dateTime": 1512574974192, "trialdata": {"rt": -1, "stimulus": "<p id=\"stim\">3</p>", "key_press": -1, "trial_type": "single-stim", "trial_index": 193, "time_elapsed": 1126938, "internal_node_id": "0.0-141.0-7.0"}}, {"uniqueid": "MTK0636:3KIBXJ1WD61RWBKZFCBX5GVWDKKOK1", "current_trial": 194, "dateTime": 1512574975198, "trialdata": {"rt": -1, "stimulus": "<p id=\"stim\">2</p>", "key_press": -1, "trial_type": "single-stim", "trial_index": 194, "time_elapsed": 1127944, "internal_node_id": "0.0-141.0-8.0"}}, {"uniqueid": "MTK0636:3KIBXJ1WD61RWBKZFCBX5GVWDKKOK1", "current_trial": 195, "dateTime": 1512574976204, "trialdata": {"rt": -1, "stimulus": "<p id=\"stim\">1</p>", "key_press": -1, "trial_type": "single-stim", "trial_index": 195, "time_elapsed": 1128950, "internal_node_id": "0.0-141.0-9.0"}}, {"uniqueid": "MTK0636:3KIBXJ1WD61RWBKZFCBX5GVWDKKOK1", "current_trial": 196, "dateTime": 1512574977709, "trialdata": {"rt": -1, "stimulus": "<p id=\"stim\">+</p>", "key_press": -1, "type": "FIXATION", "trial_type": "single-stim", "trial_index": 196, "time_elapsed": 1130455, "internal_node_id": "0.0-142.0-0.0"}}, {"uniqueid": "MTK0636:3KIBXJ1WD61RWBKZFCBX5GVWDKKOK1", "current_trial": 197, "dateTime": 1512574980374, "trialdata": {"rt": -1000, "stimulus": "/static/audio/wordpool/EYELASH.wav", "key_press": -1, "type": "PRES_AUD", "word": "eyelash", "wordID": 545, "conditions": [24, 1600, "a", 24000], "trial": 5, "serialpos": 0, "trial_type": "single-audio", "trial_index": 197, "time_elapsed": 1133112, "internal_node_id": "0.0-143.0"}}, {"uniqueid": "MTK0636:3KIBXJ1WD61RWBKZFCBX5GVWDKKOK1", "current_trial": 198, "dateTime": 1512574982948, "trialdata": {"rt": -1000, "stimulus": "/static/audio/wordpool/COTTAGE.wav", "key_press": -1, "type": "PRES_AUD", "word": "cottage", "wordID": 383, "conditions": [24, 1600, "a", 24000], "trial": 5, "serialpos": 1, "trial_type": "single-audio", "trial_index": 198, "time_elapsed": 1135695, "internal_node_id": "0.0-144.0"}}, {"uniqueid": "MTK0636:3KIBXJ1WD61RWBKZFCBX5GVWDKKOK1", "current_trial": 199, "dateTime": 1512574985558, "trialdata": {"rt": -1000, "stimulus": "/static/audio/wordpool/HUSBAND.wav", "key_press": -1, "type": "PRES_AUD", "word": "husband", "wordID": 727, "conditions": [24, 1600, "a", 24000], "trial": 5, "serialpos": 2, "trial_type": "single-audio", "trial_index": 199, "time_elapsed": 1138305, "internal_node_id": "0.0-145.0"}}, {"uniqueid": "MTK0636:3KIBXJ1WD61RWBKZFCBX5GVWDKKOK1", "current_trial": 200, "dateTime": 1512574988105, "trialdata": {"rt": -1000, "stimulus": "/static/audio/wordpool/WINDOW.wav", "key_press": -1, "type": "PRES_AUD", "word": "window", "wordID": 1610, "conditions": [24, 1600, "a", 24000], "trial": 5, "serialpos": 3, "trial_type": "single-audio", "trial_index": 200, "time_elapsed": 1140852, "internal_node_id": "0.0-146.0"}}, {"uniqueid": "MTK0636:3KIBXJ1WD61RWBKZFCBX5GVWDKKOK1", "current_trial": 201, "dateTime": 1512574990575, "trialdata": {"rt": -1000, "stimulus": "/static/audio/wordpool/CUPBOARD.wav", "key_press": -1, "type": "PRES_AUD", "word": "cupboard", "wordID": 424, "conditions": [24, 1600, "a", 24000], "trial": 5, "serialpos": 4, "trial_type": "single-audio", "trial_index": 201, "time_elapsed": 1143322, "internal_node_id": "0.0-147.0"}}, {"uniqueid": "MTK0636:3KIBXJ1WD61RWBKZFCBX5GVWDKKOK1", "current_trial": 202, "dateTime": 1512574993097, "trialdata": {"rt": -1000, "stimulus": "/static/audio/wordpool/PERMIT.wav", "key_press": -1, "type": "PRES_AUD", "word": "permit", "wordID": 1050, "conditions": [24, 1600, "a", 24000], "trial": 5, "serialpos": 5, "trial_type": "single-audio", "trial_index": 202, "time_elapsed": 1145843, "internal_node_id": "0.0-148.0"}}, {"uniqueid": "MTK0636:3KIBXJ1WD61RWBKZFCBX5GVWDKKOK1", "current_trial": 203, "dateTime": 1512574995883, "trialdata": {"rt": -1000, "stimulus": "/static/audio/wordpool/PUPPY.wav", "key_press": -1, "type": "PRES_AUD", "word": "puppy", "wordID": 1143, "conditions": [24, 1600, "a", 24000], "trial": 5, "serialpos": 6, "trial_type": "single-audio", "trial_index": 203, "time_elapsed": 1148629, "internal_node_id": "0.0-149.0"}}, {"uniqueid": "MTK0636:3KIBXJ1WD61RWBKZFCBX5GVWDKKOK1", "current_trial": 204, "dateTime": 1512574998512, "trialdata": {"rt": -1000, "stimulus": "/static/audio/wordpool/MILK.wav", "key_press": -1, "type": "PRES_AUD", "word": "milk", "wordID": 894, "conditions": [24, 1600, "a", 24000], "trial": 5, "serialpos": 7, "trial_type": "single-audio", "trial_index": 204, "time_elapsed": 1151259, "internal_node_id": "0.0-150.0"}}, {"uniqueid": "MTK0636:3KIBXJ1WD61RWBKZFCBX5GVWDKKOK1", "current_trial": 205, "dateTime": 1512575001055, "trialdata": {"rt": -1000, "stimulus": "/static/audio/wordpool/ICEBERG.wav", "key_press": -1, "type": "PRES_AUD", "word": "iceberg", "wordID": 730, "conditions": [24, 1600, "a", 24000], "trial": 5, "serialpos": 8, "trial_type": "single-audio", "trial_index": 205, "time_elapsed": 1153802, "internal_node_id": "0.0-151.0"}}, {"uniqueid": "MTK0636:3KIBXJ1WD61RWBKZFCBX5GVWDKKOK1", "current_trial": 206, "dateTime": 1512575003620, "trialdata": {"rt": -1000, "stimulus": "/static/audio/wordpool/LOVER.wav", "key_press": -1, "type": "PRES_AUD", "word": "lover", "wordID": 845, "conditions": [24, 1600, "a", 24000], "trial": 5, "serialpos": 9, "trial_type": "single-audio", "trial_index": 206, "time_elapsed": 1156367, "internal_node_id": "0.0-152.0"}}, {"uniqueid": "MTK0636:3KIBXJ1WD61RWBKZFCBX5GVWDKKOK1", "current_trial": 207, "dateTime": 1512575006347, "trialdata": {"rt": -1000, "stimulus": "/static/audio/wordpool/FRAGRANCE.wav", "key_press": -1, "type": "PRES_AUD", "word": "fragrance", "wordID": 598, "conditions": [24, 1600, "a", 24000], "trial": 5, "serialpos": 10, "trial_type": "single-audio", "trial_index": 207, "time_elapsed": 1159093, "internal_node_id": "0.0-153.0"}}, {"uniqueid": "MTK0636:3KIBXJ1WD61RWBKZFCBX5GVWDKKOK1", "current_trial": 208, "dateTime": 1512575008997, "trialdata": {"rt": -1000, "stimulus": "/static/audio/wordpool/PERFUME.wav", "key_press": -1, "type": "PRES_AUD", "word": "perfume", "wordID": 1048, "conditions": [24, 1600, "a", 24000], "trial": 5, "serialpos": 11, "trial_type": "single-audio", "trial_index": 208, "time_elapsed": 1161743, "internal_node_id": "0.0-154.0"}}, {"uniqueid": "MTK0636:3KIBXJ1WD61RWBKZFCBX5GVWDKKOK1", "current_trial": 209, "dateTime": 1512575011591, "trialdata": {"rt": -1000, "stimulus": "/static/audio/wordpool/SHORTS.wav", "key_press": -1, "type": "PRES_AUD", "word": "shorts", "wordID": 1292, "conditions": [24, 1600, "a", 24000], "trial": 5, "serialpos": 12, "trial_type": "single-audio", "trial_index": 209, "time_elapsed": 1164337, "internal_node_id": "0.0-155.0"}}, {"uniqueid": "MTK0636:3KIBXJ1WD61RWBKZFCBX5GVWDKKOK1", "current_trial": 210, "dateTime": 1512575014173, "trialdata": {"rt": -1000, "stimulus": "/static/audio/wordpool/TILE.wav", "key_press": -1, "type": "PRES_AUD", "word": "tile", "wordID": 1467, "conditions": [24, 1600, "a", 24000], "trial": 5, "serialpos": 13, "trial_type": "single-audio", "trial_index": 210, "time_elapsed": 1166920, "internal_node_id": "0.0-156.0"}}, {"uniqueid": "MTK0636:3KIBXJ1WD61RWBKZFCBX5GVWDKKOK1", "current_trial": 211, "dateTime": 1512575016796, "trialdata": {"rt": -1000, "stimulus": "/static/audio/wordpool/NECKLACE.wav", "key_press": -1, "type": "PRES_AUD", "word": "necklace", "wordID": 939, "conditions": [24, 1600, "a", 24000], "trial": 5, "serialpos": 14, "trial_type": "single-audio", "trial_index": 211, "time_elapsed": 1169543, "internal_node_id": "0.0-157.0"}}, {"uniqueid": "MTK0636:3KIBXJ1WD61RWBKZFCBX5GVWDKKOK1", "current_trial": 212, "dateTime": 1512575019536, "trialdata": {"rt": -1000, "stimulus": "/static/audio/wordpool/BELLY.wav", "key_press": -1, "type": "PRES_AUD", "word": "belly", "wordID": 118, "conditions": [24, 1600, "a", 24000], "trial": 5, "serialpos": 15, "trial_type": "single-audio", "trial_index": 212, "time_elapsed": 1172282, "internal_node_id": "0.0-158.0"}}, {"uniqueid": "MTK0636:3KIBXJ1WD61RWBKZFCBX5GVWDKKOK1", "current_trial": 213, "dateTime": 1512575022072, "trialdata": {"rt": -1000, "stimulus": "/static/audio/wordpool/POWDER.wav", "key_press": -1, "type": "PRES_AUD", "word": "powder", "wordID": 1116, "conditions": [24, 1600, "a", 24000], "trial": 5, "serialpos": 16, "trial_type": "single-audio", "trial_index": 213, "time_elapsed": 1174819, "internal_node_id": "0.0-159.0"}}, {"uniqueid": "MTK0636:3KIBXJ1WD61RWBKZFCBX5GVWDKKOK1", "current_trial": 214, "dateTime": 1512575024621, "trialdata": {"rt": -1000, "stimulus": "/static/audio/wordpool/PEPPER.wav", "key_press": -1, "type": "PRES_AUD", "word": "pepper", "wordID": 1046, "conditions": [24, 1600, "a", 24000], "trial": 5, "serialpos": 17, "trial_type": "single-audio", "trial_index": 214, "time_elapsed": 1177368, "internal_node_id": "0.0-160.0"}}, {"uniqueid": "MTK0636:3KIBXJ1WD61RWBKZFCBX5GVWDKKOK1", "current_trial": 215, "dateTime": 1512575027108, "trialdata": {"rt": -1000, "stimulus": "/static/audio/wordpool/RACKET.wav", "key_press": -1, "type": "PRES_AUD", "word": "racket", "wordID": 1154, "conditions": [24, 1600, "a", 24000], "trial": 5, "serialpos": 18, "trial_type": "single-audio", "trial_index": 215, "time_elapsed": 1179854, "internal_node_id": "0.0-161.0"}}, {"uniqueid": "MTK0636:3KIBXJ1WD61RWBKZFCBX5GVWDKKOK1", "current_trial": 216, "dateTime": 1512575029771, "trialdata": {"rt": -1000, "stimulus": "/static/audio/wordpool/BRICK.wav", "key_press": -1, "type": "PRES_AUD", "word": "brick", "wordID": 171, "conditions": [24, 1600, "a", 24000], "trial": 5, "serialpos": 19, "trial_type": "single-audio", "trial_index": 216, "time_elapsed": 1182517, "internal_node_id": "0.0-162.0"}}, {"uniqueid": "MTK0636:3KIBXJ1WD61RWBKZFCBX5GVWDKKOK1", "current_trial": 217, "dateTime": 1512575032376, "trialdata": {"rt": -1000, "stimulus": "/static/audio/wordpool/DORM.wav", "key_press": -1, "type": "PRES_AUD", "word": "dorm", "wordID": 487, "conditions": [24, 1600, "a", 24000], "trial": 5, "serialpos": 20, "trial_type": "single-audio", "trial_index": 217, "time_elapsed": 1185122, "internal_node_id": "0.0-163.0"}}, {"uniqueid": "MTK0636:3KIBXJ1WD61RWBKZFCBX5GVWDKKOK1", "current_trial": 218, "dateTime": 1512575035162, "trialdata": {"rt": -1000, "stimulus": "/static/audio/wordpool/FLASHLIGHT.wav", "key_press": -1, "type": "PRES_AUD", "word": "flashlight", "wordID": 574, "conditions": [24, 1600, "a", 24000], "trial": 5, "serialpos": 21, "trial_type": "single-audio", "trial_index": 218, "time_elapsed": 1187909, "internal_node_id": "0.0-164.0"}}, {"uniqueid": "MTK0636:3KIBXJ1WD61RWBKZFCBX5GVWDKKOK1", "current_trial": 219, "dateTime": 1512575037645, "trialdata": {"rt": -1000, "stimulus": "/static/audio/wordpool/POPCORN.wav", "key_press": -1, "type": "PRES_AUD", "word": "popcorn", "wordID": 1103, "conditions": [24, 1600, "a", 24000], "trial": 5, "serialpos": 22, "trial_type": "single-audio", "trial_index": 219, "time_elapsed": 1190392, "internal_node_id": "0.0-165.0"}}, {"uniqueid": "MTK0636:3KIBXJ1WD61RWBKZFCBX5GVWDKKOK1", "current_trial": 220, "dateTime": 1512575040433, "trialdata": {"rt": -1000, "stimulus": "/static/audio/wordpool/SNACK.wav", "key_press": -1, "type": "PRES_AUD", "word": "snack", "wordID": 1330, "conditions": [24, 1600, "a", 24000], "trial": 5, "serialpos": 23, "trial_type": "single-audio", "trial_index": 220, "time_elapsed": 1193179, "internal_node_id": "0.0-166.0"}}, {"uniqueid": "MTK0636:3KIBXJ1WD61RWBKZFCBX5GVWDKKOK1", "current_trial": 221, "dateTime": 1512575041806, "trialdata": {"rt": -1, "stimulus": "", "key_press": -1, "type": "PRE_RECALL_DELAY", "trial_type": "single-stim", "trial_index": 221, "time_elapsed": 1194553, "internal_node_id": "0.0-167.0-0.0"}}, {"uniqueid": "MTK0636:3KIBXJ1WD61RWBKZFCBX5GVWDKKOK1", "current_trial": 222, "dateTime": 1512575042314, "trialdata": {"rt": -1000, "stimulus": "/static/audio/400Hz.wav", "key_press": -1, "type": "PRE_RECALL_ALERT", "trial_type": "single-audio", "trial_index": 222, "time_elapsed": 1195061, "internal_node_id": "0.0-168.0"}}, {"uniqueid": "MTK0636:3KIBXJ1WD61RWBKZFCBX5GVWDKKOK1", "current_trial": 223, "dateTime": 1512575102355, "trialdata": {"rt": [4385, 7845, 9820, 14846, 18576, 20889, 28497], "recwords": ["perfume", "fragrance", "dorm", "husband", "popcorn", "snack", "lover"], "type": "FREE_RECALL", "conditions": [24, 1600, "a", 24000], "trial": 5, "trial_type": "free-recall", "trial_index": 223, "time_elapsed": 1255077, "internal_node_id": "0.0-169.0-0.0"}}, {"uniqueid": "MTK0636:3KIBXJ1WD61RWBKZFCBX5GVWDKKOK1", "current_trial": 224, "dateTime": 1512575108301, "trialdata": {"rt": 3936, "key_press": 32, "type": "INSTRUCTIONS", "trial_type": "text", "trial_index": 224, "time_elapsed": 1261048, "internal_node_id": "0.0-170.0"}}, {"uniqueid": "MTK0636:3KIBXJ1WD61RWBKZFCBX5GVWDKKOK1", "current_trial": 225, "dateTime": 1512575122321, "trialdata": {"rt": [3563, 6790, 9761], "responses": ["23", "25", "15"], "num1": [8, 9, 7, 8], "num2": [6, 8, 3, 7], "num3": [9, 8, 5, 2], "type": "DISTRACTOR", "conditions": [12, 800, "v", 12000], "trial": 6, "trial_type": "math-distractor", "trial_index": 225, "time_elapsed": 1275068, "internal_node_id": "0.0-171.0"}}, {"uniqueid": "MTK0636:3KIBXJ1WD61RWBKZFCBX5GVWDKKOK1", "current_trial": 226, "dateTime": 1512575125330, "trialdata": {"rt": -1, "stimulus": "<p id=\"stim\">10</p>", "key_press": -1, "trial_type": "single-stim", "trial_index": 226, "time_elapsed": 1278076, "internal_node_id": "0.0-172.0-0.0"}}, {"uniqueid": "MTK0636:3KIBXJ1WD61RWBKZFCBX5GVWDKKOK1", "current_trial": 227, "dateTime": 1512575126338, "trialdata": {"rt": -1, "stimulus": "<p id=\"stim\">9</p>", "key_press": -1, "trial_type": "single-stim", "trial_index": 227, "time_elapsed": 1279084, "internal_node_id": "0.0-172.0-1.0"}}, {"uniqueid": "MTK0636:3KIBXJ1WD61RWBKZFCBX5GVWDKKOK1", "current_trial": 228, "dateTime": 1512575127343, "trialdata": {"rt": -1, "stimulus": "<p id=\"stim\">8</p>", "key_press": -1, "trial_type": "single-stim", "trial_index": 228, "time_elapsed": 1280089, "internal_node_id": "0.0-172.0-2.0"}}, {"uniqueid": "MTK0636:3KIBXJ1WD61RWBKZFCBX5GVWDKKOK1", "current_trial": 229, "dateTime": 1512575128351, "trialdata": {"rt": -1, "stimulus": "<p id=\"stim\">7</p>", "key_press": -1, "trial_type": "single-stim", "trial_index": 229, "time_elapsed": 1281097, "internal_node_id": "0.0-172.0-3.0"}}, {"uniqueid": "MTK0636:3KIBXJ1WD61RWBKZFCBX5GVWDKKOK1", "current_trial": 230, "dateTime": 1512575129356, "trialdata": {"rt": -1, "stimulus": "<p id=\"stim\">6</p>", "key_press": -1, "trial_type": "single-stim", "trial_index": 230, "time_elapsed": 1282103, "internal_node_id": "0.0-172.0-4.0"}}, {"uniqueid": "MTK0636:3KIBXJ1WD61RWBKZFCBX5GVWDKKOK1", "current_trial": 231, "dateTime": 1512575130363, "trialdata": {"rt": -1, "stimulus": "<p id=\"stim\">5</p>", "key_press": -1, "trial_type": "single-stim", "trial_index": 231, "time_elapsed": 1283109, "internal_node_id": "0.0-172.0-5.0"}}, {"uniqueid": "MTK0636:3KIBXJ1WD61RWBKZFCBX5GVWDKKOK1", "current_trial": 232, "dateTime": 1512575131374, "trialdata": {"rt": -1, "stimulus": "<p id=\"stim\">4</p>", "key_press": -1, "trial_type": "single-stim", "trial_index": 232, "time_elapsed": 1284120, "internal_node_id": "0.0-172.0-6.0"}}, {"uniqueid": "MTK0636:3KIBXJ1WD61RWBKZFCBX5GVWDKKOK1", "current_trial": 233, "dateTime": 1512575132379, "trialdata": {"rt": -1, "stimulus": "<p id=\"stim\">3</p>", "key_press": -1, "trial_type": "single-stim", "trial_index": 233, "time_elapsed": 1285125, "internal_node_id": "0.0-172.0-7.0"}}, {"uniqueid": "MTK0636:3KIBXJ1WD61RWBKZFCBX5GVWDKKOK1", "current_trial": 234, "dateTime": 1512575133382, "trialdata": {"rt": -1, "stimulus": "<p id=\"stim\">2</p>", "key_press": -1, "trial_type": "single-stim", "trial_index": 234, "time_elapsed": 1286128, "internal_node_id": "0.0-172.0-8.0"}}, {"uniqueid": "MTK0636:3KIBXJ1WD61RWBKZFCBX5GVWDKKOK1", "current_trial": 235, "dateTime": 1512575134388, "trialdata": {"rt": -1, "stimulus": "<p id=\"stim\">1</p>", "key_press": -1, "trial_type": "single-stim", "trial_index": 235, "time_elapsed": 1287134, "internal_node_id": "0.0-172.0-9.0"}}, {"uniqueid": "MTK0636:3KIBXJ1WD61RWBKZFCBX5GVWDKKOK1", "current_trial": 236, "dateTime": 1512575135891, "trialdata": {"rt": -1, "stimulus": "<p id=\"stim\">+</p>", "key_press": -1, "type": "FIXATION", "trial_type": "single-stim", "trial_index": 236, "time_elapsed": 1288637, "internal_node_id": "0.0-173.0-0.0"}}, {"uniqueid": "MTK0636:3KIBXJ1WD61RWBKZFCBX5GVWDKKOK1", "current_trial": 237, "dateTime": 1512575136695, "trialdata": {"rt": -1, "stimulus": "<p id=\"stim\">RADISH</p>", "key_press": -1, "type": "PRES_VIS", "word": "radish", "wordID": 1157, "conditions": [12, 800, "v", 12000], "trial": 6, "serialpos": 0, "trial_type": "single-stim", "trial_index": 237, "time_elapsed": 1289441, "internal_node_id": "0.0-174.0"}}, {"uniqueid": "MTK0636:3KIBXJ1WD61RWBKZFCBX5GVWDKKOK1", "current_trial": 238, "dateTime": 1512575138502, "trialdata": {"rt": -1, "stimulus": "<p id=\"stim\">OUTLAW</p>", "key_press": -1, "type": "PRES_VIS", "word": "outlaw", "wordID": 988, "conditions": [12, 800, "v", 12000], "trial": 6, "serialpos": 1, "trial_type": "single-stim", "trial_index": 238, "time_elapsed": 1291248, "internal_node_id": "0.0-175.0"}}, {"uniqueid": "MTK0636:3KIBXJ1WD61RWBKZFCBX5GVWDKKOK1", "current_trial": 239, "dateTime": 1512575140316, "trialdata": {"rt": -1, "stimulus": "<p id=\"stim\">DOUGHNUT</p>", "key_press": -1, "type": "PRES_VIS", "word": "doughnut", "wordID": 489, "conditions": [12, 800, "v", 12000], "trial": 6, "serialpos": 2, "trial_type": "single-stim", "trial_index": 239, "time_elapsed": 1293062, "internal_node_id": "0.0-176.0"}}, {"uniqueid": "MTK0636:3KIBXJ1WD61RWBKZFCBX5GVWDKKOK1", "current_trial": 240, "dateTime": 1512575142279, "trialdata": {"rt": -1, "stimulus": "<p id=\"stim\">PIZZA</p>", "key_press": -1, "type": "PRES_VIS", "word": "pizza", "wordID": 1078, "conditions": [12, 800, "v", 12000], "trial": 6, "serialpos": 3, "trial_type": "single-stim", "trial_index": 240, "time_elapsed": 1295025, "internal_node_id": "0.0-177.0"}}, {"uniqueid": "MTK0636:3KIBXJ1WD61RWBKZFCBX5GVWDKKOK1", "current_trial": 241, "dateTime": 1512575144161, "trialdata": {"rt": -1, "stimulus": "<p id=\"stim\">ONION</p>", "key_press": -1, "type": "PRES_VIS", "word": "onion", "wordID": 976, "conditions": [12, 800, "v", 12000], "trial": 6, "serialpos": 4, "trial_type": "single-stim", "trial_index": 241, "time_elapsed": 1296907, "internal_node_id": "0.0-178.0"}}, {"uniqueid": "MTK0636:3KIBXJ1WD61RWBKZFCBX5GVWDKKOK1", "current_trial": 242, "dateTime": 1512575145984, "trialdata": {"rt": -1, "stimulus": "<p id=\"stim\">LADY</p>", "key_press": -1, "type": "PRES_VIS", "word": "lady", "wordID": 793, "conditions": [12, 800, "v", 12000], "trial": 6, "serialpos": 5, "trial_type": "single-stim", "trial_index": 242, "time_elapsed": 1298731, "internal_node_id": "0.0-179.0"}}, {"uniqueid": "MTK0636:3KIBXJ1WD61RWBKZFCBX5GVWDKKOK1", "current_trial": 243, "dateTime": 1512575147886, "trialdata": {"rt": -1, "stimulus": "<p id=\"stim\">CHURCH</p>", "key_press": -1, "type": "PRES_VIS", "word": "church", "wordID": 306, "conditions": [12, 800, "v", 12000], "trial": 6, "serialpos": 6, "trial_type": "single-stim", "trial_index": 243, "time_elapsed": 1300625, "internal_node_id": "0.0-180.0"}}, {"uniqueid": "MTK0636:3KIBXJ1WD61RWBKZFCBX5GVWDKKOK1", "current_trial": 244, "dateTime": 1512575149849, "trialdata": {"rt": -1, "stimulus": "<p id=\"stim\">BANKER</p>", "key_press": -1, "type": "PRES_VIS", "word": "banker", "wordID": 83, "conditions": [12, 800, "v", 12000], "trial": 6, "serialpos": 7, "trial_type": "single-stim", "trial_index": 244, "time_elapsed": 1302596, "internal_node_id": "0.0-181.0"}}, {"uniqueid": "MTK0636:3KIBXJ1WD61RWBKZFCBX5GVWDKKOK1", "current_trial": 245, "dateTime": 1512575151841, "trialdata": {"rt": -1, "stimulus": "<p id=\"stim\">TRIBE</p>", "key_press": -1, "type": "PRES_VIS", "word": "tribe", "wordID": 1504, "conditions": [12, 800, "v", 12000], "trial": 6, "serialpos": 8, "trial_type": "single-stim", "trial_index": 245, "time_elapsed": 1304587, "internal_node_id": "0.0-182.0"}}, {"uniqueid": "MTK0636:3KIBXJ1WD61RWBKZFCBX5GVWDKKOK1", "current_trial": 246, "dateTime": 1512575153707, "trialdata": {"rt": -1, "stimulus": "<p id=\"stim\">OMELET</p>", "key_press": -1, "type": "PRES_VIS", "word": "omelet", "wordID": 975, "conditions": [12, 800, "v", 12000], "trial": 6, "serialpos": 9, "trial_type": "single-stim", "trial_index": 246, "time_elapsed": 1306453, "internal_node_id": "0.0-183.0"}}, {"uniqueid": "MTK0636:3KIBXJ1WD61RWBKZFCBX5GVWDKKOK1", "current_trial": 247, "dateTime": 1512575155695, "trialdata": {"rt": -1, "stimulus": "<p id=\"stim\">BREAST</p>", "key_press": -1, "type": "PRES_VIS", "word": "breast", "wordID": 170, "conditions": [12, 800, "v", 12000], "trial": 6, "serialpos": 10, "trial_type": "single-stim", "trial_index": 247, "time_elapsed": 1308442, "internal_node_id": "0.0-184.0"}}, {"uniqueid": "MTK0636:3KIBXJ1WD61RWBKZFCBX5GVWDKKOK1", "current_trial": 248, "dateTime": 1512575157329, "trialdata": {"rt": -1, "stimulus": "<p id=\"stim\">SALAD</p>", "key_press": -1, "type": "PRES_VIS", "word": "salad", "wordID": 1223, "conditions": [12, 800, "v", 12000], "trial": 6, "serialpos": 11, "trial_type": "single-stim", "trial_index": 248, "time_elapsed": 1310075, "internal_node_id": "0.0-185.0"}}, {"uniqueid": "MTK0636:3KIBXJ1WD61RWBKZFCBX5GVWDKKOK1", "current_trial": 249, "dateTime": 1512575159523, "trialdata": {"rt": -1, "stimulus": "", "key_press": -1, "type": "PRE_RECALL_DELAY", "trial_type": "single-stim", "trial_index": 249, "time_elapsed": 1312269, "internal_node_id": "0.0-186.0-0.0"}}, {"uniqueid": "MTK0636:3KIBXJ1WD61RWBKZFCBX5GVWDKKOK1", "current_trial": 250, "dateTime": 1512575160036, "trialdata": {"rt": -1000, "stimulus": "/static/audio/400Hz.wav", "key_press": -1, "type": "PRE_RECALL_ALERT", "trial_type": "single-audio", "trial_index": 250, "time_elapsed": 1312782, "internal_node_id": "0.0-187.0"}}, {"uniqueid": "MTK0636:3KIBXJ1WD61RWBKZFCBX5GVWDKKOK1", "current_trial": 251, "dateTime": 1512575220053, "trialdata": {"rt": [3277, 5409, 7879, 12947, 15543, 19564], "recwords": ["breast", "salad", "outlaw", "banker", "church", "lady"], "type": "FREE_RECALL", "conditions": [12, 800, "v", 12000], "trial": 6, "trial_type": "free-recall", "trial_index": 251, "time_elapsed": 1372791, "internal_node_id": "0.0-188.0-0.0"}}, {"uniqueid": "MTK0636:3KIBXJ1WD61RWBKZFCBX5GVWDKKOK1", "current_trial": 252, "dateTime": 1512575225341, "trialdata": {"rt": 3283, "key_press": 32, "type": "INSTRUCTIONS", "trial_type": "text", "trial_index": 252, "time_elapsed": 1378087, "internal_node_id": "0.0-189.0"}}, {"uniqueid": "MTK0636:3KIBXJ1WD61RWBKZFCBX5GVWDKKOK1", "current_trial": 253, "dateTime": 1512575251352, "trialdata": {"rt": [2967, 5103, 7667, 10323, 12868, 15061, 17451, 20213, 22405], "responses": ["14", "9", "14", "19", "15", "21", "15", "17", "12"], "num1": [4, 3, 4, 3, 1, 8, 8, 7, 1, 6], "num2": [6, 3, 8, 7, 7, 4, 1, 1, 8, 4], "num3": [4, 3, 2, 9, 7, 9, 6, 9, 3, 1], "type": "DISTRACTOR", "conditions": [12, 1600, "v", 24000], "trial": 7, "trial_type": "math-distractor", "trial_index": 253, "time_elapsed": 1404098, "internal_node_id": "0.0-190.0"}}, {"uniqueid": "MTK0636:3KIBXJ1WD61RWBKZFCBX5GVWDKKOK1", "current_trial": 254, "dateTime": 1512575254357, "trialdata": {"rt": -1, "stimulus": "<p id=\"stim\">10</p>", "key_press": -1, "trial_type": "single-stim", "trial_index": 254, "time_elapsed": 1407104, "internal_node_id": "0.0-191.0-0.0"}}, {"uniqueid": "MTK0636:3KIBXJ1WD61RWBKZFCBX5GVWDKKOK1", "current_trial": 255, "dateTime": 1512575255361, "trialdata": {"rt": -1, "stimulus": "<p id=\"stim\">9</p>", "key_press": -1, "trial_type": "single-stim", "trial_index": 255, "time_elapsed": 1408108, "internal_node_id": "0.0-191.0-1.0"}}, {"uniqueid": "MTK0636:3KIBXJ1WD61RWBKZFCBX5GVWDKKOK1", "current_trial": 256, "dateTime": 1512575256365, "trialdata": {"rt": -1, "stimulus": "<p id=\"stim\">8</p>", "key_press": -1, "trial_type": "single-stim", "trial_index": 256, "time_elapsed": 1409111, "internal_node_id": "0.0-191.0-2.0"}}, {"uniqueid": "MTK0636:3KIBXJ1WD61RWBKZFCBX5GVWDKKOK1", "current_trial": 257, "dateTime": 1512575257368, "trialdata": {"rt": -1, "stimulus": "<p id=\"stim\">7</p>", "key_press": -1, "trial_type": "single-stim", "trial_index": 257, "time_elapsed": 1410115, "internal_node_id": "0.0-191.0-3.0"}}, {"uniqueid": "MTK0636:3KIBXJ1WD61RWBKZFCBX5GVWDKKOK1", "current_trial": 258, "dateTime": 1512575258372, "trialdata": {"rt": -1, "stimulus": "<p id=\"stim\">6</p>", "key_press": -1, "trial_type": "single-stim", "trial_index": 258, "time_elapsed": 1411118, "internal_node_id": "0.0-191.0-4.0"}}, {"uniqueid": "MTK0636:3KIBXJ1WD61RWBKZFCBX5GVWDKKOK1", "current_trial": 259, "dateTime": 1512575259376, "trialdata": {"rt": -1, "stimulus": "<p id=\"stim\">5</p>", "key_press": -1, "trial_type": "single-stim", "trial_index": 259, "time_elapsed": 1412122, "internal_node_id": "0.0-191.0-5.0"}}, {"uniqueid": "MTK0636:3KIBXJ1WD61RWBKZFCBX5GVWDKKOK1", "current_trial": 260, "dateTime": 1512575260379, "trialdata": {"rt": -1, "stimulus": "<p id=\"stim\">4</p>", "key_press": -1, "trial_type": "single-stim", "trial_index": 260, "time_elapsed": 1413125, "internal_node_id": "0.0-191.0-6.0"}}, {"uniqueid": "MTK0636:3KIBXJ1WD61RWBKZFCBX5GVWDKKOK1", "current_trial": 261, "dateTime": 1512575261383, "trialdata": {"rt": -1, "stimulus": "<p id=\"stim\">3</p>", "key_press": -1, "trial_type": "single-stim", "trial_index": 261, "time_elapsed": 1414130, "internal_node_id": "0.0-191.0-7.0"}}, {"uniqueid": "MTK0636:3KIBXJ1WD61RWBKZFCBX5GVWDKKOK1", "current_trial": 262, "dateTime": 1512575262387, "trialdata": {"rt": -1, "stimulus": "<p id=\"stim\">2</p>", "key_press": -1, "trial_type": "single-stim", "trial_index": 262, "time_elapsed": 1415133, "internal_node_id": "0.0-191.0-8.0"}}, {"uniqueid": "MTK0636:3KIBXJ1WD61RWBKZFCBX5GVWDKKOK1", "current_trial": 263, "dateTime": 1512575263391, "trialdata": {"rt": -1, "stimulus": "<p id=\"stim\">1</p>", "key_press": -1, "trial_type": "single-stim", "trial_index": 263, "time_elapsed": 1416138, "internal_node_id": "0.0-191.0-9.0"}}, {"uniqueid": "MTK0636:3KIBXJ1WD61RWBKZFCBX5GVWDKKOK1", "current_trial": 264, "dateTime": 1512575264895, "trialdata": {"rt": -1, "stimulus": "<p id=\"stim\">+</p>", "key_press": -1, "type": "FIXATION", "trial_type": "single-stim", "trial_index": 264, "time_elapsed": 1417642, "internal_node_id": "0.0-192.0-0.0"}}, {"uniqueid": "MTK0636:3KIBXJ1WD61RWBKZFCBX5GVWDKKOK1", "current_trial": 265, "dateTime": 1512575266502, "trialdata": {"rt": -1, "stimulus": "<p id=\"stim\">WIDOW</p>", "key_press": -1, "type": "PRES_VIS", "word": "widow", "wordID": 1607, "conditions": [12, 1600, "v", 24000], "trial": 7, "serialpos": 0, "trial_type": "single-stim", "trial_index": 265, "time_elapsed": 1419249, "internal_node_id": "0.0-193.0"}}, {"uniqueid": "MTK0636:3KIBXJ1WD61RWBKZFCBX5GVWDKKOK1", "current_trial": 266, "dateTime": 1512575269245, "trialdata": {"rt": -1, "stimulus": "<p id=\"stim\">SIBLING</p>", "key_press": -1, "type": "PRES_VIS", "word": "sibling", "wordID": 1300, "conditions": [12, 1600, "v", 24000], "trial": 7, "serialpos": 1, "trial_type": "single-stim", "trial_index": 266, "time_elapsed": 1421991, "internal_node_id": "0.0-194.0"}}, {"uniqueid": "MTK0636:3KIBXJ1WD61RWBKZFCBX5GVWDKKOK1", "current_trial": 267, "dateTime": 1512575271951, "trialdata": {"rt": -1, "stimulus": "<p id=\"stim\">DENTIST</p>", "key_press": -1, "type": "PRES_VIS", "word": "dentist", "wordID": 446, "conditions": [12, 1600, "v", 24000], "trial": 7, "serialpos": 2, "trial_type": "single-stim", "trial_index": 267, "time_elapsed": 1424698, "internal_node_id": "0.0-195.0"}}, {"uniqueid": "MTK0636:3KIBXJ1WD61RWBKZFCBX5GVWDKKOK1", "current_trial": 268, "dateTime": 1512575274535, "trialdata": {"rt": -1, "stimulus": "<p id=\"stim\">FIREMAN</p>", "key_press": -1, "type": "PRES_VIS", "word": "fireman", "wordID": 568, "conditions": [12, 1600, "v", 24000], "trial": 7, "serialpos": 3, "trial_type": "single-stim", "trial_index": 268, "time_elapsed": 1427281, "internal_node_id": "0.0-196.0"}}, {"uniqueid": "MTK0636:3KIBXJ1WD61RWBKZFCBX5GVWDKKOK1", "current_trial": 269, "dateTime": 1512575277329, "trialdata": {"rt": -1, "stimulus": "<p id=\"stim\">GARBAGE</p>", "key_press": -1, "type": "PRES_VIS", "word": "garbage", "wordID": 621, "conditions": [12, 1600, "v", 24000], "trial": 7, "serialpos": 4, "trial_type": "single-stim", "trial_index": 269, "time_elapsed": 1430076, "internal_node_id": "0.0-197.0"}}, {"uniqueid": "MTK0636:3KIBXJ1WD61RWBKZFCBX5GVWDKKOK1", "current_trial": 270, "dateTime": 1512575279894, "trialdata": {"rt": -1, "stimulus": "<p id=\"stim\">BROTHER</p>", "key_press": -1, "type": "PRES_VIS", "word": "brother", "wordID": 178, "conditions": [12, 1600, "v", 24000], "trial": 7, "serialpos": 5, "trial_type": "single-stim", "trial_index": 270, "time_elapsed": 1432640, "internal_node_id": "0.0-198.0"}}, {"uniqueid": "MTK0636:3KIBXJ1WD61RWBKZFCBX5GVWDKKOK1", "current_trial": 271, "dateTime": 1512575282531, "trialdata": {"rt": -1, "stimulus": "<p id=\"stim\">WARDROBE</p>", "key_press": -1, "type": "PRES_VIS", "word": "wardrobe", "wordID": 1586, "conditions": [12, 1600,