{"condition": 0, "counterbalance": 1911, "assignmentId": "34YB12FSQZVYUM34C5B5FKEYCCGGMM", "workerId": "MTK0958", "hitId": "3SD15I2WD21TON8U48S2IAWJ2ZG637", "currenttrial": 626, "bonus": 0, "data": [{"uniqueid": "MTK0958:34YB12FSQZVYUM34C5B5FKEYCCGGMM", "current_trial": 0, "dateTime": 1512936472043, "trialdata": {"rt": 16969, "key_press": 75, "type": "INSTRUCTIONS", "trial_type": "text", "trial_index": 0, "time_elapsed": 16972, "internal_node_id": "0.0-0.0"}}, {"uniqueid": "MTK0958:34YB12FSQZVYUM34C5B5FKEYCCGGMM", "current_trial": 1, "dateTime": 1512936682910, "trialdata": {"rt": 210866, "key_press": 75, "type": "INSTRUCTIONS", "trial_type": "text", "trial_index": 1, "time_elapsed": 227840, "internal_node_id": "0.0-1.0"}}, {"uniqueid": "MTK0958:34YB12FSQZVYUM34C5B5FKEYCCGGMM", "current_trial": 2, "dateTime": 1512936697791, "trialdata": {"rt": [14868], "responses": ["ocean"], "type": "AUDIO_TEST", "trial_type": "audio-test", "trial_index": 2, "time_elapsed": 242721, "internal_node_id": "0.0-2.0"}}, {"uniqueid": "MTK0958:34YB12FSQZVYUM34C5B5FKEYCCGGMM", "current_trial": 3, "dateTime": 1512936715287, "trialdata": {"rt": [17492], "responses": ["crystal"], "type": "AUDIO_TEST", "trial_type": "audio-test", "trial_index": 3, "time_elapsed": 260217, "internal_node_id": "0.0-3.0"}}, {"uniqueid": "MTK0958:34YB12FSQZVYUM34C5B5FKEYCCGGMM", "current_trial": 4, "dateTime": 1512936726391, "trialdata": {"rt": [11101], "responses": ["spice"], "type": "AUDIO_TEST", "trial_type": "audio-test", "trial_index": 4, "time_elapsed": 271321, "internal_node_id": "0.0-4.0"}}, {"uniqueid": "MTK0958:34YB12FSQZVYUM34C5B5FKEYCCGGMM", "current_trial": 5, "dateTime": 1512936743319, "trialdata": {"rt": 16175, "responses": "{\"Q0\":\"10pm\",\"Q1\":\"7am\",\"Q2\":\"4\"}", "type": "SLEEP_SURVEY", "trial_type": "survey-text", "trial_index": 5, "time_elapsed": 288249, "internal_node_id": "0.0-5.0"}}, {"uniqueid": "MTK0958:34YB12FSQZVYUM34C5B5FKEYCCGGMM", "current_trial": 6, "dateTime": 1512937077406, "trialdata": {"rt": 333085, "key_press": 32, "type": "INSTRUCTIONS", "trial_type": "text", "trial_index": 6, "time_elapsed": 622336, "internal_node_id": "0.0-6.0"}}, {"uniqueid": "MTK0958:34YB12FSQZVYUM34C5B5FKEYCCGGMM", "current_trial": 7, "dateTime": 1512937170005, "trialdata": {"rt": 92096, "key_press": 32, "type": "INSTRUCTIONS", "trial_type": "text", "trial_index": 7, "time_elapsed": 714935, "internal_node_id": "0.0-7.0"}}, {"uniqueid": "MTK0958:34YB12FSQZVYUM34C5B5FKEYCCGGMM", "current_trial": 8, "dateTime": 1512937185052, "trialdata": {"rt": 14545, "key_press": 32, "type": "INSTRUCTIONS", "trial_type": "text", "trial_index": 8, "time_elapsed": 729982, "internal_node_id": "0.0-8.0"}}, {"uniqueid": "MTK0958:34YB12FSQZVYUM34C5B5FKEYCCGGMM", "current_trial": 9, "dateTime": 1512937204056, "trialdata": {"rt": [4453, 6421, 8429, 11453, 14013], "responses": ["14", "15", "14", "24", "12"], "num1": [6, 1, 7, 8, 5, 6], "num2": [7, 9, 3, 7, 6, 7], "num3": [1, 5, 4, 9, 1, 7], "type": "DISTRACTOR", "conditions": [18, 1200, "v", 18000], "trial": 0, "trial_type": "math-distractor", "trial_index": 9, "time_elapsed": 748986, "internal_node_id": "0.0-9.0"}}, {"uniqueid": "MTK0958:34YB12FSQZVYUM34C5B5FKEYCCGGMM", "current_trial": 10, "dateTime": 1512937207060, "trialdata": {"rt": -1, "stimulus": "<p id=\"stim\">10</p>", "key_press": -1, "trial_type": "single-stim", "trial_index": 10, "time_elapsed": 751990, "internal_node_id": "0.0-10.0-0.0"}}, {"uniqueid": "MTK0958:34YB12FSQZVYUM34C5B5FKEYCCGGMM", "current_trial": 11, "dateTime": 1512937208062, "trialdata": {"rt": -1, "stimulus": "<p id=\"stim\">9</p>", "key_press": -1, "trial_type": "single-stim", "trial_index": 11, "time_elapsed": 752992, "internal_node_id": "0.0-10.0-1.0"}}, {"uniqueid": "MTK0958:34YB12FSQZVYUM34C5B5FKEYCCGGMM", "current_trial": 12, "dateTime": 1512937209065, "trialdata": {"rt": -1, "stimulus": "<p id=\"stim\">8</p>", "key_press": -1, "trial_type": "single-stim", "trial_index": 12, "time_elapsed": 753995, "internal_node_id": "0.0-10.0-2.0"}}, {"uniqueid": "MTK0958:34YB12FSQZVYUM34C5B5FKEYCCGGMM", "current_trial": 13, "dateTime": 1512937210067, "trialdata": {"rt": -1, "stimulus": "<p id=\"stim\">7</p>", "key_press": -1, "trial_type": "single-stim", "trial_index": 13, "time_elapsed": 754997, "internal_node_id": "0.0-10.0-3.0"}}, {"uniqueid": "MTK0958:34YB12FSQZVYUM34C5B5FKEYCCGGMM", "current_trial": 14, "dateTime": 1512937211070, "trialdata": {"rt": -1, "stimulus": "<p id=\"stim\">6</p>", "key_press": -1, "trial_type": "single-stim", "trial_index": 14, "time_elapsed": 756000, "internal_node_id": "0.0-10.0-4.0"}}, {"uniqueid": "MTK0958:34YB12FSQZVYUM34C5B5FKEYCCGGMM", "current_trial": 15, "dateTime": 1512937212073, "trialdata": {"rt": -1, "stimulus": "<p id=\"stim\">5</p>", "key_press": -1, "trial_type": "single-stim", "trial_index": 15, "time_elapsed": 757003, "internal_node_id": "0.0-10.0-5.0"}}, {"uniqueid": "MTK0958:34YB12FSQZVYUM34C5B5FKEYCCGGMM", "current_trial": 16, "dateTime": 1512937213075, "trialdata": {"rt": -1, "stimulus": "<p id=\"stim\">4</p>", "key_press": -1, "trial_type": "single-stim", "trial_index": 16, "time_elapsed": 758005, "internal_node_id": "0.0-10.0-6.0"}}, {"uniqueid": "MTK0958:34YB12FSQZVYUM34C5B5FKEYCCGGMM", "current_trial": 17, "dateTime": 1512937214076, "trialdata": {"rt": -1, "stimulus": "<p id=\"stim\">3</p>", "key_press": -1, "trial_type": "single-stim", "trial_index": 17, "time_elapsed": 759006, "internal_node_id": "0.0-10.0-7.0"}}, {"uniqueid": "MTK0958:34YB12FSQZVYUM34C5B5FKEYCCGGMM", "current_trial": 18, "dateTime": 1512937215079, "trialdata": {"rt": -1, "stimulus": "<p id=\"stim\">2</p>", "key_press": -1, "trial_type": "single-stim", "trial_index": 18, "time_elapsed": 760008, "internal_node_id": "0.0-10.0-8.0"}}, {"uniqueid": "MTK0958:34YB12FSQZVYUM34C5B5FKEYCCGGMM", "current_trial": 19, "dateTime": 1512937216082, "trialdata": {"rt": -1, "stimulus": "<p id=\"stim\">1</p>", "key_press": -1, "trial_type": "single-stim", "trial_index": 19, "time_elapsed": 761012, "internal_node_id": "0.0-10.0-9.0"}}, {"uniqueid": "MTK0958:34YB12FSQZVYUM34C5B5FKEYCCGGMM", "current_trial": 20, "dateTime": 1512937217584, "trialdata": {"rt": -1, "stimulus": "<p id=\"stim\">+</p>", "key_press": -1, "type": "FIXATION", "trial_type": "single-stim", "trial_index": 20, "time_elapsed": 762514, "internal_node_id": "0.0-11.0-0.0"}}, {"uniqueid": "MTK0958:34YB12FSQZVYUM34C5B5FKEYCCGGMM", "current_trial": 21, "dateTime": 1512937218787, "trialdata": {"rt": -1, "stimulus": "<p id=\"stim\">SLOPE</p>", "key_press": -1, "type": "PRES_VIS", "word": "slope", "wordID": 1327, "conditions": [18, 1200, "v", 18000], "trial": 0, "serialpos": 0, "trial_type": "single-stim", "trial_index": 21, "time_elapsed": 763717, "internal_node_id": "0.0-12.0"}}, {"uniqueid": "MTK0958:34YB12FSQZVYUM34C5B5FKEYCCGGMM", "current_trial": 22, "dateTime": 1512937221034, "trialdata": {"rt": -1, "stimulus": "<p id=\"stim\">CONCERT</p>", "key_press": -1, "type": "PRES_VIS", "word": "concert", "wordID": 359, "conditions": [18, 1200, "v", 18000], "trial": 0, "serialpos": 1, "trial_type": "single-stim", "trial_index": 22, "time_elapsed": 765964, "internal_node_id": "0.0-13.0"}}, {"uniqueid": "MTK0958:34YB12FSQZVYUM34C5B5FKEYCCGGMM", "current_trial": 23, "dateTime": 1512937223418, "trialdata": {"rt": -1, "stimulus": "<p id=\"stim\">RECORD</p>", "key_press": -1, "type": "PRES_VIS", "word": "record", "wordID": 1175, "conditions": [18, 1200, "v", 18000], "trial": 0, "serialpos": 2, "trial_type": "single-stim", "trial_index": 23, "time_elapsed": 768347, "internal_node_id": "0.0-14.0"}}, {"uniqueid": "MTK0958:34YB12FSQZVYUM34C5B5FKEYCCGGMM", "current_trial": 24, "dateTime": 1512937225700, "trialdata": {"rt": -1, "stimulus": "<p id=\"stim\">FUNGUS</p>", "key_press": -1, "type": "PRES_VIS", "word": "fungus", "wordID": 613, "conditions": [18, 1200, "v", 18000], "trial": 0, "serialpos": 3, "trial_type": "single-stim", "trial_index": 24, "time_elapsed": 770630, "internal_node_id": "0.0-15.0"}}, {"uniqueid": "MTK0958:34YB12FSQZVYUM34C5B5FKEYCCGGMM", "current_trial": 25, "dateTime": 1512937227860, "trialdata": {"rt": -1, "stimulus": "<p id=\"stim\">BABY</p>", "key_press": -1, "type": "PRES_VIS", "word": "baby", "wordID": 63, "conditions": [18, 1200, "v", 18000], "trial": 0, "serialpos": 4, "trial_type": "single-stim", "trial_index": 25, "time_elapsed": 772790, "internal_node_id": "0.0-16.0"}}, {"uniqueid": "MTK0958:34YB12FSQZVYUM34C5B5FKEYCCGGMM", "current_trial": 26, "dateTime": 1512937230181, "trialdata": {"rt": -1, "stimulus": "<p id=\"stim\">RACKET</p>", "key_press": -1, "type": "PRES_VIS", "word": "racket", "wordID": 1154, "conditions": [18, 1200, "v", 18000], "trial": 0, "serialpos": 5, "trial_type": "single-stim", "trial_index": 26, "time_elapsed": 775111, "internal_node_id": "0.0-17.0"}}, {"uniqueid": "MTK0958:34YB12FSQZVYUM34C5B5FKEYCCGGMM", "current_trial": 27, "dateTime": 1512937232382, "trialdata": {"rt": -1, "stimulus": "<p id=\"stim\">HOSTESS</p>", "key_press": -1, "type": "PRES_VIS", "word": "hostess", "wordID": 722, "conditions": [18, 1200, "v", 18000], "trial": 0, "serialpos": 6, "trial_type": "single-stim", "trial_index": 27, "time_elapsed": 777312, "internal_node_id": "0.0-18.0"}}, {"uniqueid": "MTK0958:34YB12FSQZVYUM34C5B5FKEYCCGGMM", "current_trial": 28, "dateTime": 1512937234650, "trialdata": {"rt": -1, "stimulus": "<p id=\"stim\">SNACK</p>", "key_press": -1, "type": "PRES_VIS", "word": "snack", "wordID": 1330, "conditions": [18, 1200, "v", 18000], "trial": 0, "serialpos": 7, "trial_type": "single-stim", "trial_index": 28, "time_elapsed": 779580, "internal_node_id": "0.0-19.0"}}, {"uniqueid": "MTK0958:34YB12FSQZVYUM34C5B5FKEYCCGGMM", "current_trial": 29, "dateTime": 1512937236905, "trialdata": {"rt": -1, "stimulus": "<p id=\"stim\">SIBLING</p>", "key_press": -1, "type": "PRES_VIS", "word": "sibling", "wordID": 1300, "conditions": [18, 1200, "v", 18000], "trial": 0, "serialpos": 8, "trial_type": "single-stim", "trial_index": 29, "time_elapsed": 781835, "internal_node_id": "0.0-20.0"}}, {"uniqueid": "MTK0958:34YB12FSQZVYUM34C5B5FKEYCCGGMM", "current_trial": 30, "dateTime": 1512937238972, "trialdata": {"rt": -1, "stimulus": "<p id=\"stim\">CASHEW</p>", "key_press": -1, "type": "PRES_VIS", "word": "cashew", "wordID": 252, "conditions": [18, 1200, "v", 18000], "trial": 0, "serialpos": 9, "trial_type": "single-stim", "trial_index": 30, "time_elapsed": 783901, "internal_node_id": "0.0-21.0"}}, {"uniqueid": "MTK0958:34YB12FSQZVYUM34C5B5FKEYCCGGMM", "current_trial": 31, "dateTime": 1512937241289, "trialdata": {"rt": -1, "stimulus": "<p id=\"stim\">CROSS</p>", "key_press": -1, "type": "PRES_VIS", "word": "cross", "wordID": 412, "conditions": [18, 1200, "v", 18000], "trial": 0, "serialpos": 10, "trial_type": "single-stim", "trial_index": 31, "time_elapsed": 786219, "internal_node_id": "0.0-22.0"}}, {"uniqueid": "MTK0958:34YB12FSQZVYUM34C5B5FKEYCCGGMM", "current_trial": 32, "dateTime": 1512937243496, "trialdata": {"rt": -1, "stimulus": "<p id=\"stim\">BLOUSE</p>", "key_press": -1, "type": "PRES_VIS", "word": "blouse", "wordID": 138, "conditions": [18, 1200, "v", 18000], "trial": 0, "serialpos": 11, "trial_type": "single-stim", "trial_index": 32, "time_elapsed": 788426, "internal_node_id": "0.0-23.0"}}, {"uniqueid": "MTK0958:34YB12FSQZVYUM34C5B5FKEYCCGGMM", "current_trial": 33, "dateTime": 1512937245574, "trialdata": {"rt": -1, "stimulus": "<p id=\"stim\">STUDENT</p>", "key_press": -1, "type": "PRES_VIS", "word": "student", "wordID": 1394, "conditions": [18, 1200, "v", 18000], "trial": 0, "serialpos": 12, "trial_type": "single-stim", "trial_index": 33, "time_elapsed": 790504, "internal_node_id": "0.0-24.0"}}, {"uniqueid": "MTK0958:34YB12FSQZVYUM34C5B5FKEYCCGGMM", "current_trial": 34, "dateTime": 1512937247647, "trialdata": {"rt": -1, "stimulus": "<p id=\"stim\">MOTOR</p>", "key_press": -1, "type": "PRES_VIS", "word": "motor", "wordID": 921, "conditions": [18, 1200, "v", 18000], "trial": 0, "serialpos": 13, "trial_type": "single-stim", "trial_index": 34, "time_elapsed": 792577, "internal_node_id": "0.0-25.0"}}, {"uniqueid": "MTK0958:34YB12FSQZVYUM34C5B5FKEYCCGGMM", "current_trial": 35, "dateTime": 1512937249809, "trialdata": {"rt": -1, "stimulus": "<p id=\"stim\">OFFICE</p>", "key_press": -1, "type": "PRES_VIS", "word": "office", "wordID": 971, "conditions": [18, 1200, "v", 18000], "trial": 0, "serialpos": 14, "trial_type": "single-stim", "trial_index": 35, "time_elapsed": 794739, "internal_node_id": "0.0-26.0"}}, {"uniqueid": "MTK0958:34YB12FSQZVYUM34C5B5FKEYCCGGMM", "current_trial": 36, "dateTime": 1512937252116, "trialdata": {"rt": -1, "stimulus": "<p id=\"stim\">RAZOR</p>", "key_press": -1, "type": "PRES_VIS", "word": "razor", "wordID": 1170, "conditions": [18, 1200, "v", 18000], "trial": 0, "serialpos": 15, "trial_type": "single-stim", "trial_index": 36, "time_elapsed": 797046, "internal_node_id": "0.0-27.0"}}, {"uniqueid": "MTK0958:34YB12FSQZVYUM34C5B5FKEYCCGGMM", "current_trial": 37, "dateTime": 1512937254294, "trialdata": {"rt": -1, "stimulus": "<p id=\"stim\">COCOON</p>", "key_press": -1, "type": "PRES_VIS", "word": "cocoon", "wordID": 338, "conditions": [18, 1200, "v", 18000], "trial": 0, "serialpos": 16, "trial_type": "single-stim", "trial_index": 37, "time_elapsed": 799224, "internal_node_id": "0.0-28.0"}}, {"uniqueid": "MTK0958:34YB12FSQZVYUM34C5B5FKEYCCGGMM", "current_trial": 38, "dateTime": 1512937256574, "trialdata": {"rt": -1, "stimulus": "<p id=\"stim\">WAITER</p>", "key_press": -1, "type": "PRES_VIS", "word": "waiter", "wordID": 1579, "conditions": [18, 1200, "v", 18000], "trial": 0, "serialpos": 17, "trial_type": "single-stim", "trial_index": 38, "time_elapsed": 801504, "internal_node_id": "0.0-29.0"}}, {"uniqueid": "MTK0958:34YB12FSQZVYUM34C5B5FKEYCCGGMM", "current_trial": 39, "dateTime": 1512937258754, "trialdata": {"rt": -1, "stimulus": "", "key_press": -1, "type": "PRE_RECALL_DELAY", "trial_type": "single-stim", "trial_index": 39, "time_elapsed": 803684, "internal_node_id": "0.0-30.0-0.0"}}, {"uniqueid": "MTK0958:34YB12FSQZVYUM34C5B5FKEYCCGGMM", "current_trial": 40, "dateTime": 1512937259256, "trialdata": {"rt": -1000, "stimulus": "/static/audio/400Hz.wav", "key_press": -1, "type": "PRE_RECALL_ALERT", "trial_type": "single-audio", "trial_index": 40, "time_elapsed": 804186, "internal_node_id": "0.0-31.0"}}, {"uniqueid": "MTK0958:34YB12FSQZVYUM34C5B5FKEYCCGGMM", "current_trial": 41, "dateTime": 1512937319261, "trialdata": {"rt": [2595, 4314, 6011, 7019, 8138, 10323, 12186, 14602, 17859, 27810], "recwords": ["slope", "concert", "fungus", "baby", "water", "waiter", "waitress", "illness", "baby", "razors"], "type": "FREE_RECALL", "conditions": [18, 1200, "v", 18000], "trial": 0, "trial_type": "free-recall", "trial_index": 41, "time_elapsed": 864189, "internal_node_id": "0.0-32.0-0.0"}}, {"uniqueid": "MTK0958:34YB12FSQZVYUM34C5B5FKEYCCGGMM", "current_trial": 42, "dateTime": 1512937324054, "trialdata": {"rt": 2789, "key_press": 32, "type": "INSTRUCTIONS", "trial_type": "text", "trial_index": 42, "time_elapsed": 868984, "internal_node_id": "0.0-33.0"}}, {"uniqueid": "MTK0958:34YB12FSQZVYUM34C5B5FKEYCCGGMM", "current_trial": 43, "dateTime": 1512937344059, "trialdata": {"rt": [1923, 3891, 6507, 9203, 11707, 13683, 16267], "responses": ["7", "15", "11", "20", "14", "10", "8"], "num1": [3, 4, 1, 7, 8, 8, 2, 2], "num2": [1, 6, 2, 8, 5, 1, 2, 3], "num3": [3, 5, 8, 5, 1, 1, 4, 5], "type": "DISTRACTOR", "conditions": [18, 1200, "a", 18000], "trial": 1, "trial_type": "math-distractor", "trial_index": 43, "time_elapsed": 888988, "internal_node_id": "0.0-34.0"}}, {"uniqueid": "MTK0958:34YB12FSQZVYUM34C5B5FKEYCCGGMM", "current_trial": 44, "dateTime": 1512937347062, "trialdata": {"rt": -1, "stimulus": "<p id=\"stim\">10</p>", "key_press": -1, "trial_type": "single-stim", "trial_index": 44, "time_elapsed": 891991, "internal_node_id": "0.0-35.0-0.0"}}, {"uniqueid": "MTK0958:34YB12FSQZVYUM34C5B5FKEYCCGGMM", "current_trial": 45, "dateTime": 1512937348064, "trialdata": {"rt": -1, "stimulus": "<p id=\"stim\">9</p>", "key_press": -1, "trial_type": "single-stim", "trial_index": 45, "time_elapsed": 892994, "internal_node_id": "0.0-35.0-1.0"}}, {"uniqueid": "MTK0958:34YB12FSQZVYUM34C5B5FKEYCCGGMM", "current_trial": 46, "dateTime": 1512937349067, "trialdata": {"rt": -1, "stimulus": "<p id=\"stim\">8</p>", "key_press": -1, "trial_type": "single-stim", "trial_index": 46, "time_elapsed": 893997, "internal_node_id": "0.0-35.0-2.0"}}, {"uniqueid": "MTK0958:34YB12FSQZVYUM34C5B5FKEYCCGGMM", "current_trial": 47, "dateTime": 1512937350070, "trialdata": {"rt": -1, "stimulus": "<p id=\"stim\">7</p>", "key_press": -1, "trial_type": "single-stim", "trial_index": 47, "time_elapsed": 895000, "internal_node_id": "0.0-35.0-3.0"}}, {"uniqueid": "MTK0958:34YB12FSQZVYUM34C5B5FKEYCCGGMM", "current_trial": 48, "dateTime": 1512937351073, "trialdata": {"rt": -1, "stimulus": "<p id=\"stim\">6</p>", "key_press": -1, "trial_type": "single-stim", "trial_index": 48, "time_elapsed": 896003, "internal_node_id": "0.0-35.0-4.0"}}, {"uniqueid": "MTK0958:34YB12FSQZVYUM34C5B5FKEYCCGGMM", "current_trial": 49, "dateTime": 1512937352075, "trialdata": {"rt": -1, "stimulus": "<p id=\"stim\">5</p>", "key_press": -1, "trial_type": "single-stim", "trial_index": 49, "time_elapsed": 897005, "internal_node_id": "0.0-35.0-5.0"}}, {"uniqueid": "MTK0958:34YB12FSQZVYUM34C5B5FKEYCCGGMM", "current_trial": 50, "dateTime": 1512937353077, "trialdata": {"rt": -1, "stimulus": "<p id=\"stim\">4</p>", "key_press": -1, "trial_type": "single-stim", "trial_index": 50, "time_elapsed": 898006, "internal_node_id": "0.0-35.0-6.0"}}, {"uniqueid": "MTK0958:34YB12FSQZVYUM34C5B5FKEYCCGGMM", "current_trial": 51, "dateTime": 1512937354080, "trialdata": {"rt": -1, "stimulus": "<p id=\"stim\">3</p>", "key_press": -1, "trial_type": "single-stim", "trial_index": 51, "time_elapsed": 899010, "internal_node_id": "0.0-35.0-7.0"}}, {"uniqueid": "MTK0958:34YB12FSQZVYUM34C5B5FKEYCCGGMM", "current_trial": 52, "dateTime": 1512937355081, "trialdata": {"rt": -1, "stimulus": "<p id=\"stim\">2</p>", "key_press": -1, "trial_type": "single-stim", "trial_index": 52, "time_elapsed": 900011, "internal_node_id": "0.0-35.0-8.0"}}, {"uniqueid": "MTK0958:34YB12FSQZVYUM34C5B5FKEYCCGGMM", "current_trial": 53, "dateTime": 1512937356084, "trialdata": {"rt": -1, "stimulus": "<p id=\"stim\">1</p>", "key_press": -1, "trial_type": "single-stim", "trial_index": 53, "time_elapsed": 901014, "internal_node_id": "0.0-35.0-9.0"}}, {"uniqueid": "MTK0958:34YB12FSQZVYUM34C5B5FKEYCCGGMM", "current_trial": 54, "dateTime": 1512937357585, "trialdata": {"rt": -1, "stimulus": "<p id=\"stim\">+</p>", "key_press": -1, "type": "FIXATION", "trial_type": "single-stim", "trial_index": 54, "time_elapsed": 902515, "internal_node_id": "0.0-36.0-0.0"}}, {"uniqueid": "MTK0958:34YB12FSQZVYUM34C5B5FKEYCCGGMM", "current_trial": 55, "dateTime": 1512937359932, "trialdata": {"rt": -1000, "stimulus": "/static/audio/wordpool/HEADBAND.wav", "key_press": -1, "type": "PRES_AUD", "word": "headband", "wordID": 695, "conditions": [18, 1200, "a", 18000], "trial": 1, "serialpos": 0, "trial_type": "single-audio", "trial_index": 55, "time_elapsed": 904862, "internal_node_id": "0.0-37.0"}}, {"uniqueid": "MTK0958:34YB12FSQZVYUM34C5B5FKEYCCGGMM", "current_trial": 56, "dateTime": 1512937362312, "trialdata": {"rt": -1000, "stimulus": "/static/audio/wordpool/TERMITE.wav", "key_press": -1, "type": "PRES_AUD", "word": "termite", "wordID": 1450, "conditions": [18, 1200, "a", 18000], "trial": 1, "serialpos": 1, "trial_type": "single-audio", "trial_index": 56, "time_elapsed": 907242, "internal_node_id": "0.0-38.0"}}, {"uniqueid": "MTK0958:34YB12FSQZVYUM34C5B5FKEYCCGGMM", "current_trial": 57, "dateTime": 1512937364513, "trialdata": {"rt": -1000, "stimulus": "/static/audio/wordpool/BODY.wav", "key_press": -1, "type": "PRES_AUD", "word": "body", "wordID": 144, "conditions": [18, 1200, "a", 18000], "trial": 1, "serialpos": 2, "trial_type": "single-audio", "trial_index": 57, "time_elapsed": 909443, "internal_node_id": "0.0-39.0"}}, {"uniqueid": "MTK0958:34YB12FSQZVYUM34C5B5FKEYCCGGMM", "current_trial": 58, "dateTime": 1512937366681, "trialdata": {"rt": -1000, "stimulus": "/static/audio/wordpool/LUNCH.wav", "key_press": -1, "type": "PRES_AUD", "word": "lunch", "wordID": 848, "conditions": [18, 1200, "a", 18000], "trial": 1, "serialpos": 3, "trial_type": "single-audio", "trial_index": 58, "time_elapsed": 911611, "internal_node_id": "0.0-40.0"}}, {"uniqueid": "MTK0958:34YB12FSQZVYUM34C5B5FKEYCCGGMM", "current_trial": 59, "dateTime": 1512937368721, "trialdata": {"rt": -1000, "stimulus": "/static/audio/wordpool/CRAYON.wav", "key_press": -1, "type": "PRES_AUD", "word": "crayon", "wordID": 400, "conditions": [18, 1200, "a", 18000], "trial": 1, "serialpos": 4, "trial_type": "single-audio", "trial_index": 59, "time_elapsed": 913651, "internal_node_id": "0.0-41.0"}}, {"uniqueid": "MTK0958:34YB12FSQZVYUM34C5B5FKEYCCGGMM", "current_trial": 60, "dateTime": 1512937370996, "trialdata": {"rt": -1000, "stimulus": "/static/audio/wordpool/JUGGLER.wav", "key_press": -1, "type": "PRES_AUD", "word": "juggler", "wordID": 762, "conditions": [18, 1200, "a", 18000], "trial": 1, "serialpos": 5, "trial_type": "single-audio", "trial_index": 60, "time_elapsed": 915925, "internal_node_id": "0.0-42.0"}}, {"uniqueid": "MTK0958:34YB12FSQZVYUM34C5B5FKEYCCGGMM", "current_trial": 61, "dateTime": 1512937373052, "trialdata": {"rt": -1000, "stimulus": "/static/audio/wordpool/GAVEL.wav", "key_press": -1, "type": "PRES_AUD", "word": "gavel", "wordID": 626, "conditions": [18, 1200, "a", 18000], "trial": 1, "serialpos": 6, "trial_type": "single-audio", "trial_index": 61, "time_elapsed": 917982, "internal_node_id": "0.0-43.0"}}, {"uniqueid": "MTK0958:34YB12FSQZVYUM34C5B5FKEYCCGGMM", "current_trial": 62, "dateTime": 1512937375332, "trialdata": {"rt": -1000, "stimulus": "/static/audio/wordpool/COFFEE.wav", "key_press": -1, "type": "PRES_AUD", "word": "coffee", "wordID": 340, "conditions": [18, 1200, "a", 18000], "trial": 1, "serialpos": 7, "trial_type": "single-audio", "trial_index": 62, "time_elapsed": 920261, "internal_node_id": "0.0-44.0"}}, {"uniqueid": "MTK0958:34YB12FSQZVYUM34C5B5FKEYCCGGMM", "current_trial": 63, "dateTime": 1512937377437, "trialdata": {"rt": -1000, "stimulus": "/static/audio/wordpool/BASEMENT.wav", "key_press": -1, "type": "PRES_AUD", "word": "basement", "wordID": 93, "conditions": [18, 1200, "a", 18000], "trial": 1, "serialpos": 8, "trial_type": "single-audio", "trial_index": 63, "time_elapsed": 922366, "internal_node_id": "0.0-45.0"}}, {"uniqueid": "MTK0958:34YB12FSQZVYUM34C5B5FKEYCCGGMM", "current_trial": 64, "dateTime": 1512937379690, "trialdata": {"rt": -1000, "stimulus": "/static/audio/wordpool/BLENDER.wav", "key_press": -1, "type": "PRES_AUD", "word": "blender", "wordID": 135, "conditions": [18, 1200, "a", 18000], "trial": 1, "serialpos": 9, "trial_type": "single-audio", "trial_index": 64, "time_elapsed": 924619, "internal_node_id": "0.0-46.0"}}, {"uniqueid": "MTK0958:34YB12FSQZVYUM34C5B5FKEYCCGGMM", "current_trial": 65, "dateTime": 1512937381858, "trialdata": {"rt": -1000, "stimulus": "/static/audio/wordpool/ROOSTER.wav", "key_press": -1, "type": "PRES_AUD", "word": "rooster", "wordID": 1208, "conditions": [18, 1200, "a", 18000], "trial": 1, "serialpos": 10, "trial_type": "single-audio", "trial_index": 65, "time_elapsed": 926787, "internal_node_id": "0.0-47.0"}}, {"uniqueid": "MTK0958:34YB12FSQZVYUM34C5B5FKEYCCGGMM", "current_trial": 66, "dateTime": 1512937384051, "trialdata": {"rt": -1000, "stimulus": "/static/audio/wordpool/CRAB.wav", "key_press": -1, "type": "PRES_AUD", "word": "crab", "wordID": 396, "conditions": [18, 1200, "a", 18000], "trial": 1, "serialpos": 11, "trial_type": "single-audio", "trial_index": 66, "time_elapsed": 928981, "internal_node_id": "0.0-48.0"}}, {"uniqueid": "MTK0958:34YB12FSQZVYUM34C5B5FKEYCCGGMM", "current_trial": 67, "dateTime": 1512937386451, "trialdata": {"rt": -1000, "stimulus": "/static/audio/wordpool/CHEST.wav", "key_press": -1, "type": "PRES_AUD", "word": "chest", "wordID": 294, "conditions": [18, 1200, "a", 18000], "trial": 1, "serialpos": 12, "trial_type": "single-audio", "trial_index": 67, "time_elapsed": 931381, "internal_node_id": "0.0-49.0"}}, {"uniqueid": "MTK0958:34YB12FSQZVYUM34C5B5FKEYCCGGMM", "current_trial": 68, "dateTime": 1512937388616, "trialdata": {"rt": -1000, "stimulus": "/static/audio/wordpool/CHAPEL.wav", "key_press": -1, "type": "PRES_AUD", "word": "chapel", "wordID": 279, "conditions": [18, 1200, "a", 18000], "trial": 1, "serialpos": 13, "trial_type": "single-audio", "trial_index": 68, "time_elapsed": 933542, "internal_node_id": "0.0-50.0"}}, {"uniqueid": "MTK0958:34YB12FSQZVYUM34C5B5FKEYCCGGMM", "current_trial": 69, "dateTime": 1512937391013, "trialdata": {"rt": -1000, "stimulus": "/static/audio/wordpool/WRIST.wav", "key_press": -1, "type": "PRES_AUD", "word": "wrist", "wordID": 1625, "conditions": [18, 1200, "a", 18000], "trial": 1, "serialpos": 14, "trial_type": "single-audio", "trial_index": 69, "time_elapsed": 935943, "internal_node_id": "0.0-51.0"}}, {"uniqueid": "MTK0958:34YB12FSQZVYUM34C5B5FKEYCCGGMM", "current_trial": 70, "dateTime": 1512937393172, "trialdata": {"rt": -1000, "stimulus": "/static/audio/wordpool/BROOK.wav", "key_press": -1, "type": "PRES_AUD", "word": "brook", "wordID": 176, "conditions": [18, 1200, "a", 18000], "trial": 1, "serialpos": 15, "trial_type": "single-audio", "trial_index": 70, "time_elapsed": 938102, "internal_node_id": "0.0-52.0"}}, {"uniqueid": "MTK0958:34YB12FSQZVYUM34C5B5FKEYCCGGMM", "current_trial": 71, "dateTime": 1512937395418, "trialdata": {"rt": -1000, "stimulus": "/static/audio/wordpool/BRICK.wav", "key_press": -1, "type": "PRES_AUD", "word": "brick", "wordID": 171, "conditions": [18, 1200, "a", 18000], "trial": 1, "serialpos": 16, "trial_type": "single-audio", "trial_index": 71, "time_elapsed": 940348, "internal_node_id": "0.0-53.0"}}, {"uniqueid": "MTK0958:34YB12FSQZVYUM34C5B5FKEYCCGGMM", "current_trial": 72, "dateTime": 1512937397780, "trialdata": {"rt": -1000, "stimulus": "/static/audio/wordpool/ONION.wav", "key_press": -1, "type": "PRES_AUD", "word": "onion", "wordID": 976, "conditions": [18, 1200, "a", 18000], "trial": 1, "serialpos": 17, "trial_type": "single-audio", "trial_index": 72, "time_elapsed": 942710, "internal_node_id": "0.0-54.0"}}, {"uniqueid": "MTK0958:34YB12FSQZVYUM34C5B5FKEYCCGGMM", "current_trial": 73, "dateTime": 1512937399029, "trialdata": {"rt": -1, "stimulus": "", "key_press": -1, "type": "PRE_RECALL_DELAY", "trial_type": "single-stim", "trial_index": 73, "time_elapsed": 943959, "internal_node_id": "0.0-55.0-0.0"}}, {"uniqueid": "MTK0958:34YB12FSQZVYUM34C5B5FKEYCCGGMM", "current_trial": 74, "dateTime": 1512937399530, "trialdata": {"rt": -1000, "stimulus": "/static/audio/400Hz.wav", "key_press": -1, "type": "PRE_RECALL_ALERT", "trial_type": "single-audio", "trial_index": 74, "time_elapsed": 944460, "internal_node_id": "0.0-56.0"}}, {"uniqueid": "MTK0958:34YB12FSQZVYUM34C5B5FKEYCCGGMM", "current_trial": 75, "dateTime": 1512937459539, "trialdata": {"rt": [2255, 4071, 5951, 8455, 10695, 15856], "recwords": ["coffee", "blender", "brick", "brook", "onion", "rooster"], "type": "FREE_RECALL", "conditions": [18, 1200, "a", 18000], "trial": 1, "trial_type": "free-recall", "trial_index": 75, "time_elapsed": 1004464, "internal_node_id": "0.0-57.0-0.0"}}, {"uniqueid": "MTK0958:34YB12FSQZVYUM34C5B5FKEYCCGGMM", "current_trial": 76, "dateTime": 1512937472347, "trialdata": {"rt": 10798, "key_press": 32, "type": "INSTRUCTIONS", "trial_type": "text", "trial_index": 76, "time_elapsed": 1017270, "internal_node_id": "0.0-58.0"}}, {"uniqueid": "MTK0958:34YB12FSQZVYUM34C5B5FKEYCCGGMM", "current_trial": 77, "dateTime": 1512937497352, "trialdata": {"rt": [3573, 6581, 11558, 13709, 17325, 19317, 22277], "responses": ["25", "11", "17", "9", "20", "12", "14"], "num1": [8, 3, 6, 2, 9, 1, 1, 4], "num2": [7, 3, 2, 6, 8, 5, 8, 4], "num3": [8, 4, 9, 1, 3, 6, 5, 3], "type": "DISTRACTOR", "conditions": [12, 800, "v", 24000], "trial": 2, "trial_type": "math-distractor", "trial_index": 77, "time_elapsed": 1042282, "internal_node_id": "0.0-59.0"}}, {"uniqueid": "MTK0958:34YB12FSQZVYUM34C5B5FKEYCCGGMM", "current_trial": 78, "dateTime": 1512937500356, "trialdata": {"rt": -1, "stimulus": "<p id=\"stim\">10</p>", "key_press": -1, "trial_type": "single-stim", "trial_index": 78, "time_elapsed": 1045286, "internal_node_id": "0.0-60.0-0.0"}}, {"uniqueid": "MTK0958:34YB12FSQZVYUM34C5B5FKEYCCGGMM", "current_trial": 79, "dateTime": 1512937501359, "trialdata": {"rt": -1, "stimulus": "<p id=\"stim\">9</p>", "key_press": -1, "trial_type": "single-stim", "trial_index": 79, "time_elapsed": 1046288, "internal_node_id": "0.0-60.0-1.0"}}, {"uniqueid": "MTK0958:34YB12FSQZVYUM34C5B5FKEYCCGGMM", "current_trial": 80, "dateTime": 1512937502361, "trialdata": {"rt": -1, "stimulus": "<p id=\"stim\">8</p>", "key_press": -1, "trial_type": "single-stim", "trial_index": 80, "time_elapsed": 1047291, "internal_node_id": "0.0-60.0-2.0"}}, {"uniqueid": "MTK0958:34YB12FSQZVYUM34C5B5FKEYCCGGMM", "current_trial": 81, "dateTime": 1512937503363, "trialdata": {"rt": -1, "stimulus": "<p id=\"stim\">7</p>", "key_press": -1, "trial_type": "single-stim", "trial_index": 81, "time_elapsed": 1048293, "internal_node_id": "0.0-60.0-3.0"}}, {"uniqueid": "MTK0958:34YB12FSQZVYUM34C5B5FKEYCCGGMM", "current_trial": 82, "dateTime": 1512937504365, "trialdata": {"rt": -1, "stimulus": "<p id=\"stim\">6</p>", "key_press": -1, "trial_type": "single-stim", "trial_index": 82, "time_elapsed": 1049295, "internal_node_id": "0.0-60.0-4.0"}}, {"uniqueid": "MTK0958:34YB12FSQZVYUM34C5B5FKEYCCGGMM", "current_trial": 83, "dateTime": 1512937505367, "trialdata": {"rt": -1, "stimulus": "<p id=\"stim\">5</p>", "key_press": -1, "trial_type": "single-stim", "trial_index": 83, "time_elapsed": 1050297, "internal_node_id": "0.0-60.0-5.0"}}, {"uniqueid": "MTK0958:34YB12FSQZVYUM34C5B5FKEYCCGGMM", "current_trial": 84, "dateTime": 1512937506370, "trialdata": {"rt": -1, "stimulus": "<p id=\"stim\">4</p>", "key_press": -1, "trial_type": "single-stim", "trial_index": 84, "time_elapsed": 1051300, "internal_node_id": "0.0-60.0-6.0"}}, {"uniqueid": "MTK0958:34YB12FSQZVYUM34C5B5FKEYCCGGMM", "current_trial": 85, "dateTime": 1512937507372, "trialdata": {"rt": -1, "stimulus": "<p id=\"stim\">3</p>", "key_press": -1, "trial_type": "single-stim", "trial_index": 85, "time_elapsed": 1052302, "internal_node_id": "0.0-60.0-7.0"}}, {"uniqueid": "MTK0958:34YB12FSQZVYUM34C5B5FKEYCCGGMM", "current_trial": 86, "dateTime": 1512937508374, "trialdata": {"rt": -1, "stimulus": "<p id=\"stim\">2</p>", "key_press": -1, "trial_type": "single-stim", "trial_index": 86, "time_elapsed": 1053304, "internal_node_id": "0.0-60.0-8.0"}}, {"uniqueid": "MTK0958:34YB12FSQZVYUM34C5B5FKEYCCGGMM", "current_trial": 87, "dateTime": 1512937509375, "trialdata": {"rt": -1, "stimulus": "<p id=\"stim\">1</p>", "key_press": -1, "trial_type": "single-stim", "trial_index": 87, "time_elapsed": 1054305, "internal_node_id": "0.0-60.0-9.0"}}, {"uniqueid": "MTK0958:34YB12FSQZVYUM34C5B5FKEYCCGGMM", "current_trial": 88, "dateTime": 1512937510876, "trialdata": {"rt": -1, "stimulus": "<p id=\"stim\">+</p>", "key_press": -1, "type": "FIXATION", "trial_type": "single-stim", "trial_index": 88, "time_elapsed": 1055806, "internal_node_id": "0.0-61.0-0.0"}}, {"uniqueid": "MTK0958:34YB12FSQZVYUM34C5B5FKEYCCGGMM", "current_trial": 89, "dateTime": 1512937511677, "trialdata": {"rt": -1, "stimulus": "<p id=\"stim\">CUSTARD</p>", "key_press": -1, "type": "PRES_VIS", "word": "custard", "wordID": 428, "conditions": [12, 800, "v", 24000], "trial": 2, "serialpos": 0, "trial_type": "single-stim", "trial_index": 89, "time_elapsed": 1056607, "internal_node_id": "0.0-62.0"}}, {"uniqueid": "MTK0958:34YB12FSQZVYUM34C5B5FKEYCCGGMM", "current_trial": 90, "dateTime": 1512937513539, "trialdata": {"rt": -1, "stimulus": "<p id=\"stim\">LIVER</p>", "key_press": -1, "type": "PRES_VIS", "word": "liver", "wordID": 832, "conditions": [12, 800, "v", 24000], "trial": 2, "serialpos": 1, "trial_type": "single-stim", "trial_index": 90, "time_elapsed": 1058469, "internal_node_id": "0.0-63.0"}}, {"uniqueid": "MTK0958:34YB12FSQZVYUM34C5B5FKEYCCGGMM", "current_trial": 91, "dateTime": 1512937515465, "trialdata": {"rt": -1, "stimulus": "<p id=\"stim\">DONOR</p>", "key_press": -1, "type": "PRES_VIS", "word": "donor", "wordID": 484, "conditions": [12, 800, "v", 24000], "trial": 2, "serialpos": 2, "trial_type": "single-stim", "trial_index": 91, "time_elapsed": 1060395, "internal_node_id": "0.0-64.0"}}, {"uniqueid": "MTK0958:34YB12FSQZVYUM34C5B5FKEYCCGGMM", "current_trial": 92, "dateTime": 1512937517265, "trialdata": {"rt": -1, "stimulus": "<p id=\"stim\">MATTRESS</p>", "key_press": -1, "type": "PRES_VIS", "word": "mattress", "wordID": 878, "conditions": [12, 800, "v", 24000], "trial": 2, "serialpos": 3, "trial_type": "single-stim", "trial_index": 92, "time_elapsed": 1062195, "internal_node_id": "0.0-65.0"}}, {"uniqueid": "MTK0958:34YB12FSQZVYUM34C5B5FKEYCCGGMM", "current_trial": 93, "dateTime": 1512937518976, "trialdata": {"rt": -1, "stimulus": "<p id=\"stim\">CRIB</p>", "key_press": -1, "type": "PRES_VIS", "word": "crib", "wordID": 406, "conditions": [12, 800, "v", 24000], "trial": 2, "serialpos": 4, "trial_type": "single-stim", "trial_index": 93, "time_elapsed": 1063906, "internal_node_id": "0.0-66.0"}}, {"uniqueid": "MTK0958:34YB12FSQZVYUM34C5B5FKEYCCGGMM", "current_trial": 94, "dateTime": 1512937520834, "trialdata": {"rt": -1, "stimulus": "<p id=\"stim\">CRICKET</p>", "key_press": -1, "type": "PRES_VIS", "word": "cricket", "wordID": 407, "conditions": [12, 800, "v", 24000], "trial": 2, "serialpos": 5, "trial_type": "single-stim", "trial_index": 94, "time_elapsed": 1065763, "internal_node_id": "0.0-67.0"}}, {"uniqueid": "MTK0958:34YB12FSQZVYUM34C5B5FKEYCCGGMM", "current_trial": 95, "dateTime": 1512937522591, "trialdata": {"rt": -1, "stimulus": "<p id=\"stim\">MUSTARD</p>", "key_press": -1, "type": "PRES_VIS", "word": "mustard", "wordID": 934, "conditions": [12, 800, "v", 24000], "trial": 2, "serialpos": 6, "trial_type": "single-stim", "trial_index": 95, "time_elapsed": 1067521, "internal_node_id": "0.0-68.0"}}, {"uniqueid": "MTK0958:34YB12FSQZVYUM34C5B5FKEYCCGGMM", "current_trial": 96, "dateTime": 1512937524331, "trialdata": {"rt": -1, "stimulus": "<p id=\"stim\">PLATE</p>", "key_press": -1, "type": "PRES_VIS", "word": "plate", "wordID": 1085, "conditions": [12, 800, "v", 24000], "trial": 2, "serialpos": 7, "trial_type": "single-stim", "trial_index": 96, "time_elapsed": 1069261, "internal_node_id": "0.0-69.0"}}, {"uniqueid": "MTK0958:34YB12FSQZVYUM34C5B5FKEYCCGGMM", "current_trial": 97, "dateTime": 1512937526088, "trialdata": {"rt": -1, "stimulus": "<p id=\"stim\">FRAME</p>", "key_press": -1, "type": "PRES_VIS", "word": "frame", "wordID": 599, "conditions": [12, 800, "v", 24000], "trial": 2, "serialpos": 8, "trial_type": "single-stim", "trial_index": 97, "time_elapsed": 1071018, "internal_node_id": "0.0-70.0"}}, {"uniqueid": "MTK0958:34YB12FSQZVYUM34C5B5FKEYCCGGMM", "current_trial": 98, "dateTime": 1512937527953, "trialdata": {"rt": -1, "stimulus": "<p id=\"stim\">PIZZA</p>", "key_press": -1, "type": "PRES_VIS", "word": "pizza", "wordID": 1078, "conditions": [12, 800, "v", 24000], "trial": 2, "serialpos": 9, "trial_type": "single-stim", "trial_index": 98, "time_elapsed": 1072883, "internal_node_id": "0.0-71.0"}}, {"uniqueid": "MTK0958:34YB12FSQZVYUM34C5B5FKEYCCGGMM", "current_trial": 99, "dateTime": 1512937529726, "trialdata": {"rt": -1, "stimulus": "<p id=\"stim\">XEROX</p>", "key_press": -1, "type": "PRES_VIS", "word": "xerox", "wordID": 1627, "conditions": [12, 800, "v", 24000], "trial": 2, "serialpos": 10, "trial_type": "single-stim", "trial_index": 99, "time_elapsed": 1074655, "internal_node_id": "0.0-72.0"}}, {"uniqueid": "MTK0958:34YB12FSQZVYUM34C5B5FKEYCCGGMM", "current_trial": 100, "dateTime": 1512937531578, "trialdata": {"rt": -1, "stimulus": "<p id=\"stim\">KIDNEY</p>", "key_press": -1, "type": "PRES_VIS", "word": "kidney", "wordID": 775, "conditions": [12, 800, "v", 24000], "trial": 2, "serialpos": 11, "trial_type": "single-stim", "trial_index": 100, "time_elapsed": 1076508, "internal_node_id": "0.0-73.0"}}, {"uniqueid": "MTK0958:34YB12FSQZVYUM34C5B5FKEYCCGGMM", "current_trial": 101, "dateTime": 1512937533730, "trialdata": {"rt": -1, "stimulus": "", "key_press": -1, "type": "PRE_RECALL_DELAY", "trial_type": "single-stim", "trial_index": 101, "time_elapsed": 1078660, "internal_node_id": "0.0-74.0-0.0"}}, {"uniqueid": "MTK0958:34YB12FSQZVYUM34C5B5FKEYCCGGMM", "current_trial": 102, "dateTime": 1512937534231, "trialdata": {"rt": -1000, "stimulus": "/static/audio/400Hz.wav", "key_press": -1, "type": "PRE_RECALL_ALERT", "trial_type": "single-audio", "trial_index": 102, "time_elapsed": 1079161, "internal_node_id": "0.0-75.0"}}, {"uniqueid": "MTK0958:34YB12FSQZVYUM34C5B5FKEYCCGGMM", "current_trial": 103, "dateTime": 1512937594236, "trialdata": {"rt": [2074, 3530, 5203, 6922, 8986, 11090, 12786, 17314], "recwords": ["kidney", "liver", "onion", "mustard", "plate", "kidney", "mattress", "crib"], "type": "FREE_RECALL", "conditions": [12, 800, "v", 24000], "trial": 2, "trial_type": "free-recall", "trial_index": 103, "time_elapsed": 1139164, "internal_node_id": "0.0-76.0-0.0"}}, {"uniqueid": "MTK0958:34YB12FSQZVYUM34C5B5FKEYCCGGMM", "current_trial": 104, "dateTime": 1512937601140, "trialdata": {"rt": 4901, "key_press": 32, "type": "INSTRUCTIONS", "trial_type": "text", "trial_index": 104, "time_elapsed": 1146070, "internal_node_id": "0.0-77.0"}}, {"uniqueid": "MTK0958:34YB12FSQZVYUM34C5B5FKEYCCGGMM", "current_trial": 105, "dateTime": 1512937627146, "trialdata": {"rt": [2033, 4153, 5928, 9681, 12160, 15056, 18193, 20705, 23185], "responses": ["18", "24", "17", "14", "12", "13", "16", "11", "13"], "num1": [7, 8, 9, 5, 2, 2, 6, 3, 2, 4], "num2": [3, 8, 1, 8, 4, 9, 2, 3, 8, 5], "num3": [8, 8, 7, 1, 6, 2, 7, 5, 3, 3], "type": "DISTRACTOR", "conditions": [12, 800, "a", 24000], "trial": 3, "trial_type": "math-distractor", "trial_index": 105, "time_elapsed": 1172076, "internal_node_id": "0.0-78.0"}}, {"uniqueid": "MTK0958:34YB12FSQZVYUM34C5B5FKEYCCGGMM", "current_trial": 106, "dateTime": 1512937630150, "trialdata": {"rt": -1, "stimulus": "<p id=\"stim\">10</p>", "key_press": -1, "trial_type": "single-stim", "trial_index": 106, "time_elapsed": 1175080, "internal_node_id": "0.0-79.0-0.0"}}, {"uniqueid": "MTK0958:34YB12FSQZVYUM34C5B5FKEYCCGGMM", "current_trial": 107, "dateTime": 1512937631153, "trialdata": {"rt": -1, "stimulus": "<p id=\"stim\">9</p>", "key_press": -1, "trial_type": "single-stim", "trial_index": 107, "time_elapsed": 1176082, "internal_node_id": "0.0-79.0-1.0"}}, {"uniqueid": "MTK0958:34YB12FSQZVYUM34C5B5FKEYCCGGMM", "current_trial": 108, "dateTime": 1512937632155, "trialdata": {"rt": -1, "stimulus": "<p id=\"stim\">8</p>", "key_press": -1, "trial_type": "single-stim", "trial_index": 108, "time_elapsed": 1177084, "internal_node_id": "0.0-79.0-2.0"}}, {"uniqueid": "MTK0958:34YB12FSQZVYUM34C5B5FKEYCCGGMM", "current_trial": 109, "dateTime": 1512937633157, "trialdata": {"rt": -1, "stimulus": "<p id=\"stim\">7</p>", "key_press": -1, "trial_type": "single-stim", "trial_index": 109, "time_elapsed": 1178087, "internal_node_id": "0.0-79.0-3.0"}}, {"uniqueid": "MTK0958:34YB12FSQZVYUM34C5B5FKEYCCGGMM", "current_trial": 110, "dateTime": 1512937634158, "trialdata": {"rt": -1, "stimulus": "<p id=\"stim\">6</p>", "key_press": -1, "trial_type": "single-stim", "trial_index": 110, "time_elapsed": 1179088, "internal_node_id": "0.0-79.0-4.0"}}, {"uniqueid": "MTK0958:34YB12FSQZVYUM34C5B5FKEYCCGGMM", "current_trial": 111, "dateTime": 1512937635160, "trialdata": {"rt": -1, "stimulus": "<p id=\"stim\">5</p>", "key_press": -1, "trial_type": "single-stim", "trial_index": 111, "time_elapsed": 1180090, "internal_node_id": "0.0-79.0-5.0"}}, {"uniqueid": "MTK0958:34YB12FSQZVYUM34C5B5FKEYCCGGMM", "current_trial": 112, "dateTime": 1512937636162, "trialdata": {"rt": -1, "stimulus": "<p id=\"stim\">4</p>", "key_press": -1, "trial_type": "single-stim", "trial_index": 112, "time_elapsed": 1181092, "internal_node_id": "0.0-79.0-6.0"}}, {"uniqueid": "MTK0958:34YB12FSQZVYUM34C5B5FKEYCCGGMM", "current_trial": 113, "dateTime": 1512937637164, "trialdata": {"rt": -1, "stimulus": "<p id=\"stim\">3</p>", "key_press": -1, "trial_type": "single-stim", "trial_index": 113, "time_elapsed": 1182094, "internal_node_id": "0.0-79.0-7.0"}}, {"uniqueid": "MTK0958:34YB12FSQZVYUM34C5B5FKEYCCGGMM", "current_trial": 114, "dateTime": 1512937638167, "trialdata": {"rt": -1, "stimulus": "<p id=\"stim\">2</p>", "key_press": -1, "trial_type": "single-stim", "trial_index": 114, "time_elapsed": 1183097, "internal_node_id": "0.0-79.0-8.0"}}, {"uniqueid": "MTK0958:34YB12FSQZVYUM34C5B5FKEYCCGGMM", "current_trial": 115, "dateTime": 1512937639169, "trialdata": {"rt": -1, "stimulus": "<p id=\"stim\">1</p>", "key_press": -1, "trial_type": "single-stim", "trial_index": 115, "time_elapsed": 1184099, "internal_node_id": "0.0-79.0-9.0"}}, {"uniqueid": "MTK0958:34YB12FSQZVYUM34C5B5FKEYCCGGMM", "current_trial": 116, "dateTime": 1512937640671, "trialdata": {"rt": -1, "stimulus": "<p id=\"stim\">+</p>", "key_press": -1, "type": "FIXATION", "trial_type": "single-stim", "trial_index": 116, "time_elapsed": 1185600, "internal_node_id": "0.0-80.0-0.0"}}, {"uniqueid": "MTK0958:34YB12FSQZVYUM34C5B5FKEYCCGGMM", "current_trial": 117, "dateTime": 1512937642610, "trialdata": {"rt": -1000, "stimulus": "/static/audio/wordpool/ROCKET.wav", "key_press": -1, "type": "PRES_AUD", "word": "rocket", "wordID": 1201, "conditions": [12, 800, "a", 24000], "trial": 3, "serialpos": 0, "trial_type": "single-audio", "trial_index": 117, "time_elapsed": 1187540, "internal_node_id": "0.0-81.0"}}, {"uniqueid": "MTK0958:34YB12FSQZVYUM34C5B5FKEYCCGGMM", "current_trial": 118, "dateTime": 1512937644264, "trialdata": {"rt": -1000, "stimulus": "/static/audio/wordpool/BADGE.wav", "key_press": -1, "type": "PRES_AUD", "word": "badge", "wordID": 67, "conditions": [12, 800, "a", 24000], "trial": 3, "serialpos": 1, "trial_type": "single-audio", "trial_index": 118, "time_elapsed": 1189194, "internal_node_id": "0.0-82.0"}}, {"uniqueid": "MTK0958:34YB12FSQZVYUM34C5B5FKEYCCGGMM", "current_trial": 119, "dateTime": 1512937646120, "trialdata": {"rt": -1000, "stimulus": "/static/audio/wordpool/MUFFIN.wav", "key_press": -1, "type": "PRES_AUD", "word": "muffin", "wordID": 928, "conditions": [12, 800, "a", 24000], "trial": 3, "serialpos": 2, "trial_type": "single-audio", "trial_index": 119, "time_elapsed": 1191049, "internal_node_id": "0.0-83.0"}}, {"uniqueid": "MTK0958:34YB12FSQZVYUM34C5B5FKEYCCGGMM", "current_trial": 120, "dateTime": 1512937647919, "trialdata": {"rt": -1000, "stimulus": "/static/audio/wordpool/MARROW.wav", "key_press": -1, "type": "PRES_AUD", "word": "marrow", "wordID": 871, "conditions": [12, 800, "a", 24000], "trial": 3, "serialpos": 3, "trial_type": "single-audio", "trial_index": 120, "time_elapsed": 1192849, "internal_node_id": "0.0-84.0"}}, {"uniqueid": "MTK0958:34YB12FSQZVYUM34C5B5FKEYCCGGMM", "current_trial": 121, "dateTime": 1512937649835, "trialdata": {"rt": -1000, "stimulus": "/static/audio/wordpool/OMELET.wav", "key_press": -1, "type": "PRES_AUD", "word": "omelet", "wordID": 975, "conditions": [12, 800, "a", 24000], "trial": 3, "serialpos": 4, "trial_type": "single-audio", "trial_index": 121, "time_elapsed": 1194764, "internal_node_id": "0.0-85.0"}}, {"uniqueid": "MTK0958:34YB12FSQZVYUM34C5B5FKEYCCGGMM", "current_trial": 122, "dateTime": 1512937651594, "trialdata": {"rt": -1000, "stimulus": "/static/audio/wordpool/BACON.wav", "key_press": -1, "type": "PRES_AUD", "word": "bacon", "wordID": 66, "conditions": [12, 800, "a", 24000], "trial": 3, "serialpos": 5, "trial_type": "single-audio", "trial_index": 122, "time_elapsed": 1196524, "internal_node_id": "0.0-86.0"}}, {"uniqueid": "MTK0958:34YB12FSQZVYUM34C5B5FKEYCCGGMM", "current_trial": 123, "dateTime": 1512937653217, "trialdata": {"rt": -1000, "stimulus": "/static/audio/wordpool/CABIN.wav", "key_press": -1, "type": "PRES_AUD", "word": "cabin", "wordID": 210, "conditions": [12, 800, "a", 24000], "trial": 3, "serialpos": 6, "trial_type": "single-audio", "trial_index": 123, "time_elapsed": 1198147, "internal_node_id": "0.0-87.0"}}, {"uniqueid": "MTK0958:34YB12FSQZVYUM34C5B5FKEYCCGGMM", "current_trial": 124, "dateTime": 1512937655187, "trialdata": {"rt": -1000, "stimulus": "/static/audio/wordpool/SUBWAY.wav", "key_press": -1, "type": "PRES_AUD", "word": "subway", "wordID": 1399, "conditions": [12, 800, "a", 24000], "trial": 3, "serialpos": 7, "trial_type": "single-audio", "trial_index": 124, "time_elapsed": 1200117, "internal_node_id": "0.0-88.0"}}, {"uniqueid": "MTK0958:34YB12FSQZVYUM34C5B5FKEYCCGGMM", "current_trial": 125, "dateTime": 1512937657186, "trialdata": {"rt": -1000, "stimulus": "/static/audio/wordpool/BLOCKADE.wav", "key_press": -1, "type": "PRES_AUD", "word": "blockade", "wordID": 136, "conditions": [12, 800, "a", 24000], "trial": 3, "serialpos": 8, "trial_type": "single-audio", "trial_index": 125, "time_elapsed": 1202116, "internal_node_id": "0.0-89.0"}}, {"uniqueid": "MTK0958:34YB12FSQZVYUM34C5B5FKEYCCGGMM", "current_trial": 126, "dateTime": 1512937658996, "trialdata": {"rt": -1000, "stimulus": "/static/audio/wordpool/TART.wav", "key_press": -1, "type": "PRES_AUD", "word": "tart", "wordID": 1435, "conditions": [12, 800, "a", 24000], "trial": 3, "serialpos": 9, "trial_type": "single-audio", "trial_index": 126, "time_elapsed": 1203926, "internal_node_id": "0.0-90.0"}}, {"uniqueid": "MTK0958:34YB12FSQZVYUM34C5B5FKEYCCGGMM", "current_trial": 127, "dateTime": 1512937660806, "trialdata": {"rt": -1000, "stimulus": "/static/audio/wordpool/STICKER.wav", "key_press": -1, "type": "PRES_AUD", "word": "sticker", "wordID": 1381, "conditions": [12, 800, "a", 24000], "trial": 3, "serialpos": 10, "trial_type": "single-audio", "trial_index": 127, "time_elapsed": 1205736, "internal_node_id": "0.0-91.0"}}, {"uniqueid": "MTK0958:34YB12FSQZVYUM34C5B5FKEYCCGGMM", "current_trial": 128, "dateTime": 1512937662686, "trialdata": {"rt": -1000, "stimulus": "/static/audio/wordpool/CANAL.wav", "key_press": -1, "type": "PRES_AUD", "word": "canal", "wordID": 225, "conditions": [12, 800, "a", 24000], "trial": 3, "serialpos": 11, "trial_type": "single-audio", "trial_index": 128, "time_elapsed": 1207615, "internal_node_id": "0.0-92.0"}}, {"uniqueid": "MTK0958:34YB12FSQZVYUM34C5B5FKEYCCGGMM", "current_trial": 129, "dateTime": 1512937664033, "trialdata": {"rt": -1, "stimulus": "", "key_press": -1, "type": "PRE_RECALL_DELAY", "trial_type": "single-stim", "trial_index": 129, "time_elapsed": 1208963, "internal_node_id": "0.0-93.0-0.0"}}, {"uniqueid": "MTK0958:34YB12FSQZVYUM34C5B5FKEYCCGGMM", "current_trial": 130, "dateTime": 1512937664535, "trialdata": {"rt": -1000, "stimulus": "/static/audio/400Hz.wav", "key_press": -1, "type": "PRE_RECALL_ALERT", "trial_type": "single-audio", "trial_index": 130, "time_elapsed": 1209465, "internal_node_id": "0.0-94.0"}}, {"uniqueid": "MTK0958:34YB12FSQZVYUM34C5B5FKEYCCGGMM", "current_trial": 131, "dateTime": 1512937724543, "trialdata": {"rt": [2498, 4506, 6026, 7283, 9002], "recwords": ["locket", "bacon", "sticker", "tart", "canal"], "type": "FREE_RECALL", "conditions": [12, 800, "a", 24000], "trial": 3, "trial_type": "free-recall", "trial_index": 131, "time_elapsed": 1269468, "internal_node_id": "0.0-95.0-0.0"}}, {"uniqueid": "MTK0958:34YB12FSQZVYUM34C5B5FKEYCCGGMM", "current_trial": 132, "dateTime": 1512937833035, "trialdata": {"rt": 106490, "key_press": 32, "type": "INSTRUCTIONS", "trial_type": "text", "trial_index": 132, "time_elapsed": 1377965, "internal_node_id": "0.0-96.0"}}, {"uniqueid": "MTK0958:34YB12FSQZVYUM34C5B5FKEYCCGGMM", "current_trial": 133, "dateTime": 1512937847039, "trialdata": {"rt": [2572, 4836, 7029, 9501], "responses": ["16", "9", "12", "16"], "num1": [2, 1, 5, 6, 4], "num2": [8, 5, 1, 1, 7], "num3": [6, 3, 6, 9, 5], "type": "DISTRACTOR", "conditions": [12, 800, "v", 12000], "trial": 4, "trial_type": "math-distractor", "trial_index": 133, "time_elapsed": 1391968, "internal_node_id": "0.0-97.0"}}, {"uniqueid": "MTK0958:34YB12FSQZVYUM34C5B5FKEYCCGGMM", "current_trial": 134, "dateTime": 1512937850043, "trialdata": {"rt": -1, "stimulus": "<p id=\"stim\">10</p>", "key_press": -1, "trial_type": "single-stim", "trial_index": 134, "time_elapsed": 1394972, "internal_node_id": "0.0-98.0-0.0"}}, {"uniqueid": "MTK0958:34YB12FSQZVYUM34C5B5FKEYCCGGMM", "current_trial": 135, "dateTime": 1512937851044, "trialdata": {"rt": -1, "stimulus": "<p id=\"stim\">9</p>", "key_press": -1, "trial_type": "single-stim", "trial_index": 135, "time_elapsed": 1395974, "internal_node_id": "0.0-98.0-1.0"}}, {"uniqueid": "MTK0958:34YB12FSQZVYUM34C5B5FKEYCCGGMM", "current_trial": 136, "dateTime": 1512937852046, "trialdata": {"rt": -1, "stimulus": "<p id=\"stim\">8</p>", "key_press": -1, "trial_type": "single-stim", "trial_index": 136, "time_elapsed": 1396976, "internal_node_id": "0.0-98.0-2.0"}}, {"uniqueid": "MTK0958:34YB12FSQZVYUM34C5B5FKEYCCGGMM", "current_trial": 137, "dateTime": 1512937853049, "trialdata": {"rt": -1, "stimulus": "<p id=\"stim\">7</p>", "key_press": -1, "trial_type": "single-stim", "trial_index": 137, "time_elapsed": 1397979, "internal_node_id": "0.0-98.0-3.0"}}, {"uniqueid": "MTK0958:34YB12FSQZVYUM34C5B5FKEYCCGGMM", "current_trial": 138, "dateTime": 1512937854050, "trialdata": {"rt": -1, "stimulus": "<p id=\"stim\">6</p>", "key_press": -1, "trial_type": "single-stim", "trial_index": 138, "time_elapsed": 1398980, "internal_node_id": "0.0-98.0-4.0"}}, {"uniqueid": "MTK0958:34YB12FSQZVYUM34C5B5FKEYCCGGMM", "current_trial": 139, "dateTime": 1512937855051, "trialdata": {"rt": -1, "stimulus": "<p id=\"stim\">5</p>", "key_press": -1, "trial_type": "single-stim", "trial_index": 139, "time_elapsed": 1399981, "internal_node_id": "0.0-98.0-5.0"}}, {"uniqueid": "MTK0958:34YB12FSQZVYUM34C5B5FKEYCCGGMM", "current_trial": 140, "dateTime": 1512937856054, "trialdata": {"rt": -1, "stimulus": "<p id=\"stim\">4</p>", "key_press": -1, "trial_type": "single-stim", "trial_index": 140, "time_elapsed": 1400983, "internal_node_id": "0.0-98.0-6.0"}}, {"uniqueid": "MTK0958:34YB12FSQZVYUM34C5B5FKEYCCGGMM", "current_trial": 141, "dateTime": 1512937857055, "trialdata": {"rt": -1, "stimulus": "<p id=\"stim\">3</p>", "key_press": -1, "trial_type": "single-stim", "trial_index": 141, "time_elapsed": 1401985, "internal_node_id": "0.0-98.0-7.0"}}, {"uniqueid": "MTK0958:34YB12FSQZVYUM34C5B5FKEYCCGGMM", "current_trial": 142, "dateTime": 1512937858057, "trialdata": {"rt": -1, "stimulus": "<p id=\"stim\">2</p>", "key_press": -1, "trial_type": "single-stim", "trial_index": 142, "time_elapsed": 1402987, "internal_node_id": "0.0-98.0-8.0"}}, {"uniqueid": "MTK0958:34YB12FSQZVYUM34C5B5FKEYCCGGMM", "current_trial": 143, "dateTime": 1512937859060, "trialdata": {"rt": -1, "stimulus": "<p id=\"stim\">1</p>", "key_press": -1, "trial_type": "single-stim", "trial_index": 143, "time_elapsed": 1403989, "internal_node_id": "0.0-98.0-9.0"}}, {"uniqueid": "MTK0958:34YB12FSQZVYUM34C5B5FKEYCCGGMM", "current_trial": 144, "dateTime": 1512937860562, "trialdata": {"rt": -1, "stimulus": "<p id=\"stim\">+</p>", "key_press": -1, "type": "FIXATION", "trial_type": "single-stim", "trial_index": 144, "time_elapsed": 1405492, "internal_node_id": "0.0-99.0-0.0"}}, {"uniqueid": "MTK0958:34YB12FSQZVYUM34C5B5FKEYCCGGMM", "current_trial": 145, "dateTime": 1512937861363, "trialdata": {"rt": -1, "stimulus": "<p id=\"stim\">COMPASS</p>", "key_press": -1, "type": "PRES_VIS", "word": "compass", "wordID": 357, "conditions": [12, 800, "v", 12000], "trial": 4, "serialpos": 0, "trial_type": "single-stim", "trial_index": 145, "time_elapsed": 1406293, "internal_node_id": "0.0-100.0"}}, {"uniqueid": "MTK0958:34YB12FSQZVYUM34C5B5FKEYCCGGMM", "current_trial": 146, "dateTime": 1512937863052, "trialdata": {"rt": -1, "stimulus": "<p id=\"stim\">DRESS</p>", "key_press": -1, "type": "PRES_VIS", "word": "dress", "wordID": 494, "conditions": [12, 800, "v", 12000], "trial": 4, "serialpos": 1, "trial_type": "single-stim", "trial_index": 146, "time_elapsed": 1407982, "internal_node_id": "0.0-101.0"}}, {"uniqueid": "MTK0958:34YB12FSQZVYUM34C5B5FKEYCCGGMM", "current_trial": 147, "dateTime": 1512937864778, "trialdata": {"rt": -1, "stimulus": "<p id=\"stim\">FOREST</p>", "key_press": -1, "type": "PRES_VIS", "word": "forest", "wordID": 592, "conditions": [12, 800, "v", 12000], "trial": 4, "serialpos": 2, "trial_type": "single-stim", "trial_index": 147, "time_elapsed": 1409707, "internal_node_id": "0.0-102.0"}}, {"uniqueid": "MTK0958:34YB12FSQZVYUM34C5B5FKEYCCGGMM", "current_trial": 148, "dateTime": 1512937866460, "trialdata": {"rt": -1, "stimulus": "<p id=\"stim\">TRUCK</p>", "key_press": -1, "type": "PRES_VIS", "word": "truck", "wordID": 1511, "conditions": [12, 800, "v", 12000], "trial": 4, "serialpos": 3, "trial_type": "single-stim", "trial_index": 148, "time_elapsed": 1411390, "internal_node_id": "0.0-103.0"}}, {"uniqueid": "MTK0958:34YB12FSQZVYUM34C5B5FKEYCCGGMM", "current_trial": 149, "dateTime": 1512937868265, "trialdata": {"rt": -1, "stimulus": "<p id=\"stim\">WAGON</p>", "key_press": -1, "type": "PRES_VIS", "word": "wagon", "wordID": 1577, "conditions": [12, 800, "v", 12000], "trial": 4, "serialpos": 4, "trial_type": "single-stim", "trial_index": 149, "time_elapsed": 1413195, "internal_node_id": "0.0-104.0"}}, {"uniqueid": "MTK0958:34YB12FSQZVYUM34C5B5FKEYCCGGMM", "current_trial": 150, "dateTime": 1512937870047, "trialdata": {"rt": -1, "stimulus": "<p id=\"stim\">QUAIL</p>", "key_press": -1, "type": "PRES_VIS", "word": "quail", "wordID": 1146, "conditions": [12, 800, "v", 12000], "trial": 4, "serialpos": 5, "trial_type": "single-stim", "trial_index": 150, "time_elapsed": 1414977, "internal_node_id": "0.0-105.0"}}, {"uniqueid": "MTK0958:34YB12FSQZVYUM34C5B5FKEYCCGGMM", "current_trial": 151, "dateTime": 1512937871733, "trialdata": {"rt": -1, "stimulus": "<p id=\"stim\">PISTON</p>", "key_press": -1, "type": "PRES_VIS", "word": "piston", "wordID": 1075, "conditions": [12, 800, "v", 12000], "trial": 4, "serialpos": 6, "trial_type": "single-stim", "trial_index": 151, "time_elapsed": 1416662, "internal_node_id": "0.0-106.0"}}, {"uniqueid": "MTK0958:34YB12FSQZVYUM34C5B5FKEYCCGGMM", "current_trial": 152, "dateTime": 1512937873686, "trialdata": {"rt": -1, "stimulus": "<p id=\"stim\">DRUG</p>", "key_press": -1, "type": "PRES_VIS", "word": "drug", "wordID": 500, "conditions": [12, 800, "v", 12000], "trial": 4, "serialpos": 7, "trial_type": "single-stim", "trial_index": 152, "time_elapsed": 1418616, "internal_node_id": "0.0-107.0"}}, {"uniqueid": "MTK0958:34YB12FSQZVYUM34C5B5FKEYCCGGMM", "current_trial": 153, "dateTime": 1512937875315, "trialdata": {"rt": -1, "stimulus": "<p id=\"stim\">PEANUT</p>", "key_press": -1, "type": "PRES_VIS", "word": "peanut", "wordID": 1031, "conditions": [12, 800, "v", 12000], "trial": 4, "serialpos": 8, "trial_type": "single-stim", "trial_index": 153, "time_elapsed": 1420245, "internal_node_id": "0.0-108.0"}}, {"uniqueid": "MTK0958:34YB12FSQZVYUM34C5B5FKEYCCGGMM", "current_trial": 154, "dateTime": 1512937877144, "trialdata": {"rt": -1, "stimulus": "<p id=\"stim\">VALVE</p>", "key_press": -1, "type": "PRES_VIS", "word": "valve", "wordID": 1545, "conditions": [12, 800, "v", 12000], "trial": 4, "serialpos": 9, "trial_type": "single-stim", "trial_index": 154, "time_elapsed": 1422074, "internal_node_id": "0.0-109.0"}}, {"uniqueid": "MTK0958:34YB12FSQZVYUM34C5B5FKEYCCGGMM", "current_trial": 155, "dateTime": 1512937878836, "trialdata": {"rt": -1, "stimulus": "<p id=\"stim\">SEAGULL</p>", "key_press": -1, "type": "PRES_VIS", "word": "seagull", "wordID": 1260, "conditions": [12, 800, "v", 12000], "trial": 4, "serialpos": 10, "trial_type": "single-stim", "trial_index": 155, "time_elapsed": 1423765, "internal_node_id": "0.0-110.0"}}, {"uniqueid": "MTK0958:34YB12FSQZVYUM34C5B5FKEYCCGGMM", "current_trial": 156, "dateTime": 1512937880568, "trialdata": {"rt": -1, "stimulus": "<p id=\"stim\">TAXI</p>", "key_press": -1, "type": "PRES_VIS", "word": "taxi", "wordID": 1437, "conditions": [12, 800, "v", 12000], "trial": 4, "serialpos": 11, "trial_type": "single-stim", "trial_index": 156, "time_elapsed": 1425498, "internal_node_id": "0.0-111.0"}}, {"uniqueid": "MTK0958:34YB12FSQZVYUM34C5B5FKEYCCGGMM", "current_trial": 157, "dateTime": 1512937882762, "trialdata": {"rt": -1, "stimulus": "", "key_press": -1, "type": "PRE_RECALL_DELAY", "trial_type": "single-stim", "trial_index": 157, "time_elapsed": 1427692, "internal_node_id": "0.0-112.0-0.0"}}, {"uniqueid": "MTK0958:34YB12FSQZVYUM34C5B5FKEYCCGGMM", "current_trial": 158, "dateTime": 1512937883263, "trialdata": {"rt": -1000, "stimulus": "/static/audio/400Hz.wav", "key_press": -1, "type": "PRE_RECALL_ALERT", "trial_type": "single-audio", "trial_index": 158, "time_elapsed": 1428193, "internal_node_id": "0.0-113.0"}}, {"uniqueid": "MTK0958:34YB12FSQZVYUM34C5B5FKEYCCGGMM", "current_trial": 159, "dateTime": 1512937943272, "trialdata": {"rt": [1808, 3472, 4672, 6000, 7648, 9120, 12017, 15145], "recwords": ["taxi", "seagull", "peanut", "truck", "wagon", "compass", "piston", "quail"], "type": "FREE_RECALL", "conditions": [12, 800, "v", 12000], "trial": 4, "trial_type": "free-recall", "trial_index": 159, "time_elapsed": 1488197, "internal_node_id": "0.0-114.0-0.0"}}, {"uniqueid": "MTK0958:34YB12FSQZVYUM34C5B5FKEYCCGGMM", "current_trial": 160, "dateTime": 1512937953014, "trialdata": {"rt": 7741, "key_press": 32, "type": "INSTRUCTIONS", "trial_type": "text", "trial_index": 160, "time_elapsed": 1497944, "internal_node_id": "0.0-115.0"}}, {"uniqueid": "MTK0958:34YB12FSQZVYUM34C5B5FKEYCCGGMM", "current_trial": 161, "dateTime": 1512937979019, "trialdata": {"rt": [4088, 6944, 9599, 12344, 15472, 18071, 21215, 23967], "responses": ["13", "14", "12", "14", "18", "21", "21", "14"], "num1": [2, 7, 1, 7, 3, 3, 8, 3, 1], "num2": [7, 5, 6, 6, 8, 9, 5, 6, 9], "num3": [4, 2, 5, 1, 7, 9, 8, 5, 4], "type": "DISTRACTOR", "conditions": [24, 1600, "v", 24000], "trial": 5, "trial_type": "math-distractor", "trial_index": 161, "time_elapsed": 1523949, "internal_node_id": "0.0-116.0"}}, {"uniqueid": "MTK0958:34YB12FSQZVYUM34C5B5FKEYCCGGMM", "current_trial": 162, "dateTime": 1512937982023, "trialdata": {"rt": -1, "stimulus": "<p id=\"stim\">10</p>", "key_press": -1, "trial_type": "single-stim", "trial_index": 162, "time_elapsed": 1526953, "internal_node_id": "0.0-117.0-0.0"}}, {"uniqueid": "MTK0958:34YB12FSQZVYUM34C5B5FKEYCCGGMM", "current_trial": 163, "dateTime": 1512937983026, "trialdata": {"rt": -1, "stimulus": "<p id=\"stim\">9</p>", "key_press": -1, "trial_type": "single-stim", "trial_index": 163, "time_elapsed": 1527955, "internal_node_id": "0.0-117.0-1.0"}}, {"uniqueid": "MTK0958:34YB12FSQZVYUM34C5B5FKEYCCGGMM", "current_trial": 164, "dateTime": 1512937984027, "trialdata": {"rt": -1, "stimulus": "<p id=\"stim\">8</p>", "key_press": -1, "trial_type": "single-stim", "trial_index": 164, "time_elapsed": 1528957, "internal_node_id": "0.0-117.0-2.0"}}, {"uniqueid": "MTK0958:34YB12FSQZVYUM34C5B5FKEYCCGGMM", "current_trial": 165, "dateTime": 1512937985028, "trialdata": {"rt": -1, "stimulus": "<p id=\"stim\">7</p>", "key_press": -1, "trial_type": "single-stim", "trial_index": 165, "time_elapsed": 1529958, "internal_node_id": "0.0-117.0-3.0"}}, {"uniqueid": "MTK0958:34YB12FSQZVYUM34C5B5FKEYCCGGMM", "current_trial": 166, "dateTime": 1512937986029, "trialdata": {"rt": -1, "stimulus": "<p id=\"stim\">6</p>", "key_press": -1, "trial_type": "single-stim", "trial_index": 166, "time_elapsed": 1530959, "internal_node_id": "0.0-117.0-4.0"}}, {"uniqueid": "MTK0958:34YB12FSQZVYUM34C5B5FKEYCCGGMM", "current_trial": 167, "dateTime": 1512937987033, "trialdata": {"rt": -1, "stimulus": "<p id=\"stim\">5</p>", "key_press": -1, "trial_type": "single-stim", "trial_index": 167, "time_elapsed": 1531962, "internal_node_id": "0.0-117.0-5.0"}}, {"uniqueid": "MTK0958:34YB12FSQZVYUM34C5B5FKEYCCGGMM", "current_trial": 168, "dateTime": 1512937988034, "trialdata": {"rt": -1, "stimulus": "<p id=\"stim\">4</p>", "key_press": -1, "trial_type": "single-stim", "trial_index": 168, "time_elapsed": 1532964, "internal_node_id": "0.0-117.0-6.0"}}, {"uniqueid": "MTK0958:34YB12FSQZVYUM34C5B5FKEYCCGGMM", "current_trial": 169, "dateTime": 1512937989035, "trialdata": {"rt": -1, "stimulus": "<p id=\"stim\">3</p>", "key_press": -1, "trial_type": "single-stim", "trial_index": 169, "time_elapsed": 1533965, "internal_node_id": "0.0-117.0-7.0"}}, {"uniqueid": "MTK0958:34YB12FSQZVYUM34C5B5FKEYCCGGMM", "current_trial": 170, "dateTime": 1512937990036, "trialdata": {"rt": -1, "stimulus": "<p id=\"stim\">2</p>", "key_press": -1, "trial_type": "single-stim", "trial_index": 170, "time_elapsed": 1534966, "internal_node_id": "0.0-117.0-8.0"}}, {"uniqueid": "MTK0958:34YB12FSQZVYUM34C5B5FKEYCCGGMM", "current_trial": 171, "dateTime": 1512937991037, "trialdata": {"rt": -1, "stimulus": "<p id=\"stim\">1</p>", "key_press": -1, "trial_type": "single-stim", "trial_index": 171, "time_elapsed": 1535967, "internal_node_id": "0.0-117.0-9.0"}}, {"uniqueid": "MTK0958:34YB12FSQZVYUM34C5B5FKEYCCGGMM", "current_trial": 172, "dateTime": 1512937992539, "trialdata": {"rt": -1, "stimulus": "<p id=\"stim\">+</p>", "key_press": -1, "type": "FIXATION", "trial_type": "single-stim", "trial_index": 172, "time_elapsed": 1537469, "internal_node_id": "0.0-118.0-0.0"}}, {"uniqueid": "MTK0958:34YB12FSQZVYUM34C5B5FKEYCCGGMM", "current_trial": 173, "dateTime": 1512937994142, "trialdata": {"rt": -1, "stimulus": "<p id=\"stim\">WOMAN</p>", "key_press": -1, "type": "PRES_VIS", "word": "woman", "wordID": 1619, "conditions": [24, 1600, "v", 24000], "trial": 5, "serialpos": 0, "trial_type": "single-stim", "trial_index": 173, "time_elapsed": 1539072, "internal_node_id": "0.0-119.0"}}, {"uniqueid": "MTK0958:34YB12FSQZVYUM34C5B5FKEYCCGGMM", "current_trial": 174, "dateTime": 1512937996732, "trialdata": {"rt": -1, "stimulus": "<p id=\"stim\">SWAMP</p>", "key_press": -1, "type": "PRES_VIS", "word": "swamp", "wordID": 1415, "conditions": [24, 1600, "v", 24000], "trial": 5, "serialpos": 1, "trial_type": "single-stim", "trial_index": 174, "time_elapsed": 1541661, "internal_node_id": "0.0-120.0"}}, {"uniqueid": "MTK0958:34YB12FSQZVYUM34C5B5FKEYCCGGMM", "current_trial": 175, "dateTime": 1512937999520, "trialdata": {"rt": -1, "stimulus": "<p id=\"stim\">PIMPLE</p>", "key_press": -1, "type": "PRES_VIS", "word": "pimple", "wordID": 1070, "conditions": [24, 1600, "v", 24000], "trial": 5, "serialpos": 2, "trial_type": "single-stim", "trial_index": 175, "time_elapsed": 1544450, "internal_node_id": "0.0-121.0"}}, {"uniqueid": "MTK0958:34YB12FSQZVYUM34C5B5FKEYCCGGMM", "current_trial": 176, "dateTime": 1512938002218, "trialdata": {"rt": -1, "stimulus": "<p id=\"stim\">SPOON</p>", "key_press": -1, "type": "PRES_VIS", "word": "spoon", "wordID": 1356, "conditions": [24, 1600, "v", 24000], "trial": 5, "serialpos": 3, "trial_type": "single-stim", "trial_index": 176, "time_elapsed": 1547148, "internal_node_id": "0.0-122.0"}}, {"uniqueid": "MTK0958:34YB12FSQZVYUM34C5B5FKEYCCGGMM", "current_trial": 177, "dateTime": 1512938004754, "trialdata": {"rt": -1, "stimulus": "<p id=\"stim\">SKILLET</p>", "key_press": -1, "type": "PRES_VIS", "word": "skillet", "wordID": 1316, "conditions": [24, 1600, "v", 24000], "trial": 5, "serialpos": 4, "trial_type": "single-stim", "trial_index": 177, "time_elapsed": 1549684, "internal_node_id": "0.0-123.0"}}, {"uniqueid": "MTK0958:34YB12FSQZVYUM34C5B5FKEYCCGGMM", "current_trial": 178, "dateTime": 1512938007204, "trialdata": {"rt": -1, "stimulus": "<p id=\"stim\">CARROT</p>", "key_press": -1, "type": "PRES_VIS", "word": "carrot", "wordID": 248, "conditions": [24, 1600, "v", 24000], "trial": 5, "serialpos": 5, "trial_type": "single-stim", "trial_index": 178, "time_elapsed": 1552134, "internal_node_id": "0.0-124.0"}}, {"uniqueid": "MTK0958:34YB12FSQZVYUM34C5B5FKEYCCGGMM", "current_trial": 179, "dateTime": 1512938009967, "trialdata": {"rt": -1, "stimulus": "<p id=\"stim\">DONKEY</p>", "key_press": -1, "type": "PRES_VIS", "word": "donkey", "wordID": 483, "conditions": [24, 1600, "v", 24000], "trial": 5, "serialpos": 6, "trial_type": "single-stim", "trial_index": 179, "time_elapsed": 1554897, "internal_node_id": "0.0-125.0"}}, {"uniqueid": "MTK0958:34YB12FSQZVYUM34C5B5FKEYCCGGMM", "current_trial": 180, "dateTime": 1512938012462, "trialdata": {"rt": -1, "stimulus": "<p id=\"stim\">SPIDER</p>", "key_press": -1, "type": "PRES_VIS", "word": "spider", "wordID": 1350, "conditions": [24, 1600, "v", 24000], "trial": 5, "serialpos": 7, "trial_type": "single-stim", "trial_index": 180, "time_elapsed": 1557391, "internal_node_id": "0.0-126.0"}}, {"uniqueid": "MTK0958:34YB12FSQZVYUM34C5B5FKEYCCGGMM", "current_trial": 181, "dateTime": 1512938015158, "trialdata": {"rt": -1, "stimulus": "<p id=\"stim\">WARDROBE</p>", "key_press": -1, "type": "PRES_VIS", "word": "wardrobe", "wordID": 1586, "conditions": [24, 1600, "v", 24000], "trial": 5, "serialpos": 8, "trial_type": "single-stim", "trial_index": 181, "time_elapsed": 1560088, "internal_node_id": "0.0-127.0"}}, {"uniqueid": "MTK0958:34YB12FSQZVYUM34C5B5FKEYCCGGMM", "current_trial": 182, "dateTime": 1512938017826, "trialdata": {"rt": -1, "stimulus": "<p id=\"stim\">PORK</p>", "key_press": -1, "type": "PRES_VIS", "word": "pork", "wordID": 1107, "conditions": [24, 1600, "v", 24000], "trial": 5, "serialpos": 9, "trial_type": "single-stim", "trial_index": 182, "time_elapsed": 1562756, "internal_node_id": "0.0-128.0"}}, {"uniqueid": "MTK0958:34YB12FSQZVYUM34C5B5FKEYCCGGMM", "current_trial": 183, "dateTime": 1512938020295, "trialdata": {"rt": -1, "stimulus": "<p id=\"stim\">MARINE</p>", "key_press": -1, "type": "PRES_VIS", "word": "marine", "wordID": 868, "conditions": [24, 1600, "v", 24000], "trial": 5, "serialpos": 10, "trial_type": "single-stim", "trial_index": 183, "time_elapsed": 1565225, "internal_node_id": "0.0-129.0"}}, {"uniqueid": "MTK0958:34YB12FSQZVYUM34C5B5FKEYCCGGMM", "current_trial": 184, "dateTime": 1512938023070, "trialdata": {"rt": -1, "stimulus": "<p id=\"stim\">CLOTHES</p>", "key_press": -1, "type": "PRES_VIS", "word": "clothes", "wordID": 326, "conditions": [24, 1600, "v", 24000], "trial": 5, "serialpos": 11, "trial_type": "single-stim", "trial_index": 184, "time_elapsed": 1568000, "internal_node_id": "0.0-130.0"}}, {"uniqueid": "MTK0958:34YB12FSQZVYUM34C5B5FKEYCCGGMM", "current_trial": 185, "dateTime": 1512938025836, "trialdata": {"rt": -1, "stimulus": "<p id=\"stim\">IGLOO</p>", "key_press": -1, "type": "PRES_VIS", "word": "igloo", "wordID": 733, "conditions": [24, 1600, "v", 24000], "trial": 5, "serialpos": 12, "trial_type": "single-stim", "trial_index": 185, "time_elapsed": 1570766, "internal_node_id": "0.0-131.0"}}, {"uniqueid": "MTK0958:34YB12FSQZVYUM34C5B5FKEYCCGGMM", "current_trial": 186, "dateTime": 1512938028305, "trialdata": {"rt": -1, "stimulus": "<p id=\"stim\">CHIPMUNK</p>", "key_press": -1, "type": "PRES_VIS", "word": "chipmunk", "wordID": 303, "conditions": [24, 1600, "v", 24000], "trial": 5, "serialpos": 13, "trial_type": "single-stim", "trial_index": 186, "time_elapsed": 1573234, "internal_node_id": "0.0-132.0"}}, {"uniqueid": "MTK0958:34YB12FSQZVYUM34C5B5FKEYCCGGMM", "current_trial": 187, "dateTime": 1512938030713, "trialdata": {"rt": -1, "stimulus": "<p id=\"stim\">COUSIN</p>", "key_press": -1, "type": "PRES_VIS", "word": "cousin", "wordID": 391, "conditions": [24, 1600, "v", 24000], "trial": 5, "serialpos": 14, "trial_type": "single-stim", "trial_index": 187, "time_elapsed": 1575643, "internal_node_id": "0.0-133.0"}}, {"uniqueid": "MTK0958:34YB12FSQZVYUM34C5B5FKEYCCGGMM", "current_trial": 188, "dateTime": 1512938033378, "trialdata": {"rt": -1, "stimulus": "<p id=\"stim\">SKETCH</p>", "key_press": -1, "type": "PRES_VIS", "word": "sketch", "wordID": 1314, "conditions": [24, 1600, "v", 24000], "trial": 5, "serialpos": 15, "trial_type": "single-stim", "trial_index": 188, "time_elapsed": 1578308, "internal_node_id": "0.0-134.0"}}, {"uniqueid": "MTK0958:34YB12FSQZVYUM34C5B5FKEYCCGGMM", "current_trial": 189, "dateTime": 1512938036114, "trialdata": {"rt": -1, "stimulus": "<p id=\"stim\">KITCHEN</p>", "key_press": -1, "type": "PRES_VIS", "word": "kitchen", "wordID": 777, "conditions": [24, 1600, "v", 24000], "trial": 5, "serialpos": 16, "trial_type": "single-stim", "trial_index": 189, "time_elapsed": 1581044, "internal_node_id": "0.0-135.0"}}, {"uniqueid": "MTK0958:34YB12FSQZVYUM34C5B5FKEYCCGGMM", "current_trial": 190, "dateTime": 1512938038681, "trialdata": {"rt": -1, "stimulus": "<p id=\"stim\">WAITRESS</p>", "key_press": -1, "type": "PRES_VIS", "word": "waitress", "wordID": 1580, "conditions": [24, 1600, "v", 24000], "trial": 5, "serialpos": 17, "trial_type": "single-stim", "trial_index": 190, "time_elapsed": 1583610, "internal_node_id": "0.0-136.0"}}, {"uniqueid": "MTK0958:34YB12FSQZVYUM34C5B5FKEYCCGGMM", "current_trial": 191, "dateTime": 1512938041384, "trialdata": {"rt": -1, "stimulus": "<p id=\"stim\">CASHIER</p>", "key_press": -1, "type": "PRES_VIS", "word": "cashier", "wordID": 253, "conditions": [24, 1600, "v", 24000], "trial": 5, "serialpos": 18, "trial_type": "single-stim", "trial_index": 191, "time_elapsed": 1586314, "internal_node_id": "0.0-137.0"}}, {"uniqueid": "MTK0958:34YB12FSQZVYUM34C5B5FKEYCCGGMM", "current_trial": 192, "dateTime": 1512938044116, "trialdata": {"rt": -1, "stimulus": "<p id=\"stim\">CELLAR</p>", "key_press": -1, "type": "PRES_VIS", "word": "cellar", "wordID": 266, "conditions": [24, 1600, "v", 24000], "trial": 5, "serialpos": 19, "trial_type": "single-stim", "trial_index": 192, "time_elapsed": 1589045, "internal_node_id": "0.0-138.0"}}, {"uniqueid": "MTK0958:34YB12FSQZVYUM34C5B5FKEYCCGGMM", "current_trial": 193, "dateTime": 1512938046839, "trialdata": {"rt": -1, "stimulus": "<p id=\"stim\">SALMON</p>", "key_press": -1, "type": "PRES_VIS", "word": "salmon", "wordID": 1226, "conditions": [24, 1600, "v", 24000], "trial": 5, "serialpos": 20, "trial_type": "single-stim", "trial_index": 193, "time_elapsed": 1591769, "internal_node_id": "0.0-139.0"}}, {"uniqueid": "MTK0958:34YB12FSQZVYUM34C5B5FKEYCCGGMM", "current_trial": 194, "dateTime": 1512938049375, "trialdata": {"rt": -1, "stimulus": "<p id=\"stim\">MOP</p>", "key_press": -1, "type": "PRES_VIS", "word": "mop", "wordID": 915, "conditions": [24, 1600, "v", 24000], "trial": 5, "serialpos": 21, "trial_type": "single-stim", "trial_index": 194, "time_elapsed": 1594305, "internal_node_id": "0.0-140.0"}}, {"uniqueid": "MTK0958:34YB12FSQZVYUM34C5B5FKEYCCGGMM", "current_trial": 195, "dateTime": 1512938052068, "trialdata": {"rt": -1, "stimulus": "<p id=\"stim\">FLASK</p>", "key_press": -1, "type": "PRES_VIS", "word": "flask", "wordID": 575, "conditions": [24, 1600, "v", 24000], "trial": 5, "serialpos": 22, "trial_type": "single-stim", "trial_index": 195, "time_elapsed": 1596998, "internal_node_id": "0.0-141.0"}}, {"uniqueid": "MTK0958:34YB12FSQZVYUM34C5B5FKEYCCGGMM", "current_trial": 196, "dateTime": 1512938054630, "trialdata": {"rt": -1, "stimulus": "<p id=\"stim\">BOYFRIEND</p>", "key_press": -1, "type": "PRES_VIS", "word": "boyfriend", "wordID": 161, "conditions": [24, 1600, "v", 24000], "trial": 5, "serialpos": 23, "trial_type": "single-stim", "trial_index": 196, "time_elapsed": 1599560, "internal_node_id": "0.0-142.0"}}, {"uniqueid": "MTK0958:34YB12FSQZVYUM34C5B5FKEYCCGGMM", "current_trial": 197, "dateTime": 1512938056890, "trialdata": {"rt": -1, "stimulus": "", "key_press": -1, "type": "PRE_RECALL_DELAY", "trial_type": "single-stim", "trial_index": 197, "time_elapsed": 1601819, "internal_node_id": "0.0-143.0-0.0"}}, {"uniqueid": "MTK0958:34YB12FSQZVYUM34C5B5FKEYCCGGMM", "current_trial": 198, "dateTime": 1512938057391, "trialdata": {"rt": -1000, "stimulus": "/static/audio/400Hz.wav", "key_press": -1, "type": "PRE_RECALL_ALERT", "trial_type": "single-audio", "trial_index": 198, "time_elapsed": 1602321, "internal_node_id": "0.0-144.0"}}, {"uniqueid": "MTK0958:34YB12FSQZVYUM34C5B5FKEYCCGGMM", "current_trial": 199, "dateTime": 1512938117398, "trialdata": {"rt": [1855, 3191, 7024, 8176, 9607, 10824, 14207, 15856, 17864, 20928, 23256], "recwords": ["boyfriend", "woman", "wardrobe", "dress", "clothes", "cashier", "waitress", "skillet", "carrot", "spider", "salmon"], "type": "FREE_RECALL", "conditions": [24, 1600, "v", 24000], "trial": 5, "trial_type": "free-recall", "trial_index": 199, "time_elapsed": 1662325, "internal_node_id": "0.0-145.0-0.0"}}, {"uniqueid": "MTK0958:34YB12FSQZVYUM34C5B5FKEYCCGGMM", "current_trial": 200, "dateTime": 1512938769175, "trialdata": {"rt": 649775, "key_press": 32, "type": "INSTRUCTIONS", "trial_type": "text", "trial_index": 200, "time_elapsed": 2314105, "internal_node_id": "0.0-146.0"}}, {"uniqueid": "MTK0958:34YB12FSQZVYUM34C5B5FKEYCCGGMM", "current_trial": 201, "dateTime": 1512938795183, "trialdata": {"rt": [2241, 5721, 9057, 11113, 15059, 17313, 20584, 23729], "responses": ["19", "12", "8", "20", "20", "13", "19", "24"], "num1": [9, 1, 2, 2, 5, 8, 7, 7, 7], "num2": [9, 4, 4, 9, 7, 1, 8, 8, 3], "num3": [1, 7, 2, 9, 8, 4, 4, 9, 3], "type": "DISTRACTOR", "conditions": [12, 1600, "v", 24000], "trial": 6, "trial_type": "math-distractor", "trial_index": 201, "time_elapsed": 2340113, "internal_node_id": "0.0-147.0"}}, {"uniqueid": "MTK0958:34YB12FSQZVYUM34C5B5FKEYCCGGMM", "current_trial": 202, "dateTime": 1512938798186, "trialdata": {"rt": -1, "stimulus": "<p id=\"stim\">10</p>", "key_press": -1, "trial_type": "single-stim", "trial_index": 202, "time_elapsed": 2343115, "internal_node_id": "0.0-148.0-0.0"}}, {"uniqueid": "MTK0958:34YB12FSQZVYUM34C5B5FKEYCCGGMM", "current_trial": 203, "dateTime": 1512938799188, "trialdata": {"rt": -1, "stimulus": "<p id=\"stim\">9</p>", "key_press": -1, "trial_type": "single-stim", "trial_index": 203, "time_elapsed": 2344117, "internal_node_id": "0.0-148.0-1.0"}}, {"uniqueid": "MTK0958:34YB12FSQZVYUM34C5B5FKEYCCGGMM", "current_trial": 204, "dateTime": 1512938800191, "trialdata": {"rt": -1, "stimulus": "<p id=\"stim\">8</p>", "key_press": -1, "trial_type": "single-stim", "trial_index": 204, "time_elapsed": 2345120, "internal_node_id": "0.0-148.0-2.0"}}, {"uniqueid": "MTK0958:34YB12FSQZVYUM34C5B5FKEYCCGGMM", "current_trial": 205, "dateTime": 1512938801193, "trialdata": {"rt": -1, "stimulus": "<p id=\"stim\">7</p>", "key_press": -1, "trial_type": "single-stim", "trial_index": 205, "time_elapsed": 2346123, "internal_node_id": "0.0-148.0-3.0"}}, {"uniqueid": "MTK0958:34YB12FSQZVYUM34C5B5FKEYCCGGMM", "current_trial": 206, "dateTime": 1512938802195, "trialdata": {"rt": -1, "stimulus": "<p id=\"stim\">6</p>", "key_press": -1, "trial_type": "single-stim", "trial_index": 206, "time_elapsed": 2347125, "internal_node_id": "0.0-148.0-4.0"}}, {"uniqueid": "MTK0958:34YB12FSQZVYUM34C5B5FKEYCCGGMM", "current_trial": 207, "dateTime": 1512938803198, "trialdata": {"rt": -1, "stimulus": "<p id=\"stim\">5</p>", "key_press": -1, "trial_type": "single-stim", "trial_index": 207, "time_elapsed": 2348127, "internal_node_id": "0.0-148.0-5.0"}}, {"uniqueid": "MTK0958:34YB12FSQZVYUM34C5B5FKEYCCGGMM", "current_trial": 208, "dateTime": 1512938804201, "trialdata": {"rt": -1, "stimulus": "<p id=\"stim\">4</p>", "key_press": -1, "trial_type": "single-stim", "trial_index": 208, "time_elapsed": 2349130, "internal_node_id": "0.0-148.0-6.0"}}, {"uniqueid": "MTK0958:34YB12FSQZVYUM34C5B5FKEYCCGGMM", "current_trial": 209, "dateTime": 1512938805203, "trialdata": {"rt": -1, "stimulus": "<p id=\"stim\">3</p>", "key_press": -1, "trial_type": "single-stim", "trial_index": 209, "time_elapsed": 2350133, "internal_node_id": "0.0-148.0-7.0"}}, {"uniqueid": "MTK0958:34YB12FSQZVYUM34C5B5FKEYCCGGMM", "current_trial": 210, "dateTime": 1512938806205, "trialdata": {"rt": -1, "stimulus": "<p id=\"stim\">2</p>", "key_press": -1, "trial_type": "single-stim", "trial_index": 210, "time_elapsed": 2351135, "internal_node_id": "0.0-148.0-8.0"}}, {"uniqueid": "MTK0958:34YB12FSQZVYUM34C5B5FKEYCCGGMM", "current_trial": 211, "dateTime": 1512938807208, "trialdata": {"rt": -1, "stimulus": "<p id=\"stim\">1</p>", "key_press": -1, "trial_type": "single-stim", "trial_index": 211, "time_elapsed": 2352138, "internal_node_id": "0.0-148.0-9.0"}}, {"uniqueid": "MTK0958:34YB12FSQZVYUM34C5B5FKEYCCGGMM", "current_trial": 212, "dateTime": 1512938808711, "trialdata": {"rt": -1, "stimulus": "<p id=\"stim\">+</p>", "key_press": -1, "type": "FIXATION", "trial_type": "single-stim", "trial_index": 212, "time_elapsed": 2353640, "internal_node_id": "0.0-149.0-0.0"}}, {"uniqueid": "MTK0958:34YB12FSQZVYUM34C5B5FKEYCCGGMM", "current_trial": 213, "dateTime": 1512938810312, "trialdata": {"rt": -1, "stimulus": "<p id=\"stim\">MILK</p>", "key_press": -1, "type": "PRES_VIS", "word": "milk", "wordID": 894, "conditions": [12, 1600, "v", 24000], "trial": 6, "serialpos": 0, "trial_type": "single-stim", "trial_index": 213, "time_elapsed": 2355242, "internal_node_id": "0.0-150.0"}}, {"uniqueid": "MTK0958:34YB12FSQZVYUM34C5B5FKEYCCGGMM", "current_trial": 214, "dateTime": 1512938812960, "trialdata": {"rt": -1, "stimulus": "<p id=\"stim\">HONEY</p>", "key_press": -1, "type": "PRES_VIS", "word": "honey", "wordID": 712, "conditions": [12, 1600, "v", 24000], "trial": 6, "serialpos": 1, "trial_type": "single-stim", "trial_index": 214, "time_elapsed": 2357890, "internal_node_id": "0.0-151.0"}}, {"uniqueid": "MTK0958:34YB12FSQZVYUM34C5B5FKEYCCGGMM", "current_trial": 215, "dateTime": 1512938815499, "trialdata": {"rt": -1, "stimulus": "<p id=\"stim\">TABLET</p>", "key_press": -1, "type": "PRES_VIS", "word": "tablet", "wordID": 1426, "conditions": [12, 1600, "v", 24000], "trial": 6, "serialpos": 2, "trial_type": "single-stim", "trial_index": 215, "time_elapsed": 2360428, "internal_node_id": "0.0-152.0"}}, {"uniqueid": "MTK0958:34YB12FSQZVYUM34C5B5FKEYCCGGMM", "current_trial": 216, "dateTime": 1512938818006, "trialdata": {"rt": -1, "stimulus": "<p id=\"stim\">ROBOT</p>", "key_press": -1, "type": "PRES_VIS", "word": "robot", "wordID": 1199, "conditions": [12, 1600, "v", 24000], "trial": 6, "serialpos": 3, "trial_type": "single-stim", "trial_index": 216, "time_elapsed": 2362935, "internal_node_id": "0.0-153.0"}}, {"uniqueid": "MTK0958:34YB12FSQZVYUM34C5B5FKEYCCGGMM", "current_trial": 217, "dateTime": 1512938820602, "trialdata": {"rt": -1, "stimulus": "<p id=\"stim\">BLUEPRINT</p>", "key_press": -1, "type": "PRES_VIS", "word": "blueprint", "wordID": 141, "conditions": [12, 1600, "v", 24000], "trial": 6, "serialpos": 4, "trial_type": "single-stim", "trial_index": 217, "time_elapsed": 2365532, "internal_node_id": "0.0-154.0"}}, {"uniqueid": "MTK0958:34YB12FSQZVYUM34C5B5FKEYCCGGMM", "current_trial": 218, "dateTime": 1512938823400, "trialdata": {"rt": -1, "stimulus": "<p id=\"stim\">BURGLAR</p>", "key_press": -1, "type": "PRES_VIS", "word": "burglar", "wordID": 199, "conditions": [12, 1600, "v", 24000], "trial": 6, "serialpos": 5, "trial_type": "single-stim", "trial_index": 218, "time_elapsed": 2368330, "internal_node_id": "0.0-155.0"}}, {"uniqueid": "MTK0958:34YB12FSQZVYUM34C5B5FKEYCCGGMM", "current_trial": 219, "dateTime": 1512938826017, "trialdata": {"rt": -1, "stimulus": "<p id=\"stim\">VIKING</p>", "key_press": -1, "type": "PRES_VIS", "word": "viking", "wordID": 1564, "conditions": [12, 1600, "v", 24000], "trial": 6, "serialpos": 6, "trial_type": "single-stim", "trial_index": 219, "time_elapsed": 2370947, "internal_node_id": "0.0-156.0"}}, {"uniqueid": "MTK0958:34YB12FSQZVYUM34C5B5FKEYCCGGMM", "current_trial": 220, "dateTime": 1512938828667, "trialdata": {"rt": -1, "stimulus": "<p id=\"stim\">JURY</p>", "key_press": -1, "type": "PRES_VIS", "word": "jury", "wordID": 765, "conditions": [12, 1600, "v", 24000], "trial": 6, "serialpos": 7, "trial_type": "single-stim", "trial_index": 220, "time_elapsed": 2373597, "internal_node_id": "0.0-157.0"}}, {"uniqueid": "MTK0958:34YB12FSQZVYUM34C5B5FKEYCCGGMM", "current_trial": 221, "dateTime": 1512938831392, "trialdata": {"rt": -1, "stimulus": "<p id=\"stim\">TURNIP</p>", "key_press": -1, "type": "PRES_VIS", "word": "turnip", "wordID": 1520, "conditions": [12, 1600, "v", 24000], "trial": 6, "serialpos": 8, "trial_type": "single-stim", "trial_index": 221, "time_elapsed": 2376322, "internal_node_id": "0.0-158.0"}}, {"uniqueid": "MTK0958:34YB12FSQZVYUM34C5B5FKEYCCGGMM", "current_trial": 222, "dateTime": 1512938834079, "trialdata": {"rt": -1, "stimulus": "<p id=\"stim\">THIEF</p>", "key_press": -1, "type": "PRES_VIS", "word": "thief", "wordID": 1455, "conditions": [12, 1600, "v", 24000], "trial": 6, "serialpos": 9, "trial_type": "single-stim", "trial_index": 222, "time_elapsed": 2379008, "internal_node_id": "0.0-159.0"}}, {"uniqueid": "MTK0958:34YB12FSQZVYUM34C5B5FKEYCCGGMM", "current_trial": 223, "dateTime": 1512938836625, "trialdata": {"rt": -1, "stimulus": "<p id=\"stim\">SUMMIT</p>", "key_press": -1, "type": "PRES_VIS", "word": "summit", "wordID": 1404, "conditions": [12, 1600, "v", 24000], "trial": 6, "serialpos": 10, "trial_type": "single-stim", "trial_index": 223, "time_elapsed": 2381554, "internal_node_id": "0.0-160.0"}}, {"uniqueid": "MTK0958:34YB12FSQZVYUM34C5B5FKEYCCGGMM", "current_trial": 224, "dateTime": 1512938839174, "trialdata": {"rt": -1, "stimulus": "<p id=\"stim\">BROTHER</p>", "key_press": -1, "type": "PRES_VIS", "word": "brother", "wordID": 178, "conditions": [12, 1600, "v", 24000], "trial": 6, "serialpos": 11, "trial_type": "single-stim", "trial_index": 224, "time_elapsed": 2384104, "internal_node_id": "0.0-161.0"}}, {"uniqueid": "MTK0958:34YB12FSQZVYUM34C5B5FKEYCCGGMM", "current_trial": 225, "dateTime": 1512938841604, "trialdata": {"rt": -1, "stimulus": "", "key_press": -1, "type": "PRE_RECALL_DELAY", "trial_type": "single-stim", "trial_index": 225, "time_elapsed": 2386533, "internal_node_id": "0.0-162.0-0.0"}}, {"uniqueid": "MTK0958:34YB12FSQZVYUM34C5B5FKEYCCGGMM", "current_trial": 226, "dateTime": 1512938842106, "trialdata": {"rt": -1000, "stimulus": "/static/audio/400Hz.wav", "key_press": -1, "type": "PRE_RECALL_ALERT", "trial_type": "single-audio", "trial_index": 226, "time_elapsed": 2387036, "internal_node_id": "0.0-163.0"}}, {"uniqueid": "MTK0958:34YB12FSQZVYUM34C5B5FKEYCCGGMM", "current_trial": 227, "dateTime": 1512938902115, "trialdata": {"rt": [4307, 6459, 8547], "recwords": ["brother", "summit", "turnip"], "type": "FREE_RECALL", "conditions": [12, 1600, "v", 24000], "trial": 6, "trial_type": "free-recall", "trial_index": 227, "time_elapsed": 2447041, "internal_node_id": "0.0-164.0-0.0"}}, {"uniqueid": "MTK0958:34YB12FSQZVYUM34C5B5FKEYCCGGMM", "current_trial": 228, "dateTime": 1512938905128, "trialdata": {"rt": 1010, "key_press": 32, "type": "INSTRUCTIONS", "trial_type": "text", "trial_index": 228, "time_elapsed": 2450057, "internal_node_id": "0.0-165.0"}}, {"uniqueid": "MTK0958:34YB12FSQZVYUM34C5B5FKEYCCGGMM", "current_trial": 229, "dateTime": 1512938919133, "trialdata": {"rt": [4571, 7748, 11171], "responses": ["15", "14", "11"], "num1": [5, 2, 2, 9], "num2": [7, 3, 1, 2], "num3": [4, 9, 7, 5], "type": "DISTRACTOR", "conditions": [24, 800, "a", 12000], "trial": 7, "trial_type": "math-distractor", "trial_index": 229, "time_elapsed": 2464063, "internal_node_id": "0.0-166.0"}}, {"uniqueid": "MTK0958:34YB12FSQZVYUM34C5B5FKEYCCGGMM", "current_trial": 230, "dateTime": 1512938922137, "trialdata": {"rt": -1, "stimulus": "<p id=\"stim\">10</p>", "key_press": -1, "trial_type": "single-stim", "trial_index": 230, "time_elapsed": 2467067, "internal_node_id": "0.0-167.0-0.0"}}, {"uniqueid": "MTK0958:34YB12FSQZVYUM34C5B5FKEYCCGGMM", "current_trial": 231, "dateTime": 1512938923139, "trialdata": {"rt": -1, "stimulus": "<p id=\"stim\">9</p>", "key_press": -1, "trial_type": "single-stim", "trial_index": 231, "time_elapsed": 2468069, "internal_node_id": "0.0-167.0-1.0"}}, {"uniqueid": "MTK0958:34YB12FSQZVYUM34C5B5FKEYCCGGMM", "current_trial": 232, "dateTime": 1512938924142, "trialdata": {"rt": -1, "stimulus": "<p id=\"stim\">8</p>", "key_press": -1, "trial_type": "single-stim", "trial_index": 232, "time_elapsed": 2469071, "internal_node_id": "0.0-167.0-2.0"}}, {"uniqueid": "MTK0958:34YB12FSQZVYUM34C5B5FKEYCCGGMM", "current_trial": 233, "dateTime": 1512938925144, "trialdata": {"rt": -1, "stimulus": "<p id=\"stim\">7</p>", "key_press": -1, "trial_type": "single-stim", "trial_index": 233, "time_elapsed": 2470074, "internal_node_id": "0.0-167.0-3.0"}}, {"uniqueid": "MTK0958:34YB12FSQZVYUM34C5B5FKEYCCGGMM", "current_trial": 234, "dateTime": 1512938926146, "trialdata": {"rt": -1, "stimulus": "<p id=\"stim\">6</p>", "key_press": -1, "trial_type": "single-stim", "trial_index": 234, "time_elapsed": 2471076, "internal_node_id": "0.0-167.0-4.0"}}, {"uniqueid": "MTK0958:34YB12FSQZVYUM34C5B5FKEYCCGGMM", "current_trial": 235, "dateTime": 1512938927148, "trialdata": {"rt": -1, "stimulus": "<p id=\"stim\">5</p>", "key_press": -1, "trial_type": "single-stim", "trial_index": 235, "time_elapsed": 2472078, "internal_node_id": "0.0-167.0-5.0"}}, {"uniqueid": "MTK0958:34YB12FSQZVYUM34C5B5FKEYCCGGMM", "current_trial": 236, "dateTime": 1512938928150, "trialdata": {"rt": -1, "stimulus": "<p id=\"stim\">4</p>", "key_press": -1, "trial_type": "single-stim", "trial_index": 236, "time_elapsed": 2473079, "internal_node_id": "0.0-167.0-6.0"}}, {"uniqueid": "MTK0958:34YB12FSQZVYUM34C5B5FKEYCCGGMM", "current_trial": 237, "dateTime": 1512938929153, "trialdata": {"rt": -1, "stimulus": "<p id=\"stim\">3</p>", "key_press": -1, "trial_type": "single-stim", "trial_index": 237, "time_elapsed": 2474083, "internal_node_id": "0.0-167.0-7.0"}}, {"uniqueid": "MTK0958:34YB12FSQZVYUM34C5B5FKEYCCGGMM", "current_trial": 238, "dateTime": 1512938930155, "trialdata": {"rt": -1, "stimulus": "<p id=\"stim\">2</p>", "key_press": -1, "trial_type": "single-stim", "trial_index": 238, "time_elapsed": 2475085, "internal_node_id": "0.0-167.0-8.0"}}, {"uniqueid": "MTK0958:34YB12FSQZVYUM34C5B5FKEYCCGGMM", "current_trial": 239, "dateTime": 1512938931156, "trialdata": {"rt": -1, "stimulus": "<p id=\"stim\">1</p>", "key_press": -1, "trial_type": "single-stim", "trial_index": 239, "time_elapsed": 2476086, "internal_node_id": "0.0-167.0-9.0"}}, {"uniqueid": "MTK0958:34YB12FSQZVYUM34C5B5FKEYCCGGMM", "current_trial": 240, "dateTime": 1512938932659, "trialdata": {"rt": -1, "stimulus": "<p id=\"stim\">+</p>", "key_press": -1, "type": "FIXATION", "trial_type": "single-stim", "trial_index": 240, "time_elapsed": 2477588, "internal_node_id": "0.0-168.0-0.0"}}, {"uniqueid": "MTK0958:34YB12FSQZVYUM34C5B5FKEYCCGGMM", "current_trial": 241, "dateTime": 1512938934461, "trialdata": {"rt": -1000, "stimulus": "/static/audio/wordpool/ACTOR.wav", "key_press": -1, "type": "PRES_AUD", "word": "actor", "wordID": 4, "conditions": [24, 800, "a", 12000], "trial": 7, "serialpos": 0, "trial_type": "single-audio", "trial_index": 241, "time_elapsed": 2479390, "internal_node_id": "0.0-169.0"}}, {"uniqueid": "MTK0958:34YB12FSQZVYUM34C5B5FKEYCCGGMM", "current_trial": 242, "dateTime": 1512938936308, "trialdata": {"rt": -1000, "stimulus": "/static/audio/wordpool/SANDWICH.wav", "key_press": -1, "type": "PRES_AUD", "word": "sandwich", "wordID": 1231, "conditions": [24, 800, "a", 12000], "trial": 7, "serialpos": 1, "trial_type": "single-audio", "trial_index": 242, "time_elapsed": 2481238, "internal_node_id": "0.0-170.0"}}, {"uniqueid": "MTK0958:34YB12FSQZVYUM34C5B5FKEYCCGGMM", "current_trial": 243, "dateTime": 1512938938232, "trialdata": {"rt": -1000, "stimulus": "/static/audio/wordpool/FRUIT.wav", "key_press": -1, "type": "PRES_AUD", "word": "fruit", "wordID": 609, "conditions": [24, 800, "a", 12000], "trial": 7, "serialpos": 2, "trial_type": "single-audio", "trial_index": 243, "time_elapsed": 2483162, "internal_node_id": "0.0-171.0"}}, {"uniqueid": "MTK0958:34YB12FSQZVYUM34C5B5FKEYCCGGMM", "current_trial": 244, "dateTime": 1512938940090, "trialdata": {"rt": -1000, "stimulus": "/static/audio/wordpool/BRANCH.wav", "key_press": -1, "type": "PRES_AUD", "word": "branch", "wordID": 167, "conditions": [24, 800, "a", 12000], "trial": 7, "serialpos": 3, "trial_type": "single-audio", "trial_index": 244, "time_elapsed": 2485020, "internal_node_id": "0.0-172.0"}}, {"uniqueid": "MTK0958:34YB12FSQZVYUM34C5B5FKEYCCGGMM", "current_trial": 245, "dateTime": 1512938941989, "trialdata": {"rt": -1000, "stimulus": "/static/audio/wordpool/TOASTER.wav", "key_press": -1, "type": "PRES_AUD", "word": "toaster", "wordID": 1471, "conditions": [24, 800, "a", 12000], "trial": 7, "serialpos": 4, "trial_type": "single-audio", "trial_index": 245, "time_elapsed": 2486919, "internal_node_id": "0.0-173.0"}}, {"uniqueid": "MTK0958:34YB12FSQZVYUM34C5B5FKEYCCGGMM", "current_trial": 246, "dateTime": 1512938943724, "trialdata": {"rt": -1000, "stimulus": "/static/audio/wordpool/LUGGAGE.wav", "key_press": -1, "type": "PRES_AUD", "word": "luggage", "wordID": 846, "conditions": [24, 800, "a", 12000], "trial": 7, "serialpos": 5, "trial_type": "single-audio", "trial_index": 246, "time_elapsed": 2488654, "internal_node_id": "0.0-174.0"}}, {"uniqueid": "MTK0958:34YB12FSQZVYUM34C5B5FKEYCCGGMM", "current_trial": 247, "dateTime": 1512938945645, "trialdata": {"rt": -1000, "stimulus": "/static/audio/wordpool/SHRUB.wav", "key_press": -1, "type": "PRES_AUD", "word": "shrub", "wordID": 1298, "conditions": [24, 800, "a", 12000], "trial": 7, "serialpos": 6, "trial_type": "single-audio", "trial_index": 247, "time_elapsed": 2490575, "internal_node_id": "0.0-175.0"}}, {"uniqueid": "MTK0958:34YB12FSQZVYUM34C5B5FKEYCCGGMM", "current_trial": 248, "dateTime": 1512938947526, "trialdata": {"rt": -1000, "stimulus": "/static/audio/wordpool/GARDEN.wav", "key_press": -1, "type": "PRES_AUD", "word": "garden", "wordID": 622, "conditions": [24, 800, "a", 12000], "trial": 7, "serialpos": 7, "trial_type": "single-audio", "trial_index": 248, "time_elapsed": 2492455, "internal_node_id": "0.0-176.0"}}, {"uniqueid": "MTK0958:34YB12FSQZVYUM34C5B5FKEYCCGGMM", "current_trial": 249, "dateTime": 1512938949449, "trialdata": {"rt": -1000, "stimulus": "/static/audio/wordpool/SEAFOOD.wav", "key_press": -1, "type": "PRES_AUD", "word": "seafood", "wordID": 1259, "conditions": [24, 800, "a", 12000], "trial": 7, "serialpos": 8, "trial_type": "single-audio", "trial_index": 249, "time_elapsed": 2494379, "internal_node_id": "0.0-177.0"}}, {"uniqueid": "MTK0958:34YB12FSQZVYUM34C5B5FKEYCCGGMM", "current_trial": 250, "dateTime": 1512938951344, "trialdata": {"rt": -1000, "stimulus": "/static/audio/wordpool/SCALLOP.wav", "key_press": -1, "type": "PRES_AUD", "word": "scallop", "wordID": 1241, "conditions": [24, 800, "a", 12000], "trial": 7, "serialpos": 9, "trial_type": "single-audio", "trial_index": 250, "time_elapsed": 2496273, "internal_node_id": "0.0-178.0"}}, {"uniqueid": "MTK0958:34YB12FSQZVYUM34C5B5FKEYCCGGMM", "current_trial": 251, "dateTime": 1512938952995, "trialdata": {"rt": -1000, "stimulus": "/static/audio/wordpool/CITRUS.wav", "key_press": -1, "type": "PRES_AUD", "word": "citrus", "wordID": 312, "conditions": [24, 800, "a", 12000], "trial": 7, "serialpos": 10, "trial_type": "single-audio", "trial_index": 251, "time_elapsed": 2497925, "internal_node_id": "0.0-179.0"}}, {"uniqueid": "MTK0958:34YB12FSQZVYUM34C5B5FKEYCCGGMM", "current_trial": 252, "dateTime": 1512938954864, "trialdata": {"rt": -1000, "stimulus": "/static/audio/wordpool/FIDDLE.wav", "key_press": -1, "type": "PRES_AUD", "word": "fiddle", "wordID": 560, "conditions": [24, 800, "a", 12000], "trial": 7, "serialpos": 11, "trial_type": "single-audio", "trial_index": 252, "time_elapsed": 2499794, "internal_node_id": "0.0-180.0"}}, {"uniqueid": "MTK0958:34YB12FSQZVYUM34C5B5FKEYCCGGMM", "current_trial": 253, "dateTime": 1512938956697, "trialdata": {"rt": -1000, "stimulus": "/static/audio/wordpool/NOMAD.wav", "key_press": -1, "type": "PRES_AUD", "word": "nomad", "wordID": 954, "conditions": [24, 800, "a", 12000], "trial": 7, "serialpos": 12, "trial_type": "single-audio", "trial_index": 253, "time_elapsed": 2501627, "internal_node_id": "0.0-181.0"}}, {"uniqueid": "MTK0958:34YB12FSQZVYUM34C5B5FKEYCCGGMM", "current_trial": 254, "dateTime": 1512938958345, "trialdata": {"rt": -1000, "stimulus": "/static/audio/wordpool/FOX.wav", "key_press": -1, "type": "PRES_AUD", "word": "fox", "wordID": 597, "conditions": [24, 800, "a", 12000], "trial": 7, "serialpos": 13, "trial_type": "single-audio", "trial_index": 254, "time_elapsed": 2503275, "internal_node_id": "0.0-182.0"}}, {"uniqueid": "MTK0958:34YB12FSQZVYUM34C5B5FKEYCCGGMM", "current_trial": 255, "dateTime": 1512938960177, "trialdata": {"rt": -1000, "stimulus": "/static/audio/wordpool/CANYON.wav", "key_press": -1, "type": "PRES_AUD", "word": "canyon", "wordID": 234, "conditions": [24, 800, "a", 12000], "trial": 7, "serialpos": 14, "trial_type": "single-audio", "trial_index": 255, "time_elapsed": 2505107, "internal_node_id": "0.0-183.0"}}, {"uniqueid": "MTK0958:34YB12FSQZVYUM34C5B5FKEYCCGGMM", "current_trial": 256, "dateTime": 1512938961999, "trialdata": {"rt": -1000, "stimulus": "/static/audio/wordpool/DENTIST.wav", "key_press": -1, "type": "PRES_AUD", "word": "dentist", "wordID": 446, "conditions": [24, 800, "a", 12000], "trial": 7, "serialpos": 15, "trial_type": "single-audio", "trial_index": 256, "time_elapsed": 2506928, "internal_node_id": "0.0-184.0"}}, {"uniqueid": "MTK0958:34YB12FSQZVYUM34C5B5FKEYCCGGMM", "current_trial": 257, "dateTime": 1512938963840, "trialdata": {"rt": -1000, "stimulus": "/static/audio/wordpool/BISON.wav", "key_press": -1, "type": "PRES_AUD", "word": "bison", "wordID": 130, "conditions": [24, 800, "a", 12000], "trial": 7, "serialpos": 16, "trial_type": "single-audio", "trial_index": 257, "time_elapsed": 2508770, "internal_node_id": "0.0-185.0"}}, {"uniqueid": "MTK0958:34YB12FSQZVYUM34C5B5FKEYCCGGMM", "current_trial": 258, "dateTime": 1512938965497, "trialdata": {"rt": -1000, "stimulus": "/static/audio/wordpool/PORTRAIT.wav", "key_press": -1, "type": "PRES_AUD", "word": "portrait", "wordID": 1110, "conditions": [24, 800, "a", 12000], "trial": 7, "serialpos": 17, "trial_type": "single-audio", "trial_index": 258, "time_elapsed": 2510427, "internal_node_id": "0.0-186.0"}}, {"uniqueid": "MTK0958:34YB12FSQZVYUM34C5B5FKEYCCGGMM", "current_trial": 259, "dateTime": 1512938967410, "trialdata": {"rt": -1000, "stimulus": "/static/audio/wordpool/OZONE.wav", "key_press": -1, "type": "PRES_AUD", "word": "ozone", "wordID": 995, "conditions": [24, 800, "a", 12000], "trial": 7, "serialpos": 18, "trial_type": "single-audio", "trial_index": 259, "time_elapsed": 2512340, "internal_node_id": "0.0-187.0"}}, {"uniqueid": "MTK0958:34YB12FSQZVYUM34C5B5FKEYCCGGMM", "current_trial": 260, "dateTime": 1512938969215, "trialdata": {"rt": -1000, "stimulus": "/static/audio/wordpool/SWIMMER.wav", "key_press": -1, "type": "PRES_AUD", "word": "swimmer", "wordID": 1419, "conditions": [24, 800, "a", 12000], "trial": 7, "serialpos": 19, "trial_type": "single-audio", "trial_index": 260, "time_elapsed": 2514145, "internal_node_id": "0.0-188.0"}}, {"uniqueid": "MTK0958:34YB12FSQZVYUM34C5B5FKEYCCGGMM", "current_trial": 261, "dateTime": 1512938970839, "trialdata": {"rt": -1000, "stimulus": "/static/audio/wordpool/GYMNAST.wav", "key_press": -1, "type": "PRES_AUD", "word": "gymnast", "wordID": 674, "conditions": [24, 800, "a", 12000], "trial": 7, "serialpos": 20, "trial_type": "single-audio", "trial_index": 261, "time_elapsed": 2515769, "internal_node_id": "0.0-189.0"}}, {"uniqueid": "MTK0958:34YB12FSQZVYUM34C5B5FKEYCCGGMM", "current_trial": 262, "dateTime": 1512938972831, "trialdata": {"rt": -1000, "stimulus": "/static/audio/wordpool/COTTAGE.wav", "key_press": -1, "type": "PRES_AUD", "word": "cottage", "wordID": 383, "conditions": [24, 800, "a", 12000], "trial": 7, "serialpos": 21, "trial_type": "single-audio", "trial_index": 262, "time_elapsed": 2517761, "internal_node_id": "0.0-190.0"}}, {"uniqueid": "MTK0958:34YB12FSQZVYUM34C5B5FKEYCCGGMM", "current_trial": 263, "dateTime": 1512938974585, "trialdata": {"rt": -1000, "stimulus": "/static/audio/wordpool/VALLEY.wav", "key_press": -1, "type": "PRES_AUD", "word": "valley", "wordID": 1544, "conditions": [24, 800, "a", 12000], "trial": 7, "serialpos": 22, "trial_type": "single-audio", "trial_index": 263, "time_elapsed": 2519515, "internal_node_id": "0.0-191.0"}}, {"uniqueid": "MTK0958:34YB12FSQZVYUM34C5B5FKEYCCGGMM", "current_trial": 264, "dateTime": 1512938976392, "trialdata": {"rt": -1000, "stimulus": "/static/audio/wordpool/PISTOL.wav", "key_press": -1, "type": "PRES_AUD", "word": "pistol", "wordID": 1074, "conditions": [24, 800, "a", 12000], "trial": 7, "serialpos": 23, "trial_type": "single-audio", "trial_index": 264, "time_elapsed": 2521322, "internal_node_id": "0.0-192.0"}}, {"uniqueid": "MTK0958:34YB12FSQZVYUM34C5B5FKEYCCGGMM", "current_trial": 265, "dateTime": 1512938977787, "trialdata": {"rt": -1, "stimulus": "", "key_press": -1, "type": "PRE_RECALL_DELAY", "trial_type": "single-stim", "trial_index": 265, "time_elapsed": 2522717, "internal_node_id": "0.0-193.0-0.0"}}, {"uniqueid": "MTK0958:34YB12FSQZVYUM34C5B5FKEYCCGGMM", "current_trial": 266, "dateTime": 1512938978288, "trialdata": {"rt": -1000, "stimulus": "/static/audio/400Hz.wav", "key_press": -1, "type": "PRE_RECALL_ALERT", "trial_type": "single-audio", "trial_index": 266, "time_elapsed": 2523218, "internal_node_id": "0.0-194.0"}}, {"uniqueid": "MTK0958:34YB12FSQZVYUM34C5B5FKEYCCGGMM", "current_trial": 267, "dateTime": 1512939038294, "trialdata": {"rt": [4916, 7004, 8189, 14292, 16276, 18244, 19908, 22340], "recwords": ["actor", "sandwich", "fruit", "citrus", "luggage", "valley", "canyon", "thistle"], "type": "FREE_RECALL", "conditions": [24, 800, "a", 12000], "trial": 7, "trial_type": "free-recall", "trial_index": 267, "time_elapsed": 2583221, "internal_node_id": "0.0-195.0-0.0"}}, {"uniqueid": "MTK0958:34YB12FSQZVYUM34C5B5FKEYCCGGMM", "current_trial": 268, "dateTime": 1512939200949, "trialdata": {"rt": 160650, "key_press": 32, "type": "INSTRUCTIONS", "trial_type": "text", "trial_index": 268, "time_elapsed": 2745879, "internal_node_id": "0.0-196.0"}}, {"uniqueid": "MTK0958:34YB12FSQZVYUM34C5B5FKEYCCGGMM", "current_trial": 269, "dateTime": 1512939214953, "trialdata": {"rt": [3716, 6245], "responses": ["17", "12"], "num1": [8, 3, 3], "num2": [5, 3, 5], "num3": [4, 6, 9], "type": "DISTRACTOR", "conditions": [12, 1600, "a", 12000], "trial": 8, "trial_type": "math-distractor", "trial_index": 269, "time_elapsed": 2759883, "internal_node_id": "0.0-197.0"}}, {"uniqueid": "MTK0958:34YB12FSQZVYUM34C5B5FKEYCCGGMM", "current_trial": 270, "dateTime": 1512939217957, "trialdata": {"rt": -1, "stimulus": "<p id=\"stim\">10</p>", "key_press": -1, "trial_type": "single-stim", "trial_index": 270, "time_elapsed": 2762887, "internal_node_id": "0.0-198.0-0.0"}}, {"uniqueid": "MTK0958:34YB12FSQZVYUM34C5B5FKEYCCGGMM", "current_trial": 271, "dateTime": 1512939218959, "trialdata": {"rt": -1, "stimulus": "<p id=\"stim\">9</p>", "key_press": -1, "trial_type": "single-stim", "trial_index": 271, "time_elapsed": 2763888, "internal_node_id": "0.0-198.0-1.0"}}, {"uniqueid": "MTK0958:34YB12FSQZVYUM34C5B5FKEYCCGGMM", "current_trial": 272, "dateTime": 1512939219961, "trialdata": {"rt": -1, "stimulus": "<p id=\"stim\">8</p>", "key_press": -1, "trial_type": "single-stim", "trial_index": 272, "time_elapsed": 2764891, "internal_node_id": "0.0-198.0-2.0"}}, {"uniqueid": "MTK0958:34YB12FSQZVYUM34C5B5FKEYCCGGMM", "current_trial": 273, "dateTime": 1512939220964, "trialdata": {"rt": -1, "stimulus": "<p id=\"stim\">7</p>", "key_press": -1, "trial_type": "single-stim", "trial_index": 273, "time_elapsed": 2765894, "internal_node_i