{"condition": 0, "counterbalance": 184, "assignmentId": "3XIQGXAUMDFQV5R7X99KKOH3K937X8", "workerId": "MTK0759", "hitId": "3OZ4VAIBEXMPORPK81SXA9T7FNAVJC", "currenttrial": 626, "bonus": 0, "data": [{"uniqueid": "MTK0759:3XIQGXAUMDFQV5R7X99KKOH3K937X8", "current_trial": 0, "dateTime": 1512701888583, "trialdata": {"rt": 3340, "key_press": 32, "type": "INSTRUCTIONS", "trial_type": "text", "trial_index": 0, "time_elapsed": 3349, "internal_node_id": "0.0-0.0"}}, {"uniqueid": "MTK0759:3XIQGXAUMDFQV5R7X99KKOH3K937X8", "current_trial": 1, "dateTime": 1512701954678, "trialdata": {"rt": 66090, "key_press": 32, "type": "INSTRUCTIONS", "trial_type": "text", "trial_index": 1, "time_elapsed": 69447, "internal_node_id": "0.0-1.0"}}, {"uniqueid": "MTK0759:3XIQGXAUMDFQV5R7X99KKOH3K937X8", "current_trial": 2, "dateTime": 1512701980295, "trialdata": {"rt": [25593], "responses": ["ocean"], "type": "AUDIO_TEST", "trial_type": "audio-test", "trial_index": 2, "time_elapsed": 95064, "internal_node_id": "0.0-2.0"}}, {"uniqueid": "MTK0759:3XIQGXAUMDFQV5R7X99KKOH3K937X8", "current_trial": 3, "dateTime": 1512701989726, "trialdata": {"rt": [9415], "responses": ["crystal"], "type": "AUDIO_TEST", "trial_type": "audio-test", "trial_index": 3, "time_elapsed": 104494, "internal_node_id": "0.0-3.0"}}, {"uniqueid": "MTK0759:3XIQGXAUMDFQV5R7X99KKOH3K937X8", "current_trial": 4, "dateTime": 1512701998414, "trialdata": {"rt": [8678], "responses": ["spice"], "type": "AUDIO_TEST", "trial_type": "audio-test", "trial_index": 4, "time_elapsed": 113183, "internal_node_id": "0.0-4.0"}}, {"uniqueid": "MTK0759:3XIQGXAUMDFQV5R7X99KKOH3K937X8", "current_trial": 5, "dateTime": 1512702026956, "trialdata": {"rt": 27685, "responses": "{\"Q0\":\"1130\",\"Q1\":\"630\",\"Q2\":\"4\"}", "type": "SLEEP_SURVEY", "trial_type": "survey-text", "trial_index": 5, "time_elapsed": 141725, "internal_node_id": "0.0-5.0"}}, {"uniqueid": "MTK0759:3XIQGXAUMDFQV5R7X99KKOH3K937X8", "current_trial": 6, "dateTime": 1512702090470, "trialdata": {"rt": 62510, "key_press": 32, "type": "INSTRUCTIONS", "trial_type": "text", "trial_index": 6, "time_elapsed": 205239, "internal_node_id": "0.0-6.0"}}, {"uniqueid": "MTK0759:3XIQGXAUMDFQV5R7X99KKOH3K937X8", "current_trial": 7, "dateTime": 1512702120225, "trialdata": {"rt": 29251, "key_press": 32, "type": "INSTRUCTIONS", "trial_type": "text", "trial_index": 7, "time_elapsed": 234994, "internal_node_id": "0.0-7.0"}}, {"uniqueid": "MTK0759:3XIQGXAUMDFQV5R7X99KKOH3K937X8", "current_trial": 8, "dateTime": 1512702151903, "trialdata": {"rt": 31173, "key_press": 32, "type": "INSTRUCTIONS", "trial_type": "text", "trial_index": 8, "time_elapsed": 266672, "internal_node_id": "0.0-8.0"}}, {"uniqueid": "MTK0759:3XIQGXAUMDFQV5R7X99KKOH3K937X8", "current_trial": 9, "dateTime": 1512702171003, "trialdata": {"rt": [3225, 8679, 12340, 15369, 17873], "responses": ["16", "24", "8", "20", "13"], "num1": [9, 8, 4, 3, 1, 9], "num2": [6, 7, 3, 8, 5, 2], "num3": [1, 9, 1, 9, 7, 5], "type": "DISTRACTOR", "conditions": [18, 1200, "a", 18000], "trial": 0, "trial_type": "math-distractor", "trial_index": 9, "time_elapsed": 285772, "internal_node_id": "0.0-9.0"}}, {"uniqueid": "MTK0759:3XIQGXAUMDFQV5R7X99KKOH3K937X8", "current_trial": 10, "dateTime": 1512702174015, "trialdata": {"rt": -1, "stimulus": "<p id=\"stim\">10</p>", "key_press": -1, "trial_type": "single-stim", "trial_index": 10, "time_elapsed": 288784, "internal_node_id": "0.0-10.0-0.0"}}, {"uniqueid": "MTK0759:3XIQGXAUMDFQV5R7X99KKOH3K937X8", "current_trial": 11, "dateTime": 1512702175020, "trialdata": {"rt": -1, "stimulus": "<p id=\"stim\">9</p>", "key_press": -1, "trial_type": "single-stim", "trial_index": 11, "time_elapsed": 289789, "internal_node_id": "0.0-10.0-1.0"}}, {"uniqueid": "MTK0759:3XIQGXAUMDFQV5R7X99KKOH3K937X8", "current_trial": 12, "dateTime": 1512702176024, "trialdata": {"rt": -1, "stimulus": "<p id=\"stim\">8</p>", "key_press": -1, "trial_type": "single-stim", "trial_index": 12, "time_elapsed": 290793, "internal_node_id": "0.0-10.0-2.0"}}, {"uniqueid": "MTK0759:3XIQGXAUMDFQV5R7X99KKOH3K937X8", "current_trial": 13, "dateTime": 1512702177029, "trialdata": {"rt": -1, "stimulus": "<p id=\"stim\">7</p>", "key_press": -1, "trial_type": "single-stim", "trial_index": 13, "time_elapsed": 291798, "internal_node_id": "0.0-10.0-3.0"}}, {"uniqueid": "MTK0759:3XIQGXAUMDFQV5R7X99KKOH3K937X8", "current_trial": 14, "dateTime": 1512702178033, "trialdata": {"rt": -1, "stimulus": "<p id=\"stim\">6</p>", "key_press": -1, "trial_type": "single-stim", "trial_index": 14, "time_elapsed": 292802, "internal_node_id": "0.0-10.0-4.0"}}, {"uniqueid": "MTK0759:3XIQGXAUMDFQV5R7X99KKOH3K937X8", "current_trial": 15, "dateTime": 1512702179061, "trialdata": {"rt": -1, "stimulus": "<p id=\"stim\">5</p>", "key_press": -1, "trial_type": "single-stim", "trial_index": 15, "time_elapsed": 293830, "internal_node_id": "0.0-10.0-5.0"}}, {"uniqueid": "MTK0759:3XIQGXAUMDFQV5R7X99KKOH3K937X8", "current_trial": 16, "dateTime": 1512702180093, "trialdata": {"rt": -1, "stimulus": "<p id=\"stim\">4</p>", "key_press": -1, "trial_type": "single-stim", "trial_index": 16, "time_elapsed": 294862, "internal_node_id": "0.0-10.0-6.0"}}, {"uniqueid": "MTK0759:3XIQGXAUMDFQV5R7X99KKOH3K937X8", "current_trial": 17, "dateTime": 1512702181110, "trialdata": {"rt": -1, "stimulus": "<p id=\"stim\">3</p>", "key_press": -1, "trial_type": "single-stim", "trial_index": 17, "time_elapsed": 295879, "internal_node_id": "0.0-10.0-7.0"}}, {"uniqueid": "MTK0759:3XIQGXAUMDFQV5R7X99KKOH3K937X8", "current_trial": 18, "dateTime": 1512702182116, "trialdata": {"rt": -1, "stimulus": "<p id=\"stim\">2</p>", "key_press": -1, "trial_type": "single-stim", "trial_index": 18, "time_elapsed": 296885, "internal_node_id": "0.0-10.0-8.0"}}, {"uniqueid": "MTK0759:3XIQGXAUMDFQV5R7X99KKOH3K937X8", "current_trial": 19, "dateTime": 1512702183120, "trialdata": {"rt": -1, "stimulus": "<p id=\"stim\">1</p>", "key_press": -1, "trial_type": "single-stim", "trial_index": 19, "time_elapsed": 297889, "internal_node_id": "0.0-10.0-9.0"}}, {"uniqueid": "MTK0759:3XIQGXAUMDFQV5R7X99KKOH3K937X8", "current_trial": 20, "dateTime": 1512702184624, "trialdata": {"rt": -1, "stimulus": "<p id=\"stim\">+</p>", "key_press": -1, "type": "FIXATION", "trial_type": "single-stim", "trial_index": 20, "time_elapsed": 299389, "internal_node_id": "0.0-11.0-0.0"}}, {"uniqueid": "MTK0759:3XIQGXAUMDFQV5R7X99KKOH3K937X8", "current_trial": 21, "dateTime": 1512702186710, "trialdata": {"rt": -1000, "stimulus": "/static/audio/wordpool/TEMPLE.wav", "key_press": -1, "type": "PRES_AUD", "word": "temple", "wordID": 1447, "conditions": [18, 1200, "a", 18000], "trial": 0, "serialpos": 0, "trial_type": "single-audio", "trial_index": 21, "time_elapsed": 301479, "internal_node_id": "0.0-12.0"}}, {"uniqueid": "MTK0759:3XIQGXAUMDFQV5R7X99KKOH3K937X8", "current_trial": 22, "dateTime": 1512702188775, "trialdata": {"rt": -1000, "stimulus": "/static/audio/wordpool/PLATE.wav", "key_press": -1, "type": "PRES_AUD", "word": "plate", "wordID": 1085, "conditions": [18, 1200, "a", 18000], "trial": 0, "serialpos": 1, "trial_type": "single-audio", "trial_index": 22, "time_elapsed": 303544, "internal_node_id": "0.0-13.0"}}, {"uniqueid": "MTK0759:3XIQGXAUMDFQV5R7X99KKOH3K937X8", "current_trial": 23, "dateTime": 1512702191160, "trialdata": {"rt": -1000, "stimulus": "/static/audio/wordpool/AUTHOR.wav", "key_press": -1, "type": "PRES_AUD", "word": "author", "wordID": 60, "conditions": [18, 1200, "a", 18000], "trial": 0, "serialpos": 2, "trial_type": "single-audio", "trial_index": 23, "time_elapsed": 305928, "internal_node_id": "0.0-14.0"}}, {"uniqueid": "MTK0759:3XIQGXAUMDFQV5R7X99KKOH3K937X8", "current_trial": 24, "dateTime": 1512702193256, "trialdata": {"rt": -1000, "stimulus": "/static/audio/wordpool/FUNGUS.wav", "key_press": -1, "type": "PRES_AUD", "word": "fungus", "wordID": 613, "conditions": [18, 1200, "a", 18000], "trial": 0, "serialpos": 3, "trial_type": "single-audio", "trial_index": 24, "time_elapsed": 308024, "internal_node_id": "0.0-15.0"}}, {"uniqueid": "MTK0759:3XIQGXAUMDFQV5R7X99KKOH3K937X8", "current_trial": 25, "dateTime": 1512702195518, "trialdata": {"rt": -1000, "stimulus": "/static/audio/wordpool/FIDDLE.wav", "key_press": -1, "type": "PRES_AUD", "word": "fiddle", "wordID": 560, "conditions": [18, 1200, "a", 18000], "trial": 0, "serialpos": 4, "trial_type": "single-audio", "trial_index": 25, "time_elapsed": 310286, "internal_node_id": "0.0-16.0"}}, {"uniqueid": "MTK0759:3XIQGXAUMDFQV5R7X99KKOH3K937X8", "current_trial": 26, "dateTime": 1512702197625, "trialdata": {"rt": -1000, "stimulus": "/static/audio/wordpool/BRICK.wav", "key_press": -1, "type": "PRES_AUD", "word": "brick", "wordID": 171, "conditions": [18, 1200, "a", 18000], "trial": 0, "serialpos": 5, "trial_type": "single-audio", "trial_index": 26, "time_elapsed": 312393, "internal_node_id": "0.0-17.0"}}, {"uniqueid": "MTK0759:3XIQGXAUMDFQV5R7X99KKOH3K937X8", "current_trial": 27, "dateTime": 1512702200017, "trialdata": {"rt": -1000, "stimulus": "/static/audio/wordpool/UNCLE.wav", "key_press": -1, "type": "PRES_AUD", "word": "uncle", "wordID": 1535, "conditions": [18, 1200, "a", 18000], "trial": 0, "serialpos": 6, "trial_type": "single-audio", "trial_index": 27, "time_elapsed": 314786, "internal_node_id": "0.0-18.0"}}, {"uniqueid": "MTK0759:3XIQGXAUMDFQV5R7X99KKOH3K937X8", "current_trial": 28, "dateTime": 1512702202341, "trialdata": {"rt": -1000, "stimulus": "/static/audio/wordpool/HATCHET.wav", "key_press": -1, "type": "PRES_AUD", "word": "hatchet", "wordID": 690, "conditions": [18, 1200, "a", 18000], "trial": 0, "serialpos": 7, "trial_type": "single-audio", "trial_index": 28, "time_elapsed": 317110, "internal_node_id": "0.0-19.0"}}, {"uniqueid": "MTK0759:3XIQGXAUMDFQV5R7X99KKOH3K937X8", "current_trial": 29, "dateTime": 1512702204360, "trialdata": {"rt": -1000, "stimulus": "/static/audio/wordpool/THREAD.wav", "key_press": -1, "type": "PRES_AUD", "word": "thread", "wordID": 1459, "conditions": [18, 1200, "a", 18000], "trial": 0, "serialpos": 8, "trial_type": "single-audio", "trial_index": 29, "time_elapsed": 319129, "internal_node_id": "0.0-20.0"}}, {"uniqueid": "MTK0759:3XIQGXAUMDFQV5R7X99KKOH3K937X8", "current_trial": 30, "dateTime": 1512702206592, "trialdata": {"rt": -1000, "stimulus": "/static/audio/wordpool/PACKAGE.wav", "key_press": -1, "type": "PRES_AUD", "word": "package", "wordID": 996, "conditions": [18, 1200, "a", 18000], "trial": 0, "serialpos": 9, "trial_type": "single-audio", "trial_index": 30, "time_elapsed": 321361, "internal_node_id": "0.0-21.0"}}, {"uniqueid": "MTK0759:3XIQGXAUMDFQV5R7X99KKOH3K937X8", "current_trial": 31, "dateTime": 1512702208986, "trialdata": {"rt": -1000, "stimulus": "/static/audio/wordpool/WASP.wav", "key_press": -1, "type": "PRES_AUD", "word": "wasp", "wordID": 1592, "conditions": [18, 1200, "a", 18000], "trial": 0, "serialpos": 10, "trial_type": "single-audio", "trial_index": 31, "time_elapsed": 323755, "internal_node_id": "0.0-22.0"}}, {"uniqueid": "MTK0759:3XIQGXAUMDFQV5R7X99KKOH3K937X8", "current_trial": 32, "dateTime": 1512702211097, "trialdata": {"rt": -1000, "stimulus": "/static/audio/wordpool/LAPEL.wav", "key_press": -1, "type": "PRES_AUD", "word": "lapel", "wordID": 799, "conditions": [18, 1200, "a", 18000], "trial": 0, "serialpos": 11, "trial_type": "single-audio", "trial_index": 32, "time_elapsed": 325865, "internal_node_id": "0.0-23.0"}}, {"uniqueid": "MTK0759:3XIQGXAUMDFQV5R7X99KKOH3K937X8", "current_trial": 33, "dateTime": 1512702213336, "trialdata": {"rt": -1000, "stimulus": "/static/audio/wordpool/ICING.wav", "key_press": -1, "type": "PRES_AUD", "word": "icing", "wordID": 731, "conditions": [18, 1200, "a", 18000], "trial": 0, "serialpos": 12, "trial_type": "single-audio", "trial_index": 33, "time_elapsed": 328105, "internal_node_id": "0.0-24.0"}}, {"uniqueid": "MTK0759:3XIQGXAUMDFQV5R7X99KKOH3K937X8", "current_trial": 34, "dateTime": 1512702215540, "trialdata": {"rt": -1000, "stimulus": "/static/audio/wordpool/BLACKBOARD.wav", "key_press": -1, "type": "PRES_AUD", "word": "blackboard", "wordID": 132, "conditions": [18, 1200, "a", 18000], "trial": 0, "serialpos": 13, "trial_type": "single-audio", "trial_index": 34, "time_elapsed": 330308, "internal_node_id": "0.0-25.0"}}, {"uniqueid": "MTK0759:3XIQGXAUMDFQV5R7X99KKOH3K937X8", "current_trial": 35, "dateTime": 1512702217569, "trialdata": {"rt": -1000, "stimulus": "/static/audio/wordpool/OYSTER.wav", "key_press": -1, "type": "PRES_AUD", "word": "oyster", "wordID": 994, "conditions": [18, 1200, "a", 18000], "trial": 0, "serialpos": 14, "trial_type": "single-audio", "trial_index": 35, "time_elapsed": 332338, "internal_node_id": "0.0-26.0"}}, {"uniqueid": "MTK0759:3XIQGXAUMDFQV5R7X99KKOH3K937X8", "current_trial": 36, "dateTime": 1512702219941, "trialdata": {"rt": -1000, "stimulus": "/static/audio/wordpool/BEAVER.wav", "key_press": -1, "type": "PRES_AUD", "word": "beaver", "wordID": 108, "conditions": [18, 1200, "a", 18000], "trial": 0, "serialpos": 15, "trial_type": "single-audio", "trial_index": 36, "time_elapsed": 334710, "internal_node_id": "0.0-27.0"}}, {"uniqueid": "MTK0759:3XIQGXAUMDFQV5R7X99KKOH3K937X8", "current_trial": 37, "dateTime": 1512702222165, "trialdata": {"rt": -1000, "stimulus": "/static/audio/wordpool/MATCH.wav", "key_press": -1, "type": "PRES_AUD", "word": "match", "wordID": 877, "conditions": [18, 1200, "a", 18000], "trial": 0, "serialpos": 16, "trial_type": "single-audio", "trial_index": 37, "time_elapsed": 336934, "internal_node_id": "0.0-28.0"}}, {"uniqueid": "MTK0759:3XIQGXAUMDFQV5R7X99KKOH3K937X8", "current_trial": 38, "dateTime": 1512702224650, "trialdata": {"rt": -1000, "stimulus": "/static/audio/wordpool/JELLY.wav", "key_press": -1, "type": "PRES_AUD", "word": "jelly", "wordID": 754, "conditions": [18, 1200, "a", 18000], "trial": 0, "serialpos": 17, "trial_type": "single-audio", "trial_index": 38, "time_elapsed": 339419, "internal_node_id": "0.0-29.0"}}, {"uniqueid": "MTK0759:3XIQGXAUMDFQV5R7X99KKOH3K937X8", "current_trial": 39, "dateTime": 1512702226031, "trialdata": {"rt": -1, "stimulus": "", "key_press": -1, "type": "PRE_RECALL_DELAY", "trial_type": "single-stim", "trial_index": 39, "time_elapsed": 340799, "internal_node_id": "0.0-30.0-0.0"}}, {"uniqueid": "MTK0759:3XIQGXAUMDFQV5R7X99KKOH3K937X8", "current_trial": 40, "dateTime": 1512702226537, "trialdata": {"rt": -1000, "stimulus": "/static/audio/400Hz.wav", "key_press": -1, "type": "PRE_RECALL_ALERT", "trial_type": "single-audio", "trial_index": 40, "time_elapsed": 341305, "internal_node_id": "0.0-31.0"}}, {"uniqueid": "MTK0759:3XIQGXAUMDFQV5R7X99KKOH3K937X8", "current_trial": 41, "dateTime": 1512702286576, "trialdata": {"rt": [2958, 4886, 6897, 8820, 15074, 44351], "recwords": ["jelly", "plate", "uncle", "lapel", "icing", ""], "type": "FREE_RECALL", "conditions": [18, 1200, "a", 18000], "trial": 0, "trial_type": "free-recall", "trial_index": 41, "time_elapsed": 401325, "internal_node_id": "0.0-32.0-0.0"}}, {"uniqueid": "MTK0759:3XIQGXAUMDFQV5R7X99KKOH3K937X8", "current_trial": 42, "dateTime": 1512702304878, "trialdata": {"rt": 16293, "key_press": 32, "type": "INSTRUCTIONS", "trial_type": "text", "trial_index": 42, "time_elapsed": 419646, "internal_node_id": "0.0-33.0"}}, {"uniqueid": "MTK0759:3XIQGXAUMDFQV5R7X99KKOH3K937X8", "current_trial": 43, "dateTime": 1512702324892, "trialdata": {"rt": [4138, 6218, 9097, 11703, 13913, 16004], "responses": ["15", "8", "17", "13", "13", "12"], "num1": [3, 2, 4, 2, 1, 3, 9], "num2": [4, 4, 8, 7, 7, 3, 1], "num3": [8, 2, 5, 4, 5, 6, 1], "type": "DISTRACTOR", "conditions": [18, 1200, "v", 18000], "trial": 1, "trial_type": "math-distractor", "trial_index": 43, "time_elapsed": 439661, "internal_node_id": "0.0-34.0"}}, {"uniqueid": "MTK0759:3XIQGXAUMDFQV5R7X99KKOH3K937X8", "current_trial": 44, "dateTime": 1512702327899, "trialdata": {"rt": -1, "stimulus": "<p id=\"stim\">10</p>", "key_press": -1, "trial_type": "single-stim", "trial_index": 44, "time_elapsed": 442668, "internal_node_id": "0.0-35.0-0.0"}}, {"uniqueid": "MTK0759:3XIQGXAUMDFQV5R7X99KKOH3K937X8", "current_trial": 45, "dateTime": 1512702328907, "trialdata": {"rt": -1, "stimulus": "<p id=\"stim\">9</p>", "key_press": -1, "trial_type": "single-stim", "trial_index": 45, "time_elapsed": 443676, "internal_node_id": "0.0-35.0-1.0"}}, {"uniqueid": "MTK0759:3XIQGXAUMDFQV5R7X99KKOH3K937X8", "current_trial": 46, "dateTime": 1512702329914, "trialdata": {"rt": -1, "stimulus": "<p id=\"stim\">8</p>", "key_press": -1, "trial_type": "single-stim", "trial_index": 46, "time_elapsed": 444683, "internal_node_id": "0.0-35.0-2.0"}}, {"uniqueid": "MTK0759:3XIQGXAUMDFQV5R7X99KKOH3K937X8", "current_trial": 47, "dateTime": 1512702330921, "trialdata": {"rt": -1, "stimulus": "<p id=\"stim\">7</p>", "key_press": -1, "trial_type": "single-stim", "trial_index": 47, "time_elapsed": 445690, "internal_node_id": "0.0-35.0-3.0"}}, {"uniqueid": "MTK0759:3XIQGXAUMDFQV5R7X99KKOH3K937X8", "current_trial": 48, "dateTime": 1512702331927, "trialdata": {"rt": -1, "stimulus": "<p id=\"stim\">6</p>", "key_press": -1, "trial_type": "single-stim", "trial_index": 48, "time_elapsed": 446696, "internal_node_id": "0.0-35.0-4.0"}}, {"uniqueid": "MTK0759:3XIQGXAUMDFQV5R7X99KKOH3K937X8", "current_trial": 49, "dateTime": 1512702332933, "trialdata": {"rt": -1, "stimulus": "<p id=\"stim\">5</p>", "key_press": -1, "trial_type": "single-stim", "trial_index": 49, "time_elapsed": 447702, "internal_node_id": "0.0-35.0-5.0"}}, {"uniqueid": "MTK0759:3XIQGXAUMDFQV5R7X99KKOH3K937X8", "current_trial": 50, "dateTime": 1512702333940, "trialdata": {"rt": -1, "stimulus": "<p id=\"stim\">4</p>", "key_press": -1, "trial_type": "single-stim", "trial_index": 50, "time_elapsed": 448709, "internal_node_id": "0.0-35.0-6.0"}}, {"uniqueid": "MTK0759:3XIQGXAUMDFQV5R7X99KKOH3K937X8", "current_trial": 51, "dateTime": 1512702334951, "trialdata": {"rt": -1, "stimulus": "<p id=\"stim\">3</p>", "key_press": -1, "trial_type": "single-stim", "trial_index": 51, "time_elapsed": 449720, "internal_node_id": "0.0-35.0-7.0"}}, {"uniqueid": "MTK0759:3XIQGXAUMDFQV5R7X99KKOH3K937X8", "current_trial": 52, "dateTime": 1512702335958, "trialdata": {"rt": -1, "stimulus": "<p id=\"stim\">2</p>", "key_press": -1, "trial_type": "single-stim", "trial_index": 52, "time_elapsed": 450727, "internal_node_id": "0.0-35.0-8.0"}}, {"uniqueid": "MTK0759:3XIQGXAUMDFQV5R7X99KKOH3K937X8", "current_trial": 53, "dateTime": 1512702336966, "trialdata": {"rt": -1, "stimulus": "<p id=\"stim\">1</p>", "key_press": -1, "trial_type": "single-stim", "trial_index": 53, "time_elapsed": 451735, "internal_node_id": "0.0-35.0-9.0"}}, {"uniqueid": "MTK0759:3XIQGXAUMDFQV5R7X99KKOH3K937X8", "current_trial": 54, "dateTime": 1512702338471, "trialdata": {"rt": -1, "stimulus": "<p id=\"stim\">+</p>", "key_press": -1, "type": "FIXATION", "trial_type": "single-stim", "trial_index": 54, "time_elapsed": 453240, "internal_node_id": "0.0-36.0-0.0"}}, {"uniqueid": "MTK0759:3XIQGXAUMDFQV5R7X99KKOH3K937X8", "current_trial": 55, "dateTime": 1512702339680, "trialdata": {"rt": -1, "stimulus": "<p id=\"stim\">ROD</p>", "key_press": -1, "type": "PRES_VIS", "word": "rod", "wordID": 1202, "conditions": [18, 1200, "v", 18000], "trial": 1, "serialpos": 0, "trial_type": "single-stim", "trial_index": 55, "time_elapsed": 454449, "internal_node_id": "0.0-37.0"}}, {"uniqueid": "MTK0759:3XIQGXAUMDFQV5R7X99KKOH3K937X8", "current_trial": 56, "dateTime": 1512702341744, "trialdata": {"rt": -1, "stimulus": "<p id=\"stim\">GANGSTER</p>", "key_press": -1, "type": "PRES_VIS", "word": "gangster", "wordID": 619, "conditions": [18, 1200, "v", 18000], "trial": 1, "serialpos": 1, "trial_type": "single-stim", "trial_index": 56, "time_elapsed": 456513, "internal_node_id": "0.0-38.0"}}, {"uniqueid": "MTK0759:3XIQGXAUMDFQV5R7X99KKOH3K937X8", "current_trial": 57, "dateTime": 1512702344085, "trialdata": {"rt": -1, "stimulus": "<p id=\"stim\">SUNSET</p>", "key_press": -1, "type": "PRES_VIS", "word": "sunset", "wordID": 1407, "conditions": [18, 1200, "v", 18000], "trial": 1, "serialpos": 2, "trial_type": "single-stim", "trial_index": 57, "time_elapsed": 458854, "internal_node_id": "0.0-39.0"}}, {"uniqueid": "MTK0759:3XIQGXAUMDFQV5R7X99KKOH3K937X8", "current_trial": 58, "dateTime": 1512702346432, "trialdata": {"rt": -1, "stimulus": "<p id=\"stim\">COOKBOOK</p>", "key_press": -1, "type": "PRES_VIS", "word": "cookbook", "wordID": 372, "conditions": [18, 1200, "v", 18000], "trial": 1, "serialpos": 3, "trial_type": "single-stim", "trial_index": 58, "time_elapsed": 461201, "internal_node_id": "0.0-40.0"}}, {"uniqueid": "MTK0759:3XIQGXAUMDFQV5R7X99KKOH3K937X8", "current_trial": 59, "dateTime": 1512702348673, "trialdata": {"rt": -1, "stimulus": "<p id=\"stim\">OINTMENT</p>", "key_press": -1, "type": "PRES_VIS", "word": "ointment", "wordID": 973, "conditions": [18, 1200, "v", 18000], "trial": 1, "serialpos": 4, "trial_type": "single-stim", "trial_index": 59, "time_elapsed": 463442, "internal_node_id": "0.0-41.0"}}, {"uniqueid": "MTK0759:3XIQGXAUMDFQV5R7X99KKOH3K937X8", "current_trial": 60, "dateTime": 1512702350691, "trialdata": {"rt": -1, "stimulus": "<p id=\"stim\">MONEY</p>", "key_press": -1, "type": "PRES_VIS", "word": "money", "wordID": 907, "conditions": [18, 1200, "v", 18000], "trial": 1, "serialpos": 5, "trial_type": "single-stim", "trial_index": 60, "time_elapsed": 465460, "internal_node_id": "0.0-42.0"}}, {"uniqueid": "MTK0759:3XIQGXAUMDFQV5R7X99KKOH3K937X8", "current_trial": 61, "dateTime": 1512702352759, "trialdata": {"rt": -1, "stimulus": "<p id=\"stim\">SPOON</p>", "key_press": -1, "type": "PRES_VIS", "word": "spoon", "wordID": 1356, "conditions": [18, 1200, "v", 18000], "trial": 1, "serialpos": 6, "trial_type": "single-stim", "trial_index": 61, "time_elapsed": 467528, "internal_node_id": "0.0-43.0"}}, {"uniqueid": "MTK0759:3XIQGXAUMDFQV5R7X99KKOH3K937X8", "current_trial": 62, "dateTime": 1512702354817, "trialdata": {"rt": -1, "stimulus": "<p id=\"stim\">FREEZER</p>", "key_press": -1, "type": "PRES_VIS", "word": "freezer", "wordID": 603, "conditions": [18, 1200, "v", 18000], "trial": 1, "serialpos": 7, "trial_type": "single-stim", "trial_index": 62, "time_elapsed": 469582, "internal_node_id": "0.0-44.0"}}, {"uniqueid": "MTK0759:3XIQGXAUMDFQV5R7X99KKOH3K937X8", "current_trial": 63, "dateTime": 1512702357109, "trialdata": {"rt": -1, "stimulus": "<p id=\"stim\">TURTLE</p>", "key_press": -1, "type": "PRES_VIS", "word": "turtle", "wordID": 1521, "conditions": [18, 1200, "v", 18000], "trial": 1, "serialpos": 8, "trial_type": "single-stim", "trial_index": 63, "time_elapsed": 471878, "internal_node_id": "0.0-45.0"}}, {"uniqueid": "MTK0759:3XIQGXAUMDFQV5R7X99KKOH3K937X8", "current_trial": 64, "dateTime": 1512702359204, "trialdata": {"rt": -1, "stimulus": "<p id=\"stim\">MOP</p>", "key_press": -1, "type": "PRES_VIS", "word": "mop", "wordID": 915, "conditions": [18, 1200, "v", 18000], "trial": 1, "serialpos": 9, "trial_type": "single-stim", "trial_index": 64, "time_elapsed": 473969, "internal_node_id": "0.0-46.0"}}, {"uniqueid": "MTK0759:3XIQGXAUMDFQV5R7X99KKOH3K937X8", "current_trial": 65, "dateTime": 1512702361327, "trialdata": {"rt": -1, "stimulus": "<p id=\"stim\">TUBA</p>", "key_press": -1, "type": "PRES_VIS", "word": "tuba", "wordID": 1514, "conditions": [18, 1200, "v", 18000], "trial": 1, "serialpos": 10, "trial_type": "single-stim", "trial_index": 65, "time_elapsed": 476096, "internal_node_id": "0.0-47.0"}}, {"uniqueid": "MTK0759:3XIQGXAUMDFQV5R7X99KKOH3K937X8", "current_trial": 66, "dateTime": 1512702363608, "trialdata": {"rt": -1, "stimulus": "<p id=\"stim\">SWORD</p>", "key_press": -1, "type": "PRES_VIS", "word": "sword", "wordID": 1422, "conditions": [18, 1200, "v", 18000], "trial": 1, "serialpos": 11, "trial_type": "single-stim", "trial_index": 66, "time_elapsed": 478377, "internal_node_id": "0.0-48.0"}}, {"uniqueid": "MTK0759:3XIQGXAUMDFQV5R7X99KKOH3K937X8", "current_trial": 67, "dateTime": 1512702365991, "trialdata": {"rt": -1, "stimulus": "<p id=\"stim\">MAPLE</p>", "key_press": -1, "type": "PRES_VIS", "word": "maple", "wordID": 865, "conditions": [18, 1200, "v", 18000], "trial": 1, "serialpos": 12, "trial_type": "single-stim", "trial_index": 67, "time_elapsed": 480760, "internal_node_id": "0.0-49.0"}}, {"uniqueid": "MTK0759:3XIQGXAUMDFQV5R7X99KKOH3K937X8", "current_trial": 68, "dateTime": 1512702368171, "trialdata": {"rt": -1, "stimulus": "<p id=\"stim\">SHERIFF</p>", "key_press": -1, "type": "PRES_VIS", "word": "sheriff", "wordID": 1283, "conditions": [18, 1200, "v", 18000], "trial": 1, "serialpos": 13, "trial_type": "single-stim", "trial_index": 68, "time_elapsed": 482924, "internal_node_id": "0.0-50.0"}}, {"uniqueid": "MTK0759:3XIQGXAUMDFQV5R7X99KKOH3K937X8", "current_trial": 69, "dateTime": 1512702370343, "trialdata": {"rt": -1, "stimulus": "<p id=\"stim\">TORTOISE</p>", "key_press": -1, "type": "PRES_VIS", "word": "tortoise", "wordID": 1485, "conditions": [18, 1200, "v", 18000], "trial": 1, "serialpos": 14, "trial_type": "single-stim", "trial_index": 69, "time_elapsed": 485112, "internal_node_id": "0.0-51.0"}}, {"uniqueid": "MTK0759:3XIQGXAUMDFQV5R7X99KKOH3K937X8", "current_trial": 70, "dateTime": 1512702372740, "trialdata": {"rt": -1, "stimulus": "<p id=\"stim\">TWEEZERS</p>", "key_press": -1, "type": "PRES_VIS", "word": "tweezers", "wordID": 1525, "conditions": [18, 1200, "v", 18000], "trial": 1, "serialpos": 15, "trial_type": "single-stim", "trial_index": 70, "time_elapsed": 487509, "internal_node_id": "0.0-52.0"}}, {"uniqueid": "MTK0759:3XIQGXAUMDFQV5R7X99KKOH3K937X8", "current_trial": 71, "dateTime": 1512702374819, "trialdata": {"rt": -1, "stimulus": "<p id=\"stim\">PISTOL</p>", "key_press": -1, "type": "PRES_VIS", "word": "pistol", "wordID": 1074, "conditions": [18, 1200, "v", 18000], "trial": 1, "serialpos": 16, "trial_type": "single-stim", "trial_index": 71, "time_elapsed": 489588, "internal_node_id": "0.0-53.0"}}, {"uniqueid": "MTK0759:3XIQGXAUMDFQV5R7X99KKOH3K937X8", "current_trial": 72, "dateTime": 1512702377026, "trialdata": {"rt": -1, "stimulus": "<p id=\"stim\">PUDDLE</p>", "key_press": -1, "type": "PRES_VIS", "word": "puddle", "wordID": 1139, "conditions": [18, 1200, "v", 18000], "trial": 1, "serialpos": 17, "trial_type": "single-stim", "trial_index": 72, "time_elapsed": 491795, "internal_node_id": "0.0-54.0"}}, {"uniqueid": "MTK0759:3XIQGXAUMDFQV5R7X99KKOH3K937X8", "current_trial": 73, "dateTime": 1512702379357, "trialdata": {"rt": -1, "stimulus": "", "key_press": -1, "type": "PRE_RECALL_DELAY", "trial_type": "single-stim", "trial_index": 73, "time_elapsed": 494126, "internal_node_id": "0.0-55.0-0.0"}}, {"uniqueid": "MTK0759:3XIQGXAUMDFQV5R7X99KKOH3K937X8", "current_trial": 74, "dateTime": 1512702379869, "trialdata": {"rt": -1000, "stimulus": "/static/audio/400Hz.wav", "key_press": -1, "type": "PRE_RECALL_ALERT", "trial_type": "single-audio", "trial_index": 74, "time_elapsed": 494635, "internal_node_id": "0.0-56.0"}}, {"uniqueid": "MTK0759:3XIQGXAUMDFQV5R7X99KKOH3K937X8", "current_trial": 75, "dateTime": 1512702439901, "trialdata": {"rt": [2721, 4862, 12035, 18359, 26167, 30719], "recwords": ["cookbook", "freezer", "sheriff", "pistol", "spoon", "turtle"], "type": "FREE_RECALL", "conditions": [18, 1200, "v", 18000], "trial": 1, "trial_type": "free-recall", "trial_index": 75, "time_elapsed": 554650, "internal_node_id": "0.0-57.0-0.0"}}, {"uniqueid": "MTK0759:3XIQGXAUMDFQV5R7X99KKOH3K937X8", "current_trial": 76, "dateTime": 1512702459815, "trialdata": {"rt": 17857, "key_press": 32, "type": "INSTRUCTIONS", "trial_type": "text", "trial_index": 76, "time_elapsed": 574536, "internal_node_id": "0.0-58.0"}}, {"uniqueid": "MTK0759:3XIQGXAUMDFQV5R7X99KKOH3K937X8", "current_trial": 77, "dateTime": 1512702472829, "trialdata": {"rt": [4679, 8170, 9927], "responses": ["15", "17", "9"], "num1": [5, 6, 5, 9], "num2": [1, 5, 2, 7], "num3": [9, 6, 2, 4], "type": "DISTRACTOR", "conditions": [12, 1600, "v", 12000], "trial": 2, "trial_type": "math-distractor", "trial_index": 77, "time_elapsed": 587598, "internal_node_id": "0.0-59.0"}}, {"uniqueid": "MTK0759:3XIQGXAUMDFQV5R7X99KKOH3K937X8", "current_trial": 78, "dateTime": 1512702475838, "trialdata": {"rt": -1, "stimulus": "<p id=\"stim\">10</p>", "key_press": -1, "trial_type": "single-stim", "trial_index": 78, "time_elapsed": 590607, "internal_node_id": "0.0-60.0-0.0"}}, {"uniqueid": "MTK0759:3XIQGXAUMDFQV5R7X99KKOH3K937X8", "current_trial": 79, "dateTime": 1512702476847, "trialdata": {"rt": -1, "stimulus": "<p id=\"stim\">9</p>", "key_press": -1, "trial_type": "single-stim", "trial_index": 79, "time_elapsed": 591612, "internal_node_id": "0.0-60.0-1.0"}}, {"uniqueid": "MTK0759:3XIQGXAUMDFQV5R7X99KKOH3K937X8", "current_trial": 80, "dateTime": 1512702477849, "trialdata": {"rt": -1, "stimulus": "<p id=\"stim\">8</p>", "key_press": -1, "trial_type": "single-stim", "trial_index": 80, "time_elapsed": 592618, "internal_node_id": "0.0-60.0-2.0"}}, {"uniqueid": "MTK0759:3XIQGXAUMDFQV5R7X99KKOH3K937X8", "current_trial": 81, "dateTime": 1512702478857, "trialdata": {"rt": -1, "stimulus": "<p id=\"stim\">7</p>", "key_press": -1, "trial_type": "single-stim", "trial_index": 81, "time_elapsed": 593626, "internal_node_id": "0.0-60.0-3.0"}}, {"uniqueid": "MTK0759:3XIQGXAUMDFQV5R7X99KKOH3K937X8", "current_trial": 82, "dateTime": 1512702479863, "trialdata": {"rt": -1, "stimulus": "<p id=\"stim\">6</p>", "key_press": -1, "trial_type": "single-stim", "trial_index": 82, "time_elapsed": 594632, "internal_node_id": "0.0-60.0-4.0"}}, {"uniqueid": "MTK0759:3XIQGXAUMDFQV5R7X99KKOH3K937X8", "current_trial": 83, "dateTime": 1512702480871, "trialdata": {"rt": -1, "stimulus": "<p id=\"stim\">5</p>", "key_press": -1, "trial_type": "single-stim", "trial_index": 83, "time_elapsed": 595640, "internal_node_id": "0.0-60.0-5.0"}}, {"uniqueid": "MTK0759:3XIQGXAUMDFQV5R7X99KKOH3K937X8", "current_trial": 84, "dateTime": 1512702481879, "trialdata": {"rt": -1, "stimulus": "<p id=\"stim\">4</p>", "key_press": -1, "trial_type": "single-stim", "trial_index": 84, "time_elapsed": 596648, "internal_node_id": "0.0-60.0-6.0"}}, {"uniqueid": "MTK0759:3XIQGXAUMDFQV5R7X99KKOH3K937X8", "current_trial": 85, "dateTime": 1512702482883, "trialdata": {"rt": -1, "stimulus": "<p id=\"stim\">3</p>", "key_press": -1, "trial_type": "single-stim", "trial_index": 85, "time_elapsed": 597652, "internal_node_id": "0.0-60.0-7.0"}}, {"uniqueid": "MTK0759:3XIQGXAUMDFQV5R7X99KKOH3K937X8", "current_trial": 86, "dateTime": 1512702483891, "trialdata": {"rt": -1, "stimulus": "<p id=\"stim\">2</p>", "key_press": -1, "trial_type": "single-stim", "trial_index": 86, "time_elapsed": 598660, "internal_node_id": "0.0-60.0-8.0"}}, {"uniqueid": "MTK0759:3XIQGXAUMDFQV5R7X99KKOH3K937X8", "current_trial": 87, "dateTime": 1512702484899, "trialdata": {"rt": -1, "stimulus": "<p id=\"stim\">1</p>", "key_press": -1, "trial_type": "single-stim", "trial_index": 87, "time_elapsed": 599668, "internal_node_id": "0.0-60.0-9.0"}}, {"uniqueid": "MTK0759:3XIQGXAUMDFQV5R7X99KKOH3K937X8", "current_trial": 88, "dateTime": 1512702486405, "trialdata": {"rt": -1, "stimulus": "<p id=\"stim\">+</p>", "key_press": -1, "type": "FIXATION", "trial_type": "single-stim", "trial_index": 88, "time_elapsed": 601174, "internal_node_id": "0.0-61.0-0.0"}}, {"uniqueid": "MTK0759:3XIQGXAUMDFQV5R7X99KKOH3K937X8", "current_trial": 89, "dateTime": 1512702488010, "trialdata": {"rt": -1, "stimulus": "<p id=\"stim\">PASTRY</p>", "key_press": -1, "type": "PRES_VIS", "word": "pastry", "wordID": 1021, "conditions": [12, 1600, "v", 12000], "trial": 2, "serialpos": 0, "trial_type": "single-stim", "trial_index": 89, "time_elapsed": 602779, "internal_node_id": "0.0-62.0"}}, {"uniqueid": "MTK0759:3XIQGXAUMDFQV5R7X99KKOH3K937X8", "current_trial": 90, "dateTime": 1512702490773, "trialdata": {"rt": -1, "stimulus": "<p id=\"stim\">DAUGHTER</p>", "key_press": -1, "type": "PRES_VIS", "word": "daughter", "wordID": 441, "conditions": [12, 1600, "v", 12000], "trial": 2, "serialpos": 1, "trial_type": "single-stim", "trial_index": 90, "time_elapsed": 605542, "internal_node_id": "0.0-63.0"}}, {"uniqueid": "MTK0759:3XIQGXAUMDFQV5R7X99KKOH3K937X8", "current_trial": 91, "dateTime": 1512702493203, "trialdata": {"rt": -1, "stimulus": "<p id=\"stim\">GIRL</p>", "key_press": -1, "type": "PRES_VIS", "word": "girl", "wordID": 636, "conditions": [12, 1600, "v", 12000], "trial": 2, "serialpos": 2, "trial_type": "single-stim", "trial_index": 91, "time_elapsed": 607972, "internal_node_id": "0.0-64.0"}}, {"uniqueid": "MTK0759:3XIQGXAUMDFQV5R7X99KKOH3K937X8", "current_trial": 92, "dateTime": 1512702495734, "trialdata": {"rt": -1, "stimulus": "<p id=\"stim\">MOTOR</p>", "key_press": -1, "type": "PRES_VIS", "word": "motor", "wordID": 921, "conditions": [12, 1600, "v", 12000], "trial": 2, "serialpos": 3, "trial_type": "single-stim", "trial_index": 92, "time_elapsed": 610499, "internal_node_id": "0.0-65.0"}}, {"uniqueid": "MTK0759:3XIQGXAUMDFQV5R7X99KKOH3K937X8", "current_trial": 93, "dateTime": 1512702498210, "trialdata": {"rt": -1, "stimulus": "<p id=\"stim\">PISTON</p>", "key_press": -1, "type": "PRES_VIS", "word": "piston", "wordID": 1075, "conditions": [12, 1600, "v", 12000], "trial": 2, "serialpos": 4, "trial_type": "single-stim", "trial_index": 93, "time_elapsed": 612979, "internal_node_id": "0.0-66.0"}}, {"uniqueid": "MTK0759:3XIQGXAUMDFQV5R7X99KKOH3K937X8", "current_trial": 94, "dateTime": 1512702500880, "trialdata": {"rt": -1, "stimulus": "<p id=\"stim\">STICKER</p>", "key_press": -1, "type": "PRES_VIS", "word": "sticker", "wordID": 1381, "conditions": [12, 1600, "v", 12000], "trial": 2, "serialpos": 5, "trial_type": "single-stim", "trial_index": 94, "time_elapsed": 615649, "internal_node_id": "0.0-67.0"}}, {"uniqueid": "MTK0759:3XIQGXAUMDFQV5R7X99KKOH3K937X8", "current_trial": 95, "dateTime": 1512702503532, "trialdata": {"rt": -1, "stimulus": "<p id=\"stim\">VIRUS</p>", "key_press": -1, "type": "PRES_VIS", "word": "virus", "wordID": 1571, "conditions": [12, 1600, "v", 12000], "trial": 2, "serialpos": 6, "trial_type": "single-stim", "trial_index": 95, "time_elapsed": 618301, "internal_node_id": "0.0-68.0"}}, {"uniqueid": "MTK0759:3XIQGXAUMDFQV5R7X99KKOH3K937X8", "current_trial": 96, "dateTime": 1512702506321, "trialdata": {"rt": -1, "stimulus": "<p id=\"stim\">CYCLONE</p>", "key_press": -1, "type": "PRES_VIS", "word": "cyclone", "wordID": 430, "conditions": [12, 1600, "v", 12000], "trial": 2, "serialpos": 7, "trial_type": "single-stim", "trial_index": 96, "time_elapsed": 621090, "internal_node_id": "0.0-69.0"}}, {"uniqueid": "MTK0759:3XIQGXAUMDFQV5R7X99KKOH3K937X8", "current_trial": 97, "dateTime": 1512702508855, "trialdata": {"rt": -1, "stimulus": "<p id=\"stim\">GAZELLE</p>", "key_press": -1, "type": "PRES_VIS", "word": "gazelle", "wordID": 627, "conditions": [12, 1600, "v", 12000], "trial": 2, "serialpos": 8, "trial_type": "single-stim", "trial_index": 97, "time_elapsed": 623624, "internal_node_id": "0.0-70.0"}}, {"uniqueid": "MTK0759:3XIQGXAUMDFQV5R7X99KKOH3K937X8", "current_trial": 98, "dateTime": 1512702511601, "trialdata": {"rt": -1, "stimulus": "<p id=\"stim\">DINER</p>", "key_press": -1, "type": "PRES_VIS", "word": "diner", "wordID": 466, "conditions": [12, 1600, "v", 12000], "trial": 2, "serialpos": 9, "trial_type": "single-stim", "trial_index": 98, "time_elapsed": 626370, "internal_node_id": "0.0-71.0"}}, {"uniqueid": "MTK0759:3XIQGXAUMDFQV5R7X99KKOH3K937X8", "current_trial": 99, "dateTime": 1512702514030, "trialdata": {"rt": -1, "stimulus": "<p id=\"stim\">LIGHTNING</p>", "key_press": -1, "type": "PRES_VIS", "word": "lightning", "wordID": 819, "conditions": [12, 1600, "v", 12000], "trial": 2, "serialpos": 10, "trial_type": "single-stim", "trial_index": 99, "time_elapsed": 628799, "internal_node_id": "0.0-72.0"}}, {"uniqueid": "MTK0759:3XIQGXAUMDFQV5R7X99KKOH3K937X8", "current_trial": 100, "dateTime": 1512702516761, "trialdata": {"rt": -1, "stimulus": "<p id=\"stim\">BADGE</p>", "key_press": -1, "type": "PRES_VIS", "word": "badge", "wordID": 67, "conditions": [12, 1600, "v", 12000], "trial": 2, "serialpos": 11, "trial_type": "single-stim", "trial_index": 100, "time_elapsed": 631530, "internal_node_id": "0.0-73.0"}}, {"uniqueid": "MTK0759:3XIQGXAUMDFQV5R7X99KKOH3K937X8", "current_trial": 101, "dateTime": 1512702519240, "trialdata": {"rt": -1, "stimulus": "", "key_press": -1, "type": "PRE_RECALL_DELAY", "trial_type": "single-stim", "trial_index": 101, "time_elapsed": 634009, "internal_node_id": "0.0-74.0-0.0"}}, {"uniqueid": "MTK0759:3XIQGXAUMDFQV5R7X99KKOH3K937X8", "current_trial": 102, "dateTime": 1512702519749, "trialdata": {"rt": -1000, "stimulus": "/static/audio/400Hz.wav", "key_press": -1, "type": "PRE_RECALL_ALERT", "trial_type": "single-audio", "trial_index": 102, "time_elapsed": 634518, "internal_node_id": "0.0-75.0"}}, {"uniqueid": "MTK0759:3XIQGXAUMDFQV5R7X99KKOH3K937X8", "current_trial": 103, "dateTime": 1512702579778, "trialdata": {"rt": [2467, 4175, 6336, 8206, 13713, 21333], "recwords": ["daughter", "girl", "piston", "engine", "gazelle", "cyclone"], "type": "FREE_RECALL", "conditions": [12, 1600, "v", 12000], "trial": 2, "trial_type": "free-recall", "trial_index": 103, "time_elapsed": 694531, "internal_node_id": "0.0-76.0-0.0"}}, {"uniqueid": "MTK0759:3XIQGXAUMDFQV5R7X99KKOH3K937X8", "current_trial": 104, "dateTime": 1512702597420, "trialdata": {"rt": 15636, "key_press": 32, "type": "INSTRUCTIONS", "trial_type": "text", "trial_index": 104, "time_elapsed": 712185, "internal_node_id": "0.0-77.0"}}, {"uniqueid": "MTK0759:3XIQGXAUMDFQV5R7X99KKOH3K937X8", "current_trial": 105, "dateTime": 1512702623438, "trialdata": {"rt": [2089, 4488, 6223, 9513, 11963, 13711, 15337, 17837, 19858, 21391, 23235], "responses": ["18", "15", "13", "19", "18", "18", "17", "17", "7", "11", "9"], "num1": [7, 5, 1, 9, 7, 8, 5, 5, 2, 3, 3, 6], "num2": [9, 3, 6, 3, 8, 8, 5, 9, 4, 7, 4, 9], "num3": [2, 7, 6, 7, 3, 2, 7, 3, 1, 1, 2, 4], "type": "DISTRACTOR", "conditions": [24, 1600, "v", 24000], "trial": 3, "trial_type": "math-distractor", "trial_index": 105, "time_elapsed": 738207, "internal_node_id": "0.0-78.0"}}, {"uniqueid": "MTK0759:3XIQGXAUMDFQV5R7X99KKOH3K937X8", "current_trial": 106, "dateTime": 1512702626444, "trialdata": {"rt": -1, "stimulus": "<p id=\"stim\">10</p>", "key_press": -1, "trial_type": "single-stim", "trial_index": 106, "time_elapsed": 741213, "internal_node_id": "0.0-79.0-0.0"}}, {"uniqueid": "MTK0759:3XIQGXAUMDFQV5R7X99KKOH3K937X8", "current_trial": 107, "dateTime": 1512702627452, "trialdata": {"rt": -1, "stimulus": "<p id=\"stim\">9</p>", "key_press": -1, "trial_type": "single-stim", "trial_index": 107, "time_elapsed": 742221, "internal_node_id": "0.0-79.0-1.0"}}, {"uniqueid": "MTK0759:3XIQGXAUMDFQV5R7X99KKOH3K937X8", "current_trial": 108, "dateTime": 1512702628456, "trialdata": {"rt": -1, "stimulus": "<p id=\"stim\">8</p>", "key_press": -1, "trial_type": "single-stim", "trial_index": 108, "time_elapsed": 743225, "internal_node_id": "0.0-79.0-2.0"}}, {"uniqueid": "MTK0759:3XIQGXAUMDFQV5R7X99KKOH3K937X8", "current_trial": 109, "dateTime": 1512702629467, "trialdata": {"rt": -1, "stimulus": "<p id=\"stim\">7</p>", "key_press": -1, "trial_type": "single-stim", "trial_index": 109, "time_elapsed": 744232, "internal_node_id": "0.0-79.0-3.0"}}, {"uniqueid": "MTK0759:3XIQGXAUMDFQV5R7X99KKOH3K937X8", "current_trial": 110, "dateTime": 1512702630469, "trialdata": {"rt": -1, "stimulus": "<p id=\"stim\">6</p>", "key_press": -1, "trial_type": "single-stim", "trial_index": 110, "time_elapsed": 745238, "internal_node_id": "0.0-79.0-4.0"}}, {"uniqueid": "MTK0759:3XIQGXAUMDFQV5R7X99KKOH3K937X8", "current_trial": 111, "dateTime": 1512702631476, "trialdata": {"rt": -1, "stimulus": "<p id=\"stim\">5</p>", "key_press": -1, "trial_type": "single-stim", "trial_index": 111, "time_elapsed": 746245, "internal_node_id": "0.0-79.0-5.0"}}, {"uniqueid": "MTK0759:3XIQGXAUMDFQV5R7X99KKOH3K937X8", "current_trial": 112, "dateTime": 1512702632482, "trialdata": {"rt": -1, "stimulus": "<p id=\"stim\">4</p>", "key_press": -1, "trial_type": "single-stim", "trial_index": 112, "time_elapsed": 747251, "internal_node_id": "0.0-79.0-6.0"}}, {"uniqueid": "MTK0759:3XIQGXAUMDFQV5R7X99KKOH3K937X8", "current_trial": 113, "dateTime": 1512702633489, "trialdata": {"rt": -1, "stimulus": "<p id=\"stim\">3</p>", "key_press": -1, "trial_type": "single-stim", "trial_index": 113, "time_elapsed": 748258, "internal_node_id": "0.0-79.0-7.0"}}, {"uniqueid": "MTK0759:3XIQGXAUMDFQV5R7X99KKOH3K937X8", "current_trial": 114, "dateTime": 1512702634493, "trialdata": {"rt": -1, "stimulus": "<p id=\"stim\">2</p>", "key_press": -1, "trial_type": "single-stim", "trial_index": 114, "time_elapsed": 749262, "internal_node_id": "0.0-79.0-8.0"}}, {"uniqueid": "MTK0759:3XIQGXAUMDFQV5R7X99KKOH3K937X8", "current_trial": 115, "dateTime": 1512702635501, "trialdata": {"rt": -1, "stimulus": "<p id=\"stim\">1</p>", "key_press": -1, "trial_type": "single-stim", "trial_index": 115, "time_elapsed": 750270, "internal_node_id": "0.0-79.0-9.0"}}, {"uniqueid": "MTK0759:3XIQGXAUMDFQV5R7X99KKOH3K937X8", "current_trial": 116, "dateTime": 1512702637008, "trialdata": {"rt": -1, "stimulus": "<p id=\"stim\">+</p>", "key_press": -1, "type": "FIXATION", "trial_type": "single-stim", "trial_index": 116, "time_elapsed": 751777, "internal_node_id": "0.0-80.0-0.0"}}, {"uniqueid": "MTK0759:3XIQGXAUMDFQV5R7X99KKOH3K937X8", "current_trial": 117, "dateTime": 1512702638612, "trialdata": {"rt": -1, "stimulus": "<p id=\"stim\">PANTHER</p>", "key_press": -1, "type": "PRES_VIS", "word": "panther", "wordID": 1008, "conditions": [24, 1600, "v", 24000], "trial": 3, "serialpos": 0, "trial_type": "single-stim", "trial_index": 117, "time_elapsed": 753381, "internal_node_id": "0.0-81.0"}}, {"uniqueid": "MTK0759:3XIQGXAUMDFQV5R7X99KKOH3K937X8", "current_trial": 118, "dateTime": 1512702641299, "trialdata": {"rt": -1, "stimulus": "<p id=\"stim\">GRAVEL</p>", "key_press": -1, "type": "PRES_VIS", "word": "gravel", "wordID": 658, "conditions": [24, 1600, "v", 24000], "trial": 3, "serialpos": 1, "trial_type": "single-stim", "trial_index": 118, "time_elapsed": 756068, "internal_node_id": "0.0-82.0"}}, {"uniqueid": "MTK0759:3XIQGXAUMDFQV5R7X99KKOH3K937X8", "current_trial": 119, "dateTime": 1512702644074, "trialdata": {"rt": -1, "stimulus": "<p id=\"stim\">POSTAGE</p>", "key_press": -1, "type": "PRES_VIS", "word": "postage", "wordID": 1112, "conditions": [24, 1600, "v", 24000], "trial": 3, "serialpos": 2, "trial_type": "single-stim", "trial_index": 119, "time_elapsed": 758843, "internal_node_id": "0.0-83.0"}}, {"uniqueid": "MTK0759:3XIQGXAUMDFQV5R7X99KKOH3K937X8", "current_trial": 120, "dateTime": 1512702646531, "trialdata": {"rt": -1, "stimulus": "<p id=\"stim\">CIGAR</p>", "key_press": -1, "type": "PRES_VIS", "word": "cigar", "wordID": 307, "conditions": [24, 1600, "v", 24000], "trial": 3, "serialpos": 3, "trial_type": "single-stim", "trial_index": 120, "time_elapsed": 761300, "internal_node_id": "0.0-84.0"}}, {"uniqueid": "MTK0759:3XIQGXAUMDFQV5R7X99KKOH3K937X8", "current_trial": 121, "dateTime": 1512702649311, "trialdata": {"rt": -1, "stimulus": "<p id=\"stim\">VALLEY</p>", "key_press": -1, "type": "PRES_VIS", "word": "valley", "wordID": 1544, "conditions": [24, 1600, "v", 24000], "trial": 3, "serialpos": 4, "trial_type": "single-stim", "trial_index": 121, "time_elapsed": 764080, "internal_node_id": "0.0-85.0"}}, {"uniqueid": "MTK0759:3XIQGXAUMDFQV5R7X99KKOH3K937X8", "current_trial": 122, "dateTime": 1512702652031, "trialdata": {"rt": -1, "stimulus": "<p id=\"stim\">CHAPEL</p>", "key_press": -1, "type": "PRES_VIS", "word": "chapel", "wordID": 279, "conditions": [24, 1600, "v", 24000], "trial": 3, "serialpos": 5, "trial_type": "single-stim", "trial_index": 122, "time_elapsed": 766800, "internal_node_id": "0.0-86.0"}}, {"uniqueid": "MTK0759:3XIQGXAUMDFQV5R7X99KKOH3K937X8", "current_trial": 123, "dateTime": 1512702654508, "trialdata": {"rt": -1, "stimulus": "<p id=\"stim\">VIKING</p>", "key_press": -1, "type": "PRES_VIS", "word": "viking", "wordID": 1564, "conditions": [24, 1600, "v", 24000], "trial": 3, "serialpos": 6, "trial_type": "single-stim", "trial_index": 123, "time_elapsed": 769277, "internal_node_id": "0.0-87.0"}}, {"uniqueid": "MTK0759:3XIQGXAUMDFQV5R7X99KKOH3K937X8", "current_trial": 124, "dateTime": 1512702657003, "trialdata": {"rt": -1, "stimulus": "<p id=\"stim\">MOTEL</p>", "key_press": -1, "type": "PRES_VIS", "word": "motel", "wordID": 918, "conditions": [24, 1600, "v", 24000], "trial": 3, "serialpos": 7, "trial_type": "single-stim", "trial_index": 124, "time_elapsed": 771772, "internal_node_id": "0.0-88.0"}}, {"uniqueid": "MTK0759:3XIQGXAUMDFQV5R7X99KKOH3K937X8", "current_trial": 125, "dateTime": 1512702659696, "trialdata": {"rt": -1, "stimulus": "<p id=\"stim\">LEOPARD</p>", "key_press": -1, "type": "PRES_VIS", "word": "leopard", "wordID": 811, "conditions": [24, 1600, "v", 24000], "trial": 3, "serialpos": 8, "trial_type": "single-stim", "trial_index": 125, "time_elapsed": 774465, "internal_node_id": "0.0-89.0"}}, {"uniqueid": "MTK0759:3XIQGXAUMDFQV5R7X99KKOH3K937X8", "current_trial": 126, "dateTime": 1512702662131, "trialdata": {"rt": -1, "stimulus": "<p id=\"stim\">MARINE</p>", "key_press": -1, "type": "PRES_VIS", "word": "marine", "wordID": 868, "conditions": [24, 1600, "v", 24000], "trial": 3, "serialpos": 9, "trial_type": "single-stim", "trial_index": 126, "time_elapsed": 776900, "internal_node_id": "0.0-90.0"}}, {"uniqueid": "MTK0759:3XIQGXAUMDFQV5R7X99KKOH3K937X8", "current_trial": 127, "dateTime": 1512702664836, "trialdata": {"rt": -1, "stimulus": "<p id=\"stim\">BANK</p>", "key_press": -1, "type": "PRES_VIS", "word": "bank", "wordID": 82, "conditions": [24, 1600, "v", 24000], "trial": 3, "serialpos": 10, "trial_type": "single-stim", "trial_index": 127, "time_elapsed": 779605, "internal_node_id": "0.0-91.0"}}, {"uniqueid": "MTK0759:3XIQGXAUMDFQV5R7X99KKOH3K937X8", "current_trial": 128, "dateTime": 1512702667337, "trialdata": {"rt": -1, "stimulus": "<p id=\"stim\">BRANCH</p>", "key_press": -1, "type": "PRES_VIS", "word": "branch", "wordID": 167, "conditions": [24, 1600, "v", 24000], "trial": 3, "serialpos": 11, "trial_type": "single-stim", "trial_index": 128, "time_elapsed": 782106, "internal_node_id": "0.0-92.0"}}, {"uniqueid": "MTK0759:3XIQGXAUMDFQV5R7X99KKOH3K937X8", "current_trial": 129, "dateTime": 1512702669819, "trialdata": {"rt": -1, "stimulus": "<p id=\"stim\">FLASHLIGHT</p>", "key_press": -1, "type": "PRES_VIS", "word": "flashlight", "wordID": 574, "conditions": [24, 1600, "v", 24000], "trial": 3, "serialpos": 12, "trial_type": "single-stim", "trial_index": 129, "time_elapsed": 784588, "internal_node_id": "0.0-93.0"}}, {"uniqueid": "MTK0759:3XIQGXAUMDFQV5R7X99KKOH3K937X8", "current_trial": 130, "dateTime": 1512702672260, "trialdata": {"rt": -1, "stimulus": "<p id=\"stim\">FLOWER</p>", "key_press": -1, "type": "PRES_VIS", "word": "flower", "wordID": 583, "conditions": [24, 1600, "v", 24000], "trial": 3, "serialpos": 13, "trial_type": "single-stim", "trial_index": 130, "time_elapsed": 787025, "internal_node_id": "0.0-94.0"}}, {"uniqueid": "MTK0759:3XIQGXAUMDFQV5R7X99KKOH3K937X8", "current_trial": 131, "dateTime": 1512702674938, "trialdata": {"rt": -1, "stimulus": "<p id=\"stim\">BANKER</p>", "key_press": -1, "type": "PRES_VIS", "word": "banker", "wordID": 83, "conditions": [24, 1600, "v", 24000], "trial": 3, "serialpos": 14, "trial_type": "single-stim", "trial_index": 131, "time_elapsed": 789707, "internal_node_id": "0.0-95.0"}}, {"uniqueid": "MTK0759:3XIQGXAUMDFQV5R7X99KKOH3K937X8", "current_trial": 132, "dateTime": 1512702677509, "trialdata": {"rt": -1, "stimulus": "<p id=\"stim\">SPONGE</p>", "key_press": -1, "type": "PRES_VIS", "word": "sponge", "wordID": 1354, "conditions": [24, 1600, "v", 24000], "trial": 3, "serialpos": 15, "trial_type": "single-stim", "trial_index": 132, "time_elapsed": 792278, "internal_node_id": "0.0-96.0"}}, {"uniqueid": "MTK0759:3XIQGXAUMDFQV5R7X99KKOH3K937X8", "current_trial": 133, "dateTime": 1512702680120, "trialdata": {"rt": -1, "stimulus": "<p id=\"stim\">PADDING</p>", "key_press": -1, "type": "PRES_VIS", "word": "padding", "wordID": 998, "conditions": [24, 1600, "v", 24000], "trial": 3, "serialpos": 16, "trial_type": "single-stim", "trial_index": 133, "time_elapsed": 794889, "internal_node_id": "0.0-97.0"}}, {"uniqueid": "MTK0759:3XIQGXAUMDFQV5R7X99KKOH3K937X8", "current_trial": 134, "dateTime": 1512702682734, "trialdata": {"rt": -1, "stimulus": "<p id=\"stim\">CATCHER</p>", "key_press": -1, "type": "PRES_VIS", "word": "catcher", "wordID": 257, "conditions": [24, 1600, "v", 24000], "trial": 3, "serialpos": 17, "trial_type": "single-stim", "trial_index": 134, "time_elapsed": 797503, "internal_node_id": "0.0-98.0"}}, {"uniqueid": "MTK0759:3XIQGXAUMDFQV5R7X99KKOH3K937X8", "current_trial": 135, "dateTime": 1512702685211, "trialdata": {"rt": -1, "stimulus": "<p id=\"stim\">TRANSPLANT</p>", "key_press": -1, "type": "PRES_VIS", "word": "transplant", "wordID": 1495, "conditions": [24, 1600, "v", 24000], "trial": 3, "serialpos": 18, "trial_type": "single-stim", "trial_index": 135, "time_elapsed": 799980, "internal_node_id": "0.0-99.0"}}, {"uniqueid": "MTK0759:3XIQGXAUMDFQV5R7X99KKOH3K937X8", "current_trial": 136, "dateTime": 1512702688019, "trialdata": {"rt": -1, "stimulus": "<p id=\"stim\">KIDNEY</p>", "key_press": -1, "type": "PRES_VIS", "word": "kidney", "wordID": 775, "conditions": [24, 1600, "v", 24000], "trial": 3, "serialpos": 19, "trial_type": "single-stim", "trial_index": 136, "time_elapsed": 802788, "internal_node_id": "0.0-100.0"}}, {"uniqueid": "MTK0759:3XIQGXAUMDFQV5R7X99KKOH3K937X8", "current_trial": 137, "dateTime": 1512702690434, "trialdata": {"rt": -1, "stimulus": "<p id=\"stim\">TOASTER</p>", "key_press": -1, "type": "PRES_VIS", "word": "toaster", "wordID": 1471, "conditions": [24, 1600, "v", 24000], "trial": 3, "serialpos": 20, "trial_type": "single-stim", "trial_index": 137, "time_elapsed": 805199, "internal_node_id": "0.0-101.0"}}, {"uniqueid": "MTK0759:3XIQGXAUMDFQV5R7X99KKOH3K937X8", "current_trial": 138, "dateTime": 1512702693518, "trialdata": {"rt": -1, "stimulus": "<p id=\"stim\">FOOTBALL</p>", "key_press": -1, "type": "PRES_VIS", "word": "football", "wordID": 590, "conditions": [24, 1600, "v", 24000], "trial": 3, "serialpos": 21, "trial_type": "single-stim", "trial_index": 138, "time_elapsed": 808287, "internal_node_id": "0.0-102.0"}}, {"uniqueid": "MTK0759:3XIQGXAUMDFQV5R7X99KKOH3K937X8", "current_trial": 139, "dateTime": 1512702697527, "trialdata": {"rt": -1, "stimulus": "<p id=\"stim\">TWISTER</p>", "key_press": -1, "type": "PRES_VIS", "word": "twister", "wordID": 1529, "conditions": [24, 1600, "v", 24000], "trial": 3, "serialpos": 22, "trial_type": "single-stim", "trial_index": 139, "time_elapsed": 812292, "internal_node_id": "0.0-103.0"}}, {"uniqueid": "MTK0759:3XIQGXAUMDFQV5R7X99KKOH3K937X8", "current_trial": 140, "dateTime": 1512702700144, "trialdata": {"rt": -1, "stimulus": "<p id=\"stim\">STOVE</p>", "key_press": -1, "type": "PRES_VIS", "word": "stove", "wordID": 1387, "conditions": [24, 1600, "v", 24000], "trial": 3, "serialpos": 23, "trial_type": "single-stim", "trial_index": 140, "time_elapsed": 814909, "internal_node_id": "0.0-104.0"}}, {"uniqueid": "MTK0759:3XIQGXAUMDFQV5R7X99KKOH3K937X8", "current_trial": 141, "dateTime": 1512702702547, "trialdata": {"rt": -1, "stimulus": "", "key_press": -1, "type": "PRE_RECALL_DELAY", "trial_type": "single-stim", "trial_index": 141, "time_elapsed": 817316, "internal_node_id": "0.0-105.0-0.0"}}, {"uniqueid": "MTK0759:3XIQGXAUMDFQV5R7X99KKOH3K937X8", "current_trial": 142, "dateTime": 1512702703057, "trialdata": {"rt": -1000, "stimulus": "/static/audio/400Hz.wav", "key_press": -1, "type": "PRE_RECALL_ALERT", "trial_type": "single-audio", "trial_index": 142, "time_elapsed": 817826, "internal_node_id": "0.0-106.0"}}, {"uniqueid": "MTK0759:3XIQGXAUMDFQV5R7X99KKOH3K937X8", "current_trial": 143, "dateTime": 1512702763088, "trialdata": {"rt": [2539, 4299, 5474, 7278, 10685, 15631], "recwords": ["football", "branch", "bank", "banker", "motel", "leopard"], "type": "FREE_RECALL", "conditions": [24, 1600, "v", 24000], "trial": 3, "trial_type": "free-recall", "trial_index": 143, "time_elapsed": 877841, "internal_node_id": "0.0-107.0-0.0"}}, {"uniqueid": "MTK0759:3XIQGXAUMDFQV5R7X99KKOH3K937X8", "current_trial": 144, "dateTime": 1512702861860, "trialdata": {"rt": 96763, "key_press": 32, "type": "INSTRUCTIONS", "trial_type": "text", "trial_index": 144, "time_elapsed": 976629, "internal_node_id": "0.0-108.0"}}, {"uniqueid": "MTK0759:3XIQGXAUMDFQV5R7X99KKOH3K937X8", "current_trial": 145, "dateTime": 1512702875876, "trialdata": {"rt": [2326, 4134, 6772, 11922], "responses": ["12", "12", "15", "12"], "num1": [3, 3, 4, 3, 7], "num2": [5, 3, 2, 2, 9], "num3": [4, 6, 9, 7, 8], "type": "DISTRACTOR", "conditions": [12, 1600, "a", 12000], "trial": 4, "trial_type": "math-distractor", "trial_index": 145, "time_elapsed": 990641, "internal_node_id": "0.0-109.0"}}, {"uniqueid": "MTK0759:3XIQGXAUMDFQV5R7X99KKOH3K937X8", "current_trial": 146, "dateTime": 1512702878883, "trialdata": {"rt": -1, "stimulus": "<p id=\"stim\">10</p>", "key_press": -1, "trial_type": "single-stim", "trial_index": 146, "time_elapsed": 993652, "internal_node_id": "0.0-110.0-0.0"}}, {"uniqueid": "MTK0759:3XIQGXAUMDFQV5R7X99KKOH3K937X8", "current_trial": 147, "dateTime": 1512702879890, "trialdata": {"rt": -1, "stimulus": "<p id=\"stim\">9</p>", "key_press": -1, "trial_type": "single-stim", "trial_index": 147, "time_elapsed": 994659, "internal_node_id": "0.0-110.0-1.0"}}, {"uniqueid": "MTK0759:3XIQGXAUMDFQV5R7X99KKOH3K937X8", "current_trial": 148, "dateTime": 1512702880894, "trialdata": {"rt": -1, "stimulus": "<p id=\"stim\">8</p>", "key_press": -1, "trial_type": "single-stim", "trial_index": 148, "time_elapsed": 995663, "internal_node_id": "0.0-110.0-2.0"}}, {"uniqueid": "MTK0759:3XIQGXAUMDFQV5R7X99KKOH3K937X8", "current_trial": 149, "dateTime": 1512702881898, "trialdata": {"rt": -1, "stimulus": "<p id=\"stim\">7</p>", "key_press": -1, "trial_type": "single-stim", "trial_index": 149, "time_elapsed": 996667, "internal_node_id": "0.0-110.0-3.0"}}, {"uniqueid": "MTK0759:3XIQGXAUMDFQV5R7X99KKOH3K937X8", "current_trial": 150, "dateTime": 1512702882903, "trialdata": {"rt": -1, "stimulus": "<p id=\"stim\">6</p>", "key_press": -1, "trial_type": "single-stim", "trial_index": 150, "time_elapsed": 997668, "internal_node_id": "0.0-110.0-4.0"}}, {"uniqueid": "MTK0759:3XIQGXAUMDFQV5R7X99KKOH3K937X8", "current_trial": 151, "dateTime": 1512702883904, "trialdata": {"rt": -1, "stimulus": "<p id=\"stim\">5</p>", "key_press": -1, "trial_type": "single-stim", "trial_index": 151, "time_elapsed": 998673, "internal_node_id": "0.0-110.0-5.0"}}, {"uniqueid": "MTK0759:3XIQGXAUMDFQV5R7X99KKOH3K937X8", "current_trial": 152, "dateTime": 1512702884911, "trialdata": {"rt": -1, "stimulus": "<p id=\"stim\">4</p>", "key_press": -1, "trial_type": "single-stim", "trial_index": 152, "time_elapsed": 999680, "internal_node_id": "0.0-110.0-6.0"}}, {"uniqueid": "MTK0759:3XIQGXAUMDFQV5R7X99KKOH3K937X8", "current_trial": 153, "dateTime": 1512702885926, "trialdata": {"rt": -1, "stimulus": "<p id=\"stim\">3</p>", "key_press": -1, "trial_type": "single-stim", "trial_index": 153, "time_elapsed": 1000695, "internal_node_id": "0.0-110.0-7.0"}}, {"uniqueid": "MTK0759:3XIQGXAUMDFQV5R7X99KKOH3K937X8", "current_trial": 154, "dateTime": 1512702886934, "trialdata": {"rt": -1, "stimulus": "<p id=\"stim\">2</p>", "key_press": -1, "trial_type": "single-stim", "trial_index": 154, "time_elapsed": 1001699, "internal_node_id": "0.0-110.0-8.0"}}, {"uniqueid": "MTK0759:3XIQGXAUMDFQV5R7X99KKOH3K937X8", "current_trial": 155, "dateTime": 1512702887935, "trialdata": {"rt": -1, "stimulus": "<p id=\"stim\">1</p>", "key_press": -1, "trial_type": "single-stim", "trial_index": 155, "time_elapsed": 1002704, "internal_node_id": "0.0-110.0-9.0"}}, {"uniqueid": "MTK0759:3XIQGXAUMDFQV5R7X99KKOH3K937X8", "current_trial": 156, "dateTime": 1512702889440, "trialdata": {"rt": -1, "stimulus": "<p id=\"stim\">+</p>", "key_press": -1, "type": "FIXATION", "trial_type": "single-stim", "trial_index": 156, "time_elapsed": 1004209, "internal_node_id": "0.0-111.0-0.0"}}, {"uniqueid": "MTK0759:3XIQGXAUMDFQV5R7X99KKOH3K937X8", "current_trial": 157, "dateTime": 1512702892002, "trialdata": {"rt": -1000, "stimulus": "/static/audio/wordpool/RIVER.wav", "key_press": -1, "type": "PRES_AUD", "word": "river", "wordID": 1193, "conditions": [12, 1600, "a", 12000], "trial": 4, "serialpos": 0, "trial_type": "single-audio", "trial_index": 157, "time_elapsed": 1006770, "internal_node_id": "0.0-112.0"}}, {"uniqueid": "MTK0759:3XIQGXAUMDFQV5R7X99KKOH3K937X8", "current_trial": 158, "dateTime": 1512702894805, "trialdata": {"rt": -1000, "stimulus": "/static/audio/wordpool/BANQUET.wav", "key_press": -1, "type": "PRES_AUD", "word": "banquet", "wordID": 85, "conditions": [12, 1600, "a", 12000], "trial": 4, "serialpos": 1, "trial_type": "single-audio", "trial_index": 158, "time_elapsed": 1009573, "internal_node_id": "0.0-113.0"}}, {"uniqueid": "MTK0759:3XIQGXAUMDFQV5R7X99KKOH3K937X8", "current_trial": 159, "dateTime": 1512702897566, "trialdata": {"rt": -1000, "stimulus": "/static/audio/wordpool/MUMMY.wav", "key_press": -1, "type": "PRES_AUD", "word": "mummy", "wordID": 931, "conditions": [12, 1600, "a", 12000], "trial": 4, "serialpos": 2, "trial_type": "single-audio", "trial_index": 159, "time_elapsed": 1012334, "internal_node_id": "0.0-114.0"}}, {"uniqueid": "MTK0759:3XIQGXAUMDFQV5R7X99KKOH3K937X8", "current_trial": 160, "dateTime": 1512702900182, "trialdata": {"rt": -1000, "stimulus": "/static/audio/wordpool/VENUS.wav", "key_press": -1, "type": "PRES_AUD", "word": "venus", "wordID": 1556, "conditions": [12, 1600, "a", 12000], "trial": 4, "serialpos": 3, "trial_type": "single-audio", "trial_index": 160, "time_elapsed": 1014951, "internal_node_id": "0.0-115.0"}}, {"uniqueid": "MTK0759:3XIQGXAUMDFQV5R7X99KKOH3K937X8", "current_trial": 161, "dateTime": 1512702902785, "trialdata": {"rt": -1000, "stimulus": "/static/audio/wordpool/SCOTCH.wav", "key_press": -1, "type": "PRES_AUD", "word": "scotch", "wordID": 1250, "conditions": [12, 1600, "a", 12000], "trial": 4, "serialpos": 4, "trial_type": "single-audio", "trial_index": 161, "time_elapsed": 1017553, "internal_node_id": "0.0-116.0"}}, {"uniqueid": "MTK0759:3XIQGXAUMDFQV5R7X99KKOH3K937X8", "current_trial": 162, "dateTime": 1512702905343, "trialdata": {"rt": -1000, "stimulus": "/static/audio/wordpool/BEAKER.wav", "key_press": -1, "type": "PRES_AUD", "word": "beaker", "wordID": 103, "conditions": [12, 1600, "a", 12000], "trial": 4, "serialpos": 5, "trial_type": "single-audio", "trial_index": 162, "time_elapsed": 1020112, "internal_node_id": "0.0-117.0"}}, {"uniqueid": "MTK0759:3XIQGXAUMDFQV5R7X99KKOH3K937X8", "current_trial": 163, "dateTime": 1512702907867, "trialdata": {"rt": -1000, "stimulus": "/static/audio/wordpool/LEADER.wav", "key_press": -1, "type": "PRES_AUD", "word": "leader", "wordID": 806, "conditions": [12, 1600, "a", 12000], "trial": 4, "serialpos": 6, "trial_type": "single-audio", "trial_index": 163, "time_elapsed": 1022635, "internal_node_id": "0.0-118.0"}}, {"uniqueid": "MTK0759:3XIQGXAUMDFQV5R7X99KKOH3K937X8", "current_trial": 164, "dateTime": 1512702910667, "trialdata": {"rt": -1000, "stimulus": "/static/audio/wordpool/BATHTUB.wav", "key_press": -1, "type": "PRES_AUD", "word": "bathtub", "wordID": 99, "conditions": [12, 1600, "a", 12000], "trial": 4, "serialpos": 7, "trial_type": "single-audio", "trial_index": 164, "time_elapsed": 1025436, "internal_node_id": "0.0-119.0"}}, {"uniqueid": "MTK0759:3XIQGXAUMDFQV5R7X99KKOH3K937X8", "current_trial": 165, "dateTime": 1512702913256, "trialdata": {"rt": -1000, "stimulus": "/static/audio/wordpool/CANAL.wav", "key_press": -1, "type": "PRES_AUD", "word": "canal", "wordID": 225, "conditions": [12, 1600, "a", 12000], "trial": 4, "serialpos": 8, "trial_type": "single-audio", "trial_index": 165, "time_elapsed": 1028025, "internal_node_id": "0.0-120.0"}}, {"uniqueid": "MTK0759:3XIQGXAUMDFQV5R7X99KKOH3K937X8", "current_trial": 166, "dateTime": 1512702916001, "trialdata": {"rt": -1000, "stimulus": "/static/audio/wordpool/OMELET.wav", "key_press": -1, "type": "PRES_AUD", "word": "omelet", "wordID": 975, "conditions": [12, 1600, "a", 12000], "trial": 4, "serialpos": 9, "trial_type": "single-audio", "trial_index": 166, "time_elapsed": 1030769, "internal_node_id": "0.0-121.0"}}, {"uniqueid": "MTK0759:3XIQGXAUMDFQV5R7X99KKOH3K937X8", "current_trial": 167, "dateTime": 1512702918652, "trialdata": {"rt": -1000, "stimulus": "/static/audio/wordpool/SHORTCAKE.wav", "key_press": -1, "type": "PRES_AUD", "word": "shortcake", "wordID": 1291, "conditions": [12, 1600, "a", 12000], "trial": 4, "serialpos": 10, "trial_type": "single-audio", "trial_index": 167, "time_elapsed": 1033420, "internal_node_id": "0.0-122.0"}}, {"uniqueid": "MTK0759:3XIQGXAUMDFQV5R7X99KKOH3K937X8", "current_trial": 168, "dateTime": 1512702921311, "trialdata": {"rt": -1000, "stimulus": "/static/audio/wordpool/PIMPLE.wav", "key_press": -1, "type": "PRES_AUD", "word": "pimple", "wordID": 1070, "conditions": [12, 1600, "a", 12000], "trial": 4, "serialpos": 11, "trial_type": "single-audio", "trial_index": 168, "time_elapsed": 1036079, "internal_node_id": "0.0-123.0"}}, {"uniqueid": "MTK0759:3XIQGXAUMDFQV5R7X99KKOH3K937X8", "current_trial": 169, "dateTime": 1512702922709, "trialdata": {"rt": -1, "stimulus": "", "key_press": -1, "type": "PRE_RECALL_DELAY", "trial_type": "single-stim", "trial_index": 169, "time_elapsed": 1037477, "internal_node_id": "0.0-124.0-0.0"}}, {"uniqueid": "MTK0759:3XIQGXAUMDFQV5R7X99KKOH3K937X8", "current_trial": 170, "dateTime": 1512702923225, "trialdata": {"rt": -1000, "stimulus": "/static/audio/400Hz.wav", "key_press": -1, "type": "PRE_RECALL_ALERT", "trial_type": "single-audio", "trial_index": 170, "time_elapsed": 1037994, "internal_node_id": "0.0-125.0"}}, {"uniqueid": "MTK0759:3XIQGXAUMDFQV5R7X99KKOH3K937X8", "current_trial": 171, "dateTime": 1512702983259, "trialdata": {"rt": [2322, 4867, 9959, 11721, 20835], "recwords": ["river", "shortcake", "omlet", "canal", "beaker"], "type": "FREE_RECALL", "conditions": [12, 1600, "a", 12000], "trial": 4, "trial_type": "free-recall", "trial_index": 171, "time_elapsed": 1098008, "internal_node_id": "0.0-126.0-0.0"}}, {"uniqueid": "MTK0759:3XIQGXAUMDFQV5R7X99KKOH3K937X8", "current_trial": 172, "dateTime": 1512702988050, "trialdata": {"rt": 2766, "key_press": 32, "type": "INSTRUCTIONS", "trial_type": "text", "trial_index": 172, "time_elapsed": 1102819, "internal_node_id": "0.0-127.0"}}, {"uniqueid": "MTK0759:3XIQGXAUMDFQV5R7X99KKOH3K937X8", "current_trial": 173, "dateTime": 1512703002068, "trialdata": {"rt": [5298, 8584, 10940], "responses": ["20", "13", "13"], "num1": [7, 3, 2, 1], "num2": [4, 6, 3, 4], "num3": [9, 4, 8, 2], "type": "DISTRACTOR", "conditions": [24, 800, "v", 12000], "trial": 5, "trial_type": "math-distractor", "trial_index": 173, "time_elapsed": 1116837, "internal_node_id": "0.0-128.0"}}, {"uniqueid": "MTK0759:3XIQGXAUMDFQV5R7X99KKOH3K937X8", "current_trial": 174, "dateTime": 1512703005074, "trialdata": {"rt": -1, "stimulus": "<p id=\"stim\">10</p>", "key_press": -1, "trial_type": "single-stim", "trial_index": 174, "time_elapsed": 1119843, "internal_node_id": "0.0-129.0-0.0"}}, {"uniqueid": "MTK0759:3XIQGXAUMDFQV5R7X99KKOH3K937X8", "current_trial": 175, "dateTime": 1512703006086, "trialdata": {"rt": -1, "stimulus": "<p id=\"stim\">9</p>", "key_press": -1, "trial_type": "single-stim", "trial_index": 175, "time_elapsed": 1120851, "internal_node_id": "0.0-129.0-1.0"}}, {"uniqueid": "MTK0759:3XIQGXAUMDFQV5R7X99KKOH3K937X8", "current_trial": 176, "dateTime": 1512703007090, "trialdata": {"rt": -1, "stimulus": "<p id=\"stim\">8</p>", "key_press": -1, "trial_type": "single-stim", "trial_index": 176, "time_elapsed": 1121859, "internal_node_id": "0.0-129.0-2.0"}}, {"uniqueid": "MTK0759:3XIQGXAUMDFQV5R7X99KKOH3K937X8", "current_trial": 177, "dateTime": 1512703008096, "trialdata": {"rt": -1, "stimulus": "<p id=\"stim\">7</p>", "key_press": -1, "trial_type": "single-stim", "trial_index": 177, "time_elapsed": 1122865, "internal_node_id": "0.0-129.0-3.0"}}, {"uniqueid": "MTK0759:3XIQGXAUMDFQV5R7X99KKOH3K937X8", "current_trial": 178, "dateTime": 1512703009103, "trialdata": {"rt": -1, "stimulus": "<p id=\"stim\">6</p>", "key_press": -1, "trial_type": "single-stim", "trial_index": 178, "time_elapsed": 1123872, "internal_node_id": "0.0-129.0-4.0"}}, {"uniqueid": "MTK0759:3XIQGXAUMDFQV5R7X99KKOH3K937X8", "current_trial": 179, "dateTime": 1512703010113, "trialdata": {"rt": -1, "stimulus": "<p id=\"stim\">5</p>", "key_press": -1, "trial_type": "single-stim", "trial_index": 179, "time_elapsed": 1124878, "internal_node_id": "0.0-129.0-5.0"}}, {"uniqueid": "MTK0759:3XIQGXAUMDFQV5R7X99KKOH3K937X8", "current_trial": 180, "dateTime": 1512703011121, "trialdata": {"rt": -1, "stimulus": "<p id=\"stim\">4</p>", "key_press": -1, "trial_type": "single-stim", "trial_index": 180, "time_elapsed": 1125890, "internal_node_id": "0.0-129.0-6.0"}}, {"uniqueid": "MTK0759:3XIQGXAUMDFQV5R7X99KKOH3K937X8", "current_trial": 181, "dateTime": 1512703012129, "trialdata": {"rt": -1, "stimulus": "<p id=\"stim\">3</p>", "key_press": -1, "trial_type": "single-stim", "trial_index": 181, "time_elapsed": 1126898, "internal_node_id": "0.0-129.0-7.0"}}, {"uniqueid": "MTK0759:3XIQGXAUMDFQV5R7X99KKOH3K937X8", "current_trial": 182, "dateTime": 1512703013141, "trialdata": {"rt": -1, "stimulus": "<p id=\"stim\">2</p>", "key_press": -1, "trial_type": "single-stim", "trial_index": 182, "time_elapsed": 1127906, "internal_node_id": "0.0-129.0-8.0"}}, {"uniqueid": "MTK0759:3XIQGXAUMDFQV5R7X99KKOH3K937X8", "current_trial": 183, "dateTime": 1512703014147, "trialdata": {"rt": -1, "stimulus": "<p id=\"stim\">1</p>", "key_press": -1, "trial_type": "single-stim", "trial_index": 183, "time_elapsed": 1128916, "internal_node_id": "0.0-129.0-9.0"}}, {"uniqueid": "MTK0759:3XIQGXAUMDFQV5R7X99KKOH3K937X8", "current_trial": 184, "dateTime": 1512703015655, "trialdata": {"rt": -1, "stimulus": "<p id=\"stim\">+</p>", "key_press": -1, "type": "FIXATION", "trial_type": "single-stim", "trial_index": 184, "time_elapsed": 1130424, "internal_node_id": "0.0-130.0-0.0"}}, {"uniqueid": "MTK0759:3XIQGXAUMDFQV5R7X99KKOH3K937X8", "current_trial": 185, "dateTime": 1512703016463, "trialdata": {"rt": -1, "stimulus": "<p id=\"stim\">VELVET</p>", "key_press": -1, "type": "PRES_VIS", "word": "velvet", "wordID": 1554, "conditions": [24, 800, "v", 12000], "trial": 5, "serialpos": 0, "trial_type": "single-stim", "trial_index": 185, "time_elapsed": 1131232, "internal_node_id": "0.0-131.0"}}, {"uniqueid": "MTK0759:3XIQGXAUMDFQV5R7X99KKOH3K937X8", "current_trial": 186, "dateTime": 1512703018449, "trialdata": {"rt": -1, "stimulus": "<p id=\"stim\">MASK</p>", "key_press": -1, "type": "PRES_VIS", "word": "mask", "wordID": 875, "conditions": [24, 800, "v", 12000], "trial": 5, "serialpos": 1, "trial_type": "single-stim", "trial_index": 186, "time_elapsed": 1133218, "internal_node_id": "0.0-132.0"}}, {"uniqueid": "MTK0759:3XIQGXAUMDFQV5R7X99KKOH3K937X8", "current_trial": 187, "dateTime": 1512703020197, "trialdata": {"rt": -1, "stimulus": "<p id=\"stim\">HARP</p>", "key_press": -1, "type": "PRES_VIS", "word": "harp", "wordID": 688, "conditions": [24, 800, "v", 12000], "trial": 5, "serialpos": 2, "trial_type": "single-stim", "trial_index": 187, "time_elapsed": 1134966, "internal_node_id": "0.0-133.0"}}, {"uniqueid": "MTK0759:3XIQGXAUMDFQV5R7X99KKOH3K937X8", "current_trial": 188, "dateTime": 1512703022035, "trialdata": {"rt": -1, "stimulus": "<p id=\"stim\">KITCHEN</p>", "key_press": -1, "type": "PRES_VIS", "word": "kitchen", "wordID": 777, "conditions": [24, 800, "v", 12000], "trial": 5, "serialpos": 3, "trial_type": "single-stim", "trial_index": 188, "time_elapsed": 1136796, "internal_node_id": "0.0-134.0"}}, {"uniqueid": "MTK0759:3XIQGXAUMDFQV5R7X99KKOH3K937X8", "current_trial": 189, "dateTime": 1512703023789, "trialdata": {"rt": -1, "stimulus": "<p id=\"stim\">WARDROBE</p>", "key_press": -1, "type": "PRES_VIS", "word": "wardrobe", "wordID": 1586, "conditions": [24, 800, "v", 12000], "trial": 5, "serialpos": 4, "trial_type": "single-stim", "trial_index": 189, "time_elapsed": 1138558, "internal_node_id": "0.0-135.0"}}, {"uniqueid": "MTK0759:3XIQGXAUMDFQV5R7X99KKOH3K937X8", "current_trial": 190, "dateTime": 1512703025587, "trialdata": {"rt": -1, "stimulus": "<p id=\"stim\">DRESS</p>", "key_press": -1, "type": "PRES_VIS", "word": "dress", "wordID": 494, "conditions": [24, 800, "v", 12000], "trial": 5, "serialpos": 5, "trial_type": "single-stim", "trial_index": 190, "time_elapsed": 1140356, "internal_node_id": "0.0-136.0"}}, {"uniqueid": "MTK0759:3XIQGXAUMDFQV5R7X99KKOH3K937X8", "current_trial": 191, "dateTime": 1512703027456, "trialdata": {"rt": -1, "stimulus": "<p id=\"stim\">SPIDER</p>", "key_press": -1, "type": "PRES_VIS", "word": "spider", "wordID": 1350, "conditions": [24, 800, "v", 12000], "trial": 5, "serialpos": 6, "trial_type": "single-stim", "trial_index": 191, "time_elapsed": 1142221, "internal_node_id": "0.0-137.0"}}, {"uniqueid": "MTK0759:3XIQGXAUMDFQV5R7X99KKOH3K937X8", "current_trial": 192, "dateTime": 1512703029300, "trialdata": {"rt": -1, "stimulus": "<p id=\"stim\">FEMALE</p>", "key_press": -1, "type": "PRES_VIS", "word": "female", "wordID": 558, "conditions": [24, 800, "v", 12000], "trial": 5, "serialpos": 7, "trial_type": "single-stim", "trial_index": 192, "time_elapsed": 1144069, "internal_node_id": "0.0-138.0"}}, {"uniqueid": "MTK0759:3XIQGXAUMDFQV5R7X99KKOH3K937X8", "current_trial": 193, "dateTime": 1512703031151, "trialdata": {"rt": -1, "stimulus": "<p id=\"stim\">PRIMATE</p>", "key_press": -1, "type": "PRES_VIS", "word": "primate", "wordID": 1122, "conditions": [24, 800, "v", 12000], "trial": 5, "serialpos": 8, "trial_type": "single-stim", "trial_index": 193, "time_elapsed": 1145920, "internal_node_id": "0.0-139.0"}}, {"uniqueid": "MTK0759:3XIQGXAUMDFQV5R7X99KKOH3K937X8", "current_trial": 194, "dateTime": 1512703032948, "trialdata": {"rt": -1, "stimulus": "<p id=\"stim\">PORK</p>", "key_press": -1, "type": "PRES_VIS", "word": "pork", "wordID": 1107, "conditions": [24, 800, "v", 12000], "trial": 5, "serialpos": 9, "trial_type": "single-stim", "trial_index": 194, "time_elapsed": 1147717, "internal_node_id": "0.0-140.0"}}, {"uniqueid": "MTK0759:3XIQGXAUMDFQV5R7X99KKOH3K937X8", "current_trial": 195, "dateTime": 1512703034885, "trialdata": {"rt": -1, "stimulus": "<p id=\"stim\">SNAKE</p>", "key_press": -1, "type": "PRES_VIS", "word": "snake", "wordID": 1332, "conditions": [24, 800, "v", 12000], "trial": 5, "serialpos": 10, "trial_type": "single-stim", "trial_index": 195, "time_elapsed": 1149650, "internal_node_id": "0.0-141.0"}}, {"uniqueid": "MTK0759:3XIQGXAUMDFQV5R7X99KKOH3K937X8", "current_trial": 196, "dateTime": 1512703036773, "trialdata": {"rt": -1, "stimulus": "<p id=\"stim\">FIREPLACE</p>", "key_press": -1, "type": "PRES_VIS", "word": "fireplace", "wordID": 569, "conditions": [24, 800, "v", 12000], "trial": 5, "serialpos": 11, "trial_type": "single-stim", "trial_index": 196, "time_elapsed": 1151542, "internal_node_id": "0.0-142.0"}}, {"uniqueid": "MTK0759:3XIQGXAUMDFQV5R7X99KKOH3K937X8", "current_trial": 197, "dateTime": 1512703038560, "trialdata": {"rt": -1, "stimulus": "<p id=\"stim\">PARSLEY</p>", "key_press": -1, "type": "PRES_VIS", "word": "parsley", "wordID": 1015, "conditions": [24, 800, "v", 12000], "trial": 5, "serialpos": 12, "trial_type": "single-stim", "trial_index": 197, "time_elapsed": 1153329, "internal_node_id": "0.0-143.0"}}, {"uniqueid": "MTK0759:3XIQGXAUMDFQV5R7X99KKOH3K937X8", "current_trial": 198, "dateTime": 1512703040305, "trialdata": {"rt": -1, "stimulus": "<p id=\"stim\">KETCHUP</p>", "key_press": -1, "type": "PRES_VIS", "word": "ketchup", "wordID": 770, "conditions": [24, 800, "v", 12000], "trial": 5, "serialpos": 13, "trial_type": "single-stim", "trial_index": 198, "time_elapsed": 1155074, "internal_node_id": "0.0-144.0"}}, {"uniqueid": "MTK0759:3XIQGXAUMDFQV5R7X99KKOH3K937X8", "current_trial": 199, "dateTime": 1512703041954, "trialdata": {"rt": -1, "stimulus": "<p id=\"stim\">NOTEBOOK</p>", "key_press": -1, "type": "PRES_VIS", "word": "notebook", "wordID": 958, "conditions": [24, 800, "v", 12000], "trial": 5, "serialpos": 14, "trial_type": "single-stim", "trial_index": 199, "time_elapsed": 1156723, "internal_node_id": "0.0-145.0"}}, {"uniqueid": "MTK0759:3XIQGXAUMDFQV5R7X99KKOH3K937X8", "current_trial": 200, "dateTime": 1512703043796, "trialdata": {"rt": -1, "stimulus": "<p id=\"stim\">SERVER</p>", "key_press": -1, "type": "PRES_VIS", "word": "server", "wordID": 1271, "conditions": [24, 800, "v", 12000], "trial": 5, "serialpos": 15, "trial_type": "single-stim", "trial_index": 200, "time_elapsed": 1158565, "internal_node_id": "0.0-146.0"}}, {"uniqueid": "MTK0759:3XIQGXAUMDFQV5R7X99KKOH3K937X8", "current_trial": 201, "dateTime": 1512703045509, "trialdata": {"rt": -1, "stimulus": "<p id=\"stim\">SILK</p>", "key_press": -1, "type": "PRES_VIS", "word": "silk", "wordID": 1306, "conditions": [24, 800, "v", 12000], "trial": 5, "serialpos": 16, "trial_type": "single-stim", "trial_index": 201, "time_elapsed": 1160278, "internal_node_id": "0.0-147.0"}}, {"uniqueid": "MTK0759:3XIQGXAUMDFQV5R7X99KKOH3K937X8", "current_trial": 202, "dateTime": 1512703047387, "trialdata": {"rt": -1, "stimulus": "<p id=\"stim\">RABBIT</p>", "key_press": -1, "type": "PRES_VIS", "word": "rabbit", "wordID": 1151, "conditions": [24, 800, "v", 12000], "trial": 5, "serialpos": 17, "trial_type": "single-stim", "trial_index": 202, "time_elapsed": 1162156, "internal_node_id": "0.0-148.0"}}, {"uniqueid": "MTK0759:3XIQGXAUMDFQV5R7X99KKOH3K937X8", "current_trial": 203, "dateTime": 1512703049221, "trialdata": {"rt": -1, "stimulus": "<p id=\"stim\">SERVANT</p>", "key_press": -1, "type": "PRES_VIS", "word": "servant", "wordID": 1270, "conditions": [24, 800, "v", 12000], "trial": 5, "serialpos": 18, "trial_type": "single-stim", "trial_index": 203, "time_elapsed": 1163990, "internal_node_id": "0.0-149.0"}}, {"uniqueid": "MTK0759:3XIQGXAUMDFQV5R7X99KKOH3K937X8", "current_trial": 204, "dateTime": 1512703050863, "trialdata": {"rt": -1, "stimulus": "<p id=\"stim\">TEACHER</p>", "key_press": -1, "type": "PRES_VIS", "word": "teacher", "wordID": 1439, "conditions": [24, 800, "v", 12000], "trial": 5, "serialpos": 19, "trial_type": "single-stim", "trial_index": 204, "time_elapsed": 1165632, "internal_node_id": "0.0-150.0"}}, {"uniqueid": "MTK0759:3XIQGXAUMDFQV5R7X99KKOH3K937X8", "current_trial": 205, "dateTime": 1512703052603, "trialdata": {"rt": -1, "stimulus": "<p id=\"stim\">WHISKERS</p>", "key_press": -1, "type": "PRES_VIS", "word": "whiskers", "wordID": 1604, "conditions": [24, 800, "v", 12000], "trial": 5, "serialpos": 20, "trial_type": "single-stim", "trial_index": 205, "time_elapsed": 1167372, "internal_node_id": "0.0-151.0"}}, {"uniqueid": "MTK0759:3XIQGXAUMDFQV5R7X99KKOH3K937X8", "current_trial": 206, "dateTime": 1512703054281, "trialdata": {"rt": -1, "stimulus": "<p id=\"stim\">FOX</p>", "key_press": -1, "type": "PRES_VIS", "word": "fox", "wordID": 597, "conditions": [24, 800, "v", 12000], "trial": 5, "serialpos": 21, "trial_type": "single-stim", "trial_index": 206, "time_elapsed": 1169050, "internal_node_id": "0.0-152.0"}}, {"uniqueid": "MTK0759:3XIQGXAUMDFQV5R7X99KKOH3K937X8", "current_trial": 207, "dateTime": 1512703056241, "trialdata": {"rt": -1, "stimulus": "<p id=\"stim\">ROBIN</p>", "key_press": -1, "type": "PRES_VIS", "word": "robin", "wordID": 1198, "conditions": [24, 800, "v", 12000], "trial": 5, "serialpos": 22, "trial_type": "single-stim", "trial_index": 207, "time_elapsed": 1171010, "internal_node_id": "0.0-153.0"}}, {"uniqueid": "MTK0759:3XIQGXAUMDFQV5R7X99KKOH3K937X8", "current_trial": 208, "dateTime": 1512703058039, "trialdata": {"rt": -1, "stimulus": "<p id=\"stim\">STUDENT</p>", "key_press": -1, "type": "PRES_VIS", "word": "student", "wordID": 1394, "conditions": [24, 800, "v", 12000], "trial": 5, "serialpos": 23, "trial_type": "single-stim", "trial_index": 208, "time_elapsed": 1172808, "internal_node_id": "0.0-154.0"}}, {"uniqueid": "MTK0759:3XIQGXAUMDFQV5R7X99KKOH3K937X8", "current_trial": 209, "dateTime": 1512703060142, "trialdata": {"rt": -1, "stimulus": "", "key_press": -1, "type": "PRE_RECALL_DELAY", "trial_type": "single-stim", "trial_index": 209, "time_elapsed": 1174911, "internal_node_id": "0.0-155.0-0.0"}}, {"uniqueid": "MTK0759:3XIQGXAUMDFQV5R7X99KKOH3K937X8", "current_trial": 210, "dateTime": 1512703060649, "trialdata": {"rt": -1000, "stimulus": "/static/audio/400Hz.wav", "key_press": -1, "type": "PRE_RECALL_ALERT", "trial_type": "single-audio", "trial_index": 210, "time_elapsed": 1175418, "internal_node_id": "0.0-156.0"}}, {"uniqueid": "MTK0759:3XIQGXAUMDFQV5R7X99KKOH3K937X8", "current_trial": 211, "dateTime": 1512703120695, "trialdata": {"rt": [2061, 4262, 8812, 12970, 18235], "recwords": ["female", "robin", "kitchen", "fireplace", "woman"], "type": "FREE_RECALL", "conditions": [24, 800, "v", 12000], "trial": 5, "trial_type": "free-recall", "trial_index": 211, "time_elapsed": 1235436, "internal_node_id": "0.0-157.0-0.0"}}, {"uniqueid": "MTK0759:3XIQGXAUMDFQV5R7X99KKOH3K937X8", "current_trial": 212, "dateTime": 1512703124166, "trialdata": {"rt": 1459, "key_press": 32, "type": "INSTRUCTIONS", "trial_type": "text", "trial_index": 212, "time_elapsed": 1238935, "internal_node_id": "0.0-158.0"}}, {"uniqueid": "MTK0759:3XIQGXAUMDFQV5R7X99KKOH3K937X8", "current_trial": 213, "dateTime": 1512703150185, "trialdata": {"rt": [4845, 6861, 8716, 10827, 14938, 17916, 20031, 21768], "responses": ["22", "7", "7", "18", "23", "19", "20", "14"], "num1": [8, 3, 1, 9, 9, 5, 9, 3, 7], "num2": [5, 1, 4, 6, 6, 7, 2, 7, 4], "num3": [9, 3, 2, 3, 8, 7, 9, 4, 5], "type": "DISTRACTOR", "conditions": [12, 800, "a", 24000], "trial": 6, "trial_type": "math-distractor", "trial_index": 213, "time_elapsed": 1264954, "internal_node_id": "0.0-159.0"}}, {"uniqueid": "MTK0759:3XIQGXAUMDFQV5R7X99KKOH3K937X8", "current_trial": 214, "dateTime": 1512703153192, "trialdata": {"rt": -1, "stimulus": "<p id=\"stim\">10</p>", "key_press": -1, "trial_type": "single-stim", "trial_index": 214, "time_elapsed": 1267961, "internal_node_id": "0.0-160.0-0.0"}}, {"uniqueid": "MTK0759:3XIQGXAUMDFQV5R7X99KKOH3K937X8", "current_trial": 215, "dateTime": 1512703154199, "trialdata": {"rt": -1, "stimulus": "<p id=\"stim\">9</p>", "key_press": -1, "trial_type": "single-stim", "trial_index": 215, "time_elapsed": 1268968, "internal_node_id": "0.0-160.0-1.0"}}, {"uniqueid": "MTK0759:3XIQGXAUMDFQV5R7X99KKOH3K937X8", "current_trial": 216, "dateTime": 1512703155205, "trialdata": {"rt": -1, "stimulus": "<p id=\"stim\">8</p>", "key_press": -1, "trial_type": "single-stim", "trial_index": 216, "time_elapsed": 1269974, "internal_node_id": "0.0-160.0-2.0"}}, {"uniqueid": "MTK0759:3XIQGXAUMDFQV5R7X99KKOH3K937X8", "current_trial": 217, "dateTime": 1512703156211, "trialdata": {"rt": -1, "stimulus": "<p id=\"stim\">7</p>", "key_press": -1, "trial_type": "single-stim", "trial_index": 217, "time_elapsed": 1270980, "internal_node_id": "0.0-160.0-3.0"}}, {"uniqueid": "MTK0759:3XIQGXAUMDFQV5R7X99KKOH3K937X8", "current_trial": 218, "dateTime": 1512703157218, "trialdata": {"rt": -1, "stimulus": "<p id=\"stim\">6</p>", "key_press": -1, "trial_type": "single-stim", "trial_index": 218, "time_elapsed": 1271987, "internal_node_id": "0.0-160.0-4.0"}}, {"uniqueid": "MTK0759:3XIQGXAUMDFQV5R7X99KKOH3K937X8", "current_trial": 219, "dateTime": 1512703158228, "trialdata": {"rt": -1, "stimulus": "<p id=\"stim\">5</p>", "key_press": -1, "trial_type": "single-stim", "trial_index": 219, "time_elapsed": 1272997, "internal_node_id": "0.0-160.0-5.0"}}, {"uniqueid": "MTK0759:3XIQGXAUMDFQV5R7X99KKOH3K937X8", "current_trial": 220, "dateTime": 1512703159239, "trialdata": {"rt": -1, "stimulus": "<p id=\"stim\">4</p>", "key_press": -1, "trial_type": "single-stim", "trial_index": 220, "time_elapsed": 1274004, "internal_node_id": "0.0-160.0-6.0"}}, {"uniqueid": "MTK0759:3XIQGXAUMDFQV5R7X99KKOH3K937X8", "current_trial": 221, "dateTime": 1512703160240, "trialdata": {"rt": -1, "stimulus": "<p id=\"stim\">3</p>", "key_press": -1, "trial_type": "single-stim", "trial_index": 221, "time_elapsed": 1275009, "internal_node_id": "0.0-160.0-7.0"}}, {"uniqueid": "MTK0759:3XIQGXAUMDFQV5R7X99KKOH3K937X8", "current_trial": 222, "dateTime": 1512703161248, "trialdata": {"rt": -1, "stimulus": "<p id=\"stim\">2</p>", "key_press": -1, "trial_type": "single-stim", "trial_index": 222, "time_elapsed": 1276017, "internal_node_id": "0.0-160.0-8.0"}}, {"uniqueid": "MTK0759:3XIQGXAUMDFQV5R7X99KKOH3K937X8", "current_trial": 223, "dateTime": 1512703162258, "trialdata": {"rt": -1, "stimulus": "<p id=\"stim\">1</p>", "key_press": -1, "trial_type": "single-stim", "trial_index": 223, "time_elapsed": 1277023, "internal_node_id": "0.0-160.0-9.0"}}, {"uniqueid": "MTK0759:3XIQGXAUMDFQV5R7X99KKOH3K937X8", "current_trial": 224, "dateTime": 1512703163761, "trialdata": {"rt": -1, "stimulus": "<p id=\"stim\">+</p>", "key_press": -1, "type": "FIXATION", "trial_type": "single-stim", "trial_index": 224, "time_elapsed": 1278530, "internal_node_id": "0.0-161.0-0.0"}}, {"uniqueid": "MTK0759:3XIQGXAUMDFQV5R7X99KKOH3K937X8", "current_trial": 225, "dateTime": 1512703165740, "trialdata": {"rt": -1000, "stimulus": "/static/audio/wordpool/SCALLOP.wav", "key_press": -1, "type": "PRES_AUD", "word": "scallop", "wordID": 1241, "conditions": [12, 800, "a", 24000], "trial": 6, "serialpos": 0, "trial_type": "single-audio", "trial_index": 225, "time_elapsed": 1280508, "internal_node_id": "0.0-162.0"}}, {"uniqueid": "MTK0759:3XIQGXAUMDFQV5R7X99KKOH3K937X8", "current_trial": 226, "dateTime": 1512703167628, "trialdata": {"rt": -1000, "stimulus": "/static/audio/wordpool/BUNNY.wav", "key_press": -1, "type": "PRES_AUD", "word": "bunny", "wordID": 197, "conditions": [12, 800, "a", 24000], "trial": 6, "serialpos": 1, "trial_type": "single-audio", "trial_index": 226, "time_elapsed": 1282397, "internal_node_id": "0.0-163.0"}}, {"uniqueid": "MTK0759:3XIQGXAUMDFQV5R7X99KKOH3K937X8", "current_trial": 227, "dateTime": 1512703169267, "trialdata": {"rt": -1000, "stimulus": "/static/audio/wordpool/PUPPY.wav", "key_press": -1, "type": "PRES_AUD", "word": "puppy", "wordID": 1143, "conditions": [12, 800, "a", 24000], "trial": 6, "serialpos": 2, "trial_type": "single-audio", "trial_index": 227, "time_elapsed": 1284036, "internal_node_id": "0.0-164.0"}}, {"uniqueid": "MTK0759:3XIQGXAUMDFQV5R7X99KKOH3K937X8", "current_trial": 228, "dateTime": 1512703171154, "trialdata": {"rt": -1000, "stimulus": "/static/audio/wordpool/FLIPPER.wav", "key_press": -1, "type": "PRES_AUD", "word": "flipper", "wordID": 579, "conditions": [12, 800, "a", 24000], "trial": 6, "serialpos": 3, "trial_type": "single-audio", "trial_index": 228, "time_elapsed": 1285923, "internal_node_id": "0.0-165.0"}}, {"uniqueid": "MTK0759:3XIQGXAUMDFQV5R7X99KKOH3K937X8", "current_trial": 229, "dateTime": 1512703173008, "trialdata": {"rt": -1000, "stimulus": "/static/audio/wordpool/CELLAR.wav", "key_press": -1, "type": "PRES_AUD", "word": "cellar", "wordID": 266, "conditions": [12, 800, "a", 24000], "trial": 6, "serialpos": 4, "trial_type": "single-audio", "trial_index": 229, "time_elapsed": 1287776, "internal_node_id": "0.0-166.0"}}, {"uniqueid": "MTK0759:3XIQGXAUMDFQV5R7X99KKOH3K937X8", "current_trial": 230, "dateTime": 1512703174775, "trialdata": {"rt": -1000, "stimulus": "/static/audio/wordpool/BACKBONE.wav", "key_press": -1, "type": "PRES_AUD", "word": "backbone", "wordID": 65, "conditions": [12, 800, "a", 24000], "trial": 6, "serialpos": 5, "trial_type": "single-audio", "trial_index": 230, "time_elapsed": 1289543, "internal_node_id": "0.0-167.0"}}, {"uniqueid": "MTK0759:3XIQGXAUMDFQV5R7X99KKOH3K937X8", "current_trial": 231, "dateTime": 1512703176457, "trialdata": {"rt": -1000, "stimulus": "/static/audio/wordpool/SMOG.wav", "key_press": -1, "type": "PRES_AUD", "word": "smog", "wordID": 1329, "conditions": [12, 800, "a", 24000], "trial": 6, "serialpos": 6, "trial_type": "single-audio", "trial_index": 231, "time_elapsed": 1291226, "internal_node_id": "0.0-168.0"}}, {"uniqueid": "MTK0759:3XIQGXAUMDFQV5R7X99KKOH3K937X8", "current_trial": 232, "dateTime": 1512703178394, "trialdata": {"rt": -1000, "stimulus": "/static/audio/wordpool/BASEMENT.wav", "key_press": -1, "type": "PRES_AUD", "word": "basement", "wordID": 93, "conditions": [12, 800, "a", 24000], "trial": 6, "serialpos": 7, "trial_type": "single-audio", "trial_index": 232, "time_elapsed": 1293162, "internal_node_id": "0.0-169.0"}}, {"uniqueid": "MTK0759:3XIQGXAUMDFQV5R7X99KKOH3K937X8", "current_trial": 233, "dateTime": 1512703180348, "trialdata": {"rt": -1000, "stimulus": "/static/audio/wordpool/SALAD.wav", "key_press": -1, "type": "PRES_AUD", "word": "salad", "wordID": 1223, "conditions": [12, 800, "a", 24000], "trial": 6, "serialpos": 8, "trial_type": "single-audio", "trial_index": 233, "time_elapsed": 1295116, "internal_node_id": "0.0-170.0"}}, {"uniqueid": "MTK0759:3XIQGXAUMDFQV5R7X99KKOH3K937X8", "current_trial": 234, "dateTime": 1512703182282, "trialdata": {"rt": -1000, "stimulus": "/static/audio/wordpool/APPLE.wav", "key_press": -1, "type": "PRES_AUD", "word": "apple", "wordID": 32, "conditions": [12, 800, "a", 24000], "trial": 6, "serialpos": 9, "trial_type": "single-audio", "trial_index": 234, "time_elapsed": 1297051, "internal_node_id": "0.0-171.0"}}, {"uniqueid": "MTK0759:3XIQGXAUMDFQV5R7X99KKOH3K937X8", "current_trial": 235, "dateTime": 1512703184174, "trialdata": {"rt": -1000, "stimulus": "/static/audio/wordpool/BARLEY.wav", "key_press": -1, "type": "PRES_AUD", "word": "barley", "wordID": 87, "conditions": [12, 800, "a", 24000], "trial": 6, "serialpos": 10, "trial_type": "single-audio", "trial_index": 235, "time_elapsed": 1298942, "internal_node_id": "0.0-172.0"}}, {"uniqueid": "MTK0759:3XIQGXAUMDFQV5R7X99KKOH3K937X8", "current_trial": 236, "dateTime": 1512703186067, "trialdata": {"rt": -1000, "stimulus": "/static/audio/wordpool/SKETCH.wav", "key_press": -1, "type": "PRES_AUD", "word": "sketch", "wordID": 1314, "conditions": [12, 800, "a", 24000], "trial": 6, "serialpos": 11, "trial_type": "single-audio", "trial_index": 236, "time_elapsed": 1300835, "internal_node_id": "0.0-173.0"}}, {"uniqueid": "MTK0759:3XIQGXAUMDFQV5R7X99KKOH3K937X8", "current_trial": 237, "dateTime": 1512703187439, "trialdata": {"rt": -1, "stimulus": "", "key_press": -1, "type": "PRE_RECALL_DELAY", "trial_type": "single-stim", "trial_index": 237, "time_elapsed": 1302207, "internal_node_id": "0.0-174.0-0.0"}}, {"uniqueid": "MTK0759:3XIQGXAUMDFQV5R7X99KKOH3K937X8", "current_trial": 238, "dateTime": 1512703187946, "trialdata": {"rt": -1000, "stimulus": "/static/audio/400Hz.wav", "key_press": -1, "type": "PRE_RECALL_ALERT", "trial_type": "single-audio", "trial_index": 238, "time_elapsed": 1302714, "internal_node_id": "0.0-175.0"}}, {"uniqueid": "MTK0759:3XIQGXAUMDFQV5R7X99KKOH3K937X8", "current_trial": 239, "dateTime": 1512703247993, "trialdata": {"rt": [1852, 2926, 6659, 8417, 16087, 17865], "recwords": ["salad", "apple", "backbone", "sketch", "bunny", "puppy"], "type": "FREE_RECALL", "conditions": [12, 800, "a", 24000], "trial": 6, "trial_type": "free-recall", "trial_index": 239, "time_elapsed": 1362730, "internal_node_id": "0.0-176.0-0.0"}}, {"uniqueid": "MTK0759:3XIQGXAUMDFQV5R7X99KKOH3K937X8", "current_trial": 240, "dateTime": 1512703285812, "trialdata": {"rt": 35812, "key_press": 32, "type": "INSTRUCTIONS", "trial_type": "text", "trial_index": 240, "time_elapsed": 1400581, "internal_node_id": "0.0-177.0"}}, {"uniqueid": "MTK0759:3XIQGXAUMDFQV5R7X99KKOH3K937X8", "current_trial": 241, "dateTime": 1512703311837, "trialdata": {"rt": [2050, 4488, 6514, 8306, 10434, 13035, 17168, 18781, 21005, 23129], "responses": ["13", "21", "12", "6", "11", "14", "17", "11", "21", "14"], "num1": [1, 8, 1, 3, 1, 5, 8, 1, 9, 1, 8], "num2": [7, 9, 3, 2, 9, 1, 4, 8, 8, 8, 8], "num3": [5, 4, 8, 1, 1, 8, 5, 2, 4, 5, 5], "type": "DISTRACTOR", "conditions": [24, 800, "a", 24000], "trial": 7, "trial_type": "math-distractor", "trial_index": 241, "time_elapsed": 1426602, "internal_node_id": "0.0-178.0"}}, {"uniqueid": "MTK0759:3XIQGXAUMDFQV5R7X99KKOH3K937X8", "current_trial": 242, "dateTime": 1512703314845, "trialdata": {"rt": -1, "stimulus": "<p id=\"stim\">10</p>", "key_press": -1, "trial_type": "single-stim", "trial_index": 242, "time_elapsed": 1429614, "internal_node_id": "0.0-179.0-0.0"}}, {"uniqueid": "MTK0759:3XIQGXAUMDFQV5R7X99KKOH3K937X8", "current_trial": 243, "dateTime": 1512703315855, "trialdata": {"rt": -1, "stimulus": "<p id=\"stim\">9</p>", "key_press": -1, "trial_type": "single-stim", "trial_index": 243, "time_elapsed": 1430620, "internal_node_id": "0.0-179.0-1.0"}}, {"uniqueid": "MTK0759:3XIQGXAUMDFQV5R7X99KKOH3K937X8", "current_trial": 244, "dateTime": 1512703316857, "trialdata": {"rt": -1, "stimulus": "<p id=\"stim\">8</p>", "key_press": -1, "trial_type": "single-stim", "trial_index": 244, "time_elapsed": 1431626, "internal_node_id": "0.0-179.0-2.0"}}, {"uniqueid": "MTK0759:3XIQGXAUMDFQV5R7X99KKOH3K937X8", "current_trial": 245, "dateTime": 1512703317863, "trialdata": {"rt": -1, "stimulus": "<p id=\"stim\">7</p>", "key_press": -1, "trial_type": "single-stim", "trial_index": 245, "time_elapsed": 1432632, "internal_node_id": "0.0-179.0-3.0"}}, {"uniqueid": "MTK0759:3XIQGXAUMDFQV5R7X99KKOH3K937X8", "current_trial": 246, "dateTime": 1512703318869, "trialdata": {"rt": -1, "stimulus": "<p id=\"stim\">6</p>", "key_press": -1, "trial_type": "single-stim", "trial_index": 246, "time_elapsed": 1433638, "internal_node_id": "0.0-179.0-4.0"}}, {"uniqueid": "MTK0759:3XIQGXAUMDFQV5R7X99KKOH3K937X8", "current_trial": 247, "dateTime": 1512703319875, "trialdata": {"rt": -1, "stimulus": "<p id=\"stim\">5</p>", "key_press": -1, "trial_type": "single-stim", "trial_index": 247, "time_elapsed": 1434644, "internal_node_id": "0.0-179.0-5.0"}}, {"uniqueid": "MTK0759:3XIQGXAUMDFQV5R7X99KKOH3K937X8", "current_trial": 248, "dateTime": 1512703320887, "trialdata": {"rt": -1, "stimulus": "<p id=\"stim\">4</p>", "key_press": -1, "trial_type": "single-stim", "trial_index": 248, "time_elapsed": 1435653, "internal_node_id": "0.0-179.0-6.0"}}, {"uniqueid": "MTK0759:3XIQGXAUMDFQV5R7X99KKOH3K937X8", "current_trial": 249, "dateTime": 1512703321892, "trialdata": {"rt": -1, "stimulus": "<p id=\"stim\">3</p>", "key_press": -1, "trial_type": "single-stim", "trial_index": 249, "time_elapsed": 1436661, "internal_node_id": "0.0-179.0-7.0"}}, {"uniqueid": "MTK0759:3XIQGXAUMDFQV5R7X99KKOH3K937X8", "current_trial": 250, "dateTime": 1512703322899, "trialdata": {"rt": -1, "stimulus": "<p id=\"stim\">2</p>", "key_press": -1, "trial_type": "single-stim", "trial_index": 250, "time_elapsed": 1437668, "internal_node_id": "0.0-179.0-8.0"}}, {"uniqueid": "MTK0759:3XIQGXAUMDFQV5R7X99KKOH3K937X8", "current_trial": 251, "dateTime": 1512703323905, "trialdata": {"rt": -1, "stimulus": "<p id=\"stim\">1</p>", "key_press": -1, "trial_type": "single-stim", "trial_index": 251, "time_elapsed": 1438674, "internal_node_id": "0.0-179.0-9.0"}}, {"uniqueid": "MTK0759:3XIQGXAUMDFQV5R7X99KKOH3K937X8", "current_trial": 252, "dateTime": 1512703325409, "trialdata": {"rt": -1, "stimulus": "<p id=\"stim\">+</p>", "key_press": -1, "type": "FIXATION", "trial_type": "single-stim", "trial_index": 252, "time_elapsed": 1440178, "internal_node_id": "0.0-180.0-0.0"}}, {"uniqueid": "MTK0759:3XIQGXAUMDFQV5R7X99KKOH3K937X8", "current_trial": 253, "dateTime": 1512703327241, "trialdata": {"rt": -1000, "stimulus": "/static/audio/wordpool/FRANCE.wav", "key_press": -1, "type": "PRES_AUD", "word": "france", "wordID": 600, "conditions": [24, 800, "a", 24000], "trial": 7, "serialpos": 0, "trial_type": "single-audio", "trial_index": 253, "time_elapsed": 1442009, "internal_node_id": "0.0-181.0"}}, {"uniqueid": "MTK0759:3XIQGXAUMDFQV5R7X99KKOH3K937X8", "current_trial": 254, "dateTime": 1512703329220, "trialdata": {"rt": -1000, "stimulus": "/static/audio/wordpool/CABBAGE.wav", "key_press": -1, "type": "PRES_AUD", "word": "cabbage", "wordID": 209, "conditions": [24, 800, "a", 24000], "trial": 7, "serialpos": 1, "trial_type": "single-audio", "trial_index": 254, "time_elapsed": 1443988, "internal_node_id": "0.0-182.0"}}, {"uniqueid": "MTK0759:3XIQGXAUMDFQV5R7X99KKOH3K937X8", "current_trial": 255, "dateTime": 1512703331040, "trialdata": {"rt": -1000, "stimulus": "/static/audio/wordpool/AGENT.wav", "key_press": -1, "type": "PRES_AUD", "word": "agent", "wordID": 9, "conditions": [24, 800, "a", 24000], "trial": 7, "serialpos": 2, "trial_type": "single-audio", "trial_index": 255, "time_elapsed": 1445808, "internal_node_id": "0.0-183.0"}}, {"uniqueid": "MTK0759:3XIQGXAUMDFQV5R7X99KKOH3K937X8", "current_trial": 256, "dateTime": 1512703332873, "trialdata": {"rt": -1000, "stimulus": "/static/audio/wordpool/PATROL.wav", "key_press": -1, "type": "PRES_AUD", "word": "patrol", "wordID": 1026, "conditions": [24, 800, "a", 24000], "trial": 7, "serialpos": 3, "trial_type": "single-audio", "trial_index": 256, "time_elapsed": 1447641, "internal_node_id": "0.0-184.0"}}, {"uniqueid": "MTK0759:3XIQGXAUMDFQV5R7X99KKOH3K937X8", "current_trial": 257, "dateTime": 1512703334620, "trialdata": {"rt": -1000, "stimulus": "/static/audio/wordpool/AIRPORT.wav", "key_press": -1, "type": "PRES_AUD", "word": "airport", "wordID": 12, "conditions": [24, 800, "a", 24000], "trial": 7, "serialpos": 4, "trial_type": "single-audio", "trial_index": 257, "time_elapsed": 1449389, "internal_node_id": "0.0-185.0"}}, {"uniqueid": "MTK0759:3XIQGXAUMDFQV5R7X99KKOH3K937X8", "current_trial": 258, "dateTime": 1512703336524, "trialdata": {"rt": -1000, "stimulus": "/static/audio/wordpool/JAPAN.wav", "key_press": -1, "type": "PRES_AUD", "word": "japan", "wordID": 748, "conditions": [24, 800, "a", 24000], "trial": 7, "serialpos": 5, "trial_type": "single-audio", "trial_index": 258, "time_elapsed": 1451291, "internal_node_id": "0.0-186.0"}}, {"uniqueid": "MTK0759:3XIQGXAUMDFQV5R7X99KKOH3K937X8", "current_trial": 259, "dateTime": 1512703338199, "trialdata": {"rt": -1000, "stimulus": "/static/audio/wordpool/CANDY.wav", "key_press": -1, "type": "PRES_AUD", "word": "candy", "wordID": 229, "conditions": [24, 800, "a", 24000], "trial": 7, "serialpos": 6, "trial_type": "single-audio", "trial_index": 259, "time_elapsed": 1452968, "internal_node_id": "0.0-187.0"}}, {"uniqueid": "MTK0759:3XIQGXAUMDFQV5R7X99KKOH3K937X8", "current_trial": 260, "dateTime": 1512703339919, "trialdata": {"rt": -1000, "stimulus": "/static/audio/wordpool/MARROW.wav", "key_press": -1, "type": "PRES_AUD", "word": "marrow", "wordID": 871, "conditions": [24, 800, "a", 24000], "trial": 7, "serialpos": 7, "trial_type": "single-audio", "trial_index": 260, "time_elapsed": 1454687, "internal_node_id": "0.0-188.0"}}, {"uniqueid": "MTK0759:3XIQGXAUMDFQV5R7X99KKOH3K937X8", "current_trial": 261, "dateTime": 1512703341823, "trialdata": {"rt": -1000, "stimulus": "/static/audio/wordpool/WRENCH.wav", "key_press": -1, "type": "PRES_AUD", "word": "wrench", "wordID": 1624, "conditions": [24, 800, "a", 24000], "trial": 7, "serialpos": 8, "trial_type": "single-audio", "trial_index": 261, "time_elapsed": 1456591, "internal_node_id": "0.0-189.0"}}, {"uniqueid": "MTK0759:3XIQGXAUMDFQV5R7X99KKOH3K937X8", "current_trial": 262, "dateTime": 1512703343799, "trialdata": {"rt": -1000, "stimulus": "/static/audio/wordpool/FOREHEAD.wav", "key_press": -1, "type": "PRES_AUD", "word": "forehead", "wordID": 591, "conditions": [24, 800, "a", 24000], "trial": 7, "serialpos": 9, "trial_type": "single-audio", "trial_index": 262, "time_elapsed": 1458568, "internal_node_id": "0.0-190.0"}}, {"uniqueid": "MTK0759:3XIQGXAUMDFQV5R7X99KKOH3K937X8", "current_trial": 263, "dateTime": 1512703345579, "trialdata": {"rt": -1000, "stimulus": "/static/audio/wordpool/SHOULDER.wav", "key_press": -1, "type": "PRES_AUD", "word": "shoulder", "wordID": 1293, "conditions": [24, 800, "a", 24000], "trial": 7, "serialpos": 10, "trial_type": "single-audio", "trial_index": 263, "time_elapsed": 1460348, "internal_node_id": "0.0-191.0"}}, {"uniqueid": "MTK0759:3XIQGXAUMDFQV5R7X99KKOH3K937X8", "current_trial": 264, "dateTime": 1512703347369, "trialdata": {"rt": -1000, "stimulus": "/static/audio/wordpool/WRIST.wav", "key_press": -1, "type": "PRES_AUD", "word": "wrist", "wordID": 1625, "conditions": [24, 800, "a", 24000], "trial": 7, "serialpos": 11, "trial_type": "single-audio", "trial_index": 264, "time_elapsed": 1462137, "internal_node_id": "0.0-192.0"}}, {"uniqueid": "MTK0759:3XIQGXAUMDFQV5R7X99KKOH3K937X8", "current_trial": 265, "dateTime": 1512703349185, "trialdata": {"rt": -1000, "stimulus": "/static/audio/wordpool/HAMPER.wav", "key_press": -1, "type": "PRES_AUD", "word": "hamper", "wordID": 681, "conditions": [24, 800, "a", 24000], "trial": 7, "serialpos": 12, "trial_type": "single-audio", "trial_index": 265, "time_elapsed": 1463954, "internal_node_id": "0.0-193.0"}}, {"uniqueid": "MTK0759:3XIQGXAUMDFQV5R7X99KKOH3K937X8", "current_trial": 266, "dateTime": 1512703350897, "trialdata": {"rt": -1000, "stimulus": "/static/audio/wordpool/CRAYON.wav", "key_press": -1, "type": "PRES_AUD", "word": "crayon", "wordID": 400, "conditions": [24, 800, "a", 24000], "trial": 7, "serialpos": 13, "trial_type": "single-audio", "trial_index": 266, "time_elapsed": 1465665, "internal_node_id": "0.0-194.0"}}, {"uniqueid": "MTK0759:3XIQGXAUMDFQV5R7X99KKOH3K937X8", "current_trial": 267, "dateTime": 1512703352845, "trialdata": {"rt": -1000, "stimulus": "/static/audio/wordpool/SIBLING.wav", "key_press": -1, "type": "PRES_AUD", "word": "sibling", "wordID": 1300, "conditions": [24, 800, "a", 24000], "trial": 7, "serialpos": 14, "trial_type": "single-audio", "trial_index": 267, "time_elapsed": 1467613, "internal_node_id": "0.0-195.0"}}, {"uniqueid": "MTK0759:3XIQGXAUMDFQV5R7X99KKOH3K937X8", "current_trial": 268, "dateTime": 1512703354706, "trialdata": {"rt": -1000, "stimulus": "/static/audio/wordpool/BROTHER.wav", "key_press": -1, "type": "PRES_AUD", "word": "brother", "wordID": 178, "conditions": [24, 800, "a", 24000], "trial": 7, "serialpos": 15, "trial_type": "single-audio", "trial_index": 268, "time_elapsed": 1469475, "internal_node_id": "0.0-196.0"}}, {"uniqueid": "MTK0759:3XIQGXAUMDFQV5R7X99KKOH3K937X8", "current_trial": 269, "dateTime": 1512703356582, "trialdata": {"rt": -1000, "stimulus": "/static/audio/wordpool/DRESSER.wav", "key_press": -1, "type": "PRES_AUD", "word": "dresser", "wordID": 495, "conditions": [24, 800, "a", 24000], "trial": 7, "serialpos": 16, "trial_type": "single-audio", "trial_index": 269, "time_elapsed": 1471350, "internal_node_id": "0.0-197.0"}}, {"uniqueid": "MTK0759:3XIQGXAUMDFQV5R7X99KKOH3K937X8", "current_trial": 270, "dateTime": 1512703358292, "trialdata": {"rt": -1000, "stimulus": "/static/audio/wordpool/PLASTER.wav", "key_press": -1, "type": "PRES_AUD", "word": "plaster", "wordID": 1084, "conditions": [24, 800, "a", 24000], "trial": 7, "serialpos": 17, "trial_type": "single-audio", "trial_index": 270, "time_elapsed": 1473060, "internal_node_id": "0.0-198.0"}}, {"uniqueid": "MTK0759:3XIQGXAUMDFQV5R7X99KKOH3K937X8", "current_trial": 271, "dateTime": 1512703360168, "trialdata": {"rt": -1000, "stimulus": "/static/audio/wordpool/RELISH.wav", "key_press": -1, "type": "PRES_AUD", "word": "relish", "wordID": 1182, "conditions": [24, 800, "a", 24000], "trial": 7, "serialpos": 18, "trial_type": "single-audio", "trial_index": 271, "time_elapsed": 1474936, "internal_node_id": "0.0-199.0"}}, {"uniqueid": "MTK0759:3XIQGXAUMDFQV5R7X99KKOH3K937X8", "current_trial": 272, "dateTime": 1512703362065, "trialdata": {"rt": -1000, "stimulu