{"condition": 0, "counterbalance": 346, "assignmentId": "3FUI0JHJPY5WEOJ6B8Z60RGJ8CP338", "workerId": "MTK0761", "hitId": "3UEDKCTP9VXIOLU68OPT5ADH8U2K77", "currenttrial": 626, "bonus": 0, "data": [{"uniqueid": "MTK0761:3FUI0JHJPY5WEOJ6B8Z60RGJ8CP338", "current_trial": 0, "dateTime": 1512711917741, "trialdata": {"rt": 14054, "key_press": 32, "type": "INSTRUCTIONS", "trial_type": "text", "trial_index": 0, "time_elapsed": 14062, "internal_node_id": "0.0-0.0"}}, {"uniqueid": "MTK0761:3FUI0JHJPY5WEOJ6B8Z60RGJ8CP338", "current_trial": 1, "dateTime": 1512711940237, "trialdata": {"rt": 22491, "key_press": 32, "type": "INSTRUCTIONS", "trial_type": "text", "trial_index": 1, "time_elapsed": 36560, "internal_node_id": "0.0-1.0"}}, {"uniqueid": "MTK0761:3FUI0JHJPY5WEOJ6B8Z60RGJ8CP338", "current_trial": 2, "dateTime": 1512711971378, "trialdata": {"rt": [31106], "responses": ["ocean"], "type": "AUDIO_TEST", "trial_type": "audio-test", "trial_index": 2, "time_elapsed": 67700, "internal_node_id": "0.0-2.0"}}, {"uniqueid": "MTK0761:3FUI0JHJPY5WEOJ6B8Z60RGJ8CP338", "current_trial": 3, "dateTime": 1512711983406, "trialdata": {"rt": [12019], "responses": ["crystal"], "type": "AUDIO_TEST", "trial_type": "audio-test", "trial_index": 3, "time_elapsed": 79729, "internal_node_id": "0.0-3.0"}}, {"uniqueid": "MTK0761:3FUI0JHJPY5WEOJ6B8Z60RGJ8CP338", "current_trial": 4, "dateTime": 1512712002732, "trialdata": {"rt": [19317], "responses": ["spice"], "type": "AUDIO_TEST", "trial_type": "audio-test", "trial_index": 4, "time_elapsed": 99054, "internal_node_id": "0.0-4.0"}}, {"uniqueid": "MTK0761:3FUI0JHJPY5WEOJ6B8Z60RGJ8CP338", "current_trial": 5, "dateTime": 1512712035897, "trialdata": {"rt": 32406, "responses": "{\"Q0\":\"12:30 am\",\"Q1\":\"7:30 am\",\"Q2\":\"3\"}", "type": "SLEEP_SURVEY", "trial_type": "survey-text", "trial_index": 5, "time_elapsed": 132220, "internal_node_id": "0.0-5.0"}}, {"uniqueid": "MTK0761:3FUI0JHJPY5WEOJ6B8Z60RGJ8CP338", "current_trial": 6, "dateTime": 1512712084962, "trialdata": {"rt": 48061, "key_press": 32, "type": "INSTRUCTIONS", "trial_type": "text", "trial_index": 6, "time_elapsed": 181285, "internal_node_id": "0.0-6.0"}}, {"uniqueid": "MTK0761:3FUI0JHJPY5WEOJ6B8Z60RGJ8CP338", "current_trial": 7, "dateTime": 1512712113897, "trialdata": {"rt": 28429, "key_press": 32, "type": "INSTRUCTIONS", "trial_type": "text", "trial_index": 7, "time_elapsed": 210219, "internal_node_id": "0.0-7.0"}}, {"uniqueid": "MTK0761:3FUI0JHJPY5WEOJ6B8Z60RGJ8CP338", "current_trial": 8, "dateTime": 1512712125455, "trialdata": {"rt": 11056, "key_press": 32, "type": "INSTRUCTIONS", "trial_type": "text", "trial_index": 8, "time_elapsed": 221778, "internal_node_id": "0.0-8.0"}}, {"uniqueid": "MTK0761:3FUI0JHJPY5WEOJ6B8Z60RGJ8CP338", "current_trial": 9, "dateTime": 1512712144474, "trialdata": {"rt": [4152, 7976, 10709, 13117, 15625], "responses": ["18", "14", "10", "15", "12"], "num1": [3, 3, 6, 8, 9, 7], "num2": [9, 8, 3, 5, 2, 7], "num3": [6, 3, 1, 2, 1, 8], "type": "DISTRACTOR", "conditions": [18, 1200, "a", 18000], "trial": 0, "trial_type": "math-distractor", "trial_index": 9, "time_elapsed": 240797, "internal_node_id": "0.0-9.0"}}, {"uniqueid": "MTK0761:3FUI0JHJPY5WEOJ6B8Z60RGJ8CP338", "current_trial": 10, "dateTime": 1512712147480, "trialdata": {"rt": -1, "stimulus": "<p id=\"stim\">10</p>", "key_press": -1, "trial_type": "single-stim", "trial_index": 10, "time_elapsed": 243802, "internal_node_id": "0.0-10.0-0.0"}}, {"uniqueid": "MTK0761:3FUI0JHJPY5WEOJ6B8Z60RGJ8CP338", "current_trial": 11, "dateTime": 1512712148482, "trialdata": {"rt": -1, "stimulus": "<p id=\"stim\">9</p>", "key_press": -1, "trial_type": "single-stim", "trial_index": 11, "time_elapsed": 244805, "internal_node_id": "0.0-10.0-1.0"}}, {"uniqueid": "MTK0761:3FUI0JHJPY5WEOJ6B8Z60RGJ8CP338", "current_trial": 12, "dateTime": 1512712149485, "trialdata": {"rt": -1, "stimulus": "<p id=\"stim\">8</p>", "key_press": -1, "trial_type": "single-stim", "trial_index": 12, "time_elapsed": 245807, "internal_node_id": "0.0-10.0-2.0"}}, {"uniqueid": "MTK0761:3FUI0JHJPY5WEOJ6B8Z60RGJ8CP338", "current_trial": 13, "dateTime": 1512712150487, "trialdata": {"rt": -1, "stimulus": "<p id=\"stim\">7</p>", "key_press": -1, "trial_type": "single-stim", "trial_index": 13, "time_elapsed": 246810, "internal_node_id": "0.0-10.0-3.0"}}, {"uniqueid": "MTK0761:3FUI0JHJPY5WEOJ6B8Z60RGJ8CP338", "current_trial": 14, "dateTime": 1512712151490, "trialdata": {"rt": -1, "stimulus": "<p id=\"stim\">6</p>", "key_press": -1, "trial_type": "single-stim", "trial_index": 14, "time_elapsed": 247813, "internal_node_id": "0.0-10.0-4.0"}}, {"uniqueid": "MTK0761:3FUI0JHJPY5WEOJ6B8Z60RGJ8CP338", "current_trial": 15, "dateTime": 1512712152501, "trialdata": {"rt": -1, "stimulus": "<p id=\"stim\">5</p>", "key_press": -1, "trial_type": "single-stim", "trial_index": 15, "time_elapsed": 248823, "internal_node_id": "0.0-10.0-5.0"}}, {"uniqueid": "MTK0761:3FUI0JHJPY5WEOJ6B8Z60RGJ8CP338", "current_trial": 16, "dateTime": 1512712153504, "trialdata": {"rt": -1, "stimulus": "<p id=\"stim\">4</p>", "key_press": -1, "trial_type": "single-stim", "trial_index": 16, "time_elapsed": 249826, "internal_node_id": "0.0-10.0-6.0"}}, {"uniqueid": "MTK0761:3FUI0JHJPY5WEOJ6B8Z60RGJ8CP338", "current_trial": 17, "dateTime": 1512712154508, "trialdata": {"rt": -1, "stimulus": "<p id=\"stim\">3</p>", "key_press": -1, "trial_type": "single-stim", "trial_index": 17, "time_elapsed": 250830, "internal_node_id": "0.0-10.0-7.0"}}, {"uniqueid": "MTK0761:3FUI0JHJPY5WEOJ6B8Z60RGJ8CP338", "current_trial": 18, "dateTime": 1512712155534, "trialdata": {"rt": -1, "stimulus": "<p id=\"stim\">2</p>", "key_press": -1, "trial_type": "single-stim", "trial_index": 18, "time_elapsed": 251857, "internal_node_id": "0.0-10.0-8.0"}}, {"uniqueid": "MTK0761:3FUI0JHJPY5WEOJ6B8Z60RGJ8CP338", "current_trial": 19, "dateTime": 1512712156537, "trialdata": {"rt": -1, "stimulus": "<p id=\"stim\">1</p>", "key_press": -1, "trial_type": "single-stim", "trial_index": 19, "time_elapsed": 252859, "internal_node_id": "0.0-10.0-9.0"}}, {"uniqueid": "MTK0761:3FUI0JHJPY5WEOJ6B8Z60RGJ8CP338", "current_trial": 20, "dateTime": 1512712158040, "trialdata": {"rt": -1, "stimulus": "<p id=\"stim\">+</p>", "key_press": -1, "type": "FIXATION", "trial_type": "single-stim", "trial_index": 20, "time_elapsed": 254363, "internal_node_id": "0.0-11.0-0.0"}}, {"uniqueid": "MTK0761:3FUI0JHJPY5WEOJ6B8Z60RGJ8CP338", "current_trial": 21, "dateTime": 1512712160264, "trialdata": {"rt": -1000, "stimulus": "/static/audio/wordpool/TABLE.wav", "key_press": -1, "type": "PRES_AUD", "word": "table", "wordID": 1425, "conditions": [18, 1200, "a", 18000], "trial": 0, "serialpos": 0, "trial_type": "single-audio", "trial_index": 21, "time_elapsed": 256587, "internal_node_id": "0.0-12.0"}}, {"uniqueid": "MTK0761:3FUI0JHJPY5WEOJ6B8Z60RGJ8CP338", "current_trial": 22, "dateTime": 1512712162345, "trialdata": {"rt": -1000, "stimulus": "/static/audio/wordpool/POWDER.wav", "key_press": -1, "type": "PRES_AUD", "word": "powder", "wordID": 1116, "conditions": [18, 1200, "a", 18000], "trial": 0, "serialpos": 1, "trial_type": "single-audio", "trial_index": 22, "time_elapsed": 258668, "internal_node_id": "0.0-13.0"}}, {"uniqueid": "MTK0761:3FUI0JHJPY5WEOJ6B8Z60RGJ8CP338", "current_trial": 23, "dateTime": 1512712164392, "trialdata": {"rt": -1000, "stimulus": "/static/audio/wordpool/LASER.wav", "key_press": -1, "type": "PRES_AUD", "word": "laser", "wordID": 800, "conditions": [18, 1200, "a", 18000], "trial": 0, "serialpos": 2, "trial_type": "single-audio", "trial_index": 23, "time_elapsed": 260714, "internal_node_id": "0.0-14.0"}}, {"uniqueid": "MTK0761:3FUI0JHJPY5WEOJ6B8Z60RGJ8CP338", "current_trial": 24, "dateTime": 1512712166629, "trialdata": {"rt": -1000, "stimulus": "/static/audio/wordpool/ACTRESS.wav", "key_press": -1, "type": "PRES_AUD", "word": "actress", "wordID": 5, "conditions": [18, 1200, "a", 18000], "trial": 0, "serialpos": 3, "trial_type": "single-audio", "trial_index": 24, "time_elapsed": 262951, "internal_node_id": "0.0-15.0"}}, {"uniqueid": "MTK0761:3FUI0JHJPY5WEOJ6B8Z60RGJ8CP338", "current_trial": 25, "dateTime": 1512712168921, "trialdata": {"rt": -1000, "stimulus": "/static/audio/wordpool/GALLON.wav", "key_press": -1, "type": "PRES_AUD", "word": "gallon", "wordID": 617, "conditions": [18, 1200, "a", 18000], "trial": 0, "serialpos": 4, "trial_type": "single-audio", "trial_index": 25, "time_elapsed": 265244, "internal_node_id": "0.0-16.0"}}, {"uniqueid": "MTK0761:3FUI0JHJPY5WEOJ6B8Z60RGJ8CP338", "current_trial": 26, "dateTime": 1512712171180, "trialdata": {"rt": -1000, "stimulus": "/static/audio/wordpool/LOFT.wav", "key_press": -1, "type": "PRES_AUD", "word": "loft", "wordID": 839, "conditions": [18, 1200, "a", 18000], "trial": 0, "serialpos": 5, "trial_type": "single-audio", "trial_index": 26, "time_elapsed": 267503, "internal_node_id": "0.0-17.0"}}, {"uniqueid": "MTK0761:3FUI0JHJPY5WEOJ6B8Z60RGJ8CP338", "current_trial": 27, "dateTime": 1512712173198, "trialdata": {"rt": -1000, "stimulus": "/static/audio/wordpool/KLEENEX.wav", "key_press": -1, "type": "PRES_AUD", "word": "kleenex", "wordID": 781, "conditions": [18, 1200, "a", 18000], "trial": 0, "serialpos": 6, "trial_type": "single-audio", "trial_index": 27, "time_elapsed": 269520, "internal_node_id": "0.0-18.0"}}, {"uniqueid": "MTK0761:3FUI0JHJPY5WEOJ6B8Z60RGJ8CP338", "current_trial": 28, "dateTime": 1512712175311, "trialdata": {"rt": -1000, "stimulus": "/static/audio/wordpool/ROBIN.wav", "key_press": -1, "type": "PRES_AUD", "word": "robin", "wordID": 1198, "conditions": [18, 1200, "a", 18000], "trial": 0, "serialpos": 7, "trial_type": "single-audio", "trial_index": 28, "time_elapsed": 271634, "internal_node_id": "0.0-19.0"}}, {"uniqueid": "MTK0761:3FUI0JHJPY5WEOJ6B8Z60RGJ8CP338", "current_trial": 29, "dateTime": 1512712177711, "trialdata": {"rt": -1000, "stimulus": "/static/audio/wordpool/PLAID.wav", "key_press": -1, "type": "PRES_AUD", "word": "plaid", "wordID": 1079, "conditions": [18, 1200, "a", 18000], "trial": 0, "serialpos": 8, "trial_type": "single-audio", "trial_index": 29, "time_elapsed": 274034, "internal_node_id": "0.0-20.0"}}, {"uniqueid": "MTK0761:3FUI0JHJPY5WEOJ6B8Z60RGJ8CP338", "current_trial": 30, "dateTime": 1512712179926, "trialdata": {"rt": -1000, "stimulus": "/static/audio/wordpool/STAPLE.wav", "key_press": -1, "type": "PRES_AUD", "word": "staple", "wordID": 1370, "conditions": [18, 1200, "a", 18000], "trial": 0, "serialpos": 9, "trial_type": "single-audio", "trial_index": 30, "time_elapsed": 276248, "internal_node_id": "0.0-21.0"}}, {"uniqueid": "MTK0761:3FUI0JHJPY5WEOJ6B8Z60RGJ8CP338", "current_trial": 31, "dateTime": 1512712182098, "trialdata": {"rt": -1000, "stimulus": "/static/audio/wordpool/GUARD.wav", "key_press": -1, "type": "PRES_AUD", "word": "guard", "wordID": 666, "conditions": [18, 1200, "a", 18000], "trial": 0, "serialpos": 10, "trial_type": "single-audio", "trial_index": 31, "time_elapsed": 278420, "internal_node_id": "0.0-22.0"}}, {"uniqueid": "MTK0761:3FUI0JHJPY5WEOJ6B8Z60RGJ8CP338", "current_trial": 32, "dateTime": 1512712184186, "trialdata": {"rt": -1000, "stimulus": "/static/audio/wordpool/BINDER.wav", "key_press": -1, "type": "PRES_AUD", "word": "binder", "wordID": 126, "conditions": [18, 1200, "a", 18000], "trial": 0, "serialpos": 11, "trial_type": "single-audio", "trial_index": 32, "time_elapsed": 280508, "internal_node_id": "0.0-23.0"}}, {"uniqueid": "MTK0761:3FUI0JHJPY5WEOJ6B8Z60RGJ8CP338", "current_trial": 33, "dateTime": 1512712186278, "trialdata": {"rt": -1000, "stimulus": "/static/audio/wordpool/DASHBOARD.wav", "key_press": -1, "type": "PRES_AUD", "word": "dashboard", "wordID": 440, "conditions": [18, 1200, "a", 18000], "trial": 0, "serialpos": 12, "trial_type": "single-audio", "trial_index": 33, "time_elapsed": 282601, "internal_node_id": "0.0-24.0"}}, {"uniqueid": "MTK0761:3FUI0JHJPY5WEOJ6B8Z60RGJ8CP338", "current_trial": 34, "dateTime": 1512712188428, "trialdata": {"rt": -1000, "stimulus": "/static/audio/wordpool/PUDDLE.wav", "key_press": -1, "type": "PRES_AUD", "word": "puddle", "wordID": 1139, "conditions": [18, 1200, "a", 18000], "trial": 0, "serialpos": 13, "trial_type": "single-audio", "trial_index": 34, "time_elapsed": 284751, "internal_node_id": "0.0-25.0"}}, {"uniqueid": "MTK0761:3FUI0JHJPY5WEOJ6B8Z60RGJ8CP338", "current_trial": 35, "dateTime": 1512712190563, "trialdata": {"rt": -1000, "stimulus": "/static/audio/wordpool/SCISSORS.wav", "key_press": -1, "type": "PRES_AUD", "word": "scissors", "wordID": 1249, "conditions": [18, 1200, "a", 18000], "trial": 0, "serialpos": 14, "trial_type": "single-audio", "trial_index": 35, "time_elapsed": 286885, "internal_node_id": "0.0-26.0"}}, {"uniqueid": "MTK0761:3FUI0JHJPY5WEOJ6B8Z60RGJ8CP338", "current_trial": 36, "dateTime": 1512712192706, "trialdata": {"rt": 1638.6666666666088, "stimulus": "/static/audio/wordpool/BUGGY.wav", "key_press": 32, "type": "PRES_AUD", "word": "buggy", "wordID": 187, "conditions": [18, 1200, "a", 18000], "trial": 0, "serialpos": 15, "trial_type": "single-audio", "trial_index": 36, "time_elapsed": 289029, "internal_node_id": "0.0-27.0"}}, {"uniqueid": "MTK0761:3FUI0JHJPY5WEOJ6B8Z60RGJ8CP338", "current_trial": 37, "dateTime": 1512712195119, "trialdata": {"rt": -1000, "stimulus": "/static/audio/wordpool/EMPIRE.wav", "key_press": -1, "type": "PRES_AUD", "word": "empire", "wordID": 529, "conditions": [18, 1200, "a", 18000], "trial": 0, "serialpos": 16, "trial_type": "single-audio", "trial_index": 37, "time_elapsed": 291441, "internal_node_id": "0.0-28.0"}}, {"uniqueid": "MTK0761:3FUI0JHJPY5WEOJ6B8Z60RGJ8CP338", "current_trial": 38, "dateTime": 1512712197182, "trialdata": {"rt": -1000, "stimulus": "/static/audio/wordpool/CONVICT.wav", "key_press": -1, "type": "PRES_AUD", "word": "convict", "wordID": 370, "conditions": [18, 1200, "a", 18000], "trial": 0, "serialpos": 17, "trial_type": "single-audio", "trial_index": 38, "time_elapsed": 293505, "internal_node_id": "0.0-29.0"}}, {"uniqueid": "MTK0761:3FUI0JHJPY5WEOJ6B8Z60RGJ8CP338", "current_trial": 39, "dateTime": 1512712198496, "trialdata": {"rt": -1, "stimulus": "", "key_press": -1, "type": "PRE_RECALL_DELAY", "trial_type": "single-stim", "trial_index": 39, "time_elapsed": 294819, "internal_node_id": "0.0-30.0-0.0"}}, {"uniqueid": "MTK0761:3FUI0JHJPY5WEOJ6B8Z60RGJ8CP338", "current_trial": 40, "dateTime": 1512712198999, "trialdata": {"rt": -1000, "stimulus": "/static/audio/400Hz.wav", "key_press": -1, "type": "PRE_RECALL_ALERT", "trial_type": "single-audio", "trial_index": 40, "time_elapsed": 295321, "internal_node_id": "0.0-31.0"}}, {"uniqueid": "MTK0761:3FUI0JHJPY5WEOJ6B8Z60RGJ8CP338", "current_trial": 41, "dateTime": 1512712259056, "trialdata": {"rt": [3415, 5935, 7685, 9062, 10505, 32447], "recwords": ["table", "laser", "convict", "butter", "guard", "powder"], "type": "FREE_RECALL", "conditions": [18, 1200, "a", 18000], "trial": 0, "trial_type": "free-recall", "trial_index": 41, "time_elapsed": 355333, "internal_node_id": "0.0-32.0-0.0"}}, {"uniqueid": "MTK0761:3FUI0JHJPY5WEOJ6B8Z60RGJ8CP338", "current_trial": 42, "dateTime": 1512712263485, "trialdata": {"rt": 2426, "key_press": 32, "type": "INSTRUCTIONS", "trial_type": "text", "trial_index": 42, "time_elapsed": 359808, "internal_node_id": "0.0-33.0"}}, {"uniqueid": "MTK0761:3FUI0JHJPY5WEOJ6B8Z60RGJ8CP338", "current_trial": 43, "dateTime": 1512712283508, "trialdata": {"rt": [3439, 9107, 11129, 13906], "responses": ["20", "18", "13", "24"], "num1": [9, 5, 3, 8, 9], "num2": [3, 6, 8, 7, 2], "num3": [8, 7, 2, 9, 4], "type": "DISTRACTOR", "conditions": [18, 1200, "v", 18000], "trial": 1, "trial_type": "math-distractor", "trial_index": 43, "time_elapsed": 379831, "internal_node_id": "0.0-34.0"}}, {"uniqueid": "MTK0761:3FUI0JHJPY5WEOJ6B8Z60RGJ8CP338", "current_trial": 44, "dateTime": 1512712286528, "trialdata": {"rt": -1, "stimulus": "<p id=\"stim\">10</p>", "key_press": -1, "trial_type": "single-stim", "trial_index": 44, "time_elapsed": 382851, "internal_node_id": "0.0-35.0-0.0"}}, {"uniqueid": "MTK0761:3FUI0JHJPY5WEOJ6B8Z60RGJ8CP338", "current_trial": 45, "dateTime": 1512712287531, "trialdata": {"rt": -1, "stimulus": "<p id=\"stim\">9</p>", "key_press": -1, "trial_type": "single-stim", "trial_index": 45, "time_elapsed": 383854, "internal_node_id": "0.0-35.0-1.0"}}, {"uniqueid": "MTK0761:3FUI0JHJPY5WEOJ6B8Z60RGJ8CP338", "current_trial": 46, "dateTime": 1512712288535, "trialdata": {"rt": -1, "stimulus": "<p id=\"stim\">8</p>", "key_press": -1, "trial_type": "single-stim", "trial_index": 46, "time_elapsed": 384858, "internal_node_id": "0.0-35.0-2.0"}}, {"uniqueid": "MTK0761:3FUI0JHJPY5WEOJ6B8Z60RGJ8CP338", "current_trial": 47, "dateTime": 1512712289540, "trialdata": {"rt": -1, "stimulus": "<p id=\"stim\">7</p>", "key_press": -1, "trial_type": "single-stim", "trial_index": 47, "time_elapsed": 385862, "internal_node_id": "0.0-35.0-3.0"}}, {"uniqueid": "MTK0761:3FUI0JHJPY5WEOJ6B8Z60RGJ8CP338", "current_trial": 48, "dateTime": 1512712290543, "trialdata": {"rt": -1, "stimulus": "<p id=\"stim\">6</p>", "key_press": -1, "trial_type": "single-stim", "trial_index": 48, "time_elapsed": 386866, "internal_node_id": "0.0-35.0-4.0"}}, {"uniqueid": "MTK0761:3FUI0JHJPY5WEOJ6B8Z60RGJ8CP338", "current_trial": 49, "dateTime": 1512712291548, "trialdata": {"rt": -1, "stimulus": "<p id=\"stim\">5</p>", "key_press": -1, "trial_type": "single-stim", "trial_index": 49, "time_elapsed": 387871, "internal_node_id": "0.0-35.0-5.0"}}, {"uniqueid": "MTK0761:3FUI0JHJPY5WEOJ6B8Z60RGJ8CP338", "current_trial": 50, "dateTime": 1512712292553, "trialdata": {"rt": -1, "stimulus": "<p id=\"stim\">4</p>", "key_press": -1, "trial_type": "single-stim", "trial_index": 50, "time_elapsed": 388875, "internal_node_id": "0.0-35.0-6.0"}}, {"uniqueid": "MTK0761:3FUI0JHJPY5WEOJ6B8Z60RGJ8CP338", "current_trial": 51, "dateTime": 1512712293556, "trialdata": {"rt": -1, "stimulus": "<p id=\"stim\">3</p>", "key_press": -1, "trial_type": "single-stim", "trial_index": 51, "time_elapsed": 389879, "internal_node_id": "0.0-35.0-7.0"}}, {"uniqueid": "MTK0761:3FUI0JHJPY5WEOJ6B8Z60RGJ8CP338", "current_trial": 52, "dateTime": 1512712294560, "trialdata": {"rt": -1, "stimulus": "<p id=\"stim\">2</p>", "key_press": -1, "trial_type": "single-stim", "trial_index": 52, "time_elapsed": 390883, "internal_node_id": "0.0-35.0-8.0"}}, {"uniqueid": "MTK0761:3FUI0JHJPY5WEOJ6B8Z60RGJ8CP338", "current_trial": 53, "dateTime": 1512712295565, "trialdata": {"rt": -1, "stimulus": "<p id=\"stim\">1</p>", "key_press": -1, "trial_type": "single-stim", "trial_index": 53, "time_elapsed": 391887, "internal_node_id": "0.0-35.0-9.0"}}, {"uniqueid": "MTK0761:3FUI0JHJPY5WEOJ6B8Z60RGJ8CP338", "current_trial": 54, "dateTime": 1512712297070, "trialdata": {"rt": -1, "stimulus": "<p id=\"stim\">+</p>", "key_press": -1, "type": "FIXATION", "trial_type": "single-stim", "trial_index": 54, "time_elapsed": 393392, "internal_node_id": "0.0-36.0-0.0"}}, {"uniqueid": "MTK0761:3FUI0JHJPY5WEOJ6B8Z60RGJ8CP338", "current_trial": 55, "dateTime": 1512712298275, "trialdata": {"rt": -1, "stimulus": "<p id=\"stim\">PLASTER</p>", "key_press": -1, "type": "PRES_VIS", "word": "plaster", "wordID": 1084, "conditions": [18, 1200, "v", 18000], "trial": 1, "serialpos": 0, "trial_type": "single-stim", "trial_index": 55, "time_elapsed": 394597, "internal_node_id": "0.0-37.0"}}, {"uniqueid": "MTK0761:3FUI0JHJPY5WEOJ6B8Z60RGJ8CP338", "current_trial": 56, "dateTime": 1512712300425, "trialdata": {"rt": -1, "stimulus": "<p id=\"stim\">TRUCK</p>", "key_press": -1, "type": "PRES_VIS", "word": "truck", "wordID": 1511, "conditions": [18, 1200, "v", 18000], "trial": 1, "serialpos": 1, "trial_type": "single-stim", "trial_index": 56, "time_elapsed": 396747, "internal_node_id": "0.0-38.0"}}, {"uniqueid": "MTK0761:3FUI0JHJPY5WEOJ6B8Z60RGJ8CP338", "current_trial": 57, "dateTime": 1512712302735, "trialdata": {"rt": -1, "stimulus": "<p id=\"stim\">FOREST</p>", "key_press": -1, "type": "PRES_VIS", "word": "forest", "wordID": 592, "conditions": [18, 1200, "v", 18000], "trial": 1, "serialpos": 2, "trial_type": "single-stim", "trial_index": 57, "time_elapsed": 399058, "internal_node_id": "0.0-39.0"}}, {"uniqueid": "MTK0761:3FUI0JHJPY5WEOJ6B8Z60RGJ8CP338", "current_trial": 58, "dateTime": 1512712304916, "trialdata": {"rt": -1, "stimulus": "<p id=\"stim\">COUNTY</p>", "key_press": -1, "type": "PRES_VIS", "word": "county", "wordID": 388, "conditions": [18, 1200, "v", 18000], "trial": 1, "serialpos": 3, "trial_type": "single-stim", "trial_index": 58, "time_elapsed": 401239, "internal_node_id": "0.0-40.0"}}, {"uniqueid": "MTK0761:3FUI0JHJPY5WEOJ6B8Z60RGJ8CP338", "current_trial": 59, "dateTime": 1512712306981, "trialdata": {"rt": -1, "stimulus": "<p id=\"stim\">STUDENT</p>", "key_press": -1, "type": "PRES_VIS", "word": "student", "wordID": 1394, "conditions": [18, 1200, "v", 18000], "trial": 1, "serialpos": 4, "trial_type": "single-stim", "trial_index": 59, "time_elapsed": 403304, "internal_node_id": "0.0-41.0"}}, {"uniqueid": "MTK0761:3FUI0JHJPY5WEOJ6B8Z60RGJ8CP338", "current_trial": 60, "dateTime": 1512712309029, "trialdata": {"rt": -1, "stimulus": "<p id=\"stim\">SKIRT</p>", "key_press": -1, "type": "PRES_VIS", "word": "skirt", "wordID": 1318, "conditions": [18, 1200, "v", 18000], "trial": 1, "serialpos": 5, "trial_type": "single-stim", "trial_index": 60, "time_elapsed": 405351, "internal_node_id": "0.0-42.0"}}, {"uniqueid": "MTK0761:3FUI0JHJPY5WEOJ6B8Z60RGJ8CP338", "current_trial": 61, "dateTime": 1512712311093, "trialdata": {"rt": -1, "stimulus": "<p id=\"stim\">JURY</p>", "key_press": -1, "type": "PRES_VIS", "word": "jury", "wordID": 765, "conditions": [18, 1200, "v", 18000], "trial": 1, "serialpos": 6, "trial_type": "single-stim", "trial_index": 61, "time_elapsed": 407415, "internal_node_id": "0.0-43.0"}}, {"uniqueid": "MTK0761:3FUI0JHJPY5WEOJ6B8Z60RGJ8CP338", "current_trial": 62, "dateTime": 1512712313276, "trialdata": {"rt": -1, "stimulus": "<p id=\"stim\">STOMACH</p>", "key_press": -1, "type": "PRES_VIS", "word": "stomach", "wordID": 1383, "conditions": [18, 1200, "v", 18000], "trial": 1, "serialpos": 7, "trial_type": "single-stim", "trial_index": 62, "time_elapsed": 409598, "internal_node_id": "0.0-44.0"}}, {"uniqueid": "MTK0761:3FUI0JHJPY5WEOJ6B8Z60RGJ8CP338", "current_trial": 63, "dateTime": 1512712315511, "trialdata": {"rt": -1, "stimulus": "<p id=\"stim\">WHISKERS</p>", "key_press": -1, "type": "PRES_VIS", "word": "whiskers", "wordID": 1604, "conditions": [18, 1200, "v", 18000], "trial": 1, "serialpos": 8, "trial_type": "single-stim", "trial_index": 63, "time_elapsed": 411833, "internal_node_id": "0.0-45.0"}}, {"uniqueid": "MTK0761:3FUI0JHJPY5WEOJ6B8Z60RGJ8CP338", "current_trial": 64, "dateTime": 1512712317852, "trialdata": {"rt": -1, "stimulus": "<p id=\"stim\">MAILMAN</p>", "key_press": -1, "type": "PRES_VIS", "word": "mailman", "wordID": 857, "conditions": [18, 1200, "v", 18000], "trial": 1, "serialpos": 9, "trial_type": "single-stim", "trial_index": 64, "time_elapsed": 414175, "internal_node_id": "0.0-46.0"}}, {"uniqueid": "MTK0761:3FUI0JHJPY5WEOJ6B8Z60RGJ8CP338", "current_trial": 65, "dateTime": 1512712320232, "trialdata": {"rt": -1, "stimulus": "<p id=\"stim\">BACON</p>", "key_press": -1, "type": "PRES_VIS", "word": "bacon", "wordID": 66, "conditions": [18, 1200, "v", 18000], "trial": 1, "serialpos": 10, "trial_type": "single-stim", "trial_index": 65, "time_elapsed": 416554, "internal_node_id": "0.0-47.0"}}, {"uniqueid": "MTK0761:3FUI0JHJPY5WEOJ6B8Z60RGJ8CP338", "current_trial": 66, "dateTime": 1512712322382, "trialdata": {"rt": -1, "stimulus": "<p id=\"stim\">JUNGLE</p>", "key_press": -1, "type": "PRES_VIS", "word": "jungle", "wordID": 763, "conditions": [18, 1200, "v", 18000], "trial": 1, "serialpos": 11, "trial_type": "single-stim", "trial_index": 66, "time_elapsed": 418705, "internal_node_id": "0.0-48.0"}}, {"uniqueid": "MTK0761:3FUI0JHJPY5WEOJ6B8Z60RGJ8CP338", "current_trial": 67, "dateTime": 1512712324395, "trialdata": {"rt": -1, "stimulus": "<p id=\"stim\">TEMPLE</p>", "key_press": -1, "type": "PRES_VIS", "word": "temple", "wordID": 1447, "conditions": [18, 1200, "v", 18000], "trial": 1, "serialpos": 12, "trial_type": "single-stim", "trial_index": 67, "time_elapsed": 420718, "internal_node_id": "0.0-49.0"}}, {"uniqueid": "MTK0761:3FUI0JHJPY5WEOJ6B8Z60RGJ8CP338", "current_trial": 68, "dateTime": 1512712326428, "trialdata": {"rt": -1, "stimulus": "<p id=\"stim\">SUSPECT</p>", "key_press": -1, "type": "PRES_VIS", "word": "suspect", "wordID": 1414, "conditions": [18, 1200, "v", 18000], "trial": 1, "serialpos": 13, "trial_type": "single-stim", "trial_index": 68, "time_elapsed": 422746, "internal_node_id": "0.0-50.0"}}, {"uniqueid": "MTK0761:3FUI0JHJPY5WEOJ6B8Z60RGJ8CP338", "current_trial": 69, "dateTime": 1512712328792, "trialdata": {"rt": -1, "stimulus": "<p id=\"stim\">SIBLING</p>", "key_press": -1, "type": "PRES_VIS", "word": "sibling", "wordID": 1300, "conditions": [18, 1200, "v", 18000], "trial": 1, "serialpos": 14, "trial_type": "single-stim", "trial_index": 69, "time_elapsed": 425115, "internal_node_id": "0.0-51.0"}}, {"uniqueid": "MTK0761:3FUI0JHJPY5WEOJ6B8Z60RGJ8CP338", "current_trial": 70, "dateTime": 1512712331189, "trialdata": {"rt": -1, "stimulus": "<p id=\"stim\">BOUQUET</p>", "key_press": -1, "type": "PRES_VIS", "word": "bouquet", "wordID": 156, "conditions": [18, 1200, "v", 18000], "trial": 1, "serialpos": 15, "trial_type": "single-stim", "trial_index": 70, "time_elapsed": 427511, "internal_node_id": "0.0-52.0"}}, {"uniqueid": "MTK0761:3FUI0JHJPY5WEOJ6B8Z60RGJ8CP338", "current_trial": 71, "dateTime": 1512712333574, "trialdata": {"rt": -1, "stimulus": "<p id=\"stim\">SCULPTURE</p>", "key_press": -1, "type": "PRES_VIS", "word": "sculpture", "wordID": 1257, "conditions": [18, 1200, "v", 18000], "trial": 1, "serialpos": 16, "trial_type": "single-stim", "trial_index": 71, "time_elapsed": 429897, "internal_node_id": "0.0-53.0"}}, {"uniqueid": "MTK0761:3FUI0JHJPY5WEOJ6B8Z60RGJ8CP338", "current_trial": 72, "dateTime": 1512712335952, "trialdata": {"rt": -1, "stimulus": "<p id=\"stim\">TOURIST</p>", "key_press": -1, "type": "PRES_VIS", "word": "tourist", "wordID": 1487, "conditions": [18, 1200, "v", 18000], "trial": 1, "serialpos": 17, "trial_type": "single-stim", "trial_index": 72, "time_elapsed": 432275, "internal_node_id": "0.0-54.0"}}, {"uniqueid": "MTK0761:3FUI0JHJPY5WEOJ6B8Z60RGJ8CP338", "current_trial": 73, "dateTime": 1512712338412, "trialdata": {"rt": -1, "stimulus": "", "key_press": -1, "type": "PRE_RECALL_DELAY", "trial_type": "single-stim", "trial_index": 73, "time_elapsed": 434735, "internal_node_id": "0.0-55.0-0.0"}}, {"uniqueid": "MTK0761:3FUI0JHJPY5WEOJ6B8Z60RGJ8CP338", "current_trial": 74, "dateTime": 1512712338920, "trialdata": {"rt": -1000, "stimulus": "/static/audio/400Hz.wav", "key_press": -1, "type": "PRE_RECALL_ALERT", "trial_type": "single-audio", "trial_index": 74, "time_elapsed": 435242, "internal_node_id": "0.0-56.0"}}, {"uniqueid": "MTK0761:3FUI0JHJPY5WEOJ6B8Z60RGJ8CP338", "current_trial": 75, "dateTime": 1512712398936, "trialdata": {"rt": [3114, 5240, 6354, 7258, 9250, 15182], "recwords": ["tourist", "sculpture", "forest", "skirt", "student", "truck"], "type": "FREE_RECALL", "conditions": [18, 1200, "v", 18000], "trial": 1, "trial_type": "free-recall", "trial_index": 75, "time_elapsed": 495251, "internal_node_id": "0.0-57.0-0.0"}}, {"uniqueid": "MTK0761:3FUI0JHJPY5WEOJ6B8Z60RGJ8CP338", "current_trial": 76, "dateTime": 1512712404370, "trialdata": {"rt": 3423, "key_press": 32, "type": "INSTRUCTIONS", "trial_type": "text", "trial_index": 76, "time_elapsed": 500686, "internal_node_id": "0.0-58.0"}}, {"uniqueid": "MTK0761:3FUI0JHJPY5WEOJ6B8Z60RGJ8CP338", "current_trial": 77, "dateTime": 1512712429398, "trialdata": {"rt": [3192, 5211, 6721, 8325, 9312, 12710, 15396, 16747, 18431, 19772, 23970], "responses": ["20", "17", "18", "13", "3", "20", "19", "10", "11", "4", "25"], "num1": [8, 7, 8, 6, 1, 8, 8, 1, 1, 1, 8, 9], "num2": [5, 1, 2, 1, 1, 9, 5, 8, 7, 2, 9, 6], "num3": [7, 9, 8, 6, 1, 2, 6, 1, 3, 1, 8, 6], "type": "DISTRACTOR", "conditions": [12, 800, "a", 24000], "trial": 2, "trial_type": "math-distractor", "trial_index": 77, "time_elapsed": 525721, "internal_node_id": "0.0-59.0"}}, {"uniqueid": "MTK0761:3FUI0JHJPY5WEOJ6B8Z60RGJ8CP338", "current_trial": 78, "dateTime": 1512712432414, "trialdata": {"rt": -1, "stimulus": "<p id=\"stim\">10</p>", "key_press": -1, "trial_type": "single-stim", "trial_index": 78, "time_elapsed": 528737, "internal_node_id": "0.0-60.0-0.0"}}, {"uniqueid": "MTK0761:3FUI0JHJPY5WEOJ6B8Z60RGJ8CP338", "current_trial": 79, "dateTime": 1512712433416, "trialdata": {"rt": -1, "stimulus": "<p id=\"stim\">9</p>", "key_press": -1, "trial_type": "single-stim", "trial_index": 79, "time_elapsed": 529738, "internal_node_id": "0.0-60.0-1.0"}}, {"uniqueid": "MTK0761:3FUI0JHJPY5WEOJ6B8Z60RGJ8CP338", "current_trial": 80, "dateTime": 1512712434420, "trialdata": {"rt": -1, "stimulus": "<p id=\"stim\">8</p>", "key_press": -1, "trial_type": "single-stim", "trial_index": 80, "time_elapsed": 530742, "internal_node_id": "0.0-60.0-2.0"}}, {"uniqueid": "MTK0761:3FUI0JHJPY5WEOJ6B8Z60RGJ8CP338", "current_trial": 81, "dateTime": 1512712435423, "trialdata": {"rt": -1, "stimulus": "<p id=\"stim\">7</p>", "key_press": -1, "trial_type": "single-stim", "trial_index": 81, "time_elapsed": 531746, "internal_node_id": "0.0-60.0-3.0"}}, {"uniqueid": "MTK0761:3FUI0JHJPY5WEOJ6B8Z60RGJ8CP338", "current_trial": 82, "dateTime": 1512712436426, "trialdata": {"rt": -1, "stimulus": "<p id=\"stim\">6</p>", "key_press": -1, "trial_type": "single-stim", "trial_index": 82, "time_elapsed": 532749, "internal_node_id": "0.0-60.0-4.0"}}, {"uniqueid": "MTK0761:3FUI0JHJPY5WEOJ6B8Z60RGJ8CP338", "current_trial": 83, "dateTime": 1512712437429, "trialdata": {"rt": -1, "stimulus": "<p id=\"stim\">5</p>", "key_press": -1, "trial_type": "single-stim", "trial_index": 83, "time_elapsed": 533752, "internal_node_id": "0.0-60.0-5.0"}}, {"uniqueid": "MTK0761:3FUI0JHJPY5WEOJ6B8Z60RGJ8CP338", "current_trial": 84, "dateTime": 1512712438433, "trialdata": {"rt": -1, "stimulus": "<p id=\"stim\">4</p>", "key_press": -1, "trial_type": "single-stim", "trial_index": 84, "time_elapsed": 534756, "internal_node_id": "0.0-60.0-6.0"}}, {"uniqueid": "MTK0761:3FUI0JHJPY5WEOJ6B8Z60RGJ8CP338", "current_trial": 85, "dateTime": 1512712439437, "trialdata": {"rt": -1, "stimulus": "<p id=\"stim\">3</p>", "key_press": -1, "trial_type": "single-stim", "trial_index": 85, "time_elapsed": 535759, "internal_node_id": "0.0-60.0-7.0"}}, {"uniqueid": "MTK0761:3FUI0JHJPY5WEOJ6B8Z60RGJ8CP338", "current_trial": 86, "dateTime": 1512712440442, "trialdata": {"rt": -1, "stimulus": "<p id=\"stim\">2</p>", "key_press": -1, "trial_type": "single-stim", "trial_index": 86, "time_elapsed": 536764, "internal_node_id": "0.0-60.0-8.0"}}, {"uniqueid": "MTK0761:3FUI0JHJPY5WEOJ6B8Z60RGJ8CP338", "current_trial": 87, "dateTime": 1512712441445, "trialdata": {"rt": -1, "stimulus": "<p id=\"stim\">1</p>", "key_press": -1, "trial_type": "single-stim", "trial_index": 87, "time_elapsed": 537768, "internal_node_id": "0.0-60.0-9.0"}}, {"uniqueid": "MTK0761:3FUI0JHJPY5WEOJ6B8Z60RGJ8CP338", "current_trial": 88, "dateTime": 1512712442947, "trialdata": {"rt": -1, "stimulus": "<p id=\"stim\">+</p>", "key_press": -1, "type": "FIXATION", "trial_type": "single-stim", "trial_index": 88, "time_elapsed": 539269, "internal_node_id": "0.0-61.0-0.0"}}, {"uniqueid": "MTK0761:3FUI0JHJPY5WEOJ6B8Z60RGJ8CP338", "current_trial": 89, "dateTime": 1512712444840, "trialdata": {"rt": -1000, "stimulus": "/static/audio/wordpool/ARMY.wav", "key_press": -1, "type": "PRES_AUD", "word": "army", "wordID": 38, "conditions": [12, 800, "a", 24000], "trial": 2, "serialpos": 0, "trial_type": "single-audio", "trial_index": 89, "time_elapsed": 541163, "internal_node_id": "0.0-62.0"}}, {"uniqueid": "MTK0761:3FUI0JHJPY5WEOJ6B8Z60RGJ8CP338", "current_trial": 90, "dateTime": 1512712446756, "trialdata": {"rt": -1000, "stimulus": "/static/audio/wordpool/EUROPE.wav", "key_press": -1, "type": "PRES_AUD", "word": "europe", "wordID": 540, "conditions": [12, 800, "a", 24000], "trial": 2, "serialpos": 1, "trial_type": "single-audio", "trial_index": 90, "time_elapsed": 543079, "internal_node_id": "0.0-63.0"}}, {"uniqueid": "MTK0761:3FUI0JHJPY5WEOJ6B8Z60RGJ8CP338", "current_trial": 91, "dateTime": 1512712448565, "trialdata": {"rt": -1000, "stimulus": "/static/audio/wordpool/RUG.wav", "key_press": -1, "type": "PRES_AUD", "word": "rug", "wordID": 1214, "conditions": [12, 800, "a", 24000], "trial": 2, "serialpos": 2, "trial_type": "single-audio", "trial_index": 91, "time_elapsed": 544887, "internal_node_id": "0.0-64.0"}}, {"uniqueid": "MTK0761:3FUI0JHJPY5WEOJ6B8Z60RGJ8CP338", "current_trial": 92, "dateTime": 1512712450551, "trialdata": {"rt": -1000, "stimulus": "/static/audio/wordpool/SIDEWALK.wav", "key_press": -1, "type": "PRES_AUD", "word": "sidewalk", "wordID": 1302, "conditions": [12, 800, "a", 24000], "trial": 2, "serialpos": 3, "trial_type": "single-audio", "trial_index": 92, "time_elapsed": 546873, "internal_node_id": "0.0-65.0"}}, {"uniqueid": "MTK0761:3FUI0JHJPY5WEOJ6B8Z60RGJ8CP338", "current_trial": 93, "dateTime": 1512712452437, "trialdata": {"rt": -1000, "stimulus": "/static/audio/wordpool/RAZOR.wav", "key_press": -1, "type": "PRES_AUD", "word": "razor", "wordID": 1170, "conditions": [12, 800, "a", 24000], "trial": 2, "serialpos": 4, "trial_type": "single-audio", "trial_index": 93, "time_elapsed": 548759, "internal_node_id": "0.0-66.0"}}, {"uniqueid": "MTK0761:3FUI0JHJPY5WEOJ6B8Z60RGJ8CP338", "current_trial": 94, "dateTime": 1512712454179, "trialdata": {"rt": -1000, "stimulus": "/static/audio/wordpool/SHOULDER.wav", "key_press": -1, "type": "PRES_AUD", "word": "shoulder", "wordID": 1293, "conditions": [12, 800, "a", 24000], "trial": 2, "serialpos": 5, "trial_type": "single-audio", "trial_index": 94, "time_elapsed": 550501, "internal_node_id": "0.0-67.0"}}, {"uniqueid": "MTK0761:3FUI0JHJPY5WEOJ6B8Z60RGJ8CP338", "current_trial": 95, "dateTime": 1512712455940, "trialdata": {"rt": -1000, "stimulus": "/static/audio/wordpool/COWBOY.wav", "key_press": -1, "type": "PRES_AUD", "word": "cowboy", "wordID": 394, "conditions": [12, 800, "a", 24000], "trial": 2, "serialpos": 6, "trial_type": "single-audio", "trial_index": 95, "time_elapsed": 552263, "internal_node_id": "0.0-68.0"}}, {"uniqueid": "MTK0761:3FUI0JHJPY5WEOJ6B8Z60RGJ8CP338", "current_trial": 96, "dateTime": 1512712457831, "trialdata": {"rt": -1000, "stimulus": "/static/audio/wordpool/MATTRESS.wav", "key_press": -1, "type": "PRES_AUD", "word": "mattress", "wordID": 878, "conditions": [12, 800, "a", 24000], "trial": 2, "serialpos": 7, "trial_type": "single-audio", "trial_index": 96, "time_elapsed": 554154, "internal_node_id": "0.0-69.0"}}, {"uniqueid": "MTK0761:3FUI0JHJPY5WEOJ6B8Z60RGJ8CP338", "current_trial": 97, "dateTime": 1512712459807, "trialdata": {"rt": -1000, "stimulus": "/static/audio/wordpool/ELBOW.wav", "key_press": -1, "type": "PRES_AUD", "word": "elbow", "wordID": 519, "conditions": [12, 800, "a", 24000], "trial": 2, "serialpos": 8, "trial_type": "single-audio", "trial_index": 97, "time_elapsed": 556130, "internal_node_id": "0.0-70.0"}}, {"uniqueid": "MTK0761:3FUI0JHJPY5WEOJ6B8Z60RGJ8CP338", "current_trial": 98, "dateTime": 1512712461725, "trialdata": {"rt": -1000, "stimulus": "/static/audio/wordpool/PLIERS.wav", "key_press": -1, "type": "PRES_AUD", "word": "pliers", "wordID": 1088, "conditions": [12, 800, "a", 24000], "trial": 2, "serialpos": 9, "trial_type": "single-audio", "trial_index": 98, "time_elapsed": 558047, "internal_node_id": "0.0-71.0"}}, {"uniqueid": "MTK0761:3FUI0JHJPY5WEOJ6B8Z60RGJ8CP338", "current_trial": 99, "dateTime": 1512712463647, "trialdata": {"rt": -1000, "stimulus": "/static/audio/wordpool/TWEEZERS.wav", "key_press": -1, "type": "PRES_AUD", "word": "tweezers", "wordID": 1525, "conditions": [12, 800, "a", 24000], "trial": 2, "serialpos": 10, "trial_type": "single-audio", "trial_index": 99, "time_elapsed": 559969, "internal_node_id": "0.0-72.0"}}, {"uniqueid": "MTK0761:3FUI0JHJPY5WEOJ6B8Z60RGJ8CP338", "current_trial": 100, "dateTime": 1512712465438, "trialdata": {"rt": -1000, "stimulus": "/static/audio/wordpool/CYCLONE.wav", "key_press": -1, "type": "PRES_AUD", "word": "cyclone", "wordID": 430, "conditions": [12, 800, "a", 24000], "trial": 2, "serialpos": 11, "trial_type": "single-audio", "trial_index": 100, "time_elapsed": 561761, "internal_node_id": "0.0-73.0"}}, {"uniqueid": "MTK0761:3FUI0JHJPY5WEOJ6B8Z60RGJ8CP338", "current_trial": 101, "dateTime": 1512712466799, "trialdata": {"rt": -1, "stimulus": "", "key_press": -1, "type": "PRE_RECALL_DELAY", "trial_type": "single-stim", "trial_index": 101, "time_elapsed": 563122, "internal_node_id": "0.0-74.0-0.0"}}, {"uniqueid": "MTK0761:3FUI0JHJPY5WEOJ6B8Z60RGJ8CP338", "current_trial": 102, "dateTime": 1512712467305, "trialdata": {"rt": -1000, "stimulus": "/static/audio/400Hz.wav", "key_press": -1, "type": "PRE_RECALL_ALERT", "trial_type": "single-audio", "trial_index": 102, "time_elapsed": 563628, "internal_node_id": "0.0-75.0"}}, {"uniqueid": "MTK0761:3FUI0JHJPY5WEOJ6B8Z60RGJ8CP338", "current_trial": 103, "dateTime": 1512712527313, "trialdata": {"rt": [6069, 10811, 12607, 22823, 26167, 34951], "recwords": ["cyclone", "razor", "cowboy", "mattress", "rug", "tweezers"], "type": "FREE_RECALL", "conditions": [12, 800, "a", 24000], "trial": 2, "trial_type": "free-recall", "trial_index": 103, "time_elapsed": 623633, "internal_node_id": "0.0-76.0-0.0"}}, {"uniqueid": "MTK0761:3FUI0JHJPY5WEOJ6B8Z60RGJ8CP338", "current_trial": 104, "dateTime": 1512712531764, "trialdata": {"rt": 2447, "key_press": 32, "type": "INSTRUCTIONS", "trial_type": "text", "trial_index": 104, "time_elapsed": 628086, "internal_node_id": "0.0-77.0"}}, {"uniqueid": "MTK0761:3FUI0JHJPY5WEOJ6B8Z60RGJ8CP338", "current_trial": 105, "dateTime": 1512712557769, "trialdata": {"rt": [2314, 3770, 8384, 9913, 14892, 16926, 18936, 21443, 23887], "responses": ["14", "12", "25", "15", "17", "9", "17", "14", "14"], "num1": [8, 3, 9, 1, 2, 4, 7, 5, 1, 5], "num2": [3, 7, 7, 9, 6, 1, 8, 7, 4, 5], "num3": [3, 2, 9, 5, 9, 4, 2, 2, 9, 4], "type": "DISTRACTOR", "conditions": [12, 800, "v", 24000], "trial": 3, "trial_type": "math-distractor", "trial_index": 105, "time_elapsed": 654092, "internal_node_id": "0.0-78.0"}}, {"uniqueid": "MTK0761:3FUI0JHJPY5WEOJ6B8Z60RGJ8CP338", "current_trial": 106, "dateTime": 1512712560774, "trialdata": {"rt": -1, "stimulus": "<p id=\"stim\">10</p>", "key_press": -1, "trial_type": "single-stim", "trial_index": 106, "time_elapsed": 657097, "internal_node_id": "0.0-79.0-0.0"}}, {"uniqueid": "MTK0761:3FUI0JHJPY5WEOJ6B8Z60RGJ8CP338", "current_trial": 107, "dateTime": 1512712561780, "trialdata": {"rt": -1, "stimulus": "<p id=\"stim\">9</p>", "key_press": -1, "trial_type": "single-stim", "trial_index": 107, "time_elapsed": 658103, "internal_node_id": "0.0-79.0-1.0"}}, {"uniqueid": "MTK0761:3FUI0JHJPY5WEOJ6B8Z60RGJ8CP338", "current_trial": 108, "dateTime": 1512712562786, "trialdata": {"rt": -1, "stimulus": "<p id=\"stim\">8</p>", "key_press": -1, "trial_type": "single-stim", "trial_index": 108, "time_elapsed": 659108, "internal_node_id": "0.0-79.0-2.0"}}, {"uniqueid": "MTK0761:3FUI0JHJPY5WEOJ6B8Z60RGJ8CP338", "current_trial": 109, "dateTime": 1512712563792, "trialdata": {"rt": -1, "stimulus": "<p id=\"stim\">7</p>", "key_press": -1, "trial_type": "single-stim", "trial_index": 109, "time_elapsed": 660115, "internal_node_id": "0.0-79.0-3.0"}}, {"uniqueid": "MTK0761:3FUI0JHJPY5WEOJ6B8Z60RGJ8CP338", "current_trial": 110, "dateTime": 1512712564797, "trialdata": {"rt": -1, "stimulus": "<p id=\"stim\">6</p>", "key_press": -1, "trial_type": "single-stim", "trial_index": 110, "time_elapsed": 661119, "internal_node_id": "0.0-79.0-4.0"}}, {"uniqueid": "MTK0761:3FUI0JHJPY5WEOJ6B8Z60RGJ8CP338", "current_trial": 111, "dateTime": 1512712565801, "trialdata": {"rt": -1, "stimulus": "<p id=\"stim\">5</p>", "key_press": -1, "trial_type": "single-stim", "trial_index": 111, "time_elapsed": 662124, "internal_node_id": "0.0-79.0-5.0"}}, {"uniqueid": "MTK0761:3FUI0JHJPY5WEOJ6B8Z60RGJ8CP338", "current_trial": 112, "dateTime": 1512712566803, "trialdata": {"rt": -1, "stimulus": "<p id=\"stim\">4</p>", "key_press": -1, "trial_type": "single-stim", "trial_index": 112, "time_elapsed": 663126, "internal_node_id": "0.0-79.0-6.0"}}, {"uniqueid": "MTK0761:3FUI0JHJPY5WEOJ6B8Z60RGJ8CP338", "current_trial": 113, "dateTime": 1512712567806, "trialdata": {"rt": -1, "stimulus": "<p id=\"stim\">3</p>", "key_press": -1, "trial_type": "single-stim", "trial_index": 113, "time_elapsed": 664129, "internal_node_id": "0.0-79.0-7.0"}}, {"uniqueid": "MTK0761:3FUI0JHJPY5WEOJ6B8Z60RGJ8CP338", "current_trial": 114, "dateTime": 1512712568808, "trialdata": {"rt": -1, "stimulus": "<p id=\"stim\">2</p>", "key_press": -1, "trial_type": "single-stim", "trial_index": 114, "time_elapsed": 665131, "internal_node_id": "0.0-79.0-8.0"}}, {"uniqueid": "MTK0761:3FUI0JHJPY5WEOJ6B8Z60RGJ8CP338", "current_trial": 115, "dateTime": 1512712569811, "trialdata": {"rt": -1, "stimulus": "<p id=\"stim\">1</p>", "key_press": -1, "trial_type": "single-stim", "trial_index": 115, "time_elapsed": 666134, "internal_node_id": "0.0-79.0-9.0"}}, {"uniqueid": "MTK0761:3FUI0JHJPY5WEOJ6B8Z60RGJ8CP338", "current_trial": 116, "dateTime": 1512712571312, "trialdata": {"rt": -1, "stimulus": "<p id=\"stim\">+</p>", "key_press": -1, "type": "FIXATION", "trial_type": "single-stim", "trial_index": 116, "time_elapsed": 667635, "internal_node_id": "0.0-80.0-0.0"}}, {"uniqueid": "MTK0761:3FUI0JHJPY5WEOJ6B8Z60RGJ8CP338", "current_trial": 117, "dateTime": 1512712572114, "trialdata": {"rt": -1, "stimulus": "<p id=\"stim\">GARDEN</p>", "key_press": -1, "type": "PRES_VIS", "word": "garden", "wordID": 622, "conditions": [12, 800, "v", 24000], "trial": 3, "serialpos": 0, "trial_type": "single-stim", "trial_index": 117, "time_elapsed": 668437, "internal_node_id": "0.0-81.0"}}, {"uniqueid": "MTK0761:3FUI0JHJPY5WEOJ6B8Z60RGJ8CP338", "current_trial": 118, "dateTime": 1512712573778, "trialdata": {"rt": -1, "stimulus": "<p id=\"stim\">HAWK</p>", "key_press": -1, "type": "PRES_VIS", "word": "hawk", "wordID": 691, "conditions": [12, 800, "v", 24000], "trial": 3, "serialpos": 1, "trial_type": "single-stim", "trial_index": 118, "time_elapsed": 670101, "internal_node_id": "0.0-82.0"}}, {"uniqueid": "MTK0761:3FUI0JHJPY5WEOJ6B8Z60RGJ8CP338", "current_trial": 119, "dateTime": 1512712575448, "trialdata": {"rt": -1, "stimulus": "<p id=\"stim\">BURGLAR</p>", "key_press": -1, "type": "PRES_VIS", "word": "burglar", "wordID": 199, "conditions": [12, 800, "v", 24000], "trial": 3, "serialpos": 2, "trial_type": "single-stim", "trial_index": 119, "time_elapsed": 671771, "internal_node_id": "0.0-83.0"}}, {"uniqueid": "MTK0761:3FUI0JHJPY5WEOJ6B8Z60RGJ8CP338", "current_trial": 120, "dateTime": 1512712577394, "trialdata": {"rt": -1, "stimulus": "<p id=\"stim\">BADGE</p>", "key_press": -1, "type": "PRES_VIS", "word": "badge", "wordID": 67, "conditions": [12, 800, "v", 24000], "trial": 3, "serialpos": 3, "trial_type": "single-stim", "trial_index": 120, "time_elapsed": 673716, "internal_node_id": "0.0-84.0"}}, {"uniqueid": "MTK0761:3FUI0JHJPY5WEOJ6B8Z60RGJ8CP338", "current_trial": 121, "dateTime": 1512712579327, "trialdata": {"rt": -1, "stimulus": "<p id=\"stim\">SODA</p>", "key_press": -1, "type": "PRES_VIS", "word": "soda", "wordID": 1340, "conditions": [12, 800, "v", 24000], "trial": 3, "serialpos": 4, "trial_type": "single-stim", "trial_index": 121, "time_elapsed": 675649, "internal_node_id": "0.0-85.0"}}, {"uniqueid": "MTK0761:3FUI0JHJPY5WEOJ6B8Z60RGJ8CP338", "current_trial": 122, "dateTime": 1512712581045, "trialdata": {"rt": -1, "stimulus": "<p id=\"stim\">PAPER</p>", "key_press": -1, "type": "PRES_VIS", "word": "paper", "wordID": 1010, "conditions": [12, 800, "v", 24000], "trial": 3, "serialpos": 5, "trial_type": "single-stim", "trial_index": 122, "time_elapsed": 677368, "internal_node_id": "0.0-86.0"}}, {"uniqueid": "MTK0761:3FUI0JHJPY5WEOJ6B8Z60RGJ8CP338", "current_trial": 123, "dateTime": 1512712582966, "trialdata": {"rt": -1, "stimulus": "<p id=\"stim\">DANCER</p>", "key_press": -1, "type": "PRES_VIS", "word": "dancer", "wordID": 436, "conditions": [12, 800, "v", 24000], "trial": 3, "serialpos": 6, "trial_type": "single-stim", "trial_index": 123, "time_elapsed": 679288, "internal_node_id": "0.0-87.0"}}, {"uniqueid": "MTK0761:3FUI0JHJPY5WEOJ6B8Z60RGJ8CP338", "current_trial": 124, "dateTime": 1512712584964, "trialdata": {"rt": -1, "stimulus": "<p id=\"stim\">SEAGULL</p>", "key_press": -1, "type": "PRES_VIS", "word": "seagull", "wordID": 1260, "conditions": [12, 800, "v", 24000], "trial": 3, "serialpos": 7, "trial_type": "single-stim", "trial_index": 124, "time_elapsed": 681286, "internal_node_id": "0.0-88.0"}}, {"uniqueid": "MTK0761:3FUI0JHJPY5WEOJ6B8Z60RGJ8CP338", "current_trial": 125, "dateTime": 1512712586625, "trialdata": {"rt": -1, "stimulus": "<p id=\"stim\">BREAST</p>", "key_press": -1, "type": "PRES_VIS", "word": "breast", "wordID": 170, "conditions": [12, 800, "v", 24000], "trial": 3, "serialpos": 8, "trial_type": "single-stim", "trial_index": 125, "time_elapsed": 682948, "internal_node_id": "0.0-89.0"}}, {"uniqueid": "MTK0761:3FUI0JHJPY5WEOJ6B8Z60RGJ8CP338", "current_trial": 126, "dateTime": 1512712588603, "trialdata": {"rt": -1, "stimulus": "<p id=\"stim\">RIVER</p>", "key_press": -1, "type": "PRES_VIS", "word": "river", "wordID": 1193, "conditions": [12, 800, "v", 24000], "trial": 3, "serialpos": 9, "trial_type": "single-stim", "trial_index": 126, "time_elapsed": 684926, "internal_node_id": "0.0-90.0"}}, {"uniqueid": "MTK0761:3FUI0JHJPY5WEOJ6B8Z60RGJ8CP338", "current_trial": 127, "dateTime": 1512712590325, "trialdata": {"rt": -1, "stimulus": "<p id=\"stim\">BROOK</p>", "key_press": -1, "type": "PRES_VIS", "word": "brook", "wordID": 176, "conditions": [12, 800, "v", 24000], "trial": 3, "serialpos": 10, "trial_type": "single-stim", "trial_index": 127, "time_elapsed": 686647, "internal_node_id": "0.0-91.0"}}, {"uniqueid": "MTK0761:3FUI0JHJPY5WEOJ6B8Z60RGJ8CP338", "current_trial": 128, "dateTime": 1512712592266, "trialdata": {"rt": -1, "stimulus": "<p id=\"stim\">COFFEE</p>", "key_press": -1, "type": "PRES_VIS", "word": "coffee", "wordID": 340, "conditions": [12, 800, "v", 24000], "trial": 3, "serialpos": 11, "trial_type": "single-stim", "trial_index": 128, "time_elapsed": 688589, "internal_node_id": "0.0-92.0"}}, {"uniqueid": "MTK0761:3FUI0JHJPY5WEOJ6B8Z60RGJ8CP338", "current_trial": 129, "dateTime": 1512712594668, "trialdata": {"rt": -1, "stimulus": "", "key_press": -1, "type": "PRE_RECALL_DELAY", "trial_type": "single-stim", "trial_index": 129, "time_elapsed": 690990, "internal_node_id": "0.0-93.0-0.0"}}, {"uniqueid": "MTK0761:3FUI0JHJPY5WEOJ6B8Z60RGJ8CP338", "current_trial": 130, "dateTime": 1512712595176, "trialdata": {"rt": -1000, "stimulus": "/static/audio/400Hz.wav", "key_press": -1, "type": "PRE_RECALL_ALERT", "trial_type": "single-audio", "trial_index": 130, "time_elapsed": 691499, "internal_node_id": "0.0-94.0"}}, {"uniqueid": "MTK0761:3FUI0JHJPY5WEOJ6B8Z60RGJ8CP338", "current_trial": 131, "dateTime": 1512712655238, "trialdata": {"rt": [6277, 9330, 12370, 15352, 17444, 22643], "recwords": ["river", "hawk", "breast", "dancer", "paper", "soda"], "type": "FREE_RECALL", "conditions": [12, 800, "v", 24000], "trial": 3, "trial_type": "free-recall", "trial_index": 131, "time_elapsed": 751511, "internal_node_id": "0.0-95.0-0.0"}}, {"uniqueid": "MTK0761:3FUI0JHJPY5WEOJ6B8Z60RGJ8CP338", "current_trial": 132, "dateTime": 1512712660193, "trialdata": {"rt": 2951, "key_press": 13, "type": "INSTRUCTIONS", "trial_type": "text", "trial_index": 132, "time_elapsed": 756515, "internal_node_id": "0.0-96.0"}}, {"uniqueid": "MTK0761:3FUI0JHJPY5WEOJ6B8Z60RGJ8CP338", "current_trial": 133, "dateTime": 1512712674201, "trialdata": {"rt": [3578, 5469, 7433, 9406, 10369], "responses": ["21", "16", "17", "13", "3"], "num1": [9, 6, 5, 9, 1, 8], "num2": [4, 1, 6, 2, 1, 4], "num3": [8, 9, 6, 2, 1, 9], "type": "DISTRACTOR", "conditions": [24, 1600, "a", 12000], "trial": 4, "trial_type": "math-distractor", "trial_index": 133, "time_elapsed": 770524, "internal_node_id": "0.0-97.0"}}, {"uniqueid": "MTK0761:3FUI0JHJPY5WEOJ6B8Z60RGJ8CP338", "current_trial": 134, "dateTime": 1512712677206, "trialdata": {"rt": -1, "stimulus": "<p id=\"stim\">10</p>", "key_press": -1, "trial_type": "single-stim", "trial_index": 134, "time_elapsed": 773529, "internal_node_id": "0.0-98.0-0.0"}}, {"uniqueid": "MTK0761:3FUI0JHJPY5WEOJ6B8Z60RGJ8CP338", "current_trial": 135, "dateTime": 1512712678209, "trialdata": {"rt": -1, "stimulus": "<p id=\"stim\">9</p>", "key_press": -1, "trial_type": "single-stim", "trial_index": 135, "time_elapsed": 774532, "internal_node_id": "0.0-98.0-1.0"}}, {"uniqueid": "MTK0761:3FUI0JHJPY5WEOJ6B8Z60RGJ8CP338", "current_trial": 136, "dateTime": 1512712679213, "trialdata": {"rt": -1, "stimulus": "<p id=\"stim\">8</p>", "key_press": -1, "trial_type": "single-stim", "trial_index": 136, "time_elapsed": 775535, "internal_node_id": "0.0-98.0-2.0"}}, {"uniqueid": "MTK0761:3FUI0JHJPY5WEOJ6B8Z60RGJ8CP338", "current_trial": 137, "dateTime": 1512712680216, "trialdata": {"rt": -1, "stimulus": "<p id=\"stim\">7</p>", "key_press": -1, "trial_type": "single-stim", "trial_index": 137, "time_elapsed": 776539, "internal_node_id": "0.0-98.0-3.0"}}, {"uniqueid": "MTK0761:3FUI0JHJPY5WEOJ6B8Z60RGJ8CP338", "current_trial": 138, "dateTime": 1512712681220, "trialdata": {"rt": -1, "stimulus": "<p id=\"stim\">6</p>", "key_press": -1, "trial_type": "single-stim", "trial_index": 138, "time_elapsed": 777543, "internal_node_id": "0.0-98.0-4.0"}}, {"uniqueid": "MTK0761:3FUI0JHJPY5WEOJ6B8Z60RGJ8CP338", "current_trial": 139, "dateTime": 1512712682224, "trialdata": {"rt": -1, "stimulus": "<p id=\"stim\">5</p>", "key_press": -1, "trial_type": "single-stim", "trial_index": 139, "time_elapsed": 778546, "internal_node_id": "0.0-98.0-5.0"}}, {"uniqueid": "MTK0761:3FUI0JHJPY5WEOJ6B8Z60RGJ8CP338", "current_trial": 140, "dateTime": 1512712683231, "trialdata": {"rt": -1, "stimulus": "<p id=\"stim\">4</p>", "key_press": -1, "trial_type": "single-stim", "trial_index": 140, "time_elapsed": 779553, "internal_node_id": "0.0-98.0-6.0"}}, {"uniqueid": "MTK0761:3FUI0JHJPY5WEOJ6B8Z60RGJ8CP338", "current_trial": 141, "dateTime": 1512712684233, "trialdata": {"rt": -1, "stimulus": "<p id=\"stim\">3</p>", "key_press": -1, "trial_type": "single-stim", "trial_index": 141, "time_elapsed": 780556, "internal_node_id": "0.0-98.0-7.0"}}, {"uniqueid": "MTK0761:3FUI0JHJPY5WEOJ6B8Z60RGJ8CP338", "current_trial": 142, "dateTime": 1512712685238, "trialdata": {"rt": -1, "stimulus": "<p id=\"stim\">2</p>", "key_press": -1, "trial_type": "single-stim", "trial_index": 142, "time_elapsed": 781561, "internal_node_id": "0.0-98.0-8.0"}}, {"uniqueid": "MTK0761:3FUI0JHJPY5WEOJ6B8Z60RGJ8CP338", "current_trial": 143, "dateTime": 1512712686241, "trialdata": {"rt": -1, "stimulus": "<p id=\"stim\">1</p>", "key_press": -1, "trial_type": "single-stim", "trial_index": 143, "time_elapsed": 782564, "internal_node_id": "0.0-98.0-9.0"}}, {"uniqueid": "MTK0761:3FUI0JHJPY5WEOJ6B8Z60RGJ8CP338", "current_trial": 144, "dateTime": 1512712687746, "trialdata": {"rt": -1, "stimulus": "<p id=\"stim\">+</p>", "key_press": -1, "type": "FIXATION", "trial_type": "single-stim", "trial_index": 144, "time_elapsed": 784068, "internal_node_id": "0.0-99.0-0.0"}}, {"uniqueid": "MTK0761:3FUI0JHJPY5WEOJ6B8Z60RGJ8CP338", "current_trial": 145, "dateTime": 1512712690388, "trialdata": {"rt": -1000, "stimulus": "/static/audio/wordpool/PRIMATE.wav", "key_press": -1, "type": "PRES_AUD", "word": "primate", "wordID": 1122, "conditions": [24, 1600, "a", 12000], "trial": 4, "serialpos": 0, "trial_type": "single-audio", "trial_index": 145, "time_elapsed": 786710, "internal_node_id": "0.0-100.0"}}, {"uniqueid": "MTK0761:3FUI0JHJPY5WEOJ6B8Z60RGJ8CP338", "current_trial": 146, "dateTime": 1512712692875, "trialdata": {"rt": -1000, "stimulus": "/static/audio/wordpool/AIRPLANE.wav", "key_press": -1, "type": "PRES_AUD", "word": "airplane", "wordID": 11, "conditions": [24, 1600, "a", 12000], "trial": 4, "serialpos": 1, "trial_type": "single-audio", "trial_index": 146, "time_elapsed": 789198, "internal_node_id": "0.0-101.0"}}, {"uniqueid": "MTK0761:3FUI0JHJPY5WEOJ6B8Z60RGJ8CP338", "current_trial": 147, "dateTime": 1512712695455, "trialdata": {"rt": -1000, "stimulus": "/static/audio/wordpool/COLLEGE.wav", "key_press": -1, "type": "PRES_AUD", "word": "college", "wordID": 345, "conditions": [24, 1600, "a", 12000], "trial": 4, "serialpos": 2, "trial_type": "single-audio", "trial_index": 147, "time_elapsed": 791778, "internal_node_id": "0.0-102.0"}}, {"uniqueid": "MTK0761:3FUI0JHJPY5WEOJ6B8Z60RGJ8CP338", "current_trial": 148, "dateTime": 1512712697936, "trialdata": {"rt": -1000, "stimulus": "/static/audio/wordpool/LAVA.wav", "key_press": -1, "type": "PRES_AUD", "word": "lava", "wordID": 803, "conditions": [24, 1600, "a", 12000], "trial": 4, "serialpos": 3, "trial_type": "single-audio", "trial_index": 148, "time_elapsed": 794258, "internal_node_id": "0.0-103.0"}}, {"uniqueid": "MTK0761:3FUI0JHJPY5WEOJ6B8Z60RGJ8CP338", "current_trial": 149, "dateTime": 1512712700530, "trialdata": {"rt": -1000, "stimulus": "/static/audio/wordpool/PEACH.wav", "key_press": -1, "type": "PRES_AUD", "word": "peach", "wordID": 1030, "conditions": [24, 1600, "a", 12000], "trial": 4, "serialpos": 4, "trial_type": "single-audio", "trial_index": 149, "time_elapsed": 796853, "internal_node_id": "0.0-104.0"}}, {"uniqueid": "MTK0761:3FUI0JHJPY5WEOJ6B8Z60RGJ8CP338", "current_trial": 150, "dateTime": 1512712703036, "trialdata": {"rt": -1000, "stimulus": "/static/audio/wordpool/TORTOISE.wav", "key_press": -1, "type": "PRES_AUD", "word": "tortoise", "wordID": 1485, "conditions": [24, 1600, "a", 12000], "trial": 4, "serialpos": 5, "trial_type": "single-audio", "trial_index": 150, "time_elapsed": 799359, "internal_node_id": "0.0-105.0"}}, {"uniqueid": "MTK0761:3FUI0JHJPY5WEOJ6B8Z60RGJ8CP338", "current_trial": 151, "dateTime": 1512712705699, "trialdata": {"rt": -1000, "stimulus": "/static/audio/wordpool/LIZARD.wav", "key_press": -1, "type": "PRES_AUD", "word": "lizard", "wordID": 833, "conditions": [24, 1600, "a", 12000], "trial": 4, "serialpos": 6, "trial_type": "single-audio", "trial_index": 151, "time_elapsed": 802022, "internal_node_id": "0.0-106.0"}}, {"uniqueid": "MTK0761:3FUI0JHJPY5WEOJ6B8Z60RGJ8CP338", "current_trial": 152, "dateTime": 1512712708402, "trialdata": {"rt": -1000, "stimulus": "/static/audio/wordpool/CRATER.wav", "key_press": -1, "type": "PRES_AUD", "word": "crater", "wordID": 399, "conditions": [24, 1600, "a", 12000], "trial": 4, "serialpos": 7, "trial_type": "single-audio", "trial_index": 152, "time_elapsed": 804724, "internal_node_id": "0.0-107.0"}}, {"uniqueid": "MTK0761:3FUI0JHJPY5WEOJ6B8Z60RGJ8CP338", "current_trial": 153, "dateTime": 1512712711137, "trialdata": {"rt": -1000, "stimulus": "/static/audio/wordpool/PIMPLE.wav", "key_press": -1, "type": "PRES_AUD", "word": "pimple", "wordID": 1070, "conditions": [24, 1600, "a", 12000], "trial": 4, "serialpos": 8, "trial_type": "single-audio", "trial_index": 153, "time_elapsed": 807460, "internal_node_id": "0.0-108.0"}}, {"uniqueid": "MTK0761:3FUI0JHJPY5WEOJ6B8Z60RGJ8CP338", "current_trial": 154, "dateTime": 1512712713618, "trialdata": {"rt": -1000, "stimulus": "/static/audio/wordpool/CASHEW.wav", "key_press": -1, "type": "PRES_AUD", "word": "cashew", "wordID": 252, "conditions": [24, 1600, "a", 12000], "trial": 4, "serialpos": 9, "trial_type": "single-audio", "trial_index": 154, "time_elapsed": 809940, "internal_node_id": "0.0-109.0"}}, {"uniqueid": "MTK0761:3FUI0JHJPY5WEOJ6B8Z60RGJ8CP338", "current_trial": 155, "dateTime": 1512712716405, "trialdata": {"rt": -1000, "stimulus": "/static/audio/wordpool/WAGON.wav", "key_press": -1, "type": "PRES_AUD", "word": "wagon", "wordID": 1577, "conditions": [24, 1600, "a", 12000], "trial": 4, "serialpos": 10, "trial_type": "single-audio", "trial_index": 155, "time_elapsed": 812728, "internal_node_id": "0.0-110.0"}}, {"uniqueid": "MTK0761:3FUI0JHJPY5WEOJ6B8Z60RGJ8CP338", "current_trial": 156, "dateTime": 1512712719010, "trialdata": {"rt": -1000, "stimulus": "/static/audio/wordpool/PICNIC.wav", "key_press": -1, "type": "PRES_AUD", "word": "picnic", "wordID": 1059, "conditions": [24, 1600, "a", 12000], "trial": 4, "serialpos": 11, "trial_type": "single-audio", "trial_index": 156, "time_elapsed": 815333, "internal_node_id": "0.0-111.0"}}, {"uniqueid": "MTK0761:3FUI0JHJPY5WEOJ6B8Z60RGJ8CP338", "current_trial": 157, "dateTime": 1512712721777, "trialdata": {"rt": -1000, "stimulus": "/static/audio/wordpool/LEOPARD.wav", "key_press": -1, "type": "PRES_AUD", "word": "leopard", "wordID": 811, "conditions": [24, 1600, "a", 12000], "trial": 4, "serialpos": 12, "trial_type": "single-audio", "trial_index": 157, "time_elapsed": 818100, "internal_node_id": "0.0-112.0"}}, {"uniqueid": "MTK0761:3FUI0JHJPY5WEOJ6B8Z60RGJ8CP338", "current_trial": 158, "dateTime": 1512712724517, "trialdata": {"rt": -1000, "stimulus": "/static/audio/wordpool/RADISH.wav", "key_press": -1, "type": "PRES_AUD", "word": "radish", "wordID": 1157, "conditions": [24, 1600, "a", 12000], "trial": 4, "serialpos": 13, "trial_type": "single-audio", "trial_index": 158, "time_elapsed": 820840, "internal_node_id": "0.0-113.0"}}, {"uniqueid": "MTK0761:3FUI0JHJPY5WEOJ6B8Z60RGJ8CP338", "current_trial": 159, "dateTime": 1512712727051, "trialdata": {"rt": -1000, "stimulus": "/static/audio/wordpool/APRON.wav", "key_press": -1, "type": "PRES_AUD", "word": "apron", "wordID": 34, "conditions": [24, 1600, "a", 12000], "trial": 4, "serialpos": 14, "trial_type": "single-audio", "trial_index": 159, "time_elapsed": 823374, "internal_node_id": "0.0-114.0"}}, {"uniqueid": "MTK0761:3FUI0JHJPY5WEOJ6B8Z60RGJ8CP338", "current_trial": 160, "dateTime": 1512712729483, "trialdata": {"rt": -1000, "stimulus": "/static/audio/wordpool/HEART.wav", "key_press": -1, "type": "PRES_AUD", "word": "heart", "wordID": 696, "conditions": [24, 1600, "a", 12000], "trial": 4, "serialpos": 15, "trial_type": "single-audio", "trial_index": 160, "time_elapsed": 825806, "internal_node_id": "0.0-115.0"}}, {"uniqueid": "MTK0761:3FUI0JHJPY5WEOJ6B8Z60RGJ8CP338", "current_trial": 161, "dateTime": 1512712732244, "trialdata": {"rt": -1000, "stimulus": "/static/audio/wordpool/HIKER.wav", "key_press": -1, "type": "PRES_AUD", "word": "hiker", "wordID": 707, "conditions": [24, 1600, "a", 12000], "trial": 4, "serialpos": 16, "trial_type": "single-audio", "trial_index": 161, "time_elapsed": 828567, "internal_node_id": "0.0-116.0"}}, {"uniqueid": "MTK0761:3FUI0JHJPY5WEOJ6B8Z60RGJ8CP338", "current_trial": 162, "dateTime": 1512712734783, "trialdata": {"rt": -1000, "stimulus": "/static/audio/wordpool/TRANSPLANT.wav", "key_press": -1, "type": "PRES_AUD", "word": "transplant", "wordID": 1495, "conditions": [24, 1600, "a", 12000], "trial": 4, "serialpos": 17, "trial_type": "single-audio", "trial_index": 162, "time_elapsed": 831106, "internal_node_id": "0.0-117.0"}}, {"uniqueid": "MTK0761:3FUI0JHJPY5WEOJ6B8Z60RGJ8CP338", "current_trial": 163, "dateTime": 1512712737379, "trialdata": {"rt": -1000, "stimulus": "/static/audio/wordpool/GRAVEL.wav", "key_press": -1, "type": "PRES_AUD", "word": "gravel", "wordID": 658, "conditions": [24, 1600, "a", 12000], "trial": 4, "serialpos": 18, "trial_type": "single-audio", "trial_index": 163, "time_elapsed": 833702, "internal_node_id": "0.0-118.0"}}, {"uniqueid": "MTK0761:3FUI0JHJPY5WEOJ6B8Z60RGJ8CP338", "current_trial": 164, "dateTime": 1512712739870, "trialdata": {"rt": -1000, "stimulus": "/static/audio/wordpool/GROUND.wav", "key_press": -1, "type": "PRES_AUD", "word": "ground", "wordID": 665, "conditions": [24, 1600, "a", 12000], "trial": 4, "serialpos": 19, "trial_type": "single-audio", "trial_index": 164, "time_elapsed": 836193, "internal_node_id": "0.0-119.0"}}, {"uniqueid": "MTK0761:3FUI0JHJPY5WEOJ6B8Z60RGJ8CP338", "current_trial": 165, "dateTime": 1512712742514, "trialdata": {"rt": -1000, "stimulus": "/static/audio/wordpool/VIRUS.wav", "key_press": -1, "type": "PRES_AUD", "word": "virus", "wordID": 1571, "conditions": [24, 1600, "a", 12000], "trial": 4, "serialpos": 20, "trial_type": "single-audio", "trial_index": 165, "time_elapsed": 838837, "internal_node_id": "0.0-120.0"}}, {"uniqueid": "MTK0761:3FUI0JHJPY5WEOJ6B8Z60RGJ8CP338", "current_trial": 166, "dateTime": 1512712745227, "trialdata": {"rt": -1000, "stimulus": "/static/audio/wordpool/BUG.wav", "key_press": -1, "type": "PRES_AUD", "word": "bug", "wordID": 186, "conditions": [24, 1600, "a", 12000], "trial": 4, "serialpos": 21, "trial_type": "single-audio", "trial_index": 166, "time_elapsed": 841550, "internal_node_id": "0.0-121.0"}}, {"uniqueid": "MTK0761:3FUI0JHJPY5WEOJ6B8Z60RGJ8CP338", "current_trial": 167, "dateTime": 1512712747888, "trialdata": {"rt": -1000, "stimulus": "/static/audio/wordpool/FLESH.wav", "key_press": -1, "type": "PRES_AUD", "word": "flesh", "wordID": 578, "conditions": [24, 1600, "a", 12000], "trial": 4, "serialpos": 22, "trial_type": "single-audio", "trial_index": 167, "time_elapsed": 844210, "internal_node_id": "0.0-122.0"}}, {"uniqueid": "MTK0761:3FUI0JHJPY5WEOJ6B8Z60RGJ8CP338", "current_trial": 168, "dateTime": 1512712750317, "trialdata": {"rt": -1000, "stimulus": "/static/audio/wordpool/CLIMBER.wav", "key_press": -1, "type": "PRES_AUD", "word": "climber", "wordID": 322, "conditions": [24, 1600, "a", 12000], "trial": 4, "serialpos": 23, "trial_type": "single-audio", "trial_index": 168, "time_elapsed": 846639, "internal_node_id": "0.0-123.0"}}, {"uniqueid": "MTK0761:3FUI0JHJPY5WEOJ6B8Z60RGJ8CP338", "current_trial": 169, "dateTime": 1512712751594, "trialdata": {"rt": -1, "stimulus": "", "key_press": -1, "type": "PRE_RECALL_DELAY", "trial_type": "single-stim", "trial_index": 169, "time_elapsed": 847917, "internal_node_id": "0.0-124.0-0.0"}}, {"uniqueid": "MTK0761:3FUI0JHJPY5WEOJ6B8Z60RGJ8CP338", "current_trial": 170, "dateTime": 1512712752097, "trialdata": {"rt": -1000, "stimulus": "/static/audio/400Hz.wav", "key_press": -1, "type": "PRE_RECALL_ALERT", "trial_type": "single-audio", "trial_index": 170, "time_elapsed": 848420, "internal_node_id": "0.0-125.0"}}, {"uniqueid": "MTK0761:3FUI0JHJPY5WEOJ6B8Z60RGJ8CP338", "current_trial": 171, "dateTime": 1512712812104, "trialdata": {"rt": [1884, 3206, 4629, 6351, 10769, 14374, 19793, 29433, 30212], "recwords": ["bug", "flesh", "climber", "hiker", "college", "teacher", "flesh", "transplant", "heart"], "type": "FREE_RECALL", "conditions": [24, 1600, "a", 12000], "trial": 4, "trial_type": "free-recall", "trial_index": 171, "time_elapsed": 908422, "internal_node_id": "0.0-126.0-0.0"}}, {"uniqueid": "MTK0761:3FUI0JHJPY5WEOJ6B8Z60RGJ8CP338", "current_trial": 172, "dateTime": 1512712815978, "trialdata": {"rt": 1872, "key_press": 13, "type": "INSTRUCTIONS", "trial_type": "text", "trial_index": 172, "time_elapsed": 912301, "internal_node_id": "0.0-127.0"}}, {"uniqueid": "MTK0761:3FUI0JHJPY5WEOJ6B8Z60RGJ8CP338", "current_trial": 173, "dateTime": 1512712829982, "trialdata": {"rt": [2939, 4955, 7171, 9940, 11927], "responses": ["18", "14", "11", "17", "13"], "num1": [5, 2, 2, 8, 2, 6], "num2": [8, 9, 5, 5, 8, 8], "num3": [5, 3, 4, 4, 3, 9], "type": "DISTRACTOR", "conditions": [24, 800, "a", 12000], "trial": 5, "trial_type": "math-distractor", "trial_index": 173, "time_elapsed": 926305, "internal_node_id": "0.0-128.0"}}, {"uniqueid": "MTK0761:3FUI0JHJPY5WEOJ6B8Z60RGJ8CP338", "current_trial": 174, "dateTime": 1512712832986, "trialdata": {"rt": -1, "stimulus": "<p id=\"stim\">10</p>", "key_press": -1, "trial_type": "single-stim", "trial_index": 174, "time_elapsed": 929309, "internal_node_id": "0.0-129.0-0.0"}}, {"uniqueid": "MTK0761:3FUI0JHJPY5WEOJ6B8Z60RGJ8CP338", "current_trial": 175, "dateTime": 1512712833988, "trialdata": {"rt": -1, "stimulus": "<p id=\"stim\">9</p>", "key_press": -1, "trial_type": "single-stim", "trial_index": 175, "time_elapsed": 930311, "internal_node_id": "0.0-129.0-1.0"}}, {"uniqueid": "MTK0761:3FUI0JHJPY5WEOJ6B8Z60RGJ8CP338", "current_trial": 176, "dateTime": 1512712834991, "trialdata": {"rt": -1, "stimulus": "<p id=\"stim\">8</p>", "key_press": -1, "trial_type": "single-stim", "trial_index": 176, "time_elapsed": 931314, "internal_node_id": "0.0-129.0-2.0"}}, {"uniqueid": "MTK0761:3FUI0JHJPY5WEOJ6B8Z60RGJ8CP338", "current_trial": 177, "dateTime": 1512712835993, "trialdata": {"rt": -1, "stimulus": "<p id=\"stim\">7</p>", "key_press": -1, "trial_type": "single-stim", "trial_index": 177, "time_elapsed": 932315, "internal_node_id": "0.0-129.0-3.0"}}, {"uniqueid": "MTK0761:3FUI0JHJPY5WEOJ6B8Z60RGJ8CP338", "current_trial": 178, "dateTime": 1512712836995, "trialdata": {"rt": -1, "stimulus": "<p id=\"stim\">6</p>", "key_press": -1, "trial_type": "single-stim", "trial_index": 178, "time_elapsed": 933318, "internal_node_id": "0.0-129.0-4.0"}}, {"uniqueid": "MTK0761:3FUI0JHJPY5WEOJ6B8Z60RGJ8CP338", "current_trial": 179, "dateTime": 1512712837997, "trialdata": {"rt": -1, "stimulus": "<p id=\"stim\">5</p>", "key_press": -1, "trial_type": "single-stim", "trial_index": 179, "time_elapsed": 934320, "internal_node_id": "0.0-129.0-5.0"}}, {"uniqueid": "MTK0761:3FUI0JHJPY5WEOJ6B8Z60RGJ8CP338", "current_trial": 180, "dateTime": 1512712838999, "trialdata": {"rt": -1, "stimulus": "<p id=\"stim\">4</p>", "key_press": -1, "trial_type": "single-stim", "trial_index": 180, "time_elapsed": 935321, "internal_node_id": "0.0-129.0-6.0"}}, {"uniqueid": "MTK0761:3FUI0JHJPY5WEOJ6B8Z60RGJ8CP338", "current_trial": 181, "dateTime": 1512712840001, "trialdata": {"rt": -1, "stimulus": "<p id=\"stim\">3</p>", "key_press": -1, "trial_type": "single-stim", "trial_index": 181, "time_elapsed": 936324, "internal_node_id": "0.0-129.0-7.0"}}, {"uniqueid": "MTK0761:3FUI0JHJPY5WEOJ6B8Z60RGJ8CP338", "current_trial": 182, "dateTime": 1512712841006, "trialdata": {"rt": -1, "stimulus": "<p id=\"stim\">2</p>", "key_press": -1, "trial_type": "single-stim", "trial_index": 182, "time_elapsed": 937328, "internal_node_id": "0.0-129.0-8.0"}}, {"uniqueid": "MTK0761:3FUI0JHJPY5WEOJ6B8Z60RGJ8CP338", "current_trial": 183, "dateTime": 1512712842009, "trialdata": {"rt": -1, "stimulus": "<p id=\"stim\">1</p>", "key_press": -1, "trial_type": "single-stim", "trial_index": 183, "time_elapsed": 938332, "internal_node_id": "0.0-129.0-9.0"}}, {"uniqueid": "MTK0761:3FUI0JHJPY5WEOJ6B8Z60RGJ8CP338", "current_trial": 184, "dateTime": 1512712843516, "trialdata": {"rt": -1, "stimulus": "<p id=\"stim\">+</p>", "key_press": -1, "type": "FIXATION", "trial_type": "single-stim", "trial_index": 184, "time_elapsed": 939838, "internal_node_id": "0.0-130.0-0.0"}}, {"uniqueid": "MTK0761:3FUI0JHJPY5WEOJ6B8Z60RGJ8CP338", "current_trial": 185, "dateTime": 1512712845227, "trialdata": {"rt": -1000, "stimulus": "/static/audio/wordpool/SANDWICH.wav", "key_press": -1, "type": "PRES_AUD", "word": "sandwich", "wordID": 1231, "conditions": [24, 800, "a", 12000], "trial": 5, "serialpos": 0, "trial_type": "single-audio", "trial_index": 185, "time_elapsed": 941549, "internal_node_id": "0.0-131.0"}}, {"uniqueid": "MTK0761:3FUI0JHJPY5WEOJ6B8Z60RGJ8CP338", "current_trial": 186, "dateTime": 1512712846958, "trialdata": {"rt": -1000, "stimulus": "/static/audio/wordpool/OMELET.wav", "key_press": -1, "type": "PRES_AUD", "word": "omelet", "wordID": 975, "conditions": [24, 800, "a", 12000], "trial": 5, "serialpos": 1, "trial_type": "single-audio", "trial_index": 186, "time_elapsed": 943281, "internal_node_id": "0.0-132.0"}}, {"uniqueid": "MTK0761:3FUI0JHJPY5WEOJ6B8Z60RGJ8CP338", "current_trial": 187, "dateTime": 1512712848646, "trialdata": {"rt": -1000, "stimulus": "/static/audio/wordpool/SWIMMER.wav", "key_press": -1, "type": "PRES_AUD", "word": "swimmer", "wordID": 1419, "conditions": [24, 800, "a", 12000], "trial": 5, "serialpos": 2, "trial_type": "single-audio", "trial_index": 187, "time_elapsed": 944969, "internal_node_id": "0.0-133.0"}}, {"uniqueid": "MTK0761:3FUI0JHJPY5WEOJ6B8Z60RGJ8CP338", "current_trial": 188, "dateTime": 1512712850378, "trialdata": {"rt": -1000, "stimulus": "/static/audio/wordpool/CREATURE.wav", "key_press": -1, "type": "PRES_AUD", "word": "creature", "wordID": 402, "conditions": [24, 800, "a", 12000], "trial": 5, "serialpos": 3, "trial_type": "single-audio", "trial_index": 188, "time_elapsed": 946701, "internal_node_id": "0.0-134.0"}}, {"uniqueid": "MTK0761:3FUI0JHJPY5WEOJ6B8Z60RGJ8CP338", "current_trial": 189, "dateTime": 1512712851994, "trialdata": {"rt": -1000, "stimulus": "/static/audio/wordpool/CRAB.wav", "key_press": -1, "type": "PRES_AUD", "word": "crab", "wordID": 396, "conditions": [24, 800, "a", 12000], "trial": 5, "serialpos": 4, "trial_type": "single-audio", "trial_index": 189, "time_elapsed": 948317, "internal_node_id": "0.0-135.0"}}, {"uniqueid": "MTK0761:3FUI0JHJPY5WEOJ6B8Z60RGJ8CP338", "current_trial": 190, "dateTime": 1512712853827, "trialdata": {"rt": -1000, "stimulus": "/static/audio/wordpool/ATLAS.wav", "key_press": -1, "type": "PRES_AUD", "word": "atlas", "wordID": 52, "conditions": [24, 800, "a", 12000], "trial": 5, "serialpos": 5, "trial_type": "single-audio", "trial_index": 190, "time_elapsed": 950150, "internal_node_id": "0.0-136.0"}}, {"uniqueid": "MTK0761:3FUI0JHJPY5WEOJ6B8Z60RGJ8CP338", "current_trial": 191, "dateTime": 1512712855525, "trialdata": {"rt": -1000, "stimulus": "/static/audio/wordpool/TAXI.wav", "key_press": -1, "type": "PRES_AUD", "word": "taxi", "wordID": 1437, "conditions": [24, 800, "a", 12000], "trial": 5, "serialpos": 6, "trial_type": "single-audio", "trial_index": 191, "time_elapsed": 951848, "internal_node_id": "0.0-137.0"}}, {"uniqueid": "MTK0761:3FUI0JHJPY5WEOJ6B8Z60RGJ8CP338", "current_trial": 192, "dateTime": 1512712857355, "trialdata": {"rt": -1000, "stimulus": "/static/audio/wordpool/HANDBAG.wav", "key_press": -1, "type": "PRES_AUD", "word": "handbag", "wordID": 683, "conditions": [24, 800, "a", 12000], "trial": 5, "serialpos": 7, "trial_type": "single-audio", "trial_index": 192, "time_elapsed": 953678, "internal_node_id": "0.0-138.0"}}, {"uniqueid": "MTK0761:3FUI0JHJPY5WEOJ6B8Z60RGJ8CP338", "current_trial": 193, "dateTime": 1512712859243, "trialdata": {"rt": -1000, "stimulus": "/static/audio/wordpool/PEANUT.wav", "key_press": -1, "type": "PRES_AUD", "word": "peanut", "wordID": 1031, "conditions": [24, 800, "a", 12000], "trial": 5, "serialpos": 8, "trial_type": "single-audio", "trial_index": 193, "time_elapsed": 955565, "internal_node_id": "0.0-139.0"}}, {"uniqueid": "MTK0761:3FUI0JHJPY5WEOJ6B8Z60RGJ8CP338", "current_trial": 194, "dateTime": 1512712861088, "trialdata": {"rt": -1000, "stimulus": "/static/audio/wordpool/PISTOL.wav", "key_press": -1, "type": "PRES_AUD", "word": "pistol", "wordID": 1074, "conditions": [24, 800, "a", 12000], "trial": 5, "serialpos": 9, "trial_type": "single-audio", "trial_index": 194, "time_elapsed": 957410, "internal_node_id": "0.0-140.0"}}, {"uniqueid": "MTK0761:3FUI0JHJPY5WEOJ6B8Z60RGJ8CP338", "current_trial": 195, "dateTime": 1512712862794, "trialdata": {"rt": -1000, "stimulus": "/static/audio/wordpool/ROBBER.wav", "key_press": -1, "type": "PRES_AUD", "word": "robber", "wordID": 1196, "conditions": [24, 800, "a", 12000], "trial": 5, "serialpos": 10, "trial_type": "single-audio", "trial_index": 195, "time_elapsed": 959117, "internal_node_id": "0.0-141.0"}}, {"uniqueid": "MTK0761:3FUI0JHJPY5WEOJ6B8Z60RGJ8CP338", "current_trial": 196, "dateTime": 1512712864488, "trialdata": {"rt": -1000, "stimulus": "/static/audio/wordpool/SPIDER.wav", "key_press": -1, "type": "PRES_AUD", "word": "spider", "wordID": 1350, "conditions": [24, 800, "a", 12000], "trial": 5, "serialpos": 11, "trial_type": "single-audio", "trial_index": 196, "time_elapsed": 960811, "internal_node_id": "0.0-142.0"}}, {"uniqueid": "MTK0761:3FUI0JHJPY5WEOJ6B8Z60RGJ8CP338", "current_trial": 197, "dateTime": 1512712866230, "trialdata": {"rt": -1000, "stimulus": "/static/audio/wordpool/SPONGE.wav", "key_press": -1, "type": "PRES_AUD", "word": "sponge", "wordID": 1354, "conditions": [24, 800, "a", 12000], "trial": 5, "serialpos": 12, "trial_type": "single-audio", "trial_index": 197, "time_elapsed": 962553, "internal_node_id": "0.0-143.0"}}, {"uniqueid": "MTK0761:3FUI0JHJPY5WEOJ6B8Z60RGJ8CP338", "current_trial": 198, "dateTime": 1512712868215, "trialdata": {"rt": -1000, "stimulus": "/static/audio/wordpool/CABBAGE.wav", "key_press": -1, "type": "PRES_AUD", "word": "cabbage", "wordID": 209, "conditions": [24, 800, "a", 12000], "trial": 5, "serialpos": 13, "trial_type": "single-audio", "trial_index": 198, "time_elapsed": 964537, "internal_node_id": "0.0-144.0"}}, {"uniqueid": "MTK0761:3FUI0JHJPY5WEOJ6B8Z60RGJ8CP338", "current_trial": 199, "dateTime": 1512712870134, "trialdata": {"rt": -1000, "stimulus": "/static/audio/wordpool/HARP.wav", "key_press": -1, "type": "PRES_AUD", "word": "harp", "wordID": 688, "conditions": [24, 800, "a", 12000], "trial": 5, "serialpos": 14, "trial_type": "single-audio", "trial_index": 199, "time_elapsed": 966457, "internal_node_id": "0.0-145.0"}}, {"uniqueid": "MTK0761:3FUI0JHJPY5WEOJ6B8Z60RGJ8CP338", "current_trial": 200, "dateTime": 1512712871956, "trialdata": {"rt": -1000, "stimulus": "/static/audio/wordpool/PIANO.wav", "key_press": -1, "type": "PRES_AUD", "word": "piano", "wordID": 1056, "conditions": [24, 800, "a", 12000], "trial": 5, "serialpos": 15, "trial_type": "single-audio", "trial_index": 200, "time_elapsed": 968279, "internal_node_id": "0.0-146.0"}}, {"uniqueid": "MTK0761:3FUI0JHJPY5WEOJ6B8Z60RGJ8CP338", "current_trial": 201, "dateTime": 1512712873848, "trialdata": {"rt": -1000, "stimulus": "/static/audio/wordpool/SNAKE.wav", "key_press": -1, "type": "PRES_AUD", "word": "snake", "wordID": 1332, "conditions": [24, 800, "a", 12000], "trial": 5, "serialpos": 16, "trial_type": "single-audio", "trial_index": 201, "time_elapsed": 970170, "internal_node_id": "0.0-147.0"}}, {"uniqueid": "MTK0761:3FUI0JHJPY5WEOJ6B8Z60RGJ8CP338", "current_trial": 202, "dateTime": 1512712875467, "trialdata": {"rt": -1000, "stimulus": "/static/audio/wordpool/SLIDE.wav", "key_press": -1, "type": "PRES_AUD", "word": "slide", "wordID": 1325, "conditions": [24, 800, "a", 12000], "trial": 5, "serialpos": 17, "trial_type": "single-audio", "trial_index": 202, "time_elapsed": 971789, "internal_node_id": "0.0-148.0"}}, {"uniqueid": "MTK0761:3FUI0JHJPY5WEOJ6B8Z60RGJ8CP338", "current_trial": 203, "dateTime": 1512712877400, "trialdata": {"rt": -1000, "stimulus": "/static/audio/wordpool/SCARF.wav", "key_press": -1, "type": "PRES_AUD", "word": "scarf", "wordID": 1245, "conditions": [24, 800, "a", 12000], "trial": 5, "serialpos": 18, "trial_type": "single-audio", "trial_index": 203, "time_elapsed": 973723, "internal_node_id": "0.0-149.0"}}, {"uniqueid": "MTK0761:3FUI0JHJPY5WEOJ6B8Z60RGJ8CP338", "current_trial": 204, "dateTime": 1512712879030, "trialdata": {"rt": -1000, "stimulus": "/static/audio/wordpool/BANK.wav", "key_press": -1, "type": "PRES_AUD", "word": "bank", "wordID": 82, "conditions": [24, 800, "a", 12000], "trial": 5, "serialpos": 19, "trial_type": "single-audio", "trial_index": 204, "time_elapsed": 975353, "internal_node_id": "0.0-150.0"}}, {"uniqueid": "MTK0761:3FUI0JHJPY5WEOJ6B8Z60RGJ8CP338", "current_trial": 205, "dateTime": 1512712880924, "trialdata": {"rt": -1000, "stimulus": "/static/audio/wordpool/LACE.wav", "key_press": -1, "type": "PRES_AUD", "word": "lace", "wordID": 791, "conditions": [24, 800, "a", 12000], "trial": 5, "serialpos": 20, "trial_type": "single-audio", "trial_index": 205, "time_elapsed": 977247, "internal_node_id": "0.0-151.0"}}, {"uniqueid": "MTK0761:3FUI0JHJPY5WEOJ6B8Z60RGJ8CP338", "current_trial": 206, "dateTime": 1512712882655, "trialdata": {"rt": -1000, "stimulus": "/static/audio/wordpool/BATHTUB.wav", "key_press": -1, "type": "PRES_AUD", "word": "bathtub", "wordID": 99, "conditions": [24, 800, "a", 12000], "trial": 5, "serialpos": 21, "trial_type": "single-audio", "trial_index": 206, "time_elapsed": 978978, "internal_node_id": "0.0-152.0"}}, {"uniqueid": "MTK0761:3FUI0JHJPY5WEOJ6B8Z60RGJ8CP338", "current_trial": 207, "dateTime": 1512712884479, "trialdata": {"rt": -1000, "stimulus": "/static/audio/wordpool/SALMON.wav", "key_press": -1, "type": "PRES_AUD", "word": "salmon", "wordID": 1226, "conditions": [24, 800, "a", 12000], "trial": 5, "serialpos": 22, "trial_type": "single-audio", "trial_index": 207, "time_elapsed": 980801, "internal_node_id": "0.0-153.0"}}, {"uniqueid": "MTK0761:3FUI0JHJPY5WEOJ6B8Z60RGJ8CP338", "current_trial": 208, "dateTime": 1512712886287, "trialdata": {"rt": -1000, "stimulus": "/static/audio/wordpool/BRANCH.wav", "key_press": -1, "type": "PRES_AUD", "word": "branch", "wordID": 167, "conditions": [24, 800, "a", 12000], "trial": 5, "serialpos": 23, "trial_type": "single-audio", "trial_index": 208, "time_elapsed": 982610, "internal_node_id": "0.0-154.0"}}, {"uniqueid": "MTK0761:3FUI0JHJPY5WEOJ6B8Z60RGJ8CP338", "current_trial": 209, "dateTime": 1512712887587, "trialdata": {"rt": -1, "stimulus": "", "key_press": -1, "type": "PRE_RECALL_DELAY", "trial_type": "single-stim", "trial_index": 209, "time_elapsed": 983910, "internal_node_id": "0.0-155.0-0.0"}}, {"uniqueid": "MTK0761:3FUI0JHJPY5WEOJ6B8Z60RGJ8CP338", "current_trial": 210, "dateTime": 1512712888092, "trialdata": {"rt": -1000, "stimulus": "/static/audio/400Hz.wav", "key_press": -1, "type": "PRE_RECALL_ALERT", "trial_type": "single-audio", "trial_index": 210, "time_elapsed": 984415, "internal_node_id": "0.0-156.0"}}, {"uniqueid": "MTK0761:3FUI0JHJPY5WEOJ6B8Z60RGJ8CP338", "current_trial": 211, "dateTime": 1512712948123, "trialdata": {"rt": [5331, 8351, 13648, 16039, 18016, 18736, 27064, 32982], "recwords": ["sandwich", "omelet", "taxi", "peanuts", "piano", "harp", "bath", "snake"], "type": "FREE_RECALL", "conditions": [24, 800, "a", 12000], "trial": 5, "trial_type": "free-recall", "trial_index": 211, "time_elapsed": 1044425, "internal_node_id": "0.0-157.0-0.0"}}, {"uniqueid": "MTK0761:3FUI0JHJPY5WEOJ6B8Z60RGJ8CP338", "current_trial": 212, "dateTime": 1512712952058, "trialdata": {"rt": 1933, "key_press": 13, "type": "INSTRUCTIONS", "trial_type": "text", "trial_index": 212, "time_elapsed": 1048381, "internal_node_id": "0.0-158.0"}}, {"uniqueid": "MTK0761:3FUI0JHJPY5WEOJ6B8Z60RGJ8CP338", "current_trial": 213, "dateTime": 1512712978064, "trialdata": {"rt": [2377, 3867, 5491, 6614, 9186, 10655, 12515, 13855, 16002, 18396, 21145, 23427], "responses": ["15", "14", "7", "5", "17", "14", "21", "12", "11", "18", "18", "11"], "num1": [3, 9, 1, 2, 9, 7, 8, 7, 8, 9, 9, 1, 4], "num2": [9, 1, 3, 1, 7, 6, 8, 3, 1, 7, 7, 3, 4], "num3": [3, 4, 3, 2, 1, 1, 5, 2, 2, 2, 1, 7, 4], "type": "DISTRACTOR", "conditions": [12, 1600, "a", 24000], "trial": 6, "trial_type": "math-distractor", "trial_index": 213, "time_elapsed": 1074387, "internal_node_id": "0.0-159.0"}}, {"uniqueid": "MTK0761:3FUI0JHJPY5WEOJ6B8Z60RGJ8CP338", "current_trial": 214, "dateTime": 1512712981069, "trialdata": {"rt": -1, "stimulus": "<p id=\"stim\">10</p>", "key_press": -1, "trial_type": "single-stim", "trial_index": 214, "time_elapsed": 1077391, "internal_node_id": "0.0-160.0-0.0"}}, {"uniqueid": "MTK0761:3FUI0JHJPY5WEOJ6B8Z60RGJ8CP338", "current_trial": 215, "dateTime": 1512712982072, "trialdata": {"rt": -1, "stimulus": "<p id=\"stim\">9</p>", "key_press": -1, "trial_type": "single-stim", "trial_index": 215, "time_elapsed": 1078395, "internal_node_id": "0.0-160.0-1.0"}}, {"uniqueid": "MTK0761:3FUI0JHJPY5WEOJ6B8Z60RGJ8CP338", "current_trial": 216, "dateTime": 1512712983076, "trialdata": {"rt": -1, "stimulus": "<p id=\"stim\">8</p>", "key_press": -1, "trial_type": "single-stim", "trial_index": 216, "time_elapsed": 1079399, "internal_node_id": "0.0-160.0-2.0"}}, {"uniqueid": "MTK0761:3FUI0JHJPY5WEOJ6B8Z60RGJ8CP338", "current_trial": 217, "dateTime": 1512712984081, "trialdata": {"rt": -1, "stimulus": "<p id=\"stim\">7</p>", "key_press": -1, "trial_type": "single-stim", "trial_index": 217, "time_elapsed": 1080404, "internal_node_id": "0.0-160.0-3.0"}}, {"uniqueid": "MTK0761:3FUI0JHJPY5WEOJ6B8Z60RGJ8CP338", "current_trial": 218, "dateTime": 1512712985084, "trialdata": {"rt": -1, "stimulus": "<p id=\"stim\">6</p>", "key_press": -1, "trial_type": "single-stim", "trial_index": 218, "time_elapsed": 1081406, "internal_node_id": "0.0-160.0-4.0"}}, {"uniqueid": "MTK0761:3FUI0JHJPY5WEOJ6B8Z60RGJ8CP338", "current_trial": 219, "dateTime": 1512712986088, "trialdata": {"rt": -1, "stimulus": "<p id=\"stim\">5</p>", "key_press": -1, "trial_type": "single-stim", "trial_index": 219, "time_elapsed": 1082410, "internal_node_id": "0.0-160.0-5.0"}}, {"uniqueid": "MTK0761:3FUI0JHJPY5WEOJ6B8Z60RGJ8CP338", "current_trial": 220, "dateTime": 1512712987094, "trialdata": {"rt": -1, "stimulus": "<p id=\"stim\">4</p>", "key_press": -1, "trial_type": "single-stim", "trial_index": 220, "time_elapsed": 1083416, "internal_node_id": "0.0-160.0-6.0"}}, {"uniqueid": "MTK0761:3FUI0JHJPY5WEOJ6B8Z60RGJ8CP338", "current_trial": 221, "dateTime": 1512712988098, "trialdata": {"rt": -1, "stimulus": "<p id=\"stim\">3</p>", "key_press": -1, "trial_type": "single-stim", "trial_index": 221, "time_elapsed": 1084421, "internal_node_id": "0.0-160.0-7.0"}}, {"uniqueid": "MTK0761:3FUI0JHJPY5WEOJ6B8Z60RGJ8CP338", "current_trial": 222, "dateTime": 1512712989101, "trialdata": {"rt": -1, "stimulus": "<p id=\"stim\">2</p>", "key_press": -1, "trial_type": "single-stim", "trial_index": 222, "time_elapsed": 1085424, "internal_node_id": "0.0-160.0-8.0"}}, {"uniqueid": "MTK0761:3FUI0JHJPY5WEOJ6B8Z60RGJ8CP338", "current_trial": 223, "dateTime": 1512712990104, "trialdata": {"rt": -1, "stimulus": "<p id=\"stim\">1</p>", "key_press": -1, "trial_type": "single-stim", "trial_index": 223, "time_elapsed": 1086426, "internal_node_id": "0.0-160.0-9.0"}}, {"uniqueid": "MTK0761:3FUI0JHJPY5WEOJ6B8Z60RGJ8CP338", "current_trial": 224, "dateTime": 1512712991606, "trialdata": {"rt": -1, "stimulus": "<p id=\"stim\">+</p>", "key_press": -1, "type": "FIXATION", "trial_type": "single-stim", "trial_index": 224, "time_elapsed": 1087928, "internal_node_id": "0.0-161.0-0.0"}}, {"uniqueid": "MTK0761:3FUI0JHJPY5WEOJ6B8Z60RGJ8CP338", "current_trial": 225, "dateTime": 1512712994251, "trialdata": {"rt": -1000, "stimulus": "/static/audio/wordpool/GLOBE.wav", "key_press": -1, "type": "PRES_AUD", "word": "globe", "wordID": 640, "conditions": [12, 1600, "a", 24000], "trial": 6, "serialpos": 0, "trial_type": "single-audio", "trial_index": 225, "time_elapsed": 1090574, "internal_node_id": "0.0-162.0"}}, {"uniqueid": "MTK0761:3FUI0JHJPY5WEOJ6B8Z60RGJ8CP338", "current_trial": 226, "dateTime": 1512712996894, "trialdata": {"rt": -1000, "stimulus": "/static/audio/wordpool/SPOUSE.wav", "key_press": -1, "type": "PRES_AUD", "word": "spouse", "wordID": 1357, "conditions": [12, 1600, "a", 24000], "trial": 6, "serialpos": 1, "trial_type": "single-audio", "trial_index": 226, "time_elapsed": 1093216, "internal_node_id": "0.0-163.0"}}, {"uniqueid": "MTK0761:3FUI0JHJPY5WEOJ6B8Z60RGJ8CP338", "current_trial": 227, "dateTime": 1512712999531, "trialdata": {"rt": -1000, "stimulus": "/static/audio/wordpool/ROCKET.wav", "key_press": -1, "type": "PRES_AUD", "word": "rocket", "wordID": 1201, "conditions": [12, 1600, "a", 24000], "trial": 6, "serialpos": 2, "trial_type": "single-audio", "trial_index": 227, "time_elapsed": 1095853, "internal_node_id": "0.0-164.0"}}, {"uniqueid": "MTK0761:3FUI0JHJPY5WEOJ6B8Z60RGJ8CP338", "current_trial": 228, "dateTime": 1512713002062, "trialdata": {"rt": -1000, "stimulus": "/static/audio/wordpool/SUPPER.wav", "key_press": -1, "type": "PRES_AUD", "word": "supper", "wordID": 1410, "conditions": [12, 1600, "a", 24000], "trial": 6, "serialpos": 3, "trial_type": "single-audio", "trial_index": 228, "time_elapsed": 1098384, "internal_node_id": "0.0-165.0"}}, {"uniqueid": "MTK0761:3FUI0JHJPY5WEOJ6B8Z60RGJ8CP338", "current_trial": 229, "dateTime": 1512713004555, "trialdata": {"rt": -1000, "stimulus": "/static/audio/wordpool/INFANT.wav", "key_press": -1, "type": "PRES_AUD", "word": "infant", "wordID": 736, "conditions": [12, 1600, "a", 24000], "trial": 6, "serialpos": 4, "trial_type": "single-audio", "trial_index": 229, "time_elapsed": 1100878, "internal_node_id": "0.0-166.0"}}, {"uniqueid": "MTK0761:3FUI0JHJPY5WEOJ6B8Z60RGJ8CP338", "current_trial": 230, "dateTime": 1512713007122, "trialdata": {"rt": -1000, "stimulus": "/static/audio/wordpool/WORLD.wav", "key_press": -1, "type": "PRES_AUD", "word": "world", "wordID": 1621, "conditions": [12, 1600, "a", 24000], "trial": 6, "serialpos": 5, "trial_type": "single-audio", "trial_index": 230, "time_elapsed": 1103445, "internal_node_id": "0.0-167.0"}}, {"uniqueid": "MTK0761:3FUI0JHJPY5WEOJ6B8Z60RGJ8CP338", "current_trial": 231, "dateTime": 1512713009538, "trialdata": {"rt": -1000, "stimulus": "/static/audio/wordpool/FIDDLE.wav", "key_press": -1, "type": "PRES_AUD", "word": "fiddle", "wordID": 560, "conditions": [12, 1600, "a", 24000], "trial": 6, "serialpos": 6, "trial_type": "single-audio", "trial_index": 231, "time_elapsed": 1105860, "internal_node_id": "0.0-168.0"}}, {"uniqueid": "MTK0761:3FUI0JHJPY5WEOJ6B8Z60RGJ8CP338", "current_trial": 232, "dateTime": 1512713012181, "trialdata": {"rt": -1000, "stimulus": "/static/audio/wordpool/DORM.wav", "key_press": -1, "type": "PRES_AUD", "word": "dorm", "wordID": 487, "conditions": [12, 1600, "a", 24000], "trial": 6, "serialpos": 7, "trial_type": "single-audio", "trial_index": 232, "time_elapsed": 1108501, "internal_node_id": "0.0-169.0"}}, {"uniqueid": "MTK0761:3FUI0JHJPY5WEOJ6B8Z60RGJ8CP338", "current_trial": 233, "dateTime": 1512713014679, "trialdata": {"rt": -1000, "stimulus": "/static/audio/wordpool/FREEZER.wav", "key_press": -1, "type": "PRES_AUD", "word": "freezer", "wordID": 603, "conditions": [12, 1600, "a", 24000], "trial": 6, "serialpos": 8, "trial_type": "single-audio", "trial_index": 233, "time_elapsed": 1111002, "internal_node_id": "0.0-170.0"}}, {"uniqueid": "MTK0761:3FUI0JHJPY5WEOJ6B8Z60RGJ8CP338", "current_trial": 234, "dateTime": 1512713017199, "trialdata": {"rt": -1000, "stimulus": "/static/audio/wordpool/FLUTE.wav", "key_press": -1, "type": "PRES_AUD", "word": "flute", "wordID": 584, "conditions": [12, 1600, "a", 24000], "trial": 6, "serialpos": 9, "trial_type": "single-audio", "trial_index": 234, "time_elapsed": 1113522, "internal_node_id": "0.0-171.0"}}, {"uniqueid": "MTK0761:3FUI0JHJPY5WEOJ6B8Z60RGJ8CP338", "current_trial": 235, "dateTime": 1512713019665, "trialdata": {"rt": -1000, "stimulus": "/static/audio/wordpool/GUITAR.wav", "key_press": -1, "type": "PRES_AUD", "word": "guitar", "wordID": 669, "conditions": [12, 1600, "a", 24000], "trial": 6, "serialpos": 10, "trial_type": "single-audio", "trial_index": 235, "time_elapsed": 1115988, "internal_node_id": "0.0-172.0"}}, {"uniqueid": "MTK0761:3FUI0JHJPY5WEOJ6B8Z60RGJ8CP338", "current_trial": 236, "dateTime": 1512713022145, "trialdata": {"rt": -1000, "stimulus": "/static/audio/wordpool/CLOUD.wav", "key_press": -1, "type": "PRES_AUD", "word": "cloud", "wordID": 327, "conditions": [12, 1600, "a", 24000], "trial": 6, "serialpos": 11, "trial_type": "single-audio", "trial_index": 236, "time_elapsed": 1118468, "internal_node_id": "0.0-173.0"}}, {"uniqueid": "MTK0761:3FUI0JHJPY5WEOJ6B8Z60RGJ8CP338", "current_trial": 237, "dateTime": 1512713023367, "trialdata": {"rt": -1, "stimulus": "", "key_press": -1, "type": "PRE_RECALL_DELAY", "trial_type": "single-stim", "trial_index": 237, "time_elapsed": 1119690, "internal_node_id": "0.0-174.0-0.0"}}, {"uniqueid": "MTK0761:3FUI0JHJPY5WEOJ6B8Z60RGJ8CP338", "current_trial": 238, "dateTime": 1512713023870, "trialdata": {"rt": -1000, "stimulus": "/static/audio/400Hz.wav", "key_press": -1, "type": "PRE_RECALL_ALERT", "trial_type": "single-audio", "trial_index": 238, "time_elapsed": 1120193, "internal_node_id": "0.0-175.0"}}, {"uniqueid": "MTK0761:3FUI0JHJPY5WEOJ6B8Z60RGJ8CP338", "current_trial": 239, "dateTime": 1512713083886, "trialdata": {"rt": [9344, 11273, 13997, 16342, 22598, 25477], "recwords": ["cloud", "guitar", "flute", "fiddle", "globe", "world"], "type": "FREE_RECALL", "conditions": [12, 1600, "a", 24000], "trial": 6, "trial_type": "free-recall", "trial_index": 239, "time_elapsed": 1180198, "internal_node_id": "0.0-176.0-0.0"}}, {"uniqueid": "MTK0761:3FUI0JHJPY5WEOJ6B8Z60RGJ8CP338", "current_trial": 240, "dateTime": 1512713089162, "trialdata": {"rt": 3271, "key_press": 13, "type": "INSTRUCTIONS", "trial_type": "text", "trial_index": 240, "time_elapsed": 1185484, "internal_node_id": "0.0-177.0"}}, {"uniqueid": "MTK0761:3FUI0JHJPY5WEOJ6B8Z60RGJ8CP338", "current_trial": 241, "dateTime": 1512713103168, "trialdata": {"rt": [2941, 7922, 10070], "responses": ["13", "26", "7"], "num1": [2, 9, 2, 2], "num2": [6, 8, 4, 5], "num3": [5, 9, 1, 4], "type": "DISTRACTOR", "conditions": [12, 800, "a", 12000], "trial": 7, "trial_type": "math-distractor", "trial_index": 241, "time_elapsed": 1199491, "internal_node_id": "0.0-178.0"}}, {"uniqueid": "MTK0761:3FUI0JHJPY5WEOJ6B8Z60RGJ8CP338", "current_trial": 242, "dateTime": 1512713106171, "trialdata": {"rt": -1, "stimulus": "<p id=\"stim\">10</p>", "key_press": -1, "trial_type": "single-stim", "trial_index": 242, "time_elapsed": 1202493, "internal_node_id": "0.0-179.0-0.0"}}, {"uniqueid": "MTK0761:3FUI0JHJPY5WEOJ6B8Z60RGJ8CP338", "current_trial": 243, "dateTime": 1512713107174, "trialdata": {"rt": -1, "stimulus": "<p id=\"stim\">9</p>", "key_press": -1, "trial_type": "single-stim", "trial_index": 243, "time_elapsed": 1203497, "internal_node_id": "0.0-179.0-1.0"}}, {"uniqueid": "MTK0761:3FUI0JHJPY5WEOJ6B8Z60RGJ8CP338", "current_trial": 244, "dateTime": 1512713108177, "trialdata": {"rt": -1, "stimulus": "<p id=\"stim\">8</p>", "key_press": -1, "trial_type": "single-stim", "trial_index": 244, "time_elapsed": 1204500, "internal_node_id": "0.0-179.0-2.0"}}, {"uniqueid": "MTK0761:3FUI0JHJPY5WEOJ6B8Z60RGJ8CP338", "current_trial": 245, "dateTime": 1512713109184, "trialdata": {"rt": -1, "stimulus": "<p id=\"stim\">7</p>", "key_press": -1, "trial_type": "single-stim", "trial_index": 245, "time_elapsed": 1205506, "internal_node_id": "0.0-179.0-3.0"}}, {"uniqueid": "MTK0761:3FUI0JHJPY5WEOJ6B8Z60RGJ8CP338", "current_trial": 246, "dateTime": 1512713110189, "trialdata": {"rt": -1, "stimulus": "<p id=\"stim\">6</p>", "key_press": -1, "trial_type": "single-stim", "trial_index": 246, "time_elapsed": 1206511, "internal_node_id": "0.0-179.0-4.0"}}, {"uniqueid": "MTK0761:3FUI0JHJPY5WEOJ6B8Z60RGJ8CP338", "current_trial": 247, "dateTime": 1512713111193, "trialdata": {"rt": -1, "stimulus": "<p id=\"stim\">5</p>", "key_press": -1, "trial_type": "single-stim", "trial_index": 247, "time_elapsed": 1207515, "internal_node_id": "0.0-179.0-5.0"}}, {"uniqueid": "MTK0761:3FUI0JHJPY5WEOJ6B8Z60RGJ8CP338", "current_trial": 248, "dateTime": 1512713112198, "trialdata": {"rt": -1, "stimulus": "<p id=\"stim\">4</p>", "key_press": -1, "trial_type": "single-stim", "trial_index": 248, "time_elapsed": 1208521, "internal_node_id": "0.0-179.0-6.0"}}, {"uniqueid": "MTK0761:3FUI0JHJPY5WEOJ6B8Z60RGJ8CP338", "current_trial": 249, "dateTime": 1512713113202, "trialdata": {"rt": -1, "stimulus": "<p id=\"stim\">3</p>", "key_press": -1, "trial_type": "single-stim", "trial_index": 249, "time_elapsed": 1209525, "internal_node_id": "0.0-179.0-7.0"}}, {"uniqueid": "MTK0761:3FUI0JHJPY5WEOJ6B8Z60RGJ8CP338", "current_trial": 250, "dateTime": 1512713114206, "trialdata": {"rt": -1, "stimulus": "<p id=\"stim\">2</p>", "key_press": -1, "trial_type": "single-stim", "trial_index": 250, "time_elapsed": 1210529, "internal_node_id": "0.0-179.0-8.0"}}, {"uniqueid": "MTK0761:3FUI0JHJPY5WEOJ6B8Z60RGJ8CP338", "current_trial": 251, "dateTime": 1512713115210, "trialdata": {"rt": -1, "stimulus": "<p id=\"stim\">1</p>", "key_press": -1, "trial_type": "single-stim", "trial_index": 251, "time_elapsed": 1211532, "internal_node_id": "0.0-179.0-9.0"}}, {"uniqueid": "MTK0761:3FUI0JHJPY5WEOJ6B8Z60RGJ8CP338", "current_trial": 252, "dateTime": 1512713116712, "trialdata": {"rt": -1, "stimulus": "<p id=\"stim\">+</p>", "key_press": -1, "type": "FIXATION", "trial_type": "single-stim", "trial_index": 252, "time_elapsed": 1213035, "internal_node_id": "0.0-180.0-0.0"}}, {"uniqueid": "MTK0761:3FUI0JHJPY5WEOJ6B8Z60RGJ8CP338", "current_trial": 253, "dateTime": 1512713118566, "trialdata": {"rt": -1000, "stimulus": "/static/audio/wordpool/VICTIM.wav", "key_press": -1, "type": "PRES_AUD", "word": "victim", "wordID": 1561, "conditions": [12, 800, "a", 12000], "trial": 7, "serialpos": 0, "trial_type": "single-audio", "trial_index": 253, "time_elapsed": 1214889, "internal_node_id": "0.0-181.0"}}, {"uniqueid": "MTK0761:3FUI0JHJPY5WEOJ6B8Z60RGJ8CP338", "current_trial": 254, "dateTime": 1512713120315, "trialdata": {"rt": -1000, "stimulus": "/static/audio/wordpool/COUCH.wav", "key_press": -1, "type": "PRES_AUD", "word": "couch", "wordID": 385, "conditions": [12, 800, "a", 12000], "trial": 7, "serialpos": 1, "trial_type": "single-audio", "trial_index": 254, "time_elapsed": 1216638, "internal_node_id": "0.0-182.0"}}, {"uniqueid": "MTK0761:3FUI0JHJPY5WEOJ6B8Z60RGJ8CP338", "current_trial": 255, "dateTime": 1512713122085, "trialdata": {"rt": -1000, "stimulus": "/static/audio/wordpool/LADY.wav", "key_press": -1, "type": "PRES_AUD", "word": "lady", "wordID": 793, "conditions": [12, 800, "a", 12000], "trial": 7, "serialpos": 2, "trial_type": "single-audio", "trial_index": 255, "time_elapsed": 1218407, "internal_node_id": "0.0-183.0"}}, {"uniqueid": "MTK0761:3FUI0JHJPY5WEOJ6B8Z60RGJ8CP338", "current_trial": 256, "dateTime": 1512713123884, "trialdata": {"rt": -1000, "stimulus": "/static/audio/wordpool/CHEST.wav", "key_press": -1, "type": "PRES_AUD", "word": "chest", "wordID": 294, "conditions": [12, 800, "a", 12000], "trial": 7, "serialpos": 3, "trial_type": "single-audio", "trial_index": 256, "time_elapsed": 1220207, "internal_node_id": "0.0-184.0"}}, {"uniqueid": "MTK0761:3FUI0JHJPY5WEOJ6B8Z60RGJ8CP338", "current_trial": 257, "dateTime": 1512713125649, "trialdata": {"rt": -1000, "stimulus": "/static/audio/wordpool/SCARECROW.wav", "key_press": -1, "type": "PRES_AUD", "word": "scarecrow", "wordID": 1244, "conditions": [12, 800, "a", 12000], "trial": 7, "serialpos": 4, "trial_type": "single-audio", "trial_index": 257, "time_elapsed": 1221972, "internal_node_id": "0.0-185.0"}}, {"uniqueid": "MTK0761:3FUI0JHJPY5WEOJ6B8Z60RGJ8CP338", "current_trial": 258, "dateTime": 1512713127538, "trialdata": {"rt": -1000, "stimulus": "/static/audio/wordpool/COSTUME.wav", "key_press": -1, "type": "PRES_AUD", "word": "costume", "wordID": 382, "conditions": [12, 800, "a", 12000], "trial": 7, "serialpos": 5, "trial_type": "single-audio", "trial_index": 258, "time_elapsed": 1223861, "internal_node_id": "0.0-186.0"}}, {"uniqueid": "MTK0761:3FUI0JHJPY5WEOJ6B8Z60RGJ8CP338", "current_trial": 259, "dateTime": 1512713129179, "trialdata": {"rt": -1000, "stimulus": "/static/audio/wordpool/STONE.wav", "key_press": -1, "type": "PRES_AUD", "word": "stone", "wordID": 1384, "conditions": [12, 800, "a", 12000], "trial": 7, "serialpos": 6, "trial_type": "single-audio", "trial_index": 259, "time_elapsed": 1225501, "internal_node_id": "0.0-187.0"}}, {"uniqueid": "MTK0761:3FUI0JHJPY5WEOJ6B8Z60RGJ8CP338", "current_trial": 260, "dateTime": 1512713131036, "trialdata": {"rt": -1000, "stimulus": "/static/audio/wordpool/TABLET.wav", "key_press": -1, "type": "PRES_AUD", "word": "tablet", "wordID": 1426, "conditions": [12, 800, "a", 12000], "trial": 7, "serialpos": 7, "trial_type": "single-audio", "trial_index": 260, "time_elapsed": 1227359, "internal_node_id": "0.0-188.0"}}, {"uniqueid": "MTK0761:3FUI0JHJPY5WEOJ6B8Z60RGJ8CP338", "current_trial": 261, "dateTime": 1512713132955, "trialdata": {"rt": -1000, "stimulus": "/static/audio/wordpool/ROOSTER.wav", "key_press": -1, "type": "PRES_AUD", "word": "rooster", "wordID": 1208, "conditions": [12, 800, "a", 12000], "trial": 7, "serialpos": 8, "trial_type": "single-audio", "trial_index": 261, "time_elapsed": 1229278, "internal_node_id": "0.0-189.0"}}, {"uniqueid": "MTK0761:3FUI0JHJPY5WEOJ6B8Z60RGJ8CP338", "current_trial": 262, "dateTime": 1512713134623, "trialdata": {"rt": -1000, "stimulus": "/static/audio/wordpool/RABBIT.wav", "key_press": -1, "type": "PRES_AUD", "word": "rabbit", "wordID": 1151, "conditions": [12, 800, "a", 12000], "trial": 7, "serialpos": 9, "trial_type": "single-audio", "trial_index": 262, "time_elapsed": 1230945, "internal_node_id": "0.0-190.0"}}, {"uniqueid": "MTK0761:3FUI0JHJPY5WEOJ6B8Z60RGJ8CP338", "current_trial": 263, "dateTime": 1512713136627, "trialdata": {"rt": -1000, "stimulus": "/static/audio/wordpool/WASHER.wav", "key_press": -1, "type": "PRES_AUD", "word": "washer", "wordID": 1591, "conditions": [12, 800, "a", 12000], "trial": 7, "serialpos": 10, "trial_type": "single-audio", "trial_index": 263, "time_elapsed": 1232950, "internal_node_id": "0.0-191.0"}}, {"uniqueid": "MTK0761:3FUI0JHJPY5WEOJ6B8Z60RGJ8CP338", "current_trial": 264, "dateTime": 1512713138429, "trialdata": {"rt": -1000, "stimulus": "/static/audio/wordpool/FOREHEAD.wav", "key_press": -1, "type": "PRES_AUD", "word": "forehead", "wordID": 591, "conditions": [12, 800, "a", 12000], "trial": 7, "serialpos": 11, "trial_type": "single-audio", "trial_index": 264, "time_elapsed": 1234752, "internal_node_id": "0.0-192.0"}}, {"uniqueid": "MTK0761:3FUI0JHJPY5WEOJ6B8Z60RGJ8CP338", "current_trial": 265, "dateTime": 1512713139797, "trialdata": {"rt": -1, "stimulus": "", "key_press": -1, "type": "PRE_RECALL_DELAY", "trial_type": "single-stim", "trial_index": 265, "time_elapsed": 1236120, "internal_node_id": "0.0-193.0-0.0"}}, {"uniqueid": "MTK0761:3FUI0JHJPY5WEOJ6B8Z60RGJ8CP338", "current_trial": 266, "dateTime": 1512713140300, "trialdata": {"rt": -1000, "stimulus": "/static/audio/400Hz.wav", "key_press": -1, "type": "PRE_RECALL_ALERT", "trial_type": "single-audio", "trial_index": 266, "time_elapsed": 1236622, "internal_node_id": "0.0-194.0"}}, {"uniqueid": "MTK0761:3FUI0JHJPY5WEOJ6B8Z60RGJ8CP338", "current_trial": 267, "dateTime": 1512713200311, "trialdata": {"rt": [8576, 10371, 11875, 14131, 18732, 20818], "recwords": ["washer", "forehead", "lady", "victim", "rooster", "rabbit"], "type": "FREE_RECALL", "conditions": [12, 800, "a", 12000], "trial": 7, "trial_type": "free-recall", "trial_index": 267, "time_elapsed": 1296628, "internal_node_id": "0.0-195.0-0.0"}}, {"uniqueid": "MTK0761:3FUI0JHJPY5WEOJ6B8Z60RGJ8CP338", "current_trial": 268, "dateTime": 1512713218658, "trialdata": {"rt": 16344, "key_press": 13, "type": "INSTRUCTIONS", "trial_type": "text", "trial_index": 268, "time_elapsed": 1314981, "internal_node_id": "0.0-196.0"}}, {"uniqueid": "MTK0761:3FUI0JHJPY5WEOJ6B8Z60RGJ8CP338", "current_trial": 269, "dateTime": 1512713232666, "trialdata": {"rt": [2245, 4130, 5209, 6686, 8768, 10948], "responses": ["13", "17", "11", "15", "14", "21"], "num1": [4, 1, 5, 7, 5, 6, 8], "num2": [3, 7, 5, 2, 1, 8, 2], "num3": [6, 9, 1, 6, 8, 7, 2], "type": "DISTRACTOR", "conditions": [24, 1600, "v", 12000], "trial": 8, "trial_type": "math-distractor", "trial_index": 269, "time_elapsed": 1328988, "internal_node_id": "0.0-197.0"}}, {"uniqueid": "MTK0761:3FUI0JHJPY5WEOJ6B8Z60RGJ8CP338", "current_trial": 270, "dateTime": 1512713235673, "trialdata": {"rt": -1, "stimulus": "<p id=\"stim\">10</p>", "key_press": -1, "trial_type": "single-stim", "trial_index": 270, "time_elapsed": 1331995, "internal_node_id": "0.0-198.0-0.0"}}, {"uniqueid": "MTK0761:3FUI0JHJPY5WEOJ6B8Z60RGJ8CP338", "current_trial": 271, "dateTime": 1512713236678, "trialdata": {"rt": -1, "stimulus": "<p id=\"stim\">9</p>", "key_press": -1, "trial_type": "single-stim", "trial_index": 271, "time_elapsed": 1333000, "internal_node_id": "0.0-198.0-1.0"}}, {"uniqueid": "MTK0761:3FUI0JHJPY5WEOJ6B8Z60RGJ