{"condition": 0, "counterbalance": 962, "assignmentId": "3B4YI393VA34IMP0R218G7W7OLESSU", "workerId": "MTK0119", "hitId": "3FSEU3P2NR7ET8RG7MWWB3QV3XIRRV", "currenttrial": 625, "bonus": 0, "data": [{"uniqueid": "MTK0119:3B4YI393VA34IMP0R218G7W7OLESSU", "current_trial": 0, "dateTime": 1509169249379, "trialdata": {"rt": 1551, "key_press": 32, "type": "INSTRUCTIONS", "trial_type": "text", "trial_index": 0, "time_elapsed": 1556, "internal_node_id": "0.0-0.0"}}, {"uniqueid": "MTK0119:3B4YI393VA34IMP0R218G7W7OLESSU", "current_trial": 1, "dateTime": 1509169265113, "trialdata": {"rt": 15733, "key_press": 32, "type": "INSTRUCTIONS", "trial_type": "text", "trial_index": 1, "time_elapsed": 17291, "internal_node_id": "0.0-1.0"}}, {"uniqueid": "MTK0119:3B4YI393VA34IMP0R218G7W7OLESSU", "current_trial": 2, "dateTime": 1509169275633, "trialdata": {"rt": [10500], "responses": ["ocean"], "type": "AUDIO_TEST", "trial_type": "audio-test", "trial_index": 2, "time_elapsed": 27811, "internal_node_id": "0.0-2.0"}}, {"uniqueid": "MTK0119:3B4YI393VA34IMP0R218G7W7OLESSU", "current_trial": 3, "dateTime": 1509169281514, "trialdata": {"rt": [5873], "responses": ["crystal"], "type": "AUDIO_TEST", "trial_type": "audio-test", "trial_index": 3, "time_elapsed": 33692, "internal_node_id": "0.0-3.0"}}, {"uniqueid": "MTK0119:3B4YI393VA34IMP0R218G7W7OLESSU", "current_trial": 4, "dateTime": 1509169285810, "trialdata": {"rt": [4288], "responses": ["spice"], "type": "AUDIO_TEST", "trial_type": "audio-test", "trial_index": 4, "time_elapsed": 37988, "internal_node_id": "0.0-4.0"}}, {"uniqueid": "MTK0119:3B4YI393VA34IMP0R218G7W7OLESSU", "current_trial": 5, "dateTime": 1509169291311, "trialdata": {"rt": 4749, "key_press": 32, "type": "INSTRUCTIONS", "trial_type": "text", "trial_index": 5, "time_elapsed": 43489, "internal_node_id": "0.0-5.0"}}, {"uniqueid": "MTK0119:3B4YI393VA34IMP0R218G7W7OLESSU", "current_trial": 6, "dateTime": 1509169346510, "trialdata": {"rt": 55197, "key_press": 32, "type": "INSTRUCTIONS", "trial_type": "text", "trial_index": 6, "time_elapsed": 98688, "internal_node_id": "0.0-6.0"}}, {"uniqueid": "MTK0119:3B4YI393VA34IMP0R218G7W7OLESSU", "current_trial": 7, "dateTime": 1509169365572, "trialdata": {"rt": 19060, "key_press": 32, "type": "INSTRUCTIONS", "trial_type": "text", "trial_index": 7, "time_elapsed": 117750, "internal_node_id": "0.0-7.0"}}, {"uniqueid": "MTK0119:3B4YI393VA34IMP0R218G7W7OLESSU", "current_trial": 8, "dateTime": 1509169375255, "trialdata": {"rt": 9683, "key_press": 32, "type": "INSTRUCTIONS", "trial_type": "text", "trial_index": 8, "time_elapsed": 127433, "internal_node_id": "0.0-8.0"}}, {"uniqueid": "MTK0119:3B4YI393VA34IMP0R218G7W7OLESSU", "current_trial": 9, "dateTime": 1509169394266, "trialdata": {"rt": [5315, 9927, 14310, 16553], "responses": ["16", "19", "18", "16"], "num1": [5, 5, 5, 8, 2], "num2": [7, 9, 4, 4, 8], "num3": [4, 5, 9, 4, 6], "type": "DISTRACTOR", "conditions": [18, 1200, "v", 18000], "trial": 0, "trial_type": "math-distractor", "trial_index": 9, "time_elapsed": 146444, "internal_node_id": "0.0-9.0"}}, {"uniqueid": "MTK0119:3B4YI393VA34IMP0R218G7W7OLESSU", "current_trial": 10, "dateTime": 1509169397271, "trialdata": {"rt": -1, "stimulus": "<p id=\"stim\">10</p>", "key_press": -1, "trial_type": "single-stim", "trial_index": 10, "time_elapsed": 149448, "internal_node_id": "0.0-10.0-0.0"}}, {"uniqueid": "MTK0119:3B4YI393VA34IMP0R218G7W7OLESSU", "current_trial": 11, "dateTime": 1509169398275, "trialdata": {"rt": -1, "stimulus": "<p id=\"stim\">9</p>", "key_press": -1, "trial_type": "single-stim", "trial_index": 11, "time_elapsed": 150453, "internal_node_id": "0.0-10.0-1.0"}}, {"uniqueid": "MTK0119:3B4YI393VA34IMP0R218G7W7OLESSU", "current_trial": 12, "dateTime": 1509169399276, "trialdata": {"rt": -1, "stimulus": "<p id=\"stim\">8</p>", "key_press": -1, "trial_type": "single-stim", "trial_index": 12, "time_elapsed": 151454, "internal_node_id": "0.0-10.0-2.0"}}, {"uniqueid": "MTK0119:3B4YI393VA34IMP0R218G7W7OLESSU", "current_trial": 13, "dateTime": 1509169400277, "trialdata": {"rt": -1, "stimulus": "<p id=\"stim\">7</p>", "key_press": -1, "trial_type": "single-stim", "trial_index": 13, "time_elapsed": 152455, "internal_node_id": "0.0-10.0-3.0"}}, {"uniqueid": "MTK0119:3B4YI393VA34IMP0R218G7W7OLESSU", "current_trial": 14, "dateTime": 1509169401279, "trialdata": {"rt": -1, "stimulus": "<p id=\"stim\">6</p>", "key_press": -1, "trial_type": "single-stim", "trial_index": 14, "time_elapsed": 153457, "internal_node_id": "0.0-10.0-4.0"}}, {"uniqueid": "MTK0119:3B4YI393VA34IMP0R218G7W7OLESSU", "current_trial": 15, "dateTime": 1509169402281, "trialdata": {"rt": -1, "stimulus": "<p id=\"stim\">5</p>", "key_press": -1, "trial_type": "single-stim", "trial_index": 15, "time_elapsed": 154459, "internal_node_id": "0.0-10.0-5.0"}}, {"uniqueid": "MTK0119:3B4YI393VA34IMP0R218G7W7OLESSU", "current_trial": 16, "dateTime": 1509169403281, "trialdata": {"rt": -1, "stimulus": "<p id=\"stim\">4</p>", "key_press": -1, "trial_type": "single-stim", "trial_index": 16, "time_elapsed": 155459, "internal_node_id": "0.0-10.0-6.0"}}, {"uniqueid": "MTK0119:3B4YI393VA34IMP0R218G7W7OLESSU", "current_trial": 17, "dateTime": 1509169404287, "trialdata": {"rt": -1, "stimulus": "<p id=\"stim\">3</p>", "key_press": -1, "trial_type": "single-stim", "trial_index": 17, "time_elapsed": 156465, "internal_node_id": "0.0-10.0-7.0"}}, {"uniqueid": "MTK0119:3B4YI393VA34IMP0R218G7W7OLESSU", "current_trial": 18, "dateTime": 1509169405289, "trialdata": {"rt": -1, "stimulus": "<p id=\"stim\">2</p>", "key_press": -1, "trial_type": "single-stim", "trial_index": 18, "time_elapsed": 157466, "internal_node_id": "0.0-10.0-8.0"}}, {"uniqueid": "MTK0119:3B4YI393VA34IMP0R218G7W7OLESSU", "current_trial": 19, "dateTime": 1509169406290, "trialdata": {"rt": -1, "stimulus": "<p id=\"stim\">1</p>", "key_press": -1, "trial_type": "single-stim", "trial_index": 19, "time_elapsed": 158468, "internal_node_id": "0.0-10.0-9.0"}}, {"uniqueid": "MTK0119:3B4YI393VA34IMP0R218G7W7OLESSU", "current_trial": 20, "dateTime": 1509169407793, "trialdata": {"rt": -1, "stimulus": "<p id=\"stim\">+</p>", "key_press": -1, "type": "FIXATION", "trial_type": "single-stim", "trial_index": 20, "time_elapsed": 159971, "internal_node_id": "0.0-11.0-0.0"}}, {"uniqueid": "MTK0119:3B4YI393VA34IMP0R218G7W7OLESSU", "current_trial": 21, "dateTime": 1509169408997, "trialdata": {"rt": -1, "stimulus": "<p id=\"stim\">MOP</p>", "key_press": -1, "type": "PRES_VIS", "word": "mop", "wordID": 915, "conditions": [18, 1200, "v", 18000], "trial": 0, "serialpos": 0, "trial_type": "single-stim", "trial_index": 21, "time_elapsed": 161175, "internal_node_id": "0.0-12.0"}}, {"uniqueid": "MTK0119:3B4YI393VA34IMP0R218G7W7OLESSU", "current_trial": 22, "dateTime": 1509169411067, "trialdata": {"rt": -1, "stimulus": "<p id=\"stim\">MATCH</p>", "key_press": -1, "type": "PRES_VIS", "word": "match", "wordID": 877, "conditions": [18, 1200, "v", 18000], "trial": 0, "serialpos": 1, "trial_type": "single-stim", "trial_index": 22, "time_elapsed": 163245, "internal_node_id": "0.0-13.0"}}, {"uniqueid": "MTK0119:3B4YI393VA34IMP0R218G7W7OLESSU", "current_trial": 23, "dateTime": 1509169413071, "trialdata": {"rt": -1, "stimulus": "<p id=\"stim\">ICEBERG</p>", "key_press": -1, "type": "PRES_VIS", "word": "iceberg", "wordID": 730, "conditions": [18, 1200, "v", 18000], "trial": 0, "serialpos": 2, "trial_type": "single-stim", "trial_index": 23, "time_elapsed": 165249, "internal_node_id": "0.0-14.0"}}, {"uniqueid": "MTK0119:3B4YI393VA34IMP0R218G7W7OLESSU", "current_trial": 24, "dateTime": 1509169415412, "trialdata": {"rt": -1, "stimulus": "<p id=\"stim\">TWEEZERS</p>", "key_press": -1, "type": "PRES_VIS", "word": "tweezers", "wordID": 1525, "conditions": [18, 1200, "v", 18000], "trial": 0, "serialpos": 3, "trial_type": "single-stim", "trial_index": 24, "time_elapsed": 167590, "internal_node_id": "0.0-15.0"}}, {"uniqueid": "MTK0119:3B4YI393VA34IMP0R218G7W7OLESSU", "current_trial": 25, "dateTime": 1509169417527, "trialdata": {"rt": -1, "stimulus": "<p id=\"stim\">GRILL</p>", "key_press": -1, "type": "PRES_VIS", "word": "grill", "wordID": 660, "conditions": [18, 1200, "v", 18000], "trial": 0, "serialpos": 4, "trial_type": "single-stim", "trial_index": 25, "time_elapsed": 169705, "internal_node_id": "0.0-16.0"}}, {"uniqueid": "MTK0119:3B4YI393VA34IMP0R218G7W7OLESSU", "current_trial": 26, "dateTime": 1509169419741, "trialdata": {"rt": -1, "stimulus": "<p id=\"stim\">UMPIRE</p>", "key_press": -1, "type": "PRES_VIS", "word": "umpire", "wordID": 1534, "conditions": [18, 1200, "v", 18000], "trial": 0, "serialpos": 5, "trial_type": "single-stim", "trial_index": 26, "time_elapsed": 171919, "internal_node_id": "0.0-17.0"}}, {"uniqueid": "MTK0119:3B4YI393VA34IMP0R218G7W7OLESSU", "current_trial": 27, "dateTime": 1509169422023, "trialdata": {"rt": -1, "stimulus": "<p id=\"stim\">STUDENT</p>", "key_press": -1, "type": "PRES_VIS", "word": "student", "wordID": 1394, "conditions": [18, 1200, "v", 18000], "trial": 0, "serialpos": 6, "trial_type": "single-stim", "trial_index": 27, "time_elapsed": 174201, "internal_node_id": "0.0-18.0"}}, {"uniqueid": "MTK0119:3B4YI393VA34IMP0R218G7W7OLESSU", "current_trial": 28, "dateTime": 1509169424127, "trialdata": {"rt": -1, "stimulus": "<p id=\"stim\">CHIPMUNK</p>", "key_press": -1, "type": "PRES_VIS", "word": "chipmunk", "wordID": 303, "conditions": [18, 1200, "v", 18000], "trial": 0, "serialpos": 7, "trial_type": "single-stim", "trial_index": 28, "time_elapsed": 176305, "internal_node_id": "0.0-19.0"}}, {"uniqueid": "MTK0119:3B4YI393VA34IMP0R218G7W7OLESSU", "current_trial": 29, "dateTime": 1509169426450, "trialdata": {"rt": -1, "stimulus": "<p id=\"stim\">RADISH</p>", "key_press": -1, "type": "PRES_VIS", "word": "radish", "wordID": 1157, "conditions": [18, 1200, "v", 18000], "trial": 0, "serialpos": 8, "trial_type": "single-stim", "trial_index": 29, "time_elapsed": 178628, "internal_node_id": "0.0-20.0"}}, {"uniqueid": "MTK0119:3B4YI393VA34IMP0R218G7W7OLESSU", "current_trial": 30, "dateTime": 1509169428680, "trialdata": {"rt": -1, "stimulus": "<p id=\"stim\">BADGE</p>", "key_press": -1, "type": "PRES_VIS", "word": "badge", "wordID": 67, "conditions": [18, 1200, "v", 18000], "trial": 0, "serialpos": 9, "trial_type": "single-stim", "trial_index": 30, "time_elapsed": 180858, "internal_node_id": "0.0-21.0"}}, {"uniqueid": "MTK0119:3B4YI393VA34IMP0R218G7W7OLESSU", "current_trial": 31, "dateTime": 1509169430866, "trialdata": {"rt": -1, "stimulus": "<p id=\"stim\">BLUEPRINT</p>", "key_press": -1, "type": "PRES_VIS", "word": "blueprint", "wordID": 141, "conditions": [18, 1200, "v", 18000], "trial": 0, "serialpos": 10, "trial_type": "single-stim", "trial_index": 31, "time_elapsed": 183043, "internal_node_id": "0.0-22.0"}}, {"uniqueid": "MTK0119:3B4YI393VA34IMP0R218G7W7OLESSU", "current_trial": 32, "dateTime": 1509169432944, "trialdata": {"rt": -1, "stimulus": "<p id=\"stim\">TOURIST</p>", "key_press": -1, "type": "PRES_VIS", "word": "tourist", "wordID": 1487, "conditions": [18, 1200, "v", 18000], "trial": 0, "serialpos": 11, "trial_type": "single-stim", "trial_index": 32, "time_elapsed": 185121, "internal_node_id": "0.0-23.0"}}, {"uniqueid": "MTK0119:3B4YI393VA34IMP0R218G7W7OLESSU", "current_trial": 33, "dateTime": 1509169435208, "trialdata": {"rt": -1, "stimulus": "<p id=\"stim\">CATCHER</p>", "key_press": -1, "type": "PRES_VIS", "word": "catcher", "wordID": 257, "conditions": [18, 1200, "v", 18000], "trial": 0, "serialpos": 12, "trial_type": "single-stim", "trial_index": 33, "time_elapsed": 187386, "internal_node_id": "0.0-24.0"}}, {"uniqueid": "MTK0119:3B4YI393VA34IMP0R218G7W7OLESSU", "current_trial": 34, "dateTime": 1509169437320, "trialdata": {"rt": -1, "stimulus": "<p id=\"stim\">JELLO</p>", "key_press": -1, "type": "PRES_VIS", "word": "jello", "wordID": 753, "conditions": [18, 1200, "v", 18000], "trial": 0, "serialpos": 13, "trial_type": "single-stim", "trial_index": 34, "time_elapsed": 189498, "internal_node_id": "0.0-25.0"}}, {"uniqueid": "MTK0119:3B4YI393VA34IMP0R218G7W7OLESSU", "current_trial": 35, "dateTime": 1509169439681, "trialdata": {"rt": -1, "stimulus": "<p id=\"stim\">LUMBER</p>", "key_press": -1, "type": "PRES_VIS", "word": "lumber", "wordID": 847, "conditions": [18, 1200, "v", 18000], "trial": 0, "serialpos": 14, "trial_type": "single-stim", "trial_index": 35, "time_elapsed": 191859, "internal_node_id": "0.0-26.0"}}, {"uniqueid": "MTK0119:3B4YI393VA34IMP0R218G7W7OLESSU", "current_trial": 36, "dateTime": 1509169441999, "trialdata": {"rt": -1, "stimulus": "<p id=\"stim\">PEBBLE</p>", "key_press": -1, "type": "PRES_VIS", "word": "pebble", "wordID": 1034, "conditions": [18, 1200, "v", 18000], "trial": 0, "serialpos": 15, "trial_type": "single-stim", "trial_index": 36, "time_elapsed": 194177, "internal_node_id": "0.0-27.0"}}, {"uniqueid": "MTK0119:3B4YI393VA34IMP0R218G7W7OLESSU", "current_trial": 37, "dateTime": 1509169444080, "trialdata": {"rt": -1, "stimulus": "<p id=\"stim\">CRAB</p>", "key_press": -1, "type": "PRES_VIS", "word": "crab", "wordID": 396, "conditions": [18, 1200, "v", 18000], "trial": 0, "serialpos": 16, "trial_type": "single-stim", "trial_index": 37, "time_elapsed": 196258, "internal_node_id": "0.0-28.0"}}, {"uniqueid": "MTK0119:3B4YI393VA34IMP0R218G7W7OLESSU", "current_trial": 38, "dateTime": 1509169446312, "trialdata": {"rt": -1, "stimulus": "<p id=\"stim\">GAZELLE</p>", "key_press": -1, "type": "PRES_VIS", "word": "gazelle", "wordID": 627, "conditions": [18, 1200, "v", 18000], "trial": 0, "serialpos": 17, "trial_type": "single-stim", "trial_index": 38, "time_elapsed": 198490, "internal_node_id": "0.0-29.0"}}, {"uniqueid": "MTK0119:3B4YI393VA34IMP0R218G7W7OLESSU", "current_trial": 39, "dateTime": 1509169448610, "trialdata": {"rt": -1, "stimulus": "", "key_press": -1, "type": "PRE_RECALL_DELAY", "trial_type": "single-stim", "trial_index": 39, "time_elapsed": 200788, "internal_node_id": "0.0-30.0-0.0"}}, {"uniqueid": "MTK0119:3B4YI393VA34IMP0R218G7W7OLESSU", "current_trial": 40, "dateTime": 1509169449153, "trialdata": {"rt": -1000, "stimulus": "/static/audio/400Hz.wav", "key_press": -1, "type": "PRE_RECALL_ALERT", "trial_type": "single-audio", "trial_index": 40, "time_elapsed": 201331, "internal_node_id": "0.0-31.0"}}, {"uniqueid": "MTK0119:3B4YI393VA34IMP0R218G7W7OLESSU", "current_trial": 41, "dateTime": 1509169509165, "trialdata": {"rt": [4003, 5366, 8693, 10451, 13850, 16518, 23331, 37201], "recwords": ["umpire", "tourist", "crab", "gazelle", "match", "leather", "crab", "mop"], "type": "FREE_RECALL", "conditions": [18, 1200, "v", 18000], "trial": 0, "trial_type": "free-recall", "trial_index": 41, "time_elapsed": 261335, "internal_node_id": "0.0-32.0-0.0"}}, {"uniqueid": "MTK0119:3B4YI393VA34IMP0R218G7W7OLESSU", "current_trial": 42, "dateTime": 1509169512634, "trialdata": {"rt": 1460, "key_press": 13, "type": "INSTRUCTIONS", "trial_type": "text", "trial_index": 42, "time_elapsed": 264812, "internal_node_id": "0.0-33.0"}}, {"uniqueid": "MTK0119:3B4YI393VA34IMP0R218G7W7OLESSU", "current_trial": 43, "dateTime": 1509169532638, "trialdata": {"rt": [3836, 5824, 7342, 10271, 12913, 15041, 17089], "responses": ["21", "18", "12", "22", "11", "18", "18"], "num1": [7, 4, 7, 7, 3, 5, 9, 1], "num2": [7, 6, 3, 7, 7, 8, 3, 3], "num3": [7, 8, 2, 8, 1, 5, 6, 3], "type": "DISTRACTOR", "conditions": [18, 1200, "a", 18000], "trial": 1, "trial_type": "math-distractor", "trial_index": 43, "time_elapsed": 284816, "internal_node_id": "0.0-34.0"}}, {"uniqueid": "MTK0119:3B4YI393VA34IMP0R218G7W7OLESSU", "current_trial": 44, "dateTime": 1509169535647, "trialdata": {"rt": -1, "stimulus": "<p id=\"stim\">10</p>", "key_press": -1, "trial_type": "single-stim", "trial_index": 44, "time_elapsed": 287825, "internal_node_id": "0.0-35.0-0.0"}}, {"uniqueid": "MTK0119:3B4YI393VA34IMP0R218G7W7OLESSU", "current_trial": 45, "dateTime": 1509169536649, "trialdata": {"rt": -1, "stimulus": "<p id=\"stim\">9</p>", "key_press": -1, "trial_type": "single-stim", "trial_index": 45, "time_elapsed": 288827, "internal_node_id": "0.0-35.0-1.0"}}, {"uniqueid": "MTK0119:3B4YI393VA34IMP0R218G7W7OLESSU", "current_trial": 46, "dateTime": 1509169537653, "trialdata": {"rt": -1, "stimulus": "<p id=\"stim\">8</p>", "key_press": -1, "trial_type": "single-stim", "trial_index": 46, "time_elapsed": 289831, "internal_node_id": "0.0-35.0-2.0"}}, {"uniqueid": "MTK0119:3B4YI393VA34IMP0R218G7W7OLESSU", "current_trial": 47, "dateTime": 1509169538658, "trialdata": {"rt": -1, "stimulus": "<p id=\"stim\">7</p>", "key_press": -1, "trial_type": "single-stim", "trial_index": 47, "time_elapsed": 290836, "internal_node_id": "0.0-35.0-3.0"}}, {"uniqueid": "MTK0119:3B4YI393VA34IMP0R218G7W7OLESSU", "current_trial": 48, "dateTime": 1509169539661, "trialdata": {"rt": -1, "stimulus": "<p id=\"stim\">6</p>", "key_press": -1, "trial_type": "single-stim", "trial_index": 48, "time_elapsed": 291839, "internal_node_id": "0.0-35.0-4.0"}}, {"uniqueid": "MTK0119:3B4YI393VA34IMP0R218G7W7OLESSU", "current_trial": 49, "dateTime": 1509169540661, "trialdata": {"rt": -1, "stimulus": "<p id=\"stim\">5</p>", "key_press": -1, "trial_type": "single-stim", "trial_index": 49, "time_elapsed": 292839, "internal_node_id": "0.0-35.0-5.0"}}, {"uniqueid": "MTK0119:3B4YI393VA34IMP0R218G7W7OLESSU", "current_trial": 50, "dateTime": 1509169541663, "trialdata": {"rt": -1, "stimulus": "<p id=\"stim\">4</p>", "key_press": -1, "trial_type": "single-stim", "trial_index": 50, "time_elapsed": 293841, "internal_node_id": "0.0-35.0-6.0"}}, {"uniqueid": "MTK0119:3B4YI393VA34IMP0R218G7W7OLESSU", "current_trial": 51, "dateTime": 1509169542668, "trialdata": {"rt": -1, "stimulus": "<p id=\"stim\">3</p>", "key_press": -1, "trial_type": "single-stim", "trial_index": 51, "time_elapsed": 294845, "internal_node_id": "0.0-35.0-7.0"}}, {"uniqueid": "MTK0119:3B4YI393VA34IMP0R218G7W7OLESSU", "current_trial": 52, "dateTime": 1509169543672, "trialdata": {"rt": -1, "stimulus": "<p id=\"stim\">2</p>", "key_press": -1, "trial_type": "single-stim", "trial_index": 52, "time_elapsed": 295850, "internal_node_id": "0.0-35.0-8.0"}}, {"uniqueid": "MTK0119:3B4YI393VA34IMP0R218G7W7OLESSU", "current_trial": 53, "dateTime": 1509169544677, "trialdata": {"rt": -1, "stimulus": "<p id=\"stim\">1</p>", "key_press": -1, "trial_type": "single-stim", "trial_index": 53, "time_elapsed": 296855, "internal_node_id": "0.0-35.0-9.0"}}, {"uniqueid": "MTK0119:3B4YI393VA34IMP0R218G7W7OLESSU", "current_trial": 54, "dateTime": 1509169546180, "trialdata": {"rt": -1, "stimulus": "<p id=\"stim\">+</p>", "key_press": -1, "type": "FIXATION", "trial_type": "single-stim", "trial_index": 54, "time_elapsed": 298358, "internal_node_id": "0.0-36.0-0.0"}}, {"uniqueid": "MTK0119:3B4YI393VA34IMP0R218G7W7OLESSU", "current_trial": 55, "dateTime": 1509169548205, "trialdata": {"rt": -1000, "stimulus": "/static/audio/wordpool/BROOK.wav", "key_press": -1, "type": "PRES_AUD", "word": "brook", "wordID": 176, "conditions": [18, 1200, "a", 18000], "trial": 1, "serialpos": 0, "trial_type": "single-audio", "trial_index": 55, "time_elapsed": 300383, "internal_node_id": "0.0-37.0"}}, {"uniqueid": "MTK0119:3B4YI393VA34IMP0R218G7W7OLESSU", "current_trial": 56, "dateTime": 1509169550581, "trialdata": {"rt": -1000, "stimulus": "/static/audio/wordpool/FOX.wav", "key_press": -1, "type": "PRES_AUD", "word": "fox", "wordID": 597, "conditions": [18, 1200, "a", 18000], "trial": 1, "serialpos": 1, "trial_type": "single-audio", "trial_index": 56, "time_elapsed": 302758, "internal_node_id": "0.0-38.0"}}, {"uniqueid": "MTK0119:3B4YI393VA34IMP0R218G7W7OLESSU", "current_trial": 57, "dateTime": 1509169552920, "trialdata": {"rt": -1000, "stimulus": "/static/audio/wordpool/TREAT.wav", "key_press": -1, "type": "PRES_AUD", "word": "treat", "wordID": 1500, "conditions": [18, 1200, "a", 18000], "trial": 1, "serialpos": 2, "trial_type": "single-audio", "trial_index": 57, "time_elapsed": 305098, "internal_node_id": "0.0-39.0"}}, {"uniqueid": "MTK0119:3B4YI393VA34IMP0R218G7W7OLESSU", "current_trial": 58, "dateTime": 1509169555054, "trialdata": {"rt": -1000, "stimulus": "/static/audio/wordpool/CRATER.wav", "key_press": -1, "type": "PRES_AUD", "word": "crater", "wordID": 399, "conditions": [18, 1200, "a", 18000], "trial": 1, "serialpos": 3, "trial_type": "single-audio", "trial_index": 58, "time_elapsed": 307231, "internal_node_id": "0.0-40.0"}}, {"uniqueid": "MTK0119:3B4YI393VA34IMP0R218G7W7OLESSU", "current_trial": 59, "dateTime": 1509169557284, "trialdata": {"rt": -1000, "stimulus": "/static/audio/wordpool/ATOM.wav", "key_press": -1, "type": "PRES_AUD", "word": "atom", "wordID": 54, "conditions": [18, 1200, "a", 18000], "trial": 1, "serialpos": 4, "trial_type": "single-audio", "trial_index": 59, "time_elapsed": 309461, "internal_node_id": "0.0-41.0"}}, {"uniqueid": "MTK0119:3B4YI393VA34IMP0R218G7W7OLESSU", "current_trial": 60, "dateTime": 1509169559301, "trialdata": {"rt": -1000, "stimulus": "/static/audio/wordpool/PENGUIN.wav", "key_press": -1, "type": "PRES_AUD", "word": "penguin", "wordID": 1043, "conditions": [18, 1200, "a", 18000], "trial": 1, "serialpos": 5, "trial_type": "single-audio", "trial_index": 60, "time_elapsed": 311479, "internal_node_id": "0.0-42.0"}}, {"uniqueid": "MTK0119:3B4YI393VA34IMP0R218G7W7OLESSU", "current_trial": 61, "dateTime": 1509169561543, "trialdata": {"rt": -1000, "stimulus": "/static/audio/wordpool/SALAD.wav", "key_press": -1, "type": "PRES_AUD", "word": "salad", "wordID": 1223, "conditions": [18, 1200, "a", 18000], "trial": 1, "serialpos": 6, "trial_type": "single-audio", "trial_index": 61, "time_elapsed": 313720, "internal_node_id": "0.0-43.0"}}, {"uniqueid": "MTK0119:3B4YI393VA34IMP0R218G7W7OLESSU", "current_trial": 62, "dateTime": 1509169563922, "trialdata": {"rt": -1000, "stimulus": "/static/audio/wordpool/FLAG.wav", "key_press": -1, "type": "PRES_AUD", "word": "flag", "wordID": 572, "conditions": [18, 1200, "a", 18000], "trial": 1, "serialpos": 7, "trial_type": "single-audio", "trial_index": 62, "time_elapsed": 316100, "internal_node_id": "0.0-44.0"}}, {"uniqueid": "MTK0119:3B4YI393VA34IMP0R218G7W7OLESSU", "current_trial": 63, "dateTime": 1509169566001, "trialdata": {"rt": -1000, "stimulus": "/static/audio/wordpool/CAFE.wav", "key_press": -1, "type": "PRES_AUD", "word": "cafe", "wordID": 215, "conditions": [18, 1200, "a", 18000], "trial": 1, "serialpos": 8, "trial_type": "single-audio", "trial_index": 63, "time_elapsed": 318179, "internal_node_id": "0.0-45.0"}}, {"uniqueid": "MTK0119:3B4YI393VA34IMP0R218G7W7OLESSU", "current_trial": 64, "dateTime": 1509169568229, "trialdata": {"rt": -1000, "stimulus": "/static/audio/wordpool/KEEPER.wav", "key_press": -1, "type": "PRES_AUD", "word": "keeper", "wordID": 768, "conditions": [18, 1200, "a", 18000], "trial": 1, "serialpos": 9, "trial_type": "single-audio", "trial_index": 64, "time_elapsed": 320406, "internal_node_id": "0.0-46.0"}}, {"uniqueid": "MTK0119:3B4YI393VA34IMP0R218G7W7OLESSU", "current_trial": 65, "dateTime": 1509169570328, "trialdata": {"rt": -1000, "stimulus": "/static/audio/wordpool/CRUTCH.wav", "key_press": -1, "type": "PRES_AUD", "word": "crutch", "wordID": 416, "conditions": [18, 1200, "a", 18000], "trial": 1, "serialpos": 10, "trial_type": "single-audio", "trial_index": 65, "time_elapsed": 322506, "internal_node_id": "0.0-47.0"}}, {"uniqueid": "MTK0119:3B4YI393VA34IMP0R218G7W7OLESSU", "current_trial": 66, "dateTime": 1509169572732, "trialdata": {"rt": -1000, "stimulus": "/static/audio/wordpool/NOTEBOOK.wav", "key_press": -1, "type": "PRES_AUD", "word": "notebook", "wordID": 958, "conditions": [18, 1200, "a", 18000], "trial": 1, "serialpos": 11, "trial_type": "single-audio", "trial_index": 66, "time_elapsed": 324910, "internal_node_id": "0.0-48.0"}}, {"uniqueid": "MTK0119:3B4YI393VA34IMP0R218G7W7OLESSU", "current_trial": 67, "dateTime": 1509169574946, "trialdata": {"rt": -1000, "stimulus": "/static/audio/wordpool/JAPAN.wav", "key_press": -1, "type": "PRES_AUD", "word": "japan", "wordID": 748, "conditions": [18, 1200, "a", 18000], "trial": 1, "serialpos": 12, "trial_type": "single-audio", "trial_index": 67, "time_elapsed": 327124, "internal_node_id": "0.0-49.0"}}, {"uniqueid": "MTK0119:3B4YI393VA34IMP0R218G7W7OLESSU", "current_trial": 68, "dateTime": 1509169577052, "trialdata": {"rt": -1000, "stimulus": "/static/audio/wordpool/FEMALE.wav", "key_press": -1, "type": "PRES_AUD", "word": "female", "wordID": 558, "conditions": [18, 1200, "a", 18000], "trial": 1, "serialpos": 13, "trial_type": "single-audio", "trial_index": 68, "time_elapsed": 329208, "internal_node_id": "0.0-50.0"}}, {"uniqueid": "MTK0119:3B4YI393VA34IMP0R218G7W7OLESSU", "current_trial": 69, "dateTime": 1509169579374, "trialdata": {"rt": -1000, "stimulus": "/static/audio/wordpool/HEDGE.wav", "key_press": -1, "type": "PRES_AUD", "word": "hedge", "wordID": 698, "conditions": [18, 1200, "a", 18000], "trial": 1, "serialpos": 14, "trial_type": "single-audio", "trial_index": 69, "time_elapsed": 331552, "internal_node_id": "0.0-51.0"}}, {"uniqueid": "MTK0119:3B4YI393VA34IMP0R218G7W7OLESSU", "current_trial": 70, "dateTime": 1509169581404, "trialdata": {"rt": -1000, "stimulus": "/static/audio/wordpool/FLIPPER.wav", "key_press": -1, "type": "PRES_AUD", "word": "flipper", "wordID": 579, "conditions": [18, 1200, "a", 18000], "trial": 1, "serialpos": 15, "trial_type": "single-audio", "trial_index": 70, "time_elapsed": 333582, "internal_node_id": "0.0-52.0"}}, {"uniqueid": "MTK0119:3B4YI393VA34IMP0R218G7W7OLESSU", "current_trial": 71, "dateTime": 1509169583729, "trialdata": {"rt": -1000, "stimulus": "/static/audio/wordpool/LAVA.wav", "key_press": -1, "type": "PRES_AUD", "word": "lava", "wordID": 803, "conditions": [18, 1200, "a", 18000], "trial": 1, "serialpos": 16, "trial_type": "single-audio", "trial_index": 71, "time_elapsed": 335906, "internal_node_id": "0.0-53.0"}}, {"uniqueid": "MTK0119:3B4YI393VA34IMP0R218G7W7OLESSU", "current_trial": 72, "dateTime": 1509169585889, "trialdata": {"rt": -1000, "stimulus": "/static/audio/wordpool/HAWK.wav", "key_press": -1, "type": "PRES_AUD", "word": "hawk", "wordID": 691, "conditions": [18, 1200, "a", 18000], "trial": 1, "serialpos": 17, "trial_type": "single-audio", "trial_index": 72, "time_elapsed": 338067, "internal_node_id": "0.0-54.0"}}, {"uniqueid": "MTK0119:3B4YI393VA34IMP0R218G7W7OLESSU", "current_trial": 73, "dateTime": 1509169587225, "trialdata": {"rt": -1, "stimulus": "", "key_press": -1, "type": "PRE_RECALL_DELAY", "trial_type": "single-stim", "trial_index": 73, "time_elapsed": 339403, "internal_node_id": "0.0-55.0-0.0"}}, {"uniqueid": "MTK0119:3B4YI393VA34IMP0R218G7W7OLESSU", "current_trial": 74, "dateTime": 1509169587730, "trialdata": {"rt": -1000, "stimulus": "/static/audio/400Hz.wav", "key_press": -1, "type": "PRE_RECALL_ALERT", "trial_type": "single-audio", "trial_index": 74, "time_elapsed": 339908, "internal_node_id": "0.0-56.0"}}, {"uniqueid": "MTK0119:3B4YI393VA34IMP0R218G7W7OLESSU", "current_trial": 75, "dateTime": 1509169647739, "trialdata": {"rt": [1997, 2756, 4266, 5838, 7263, 8480, 10681, 15835, 40860, 48679], "recwords": ["brook", "fox", "flag", "traitor", "lava", "japan", "female", "mop", "feature", "crate"], "type": "FREE_RECALL", "conditions": [18, 1200, "a", 18000], "trial": 1, "trial_type": "free-recall", "trial_index": 75, "time_elapsed": 399913, "internal_node_id": "0.0-57.0-0.0"}}, {"uniqueid": "MTK0119:3B4YI393VA34IMP0R218G7W7OLESSU", "current_trial": 76, "dateTime": 1509169652499, "trialdata": {"rt": 2755, "key_press": 13, "type": "INSTRUCTIONS", "trial_type": "text", "trial_index": 76, "time_elapsed": 404673, "internal_node_id": "0.0-58.0"}}, {"uniqueid": "MTK0119:3B4YI393VA34IMP0R218G7W7OLESSU", "current_trial": 77, "dateTime": 1509169665504, "trialdata": {"rt": [6546], "responses": ["9"], "num1": [2, 7], "num2": [1, 9], "num3": [6, 5], "type": "DISTRACTOR", "conditions": [24, 1600, "v", 12000], "trial": 2, "trial_type": "math-distractor", "trial_index": 77, "time_elapsed": 417682, "internal_node_id": "0.0-59.0"}}, {"uniqueid": "MTK0119:3B4YI393VA34IMP0R218G7W7OLESSU", "current_trial": 78, "dateTime": 1509169668522, "trialdata": {"rt": -1, "stimulus": "<p id=\"stim\">10</p>", "key_press": -1, "trial_type": "single-stim", "trial_index": 78, "time_elapsed": 420700, "internal_node_id": "0.0-60.0-0.0"}}, {"uniqueid": "MTK0119:3B4YI393VA34IMP0R218G7W7OLESSU", "current_trial": 79, "dateTime": 1509169669525, "trialdata": {"rt": -1, "stimulus": "<p id=\"stim\">9</p>", "key_press": -1, "trial_type": "single-stim", "trial_index": 79, "time_elapsed": 421703, "internal_node_id": "0.0-60.0-1.0"}}, {"uniqueid": "MTK0119:3B4YI393VA34IMP0R218G7W7OLESSU", "current_trial": 80, "dateTime": 1509169670530, "trialdata": {"rt": -1, "stimulus": "<p id=\"stim\">8</p>", "key_press": -1, "trial_type": "single-stim", "trial_index": 80, "time_elapsed": 422708, "internal_node_id": "0.0-60.0-2.0"}}, {"uniqueid": "MTK0119:3B4YI393VA34IMP0R218G7W7OLESSU", "current_trial": 81, "dateTime": 1509169671533, "trialdata": {"rt": -1, "stimulus": "<p id=\"stim\">7</p>", "key_press": -1, "trial_type": "single-stim", "trial_index": 81, "time_elapsed": 423711, "internal_node_id": "0.0-60.0-3.0"}}, {"uniqueid": "MTK0119:3B4YI393VA34IMP0R218G7W7OLESSU", "current_trial": 82, "dateTime": 1509169672534, "trialdata": {"rt": -1, "stimulus": "<p id=\"stim\">6</p>", "key_press": -1, "trial_type": "single-stim", "trial_index": 82, "time_elapsed": 424712, "internal_node_id": "0.0-60.0-4.0"}}, {"uniqueid": "MTK0119:3B4YI393VA34IMP0R218G7W7OLESSU", "current_trial": 83, "dateTime": 1509169673537, "trialdata": {"rt": -1, "stimulus": "<p id=\"stim\">5</p>", "key_press": -1, "trial_type": "single-stim", "trial_index": 83, "time_elapsed": 425715, "internal_node_id": "0.0-60.0-5.0"}}, {"uniqueid": "MTK0119:3B4YI393VA34IMP0R218G7W7OLESSU", "current_trial": 84, "dateTime": 1509169674540, "trialdata": {"rt": -1, "stimulus": "<p id=\"stim\">4</p>", "key_press": -1, "trial_type": "single-stim", "trial_index": 84, "time_elapsed": 426718, "internal_node_id": "0.0-60.0-6.0"}}, {"uniqueid": "MTK0119:3B4YI393VA34IMP0R218G7W7OLESSU", "current_trial": 85, "dateTime": 1509169675543, "trialdata": {"rt": -1, "stimulus": "<p id=\"stim\">3</p>", "key_press": -1, "trial_type": "single-stim", "trial_index": 85, "time_elapsed": 427721, "internal_node_id": "0.0-60.0-7.0"}}, {"uniqueid": "MTK0119:3B4YI393VA34IMP0R218G7W7OLESSU", "current_trial": 86, "dateTime": 1509169676544, "trialdata": {"rt": -1, "stimulus": "<p id=\"stim\">2</p>", "key_press": -1, "trial_type": "single-stim", "trial_index": 86, "time_elapsed": 428722, "internal_node_id": "0.0-60.0-8.0"}}, {"uniqueid": "MTK0119:3B4YI393VA34IMP0R218G7W7OLESSU", "current_trial": 87, "dateTime": 1509169677545, "trialdata": {"rt": -1, "stimulus": "<p id=\"stim\">1</p>", "key_press": -1, "trial_type": "single-stim", "trial_index": 87, "time_elapsed": 429723, "internal_node_id": "0.0-60.0-9.0"}}, {"uniqueid": "MTK0119:3B4YI393VA34IMP0R218G7W7OLESSU", "current_trial": 88, "dateTime": 1509169679048, "trialdata": {"rt": -1, "stimulus": "<p id=\"stim\">+</p>", "key_press": -1, "type": "FIXATION", "trial_type": "single-stim", "trial_index": 88, "time_elapsed": 431226, "internal_node_id": "0.0-61.0-0.0"}}, {"uniqueid": "MTK0119:3B4YI393VA34IMP0R218G7W7OLESSU", "current_trial": 89, "dateTime": 1509169680651, "trialdata": {"rt": -1, "stimulus": "<p id=\"stim\">SEAGULL</p>", "key_press": -1, "type": "PRES_VIS", "word": "seagull", "wordID": 1260, "conditions": [24, 1600, "v", 12000], "trial": 2, "serialpos": 0, "trial_type": "single-stim", "trial_index": 89, "time_elapsed": 432829, "internal_node_id": "0.0-62.0"}}, {"uniqueid": "MTK0119:3B4YI393VA34IMP0R218G7W7OLESSU", "current_trial": 90, "dateTime": 1509169683414, "trialdata": {"rt": -1, "stimulus": "<p id=\"stim\">LONDON</p>", "key_press": -1, "type": "PRES_VIS", "word": "london", "wordID": 842, "conditions": [24, 1600, "v", 12000], "trial": 2, "serialpos": 1, "trial_type": "single-stim", "trial_index": 90, "time_elapsed": 435592, "internal_node_id": "0.0-63.0"}}, {"uniqueid": "MTK0119:3B4YI393VA34IMP0R218G7W7OLESSU", "current_trial": 91, "dateTime": 1509169685846, "trialdata": {"rt": -1, "stimulus": "<p id=\"stim\">FRANCE</p>", "key_press": -1, "type": "PRES_VIS", "word": "france", "wordID": 600, "conditions": [24, 1600, "v", 12000], "trial": 2, "serialpos": 2, "trial_type": "single-stim", "trial_index": 91, "time_elapsed": 438024, "internal_node_id": "0.0-64.0"}}, {"uniqueid": "MTK0119:3B4YI393VA34IMP0R218G7W7OLESSU", "current_trial": 92, "dateTime": 1509169688472, "trialdata": {"rt": -1, "stimulus": "<p id=\"stim\">MAMMAL</p>", "key_press": -1, "type": "PRES_VIS", "word": "mammal", "wordID": 860, "conditions": [24, 1600, "v", 12000], "trial": 2, "serialpos": 3, "trial_type": "single-stim", "trial_index": 92, "time_elapsed": 440650, "internal_node_id": "0.0-65.0"}}, {"uniqueid": "MTK0119:3B4YI393VA34IMP0R218G7W7OLESSU", "current_trial": 93, "dateTime": 1509169691259, "trialdata": {"rt": -1, "stimulus": "<p id=\"stim\">MAILBOX</p>", "key_press": -1, "type": "PRES_VIS", "word": "mailbox", "wordID": 856, "conditions": [24, 1600, "v", 12000], "trial": 2, "serialpos": 4, "trial_type": "single-stim", "trial_index": 93, "time_elapsed": 443437, "internal_node_id": "0.0-66.0"}}, {"uniqueid": "MTK0119:3B4YI393VA34IMP0R218G7W7OLESSU", "current_trial": 94, "dateTime": 1509169693903, "trialdata": {"rt": -1, "stimulus": "<p id=\"stim\">SPARROW</p>", "key_press": -1, "type": "PRES_VIS", "word": "sparrow", "wordID": 1346, "conditions": [24, 1600, "v", 12000], "trial": 2, "serialpos": 5, "trial_type": "single-stim", "trial_index": 94, "time_elapsed": 446081, "internal_node_id": "0.0-67.0"}}, {"uniqueid": "MTK0119:3B4YI393VA34IMP0R218G7W7OLESSU", "current_trial": 95, "dateTime": 1509169696606, "trialdata": {"rt": -1, "stimulus": "<p id=\"stim\">CHEST</p>", "key_press": -1, "type": "PRES_VIS", "word": "chest", "wordID": 294, "conditions": [24, 1600, "v", 12000], "trial": 2, "serialpos": 6, "trial_type": "single-stim", "trial_index": 95, "time_elapsed": 448783, "internal_node_id": "0.0-68.0"}}, {"uniqueid": "MTK0119:3B4YI393VA34IMP0R218G7W7OLESSU", "current_trial": 96, "dateTime": 1509169699034, "trialdata": {"rt": -1, "stimulus": "<p id=\"stim\">SHOULDER</p>", "key_press": -1, "type": "PRES_VIS", "word": "shoulder", "wordID": 1293, "conditions": [24, 1600, "v", 12000], "trial": 2, "serialpos": 7, "trial_type": "single-stim", "trial_index": 96, "time_elapsed": 451212, "internal_node_id": "0.0-69.0"}}, {"uniqueid": "MTK0119:3B4YI393VA34IMP0R218G7W7OLESSU", "current_trial": 97, "dateTime": 1509169701666, "trialdata": {"rt": -1, "stimulus": "<p id=\"stim\">SEAL</p>", "key_press": -1, "type": "PRES_VIS", "word": "seal", "wordID": 1261, "conditions": [24, 1600, "v", 12000], "trial": 2, "serialpos": 8, "trial_type": "single-stim", "trial_index": 97, "time_elapsed": 453844, "internal_node_id": "0.0-70.0"}}, {"uniqueid": "MTK0119:3B4YI393VA34IMP0R218G7W7OLESSU", "current_trial": 98, "dateTime": 1509169704459, "trialdata": {"rt": -1, "stimulus": "<p id=\"stim\">DOLPHIN</p>", "key_press": -1, "type": "PRES_VIS", "word": "dolphin", "wordID": 482, "conditions": [24, 1600, "v", 12000], "trial": 2, "serialpos": 9, "trial_type": "single-stim", "trial_index": 98, "time_elapsed": 456636, "internal_node_id": "0.0-71.0"}}, {"uniqueid": "MTK0119:3B4YI393VA34IMP0R218G7W7OLESSU", "current_trial": 99, "dateTime": 1509169707020, "trialdata": {"rt": -1, "stimulus": "<p id=\"stim\">CARRIAGE</p>", "key_press": -1, "type": "PRES_VIS", "word": "carriage", "wordID": 247, "conditions": [24, 1600, "v", 12000], "trial": 2, "serialpos": 10, "trial_type": "single-stim", "trial_index": 99, "time_elapsed": 459198, "internal_node_id": "0.0-72.0"}}, {"uniqueid": "MTK0119:3B4YI393VA34IMP0R218G7W7OLESSU", "current_trial": 100, "dateTime": 1509169709656, "trialdata": {"rt": -1, "stimulus": "<p id=\"stim\">PLAZA</p>", "key_press": -1, "type": "PRES_VIS", "word": "plaza", "wordID": 1087, "conditions": [24, 1600, "v", 12000], "trial": 2, "serialpos": 11, "trial_type": "single-stim", "trial_index": 100, "time_elapsed": 461834, "internal_node_id": "0.0-73.0"}}, {"uniqueid": "MTK0119:3B4YI393VA34IMP0R218G7W7OLESSU", "current_trial": 101, "dateTime": 1509169712136, "trialdata": {"rt": -1, "stimulus": "<p id=\"stim\">PISTON</p>", "key_press": -1, "type": "PRES_VIS", "word": "piston", "wordID": 1075, "conditions": [24, 1600, "v", 12000], "trial": 2, "serialpos": 12, "trial_type": "single-stim", "trial_index": 101, "time_elapsed": 464314, "internal_node_id": "0.0-74.0"}}, {"uniqueid": "MTK0119:3B4YI393VA34IMP0R218G7W7OLESSU", "current_trial": 102, "dateTime": 1509169714843, "trialdata": {"rt": -1, "stimulus": "<p id=\"stim\">RABBIT</p>", "key_press": -1, "type": "PRES_VIS", "word": "rabbit", "wordID": 1151, "conditions": [24, 1600, "v", 12000], "trial": 2, "serialpos": 13, "trial_type": "single-stim", "trial_index": 102, "time_elapsed": 467021, "internal_node_id": "0.0-75.0"}}, {"uniqueid": "MTK0119:3B4YI393VA34IMP0R218G7W7OLESSU", "current_trial": 103, "dateTime": 1509169717523, "trialdata": {"rt": -1, "stimulus": "<p id=\"stim\">POISON</p>", "key_press": -1, "type": "PRES_VIS", "word": "poison", "wordID": 1095, "conditions": [24, 1600, "v", 12000], "trial": 2, "serialpos": 14, "trial_type": "single-stim", "trial_index": 103, "time_elapsed": 469701, "internal_node_id": "0.0-76.0"}}, {"uniqueid": "MTK0119:3B4YI393VA34IMP0R218G7W7OLESSU", "current_trial": 104, "dateTime": 1509169719960, "trialdata": {"rt": -1, "stimulus": "<p id=\"stim\">MISSILE</p>", "key_press": -1, "type": "PRES_VIS", "word": "missile", "wordID": 899, "conditions": [24, 1600, "v", 12000], "trial": 2, "serialpos": 15, "trial_type": "single-stim", "trial_index": 104, "time_elapsed": 472138, "internal_node_id": "0.0-77.0"}}, {"uniqueid": "MTK0119:3B4YI393VA34IMP0R218G7W7OLESSU", "current_trial": 105, "dateTime": 1509169722524, "trialdata": {"rt": -1, "stimulus": "<p id=\"stim\">ROCKET</p>", "key_press": -1, "type": "PRES_VIS", "word": "rocket", "wordID": 1201, "conditions": [24, 1600, "v", 12000], "trial": 2, "serialpos": 16, "trial_type": "single-stim", "trial_index": 105, "time_elapsed": 474702, "internal_node_id": "0.0-78.0"}}, {"uniqueid": "MTK0119:3B4YI393VA34IMP0R218G7W7OLESSU", "current_trial": 106, "dateTime": 1509169725268, "trialdata": {"rt": -1, "stimulus": "<p id=\"stim\">MARROW</p>", "key_press": -1, "type": "PRES_VIS", "word": "marrow", "wordID": 871, "conditions": [24, 1600, "v", 12000], "trial": 2, "serialpos": 17, "trial_type": "single-stim", "trial_index": 106, "time_elapsed": 477446, "internal_node_id": "0.0-79.0"}}, {"uniqueid": "MTK0119:3B4YI393VA34IMP0R218G7W7OLESSU", "current_trial": 107, "dateTime": 1509169728062, "trialdata": {"rt": -1, "stimulus": "<p id=\"stim\">WRENCH</p>", "key_press": -1, "type": "PRES_VIS", "word": "wrench", "wordID": 1624, "conditions": [24, 1600, "v", 12000], "trial": 2, "serialpos": 18, "trial_type": "single-stim", "trial_index": 107, "time_elapsed": 480239, "internal_node_id": "0.0-80.0"}}, {"uniqueid": "MTK0119:3B4YI393VA34IMP0R218G7W7OLESSU", "current_trial": 108, "dateTime": 1509169730864, "trialdata": {"rt": -1, "stimulus": "<p id=\"stim\">XEROX</p>", "key_press": -1, "type": "PRES_VIS", "word": "xerox", "wordID": 1627, "conditions": [24, 1600, "v", 12000], "trial": 2, "serialpos": 19, "trial_type": "single-stim", "trial_index": 108, "time_elapsed": 483042, "internal_node_id": "0.0-81.0"}}, {"uniqueid": "MTK0119:3B4YI393VA34IMP0R218G7W7OLESSU", "current_trial": 109, "dateTime": 1509169733577, "trialdata": {"rt": -1, "stimulus": "<p id=\"stim\">FOREHEAD</p>", "key_press": -1, "type": "PRES_VIS", "word": "forehead", "wordID": 591, "conditions": [24, 1600, "v", 12000], "trial": 2, "serialpos": 20, "trial_type": "single-stim", "trial_index": 109, "time_elapsed": 485755, "internal_node_id": "0.0-82.0"}}, {"uniqueid": "MTK0119:3B4YI393VA34IMP0R218G7W7OLESSU", "current_trial": 110, "dateTime": 1509169736232, "trialdata": {"rt": -1, "stimulus": "<p id=\"stim\">POSSUM</p>", "key_press": -1, "type": "PRES_VIS", "word": "possum", "wordID": 1111, "conditions": [24, 1600, "v", 12000], "trial": 2, "serialpos": 21, "trial_type": "single-stim", "trial_index": 110, "time_elapsed": 488410, "internal_node_id": "0.0-83.0"}}, {"uniqueid": "MTK0119:3B4YI393VA34IMP0R218G7W7OLESSU", "current_trial": 111, "dateTime": 1509169738749, "trialdata": {"rt": -1, "stimulus": "<p id=\"stim\">SEAFOOD</p>", "key_press": -1, "type": "PRES_VIS", "word": "seafood", "wordID": 1259, "conditions": [24, 1600, "v", 12000], "trial": 2, "serialpos": 22, "trial_type": "single-stim", "trial_index": 111, "time_elapsed": 490927, "internal_node_id": "0.0-84.0"}}, {"uniqueid": "MTK0119:3B4YI393VA34IMP0R218G7W7OLESSU", "current_trial": 112, "dateTime": 1509169741300, "trialdata": {"rt": -1, "stimulus": "<p id=\"stim\">BOUQUET</p>", "key_press": -1, "type": "PRES_VIS", "word": "bouquet", "wordID": 156, "conditions": [24, 1600, "v", 12000], "trial": 2, "serialpos": 23, "trial_type": "single-stim", "trial_index": 112, "time_elapsed": 493478, "internal_node_id": "0.0-85.0"}}, {"uniqueid": "MTK0119:3B4YI393VA34IMP0R218G7W7OLESSU", "current_trial": 113, "dateTime": 1509169743480, "trialdata": {"rt": -1, "stimulus": "", "key_press": -1, "type": "PRE_RECALL_DELAY", "trial_type": "single-stim", "trial_index": 113, "time_elapsed": 495658, "internal_node_id": "0.0-86.0-0.0"}}, {"uniqueid": "MTK0119:3B4YI393VA34IMP0R218G7W7OLESSU", "current_trial": 114, "dateTime": 1509169743981, "trialdata": {"rt": -1000, "stimulus": "/static/audio/400Hz.wav", "key_press": -1, "type": "PRE_RECALL_ALERT", "trial_type": "single-audio", "trial_index": 114, "time_elapsed": 496159, "internal_node_id": "0.0-87.0"}}, {"uniqueid": "MTK0119:3B4YI393VA34IMP0R218G7W7OLESSU", "current_trial": 115, "dateTime": 1509169803988, "trialdata": {"rt": [2705, 3844, 6386, 7587, 8882, 19371, 20694, 29302, 33936, 43468], "recwords": ["france", "marrow", "possum", "seafood", "bouquet", "blossom", "boquet", "paris", "london", "wrench"], "type": "FREE_RECALL", "conditions": [24, 1600, "v", 12000], "trial": 2, "trial_type": "free-recall", "trial_index": 115, "time_elapsed": 556162, "internal_node_id": "0.0-88.0-0.0"}}, {"uniqueid": "MTK0119:3B4YI393VA34IMP0R218G7W7OLESSU", "current_trial": 116, "dateTime": 1509169807282, "trialdata": {"rt": 1291, "key_press": 32, "type": "INSTRUCTIONS", "trial_type": "text", "trial_index": 116, "time_elapsed": 559460, "internal_node_id": "0.0-89.0"}}, {"uniqueid": "MTK0119:3B4YI393VA34IMP0R218G7W7OLESSU", "current_trial": 117, "dateTime": 1509169833288, "trialdata": {"rt": [2620, 4912, 8643, 10670, 13751, 18138, 19985, 21516, 23523], "responses": ["12", "18", "12", "10", "27", "15", "17", "14", "20"], "num1": [6, 9, 3, 3, 9, 4, 9, 3, 9, 2], "num2": [2, 8, 5, 2, 9, 7, 7, 4, 2, 2], "num3": [4, 1, 4, 5, 9, 4, 1, 7, 9, 6], "type": "DISTRACTOR", "conditions": [12, 1600, "a", 24000], "trial": 3, "trial_type": "math-distractor", "trial_index": 117, "time_elapsed": 585465, "internal_node_id": "0.0-90.0"}}, {"uniqueid": "MTK0119:3B4YI393VA34IMP0R218G7W7OLESSU", "current_trial": 118, "dateTime": 1509169836293, "trialdata": {"rt": -1, "stimulus": "<p id=\"stim\">10</p>", "key_press": -1, "trial_type": "single-stim", "trial_index": 118, "time_elapsed": 588471, "internal_node_id": "0.0-91.0-0.0"}}, {"uniqueid": "MTK0119:3B4YI393VA34IMP0R218G7W7OLESSU", "current_trial": 119, "dateTime": 1509169837294, "trialdata": {"rt": -1, "stimulus": "<p id=\"stim\">9</p>", "key_press": -1, "trial_type": "single-stim", "trial_index": 119, "time_elapsed": 589472, "internal_node_id": "0.0-91.0-1.0"}}, {"uniqueid": "MTK0119:3B4YI393VA34IMP0R218G7W7OLESSU", "current_trial": 120, "dateTime": 1509169838296, "trialdata": {"rt": -1, "stimulus": "<p id=\"stim\">8</p>", "key_press": -1, "trial_type": "single-stim", "trial_index": 120, "time_elapsed": 590474, "internal_node_id": "0.0-91.0-2.0"}}, {"uniqueid": "MTK0119:3B4YI393VA34IMP0R218G7W7OLESSU", "current_trial": 121, "dateTime": 1509169839298, "trialdata": {"rt": -1, "stimulus": "<p id=\"stim\">7</p>", "key_press": -1, "trial_type": "single-stim", "trial_index": 121, "time_elapsed": 591476, "internal_node_id": "0.0-91.0-3.0"}}, {"uniqueid": "MTK0119:3B4YI393VA34IMP0R218G7W7OLESSU", "current_trial": 122, "dateTime": 1509169840301, "trialdata": {"rt": -1, "stimulus": "<p id=\"stim\">6</p>", "key_press": -1, "trial_type": "single-stim", "trial_index": 122, "time_elapsed": 592479, "internal_node_id": "0.0-91.0-4.0"}}, {"uniqueid": "MTK0119:3B4YI393VA34IMP0R218G7W7OLESSU", "current_trial": 123, "dateTime": 1509169841304, "trialdata": {"rt": -1, "stimulus": "<p id=\"stim\">5</p>", "key_press": -1, "trial_type": "single-stim", "trial_index": 123, "time_elapsed": 593481, "internal_node_id": "0.0-91.0-5.0"}}, {"uniqueid": "MTK0119:3B4YI393VA34IMP0R218G7W7OLESSU", "current_trial": 124, "dateTime": 1509169842306, "trialdata": {"rt": -1, "stimulus": "<p id=\"stim\">4</p>", "key_press": -1, "trial_type": "single-stim", "trial_index": 124, "time_elapsed": 594484, "internal_node_id": "0.0-91.0-6.0"}}, {"uniqueid": "MTK0119:3B4YI393VA34IMP0R218G7W7OLESSU", "current_trial": 125, "dateTime": 1509169843307, "trialdata": {"rt": -1, "stimulus": "<p id=\"stim\">3</p>", "key_press": -1, "trial_type": "single-stim", "trial_index": 125, "time_elapsed": 595485, "internal_node_id": "0.0-91.0-7.0"}}, {"uniqueid": "MTK0119:3B4YI393VA34IMP0R218G7W7OLESSU", "current_trial": 126, "dateTime": 1509169844309, "trialdata": {"rt": -1, "stimulus": "<p id=\"stim\">2</p>", "key_press": -1, "trial_type": "single-stim", "trial_index": 126, "time_elapsed": 596487, "internal_node_id": "0.0-91.0-8.0"}}, {"uniqueid": "MTK0119:3B4YI393VA34IMP0R218G7W7OLESSU", "current_trial": 127, "dateTime": 1509169845311, "trialdata": {"rt": -1, "stimulus": "<p id=\"stim\">1</p>", "key_press": -1, "trial_type": "single-stim", "trial_index": 127, "time_elapsed": 597489, "internal_node_id": "0.0-91.0-9.0"}}, {"uniqueid": "MTK0119:3B4YI393VA34IMP0R218G7W7OLESSU", "current_trial": 128, "dateTime": 1509169846813, "trialdata": {"rt": -1, "stimulus": "<p id=\"stim\">+</p>", "key_press": -1, "type": "FIXATION", "trial_type": "single-stim", "trial_index": 128, "time_elapsed": 598991, "internal_node_id": "0.0-92.0-0.0"}}, {"uniqueid": "MTK0119:3B4YI393VA34IMP0R218G7W7OLESSU", "current_trial": 129, "dateTime": 1509169849343, "trialdata": {"rt": -1000, "stimulus": "/static/audio/wordpool/COMPASS.wav", "key_press": -1, "type": "PRES_AUD", "word": "compass", "wordID": 357, "conditions": [12, 1600, "a", 24000], "trial": 3, "serialpos": 0, "trial_type": "single-audio", "trial_index": 129, "time_elapsed": 601521, "internal_node_id": "0.0-93.0"}}, {"uniqueid": "MTK0119:3B4YI393VA34IMP0R218G7W7OLESSU", "current_trial": 130, "dateTime": 1509169851947, "trialdata": {"rt": -1000, "stimulus": "/static/audio/wordpool/GIRL.wav", "key_press": -1, "type": "PRES_AUD", "word": "girl", "wordID": 636, "conditions": [12, 1600, "a", 24000], "trial": 3, "serialpos": 1, "trial_type": "single-audio", "trial_index": 130, "time_elapsed": 604125, "internal_node_id": "0.0-94.0"}}, {"uniqueid": "MTK0119:3B4YI393VA34IMP0R218G7W7OLESSU", "current_trial": 131, "dateTime": 1509169854574, "trialdata": {"rt": -1000, "stimulus": "/static/audio/wordpool/ORCHID.wav", "key_press": -1, "type": "PRES_AUD", "word": "orchid", "wordID": 981, "conditions": [12, 1600, "a", 24000], "trial": 3, "serialpos": 2, "trial_type": "single-audio", "trial_index": 131, "time_elapsed": 606751, "internal_node_id": "0.0-95.0"}}, {"uniqueid": "MTK0119:3B4YI393VA34IMP0R218G7W7OLESSU", "current_trial": 132, "dateTime": 1509169857374, "trialdata": {"rt": -1000, "stimulus": "/static/audio/wordpool/CURTAIN.wav", "key_press": -1, "type": "PRES_AUD", "word": "curtain", "wordID": 426, "conditions": [12, 1600, "a", 24000], "trial": 3, "serialpos": 3, "trial_type": "single-audio", "trial_index": 132, "time_elapsed": 609552, "internal_node_id": "0.0-96.0"}}, {"uniqueid": "MTK0119:3B4YI393VA34IMP0R218G7W7OLESSU", "current_trial": 133, "dateTime": 1509169859783, "trialdata": {"rt": -1000, "stimulus": "/static/audio/wordpool/RIVER.wav", "key_press": -1, "type": "PRES_AUD", "word": "river", "wordID": 1193, "conditions": [12, 1600, "a", 24000], "trial": 3, "serialpos": 4, "trial_type": "single-audio", "trial_index": 133, "time_elapsed": 611961, "internal_node_id": "0.0-97.0"}}, {"uniqueid": "MTK0119:3B4YI393VA34IMP0R218G7W7OLESSU", "current_trial": 134, "dateTime": 1509169862578, "trialdata": {"rt": -1000, "stimulus": "/static/audio/wordpool/RECORD.wav", "key_press": -1, "type": "PRES_AUD", "word": "record", "wordID": 1175, "conditions": [12, 1600, "a", 24000], "trial": 3, "serialpos": 5, "trial_type": "single-audio", "trial_index": 134, "time_elapsed": 614756, "internal_node_id": "0.0-98.0"}}, {"uniqueid": "MTK0119:3B4YI393VA34IMP0R218G7W7OLESSU", "current_trial": 135, "dateTime": 1509169865053, "trialdata": {"rt": -1000, "stimulus": "/static/audio/wordpool/EUROPE.wav", "key_press": -1, "type": "PRES_AUD", "word": "europe", "wordID": 540, "conditions": [12, 1600, "a", 24000], "trial": 3, "serialpos": 6, "trial_type": "single-audio", "trial_index": 135, "time_elapsed": 617231, "internal_node_id": "0.0-99.0"}}, {"uniqueid": "MTK0119:3B4YI393VA34IMP0R218G7W7OLESSU", "current_trial": 136, "dateTime": 1509169867678, "trialdata": {"rt": -1000, "stimulus": "/static/audio/wordpool/ASIA.wav", "key_press": -1, "type": "PRES_AUD", "word": "asia", "wordID": 45, "conditions": [12, 1600, "a", 24000], "trial": 3, "serialpos": 7, "trial_type": "single-audio", "trial_index": 136, "time_elapsed": 619856, "internal_node_id": "0.0-100.0"}}, {"uniqueid": "MTK0119:3B4YI393VA34IMP0R218G7W7OLESSU", "current_trial": 137, "dateTime": 1509169870245, "trialdata": {"rt": -1000, "stimulus": "/static/audio/wordpool/OX.wav", "key_press": -1, "type": "PRES_AUD", "word": "ox", "wordID": 993, "conditions": [12, 1600, "a", 24000], "trial": 3, "serialpos": 8, "trial_type": "single-audio", "trial_index": 137, "time_elapsed": 622422, "internal_node_id": "0.0-101.0"}}, {"uniqueid": "MTK0119:3B4YI393VA34IMP0R218G7W7OLESSU", "current_trial": 138, "dateTime": 1509169872794, "trialdata": {"rt": -1000, "stimulus": "/static/audio/wordpool/CARROT.wav", "key_press": -1, "type": "PRES_AUD", "word": "carrot", "wordID": 248, "conditions": [12, 1600, "a", 24000], "trial": 3, "serialpos": 9, "trial_type": "single-audio", "trial_index": 138, "time_elapsed": 624971, "internal_node_id": "0.0-102.0"}}, {"uniqueid": "MTK0119:3B4YI393VA34IMP0R218G7W7OLESSU", "current_trial": 139, "dateTime": 1509169875484, "trialdata": {"rt": -1000, "stimulus": "/static/audio/wordpool/BOYFRIEND.wav", "key_press": -1, "type": "PRES_AUD", "word": "boyfriend", "wordID": 161, "conditions": [12, 1600, "a", 24000], "trial": 3, "serialpos": 10, "trial_type": "single-audio", "trial_index": 139, "time_elapsed": 627661, "internal_node_id": "0.0-103.0"}}, {"uniqueid": "MTK0119:3B4YI393VA34IMP0R218G7W7OLESSU", "current_trial": 140, "dateTime": 1509169877961, "trialdata": {"rt": -1000, "stimulus": "/static/audio/wordpool/TWIG.wav", "key_press": -1, "type": "PRES_AUD", "word": "twig", "wordID": 1526, "conditions": [12, 1600, "a", 24000], "trial": 3, "serialpos": 11, "trial_type": "single-audio", "trial_index": 140, "time_elapsed": 630138, "internal_node_id": "0.0-104.0"}}, {"uniqueid": "MTK0119:3B4YI393VA34IMP0R218G7W7OLESSU", "current_trial": 141, "dateTime": 1509169879371, "trialdata": {"rt": -1, "stimulus": "", "key_press": -1, "type": "PRE_RECALL_DELAY", "trial_type": "single-stim", "trial_index": 141, "time_elapsed": 631546, "internal_node_id": "0.0-105.0-0.0"}}, {"uniqueid": "MTK0119:3B4YI393VA34IMP0R218G7W7OLESSU", "current_trial": 142, "dateTime": 1509169879872, "trialdata": {"rt": -1000, "stimulus": "/static/audio/400Hz.wav", "key_press": -1, "type": "PRE_RECALL_ALERT", "trial_type": "single-audio", "trial_index": 142, "time_elapsed": 632050, "internal_node_id": "0.0-106.0"}}, {"uniqueid": "MTK0119:3B4YI393VA34IMP0R218G7W7OLESSU", "current_trial": 143, "dateTime": 1509169939887, "trialdata": {"rt": [2070, 3473, 4482, 6150, 6733, 8856, 9759, 12124, 17906, 19719], "recwords": ["compass", "curtain", "asia", "europe", "ox", "boyfriend", "twig", "carrot", "girlfriend", "twig"], "type": "FREE_RECALL", "conditions": [12, 1600, "a", 24000], "trial": 3, "trial_type": "free-recall", "trial_index": 143, "time_elapsed": 692055, "internal_node_id": "0.0-107.0-0.0"}}, {"uniqueid": "MTK0119:3B4YI393VA34IMP0R218G7W7OLESSU", "current_trial": 144, "dateTime": 1509169943315, "trialdata": {"rt": 1427, "key_press": 13, "type": "INSTRUCTIONS", "trial_type": "text", "trial_index": 144, "time_elapsed": 695493, "internal_node_id": "0.0-108.0"}}, {"uniqueid": "MTK0119:3B4YI393VA34IMP0R218G7W7OLESSU", "current_trial": 145, "dateTime": 1509169969320, "trialdata": {"rt": [2300, 5398, 7380, 10089, 14194, 17496, 21599, 23913], "responses": ["12", "15", "11", "17", "17", "14", "18", "7"], "num1": [5, 2, 3, 6, 2, 4, 7, 5, 3], "num2": [6, 4, 6, 6, 6, 2, 2, 3, 4], "num3": [1, 9, 2, 5, 9, 8, 9, 2, 8], "type": "DISTRACTOR", "conditions": [24, 800, "a", 24000], "trial": 4, "trial_type": "math-distractor", "trial_index": 145, "time_elapsed": 721498, "internal_node_id": "0.0-109.0"}}, {"uniqueid": "MTK0119:3B4YI393VA34IMP0R218G7W7OLESSU", "current_trial": 146, "dateTime": 1509169972322, "trialdata": {"rt": -1, "stimulus": "<p id=\"stim\">10</p>", "key_press": -1, "trial_type": "single-stim", "trial_index": 146, "time_elapsed": 724500, "internal_node_id": "0.0-110.0-0.0"}}, {"uniqueid": "MTK0119:3B4YI393VA34IMP0R218G7W7OLESSU", "current_trial": 147, "dateTime": 1509169973324, "trialdata": {"rt": -1, "stimulus": "<p id=\"stim\">9</p>", "key_press": -1, "trial_type": "single-stim", "trial_index": 147, "time_elapsed": 725502, "internal_node_id": "0.0-110.0-1.0"}}, {"uniqueid": "MTK0119:3B4YI393VA34IMP0R218G7W7OLESSU", "current_trial": 148, "dateTime": 1509169974327, "trialdata": {"rt": -1, "stimulus": "<p id=\"stim\">8</p>", "key_press": -1, "trial_type": "single-stim", "trial_index": 148, "time_elapsed": 726505, "internal_node_id": "0.0-110.0-2.0"}}, {"uniqueid": "MTK0119:3B4YI393VA34IMP0R218G7W7OLESSU", "current_trial": 149, "dateTime": 1509169975328, "trialdata": {"rt": -1, "stimulus": "<p id=\"stim\">7</p>", "key_press": -1, "trial_type": "single-stim", "trial_index": 149, "time_elapsed": 727506, "internal_node_id": "0.0-110.0-3.0"}}, {"uniqueid": "MTK0119:3B4YI393VA34IMP0R218G7W7OLESSU", "current_trial": 150, "dateTime": 1509169976330, "trialdata": {"rt": -1, "stimulus": "<p id=\"stim\">6</p>", "key_press": -1, "trial_type": "single-stim", "trial_index": 150, "time_elapsed": 728508, "internal_node_id": "0.0-110.0-4.0"}}, {"uniqueid": "MTK0119:3B4YI393VA34IMP0R218G7W7OLESSU", "current_trial": 151, "dateTime": 1509169977333, "trialdata": {"rt": -1, "stimulus": "<p id=\"stim\">5</p>", "key_press": -1, "trial_type": "single-stim", "trial_index": 151, "time_elapsed": 729511, "internal_node_id": "0.0-110.0-5.0"}}, {"uniqueid": "MTK0119:3B4YI393VA34IMP0R218G7W7OLESSU", "current_trial": 152, "dateTime": 1509169978336, "trialdata": {"rt": -1, "stimulus": "<p id=\"stim\">4</p>", "key_press": -1, "trial_type": "single-stim", "trial_index": 152, "time_elapsed": 730514, "internal_node_id": "0.0-110.0-6.0"}}, {"uniqueid": "MTK0119:3B4YI393VA34IMP0R218G7W7OLESSU", "current_trial": 153, "dateTime": 1509169979338, "trialdata": {"rt": -1, "stimulus": "<p id=\"stim\">3</p>", "key_press": -1, "trial_type": "single-stim", "trial_index": 153, "time_elapsed": 731516, "internal_node_id": "0.0-110.0-7.0"}}, {"uniqueid": "MTK0119:3B4YI393VA34IMP0R218G7W7OLESSU", "current_trial": 154, "dateTime": 1509169980339, "trialdata": {"rt": -1, "stimulus": "<p id=\"stim\">2</p>", "key_press": -1, "trial_type": "single-stim", "trial_index": 154, "time_elapsed": 732517, "internal_node_id": "0.0-110.0-8.0"}}, {"uniqueid": "MTK0119:3B4YI393VA34IMP0R218G7W7OLESSU", "current_trial": 155, "dateTime": 1509169981341, "trialdata": {"rt": -1, "stimulus": "<p id=\"stim\">1</p>", "key_press": -1, "trial_type": "single-stim", "trial_index": 155, "time_elapsed": 733519, "internal_node_id": "0.0-110.0-9.0"}}, {"uniqueid": "MTK0119:3B4YI393VA34IMP0R218G7W7OLESSU", "current_trial": 156, "dateTime": 1509169982843, "trialdata": {"rt": -1, "stimulus": "<p id=\"stim\">+</p>", "key_press": -1, "type": "FIXATION", "trial_type": "single-stim", "trial_index": 156, "time_elapsed": 735021, "internal_node_id": "0.0-111.0-0.0"}}, {"uniqueid": "MTK0119:3B4YI393VA34IMP0R218G7W7OLESSU", "current_trial": 157, "dateTime": 1509169984609, "trialdata": {"rt": -1000, "stimulus": "/static/audio/wordpool/BLOUSE.wav", "key_press": -1, "type": "PRES_AUD", "word": "blouse", "wordID": 138, "conditions": [24, 800, "a", 24000], "trial": 4, "serialpos": 0, "trial_type": "single-audio", "trial_index": 157, "time_elapsed": 736787, "internal_node_id": "0.0-112.0"}}, {"uniqueid": "MTK0119:3B4YI393VA34IMP0R218G7W7OLESSU", "current_trial": 158, "dateTime": 1509169986574, "trialdata": {"rt": -1000, "stimulus": "/static/audio/wordpool/PECAN.wav", "key_press": -1, "type": "PRES_AUD", "word": "pecan", "wordID": 1035, "conditions": [24, 800, "a", 24000], "trial": 4, "serialpos": 1, "trial_type": "single-audio", "trial_index": 158, "time_elapsed": 738752, "internal_node_id": "0.0-113.0"}}, {"uniqueid": "MTK0119:3B4YI393VA34IMP0R218G7W7OLESSU", "current_trial": 159, "dateTime": 1509169988263, "trialdata": {"rt": -1000, "stimulus": "/static/audio/wordpool/PEANUT.wav", "key_press": -1, "type": "PRES_AUD", "word": "peanut", "wordID": 1031, "conditions": [24, 800, "a", 24000], "trial": 4, "serialpos": 2, "trial_type": "single-audio", "trial_index": 159, "time_elapsed": 740441, "internal_node_id": "0.0-114.0"}}, {"uniqueid": "MTK0119:3B4YI393VA34IMP0R218G7W7OLESSU", "current_trial": 160, "dateTime": 1509169990168, "trialdata": {"rt": -1000, "stimulus": "/static/audio/wordpool/COUNTRY.wav", "key_press": -1, "type": "PRES_AUD", "word": "country", "wordID": 387, "conditions": [24, 800, "a", 24000], "trial": 4, "serialpos": 3, "trial_type": "single-audio", "trial_index": 160, "time_elapsed": 742345, "internal_node_id": "0.0-115.0"}}, {"uniqueid": "MTK0119:3B4YI393VA34IMP0R218G7W7OLESSU", "current_trial": 161, "dateTime": 1509169991783, "trialdata": {"rt": -1000, "stimulus": "/static/audio/wordpool/CELLAR.wav", "key_press": -1, "type": "PRES_AUD", "word": "cellar", "wordID": 266, "conditions": [24, 800, "a", 24000], "trial": 4, "serialpos": 4, "trial_type": "single-audio", "trial_index": 161, "time_elapsed": 743961, "internal_node_id": "0.0-116.0"}}, {"uniqueid": "MTK0119:3B4YI393VA34IMP0R218G7W7OLESSU", "current_trial": 162, "dateTime": 1509169993461, "trialdata": {"rt": -1000, "stimulus": "/static/audio/wordpool/BRANCH.wav", "key_press": -1, "type": "PRES_AUD", "word": "branch", "wordID": 167, "conditions": [24, 800, "a", 24000], "trial": 4, "serialpos": 5, "trial_type": "single-audio", "trial_index": 162, "time_elapsed": 745639, "internal_node_id": "0.0-117.0"}}, {"uniqueid": "MTK0119:3B4YI393VA34IMP0R218G7W7OLESSU", "current_trial": 163, "dateTime": 1509169995427, "trialdata": {"rt": -1000, "stimulus": "/static/audio/wordpool/VALLEY.wav", "key_press": -1, "type": "PRES_AUD", "word": "valley", "wordID": 1544, "conditions": [24, 800, "a", 24000], "trial": 4, "serialpos": 6, "trial_type": "single-audio", "trial_index": 163, "time_elapsed": 747605, "internal_node_id": "0.0-118.0"}}, {"uniqueid": "MTK0119:3B4YI393VA34IMP0R218G7W7OLESSU", "current_trial": 164, "dateTime": 1509169997141, "trialdata": {"rt": -1000, "stimulus": "/static/audio/wordpool/PUPPY.wav", "key_press": -1, "type": "PRES_AUD", "word": "puppy", "wordID": 1143, "conditions": [24, 800, "a", 24000], "trial": 4, "serialpos": 7, "trial_type": "single-audio", "trial_index": 164, "time_elapsed": 749319, "internal_node_id": "0.0-119.0"}}, {"uniqueid": "MTK0119:3B4YI393VA34IMP0R218G7W7OLESSU", "current_trial": 165, "dateTime": 1509169999027, "trialdata": {"rt": -1000, "stimulus": "/static/audio/wordpool/SWIMMER.wav", "key_press": -1, "type": "PRES_AUD", "word": "swimmer", "wordID": 1419, "conditions": [24, 800, "a", 24000], "trial": 4, "serialpos": 8, "trial_type": "single-audio", "trial_index": 165, "time_elapsed": 751205, "internal_node_id": "0.0-120.0"}}, {"uniqueid": "MTK0119:3B4YI393VA34IMP0R218G7W7OLESSU", "current_trial": 166, "dateTime": 1509170000718, "trialdata": {"rt": -1000, "stimulus": "/static/audio/wordpool/BASEMENT.wav", "key_press": -1, "type": "PRES_AUD", "word": "basement", "wordID": 93, "conditions": [24, 800, "a", 24000], "trial": 4, "serialpos": 9, "trial_type": "single-audio", "trial_index": 166, "time_elapsed": 752896, "internal_node_id": "0.0-121.0"}}, {"uniqueid": "MTK0119:3B4YI393VA34IMP0R218G7W7OLESSU", "current_trial": 167, "dateTime": 1509170002695, "trialdata": {"rt": -1000, "stimulus": "/static/audio/wordpool/MUSTARD.wav", "key_press": -1, "type": "PRES_AUD", "word": "mustard", "wordID": 934, "conditions": [24, 800, "a", 24000], "trial": 4, "serialpos": 10, "trial_type": "single-audio", "trial_index": 167, "time_elapsed": 754872, "internal_node_id": "0.0-122.0"}}, {"uniqueid": "MTK0119:3B4YI393VA34IMP0R218G7W7OLESSU", "current_trial": 168, "dateTime": 1509170004491, "trialdata": {"rt": -1000, "stimulus": "/static/audio/wordpool/LASER.wav", "key_press": -1, "type": "PRES_AUD", "word": "laser", "wordID": 800, "conditions": [24, 800, "a", 24000], "trial": 4, "serialpos": 11, "trial_type": "single-audio", "trial_index": 168, "time_elapsed": 756669, "internal_node_id": "0.0-123.0"}}, {"uniqueid": "MTK0119:3B4YI393VA34IMP0R218G7W7OLESSU", "current_trial": 169, "dateTime": 1509170006138, "trialdata": {"rt": -1000, "stimulus": "/static/audio/wordpool/PANTHER.wav", "key_press": -1, "type": "PRES_AUD", "word": "panther", "wordID": 1008, "conditions": [24, 800, "a", 24000], "trial": 4, "serialpos": 12, "trial_type": "single-audio", "trial_index": 169, "time_elapsed": 758315, "internal_node_id": "0.0-124.0"}}, {"uniqueid": "MTK0119:3B4YI393VA34IMP0R218G7W7OLESSU", "current_trial": 170, "dateTime": 1509170007869, "trialdata": {"rt": -1000, "stimulus": "/static/audio/wordpool/TURTLE.wav", "key_press": -1, "type": "PRES_AUD", "word": "turtle", "wordID": 1521, "conditions": [24, 800, "a", 24000], "trial": 4, "serialpos": 13, "trial_type": "single-audio", "trial_index": 170, "time_elapsed": 760046, "internal_node_id": "0.0-125.0"}}, {"uniqueid": "MTK0119:3B4YI393VA34IMP0R218G7W7OLESSU", "current_trial": 171, "dateTime": 1509170009782, "trialdata": {"rt": -1000, "stimulus": "/static/audio/wordpool/CHURCH.wav", "key_press": -1, "type": "PRES_AUD", "word": "church", "wordID": 306, "conditions": [24, 800, "a", 24000], "trial": 4, "serialpos": 14, "trial_type": "single-audio", "trial_index": 171, "time_elapsed": 761959, "internal_node_id": "0.0-126.0"}}, {"uniqueid": "MTK0119:3B4YI393VA34IMP0R218G7W7OLESSU", "current_trial": 172, "dateTime": 1509170011432, "trialdata": {"rt": -1000, "stimulus": "/static/audio/wordpool/SMOG.wav", "key_press": -1, "type": "PRES_AUD", "word": "smog", "wordID": 1329, "conditions": [24, 800, "a", 24000], "trial": 4, "serialpos": 15, "trial_type": "single-audio", "trial_index": 172, "time_elapsed": 763609, "internal_node_id": "0.0-127.0"}}, {"uniqueid": "MTK0119:3B4YI393VA34IMP0R218G7W7OLESSU", "current_trial": 173, "dateTime": 1509170013182, "trialdata": {"rt": -1000, "stimulus": "/static/audio/wordpool/PLUTO.wav", "key_press": -1, "type": "PRES_AUD", "word": "pluto", "wordID": 1091, "conditions": [24, 800, "a", 24000], "trial": 4, "serialpos": 16, "trial_type": "single-audio", "trial_index": 173, "time_elapsed": 765360, "internal_node_id": "0.0-128.0"}}, {"uniqueid": "MTK0119:3B4YI393VA34IMP0R218G7W7OLESSU", "current_trial": 174, "dateTime": 1509170014973, "trialdata": {"rt": -1000, "stimulus": "/static/audio/wordpool/TRUCK.wav", "key_press": -1, "type": "PRES_AUD", "word": "truck", "wordID": 1511, "conditions": [24, 800, "a", 24000], "trial": 4, "serialpos": 17, "trial_type": "single-audio", "trial_index": 174, "time_elapsed": 767151, "internal_node_id": "0.0-129.0"}}, {"uniqueid": "MTK0119:3B4YI393VA34IMP0R218G7W7OLESSU", "current_trial": 175, "dateTime": 1509170016819, "trialdata": {"rt": -1000, "stimulus": "/static/audio/wordpool/FRAME.wav", "key_press": -1, "type": "PRES_AUD", "word": "frame", "wordID": 599, "conditions": [24, 800, "a", 24000], "trial": 4, "serialpos": 18, "trial_type": "single-audio", "trial_index": 175, "time_elapsed": 768996, "internal_node_id": "0.0-130.0"}}, {"uniqueid": "MTK0119:3B4YI393VA34IMP0R218G7W7OLESSU", "current_trial": 176, "dateTime": 1509170018828, "trialdata": {"rt": -1000, "stimulus": "/static/audio/wordpool/CHAPEL.wav", "key_press": -1, "type": "PRES_AUD", "word": "chapel", "wordID": 279, "conditions": [24, 800, "a", 24000], "trial": 4, "serialpos": 19, "trial_type": "single-audio", "trial_index": 176, "time_elapsed": 771006, "internal_node_id": "0.0-131.0"}}, {"uniqueid": "MTK0119:3B4YI393VA34IMP0R218G7W7OLESSU", "current_trial": 177, "dateTime": 1509170020571, "trialdata": {"rt": -1000, "stimulus": "/static/audio/wordpool/TAXI.wav", "key_press": -1, "type": "PRES_AUD", "word": "taxi", "wordID": 1437, "conditions": [24, 800, "a", 24000], "trial": 4, "serialpos": 20, "trial_type": "single-audio", "trial_index": 177, "time_elapsed": 772749, "internal_node_id": "0.0-132.0"}}, {"uniqueid": "MTK0119:3B4YI393VA34IMP0R218G7W7OLESSU", "current_trial": 178, "dateTime": 1509170022331, "trialdata": {"rt": -1000, "stimulus": "/static/audio/wordpool/WAITER.wav", "key_press": -1, "type": "PRES_AUD", "word": "waiter", "wordID": 1579, "conditions": [24, 800, "a", 24000], "trial": 4, "serialpos": 21, "trial_type": "single-audio", "trial_index": 178, "time_elapsed": 774509, "internal_node_id": "0.0-133.0"}}, {"uniqueid": "MTK0119:3B4YI393VA34IMP0R218G7W7OLESSU", "current_trial": 179, "dateTime": 1509170024312, "trialdata": {"rt": -1000, "stimulus": "/static/audio/wordpool/TABLET.wav", "key_press": -1, "type": "PRES_AUD", "word": "tablet", "wordID": 1426, "conditions": [24, 800, "a", 24000], "trial": 4, "serialpos": 22, "trial_type": "single-audio", "trial_index": 179, "time_elapsed": 776490, "internal_node_id": "0.0-134.0"}}, {"uniqueid": "MTK0119:3B4YI393VA34IMP0R218G7W7OLESSU", "current_trial": 180, "dateTime": 1509170026218, "trialdata": {"rt": -1000, "stimulus": "/static/audio/wordpool/SUBWAY.wav", "key_press": -1, "type": "PRES_AUD", "word": "subway", "wordID": 1399, "conditions": [24, 800, "a", 24000], "trial": 4, "serialpos": 23, "trial_type": "single-audio", "trial_index": 180, "time_elapsed": 778395, "internal_node_id": "0.0-135.0"}}, {"uniqueid": "MTK0119:3B4YI393VA34IMP0R218G7W7OLESSU", "current_trial": 181, "dateTime": 1509170027483, "trialdata": {"rt": -1, "stimulus": "", "key_press": -1, "type": "PRE_RECALL_DELAY", "trial_type": "single-stim", "trial_index": 181, "time_elapsed": 779660, "internal_node_id": "0.0-136.0-0.0"}}, {"uniqueid": "MTK0119:3B4YI393VA34IMP0R218G7W7OLESSU", "current_trial": 182, "dateTime": 1509170027987, "trialdata": {"rt": -1000, "stimulus": "/static/audio/400Hz.wav", "key_press": -1, "type": "PRE_RECALL_ALERT", "trial_type": "single-audio", "trial_index": 182, "time_elapsed": 780165, "internal_node_id": "0.0-137.0"}}, {"uniqueid": "MTK0119:3B4YI393VA34IMP0R218G7W7OLESSU", "current_trial": 183, "dateTime": 1509170087996, "trialdata": {"rt": [2315, 3043, 3863, 4622, 5769, 6920, 16057, 16851, 27102], "recwords": ["pluto", "frame", "taxi", "table", "frame", "subway", "flower", "truck", "tower"], "type": "FREE_RECALL", "conditions": [24, 800, "a", 24000], "trial": 4, "trial_type": "free-recall", "trial_index": 183, "time_elapsed": 840170, "internal_node_id": "0.0-138.0-0.0"}}, {"uniqueid": "MTK0119:3B4YI393VA34IMP0R218G7W7OLESSU", "current_trial": 184, "dateTime": 1509170090930, "trialdata": {"rt": 931, "key_press": 32, "type": "INSTRUCTIONS", "trial_type": "text", "trial_index": 184, "time_elapsed": 843107, "internal_node_id": "0.0-139.0"}}, {"uniqueid": "MTK0119:3B4YI393VA34IMP0R218G7W7OLESSU", "current_trial": 185, "dateTime": 1509170116936, "trialdata": {"rt": [2382, 4404, 7405, 9886, 15057, 16315, 18187, 20374, 23292], "responses": ["15", "10", "18", "15", "17", "15", "12", "19", "13"], "num1": [7, 1, 9, 9, 7, 1, 2, 3, 4, 2], "num2": [1, 8, 3, 2, 4, 7, 9, 7, 1, 8], "num3": [7, 1, 6, 4, 6, 7, 1, 9, 8, 9], "type": "DISTRACTOR", "conditions": [12, 800, "v", 24000], "trial": 5, "trial_type": "math-distractor", "trial_index": 185, "time_elapsed": 869113, "internal_node_id": "0.0-140.0"}}, {"uniqueid": "MTK0119:3B4YI393VA34IMP0R218G7W7OLESSU", "current_trial": 186, "dateTime": 1509170119942, "trialdata": {"rt": -1, "stimulus": "<p id=\"stim\">10</p>", "key_press": -1, "trial_type": "single-stim", "trial_index": 186, "time_elapsed": 872120, "internal_node_id": "0.0-141.0-0.0"}}, {"uniqueid": "MTK0119:3B4YI393VA34IMP0R218G7W7OLESSU", "current_trial": 187, "dateTime": 1509170120945, "trialdata": {"rt": -1, "stimulus": "<p id=\"stim\">9</p>", "key_press": -1, "trial_type": "single-stim", "trial_index": 187, "time_elapsed": 873123, "internal_node_id": "0.0-141.0-1.0"}}, {"uniqueid": "MTK0119:3B4YI393VA34IMP0R218G7W7OLESSU", "current_trial": 188, "dateTime": 1509170121952, "trialdata": {"rt": -1, "stimulus": "<p id=\"stim\">8</p>", "key_press": -1, "trial_type": "single-stim", "trial_index": 188, "time_elapsed": 874130, "internal_node_id": "0.0-141.0-2.0"}}, {"uniqueid": "MTK0119:3B4YI393VA34IMP0R218G7W7OLESSU", "current_trial": 189, "dateTime": 1509170122954, "trialdata": {"rt": -1, "stimulus": "<p id=\"stim\">7</p>", "key_press": -1, "trial_type": "single-stim", "trial_index": 189, "time_elapsed": 875132, "internal_node_id": "0.0-141.0-3.0"}}, {"uniqueid": "MTK0119:3B4YI393VA34IMP0R218G7W7OLESSU", "current_trial": 190, "dateTime": 1509170123960, "trialdata": {"rt": -1, "stimulus": "<p id=\"stim\">6</p>", "key_press": -1, "trial_type": "single-stim", "trial_index": 190, "time_elapsed": 876137, "internal_node_id": "0.0-141.0-4.0"}}, {"uniqueid": "MTK0119:3B4YI393VA34IMP0R218G7W7OLESSU", "current_trial": 191, "dateTime": 1509170124967, "trialdata": {"rt": -1, "stimulus": "<p id=\"stim\">5</p>", "key_press": -1, "trial_type": "single-stim", "trial_index": 191, "time_elapsed": 877145, "internal_node_id": "0.0-141.0-5.0"}}, {"uniqueid": "MTK0119:3B4YI393VA34IMP0R218G7W7OLESSU", "current_trial": 192, "dateTime": 1509170125971, "trialdata": {"rt": -1, "stimulus": "<p id=\"stim\">4</p>", "key_press": -1, "trial_type": "single-stim", "trial_index": 192, "time_elapsed": 878149, "internal_node_id": "0.0-141.0-6.0"}}, {"uniqueid": "MTK0119:3B4YI393VA34IMP0R218G7W7OLESSU", "current_trial": 193, "dateTime": 1509170126974, "trialdata": {"rt": -1, "stimulus": "<p id=\"stim\">3</p>", "key_press": -1, "trial_type": "single-stim", "trial_index": 193, "time_elapsed": 879151, "internal_node_id": "0.0-141.0-7.0"}}, {"uniqueid": "MTK0119:3B4YI393VA34IMP0R218G7W7OLESSU", "current_trial": 194, "dateTime": 1509170127979, "trialdata": {"rt": -1, "stimulus": "<p id=\"stim\">2</p>", "key_press": -1, "trial_type": "single-stim", "trial_index": 194, "time_elapsed": 880157, "internal_node_id": "0.0-141.0-8.0"}}, {"uniqueid": "MTK0119:3B4YI393VA34IMP0R218G7W7OLESSU", "current_trial": 195, "dateTime": 1509170128979, "trialdata": {"rt": -1, "stimulus": "<p id=\"stim\">1</p>", "key_press": -1, "trial_type": "single-stim", "trial_index": 195, "time_elapsed": 881157, "internal_node_id": "0.0-141.0-9.0"}}, {"uniqueid": "MTK0119:3B4YI393VA34IMP0R218G7W7OLESSU", "current_trial": 196, "dateTime": 1509170130484, "trialdata": {"rt": -1, "stimulus": "<p id=\"stim\">+</p>", "key_press": -1, "type": "FIXATION", "trial_type": "single-stim", "trial_index": 196, "time_elapsed": 882661, "internal_node_id": "0.0-142.0-0.0"}}, {"uniqueid": "MTK0119:3B4YI393VA34IMP0R218G7W7OLESSU", "current_trial": 197, "dateTime": 1509170131287, "trialdata": {"rt": -1, "stimulus": "<p id=\"stim\">SURVEY</p>", "key_press": -1, "type": "PRES_VIS", "word": "survey", "wordID": 1413, "conditions": [12, 800, "v", 24000], "trial": 5, "serialpos": 0, "trial_type": "single-stim", "trial_index": 197, "time_elapsed": 883465, "internal_node_id": "0.0-143.0"}}, {"uniqueid": "MTK0119:3B4YI393VA34IMP0R218G7W7OLESSU", "current_trial": 198, "dateTime": 1509170132955, "trialdata": {"rt": -1, "stimulus": "<p id=\"stim\">KNIFE</p>", "key_press": -1, "type": "PRES_VIS", "word": "knife", "wordID": 784, "conditions": [12, 800, "v", 24000], "trial": 5, "serialpos": 1, "trial_type": "single-stim", "trial_index": 198, "time_elapsed": 885133, "internal_node_id": "0.0-144.0"}}, {"uniqueid": "MTK0119:3B4YI393VA34IMP0R218G7W7OLESSU", "current_trial": 199, "dateTime": 1509170134798, "trialdata": {"rt": -1, "stimulus": "<p id=\"stim\">DORM</p>", "key_press": -1, "type": "PRES_VIS", "word": "dorm", "wordID": 487, "conditions": [12, 800, "v", 24000], "trial": 5, "serialpos": 2, "trial_type": "single-stim", "trial_index": 199, "time_elapsed": 886976, "internal_node_id": "0.0-145.0"}}, {"uniqueid": "MTK0119:3B4YI393VA34IMP0R218G7W7OLESSU", "current_trial": 200, "dateTime": 1509170136455, "trialdata": {"rt": -1, "stimulus": "<p id=\"stim\">SUITCASE</p>", "key_press": -1, "type": "PRES_VIS", "word": "suitcase", "wordID": 1402, "conditions": [12, 800, "v", 24000], "trial": 5, "serialpos": 3, "trial_type": "single-stim", "trial_index": 200, "time_elapsed": 888633, "internal_node_id": "0.0-146.0"}}, {"uniqueid": "MTK0119:3B4YI393VA34IMP0R218G7W7OLESSU", "current_trial": 201, "dateTime": 1509170138266, "trialdata": {"rt": -1, "stimulus": "<p id=\"stim\">GUARD</p>", "key_press": -1, "type": "PRES_VIS", "word": "guard", "wordID": 666, "conditions": [12, 800, "v", 24000], "trial": 5, "serialpos": 4, "trial_type": "single-stim", "trial_index": 201, "time_elapsed": 890444, "internal_node_id": "0.0-147.0"}}, {"uniqueid": "MTK0119:3B4YI393VA34IMP0R218G7W7OLESSU", "current_trial": 202, "dateTime": 1509170140100, "trialdata": {"rt": -1, "stimulus": "<p id=\"stim\">CASHIER</p>", "key_press": -1, "type": "PRES_VIS", "word": "cashier", "wordID": 253, "conditions": [12, 800, "v", 24000], "trial": 5, "serialpos": 5, "trial_type": "single-stim", "trial_index": 202, "time_elapsed": 892278, "internal_node_id": "0.0-148.0"}}, {"uniqueid": "MTK0119:3B4YI393VA34IMP0R218G7W7OLESSU", "current_trial": 203, "dateTime": 1509170141986, "trialdata": {"rt": -1, "stimulus": "<p id=\"stim\">WAITRESS</p>", "key_press": -1, "type": "PRES_VIS", "word": "waitress", "wordID": 1580, "conditions": [12, 800, "v", 24000], "trial": 5, "serialpos": 6, "trial_type": "single-stim", "trial_index": 203, "time_elapsed": 894164, "internal_node_id": "0.0-149.0"}}, {"uniqueid": "MTK0119:3B4YI393VA34IMP0R218G7W7OLESSU", "current_trial": 204, "dateTime": 1509170143644, "trialdata": {"rt": -1, "stimulus": "<p id=\"stim\">PISTOL</p>", "key_press": -1, "type": "PRES_VIS", "word": "pistol", "wordID": 1074, "conditions": [12, 800, "v", 24000], "trial": 5, "serialpos": 7, "trial_type": "single-stim", "trial_index": 204, "time_elapsed": 895822, "internal_node_id": "0.0-150.0"}}, {"uniqueid": "MTK0119:3B4YI393VA34IMP0R218G7W7OLESSU", "current_trial": 205, "dateTime": 1509170145482, "trialdata": {"rt": -1, "stimulus": "<p id=\"stim\">COOKBOOK</p>", "key_press": -1, "type": "PRES_VIS", "word": "cookbook", "wordID": 372, "conditions": [12, 800, "v", 24000], "trial": 5, "serialpos": 8, "trial_type": "single-stim", "trial_index": 205, "time_elapsed": 897660, "internal_node_id": "0.0-151.0"}}, {"uniqueid": "MTK0119:3B4YI393VA34IMP0R218G7W7OLESSU", "current_trial": 206, "dateTime": 1509170147128, "trialdata": {"rt": -1, "stimulus": "<p id=\"stim\">STOMACH</p>", "key_press": -1, "type": "PRES_VIS", "word": "stomach", "wordID": 1383, "conditions": [12, 800, "v", 24000], "trial": 5, "serialpos": 9, "trial_type": "single-stim", "trial_index": 206, "time_elapsed": 899306, "internal_node_id": "0.0-152.0"}}, {"uniqueid": "MTK0119:3B4YI393VA34IMP0R218G7W7OLESSU", "current_trial": 207, "dateTime": 1509170148924, "trialdata": {"rt": -1, "stimulus": "<p id=\"stim\">HELMET</p>", "key_press": -1, "type": "PRES_VIS", "word": "helmet", "wordID": 701, "conditions": [12, 800, "v", 24000], "trial": 5, "serialpos": 10, "trial_type": "single-stim", "trial_index": 207, "time_elapsed": 901101, "internal_node_id": "0.0-153.0"}}, {"uniqueid": "MTK0119:3B4YI393VA34IMP0R218G7W7OLESSU", "current_trial": 208, "dateTime": 1509170150621, "trialdata": {"rt": -1, "stimulus": "<p id=\"stim\">TROMBONE</p>", "key_press": -1, "type": "PRES_VIS", "word": "trombone", "wordID": 1507, "conditions": [12, 800, "v", 24000], "trial": 5, "serialpos": 11, "trial_type": "single-stim", "trial_index": 208, "time_elapsed": 902799, "internal_node_id": "0.0-154.0"}}, {"uniqueid": "MTK0119:3B4YI393VA34IMP0R218G7W7OLESSU", "current_trial": 209, "dateTime": 1509170152924, "trialdata": {"rt": -1, "stimulus": "", "key_press": -1, "type": "PRE_RECALL_DELAY", "trial_type": "single-stim", "trial_index": 209, "time_elapsed": 905101, "internal_node_id": "0.0-155.0-0.0"}}, {"uniqueid": "MTK0119:3B4YI393VA34IMP0R218G7W7OLESSU", "current_trial": 210, "dateTime": 1509170153431, "trialdata": {"rt": -1000, "stimulus": "/static/audio/400Hz.wav", "key_press": -1, "type": "PRE_RECALL_ALERT", "trial_type": "single-audio", "trial_index": 210, "time_elapsed": 905609, "internal_node_id": "0.0-156.0"}}, {"uniqueid": "MTK0119:3B4YI393VA34IMP0R218G7W7OLESSU", "current_trial": 211, "dateTime": 1509170213443, "trialdata": {"rt": [2507, 3356, 5234, 8710, 10075, 16984, 25880], "recwords": ["survey", "knife", "waitress", "helmet", "trombone", "suitcase", "cookbook"], "type": "FREE_RECALL", "conditions": [12, 800, "v", 24000], "trial": 5, "trial_type": "free-recall", "trial_index": 211, "time_elapsed": 965613, "internal_node_id": "0.0-157.0-0.0"}}, {"uniqueid": "MTK0119:3B4YI393VA34IMP0R218G7W7OLESSU", "current_trial": 212, "dateTime": 1509170216965, "trialdata": {"rt": 1520, "key_press": 32, "type": "INSTRUCTIONS", "trial_type": "text", "trial_index": 212, "time_elapsed": 969143, "internal_node_id": "0.0-158.0"}}, {"uniqueid": "MTK0119:3B4YI393VA34IMP0R218G7W7OLESSU", "current_trial": 213, "dateTime": 1509170242971, "trialdata": {"rt": [3065, 5303, 8408, 10049, 13054, 17641, 19753, 21557], "responses": ["20", "12", "8", "12", "18", "15", "9", "14"], "num1": [7, 7, 3, 2, 3, 9, 1, 3, 8], "num2": [6, 4, 3, 9, 6, 3, 1, 3, 2], "num3": [7, 1, 2, 1, 9, 8, 7, 8, 6], "type": "DISTRACTOR", "conditions": [12, 800, "a", 24000], "trial": 6, "trial_type": "math-distractor", "trial_index": 213, "time_elapsed": 995149, "internal_node_id": "0.0-159.0"}}, {"uniqueid": "MTK0119:3B4YI393VA34IMP0R218G7W7OLESSU", "current_trial": 214, "dateTime": 1509170245974, "trialdata": {"rt": -1, "stimulus": "<p id=\"stim\">10</p>", "key_press": -1, "trial_type": "single-stim", "trial_index": 214, "time_elapsed": 998152, "internal_node_id": "0.0-160.0-0.0"}}, {"uniqueid": "MTK0119:3B4YI393VA34IMP0R218G7W7OLESSU", "current_trial": 215, "dateTime": 1509170246977, "trialdata": {"rt": -1, "stimulus": "<p id=\"stim\">9</p>", "key_press": -1, "trial_type": "single-stim", "trial_index": 215, "time_elapsed": 999155, "internal_node_id": "0.0-160.0-1.0"}}, {"uniqueid": "MTK0119:3B4YI393VA34IMP0R218G7W7OLESSU", "current_trial": 216, "dateTime": 1509170247982, "trialdata": {"rt": -1, "stimulus": "<p id=\"stim\">8</p>", "key_press": -1, "trial_type": "single-stim", "trial_index": 216, "time_elapsed": 1000159, "internal_node_id": "0.0-160.0-2.0"}}, {"uniqueid": "MTK0119:3B4YI393VA34IMP0R218G7W7OLESSU", "current_trial": 217, "dateTime": 1509170248987, "trialdata": {"rt": -1, "stimulus": "<p id=\"stim\">7</p>", "key_press": -1, "trial_type": "single-stim", "trial_index": 217, "time_elapsed": 1001165, "internal_node_id": "0.0-160.0-3.0"}}, {"uniqueid": "MTK0119:3B4YI393VA34IMP0R218G7W7OLESSU", "current_trial": 218, "dateTime": 1509170249987, "trialdata": {"rt": -1, "stimulus": "<p id=\"stim\">6</p>", "key_press": -1, "trial_type": "single-stim", "trial_index": 218, "time_elapsed": 1002165, "internal_node_id": "0.0-160.0-4.0"}}, {"uniqueid": "MTK0119:3B4YI393VA34IMP0R218G7W7OLESSU", "current_trial": 219, "dateTime": 1509170250989, "trialdata": {"rt": -1, "stimulus": "<p id=\"stim\">5</p>", "key_press": -1, "trial_type": "single-stim", "trial_index": 219, "time_elapsed": 1003167, "internal_node_id": "0.0-160.0-5.0"}}, {"uniqueid": "MTK0119:3B4YI393VA34IMP0R218G7W7OLESSU", "current_trial": 220, "dateTime": 1509170251992, "trialdata": {"rt": -1, "stimulus": "<p id=\"stim\">4</p>", "key_press": -1, "trial_type": "single-stim", "trial_index": 220, "time_elapsed": 1004170, "internal_node_id": "0.0-160.0-6.0"}}, {"uniqueid": "MTK0119:3B4YI393VA34IMP0R218G7W7OLESSU", "current_trial": 221, "dateTime": 1509170252993, "trialdata": {"rt": -1, "stimulus": "<p id=\"stim\">3</p>", "key_press": -1, "trial_type": "single-stim", "trial_index": 221, "time_elapsed": 1005171, "internal_node_id": "0.0-160.0-7.0"}}, {"uniqueid": "MTK0119:3B4YI393VA34IMP0R218G7W7OLESSU", "current_trial": 222, "dateTime": 1509170253995, "trialdata": {"rt": -1, "stimulus": "<p id=\"stim\">2</p>", "key_press": -1, "trial_type": "single-stim", "trial_index": 222, "time_elapsed": 1006173, "internal_node_id": "0.0-160.0-8.0"}}, {"uniqueid": "MTK0119:3B4YI393VA34IMP0R218G7W7OLESSU", "current_trial": 223, "dateTime": 1509170254996, "trialdata": {"rt": -1, "stimulus": "<p id=\"stim\">1</p>", "key_press": -1, "trial_type": "single-stim", "trial_index": 223, "time_elapsed": 1007174, "internal_node_id": "0.0-160.0-9.0"}}, {"uniqueid": "MTK0119:3B4YI393VA34IMP0R218G7W7OLESSU", "current_trial": 224, "dateTime": 1509170256500, "trialdata": {"rt": -1, "stimulus": "<p id=\"stim\">+</p>", "key_press": -1, "type": "FIXATION", "trial_type": "single-stim", "trial_index": 224, "time_elapsed": 1008678, "internal_node_id": "0.0-161.0-0.0"}}, {"uniqueid": "MTK0119:3B4YI393VA34IMP0R218G7W7OLESSU", "current_trial": 225, "dateTime": 1509170258332, "trialdata": {"rt": -1000, "stimulus": "/static/audio/wordpool/GALLON.wav", "key_press": -1, "type": "PRES_AUD", "word": "gallon", "wordID": 617, "conditions": [12, 800, "a", 24000], "trial": 6, "serialpos": 0, "trial_type": "single-audio", "trial_index": 225, "time_elapsed": 1010510, "internal_node_id": "0.0-162.0"}}, {"uniqueid": "MTK0119:3B4YI393VA34IMP0R218G7W7OLESSU", "current_trial": 226, "dateTime": 1509170260193, "trialdata": {"rt": -1000, "stimulus": "/static/audio/wordpool/BARREL.wav", "key_press": -1, "type": "PRES_AUD", "word": "barrel", "wordID": 90, "conditions": [12, 800, "a", 24000], "trial": 6, "serialpos": 1, "trial_type": "single-audio", "trial_index": 226, "time_elapsed": 1012368, "internal_node_id": "0.0-163.0"}}, {"uniqueid": "MTK0119:3B4YI393VA34IMP0R218G7W7OLESSU", "current_trial": 227, "dateTime": 1509170261956, "trialdata": {"rt": -1000, "stimulus": "/static/audio/wordpool/BULLET.wav", "key_press": -1, "type": "PRES_AUD", "word": "bullet", "wordID": 193, "conditions": [12, 800, "a", 24000], "trial": 6, "serialpos": 2, "trial_type": "single-audio", "trial_index": 227, "time_elapsed": 1014133, "internal_node_id": "0.0-164.0"}}, {"uniqueid": "MTK0119:3B4YI393VA34IMP0R218G7W7OLESSU", "current_trial": 228, "dateTime": 1509170263624, "trialdata": {"rt": -1000, "stimulus": "/static/audio/wordpool/ICING.wav", "key_press": -1, "type": "PRES_AUD", "word": "icing", "wordID": 731, "conditions": [12, 800, "a", 24000], "trial": 6, "serialpos": 3, "trial_type": "single-audio", "trial_index": 228, "time_elapsed": 1015802, "internal_node_id": "0.0-165.0"}}, {"uniqueid": "MTK0119:3B4YI393VA34IMP0R218G7W7OLESSU", "current_trial": 229, "dateTime": 1509170265465, "trialdata": {"rt": -1000, "stimulus": "/static/audio/wordpool/CUPBOARD.wav", "key_press": -1, "type": "PRES_AUD", "word": "cupboard", "wordID": 424, "conditions": [12, 800, "a", 24000], "trial": 6, "serialpos": 4, "trial_type": "single-audio", "trial_index": 229, "time_elapsed": 1017642, "internal_node_id": "0.0-166.0"}}, {"uniqueid": "MTK0119:3B4YI393VA34IMP0R218G7W7OLESSU", "current_trial": 230, "dateTime": 1509170267392, "trialdata": {"rt": -1000, "stimulus": "/static/audio/wordpool/CAMEL.wav", "key_press": -1, "type": "PRES_AUD", "word": "camel", "wordID": 222, "conditions": [12, 800, "a", 24000], "trial": 6, "serialpos": 5, "trial_type": "single-audio", "trial_index": 230, "time_elapsed": 1019570, "internal_node_id": "0.0-167.0"}}, {"uniqueid": "MTK0119:3B4YI393VA34IMP0R218G7W7OLESSU", "current_trial": 231, "dateTime": 1509170269252, "trialdata": {"rt": -1000, "stimulus": "/static/audio/wordpool/RIFLE.wav", "key_press": -1, "type": "PRES_AUD", "word": "rifle", "wordID": 1191, "conditions": [12, 800, "a", 24000], "trial": 6, "serialpos": 6, "trial_type": "single-audio", "trial_index": 231, "time_elapsed": 1021429, "internal_node_id": "0.0-168.0"}}, {"uniqueid": "MTK0119:3B4YI393VA34IMP0R218G7W7OLESSU", "current_trial": 232, "dateTime": 1509170271098, "trialdata": {"rt": -1000, "stimulus": "/static/audio/wordpool/LUGGAGE.wav", "key_press": -1, "type": "PRES_AUD", "word": "luggage", "wordID": 846, "conditions": [12, 800, "a", 24000], "trial": 6, "serialpos": 7, "trial_type": "single-audio", "trial_index": 232, "time_elapsed": 1023276, "internal_node_id": "0.0-169.0"}}, {"uniqueid": "MTK0119:3B4YI393VA34IMP0R218G7W7OLESSU", "current_trial": 233, "dateTime": 1509170273039, "trialdata": {"rt": -1000, "stimulus": "/static/audio/wordpool/CLOUD.wav", "key_press": -1, "type": "PRES_AUD", "word": "cloud", "wordID": 327, "conditions": [12, 800, "a", 24000], "trial": 6, "serialpos": 8, "trial_type": "single-audio", "trial_index": 233, "time_elapsed": 1025217, "internal_node_id": "0.0-170.0"}}, {"uniqueid": "MTK0119:3B4YI393VA34IMP0R218G7W7OLESSU", "current_trial": 234, "dateTime": 1509170274781, "trialdata": {"rt": -1000, "stimulus": "/static/audio/wordpool/JURY.wav", "key_press": -1, "type": "PRES_AUD", "word": "jury", "wordID": 765, "conditions": [12, 800, "a", 24000], "trial": 6, "serialpos": 9, "trial_type": "single-audio", "trial_index": 234, "time_elapsed": 1026959, "internal_node_id": "0.0-171.0"}}, {"uniqueid": "MTK0119:3B4YI393VA34IMP0R218G7W7OLESSU", "current_trial": 235, "dateTime": 1509170276417, "trialdata": {"rt": -1000, "stimulus": "/static/audio/wordpool/DONKEY.wav", "key_press": -1, "type": "PRES_AUD", "word": "donkey", "wordID": 483, "conditions": [12, 800, "a", 24000], "trial": 6, "serialpos": 10, "trial_type": "single-audio", "trial_index": 235, "time_elapsed": 1028595, "internal_node_id": "0.0-172.0"}}, {"uniqueid": "MTK0119:3B4YI393VA34IMP0R218G7W7OLESSU", "current_trial": 236, "dateTime": 1509170278076, "trialdata": {"rt": -1000, "stimulus": "/static/audio/wordpool/MASK.wav", "key_press": -1, "type": "PRES_AUD", "word": "mask", "wordID": 875, "conditions": [12, 800, "a", 24000], "trial": 6, "serialpos": 11, "trial_type": "single-audio", "trial_index": 236, "time_elapsed": 1030254, "internal_node_id": "0.0-173.0"}}, {"uniqueid": "MTK0119:3B4YI393VA34IMP0R218G7W7OLESSU", "current_trial": 237, "dateTime": 1509170279418, "trialdata": {"rt": -1, "stimulus": "", "key_press": -1, "type": "PRE_RECALL_DELAY", "trial_type": "single-stim", "trial_index": 237, "time_elapsed": 1031596, "internal_node_id": "0.0-174.0-0.0"}}, {"uniqueid": "MTK0119:3B4YI393VA34IMP0R218G7W7OLESSU", "current_trial": 238, "dateTime": 1509170279930, "trialdata": {"rt": -1000, "stimulus": "/static/audio/400Hz.wav", "key_press": -1, "type": "PRE_RECALL_ALERT", "trial_type": "single-audio", "trial_index": 238, "time_elapsed": 1032108, "internal_node_id": "0.0-175.0"}}, {"uniqueid": "MTK0119:3B4YI393VA34IMP0R218G7W7OLESSU", "current_trial": 239, "dateTime": 1509170339949, "trialdata": {"rt": [2241, 5178, 6229, 7763, 10681, 12280, 17578, 55239], "recwords": ["gallon", "cloud", "jury", "donkey", "gallon", "mask", "icing", "mask"], "type": "FREE_RECALL", "conditions": [12, 800, "a", 24000], "trial": 6, "trial_type": "free-recall", "trial_index": 239, "time_elapsed": 1092115, "internal_node_id": "0.0-176.0-0.0"}}, {"uniqueid": "MTK0119:3B4YI393VA34IMP0R218G7W7OLESSU", "current_trial": 240, "dateTime": 1509170343356, "trialdata": {"rt": 1403, "key_press": 32, "type": "INSTRUCTIONS", "trial_type": "text", "trial_index": 240, "time_elapsed": 1095533, "internal_node_id": "0.0-177.0"}}, {"uniqueid": "MTK0119:3B4YI393VA34IMP0R218G7W7OLESSU", "current_trial": 241, "dateTime": 1509170369360, "trialdata": {"rt": [3234, 9090, 11966, 16309, 18477, 19739], "responses": ["13", "22", "12", "21", "12", "13"], "num1": [4, 8, 3, 6, 4, 5, 8], "num2": [2, 9, 3, 9, 7, 5, 3], "num3": [7, 6, 6, 6, 1, 3, 7], "type": "DISTRACTOR", "conditions": [24, 1600, "a", 24000], "trial": 7, "trial_type": "math-distractor", "trial_index": 241, "time_elapsed": 1121538, "internal_node_id": "0.0-178.0"}}, {"uniqueid": "MTK0119:3B4YI393VA34IMP0R218G7W7OLESSU", "current_trial": 242, "dateTime": 1509170372364, "trialdata": {"rt": -1, "stimulus": "<p id=\"stim\">10</p>", "key_press": -1, "trial_type": "single-stim", "trial_index": 242, "time_elapsed": 1124542, "internal_node_id": "0.0-179.0-0.0"}}, {"uniqueid": "MTK0119:3B4YI393VA34IMP0R218G7W7OLESSU", "current_trial": 243, "dateTime": 1509170373368, "trialdata": {"rt": -1, "stimulus": "<p id=\"stim\">9</p>", "key_press": -1, "trial_type": "single-stim", "trial_index": 243, "time_elapsed": 1125546, "internal_node_id": "0.0-179.0-1.0"}}, {"uniqueid": "MTK0119:3B4YI393VA34IMP0R218G7W7OLESSU", "current_trial": 244, "dateTime": 1509170374373, "trialdata": {"rt": -1, "stimulus": "<p id=\"stim\">8</p>", "key_press": -1, "trial_type": "single-stim", "trial_index": 244, "time_elapsed": 1126551, "internal_node_id": "0.0-179.0-2.0"}}, {"uniqueid": "MTK0119:3B4YI393VA34IMP0R218G7W7OLESSU", "current_trial": 245, "dateTime": 1509170375377, "trialdata": {"rt": -1, "stimulus": "<p id=\"stim\">7</p>", "key_press": -1, "trial_type": "single-stim", "trial_index": 245, "time_elapsed": 1127555, "internal_node_id": "0.0-179.0-3.0"}}, {"uniqueid": "MTK0119:3B4YI393VA34IMP0R218G7W7OLESSU", "current_trial": 246, "dateTime": 1509170376379, "trialdata": {"rt": -1, "stimulus": "<p id=\"stim\">6</p>", "key_press": -1, "trial_type": "single-stim", "trial_index": 246, "time_elapsed": 1128557, "internal_node_id": "0.0-179.0-4.0"}}, {"uniqueid": "MTK0119:3B4YI393VA34IMP0R218G7W7OLESSU", "current_trial": 247, "dateTime": 1509170377379, "trialdata": {"rt": -1, "stimulus": "<p id=\"stim\">5</p>", "key_press": -1, "trial_type": "single-stim", "trial_index": 247, "time_elapsed": 1129557, "internal_node_id": "0.0-179.0-5.0"}}, {"uniqueid": "MTK0119:3B4YI393VA34IMP0R218G7W7OLESSU", "current_trial": 248, "dateTime": 1509170378389, "trialdata": {"rt": -1, "stimulus": "<p id=\"stim\">4</p>", "key_press": -1, "trial_type": "single-stim", "trial_index": 248, "time_elapsed": 1130567, "internal_node_id": "0.0-179.0-6.0"}}, {"uniqueid": "MTK0119:3B4YI393VA34IMP0R218G7W7OLESSU", "current_trial": 249, "dateTime": 1509170379391, "trialdata": {"rt": -1, "stimulus": "<p id=\"stim\">3</p>", "key_press": -1, "trial_type": "single-stim", "trial_index": 249, "time_elapsed": 1131569, "internal_node_id": "0.0-179.0-7.0"}}, {"uniqueid": "MTK0119:3B4YI393VA34IMP0R218G7W7OLESSU", "current_trial": 250, "dateTime": 1509170380394, "trialdata": {"rt": -1, "stimulus": "<p id=\"stim\">2</p>", "key_press": -1, "trial_type": "single-stim", "trial_index": 250, "time_elapsed": 1132572, "internal_node_id": "0.0-179.0-8.0"}}, {"uniqueid": "MTK0119:3B4YI393VA34IMP0R218G7W7OLESSU", "current_trial": 251, "dateTime": 1509170381397, "trialdata": {"rt": -1, "stimulus": "<p id=\"stim\">1</p>", "key_press": -1, "trial_type": "single-stim", "trial_index": 251, "time_elapsed": 1133575, "internal_node_id": "0.0-179.0-9.0"}}, {"uniqueid": "MTK0119:3B4YI393VA34IMP0R218G7W7OLESSU", "current_trial": 252, "dateTime": 1509170382900, "trialdata": {"rt": -1, "stimulus": "<p id=\"stim\">+</p>", "key_press": -1, "type": "FIXATION", "trial_type": "single-stim", "trial_index": 252, "time_elapsed": 1135077, "internal_node_id": "0.0-180.0-0.0"}}, {"uniqueid": "MTK0119:3B4YI393VA34IMP0R218G7W7OLESSU", "current_trial": 253, "dateTime": 1509170385625, "trialdata": {"rt": -1000, "stimulus": "/static/audio/wordpool/GANGSTER.wav", "key_press": -1, "type": "PRES_AUD", "word": "gangster", "wordID": 619, "conditions": [24, 1600, "a", 24000], "trial": 7, "serialpos": 0, "trial_type": "single-audio", "trial_index": 253, "time_elapsed": 1137802, "internal_node_id": "0.0-181.0"}}, {"uniqueid": "MTK0119:3B4YI393VA34IMP0R218G7W7OLESSU", "current_trial": 254, "dateTime": 1509170388339, "trialdata": {"rt": -1000, "stimulus": "/static/audio/wordpool/KLEENEX.wav", "key_press": -1, "type": "PRES_AUD", "word": "kleenex", "wordID": 781, "conditions": [24, 1600, "a", 24000], "trial": 7, "serialpos": 1, "trial_type": "single-audio", "trial_index": 254, "time_elapsed": 1140517, "internal_node_id": "0.0-182.0"}}, {"uniqueid": "MTK0119:3B4YI393VA34IMP0R218G7W7OLESSU", "current_trial": 255, "dateTime": 1509170391045, "trialdata": {"rt": -1000, "stimulus": "/static/audio/wordpool/PIANO.wav", "key_press": -1, "type": "PRES_AUD", "word": "piano", "wordID": 1056, "conditions": [24, 1600, "a", 24000], "trial": 7, "serialpos": 2, "trial_type": "single-audio", "trial_index": 255, "time_elapsed": 1143223, "internal_node_id": "0.0-183.0"}}, {"uniqueid": "MTK0119:3B4YI393VA34IMP0R218G7W7OLESSU", "current_trial": 256, "dateTime": 1509170393672, "trialdata": {"rt": -1000, "stimulus": "/static/audio/wordpool/BANJO.wav", "key_press": -1, "type": "PRES_AUD", "word": "banjo", "wordID": 81, "conditions": [24, 1600, "a", 24000], "trial": 7, "serialpos": 3, "trial_type": "single-audio", "trial_index": 256, "time_elapsed": 1145850, "internal_node_id": "0.0-184.0"}}, {"uniqueid": "MTK0119:3B4YI393VA34IMP0R218G7W7OLESSU", "current_trial": 257, "dateTime": 1509170396137, "trialdata": {"rt": -1000, "stimulus": "/static/audio/wordpool/CLIMBER.wav", "key_press": -1, "type": "PRES_AUD", "word": "climber", "wordID": 322, "conditions": [24, 1600, "a", 24000], "trial": 7, "serialpos": 4, "trial_type": "single-audio", "trial_index": 257, "time_elapsed": 1148315, "internal_node_id": "0.0-185.0"}}, {"uniqueid": "MTK0119:3B4YI393VA34IMP0R218G7W7OLESSU", "current_trial": 258, "dateTime": 1509170398560, "trialdata": {"rt": -1000, "stimulus": "/static/audio/wordpool/GUITAR.wav", "key_press": -1, "type": "PRES_AUD", "word": "guitar", "wordID": 669, "conditions": [24, 1600, "a", 24000], "trial": 7, "serialpos": 5, "trial_type": "single-audio", "trial_index": 258, "time_elapsed": 1150738, "internal_node_id": "0.0-186.0"}}, {"uniqueid": "MTK0119:3B4YI393VA34IMP0R218G7W7OLESSU", "current_trial": 259, "dateTime": 1509170401149, "trialdata": {"rt": -1000, "stimulus": "/static/audio/wordpool/FUNGUS.wav", "key_press": -1, "type": "PRES_AUD", "word": "fungus", "wordID": 613, "conditions": [24, 1600, "a", 24000], "trial": 7, "serialpos": 6, "trial_type": "single-audio", "trial_index": 259, "time_elapsed": 1153327, "internal_node_id": "0.0-187.0"}}, {"uniqueid": "MTK0119:3B4YI393VA34IMP0R218G7W7OLESSU", "current_trial": 260, "dateTime": 1509170403767, "trialdata": {"rt": -1000, "stimulus": "/static/audio/wordpool/FOREST.wav", "key_press": -1, "type": "PRES_AUD", "word": "forest", "wordID": 592, "conditions": [24, 1600, "a", 24000], "trial": 7, "serialpos": 7, "trial_type": "single-audio", "trial_index": 260, "time_elapsed": 1155945, "internal_node_id": "0.0-188.0"}}, {"uniqueid": "MTK0119:3B4YI393VA34IMP0R218G7W7OLESSU", "current_trial": 261, "dateTime": 1509170406316, "trialdata": {"rt": -1000, "stimulus": "/static/audio/wordpool/HUSBAND.wav", "key_press": -1, "type": "PRES_AUD", "word": "husband", "wordID": 727, "conditions": [24, 1600, "a", 24000], "trial": 7, "serialpos": 8, "trial_type": "single-audio", "trial_index": 261, "time_elapsed": 1158494, "internal_node_id": "0.0-189.0"}}, {"uniqueid": "MTK0119:3B4YI393VA34IMP0R218G7W7OLESSU", "current_trial": 262, "dateTime": 1509170409003, "trialdata": {"rt": -1000, "stimulus": "/static/audio/wordpool/WIDOW.wav", "key_press": -1, "type": "PRES_AUD", "word": "widow", "wordID": 1607, "conditions": [24, 1600, "a", 24000], "trial": 7, "serialpos": 9, "trial_type": "single-audio", "trial_index": 262, "time_elapsed": 1161181, "internal_node_id": "0.0-190.0"}}, {"uniqueid": "MTK0119:3B4YI393VA34IMP0R218G7W7OLESSU", "current_trial": 263, "dateTime": 1509170411468, "trialdata": {"rt": -1000, "stimulus": "/static/audio/wordpool/MILDEW.wav", "key_press": -1, "type": "PRES_AUD", "word": "mildew", "wordID": 892, "conditions": [24, 1600, "a", 24000], "trial": 7, "serialpos": 10, "trial_type": "single-audio", "trial_index": 263, "time_elapsed": 1163645, "internal_node_id": "0.0-191.0"}}, {"uniqueid": "MTK0119:3B4YI393VA34IMP0R218G7W7OLESSU", "current_trial": 264, "dateTime": 1509170413903, "trialdata": {"rt": -1000, "stimulus": "/static/audio/wordpool/SUMMIT.wav", "key_press": -1, "type": "PRES_AUD", "word": "summit", "wordID": 1404, "conditions": [24, 1600, "a", 24000], "trial": 7, "serialpos": 11, "trial_type": "single-audio", "trial_index": 264, "time_elapsed": 1166078, "internal_node_id": "0.0-192.0"}}, {"uniqueid": "MTK0119:3B4YI393VA34IMP0R218G7W7OLESSU", "current_trial": 265, "dateTime": 1509170416492, "trialdata": {"rt": -1000, "stimulus": "/static/audio/wordpool/CREVICE.wav", "key_press": -1, "type": "PRES_AUD", "word": "crevice", "wordID": 404, "conditions": [24, 1600, "a", 24000], "trial": 7, "serialpos": 12, "trial_type": "single-audio", "trial_index": 265, "time_elapsed": 1168670, "internal_node_id": "0.0-193.0"}}, {"uniqueid": "MTK0119:3B4YI393VA34IMP0R218G7W7OLESSU", "current_trial": 266, "dateTime": 1509170419302, "trialdata": {"rt": -1000, "stimulus": "/static/audio/wordpool/ANTLER.wav", "key_press": -1, "type": "PRES_AUD", "word": "antler", "wordID": 28, "conditions": [24, 1600, "a", 24000], "trial": 7, "serialpos": 13, "trial_type": "single-audio", "trial_index": 266, "time_elapsed": 1171480, "internal_node_id": "0.0-194.0"}}, {"uniqueid": "MTK0119:3B4YI393VA34IMP0R218G7W7OLESSU", "current_trial": 267, "dateTime": 1509170422015, "trialdata": {"rt": -1000, "stimulus": "/static/audio/wordpool/TUTU.wav", "key_press": -1, "type": "PRES_AUD", "word": "tutu", "wordID": 1523, "conditions": [24, 1600, "a", 24000], "trial": 7, "serialpos": 14, "trial_type": "single-audio", "trial_index": 267, "time_elapsed": 1174193, "internal_node_id": "0.0-195.0"}}, {"uniqueid": "MTK0119:3B4YI393VA34IMP0R218G7W7OLESSU", "current_trial": 268, "dateTime": 1509170424505, "trialdata": {"rt": -1000, "stimulus": "/static/audio/wordpool/DRILL.wav", "key_press": -1, "type": "PRES_AUD", "word": "drill", "wordID": 496, "conditions": [24, 1600, "a", 24000], "trial": 7, "serialpos": 15, "trial_type": "single-audio", "trial_index": 268, "time_elapsed": 1176682, "internal_node_id": "0.0-196.0"}}, {"uniqueid": "MTK0119:3B4YI393VA34IMP0R218G7W7OLESSU", "current_trial": 269, "dateTime": 1509170427262, "trialdata": {"rt": -1000, "stimulus": "/static/audio/wordpool/QUEEN.wav", "key_press": -1, "type": "PRES_AUD", "word": "queen", "wordID": 1148, "conditions": [24, 1600, "a", 24000], "trial": 7, "serialpos": 16, "trial_type": "single-audio", "trial_index": 269, "time_elapsed": 1179439, "internal_node_id": "0.0-197.0"}}, {"uniqueid": "MTK0119:3B4YI393VA34IMP0R218G7W7OLESSU", "current_trial": 270, "dateTime": 1509170429981, "trialdata": {"rt": -1000, "stimulus": "/static/audio/wordpool/PRINCESS.wav", "key_press": -1, "type": "PRES_AUD", "word": "princess", "wordID": 1124, "conditions": [24, 1600, "a", 24000], "trial": 7, "serialpos": 17, "trial_type": "single-audio", "trial_index": 270, "time_elapsed": 1182159, "internal_node_id": "0.0-198.0"}}, {"uniqueid": "MTK0119:3B4YI393VA34IMP0R218G7W7OLESSU", "current_tria