{"condition": 0, "counterbalance": 2953, "assignmentId": "358UUM7WR0A6Y95VOA3SV6VFJTT7RP", "workerId": "MTK0810", "hitId": "33EEIIWHK7E6AETX3RC67A5TTJPQVN", "currenttrial": 626, "bonus": 0, "data": [{"uniqueid": "MTK0810:358UUM7WR0A6Y95VOA3SV6VFJTT7RP", "current_trial": 0, "dateTime": 1512756836299, "trialdata": {"rt": 2395, "key_press": 13, "type": "INSTRUCTIONS", "trial_type": "text", "trial_index": 0, "time_elapsed": 2405, "internal_node_id": "0.0-0.0"}}, {"uniqueid": "MTK0810:358UUM7WR0A6Y95VOA3SV6VFJTT7RP", "current_trial": 1, "dateTime": 1512756837093, "trialdata": {"rt": 784, "key_press": 13, "type": "INSTRUCTIONS", "trial_type": "text", "trial_index": 1, "time_elapsed": 3199, "internal_node_id": "0.0-1.0"}}, {"uniqueid": "MTK0810:358UUM7WR0A6Y95VOA3SV6VFJTT7RP", "current_trial": 2, "dateTime": 1512756842754, "trialdata": {"rt": [5634], "responses": ["ocean"], "type": "AUDIO_TEST", "trial_type": "audio-test", "trial_index": 2, "time_elapsed": 8860, "internal_node_id": "0.0-2.0"}}, {"uniqueid": "MTK0810:358UUM7WR0A6Y95VOA3SV6VFJTT7RP", "current_trial": 3, "dateTime": 1512756852309, "trialdata": {"rt": [9538], "responses": ["crystal"], "type": "AUDIO_TEST", "trial_type": "audio-test", "trial_index": 3, "time_elapsed": 18415, "internal_node_id": "0.0-3.0"}}, {"uniqueid": "MTK0810:358UUM7WR0A6Y95VOA3SV6VFJTT7RP", "current_trial": 4, "dateTime": 1512756862874, "trialdata": {"rt": [10547], "responses": ["spice"], "type": "AUDIO_TEST", "trial_type": "audio-test", "trial_index": 4, "time_elapsed": 28980, "internal_node_id": "0.0-4.0"}}, {"uniqueid": "MTK0810:358UUM7WR0A6Y95VOA3SV6VFJTT7RP", "current_trial": 5, "dateTime": 1512756888308, "trialdata": {"rt": 24679, "responses": "{\"Q0\":\"10:00pm\",\"Q1\":\"6:30am\",\"Q2\":\"5\"}", "type": "SLEEP_SURVEY", "trial_type": "survey-text", "trial_index": 5, "time_elapsed": 54414, "internal_node_id": "0.0-5.0"}}, {"uniqueid": "MTK0810:358UUM7WR0A6Y95VOA3SV6VFJTT7RP", "current_trial": 6, "dateTime": 1512756942436, "trialdata": {"rt": 53125, "key_press": 13, "type": "INSTRUCTIONS", "trial_type": "text", "trial_index": 6, "time_elapsed": 108539, "internal_node_id": "0.0-6.0"}}, {"uniqueid": "MTK0810:358UUM7WR0A6Y95VOA3SV6VFJTT7RP", "current_trial": 7, "dateTime": 1512756985414, "trialdata": {"rt": 42476, "key_press": 13, "type": "INSTRUCTIONS", "trial_type": "text", "trial_index": 7, "time_elapsed": 151520, "internal_node_id": "0.0-7.0"}}, {"uniqueid": "MTK0810:358UUM7WR0A6Y95VOA3SV6VFJTT7RP", "current_trial": 8, "dateTime": 1512756992192, "trialdata": {"rt": 6272, "key_press": 13, "type": "INSTRUCTIONS", "trial_type": "text", "trial_index": 8, "time_elapsed": 158298, "internal_node_id": "0.0-8.0"}}, {"uniqueid": "MTK0810:358UUM7WR0A6Y95VOA3SV6VFJTT7RP", "current_trial": 9, "dateTime": 1512757011207, "trialdata": {"rt": [4157, 6682, 8925, 11230, 16197], "responses": ["15", "11", "12", "17", "21"], "num1": [7, 3, 8, 9, 6, 9], "num2": [4, 6, 1, 1, 6, 1], "num3": [3, 2, 3, 7, 9, 8], "type": "DISTRACTOR", "conditions": [18, 1200, "v", 18000], "trial": 0, "trial_type": "math-distractor", "trial_index": 9, "time_elapsed": 177313, "internal_node_id": "0.0-9.0"}}, {"uniqueid": "MTK0810:358UUM7WR0A6Y95VOA3SV6VFJTT7RP", "current_trial": 10, "dateTime": 1512757014210, "trialdata": {"rt": -1, "stimulus": "<p id=\"stim\">10</p>", "key_press": -1, "trial_type": "single-stim", "trial_index": 10, "time_elapsed": 180316, "internal_node_id": "0.0-10.0-0.0"}}, {"uniqueid": "MTK0810:358UUM7WR0A6Y95VOA3SV6VFJTT7RP", "current_trial": 11, "dateTime": 1512757015215, "trialdata": {"rt": -1, "stimulus": "<p id=\"stim\">9</p>", "key_press": -1, "trial_type": "single-stim", "trial_index": 11, "time_elapsed": 181321, "internal_node_id": "0.0-10.0-1.0"}}, {"uniqueid": "MTK0810:358UUM7WR0A6Y95VOA3SV6VFJTT7RP", "current_trial": 12, "dateTime": 1512757016217, "trialdata": {"rt": -1, "stimulus": "<p id=\"stim\">8</p>", "key_press": -1, "trial_type": "single-stim", "trial_index": 12, "time_elapsed": 182323, "internal_node_id": "0.0-10.0-2.0"}}, {"uniqueid": "MTK0810:358UUM7WR0A6Y95VOA3SV6VFJTT7RP", "current_trial": 13, "dateTime": 1512757017222, "trialdata": {"rt": -1, "stimulus": "<p id=\"stim\">7</p>", "key_press": -1, "trial_type": "single-stim", "trial_index": 13, "time_elapsed": 183328, "internal_node_id": "0.0-10.0-3.0"}}, {"uniqueid": "MTK0810:358UUM7WR0A6Y95VOA3SV6VFJTT7RP", "current_trial": 14, "dateTime": 1512757018230, "trialdata": {"rt": -1, "stimulus": "<p id=\"stim\">6</p>", "key_press": -1, "trial_type": "single-stim", "trial_index": 14, "time_elapsed": 184333, "internal_node_id": "0.0-10.0-4.0"}}, {"uniqueid": "MTK0810:358UUM7WR0A6Y95VOA3SV6VFJTT7RP", "current_trial": 15, "dateTime": 1512757019232, "trialdata": {"rt": -1, "stimulus": "<p id=\"stim\">5</p>", "key_press": -1, "trial_type": "single-stim", "trial_index": 15, "time_elapsed": 185338, "internal_node_id": "0.0-10.0-5.0"}}, {"uniqueid": "MTK0810:358UUM7WR0A6Y95VOA3SV6VFJTT7RP", "current_trial": 16, "dateTime": 1512757020240, "trialdata": {"rt": -1, "stimulus": "<p id=\"stim\">4</p>", "key_press": -1, "trial_type": "single-stim", "trial_index": 16, "time_elapsed": 186343, "internal_node_id": "0.0-10.0-6.0"}}, {"uniqueid": "MTK0810:358UUM7WR0A6Y95VOA3SV6VFJTT7RP", "current_trial": 17, "dateTime": 1512757021245, "trialdata": {"rt": -1, "stimulus": "<p id=\"stim\">3</p>", "key_press": -1, "trial_type": "single-stim", "trial_index": 17, "time_elapsed": 187351, "internal_node_id": "0.0-10.0-7.0"}}, {"uniqueid": "MTK0810:358UUM7WR0A6Y95VOA3SV6VFJTT7RP", "current_trial": 18, "dateTime": 1512757022247, "trialdata": {"rt": -1, "stimulus": "<p id=\"stim\">2</p>", "key_press": -1, "trial_type": "single-stim", "trial_index": 18, "time_elapsed": 188353, "internal_node_id": "0.0-10.0-8.0"}}, {"uniqueid": "MTK0810:358UUM7WR0A6Y95VOA3SV6VFJTT7RP", "current_trial": 19, "dateTime": 1512757023252, "trialdata": {"rt": -1, "stimulus": "<p id=\"stim\">1</p>", "key_press": -1, "trial_type": "single-stim", "trial_index": 19, "time_elapsed": 189358, "internal_node_id": "0.0-10.0-9.0"}}, {"uniqueid": "MTK0810:358UUM7WR0A6Y95VOA3SV6VFJTT7RP", "current_trial": 20, "dateTime": 1512757024757, "trialdata": {"rt": -1, "stimulus": "<p id=\"stim\">+</p>", "key_press": -1, "type": "FIXATION", "trial_type": "single-stim", "trial_index": 20, "time_elapsed": 190863, "internal_node_id": "0.0-11.0-0.0"}}, {"uniqueid": "MTK0810:358UUM7WR0A6Y95VOA3SV6VFJTT7RP", "current_trial": 21, "dateTime": 1512757025962, "trialdata": {"rt": -1, "stimulus": "<p id=\"stim\">TILE</p>", "key_press": -1, "type": "PRES_VIS", "word": "tile", "wordID": 1467, "conditions": [18, 1200, "v", 18000], "trial": 0, "serialpos": 0, "trial_type": "single-stim", "trial_index": 21, "time_elapsed": 192068, "internal_node_id": "0.0-12.0"}}, {"uniqueid": "MTK0810:358UUM7WR0A6Y95VOA3SV6VFJTT7RP", "current_trial": 22, "dateTime": 1512757028332, "trialdata": {"rt": -1, "stimulus": "<p id=\"stim\">PLIERS</p>", "key_press": -1, "type": "PRES_VIS", "word": "pliers", "wordID": 1088, "conditions": [18, 1200, "v", 18000], "trial": 0, "serialpos": 1, "trial_type": "single-stim", "trial_index": 22, "time_elapsed": 194438, "internal_node_id": "0.0-13.0"}}, {"uniqueid": "MTK0810:358UUM7WR0A6Y95VOA3SV6VFJTT7RP", "current_trial": 23, "dateTime": 1512757030562, "trialdata": {"rt": -1, "stimulus": "<p id=\"stim\">DIVER</p>", "key_press": -1, "type": "PRES_VIS", "word": "diver", "wordID": 475, "conditions": [18, 1200, "v", 18000], "trial": 0, "serialpos": 2, "trial_type": "single-stim", "trial_index": 23, "time_elapsed": 196668, "internal_node_id": "0.0-14.0"}}, {"uniqueid": "MTK0810:358UUM7WR0A6Y95VOA3SV6VFJTT7RP", "current_trial": 24, "dateTime": 1512757032627, "trialdata": {"rt": -1, "stimulus": "<p id=\"stim\">HAMPER</p>", "key_press": -1, "type": "PRES_VIS", "word": "hamper", "wordID": 681, "conditions": [18, 1200, "v", 18000], "trial": 0, "serialpos": 3, "trial_type": "single-stim", "trial_index": 24, "time_elapsed": 198733, "internal_node_id": "0.0-15.0"}}, {"uniqueid": "MTK0810:358UUM7WR0A6Y95VOA3SV6VFJTT7RP", "current_trial": 25, "dateTime": 1512757034962, "trialdata": {"rt": -1, "stimulus": "<p id=\"stim\">REPORT</p>", "key_press": -1, "type": "PRES_VIS", "word": "report", "wordID": 1183, "conditions": [18, 1200, "v", 18000], "trial": 0, "serialpos": 4, "trial_type": "single-stim", "trial_index": 25, "time_elapsed": 201068, "internal_node_id": "0.0-16.0"}}, {"uniqueid": "MTK0810:358UUM7WR0A6Y95VOA3SV6VFJTT7RP", "current_trial": 26, "dateTime": 1512757037080, "trialdata": {"rt": -1, "stimulus": "<p id=\"stim\">CASKET</p>", "key_press": -1, "type": "PRES_VIS", "word": "casket", "wordID": 254, "conditions": [18, 1200, "v", 18000], "trial": 0, "serialpos": 5, "trial_type": "single-stim", "trial_index": 26, "time_elapsed": 203186, "internal_node_id": "0.0-17.0"}}, {"uniqueid": "MTK0810:358UUM7WR0A6Y95VOA3SV6VFJTT7RP", "current_trial": 27, "dateTime": 1512757039217, "trialdata": {"rt": -1, "stimulus": "<p id=\"stim\">POSTAGE</p>", "key_press": -1, "type": "PRES_VIS", "word": "postage", "wordID": 1112, "conditions": [18, 1200, "v", 18000], "trial": 0, "serialpos": 6, "trial_type": "single-stim", "trial_index": 27, "time_elapsed": 205323, "internal_node_id": "0.0-18.0"}}, {"uniqueid": "MTK0810:358UUM7WR0A6Y95VOA3SV6VFJTT7RP", "current_trial": 28, "dateTime": 1512757041610, "trialdata": {"rt": -1, "stimulus": "<p id=\"stim\">VICTIM</p>", "key_press": -1, "type": "PRES_VIS", "word": "victim", "wordID": 1561, "conditions": [18, 1200, "v", 18000], "trial": 0, "serialpos": 7, "trial_type": "single-stim", "trial_index": 28, "time_elapsed": 207716, "internal_node_id": "0.0-19.0"}}, {"uniqueid": "MTK0810:358UUM7WR0A6Y95VOA3SV6VFJTT7RP", "current_trial": 29, "dateTime": 1512757043803, "trialdata": {"rt": -1, "stimulus": "<p id=\"stim\">ICING</p>", "key_press": -1, "type": "PRES_VIS", "word": "icing", "wordID": 731, "conditions": [18, 1200, "v", 18000], "trial": 0, "serialpos": 8, "trial_type": "single-stim", "trial_index": 29, "time_elapsed": 209909, "internal_node_id": "0.0-20.0"}}, {"uniqueid": "MTK0810:358UUM7WR0A6Y95VOA3SV6VFJTT7RP", "current_trial": 30, "dateTime": 1512757046000, "trialdata": {"rt": -1, "stimulus": "<p id=\"stim\">MUFFIN</p>", "key_press": -1, "type": "PRES_VIS", "word": "muffin", "wordID": 928, "conditions": [18, 1200, "v", 18000], "trial": 0, "serialpos": 9, "trial_type": "single-stim", "trial_index": 30, "time_elapsed": 212106, "internal_node_id": "0.0-21.0"}}, {"uniqueid": "MTK0810:358UUM7WR0A6Y95VOA3SV6VFJTT7RP", "current_trial": 31, "dateTime": 1512757048128, "trialdata": {"rt": -1, "stimulus": "<p id=\"stim\">DAUGHTER</p>", "key_press": -1, "type": "PRES_VIS", "word": "daughter", "wordID": 441, "conditions": [18, 1200, "v", 18000], "trial": 0, "serialpos": 10, "trial_type": "single-stim", "trial_index": 31, "time_elapsed": 214231, "internal_node_id": "0.0-22.0"}}, {"uniqueid": "MTK0810:358UUM7WR0A6Y95VOA3SV6VFJTT7RP", "current_trial": 32, "dateTime": 1512757050430, "trialdata": {"rt": -1, "stimulus": "<p id=\"stim\">GIRL</p>", "key_press": -1, "type": "PRES_VIS", "word": "girl", "wordID": 636, "conditions": [18, 1200, "v", 18000], "trial": 0, "serialpos": 11, "trial_type": "single-stim", "trial_index": 32, "time_elapsed": 216536, "internal_node_id": "0.0-23.0"}}, {"uniqueid": "MTK0810:358UUM7WR0A6Y95VOA3SV6VFJTT7RP", "current_trial": 33, "dateTime": 1512757052480, "trialdata": {"rt": -1, "stimulus": "<p id=\"stim\">DRINK</p>", "key_press": -1, "type": "PRES_VIS", "word": "drink", "wordID": 497, "conditions": [18, 1200, "v", 18000], "trial": 0, "serialpos": 12, "trial_type": "single-stim", "trial_index": 33, "time_elapsed": 218586, "internal_node_id": "0.0-24.0"}}, {"uniqueid": "MTK0810:358UUM7WR0A6Y95VOA3SV6VFJTT7RP", "current_trial": 34, "dateTime": 1512757054488, "trialdata": {"rt": -1, "stimulus": "<p id=\"stim\">SWITCH</p>", "key_press": -1, "type": "PRES_VIS", "word": "switch", "wordID": 1421, "conditions": [18, 1200, "v", 18000], "trial": 0, "serialpos": 13, "trial_type": "single-stim", "trial_index": 34, "time_elapsed": 220594, "internal_node_id": "0.0-25.0"}}, {"uniqueid": "MTK0810:358UUM7WR0A6Y95VOA3SV6VFJTT7RP", "current_trial": 35, "dateTime": 1512757056673, "trialdata": {"rt": -1, "stimulus": "<p id=\"stim\">COD</p>", "key_press": -1, "type": "PRES_VIS", "word": "cod", "wordID": 339, "conditions": [18, 1200, "v", 18000], "trial": 0, "serialpos": 14, "trial_type": "single-stim", "trial_index": 35, "time_elapsed": 222779, "internal_node_id": "0.0-26.0"}}, {"uniqueid": "MTK0810:358UUM7WR0A6Y95VOA3SV6VFJTT7RP", "current_trial": 36, "dateTime": 1512757058918, "trialdata": {"rt": -1, "stimulus": "<p id=\"stim\">FLEET</p>", "key_press": -1, "type": "PRES_VIS", "word": "fleet", "wordID": 577, "conditions": [18, 1200, "v", 18000], "trial": 0, "serialpos": 15, "trial_type": "single-stim", "trial_index": 36, "time_elapsed": 225024, "internal_node_id": "0.0-27.0"}}, {"uniqueid": "MTK0810:358UUM7WR0A6Y95VOA3SV6VFJTT7RP", "current_trial": 37, "dateTime": 1512757061028, "trialdata": {"rt": -1, "stimulus": "<p id=\"stim\">SWAMP</p>", "key_press": -1, "type": "PRES_VIS", "word": "swamp", "wordID": 1415, "conditions": [18, 1200, "v", 18000], "trial": 0, "serialpos": 16, "trial_type": "single-stim", "trial_index": 37, "time_elapsed": 227134, "internal_node_id": "0.0-28.0"}}, {"uniqueid": "MTK0810:358UUM7WR0A6Y95VOA3SV6VFJTT7RP", "current_trial": 38, "dateTime": 1512757063108, "trialdata": {"rt": -1, "stimulus": "<p id=\"stim\">SHORTS</p>", "key_press": -1, "type": "PRES_VIS", "word": "shorts", "wordID": 1292, "conditions": [18, 1200, "v", 18000], "trial": 0, "serialpos": 17, "trial_type": "single-stim", "trial_index": 38, "time_elapsed": 229214, "internal_node_id": "0.0-29.0"}}, {"uniqueid": "MTK0810:358UUM7WR0A6Y95VOA3SV6VFJTT7RP", "current_trial": 39, "dateTime": 1512757065490, "trialdata": {"rt": -1, "stimulus": "", "key_press": -1, "type": "PRE_RECALL_DELAY", "trial_type": "single-stim", "trial_index": 39, "time_elapsed": 231596, "internal_node_id": "0.0-30.0-0.0"}}, {"uniqueid": "MTK0810:358UUM7WR0A6Y95VOA3SV6VFJTT7RP", "current_trial": 40, "dateTime": 1512757065999, "trialdata": {"rt": -1000, "stimulus": "/static/audio/400Hz.wav", "key_press": -1, "type": "PRE_RECALL_ALERT", "trial_type": "single-audio", "trial_index": 40, "time_elapsed": 232105, "internal_node_id": "0.0-31.0"}}, {"uniqueid": "MTK0810:358UUM7WR0A6Y95VOA3SV6VFJTT7RP", "current_trial": 41, "dateTime": 1512757126009, "trialdata": {"rt": [3160, 3312, 5504, 9744, 14288, 19418, 23663, 50213], "recwords": ["short", "", "pliers", "daughter", "cod", "muffin", "icing", ""], "type": "FREE_RECALL", "conditions": [18, 1200, "v", 18000], "trial": 0, "trial_type": "free-recall", "trial_index": 41, "time_elapsed": 292108, "internal_node_id": "0.0-32.0-0.0"}}, {"uniqueid": "MTK0810:358UUM7WR0A6Y95VOA3SV6VFJTT7RP", "current_trial": 42, "dateTime": 1512757129862, "trialdata": {"rt": 1851, "key_press": 13, "type": "INSTRUCTIONS", "trial_type": "text", "trial_index": 42, "time_elapsed": 295968, "internal_node_id": "0.0-33.0"}}, {"uniqueid": "MTK0810:358UUM7WR0A6Y95VOA3SV6VFJTT7RP", "current_trial": 43, "dateTime": 1512757149870, "trialdata": {"rt": [3362, 6460, 8950, 11222, 15065], "responses": ["15", "17", "7", "11", "14"], "num1": [4, 9, 1, 4, 3, 4], "num2": [5, 7, 3, 5, 3, 7], "num3": [6, 1, 3, 2, 8, 8], "type": "DISTRACTOR", "conditions": [18, 1200, "a", 18000], "trial": 1, "trial_type": "math-distractor", "trial_index": 43, "time_elapsed": 315976, "internal_node_id": "0.0-34.0"}}, {"uniqueid": "MTK0810:358UUM7WR0A6Y95VOA3SV6VFJTT7RP", "current_trial": 44, "dateTime": 1512757152872, "trialdata": {"rt": -1, "stimulus": "<p id=\"stim\">10</p>", "key_press": -1, "trial_type": "single-stim", "trial_index": 44, "time_elapsed": 318978, "internal_node_id": "0.0-35.0-0.0"}}, {"uniqueid": "MTK0810:358UUM7WR0A6Y95VOA3SV6VFJTT7RP", "current_trial": 45, "dateTime": 1512757153877, "trialdata": {"rt": -1, "stimulus": "<p id=\"stim\">9</p>", "key_press": -1, "trial_type": "single-stim", "trial_index": 45, "time_elapsed": 319983, "internal_node_id": "0.0-35.0-1.0"}}, {"uniqueid": "MTK0810:358UUM7WR0A6Y95VOA3SV6VFJTT7RP", "current_trial": 46, "dateTime": 1512757154882, "trialdata": {"rt": -1, "stimulus": "<p id=\"stim\">8</p>", "key_press": -1, "trial_type": "single-stim", "trial_index": 46, "time_elapsed": 320988, "internal_node_id": "0.0-35.0-2.0"}}, {"uniqueid": "MTK0810:358UUM7WR0A6Y95VOA3SV6VFJTT7RP", "current_trial": 47, "dateTime": 1512757155887, "trialdata": {"rt": -1, "stimulus": "<p id=\"stim\">7</p>", "key_press": -1, "trial_type": "single-stim", "trial_index": 47, "time_elapsed": 321993, "internal_node_id": "0.0-35.0-3.0"}}, {"uniqueid": "MTK0810:358UUM7WR0A6Y95VOA3SV6VFJTT7RP", "current_trial": 48, "dateTime": 1512757156892, "trialdata": {"rt": -1, "stimulus": "<p id=\"stim\">6</p>", "key_press": -1, "trial_type": "single-stim", "trial_index": 48, "time_elapsed": 322998, "internal_node_id": "0.0-35.0-4.0"}}, {"uniqueid": "MTK0810:358UUM7WR0A6Y95VOA3SV6VFJTT7RP", "current_trial": 49, "dateTime": 1512757157897, "trialdata": {"rt": -1, "stimulus": "<p id=\"stim\">5</p>", "key_press": -1, "trial_type": "single-stim", "trial_index": 49, "time_elapsed": 324003, "internal_node_id": "0.0-35.0-5.0"}}, {"uniqueid": "MTK0810:358UUM7WR0A6Y95VOA3SV6VFJTT7RP", "current_trial": 50, "dateTime": 1512757158902, "trialdata": {"rt": -1, "stimulus": "<p id=\"stim\">4</p>", "key_press": -1, "trial_type": "single-stim", "trial_index": 50, "time_elapsed": 325008, "internal_node_id": "0.0-35.0-6.0"}}, {"uniqueid": "MTK0810:358UUM7WR0A6Y95VOA3SV6VFJTT7RP", "current_trial": 51, "dateTime": 1512757159907, "trialdata": {"rt": -1, "stimulus": "<p id=\"stim\">3</p>", "key_press": -1, "trial_type": "single-stim", "trial_index": 51, "time_elapsed": 326013, "internal_node_id": "0.0-35.0-7.0"}}, {"uniqueid": "MTK0810:358UUM7WR0A6Y95VOA3SV6VFJTT7RP", "current_trial": 52, "dateTime": 1512757160913, "trialdata": {"rt": -1, "stimulus": "<p id=\"stim\">2</p>", "key_press": -1, "trial_type": "single-stim", "trial_index": 52, "time_elapsed": 327019, "internal_node_id": "0.0-35.0-8.0"}}, {"uniqueid": "MTK0810:358UUM7WR0A6Y95VOA3SV6VFJTT7RP", "current_trial": 53, "dateTime": 1512757161915, "trialdata": {"rt": -1, "stimulus": "<p id=\"stim\">1</p>", "key_press": -1, "trial_type": "single-stim", "trial_index": 53, "time_elapsed": 328021, "internal_node_id": "0.0-35.0-9.0"}}, {"uniqueid": "MTK0810:358UUM7WR0A6Y95VOA3SV6VFJTT7RP", "current_trial": 54, "dateTime": 1512757163418, "trialdata": {"rt": -1, "stimulus": "<p id=\"stim\">+</p>", "key_press": -1, "type": "FIXATION", "trial_type": "single-stim", "trial_index": 54, "time_elapsed": 329524, "internal_node_id": "0.0-36.0-0.0"}}, {"uniqueid": "MTK0810:358UUM7WR0A6Y95VOA3SV6VFJTT7RP", "current_trial": 55, "dateTime": 1512757165675, "trialdata": {"rt": -1000, "stimulus": "/static/audio/wordpool/HOSTESS.wav", "key_press": -1, "type": "PRES_AUD", "word": "hostess", "wordID": 722, "conditions": [18, 1200, "a", 18000], "trial": 1, "serialpos": 0, "trial_type": "single-audio", "trial_index": 55, "time_elapsed": 331779, "internal_node_id": "0.0-37.0"}}, {"uniqueid": "MTK0810:358UUM7WR0A6Y95VOA3SV6VFJTT7RP", "current_trial": 56, "dateTime": 1512757168020, "trialdata": {"rt": 1423.8095238094957, "stimulus": "/static/audio/wordpool/PRIMATE.wav", "key_press": 175, "type": "PRES_AUD", "word": "primate", "wordID": 1122, "conditions": [18, 1200, "a", 18000], "trial": 1, "serialpos": 1, "trial_type": "single-audio", "trial_index": 56, "time_elapsed": 334126, "internal_node_id": "0.0-38.0"}}, {"uniqueid": "MTK0810:358UUM7WR0A6Y95VOA3SV6VFJTT7RP", "current_trial": 57, "dateTime": 1512757170370, "trialdata": {"rt": 358.59410430833805, "stimulus": "/static/audio/wordpool/GRAVE.wav", "key_press": 175, "type": "PRES_AUD", "word": "grave", "wordID": 657, "conditions": [18, 1200, "a", 18000], "trial": 1, "serialpos": 2, "trial_type": "single-audio", "trial_index": 57, "time_elapsed": 336476, "internal_node_id": "0.0-39.0"}}, {"uniqueid": "MTK0810:358UUM7WR0A6Y95VOA3SV6VFJTT7RP", "current_trial": 58, "dateTime": 1512757172447, "trialdata": {"rt": -1000, "stimulus": "/static/audio/wordpool/RATTLE.wav", "key_press": -1, "type": "PRES_AUD", "word": "rattle", "wordID": 1169, "conditions": [18, 1200, "a", 18000], "trial": 1, "serialpos": 3, "trial_type": "single-audio", "trial_index": 58, "time_elapsed": 338553, "internal_node_id": "0.0-40.0"}}, {"uniqueid": "MTK0810:358UUM7WR0A6Y95VOA3SV6VFJTT7RP", "current_trial": 59, "dateTime": 1512757174715, "trialdata": {"rt": -1000, "stimulus": "/static/audio/wordpool/ROD.wav", "key_press": -1, "type": "PRES_AUD", "word": "rod", "wordID": 1202, "conditions": [18, 1200, "a", 18000], "trial": 1, "serialpos": 4, "trial_type": "single-audio", "trial_index": 59, "time_elapsed": 340821, "internal_node_id": "0.0-41.0"}}, {"uniqueid": "MTK0810:358UUM7WR0A6Y95VOA3SV6VFJTT7RP", "current_trial": 60, "dateTime": 1512757176741, "trialdata": {"rt": -1000, "stimulus": "/static/audio/wordpool/DRIVER.wav", "key_press": -1, "type": "PRES_AUD", "word": "driver", "wordID": 498, "conditions": [18, 1200, "a", 18000], "trial": 1, "serialpos": 5, "trial_type": "single-audio", "trial_index": 60, "time_elapsed": 342847, "internal_node_id": "0.0-42.0"}}, {"uniqueid": "MTK0810:358UUM7WR0A6Y95VOA3SV6VFJTT7RP", "current_trial": 61, "dateTime": 1512757178994, "trialdata": {"rt": -1000, "stimulus": "/static/audio/wordpool/PARROT.wav", "key_press": -1, "type": "PRES_AUD", "word": "parrot", "wordID": 1014, "conditions": [18, 1200, "a", 18000], "trial": 1, "serialpos": 6, "trial_type": "single-audio", "trial_index": 61, "time_elapsed": 345100, "internal_node_id": "0.0-43.0"}}, {"uniqueid": "MTK0810:358UUM7WR0A6Y95VOA3SV6VFJTT7RP", "current_trial": 62, "dateTime": 1512757181131, "trialdata": {"rt": -1000, "stimulus": "/static/audio/wordpool/MATTRESS.wav", "key_press": -1, "type": "PRES_AUD", "word": "mattress", "wordID": 878, "conditions": [18, 1200, "a", 18000], "trial": 1, "serialpos": 7, "trial_type": "single-audio", "trial_index": 62, "time_elapsed": 347237, "internal_node_id": "0.0-44.0"}}, {"uniqueid": "MTK0810:358UUM7WR0A6Y95VOA3SV6VFJTT7RP", "current_trial": 63, "dateTime": 1512757183299, "trialdata": {"rt": -1000, "stimulus": "/static/audio/wordpool/BREAST.wav", "key_press": -1, "type": "PRES_AUD", "word": "breast", "wordID": 170, "conditions": [18, 1200, "a", 18000], "trial": 1, "serialpos": 8, "trial_type": "single-audio", "trial_index": 63, "time_elapsed": 349405, "internal_node_id": "0.0-45.0"}}, {"uniqueid": "MTK0810:358UUM7WR0A6Y95VOA3SV6VFJTT7RP", "current_trial": 64, "dateTime": 1512757185569, "trialdata": {"rt": -1000, "stimulus": "/static/audio/wordpool/STATUE.wav", "key_press": -1, "type": "PRES_AUD", "word": "statue", "wordID": 1373, "conditions": [18, 1200, "a", 18000], "trial": 1, "serialpos": 9, "trial_type": "single-audio", "trial_index": 64, "time_elapsed": 351675, "internal_node_id": "0.0-46.0"}}, {"uniqueid": "MTK0810:358UUM7WR0A6Y95VOA3SV6VFJTT7RP", "current_trial": 65, "dateTime": 1512757187619, "trialdata": {"rt": -1000, "stimulus": "/static/audio/wordpool/HAWK.wav", "key_press": -1, "type": "PRES_AUD", "word": "hawk", "wordID": 691, "conditions": [18, 1200, "a", 18000], "trial": 1, "serialpos": 10, "trial_type": "single-audio", "trial_index": 65, "time_elapsed": 353725, "internal_node_id": "0.0-47.0"}}, {"uniqueid": "MTK0810:358UUM7WR0A6Y95VOA3SV6VFJTT7RP", "current_trial": 66, "dateTime": 1512757189939, "trialdata": {"rt": -1000, "stimulus": "/static/audio/wordpool/BLUEPRINT.wav", "key_press": -1, "type": "PRES_AUD", "word": "blueprint", "wordID": 141, "conditions": [18, 1200, "a", 18000], "trial": 1, "serialpos": 11, "trial_type": "single-audio", "trial_index": 66, "time_elapsed": 356045, "internal_node_id": "0.0-48.0"}}, {"uniqueid": "MTK0810:358UUM7WR0A6Y95VOA3SV6VFJTT7RP", "current_trial": 67, "dateTime": 1512757192161, "trialdata": {"rt": -1000, "stimulus": "/static/audio/wordpool/BULLET.wav", "key_press": -1, "type": "PRES_AUD", "word": "bullet", "wordID": 193, "conditions": [18, 1200, "a", 18000], "trial": 1, "serialpos": 12, "trial_type": "single-audio", "trial_index": 67, "time_elapsed": 358267, "internal_node_id": "0.0-49.0"}}, {"uniqueid": "MTK0810:358UUM7WR0A6Y95VOA3SV6VFJTT7RP", "current_trial": 68, "dateTime": 1512757194254, "trialdata": {"rt": -1000, "stimulus": "/static/audio/wordpool/JUDGE.wav", "key_press": -1, "type": "PRES_AUD", "word": "judge", "wordID": 760, "conditions": [18, 1200, "a", 18000], "trial": 1, "serialpos": 13, "trial_type": "single-audio", "trial_index": 68, "time_elapsed": 360360, "internal_node_id": "0.0-50.0"}}, {"uniqueid": "MTK0810:358UUM7WR0A6Y95VOA3SV6VFJTT7RP", "current_trial": 69, "dateTime": 1512757196407, "trialdata": {"rt": -1000, "stimulus": "/static/audio/wordpool/PIANO.wav", "key_press": -1, "type": "PRES_AUD", "word": "piano", "wordID": 1056, "conditions": [18, 1200, "a", 18000], "trial": 1, "serialpos": 14, "trial_type": "single-audio", "trial_index": 69, "time_elapsed": 362513, "internal_node_id": "0.0-51.0"}}, {"uniqueid": "MTK0810:358UUM7WR0A6Y95VOA3SV6VFJTT7RP", "current_trial": 70, "dateTime": 1512757198434, "trialdata": {"rt": -1000, "stimulus": "/static/audio/wordpool/AWARD.wav", "key_press": -1, "type": "PRES_AUD", "word": "award", "wordID": 62, "conditions": [18, 1200, "a", 18000], "trial": 1, "serialpos": 15, "trial_type": "single-audio", "trial_index": 70, "time_elapsed": 364540, "internal_node_id": "0.0-52.0"}}, {"uniqueid": "MTK0810:358UUM7WR0A6Y95VOA3SV6VFJTT7RP", "current_trial": 71, "dateTime": 1512757200671, "trialdata": {"rt": -1000, "stimulus": "/static/audio/wordpool/BUG.wav", "key_press": -1, "type": "PRES_AUD", "word": "bug", "wordID": 186, "conditions": [18, 1200, "a", 18000], "trial": 1, "serialpos": 16, "trial_type": "single-audio", "trial_index": 71, "time_elapsed": 366777, "internal_node_id": "0.0-53.0"}}, {"uniqueid": "MTK0810:358UUM7WR0A6Y95VOA3SV6VFJTT7RP", "current_trial": 72, "dateTime": 1512757202699, "trialdata": {"rt": -1000, "stimulus": "/static/audio/wordpool/CLIMBER.wav", "key_press": -1, "type": "PRES_AUD", "word": "climber", "wordID": 322, "conditions": [18, 1200, "a", 18000], "trial": 1, "serialpos": 17, "trial_type": "single-audio", "trial_index": 72, "time_elapsed": 368805, "internal_node_id": "0.0-54.0"}}, {"uniqueid": "MTK0810:358UUM7WR0A6Y95VOA3SV6VFJTT7RP", "current_trial": 73, "dateTime": 1512757203952, "trialdata": {"rt": -1, "stimulus": "", "key_press": -1, "type": "PRE_RECALL_DELAY", "trial_type": "single-stim", "trial_index": 73, "time_elapsed": 370057, "internal_node_id": "0.0-55.0-0.0"}}, {"uniqueid": "MTK0810:358UUM7WR0A6Y95VOA3SV6VFJTT7RP", "current_trial": 74, "dateTime": 1512757204455, "trialdata": {"rt": -1000, "stimulus": "/static/audio/400Hz.wav", "key_press": -1, "type": "PRE_RECALL_ALERT", "trial_type": "single-audio", "trial_index": 74, "time_elapsed": 370561, "internal_node_id": "0.0-56.0"}}, {"uniqueid": "MTK0810:358UUM7WR0A6Y95VOA3SV6VFJTT7RP", "current_trial": 75, "dateTime": 1512757264472, "trialdata": {"rt": [6439, 9227, 13687, 16272, 22687, 30532, 37163], "recwords": ["climber", "statue", "rock", "piano", "hostess", "driver", "grave"], "type": "FREE_RECALL", "conditions": [18, 1200, "a", 18000], "trial": 1, "trial_type": "free-recall", "trial_index": 75, "time_elapsed": 430570, "internal_node_id": "0.0-57.0-0.0"}}, {"uniqueid": "MTK0810:358UUM7WR0A6Y95VOA3SV6VFJTT7RP", "current_trial": 76, "dateTime": 1512757271785, "trialdata": {"rt": 5299, "key_press": 13, "type": "INSTRUCTIONS", "trial_type": "text", "trial_index": 76, "time_elapsed": 437876, "internal_node_id": "0.0-58.0"}}, {"uniqueid": "MTK0810:358UUM7WR0A6Y95VOA3SV6VFJTT7RP", "current_trial": 77, "dateTime": 1512757284791, "trialdata": {"rt": [4433, 7723, 10720], "responses": ["10", "16", "17"], "num1": [3, 8, 6, 6], "num2": [1, 7, 5, 4], "num3": [6, 1, 6, 2], "type": "DISTRACTOR", "conditions": [12, 1600, "a", 12000], "trial": 2, "trial_type": "math-distractor", "trial_index": 77, "time_elapsed": 450897, "internal_node_id": "0.0-59.0"}}, {"uniqueid": "MTK0810:358UUM7WR0A6Y95VOA3SV6VFJTT7RP", "current_trial": 78, "dateTime": 1512757287871, "trialdata": {"rt": -1, "stimulus": "<p id=\"stim\">10</p>", "key_press": -1, "trial_type": "single-stim", "trial_index": 78, "time_elapsed": 453974, "internal_node_id": "0.0-60.0-0.0"}}, {"uniqueid": "MTK0810:358UUM7WR0A6Y95VOA3SV6VFJTT7RP", "current_trial": 79, "dateTime": 1512757288873, "trialdata": {"rt": -1, "stimulus": "<p id=\"stim\">9</p>", "key_press": -1, "trial_type": "single-stim", "trial_index": 79, "time_elapsed": 454979, "internal_node_id": "0.0-60.0-1.0"}}, {"uniqueid": "MTK0810:358UUM7WR0A6Y95VOA3SV6VFJTT7RP", "current_trial": 80, "dateTime": 1512757289873, "trialdata": {"rt": -1, "stimulus": "<p id=\"stim\">8</p>", "key_press": -1, "trial_type": "single-stim", "trial_index": 80, "time_elapsed": 455979, "internal_node_id": "0.0-60.0-2.0"}}, {"uniqueid": "MTK0810:358UUM7WR0A6Y95VOA3SV6VFJTT7RP", "current_trial": 81, "dateTime": 1512757290880, "trialdata": {"rt": -1, "stimulus": "<p id=\"stim\">7</p>", "key_press": -1, "trial_type": "single-stim", "trial_index": 81, "time_elapsed": 456984, "internal_node_id": "0.0-60.0-3.0"}}, {"uniqueid": "MTK0810:358UUM7WR0A6Y95VOA3SV6VFJTT7RP", "current_trial": 82, "dateTime": 1512757291880, "trialdata": {"rt": -1, "stimulus": "<p id=\"stim\">6</p>", "key_press": -1, "trial_type": "single-stim", "trial_index": 82, "time_elapsed": 457986, "internal_node_id": "0.0-60.0-4.0"}}, {"uniqueid": "MTK0810:358UUM7WR0A6Y95VOA3SV6VFJTT7RP", "current_trial": 83, "dateTime": 1512757292885, "trialdata": {"rt": -1, "stimulus": "<p id=\"stim\">5</p>", "key_press": -1, "trial_type": "single-stim", "trial_index": 83, "time_elapsed": 458988, "internal_node_id": "0.0-60.0-5.0"}}, {"uniqueid": "MTK0810:358UUM7WR0A6Y95VOA3SV6VFJTT7RP", "current_trial": 84, "dateTime": 1512757293887, "trialdata": {"rt": -1, "stimulus": "<p id=\"stim\">4</p>", "key_press": -1, "trial_type": "single-stim", "trial_index": 84, "time_elapsed": 459993, "internal_node_id": "0.0-60.0-6.0"}}, {"uniqueid": "MTK0810:358UUM7WR0A6Y95VOA3SV6VFJTT7RP", "current_trial": 85, "dateTime": 1512757294892, "trialdata": {"rt": -1, "stimulus": "<p id=\"stim\">3</p>", "key_press": -1, "trial_type": "single-stim", "trial_index": 85, "time_elapsed": 460998, "internal_node_id": "0.0-60.0-7.0"}}, {"uniqueid": "MTK0810:358UUM7WR0A6Y95VOA3SV6VFJTT7RP", "current_trial": 86, "dateTime": 1512757295892, "trialdata": {"rt": -1, "stimulus": "<p id=\"stim\">2</p>", "key_press": -1, "trial_type": "single-stim", "trial_index": 86, "time_elapsed": 461998, "internal_node_id": "0.0-60.0-8.0"}}, {"uniqueid": "MTK0810:358UUM7WR0A6Y95VOA3SV6VFJTT7RP", "current_trial": 87, "dateTime": 1512757296894, "trialdata": {"rt": -1, "stimulus": "<p id=\"stim\">1</p>", "key_press": -1, "trial_type": "single-stim", "trial_index": 87, "time_elapsed": 463000, "internal_node_id": "0.0-60.0-9.0"}}, {"uniqueid": "MTK0810:358UUM7WR0A6Y95VOA3SV6VFJTT7RP", "current_trial": 88, "dateTime": 1512757298398, "trialdata": {"rt": -1, "stimulus": "<p id=\"stim\">+</p>", "key_press": -1, "type": "FIXATION", "trial_type": "single-stim", "trial_index": 88, "time_elapsed": 464504, "internal_node_id": "0.0-61.0-0.0"}}, {"uniqueid": "MTK0810:358UUM7WR0A6Y95VOA3SV6VFJTT7RP", "current_trial": 89, "dateTime": 1512757301126, "trialdata": {"rt": 2419.3650793650363, "stimulus": "/static/audio/wordpool/LILY.wav", "key_press": 175, "type": "PRES_AUD", "word": "lily", "wordID": 820, "conditions": [12, 1600, "a", 12000], "trial": 2, "serialpos": 0, "trial_type": "single-audio", "trial_index": 89, "time_elapsed": 467232, "internal_node_id": "0.0-62.0"}}, {"uniqueid": "MTK0810:358UUM7WR0A6Y95VOA3SV6VFJTT7RP", "current_trial": 90, "dateTime": 1512757303818, "trialdata": {"rt": -1000, "stimulus": "/static/audio/wordpool/LETTUCE.wav", "key_press": -1, "type": "PRES_AUD", "word": "lettuce", "wordID": 813, "conditions": [12, 1600, "a", 12000], "trial": 2, "serialpos": 1, "trial_type": "single-audio", "trial_index": 90, "time_elapsed": 469924, "internal_node_id": "0.0-63.0"}}, {"uniqueid": "MTK0810:358UUM7WR0A6Y95VOA3SV6VFJTT7RP", "current_trial": 91, "dateTime": 1512757306270, "trialdata": {"rt": -1000, "stimulus": "/static/audio/wordpool/PLATE.wav", "key_press": -1, "type": "PRES_AUD", "word": "plate", "wordID": 1085, "conditions": [12, 1600, "a", 12000], "trial": 2, "serialpos": 2, "trial_type": "single-audio", "trial_index": 91, "time_elapsed": 472376, "internal_node_id": "0.0-64.0"}}, {"uniqueid": "MTK0810:358UUM7WR0A6Y95VOA3SV6VFJTT7RP", "current_trial": 92, "dateTime": 1512757309013, "trialdata": {"rt": -1000, "stimulus": "/static/audio/wordpool/PIMPLE.wav", "key_press": -1, "type": "PRES_AUD", "word": "pimple", "wordID": 1070, "conditions": [12, 1600, "a", 12000], "trial": 2, "serialpos": 3, "trial_type": "single-audio", "trial_index": 92, "time_elapsed": 475119, "internal_node_id": "0.0-65.0"}}, {"uniqueid": "MTK0810:358UUM7WR0A6Y95VOA3SV6VFJTT7RP", "current_trial": 93, "dateTime": 1512757311723, "trialdata": {"rt": -1000, "stimulus": "/static/audio/wordpool/FLASHLIGHT.wav", "key_press": -1, "type": "PRES_AUD", "word": "flashlight", "wordID": 574, "conditions": [12, 1600, "a", 12000], "trial": 2, "serialpos": 4, "trial_type": "single-audio", "trial_index": 93, "time_elapsed": 477829, "internal_node_id": "0.0-66.0"}}, {"uniqueid": "MTK0810:358UUM7WR0A6Y95VOA3SV6VFJTT7RP", "current_trial": 94, "dateTime": 1512757314248, "trialdata": {"rt": -1000, "stimulus": "/static/audio/wordpool/FINGER.wav", "key_press": -1, "type": "PRES_AUD", "word": "finger", "wordID": 566, "conditions": [12, 1600, "a", 12000], "trial": 2, "serialpos": 5, "trial_type": "single-audio", "trial_index": 94, "time_elapsed": 480354, "internal_node_id": "0.0-67.0"}}, {"uniqueid": "MTK0810:358UUM7WR0A6Y95VOA3SV6VFJTT7RP", "current_trial": 95, "dateTime": 1512757317027, "trialdata": {"rt": -1000, "stimulus": "/static/audio/wordpool/CABBAGE.wav", "key_press": -1, "type": "PRES_AUD", "word": "cabbage", "wordID": 209, "conditions": [12, 1600, "a", 12000], "trial": 2, "serialpos": 6, "trial_type": "single-audio", "trial_index": 95, "time_elapsed": 483133, "internal_node_id": "0.0-68.0"}}, {"uniqueid": "MTK0810:358UUM7WR0A6Y95VOA3SV6VFJTT7RP", "current_trial": 96, "dateTime": 1512757319617, "trialdata": {"rt": -1000, "stimulus": "/static/audio/wordpool/BINDER.wav", "key_press": -1, "type": "PRES_AUD", "word": "binder", "wordID": 126, "conditions": [12, 1600, "a", 12000], "trial": 2, "serialpos": 7, "trial_type": "single-audio", "trial_index": 96, "time_elapsed": 485723, "internal_node_id": "0.0-69.0"}}, {"uniqueid": "MTK0810:358UUM7WR0A6Y95VOA3SV6VFJTT7RP", "current_trial": 97, "dateTime": 1512757322127, "trialdata": {"rt": -1000, "stimulus": "/static/audio/wordpool/COOK.wav", "key_press": -1, "type": "PRES_AUD", "word": "cook", "wordID": 371, "conditions": [12, 1600, "a", 12000], "trial": 2, "serialpos": 8, "trial_type": "single-audio", "trial_index": 97, "time_elapsed": 488233, "internal_node_id": "0.0-70.0"}}, {"uniqueid": "MTK0810:358UUM7WR0A6Y95VOA3SV6VFJTT7RP", "current_trial": 98, "dateTime": 1512757324542, "trialdata": {"rt": -1000, "stimulus": "/static/audio/wordpool/KITCHEN.wav", "key_press": -1, "type": "PRES_AUD", "word": "kitchen", "wordID": 777, "conditions": [12, 1600, "a", 12000], "trial": 2, "serialpos": 9, "trial_type": "single-audio", "trial_index": 98, "time_elapsed": 490648, "internal_node_id": "0.0-71.0"}}, {"uniqueid": "MTK0810:358UUM7WR0A6Y95VOA3SV6VFJTT7RP", "current_trial": 99, "dateTime": 1512757326970, "trialdata": {"rt": -1000, "stimulus": "/static/audio/wordpool/LONDON.wav", "key_press": -1, "type": "PRES_AUD", "word": "london", "wordID": 842, "conditions": [12, 1600, "a", 12000], "trial": 2, "serialpos": 10, "trial_type": "single-audio", "trial_index": 99, "time_elapsed": 493076, "internal_node_id": "0.0-72.0"}}, {"uniqueid": "MTK0810:358UUM7WR0A6Y95VOA3SV6VFJTT7RP", "current_trial": 100, "dateTime": 1512757329735, "trialdata": {"rt": -1000, "stimulus": "/static/audio/wordpool/FRUIT.wav", "key_press": -1, "type": "PRES_AUD", "word": "fruit", "wordID": 609, "conditions": [12, 1600, "a", 12000], "trial": 2, "serialpos": 11, "trial_type": "single-audio", "trial_index": 100, "time_elapsed": 495841, "internal_node_id": "0.0-73.0"}}, {"uniqueid": "MTK0810:358UUM7WR0A6Y95VOA3SV6VFJTT7RP", "current_trial": 101, "dateTime": 1512757331060, "trialdata": {"rt": -1, "stimulus": "", "key_press": -1, "type": "PRE_RECALL_DELAY", "trial_type": "single-stim", "trial_index": 101, "time_elapsed": 497166, "internal_node_id": "0.0-74.0-0.0"}}, {"uniqueid": "MTK0810:358UUM7WR0A6Y95VOA3SV6VFJTT7RP", "current_trial": 102, "dateTime": 1512757331562, "trialdata": {"rt": -1000, "stimulus": "/static/audio/400Hz.wav", "key_press": -1, "type": "PRE_RECALL_ALERT", "trial_type": "single-audio", "trial_index": 102, "time_elapsed": 497668, "internal_node_id": "0.0-75.0"}}, {"uniqueid": "MTK0810:358UUM7WR0A6Y95VOA3SV6VFJTT7RP", "current_trial": 103, "dateTime": 1512757391576, "trialdata": {"rt": [2338, 5623, 10492, 15159, 22509], "recwords": ["fruit", "london", "lettuce", "cabbage", "finger"], "type": "FREE_RECALL", "conditions": [12, 1600, "a", 12000], "trial": 2, "trial_type": "free-recall", "trial_index": 103, "time_elapsed": 557672, "internal_node_id": "0.0-76.0-0.0"}}, {"uniqueid": "MTK0810:358UUM7WR0A6Y95VOA3SV6VFJTT7RP", "current_trial": 104, "dateTime": 1512757428484, "trialdata": {"rt": 34908, "key_press": 13, "type": "INSTRUCTIONS", "trial_type": "text", "trial_index": 104, "time_elapsed": 594590, "internal_node_id": "0.0-77.0"}}, {"uniqueid": "MTK0810:358UUM7WR0A6Y95VOA3SV6VFJTT7RP", "current_trial": 105, "dateTime": 1512757442497, "trialdata": {"rt": [4092, 7567, 10012, 11630], "responses": ["13", "16", "10", "13"], "num1": [7, 5, 1, 6, 5], "num2": [1, 4, 8, 4, 4], "num3": [5, 7, 1, 3, 3], "type": "DISTRACTOR", "conditions": [24, 800, "v", 12000], "trial": 3, "trial_type": "math-distractor", "trial_index": 105, "time_elapsed": 608603, "internal_node_id": "0.0-78.0"}}, {"uniqueid": "MTK0810:358UUM7WR0A6Y95VOA3SV6VFJTT7RP", "current_trial": 106, "dateTime": 1512757445502, "trialdata": {"rt": -1, "stimulus": "<p id=\"stim\">10</p>", "key_press": -1, "trial_type": "single-stim", "trial_index": 106, "time_elapsed": 611608, "internal_node_id": "0.0-79.0-0.0"}}, {"uniqueid": "MTK0810:358UUM7WR0A6Y95VOA3SV6VFJTT7RP", "current_trial": 107, "dateTime": 1512757446507, "trialdata": {"rt": 875, "stimulus": "<p id=\"stim\">9</p>", "key_press": 175, "trial_type": "single-stim", "trial_index": 107, "time_elapsed": 612610, "internal_node_id": "0.0-79.0-1.0"}}, {"uniqueid": "MTK0810:358UUM7WR0A6Y95VOA3SV6VFJTT7RP", "current_trial": 108, "dateTime": 1512757447506, "trialdata": {"rt": 65, "stimulus": "<p id=\"stim\">8</p>", "key_press": 175, "trial_type": "single-stim", "trial_index": 108, "time_elapsed": 613612, "internal_node_id": "0.0-79.0-2.0"}}, {"uniqueid": "MTK0810:358UUM7WR0A6Y95VOA3SV6VFJTT7RP", "current_trial": 109, "dateTime": 1512757448508, "trialdata": {"rt": -1, "stimulus": "<p id=\"stim\">7</p>", "key_press": -1, "trial_type": "single-stim", "trial_index": 109, "time_elapsed": 614614, "internal_node_id": "0.0-79.0-3.0"}}, {"uniqueid": "MTK0810:358UUM7WR0A6Y95VOA3SV6VFJTT7RP", "current_trial": 110, "dateTime": 1512757449511, "trialdata": {"rt": -1, "stimulus": "<p id=\"stim\">6</p>", "key_press": -1, "trial_type": "single-stim", "trial_index": 110, "time_elapsed": 615617, "internal_node_id": "0.0-79.0-4.0"}}, {"uniqueid": "MTK0810:358UUM7WR0A6Y95VOA3SV6VFJTT7RP", "current_trial": 111, "dateTime": 1512757450513, "trialdata": {"rt": -1, "stimulus": "<p id=\"stim\">5</p>", "key_press": -1, "trial_type": "single-stim", "trial_index": 111, "time_elapsed": 616619, "internal_node_id": "0.0-79.0-5.0"}}, {"uniqueid": "MTK0810:358UUM7WR0A6Y95VOA3SV6VFJTT7RP", "current_trial": 112, "dateTime": 1512757451516, "trialdata": {"rt": -1, "stimulus": "<p id=\"stim\">4</p>", "key_press": -1, "trial_type": "single-stim", "trial_index": 112, "time_elapsed": 617622, "internal_node_id": "0.0-79.0-6.0"}}, {"uniqueid": "MTK0810:358UUM7WR0A6Y95VOA3SV6VFJTT7RP", "current_trial": 113, "dateTime": 1512757452521, "trialdata": {"rt": -1, "stimulus": "<p id=\"stim\">3</p>", "key_press": -1, "trial_type": "single-stim", "trial_index": 113, "time_elapsed": 618624, "internal_node_id": "0.0-79.0-7.0"}}, {"uniqueid": "MTK0810:358UUM7WR0A6Y95VOA3SV6VFJTT7RP", "current_trial": 114, "dateTime": 1512757453524, "trialdata": {"rt": -1, "stimulus": "<p id=\"stim\">2</p>", "key_press": -1, "trial_type": "single-stim", "trial_index": 114, "time_elapsed": 619630, "internal_node_id": "0.0-79.0-8.0"}}, {"uniqueid": "MTK0810:358UUM7WR0A6Y95VOA3SV6VFJTT7RP", "current_trial": 115, "dateTime": 1512757454526, "trialdata": {"rt": -1, "stimulus": "<p id=\"stim\">1</p>", "key_press": -1, "trial_type": "single-stim", "trial_index": 115, "time_elapsed": 620632, "internal_node_id": "0.0-79.0-9.0"}}, {"uniqueid": "MTK0810:358UUM7WR0A6Y95VOA3SV6VFJTT7RP", "current_trial": 116, "dateTime": 1512757456031, "trialdata": {"rt": -1, "stimulus": "<p id=\"stim\">+</p>", "key_press": -1, "type": "FIXATION", "trial_type": "single-stim", "trial_index": 116, "time_elapsed": 622137, "internal_node_id": "0.0-80.0-0.0"}}, {"uniqueid": "MTK0810:358UUM7WR0A6Y95VOA3SV6VFJTT7RP", "current_trial": 117, "dateTime": 1512757456834, "trialdata": {"rt": -1, "stimulus": "<p id=\"stim\">ROBIN</p>", "key_press": -1, "type": "PRES_VIS", "word": "robin", "wordID": 1198, "conditions": [24, 800, "v", 12000], "trial": 3, "serialpos": 0, "trial_type": "single-stim", "trial_index": 117, "time_elapsed": 622940, "internal_node_id": "0.0-81.0"}}, {"uniqueid": "MTK0810:358UUM7WR0A6Y95VOA3SV6VFJTT7RP", "current_trial": 118, "dateTime": 1512757458726, "trialdata": {"rt": -1, "stimulus": "<p id=\"stim\">DRESSER</p>", "key_press": -1, "type": "PRES_VIS", "word": "dresser", "wordID": 495, "conditions": [24, 800, "v", 12000], "trial": 3, "serialpos": 1, "trial_type": "single-stim", "trial_index": 118, "time_elapsed": 624832, "internal_node_id": "0.0-82.0"}}, {"uniqueid": "MTK0810:358UUM7WR0A6Y95VOA3SV6VFJTT7RP", "current_trial": 119, "dateTime": 1512757460471, "trialdata": {"rt": -1, "stimulus": "<p id=\"stim\">CUPBOARD</p>", "key_press": -1, "type": "PRES_VIS", "word": "cupboard", "wordID": 424, "conditions": [24, 800, "v", 12000], "trial": 3, "serialpos": 2, "trial_type": "single-stim", "trial_index": 119, "time_elapsed": 626577, "internal_node_id": "0.0-83.0"}}, {"uniqueid": "MTK0810:358UUM7WR0A6Y95VOA3SV6VFJTT7RP", "current_trial": 120, "dateTime": 1512757462371, "trialdata": {"rt": -1, "stimulus": "<p id=\"stim\">NIGHTGOWN</p>", "key_press": -1, "type": "PRES_VIS", "word": "nightgown", "wordID": 952, "conditions": [24, 800, "v", 12000], "trial": 3, "serialpos": 3, "trial_type": "single-stim", "trial_index": 120, "time_elapsed": 628477, "internal_node_id": "0.0-84.0"}}, {"uniqueid": "MTK0810:358UUM7WR0A6Y95VOA3SV6VFJTT7RP", "current_trial": 121, "dateTime": 1512757464161, "trialdata": {"rt": -1, "stimulus": "<p id=\"stim\">JUNGLE</p>", "key_press": -1, "type": "PRES_VIS", "word": "jungle", "wordID": 763, "conditions": [24, 800, "v", 12000], "trial": 3, "serialpos": 4, "trial_type": "single-stim", "trial_index": 121, "time_elapsed": 630267, "internal_node_id": "0.0-85.0"}}, {"uniqueid": "MTK0810:358UUM7WR0A6Y95VOA3SV6VFJTT7RP", "current_trial": 122, "dateTime": 1512757466036, "trialdata": {"rt": -1, "stimulus": "<p id=\"stim\">ISLAND</p>", "key_press": -1, "type": "PRES_VIS", "word": "island", "wordID": 744, "conditions": [24, 800, "v", 12000], "trial": 3, "serialpos": 5, "trial_type": "single-stim", "trial_index": 122, "time_elapsed": 632142, "internal_node_id": "0.0-86.0"}}, {"uniqueid": "MTK0810:358UUM7WR0A6Y95VOA3SV6VFJTT7RP", "current_trial": 123, "dateTime": 1512757467721, "trialdata": {"rt": -1, "stimulus": "<p id=\"stim\">BLOUSE</p>", "key_press": -1, "type": "PRES_VIS", "word": "blouse", "wordID": 138, "conditions": [24, 800, "v", 12000], "trial": 3, "serialpos": 6, "trial_type": "single-stim", "trial_index": 123, "time_elapsed": 633827, "internal_node_id": "0.0-87.0"}}, {"uniqueid": "MTK0810:358UUM7WR0A6Y95VOA3SV6VFJTT7RP", "current_trial": 124, "dateTime": 1512757469481, "trialdata": {"rt": -1, "stimulus": "<p id=\"stim\">MAMMAL</p>", "key_press": -1, "type": "PRES_VIS", "word": "mammal", "wordID": 860, "conditions": [24, 800, "v", 12000], "trial": 3, "serialpos": 7, "trial_type": "single-stim", "trial_index": 124, "time_elapsed": 635587, "internal_node_id": "0.0-88.0"}}, {"uniqueid": "MTK0810:358UUM7WR0A6Y95VOA3SV6VFJTT7RP", "current_trial": 125, "dateTime": 1512757471151, "trialdata": {"rt": -1, "stimulus": "<p id=\"stim\">BROTHER</p>", "key_press": -1, "type": "PRES_VIS", "word": "brother", "wordID": 178, "conditions": [24, 800, "v", 12000], "trial": 3, "serialpos": 8, "trial_type": "single-stim", "trial_index": 125, "time_elapsed": 637257, "internal_node_id": "0.0-89.0"}}, {"uniqueid": "MTK0810:358UUM7WR0A6Y95VOA3SV6VFJTT7RP", "current_trial": 126, "dateTime": 1512757473001, "trialdata": {"rt": -1, "stimulus": "<p id=\"stim\">SHERIFF</p>", "key_press": -1, "type": "PRES_VIS", "word": "sheriff", "wordID": 1283, "conditions": [24, 800, "v", 12000], "trial": 3, "serialpos": 9, "trial_type": "single-stim", "trial_index": 126, "time_elapsed": 639107, "internal_node_id": "0.0-90.0"}}, {"uniqueid": "MTK0810:358UUM7WR0A6Y95VOA3SV6VFJTT7RP", "current_trial": 127, "dateTime": 1512757474831, "trialdata": {"rt": -1, "stimulus": "<p id=\"stim\">PICNIC</p>", "key_press": -1, "type": "PRES_VIS", "word": "picnic", "wordID": 1059, "conditions": [24, 800, "v", 12000], "trial": 3, "serialpos": 10, "trial_type": "single-stim", "trial_index": 127, "time_elapsed": 640937, "internal_node_id": "0.0-91.0"}}, {"uniqueid": "MTK0810:358UUM7WR0A6Y95VOA3SV6VFJTT7RP", "current_trial": 128, "dateTime": 1512757476761, "trialdata": {"rt": -1, "stimulus": "<p id=\"stim\">ICEBERG</p>", "key_press": -1, "type": "PRES_VIS", "word": "iceberg", "wordID": 730, "conditions": [24, 800, "v", 12000], "trial": 3, "serialpos": 11, "trial_type": "single-stim", "trial_index": 128, "time_elapsed": 642867, "internal_node_id": "0.0-92.0"}}, {"uniqueid": "MTK0810:358UUM7WR0A6Y95VOA3SV6VFJTT7RP", "current_trial": 129, "dateTime": 1512757478586, "trialdata": {"rt": -1, "stimulus": "<p id=\"stim\">FRAGRANCE</p>", "key_press": -1, "type": "PRES_VIS", "word": "fragrance", "wordID": 598, "conditions": [24, 800, "v", 12000], "trial": 3, "serialpos": 12, "trial_type": "single-stim", "trial_index": 129, "time_elapsed": 644692, "internal_node_id": "0.0-93.0"}}, {"uniqueid": "MTK0810:358UUM7WR0A6Y95VOA3SV6VFJTT7RP", "current_trial": 130, "dateTime": 1512757480511, "trialdata": {"rt": -1, "stimulus": "<p id=\"stim\">BUNNY</p>", "key_press": -1, "type": "PRES_VIS", "word": "bunny", "wordID": 197, "conditions": [24, 800, "v", 12000], "trial": 3, "serialpos": 13, "trial_type": "single-stim", "trial_index": 130, "time_elapsed": 646617, "internal_node_id": "0.0-94.0"}}, {"uniqueid": "MTK0810:358UUM7WR0A6Y95VOA3SV6VFJTT7RP", "current_trial": 131, "dateTime": 1512757482286, "trialdata": {"rt": -1, "stimulus": "<p id=\"stim\">BRICK</p>", "key_press": -1, "type": "PRES_VIS", "word": "brick", "wordID": 171, "conditions": [24, 800, "v", 12000], "trial": 3, "serialpos": 14, "trial_type": "single-stim", "trial_index": 131, "time_elapsed": 648392, "internal_node_id": "0.0-95.0"}}, {"uniqueid": "MTK0810:358UUM7WR0A6Y95VOA3SV6VFJTT7RP", "current_trial": 132, "dateTime": 1512757484191, "trialdata": {"rt": -1, "stimulus": "<p id=\"stim\">CHILD</p>", "key_press": -1, "type": "PRES_VIS", "word": "child", "wordID": 298, "conditions": [24, 800, "v", 12000], "trial": 3, "serialpos": 15, "trial_type": "single-stim", "trial_index": 132, "time_elapsed": 650297, "internal_node_id": "0.0-96.0"}}, {"uniqueid": "MTK0810:358UUM7WR0A6Y95VOA3SV6VFJTT7RP", "current_trial": 133, "dateTime": 1512757486077, "trialdata": {"rt": -1, "stimulus": "<p id=\"stim\">ROBOT</p>", "key_press": -1, "type": "PRES_VIS", "word": "robot", "wordID": 1199, "conditions": [24, 800, "v", 12000], "trial": 3, "serialpos": 16, "trial_type": "single-stim", "trial_index": 133, "time_elapsed": 652183, "internal_node_id": "0.0-97.0"}}, {"uniqueid": "MTK0810:358UUM7WR0A6Y95VOA3SV6VFJTT7RP", "current_trial": 134, "dateTime": 1512757487912, "trialdata": {"rt": -1, "stimulus": "<p id=\"stim\">EXPERT</p>", "key_press": -1, "type": "PRES_VIS", "word": "expert", "wordID": 542, "conditions": [24, 800, "v", 12000], "trial": 3, "serialpos": 17, "trial_type": "single-stim", "trial_index": 134, "time_elapsed": 654018, "internal_node_id": "0.0-98.0"}}, {"uniqueid": "MTK0810:358UUM7WR0A6Y95VOA3SV6VFJTT7RP", "current_trial": 135, "dateTime": 1512757489849, "trialdata": {"rt": -1, "stimulus": "<p id=\"stim\">BEAKER</p>", "key_press": -1, "type": "PRES_VIS", "word": "beaker", "wordID": 103, "conditions": [24, 800, "v", 12000], "trial": 3, "serialpos": 18, "trial_type": "single-stim", "trial_index": 135, "time_elapsed": 655955, "internal_node_id": "0.0-99.0"}}, {"uniqueid": "MTK0810:358UUM7WR0A6Y95VOA3SV6VFJTT7RP", "current_trial": 136, "dateTime": 1512757491454, "trialdata": {"rt": -1, "stimulus": "<p id=\"stim\">PECAN</p>", "key_press": -1, "type": "PRES_VIS", "word": "pecan", "wordID": 1035, "conditions": [24, 800, "v", 12000], "trial": 3, "serialpos": 19, "trial_type": "single-stim", "trial_index": 136, "time_elapsed": 657560, "internal_node_id": "0.0-100.0"}}, {"uniqueid": "MTK0810:358UUM7WR0A6Y95VOA3SV6VFJTT7RP", "current_trial": 137, "dateTime": 1512757493202, "trialdata": {"rt": -1, "stimulus": "<p id=\"stim\">PEANUT</p>", "key_press": -1, "type": "PRES_VIS", "word": "peanut", "wordID": 1031, "conditions": [24, 800, "v", 12000], "trial": 3, "serialpos": 20, "trial_type": "single-stim", "trial_index": 137, "time_elapsed": 659308, "internal_node_id": "0.0-101.0"}}, {"uniqueid": "MTK0810:358UUM7WR0A6Y95VOA3SV6VFJTT7RP", "current_trial": 138, "dateTime": 1512757495074, "trialdata": {"rt": -1, "stimulus": "<p id=\"stim\">PREACHER</p>", "key_press": -1, "type": "PRES_VIS", "word": "preacher", "wordID": 1118, "conditions": [24, 800, "v", 12000], "trial": 3, "serialpos": 21, "trial_type": "single-stim", "trial_index": 138, "time_elapsed": 661180, "internal_node_id": "0.0-102.0"}}, {"uniqueid": "MTK0810:358UUM7WR0A6Y95VOA3SV6VFJTT7RP", "current_trial": 139, "dateTime": 1512757496902, "trialdata": {"rt": -1, "stimulus": "<p id=\"stim\">LADY</p>", "key_press": -1, "type": "PRES_VIS", "word": "lady", "wordID": 793, "conditions": [24, 800, "v", 12000], "trial": 3, "serialpos": 22, "trial_type": "single-stim", "trial_index": 139, "time_elapsed": 663008, "internal_node_id": "0.0-103.0"}}, {"uniqueid": "MTK0810:358UUM7WR0A6Y95VOA3SV6VFJTT7RP", "current_trial": 140, "dateTime": 1512757498887, "trialdata": {"rt": -1, "stimulus": "<p id=\"stim\">PERFUME</p>", "key_press": -1, "type": "PRES_VIS", "word": "perfume", "wordID": 1048, "conditions": [24, 800, "v", 12000], "trial": 3, "serialpos": 23, "trial_type": "single-stim", "trial_index": 140, "time_elapsed": 664993, "internal_node_id": "0.0-104.0"}}, {"uniqueid": "MTK0810:358UUM7WR0A6Y95VOA3SV6VFJTT7RP", "current_trial": 141, "dateTime": 1512757501174, "trialdata": {"rt": -1, "stimulus": "", "key_press": -1, "type": "PRE_RECALL_DELAY", "trial_type": "single-stim", "trial_index": 141, "time_elapsed": 667280, "internal_node_id": "0.0-105.0-0.0"}}, {"uniqueid": "MTK0810:358UUM7WR0A6Y95VOA3SV6VFJTT7RP", "current_trial": 142, "dateTime": 1512757501678, "trialdata": {"rt": -1000, "stimulus": "/static/audio/400Hz.wav", "key_press": -1, "type": "PRE_RECALL_ALERT", "trial_type": "single-audio", "trial_index": 142, "time_elapsed": 667784, "internal_node_id": "0.0-106.0"}}, {"uniqueid": "MTK0810:358UUM7WR0A6Y95VOA3SV6VFJTT7RP", "current_trial": 143, "dateTime": 1512757561700, "trialdata": {"rt": [3447, 6405, 9240, 11664, 16316, 25917, 27335, 40996], "recwords": ["perfume", "fragance", "jungle", "iceberg", "lady", "pecan", "peanut", "island"], "type": "FREE_RECALL", "conditions": [24, 800, "v", 12000], "trial": 3, "trial_type": "free-recall", "trial_index": 143, "time_elapsed": 727796, "internal_node_id": "0.0-107.0-0.0"}}, {"uniqueid": "MTK0810:358UUM7WR0A6Y95VOA3SV6VFJTT7RP", "current_trial": 144, "dateTime": 1512757565125, "trialdata": {"rt": 1423, "key_press": 13, "type": "INSTRUCTIONS", "trial_type": "text", "trial_index": 144, "time_elapsed": 731231, "internal_node_id": "0.0-108.0"}}, {"uniqueid": "MTK0810:358UUM7WR0A6Y95VOA3SV6VFJTT7RP", "current_trial": 145, "dateTime": 1512757591153, "trialdata": {"rt": [4285, 6833, 10398, 12673, 14850, 18855, 20905, 23335], "responses": ["18", "8", "14", "9", "13", "15", "5", "11"], "num1": [4, 2, 2, 2, 7, 7, 1, 4, 3], "num2": [9, 1, 9, 3, 2, 1, 3, 4, 8], "num3": [5, 5, 3, 4, 3, 7, 1, 3, 3], "type": "DISTRACTOR", "conditions": [24, 1600, "a", 24000], "trial": 4, "trial_type": "math-distractor", "trial_index": 145, "time_elapsed": 757256, "internal_node_id": "0.0-109.0"}}, {"uniqueid": "MTK0810:358UUM7WR0A6Y95VOA3SV6VFJTT7RP", "current_trial": 146, "dateTime": 1512757594155, "trialdata": {"rt": -1, "stimulus": "<p id=\"stim\">10</p>", "key_press": -1, "trial_type": "single-stim", "trial_index": 146, "time_elapsed": 760261, "internal_node_id": "0.0-110.0-0.0"}}, {"uniqueid": "MTK0810:358UUM7WR0A6Y95VOA3SV6VFJTT7RP", "current_trial": 147, "dateTime": 1512757595158, "trialdata": {"rt": -1, "stimulus": "<p id=\"stim\">9</p>", "key_press": -1, "trial_type": "single-stim", "trial_index": 147, "time_elapsed": 761264, "internal_node_id": "0.0-110.0-1.0"}}, {"uniqueid": "MTK0810:358UUM7WR0A6Y95VOA3SV6VFJTT7RP", "current_trial": 148, "dateTime": 1512757596316, "trialdata": {"rt": -1, "stimulus": "<p id=\"stim\">8</p>", "key_press": -1, "trial_type": "single-stim", "trial_index": 148, "time_elapsed": 762422, "internal_node_id": "0.0-110.0-2.0"}}, {"uniqueid": "MTK0810:358UUM7WR0A6Y95VOA3SV6VFJTT7RP", "current_trial": 149, "dateTime": 1512757597318, "trialdata": {"rt": -1, "stimulus": "<p id=\"stim\">7</p>", "key_press": -1, "trial_type": "single-stim", "trial_index": 149, "time_elapsed": 763424, "internal_node_id": "0.0-110.0-3.0"}}, {"uniqueid": "MTK0810:358UUM7WR0A6Y95VOA3SV6VFJTT7RP", "current_trial": 150, "dateTime": 1512757598326, "trialdata": {"rt": -1, "stimulus": "<p id=\"stim\">6</p>", "key_press": -1, "trial_type": "single-stim", "trial_index": 150, "time_elapsed": 764429, "internal_node_id": "0.0-110.0-4.0"}}, {"uniqueid": "MTK0810:358UUM7WR0A6Y95VOA3SV6VFJTT7RP", "current_trial": 151, "dateTime": 1512757599328, "trialdata": {"rt": -1, "stimulus": "<p id=\"stim\">5</p>", "key_press": -1, "trial_type": "single-stim", "trial_index": 151, "time_elapsed": 765434, "internal_node_id": "0.0-110.0-5.0"}}, {"uniqueid": "MTK0810:358UUM7WR0A6Y95VOA3SV6VFJTT7RP", "current_trial": 152, "dateTime": 1512757600331, "trialdata": {"rt": -1, "stimulus": "<p id=\"stim\">4</p>", "key_press": -1, "trial_type": "single-stim", "trial_index": 152, "time_elapsed": 766437, "internal_node_id": "0.0-110.0-6.0"}}, {"uniqueid": "MTK0810:358UUM7WR0A6Y95VOA3SV6VFJTT7RP", "current_trial": 153, "dateTime": 1512757601333, "trialdata": {"rt": -1, "stimulus": "<p id=\"stim\">3</p>", "key_press": -1, "trial_type": "single-stim", "trial_index": 153, "time_elapsed": 767439, "internal_node_id": "0.0-110.0-7.0"}}, {"uniqueid": "MTK0810:358UUM7WR0A6Y95VOA3SV6VFJTT7RP", "current_trial": 154, "dateTime": 1512757602336, "trialdata": {"rt": -1, "stimulus": "<p id=\"stim\">2</p>", "key_press": -1, "trial_type": "single-stim", "trial_index": 154, "time_elapsed": 768442, "internal_node_id": "0.0-110.0-8.0"}}, {"uniqueid": "MTK0810:358UUM7WR0A6Y95VOA3SV6VFJTT7RP", "current_trial": 155, "dateTime": 1512757603338, "trialdata": {"rt": -1, "stimulus": "<p id=\"stim\">1</p>", "key_press": -1, "trial_type": "single-stim", "trial_index": 155, "time_elapsed": 769444, "internal_node_id": "0.0-110.0-9.0"}}, {"uniqueid": "MTK0810:358UUM7WR0A6Y95VOA3SV6VFJTT7RP", "current_trial": 156, "dateTime": 1512757604846, "trialdata": {"rt": -1, "stimulus": "<p id=\"stim\">+</p>", "key_press": -1, "type": "FIXATION", "trial_type": "single-stim", "trial_index": 156, "time_elapsed": 770952, "internal_node_id": "0.0-111.0-0.0"}}, {"uniqueid": "MTK0810:358UUM7WR0A6Y95VOA3SV6VFJTT7RP", "current_trial": 157, "dateTime": 1512757607610, "trialdata": {"rt": -1000, "stimulus": "/static/audio/wordpool/SOFTBALL.wav", "key_press": -1, "type": "PRES_AUD", "word": "softball", "wordID": 1342, "conditions": [24, 1600, "a", 24000], "trial": 4, "serialpos": 0, "trial_type": "single-audio", "trial_index": 157, "time_elapsed": 773716, "internal_node_id": "0.0-112.0"}}, {"uniqueid": "MTK0810:358UUM7WR0A6Y95VOA3SV6VFJTT7RP", "current_trial": 158, "dateTime": 1512757610410, "trialdata": {"rt": -1000, "stimulus": "/static/audio/wordpool/GLASS.wav", "key_press": -1, "type": "PRES_AUD", "word": "glass", "wordID": 638, "conditions": [24, 1600, "a", 24000], "trial": 4, "serialpos": 1, "trial_type": "single-audio", "trial_index": 158, "time_elapsed": 776516, "internal_node_id": "0.0-113.0"}}, {"uniqueid": "MTK0810:358UUM7WR0A6Y95VOA3SV6VFJTT7RP", "current_trial": 159, "dateTime": 1512757612917, "trialdata": {"rt": -1000, "stimulus": "/static/audio/wordpool/SCULPTURE.wav", "key_press": -1, "type": "PRES_AUD", "word": "sculpture", "wordID": 1257, "conditions": [24, 1600, "a", 24000], "trial": 4, "serialpos": 2, "trial_type": "single-audio", "trial_index": 159, "time_elapsed": 779023, "internal_node_id": "0.0-114.0"}}, {"uniqueid": "MTK0810:358UUM7WR0A6Y95VOA3SV6VFJTT7RP", "current_trial": 160, "dateTime": 1512757615614, "trialdata": {"rt": -1000, "stimulus": "/static/audio/wordpool/GUARD.wav", "key_press": -1, "type": "PRES_AUD", "word": "guard", "wordID": 666, "conditions": [24, 1600, "a", 24000], "trial": 4, "serialpos": 3, "trial_type": "single-audio", "trial_index": 160, "time_elapsed": 781720, "internal_node_id": "0.0-115.0"}}, {"uniqueid": "MTK0810:358UUM7WR0A6Y95VOA3SV6VFJTT7RP", "current_trial": 161, "dateTime": 1512757618172, "trialdata": {"rt": -1000, "stimulus": "/static/audio/wordpool/SODA.wav", "key_press": -1, "type": "PRES_AUD", "word": "soda", "wordID": 1340, "conditions": [24, 1600, "a", 24000], "trial": 4, "serialpos": 4, "trial_type": "single-audio", "trial_index": 161, "time_elapsed": 784278, "internal_node_id": "0.0-116.0"}}, {"uniqueid": "MTK0810:358UUM7WR0A6Y95VOA3SV6VFJTT7RP", "current_trial": 162, "dateTime": 1512757620954, "trialdata": {"rt": -1000, "stimulus": "/static/audio/wordpool/COFFEE.wav", "key_press": -1, "type": "PRES_AUD", "word": "coffee", "wordID": 340, "conditions": [24, 1600, "a", 24000], "trial": 4, "serialpos": 5, "trial_type": "single-audio", "trial_index": 162, "time_elapsed": 787060, "internal_node_id": "0.0-117.0"}}, {"uniqueid": "MTK0810:358UUM7WR0A6Y95VOA3SV6VFJTT7RP", "current_trial": 163, "dateTime": 1512757623371, "trialdata": {"rt": -1000, "stimulus": "/static/audio/wordpool/TOMBSTONE.wav", "key_press": -1, "type": "PRES_AUD", "word": "tombstone", "wordID": 1477, "conditions": [24, 1600, "a", 24000], "trial": 4, "serialpos": 6, "trial_type": "single-audio", "trial_index": 163, "time_elapsed": 789477, "internal_node_id": "0.0-118.0"}}, {"uniqueid": "MTK0810:358UUM7WR0A6Y95VOA3SV6VFJTT7RP", "current_trial": 164, "dateTime": 1512757626171, "trialdata": {"rt": -1000, "stimulus": "/static/audio/wordpool/RADISH.wav", "key_press": -1, "type": "PRES_AUD", "word": "radish", "wordID": 1157, "conditions": [24, 1600, "a", 24000], "trial": 4, "serialpos": 7, "trial_type": "single-audio", "trial_index": 164, "time_elapsed": 792277, "internal_node_id": "0.0-119.0"}}, {"uniqueid": "MTK0810:358UUM7WR0A6Y95VOA3SV6VFJTT7RP", "current_trial": 165, "dateTime": 1512757628721, "trialdata": {"rt": -1000, "stimulus": "/static/audio/wordpool/POISON.wav", "key_press": -1, "type": "PRES_AUD", "word": "poison", "wordID": 1095, "conditions": [24, 1600, "a", 24000], "trial": 4, "serialpos": 8, "trial_type": "single-audio", "trial_index": 165, "time_elapsed": 794827, "internal_node_id": "0.0-120.0"}}, {"uniqueid": "MTK0810:358UUM7WR0A6Y95VOA3SV6VFJTT7RP", "current_trial": 166, "dateTime": 1512757631202, "trialdata": {"rt": -1000, "stimulus": "/static/audio/wordpool/SCALPEL.wav", "key_press": -1, "type": "PRES_AUD", "word": "scalpel", "wordID": 1242, "conditions": [24, 1600, "a", 24000], "trial": 4, "serialpos": 9, "trial_type": "single-audio", "trial_index": 166, "time_elapsed": 797308, "internal_node_id": "0.0-121.0"}}, {"uniqueid": "MTK0810:358UUM7WR0A6Y95VOA3SV6VFJTT7RP", "current_trial": 167, "dateTime": 1512757633684, "trialdata": {"rt": -1000, "stimulus": "/static/audio/wordpool/GRILL.wav", "key_press": -1, "type": "PRES_AUD", "word": "grill", "wordID": 660, "conditions": [24, 1600, "a", 24000], "trial": 4, "serialpos": 10, "trial_type": "single-audio", "trial_index": 167, "time_elapsed": 799790, "internal_node_id": "0.0-122.0"}}, {"uniqueid": "MTK0810:358UUM7WR0A6Y95VOA3SV6VFJTT7RP", "current_trial": 168, "dateTime": 1512757636474, "trialdata": {"rt": -1000, "stimulus": "/static/audio/wordpool/ONION.wav", "key_press": -1, "type": "PRES_AUD", "word": "onion", "wordID": 976, "conditions": [24, 1600, "a", 24000], "trial": 4, "serialpos": 11, "trial_type": "single-audio", "trial_index": 168, "time_elapsed": 802580, "internal_node_id": "0.0-123.0"}}, {"uniqueid": "MTK0810:358UUM7WR0A6Y95VOA3SV6VFJTT7RP", "current_trial": 169, "dateTime": 1512757638959, "trialdata": {"rt": -1000, "stimulus": "/static/audio/wordpool/TUNNEL.wav", "key_press": -1, "type": "PRES_AUD", "word": "tunnel", "wordID": 1518, "conditions": [24, 1600, "a", 24000], "trial": 4, "serialpos": 12, "trial_type": "single-audio", "trial_index": 169, "time_elapsed": 805065, "internal_node_id": "0.0-124.0"}}, {"uniqueid": "MTK0810:358UUM7WR0A6Y95VOA3SV6VFJTT7RP", "current_trial": 170, "dateTime": 1512757641479, "trialdata": {"rt": -1000, "stimulus": "/static/audio/wordpool/RIVER.wav", "key_press": -1, "type": "PRES_AUD", "word": "river", "wordID": 1193, "conditions": [24, 1600, "a", 24000], "trial": 4, "serialpos": 13, "trial_type": "single-audio", "trial_index": 170, "time_elapsed": 807585, "internal_node_id": "0.0-125.0"}}, {"uniqueid": "MTK0810:358UUM7WR0A6Y95VOA3SV6VFJTT7RP", "current_trial": 171, "dateTime": 1512757643941, "trialdata": {"rt": -1000, "stimulus": "/static/audio/wordpool/HORNET.wav", "key_press": -1, "type": "PRES_AUD", "word": "hornet", "wordID": 717, "conditions": [24, 1600, "a", 24000], "trial": 4, "serialpos": 14, "trial_type": "single-audio", "trial_index": 171, "time_elapsed": 810047, "internal_node_id": "0.0-126.0"}}, {"uniqueid": "MTK0810:358UUM7WR0A6Y95VOA3SV6VFJTT7RP", "current_trial": 172, "dateTime": 1512757646509, "trialdata": {"rt": -1000, "stimulus": "/static/audio/wordpool/WASP.wav", "key_press": -1, "type": "PRES_AUD", "word": "wasp", "wordID": 1592, "conditions": [24, 1600, "a", 24000], "trial": 4, "serialpos": 15, "trial_type": "single-audio", "trial_index": 172, "time_elapsed": 812615, "internal_node_id": "0.0-127.0"}}, {"uniqueid": "MTK0810:358UUM7WR0A6Y95VOA3SV6VFJTT7RP", "current_trial": 173, "dateTime": 1512757649346, "trialdata": {"rt": -1000, "stimulus": "/static/audio/wordpool/LIPSTICK.wav", "key_press": -1, "type": "PRES_AUD", "word": "lipstick", "wordID": 828, "conditions": [24, 1600, "a", 24000], "trial": 4, "serialpos": 16, "trial_type": "single-audio", "trial_index": 173, "time_elapsed": 815450, "internal_node_id": "0.0-128.0"}}, {"uniqueid": "MTK0810:358UUM7WR0A6Y95VOA3SV6VFJTT7RP", "current_trial": 174, "dateTime": 1512757652136, "trialdata": {"rt": -1000, "stimulus": "/static/audio/wordpool/ARM.wav", "key_press": -1, "type": "PRES_AUD", "word": "arm", "wordID": 37, "conditions": [24, 1600, "a", 24000], "trial": 4, "serialpos": 17, "trial_type": "single-audio", "trial_index": 174, "time_elapsed": 818242, "internal_node_id": "0.0-129.0"}}, {"uniqueid": "MTK0810:358UUM7WR0A6Y95VOA3SV6VFJTT7RP", "current_trial": 175, "dateTime": 1512757654543, "trialdata": {"rt": -1000, "stimulus": "/static/audio/wordpool/SCISSORS.wav", "key_press": -1, "type": "PRES_AUD", "word": "scissors", "wordID": 1249, "conditions": [24, 1600, "a", 24000], "trial": 4, "serialpos": 18, "trial_type": "single-audio", "trial_index": 175, "time_elapsed": 820649, "internal_node_id": "0.0-130.0"}}, {"uniqueid": "MTK0810:358UUM7WR0A6Y95VOA3SV6VFJTT7RP", "current_trial": 176, "dateTime": 1512757657030, "trialdata": {"rt": -1000, "stimulus": "/static/audio/wordpool/COTTAGE.wav", "key_press": -1, "type": "PRES_AUD", "word": "cottage", "wordID": 383, "conditions": [24, 1600, "a", 24000], "trial": 4, "serialpos": 19, "trial_type": "single-audio", "trial_index": 176, "time_elapsed": 823136, "internal_node_id": "0.0-131.0"}}, {"uniqueid": "MTK0810:358UUM7WR0A6Y95VOA3SV6VFJTT7RP", "current_trial": 177, "dateTime": 1512757659460, "trialdata": {"rt": -1000, "stimulus": "/static/audio/wordpool/TURKEY.wav", "key_press": -1, "type": "PRES_AUD", "word": "turkey", "wordID": 1519, "conditions": [24, 1600, "a", 24000], "trial": 4, "serialpos": 20, "trial_type": "single-audio", "trial_index": 177, "time_elapsed": 825566, "internal_node_id": "0.0-132.0"}}, {"uniqueid": "MTK0810:358UUM7WR0A6Y95VOA3SV6VFJTT7RP", "current_trial": 178, "dateTime": 1512757662220, "trialdata": {"rt": -1000, "stimulus": "/static/audio/wordpool/WHISTLE.wav", "key_press": -1, "type": "PRES_AUD", "word": "whistle", "wordID": 1605, "conditions": [24, 1600, "a", 24000], "trial": 4, "serialpos": 21, "trial_type": "single-audio", "trial_index": 178, "time_elapsed": 828326, "internal_node_id": "0.0-133.0"}}, {"uniqueid": "MTK0810:358UUM7WR0A6Y95VOA3SV6VFJTT7RP", "current_trial": 179, "dateTime": 1512757664872, "trialdata": {"rt": -1000, "stimulus": "/static/audio/wordpool/BROOK.wav", "key_press": -1, "type": "PRES_AUD", "word": "brook", "wordID": 176, "conditions": [24, 1600, "a", 24000], "trial": 4, "serialpos": 22, "trial_type": "single-audio", "trial_index": 179, "time_elapsed": 830978, "internal_node_id": "0.0-134.0"}}, {"uniqueid": "MTK0810:358UUM7WR0A6Y95VOA3SV6VFJTT7RP", "current_trial": 180, "dateTime": 1512757667531, "trialdata": {"rt": -1000, "stimulus": "/static/audio/wordpool/AIRPORT.wav", "key_press": -1, "type": "PRES_AUD", "word": "airport", "wordID": 12, "conditions": [24, 1600, "a", 24000], "trial": 4, "serialpos": 23, "trial_type": "single-audio", "trial_index": 180, "time_elapsed": 833637, "internal_node_id": "0.0-135.0"}}, {"uniqueid": "MTK0810:358UUM7WR0A6Y95VOA3SV6VFJTT7RP", "current_trial": 181, "dateTime": 1512757668810, "trialdata": {"rt": -1, "stimulus": "", "key_press": -1, "type": "PRE_RECALL_DELAY", "trial_type": "single-stim", "trial_index": 181, "time_elapsed": 834915, "internal_node_id": "0.0-136.0-0.0"}}, {"uniqueid": "MTK0810:358UUM7WR0A6Y95VOA3SV6VFJTT7RP", "current_trial": 182, "dateTime": 1512757669313, "trialdata": {"rt": -1000, "stimulus": "/static/audio/400Hz.wav", "key_press": -1, "type": "PRE_RECALL_ALERT", "trial_type": "single-audio", "trial_index": 182, "time_elapsed": 835418, "internal_node_id": "0.0-137.0"}}, {"uniqueid": "MTK0810:358UUM7WR0A6Y95VOA3SV6VFJTT7RP", "current_trial": 183, "dateTime": 1512757729331, "trialdata": {"rt": [3742, 6097, 12754, 17189, 36459], "recwords": ["airport", "raddish", "softball", "arm", "lipstick"], "type": "FREE_RECALL", "conditions": [24, 1600, "a", 24000], "trial": 4, "trial_type": "free-recall", "trial_index": 183, "time_elapsed": 895427, "internal_node_id": "0.0-138.0-0.0"}}, {"uniqueid": "MTK0810:358UUM7WR0A6Y95VOA3SV6VFJTT7RP", "current_trial": 184, "dateTime": 1512757732209, "trialdata": {"rt": 873, "key_press": 13, "type": "INSTRUCTIONS", "trial_type": "text", "trial_index": 184, "time_elapsed": 898315, "internal_node_id": "0.0-139.0"}}, {"uniqueid": "MTK0810:358UUM7WR0A6Y95VOA3SV6VFJTT7RP", "current_trial": 185, "dateTime": 1512757758216, "trialdata": {"rt": [2515, 5875, 8637, 12045, 14320, 16767], "responses": ["11", "17", "14", "13", "6", "7"], "num1": [2, 8, 3, 2, 2, 3, 3], "num2": [4, 5, 9, 9, 1, 1, 5], "num3": [5, 4, 2, 2, 3, 3, 9], "type": "DISTRACTOR", "conditions": [24, 800, "v", 24000], "trial": 5, "trial_type": "math-distractor", "trial_index": 185, "time_elapsed": 924322, "internal_node_id": "0.0-140.0"}}, {"uniqueid": "MTK0810:358UUM7WR0A6Y95VOA3SV6VFJTT7RP", "current_trial": 186, "dateTime": 1512757761218, "trialdata": {"rt": -1, "stimulus": "<p id=\"stim\">10</p>", "key_press": -1, "trial_type": "single-stim", "trial_index": 186, "time_elapsed": 927324, "internal_node_id": "0.0-141.0-0.0"}}, {"uniqueid": "MTK0810:358UUM7WR0A6Y95VOA3SV6VFJTT7RP", "current_trial": 187, "dateTime": 1512757762453, "trialdata": {"rt": -1, "stimulus": "<p id=\"stim\">9</p>", "key_press": -1, "trial_type": "single-stim", "trial_index": 187, "time_elapsed": 928559, "internal_node_id": "0.0-141.0-1.0"}}, {"uniqueid": "MTK0810:358UUM7WR0A6Y95VOA3SV6VFJTT7RP", "current_trial": 188, "dateTime": 1512757763458, "trialdata": {"rt": -1, "stimulus": "<p id=\"stim\">8</p>", "key_press": -1, "trial_type": "single-stim", "trial_index": 188, "time_elapsed": 929564, "internal_node_id": "0.0-141.0-2.0"}}, {"uniqueid": "MTK0810:358UUM7WR0A6Y95VOA3SV6VFJTT7RP", "current_trial": 189, "dateTime": 1512757764461, "trialdata": {"rt": -1, "stimulus": "<p id=\"stim\">7</p>", "key_press": -1, "trial_type": "single-stim", "trial_index": 189, "time_elapsed": 930567, "internal_node_id": "0.0-141.0-3.0"}}, {"uniqueid": "MTK0810:358UUM7WR0A6Y95VOA3SV6VFJTT7RP", "current_trial": 190, "dateTime": 1512757765464, "trialdata": {"rt": -1, "stimulus": "<p id=\"stim\">6</p>", "key_press": -1, "trial_type": "single-stim", "trial_index": 190, "time_elapsed": 931570, "internal_node_id": "0.0-141.0-4.0"}}, {"uniqueid": "MTK0810:358UUM7WR0A6Y95VOA3SV6VFJTT7RP", "current_trial": 191, "dateTime": 1512757766469, "trialdata": {"rt": -1, "stimulus": "<p id=\"stim\">5</p>", "key_press": -1, "trial_type": "single-stim", "trial_index": 191, "time_elapsed": 932572, "internal_node_id": "0.0-141.0-5.0"}}, {"uniqueid": "MTK0810:358UUM7WR0A6Y95VOA3SV6VFJTT7RP", "current_trial": 192, "dateTime": 1512757767469, "trialdata": {"rt": -1, "stimulus": "<p id=\"stim\">4</p>", "key_press": -1, "trial_type": "single-stim", "trial_index": 192, "time_elapsed": 933575, "internal_node_id": "0.0-141.0-6.0"}}, {"uniqueid": "MTK0810:358UUM7WR0A6Y95VOA3SV6VFJTT7RP", "current_trial": 193, "dateTime": 1512757768571, "trialdata": {"rt": -1, "stimulus": "<p id=\"stim\">3</p>", "key_press": -1, "trial_type": "single-stim", "trial_index": 193, "time_elapsed": 934677, "internal_node_id": "0.0-141.0-7.0"}}, {"uniqueid": "MTK0810:358UUM7WR0A6Y95VOA3SV6VFJTT7RP", "current_trial": 194, "dateTime": 1512757769573, "trialdata": {"rt": -1, "stimulus": "<p id=\"stim\">2</p>", "key_press": -1, "trial_type": "single-stim", "trial_index": 194, "time_elapsed": 935679, "internal_node_id": "0.0-141.0-8.0"}}, {"uniqueid": "MTK0810:358UUM7WR0A6Y95VOA3SV6VFJTT7RP", "current_trial": 195, "dateTime": 1512757770581, "trialdata": {"rt": -1, "stimulus": "<p id=\"stim\">1</p>", "key_press": -1, "trial_type": "single-stim", "trial_index": 195, "time_elapsed": 936684, "internal_node_id": "0.0-141.0-9.0"}}, {"uniqueid": "MTK0810:358UUM7WR0A6Y95VOA3SV6VFJTT7RP", "current_trial": 196, "dateTime": 1512757772083, "trialdata": {"rt": -1, "stimulus": "<p id=\"stim\">+</p>", "key_press": -1, "type": "FIXATION", "trial_type": "single-stim", "trial_index": 196, "time_elapsed": 938189, "internal_node_id": "0.0-142.0-0.0"}}, {"uniqueid": "MTK0810:358UUM7WR0A6Y95VOA3SV6VFJTT7RP", "current_trial": 197, "dateTime": 1512757772888, "trialdata": {"rt": -1, "stimulus": "<p id=\"stim\">FOX</p>", "key_press": -1, "type": "PRES_VIS", "word": "fox", "wordID": 597, "conditions": [24, 800, "v", 24000], "trial": 5, "serialpos": 0, "trial_type": "single-stim", "trial_index": 197, "time_elapsed": 938994, "internal_node_id": "0.0-143.0"}}, {"uniqueid": "MTK0810:358UUM7WR0A6Y95VOA3SV6VFJTT7RP", "current_trial": 198, "dateTime": 1512757774653, "trialdata": {"rt": -1, "stimulus": "<p id=\"stim\">PIGEON</p>", "key_press": -1, "type": "PRES_VIS", "word": "pigeon", "wordID": 1064, "conditions": [24, 800, "v", 24000], "trial": 5, "serialpos": 1, "trial_type": "single-stim", "trial_index": 198, "time_elapsed": 940759, "internal_node_id": "0.0-144.0"}}, {"uniqueid": "MTK0810:358UUM7WR0A6Y95VOA3SV6VFJTT7RP", "current_trial": 199, "dateTime": 1512757776538, "trialdata": {"rt": -1, "stimulus": "<p id=\"stim\">APPLE</p>", "key_press": -1, "type": "PRES_VIS", "word": "apple", "wordID": 32, "conditions": [24, 800, "v", 24000], "trial": 5, "serialpos": 2, "trial_type": "single-stim", "trial_index": 199, "time_elapsed": 942644, "internal_node_id": "0.0-145.0"}}, {"uniqueid": "MTK0810:358UUM7WR0A6Y95VOA3SV6VFJTT7RP", "current_trial": 200, "dateTime": 1512757778398, "trialdata": {"rt": -1, "stimulus": "<p id=\"stim\">FOREST</p>", "key_press": -1, "type": "PRES_VIS", "word": "forest", "wordID": 592, "conditions": [24, 800, "v", 24000], "trial": 5, "serialpos": 3, "trial_type": "single-stim", "trial_index": 200, "time_elapsed": 944504, "internal_node_id": "0.0-146.0"}}, {"uniqueid": "MTK0810:358UUM7WR0A6Y95VOA3SV6VFJTT7RP", "current_trial": 201, "dateTime": 1512757780076, "trialdata": {"rt": -1, "stimulus": "<p id=\"stim\">COSTUME</p>", "key_press": -1, "type": "PRES_VIS", "word": "costume", "wordID": 382, "conditions": [24, 800, "v", 24000], "trial": 5, "serialpos": 4, "trial_type": "single-stim", "trial_index": 201, "time_elapsed": 946179, "internal_node_id": "0.0-147.0"}}, {"uniqueid": "MTK0810:358UUM7WR0A6Y95VOA3SV6VFJTT7RP", "current_trial": 202, "dateTime": 1512757782206, "trialdata": {"rt": -1, "stimulus": "<p id=\"stim\">ULCER</p>", "key_press": -1, "type": "PRES_VIS", "word": "ulcer", "wordID": 1532, "conditions": [24, 800, "v", 24000], "trial": 5, "serialpos": 5, "trial_type": "single-stim", "trial_index": 202, "time_elapsed": 948312, "internal_node_id": "0.0-148.0"}}, {"uniqueid": "MTK0810:358UUM7WR0A6Y95VOA3SV6VFJTT7RP", "current_trial": 203, "dateTime": 1512757783888, "trialdata": {"rt": -1, "stimulus": "<p id=\"stim\">VIRUS</p>", "key_press": -1, "type": "PRES_VIS", "word": "virus", "wordID": 1571, "conditions": [24, 800, "v", 24000], "trial": 5, "serialpos": 6, "trial_type": "single-stim", "trial_index": 203, "time_elapsed": 949994, "internal_node_id": "0.0-149.0"}}, {"uniqueid": "MTK0810:358UUM7WR0A6Y95VOA3SV6VFJTT7RP", "current_trial": 204, "dateTime": 1512757785783, "trialdata": {"rt": -1, "stimulus": "<p id=\"stim\">SCARECROW</p>", "key_press": -1, "type": "PRES_VIS", "word": "scarecrow", "wordID": 1244, "conditions": [24, 800, "v", 24000], "trial": 5, "serialpos": 7, "trial_type": "single-stim", "trial_index": 204, "time_elapsed": 951889, "internal_node_id": "0.0-150.0"}}, {"uniqueid": "MTK0810:358UUM7WR0A6Y95VOA3SV6VFJTT7RP", "current_trial": 205, "dateTime": 1512757787733, "trialdata": {"rt": -1, "stimulus": "<p id=\"stim\">ASIA</p>", "key_press": -1, "type": "PRES_VIS", "word": "asia", "wordID": 45, "conditions": [24, 800, "v", 24000], "trial": 5, "serialpos": 8, "trial_type": "single-stim", "trial_index": 205, "time_elapsed": 953839, "internal_node_id": "0.0-151.0"}}, {"uniqueid": "MTK0810:358UUM7WR0A6Y95VOA3SV6VFJTT7RP", "current_trial": 206, "dateTime": 1512757789628, "trialdata": {"rt": -1, "stimulus": "<p id=\"stim\">WORKER</p>", "key_press": -1, "type": "PRES_VIS", "word": "worker", "wordID": 1620, "conditions": [24, 800, "v", 24000], "trial": 5, "serialpos": 9, "trial_type": "single-stim", "trial_index": 206, "time_elapsed": 955734, "internal_node_id": "0.0-152.0"}}, {"uniqueid": "MTK0810:358UUM7WR0A6Y95VOA3SV6VFJTT7RP", "current_trial": 207, "dateTime": 1512757791438, "trialdata": {"rt": -1, "stimulus": "<p id=\"stim\">BATHTUB</p>", "key_press": -1, "type": "PRES_VIS", "word": "bathtub", "wordID": 99, "conditions": [24, 800, "v", 24000], "trial": 5, "serialpos": 10, "trial_type": "single-stim", "trial_index": 207, "time_elapsed": 957544, "internal_node_id": "0.0-153.0"}}, {"uniqueid": "MTK0810:358UUM7WR0A6Y95VOA3SV6VFJTT7RP", "current_trial": 208, "dateTime": 1512757793388, "trialdata": {"rt": -1, "stimulus": "<p id=\"stim\">LIZARD</p>", "key_press": -1, "type": "PRES_VIS", "word": "lizard", "wordID": 833, "conditions": [24, 800, "v", 24000], "trial": 5, "serialpos": 11, "trial_type": "single-stim", "trial_index": 208, "time_elapsed": 959494, "internal_node_id": "0.0-154.0"}}, {"uniqueid": "MTK0810:358UUM7WR0A6Y95VOA3SV6VFJTT7RP", "current_trial": 209, "dateTime": 1512757795083, "trialdata": {"rt": -1, "stimulus": "<p id=\"stim\">PASTRY</p>", "key_press": -1, "type": "PRES_VIS", "word": "pastry", "wordID": 1021, "conditions": [24, 800, "v", 24000], "trial": 5, "serialpos": 12, "trial_type": "single-stim", "trial_index": 209, "time_elapsed": 961189, "internal_node_id": "0.0-155.0"}}, {"uniqueid": "MTK0810:358UUM7WR0A6Y95VOA3SV6VFJTT7RP", "current_trial": 210, "dateTime": 1512757797079, "trialdata": {"rt": -1, "stimulus": "<p id=\"stim\">PISTON</p>", "key_press": -1, "type": "PRES_VIS", "word": "piston", "wordID": 1075, "conditions": [24, 800, "v", 24000], "trial": 5, "serialpos": 13, "trial_type": "single-stim", "trial_index": 210, "time_elapsed": 963185, "internal_node_id": "0.0-156.0"}}, {"uniqueid": "MTK0810:358UUM7WR0A6Y95VOA3SV6VFJTT7RP", "current_trial": 211, "dateTime": 1512757798941, "trialdata": {"rt": -1, "stimulus": "<p id=\"stim\">VALLEY</p>", "key_press": -1, "type": "PRES_VIS", "word": "valley", "wordID": 1544, "conditions": [24, 800, "v", 24000], "trial": 5, "serialpos": 14, "trial_type": "single-stim", "trial_index": 211, "time_elapsed": 965047, "internal_node_id": "0.0-157.0"}}, {"uniqueid": "MTK0810:358UUM7WR0A6Y95VOA3SV6VFJTT7RP", "current_trial": 212, "dateTime": 1512757800701, "trialdata": {"rt": -1, "stimulus": "<p id=\"stim\">FOREHEAD</p>", "key_press": -1, "type": "PRES_VIS", "word": "forehead", "wordID": 591, "conditions": [24, 800, "v", 24000], "trial": 5, "serialpos": 15, "trial_type": "single-stim", "trial_index": 212, "time_elapsed": 966807, "internal_node_id": "0.0-158.0"}}, {"uniqueid": "MTK0810:358UUM7WR0A6Y95VOA3SV6VFJTT7RP", "current_trial": 213, "dateTime": 1512757802479, "trialdata": {"rt": -1, "stimulus": "<p id=\"stim\">SURVEY</p>", "key_press": -1, "type": "PRES_VIS", "word": "survey", "wordID": 1413, "conditions": [24, 800, "v", 24000], "trial": 5, "serialpos": 16, "trial_type": "single-stim", "trial_index": 213, "time_elapsed": 968585, "internal_node_id": "0.0-159.0"}}, {"uniqueid": "MTK0810:358UUM7WR0A6Y95VOA3SV6VFJTT7RP", "current_trial": 214, "dateTime": 1512757804096, "trialdata": {"rt": -1, "stimulus": "<p id=\"stim\">COUNTRY</p>", "key_press": -1, "type": "PRES_VIS", "word": "country", "wordID": 387, "conditions": [24, 800, "v", 24000], "trial": 5, "serialpos": 17, "trial_type": "single-stim", "trial_index": 214, "time_elapsed": 970202, "internal_node_id": "0.0-160.0"}}, {"uniqueid": "MTK0810:358UUM7WR0A6Y95VOA3SV6VFJTT7RP", "current_trial": 215, "dateTime": 1512757805721, "trialdata": {"rt": -1, "stimulus": "<p id=\"stim\">OX</p>", "key_press": -1, "type": "PRES_VIS", "word": "ox", "wordID": 993, "conditions": [24, 800, "v", 24000], "trial": 5, "serialpos": 18, "trial_type": "single-stim", "trial_index": 215, "time_elapsed": 971827, "internal_node_id": "0.0-161.0"}}, {"uniqueid": "MTK0810:358UUM7WR0A6Y95VOA3SV6VFJTT7RP", "current_trial": 216, "dateTime": 1512757807501, "trialdata": {"rt": -1, "stimulus": "<p id=\"stim\">STALLION</p>", "key_press": -1, "type": "PRES_VIS", "word": "stallion", "wordID": 1368, "conditions": [24, 800, "v", 24000], "trial": 5, "serialpos": 19, "trial_type": "single-stim", "trial_index": 216, "time_elapsed": 973607, "internal_node_id": "0.0-162.0"}}, {"uniqueid": "MTK0810:358UUM7WR0A6Y95VOA3SV6VFJTT7RP", "current_trial": 217, "dateTime": 1512757809234, "trialdata": {"rt": -1, "stimulus": "<p id=\"stim\">VALVE</p>", "key_press": -1, "type": "PRES_VIS", "word": "valve", "wordID": 1545, "conditions": [24, 800, "v", 24000], "trial": 5, "serialpos": 20, "trial_type": "single-stim", "trial_index": 217, "time_elapsed": 975340, "internal_node_id": "0.0-163.0"}}, {"uniqueid": "MTK0810:358UUM7WR0A6Y95VOA3SV6VFJTT7RP", "current_trial": 218, "dateTime": 1512757810906, "trialdata": {"rt": -1, "stimulus": "<p id=\"stim\">NURSE</p>", "key_press": -1, "type": "PRES_VIS", "word": "nurse", "wordID": 962, "conditions": [24, 800, "v", 24000], "trial": 5, "serialpos": 21, "trial_type": "single-stim", "trial_index": 218, "time_elapsed": 977012, "internal_node_id": "0.0-164.0"}}, {"uniqueid": "MTK0810:358UUM7WR0A6Y95VOA3SV6VFJTT7RP", "current_trial": 219, "dateTime": 1512757812826, "trialdata": {"rt": -1, "stimulus": "<p id=\"stim\">PATIENT</p>", "key_press": -1, "type": "PRES_VIS", "word": "patient", "wordID": 1023, "conditions": [24, 800, "v", 24000], "trial": 5, "serialpos": 22, "trial_type": "single-stim", "trial_index": 219, "time_elapsed": 978932, "internal_node_id": "0.0-165.0"}}, {"uniqueid": "MTK0810:358UUM7WR0A6Y95VOA3SV6VFJTT7RP", "current_trial": 220, "dateTime": 1512757814816, "trialdata": {"rt": -1, "stimulus": "<p id=\"stim\">HEADBAND</p>", "key_press": -1, "type": "PRES_VIS", "word": "headband", "wordID": 695, "conditions": [24, 800, "v", 24000], "trial": 5, "serialpos": 23, "trial_type": "single-stim", "trial_index": 220, "time_elapsed": 980922, "internal_node_id": "0.0-166.0"}}, {"uniqueid": "MTK0810:358UUM7WR0A6Y95VOA3SV6VFJTT7RP", "current_trial": 221, "dateTime": 1512757816984, "trialdata": {"rt": -1, "stimulus": "", "key_press": -1, "type": "PRE_RECALL_DELAY", "trial_type": "single-stim", "trial_index": 221, "time_elapsed": 983090, "internal_node_id": "0.0-167.0-0.0"}}, {"uniqueid": "MTK0810:358UUM7WR0A6Y95VOA3SV6VFJTT7RP", "current_trial": 222, "dateTime": 1512757817491, "trialdata": {"rt": -1000, "stimulus": "/static/audio/400Hz.wav", "key_press": -1, "type": "PRE_RECALL_ALERT", "trial_type": "single-audio", "trial_index": 222, "time_elapsed": 983597, "internal_node_id": "0.0-168.0"}}, {"uniqueid": "MTK0810:358UUM7WR0A6Y95VOA3SV6VFJTT7RP", "current_trial": 223, "dateTime": 1512757877513, "trialdata": {"rt": [3895, 6338, 8010, 40954, 51582], "recwords": ["pigeon", "fox", "forest", "beauty", "apple"], "type": "FREE_RECALL", "conditions": [24, 800, "v", 24000], "trial": 5, "trial_type": "free-recall", "trial_index": 223, "time_elapsed": 1043601, "internal_node_id": "0.0-169.0-0.0"}}, {"uniqueid": "MTK0810:358UUM7WR0A6Y95VOA3SV6VFJTT7RP", "current_trial": 224, "dateTime": 1512757880803, "trialdata": {"rt": 1290, "key_press": 13, "type": "INSTRUCTIONS", "trial_type": "text", "trial_index": 224, "time_elapsed": 1046909, "internal_node_id": "0.0-170.0"}}, {"uniqueid": "MTK0810:358UUM7WR0A6Y95VOA3SV6VFJTT7RP", "current_trial": 225, "dateTime": 1512757894811, "trialdata": {"rt": [3058, 7493, 10810], "responses": ["22", "15", "18"], "num1": [9, 6, 3, 3], "num2": [9, 5, 6, 5], "num3": [4, 4, 9, 6], "type": "DISTRACTOR", "conditions": [12, 800, "a", 12000], "trial": 6, "trial_type": "math-distractor", "trial_index": 225, "time_elapsed": 1060917, "internal_node_id": "0.0-171.0"}}, {"uniqueid": "MTK0810:358UUM7WR0A6Y95VOA3SV6VFJTT7RP", "current_trial": 226, "dateTime": 1512757897813, "trialdata": {"rt": -1, "stimulus": "<p id=\"stim\">10</p>", "key_press": -1, "trial_type": "single-stim", "trial_index": 226, "time_elapsed": 1063919, "internal_node_id": "0.0-172.0-0.0"}}, {"uniqueid": "MTK0810:358UUM7WR0A6Y95VOA3SV6VFJTT7RP", "current_trial": 227, "dateTime": 1512757898818, "trialdata": {"rt": -1, "stimulus": "<p id=\"stim\">9</p>", "key_press": -1, "trial_type": "single-stim", "trial_index": 227, "time_elapsed": 1064924, "internal_node_id": "0.0-172.0-1.0"}}, {"uniqueid": "MTK0810:358UUM7WR0A6Y95VOA3SV6VFJTT7RP", "current_trial": 228, "dateTime": 1512757899821, "trialdata": {"rt": -1, "stimulus": "<p id=\"stim\">8</p>", "key_press": -1, "trial_type": "single-stim", "trial_index": 228, "time_elapsed": 1065927, "internal_node_id": "0.0-172.0-2.0"}}, {"uniqueid": "MTK0810:358UUM7WR0A6Y95VOA3SV6VFJTT7RP", "current_trial": 229, "dateTime": 1512757900823, "trialdata": {"rt": -1, "stimulus": "<p id=\"stim\">7</p>", "key_press": -1, "trial_type": "single-stim", "trial_index": 229, "time_elapsed": 1066929, "internal_node_id": "0.0-172.0-3.0"}}, {"uniqueid": "MTK0810:358UUM7WR0A6Y95VOA3SV6VFJTT7RP", "current_trial": 230, "dateTime": 1512757901831, "trialdata": {"rt": -1, "stimulus": "<p id=\"stim\">6</p>", "key_press": -1, "trial_type": "single-stim", "trial_index": 230, "time_elapsed": 1067934, "internal_node_id": "0.0-172.0-4.0"}}, {"uniqueid": "MTK0810:358UUM7WR0A6Y95VOA3SV6VFJTT7RP", "current_trial": 231, "dateTime": 1512757902833, "trialdata": {"rt": -1, "stimulus": "<p id=\"stim\">5</p>", "key_press": -1, "trial_type": "single-stim", "trial_index": 231, "time_elapsed": 1068939, "internal_node_id": "0.0-172.0-5.0"}}, {"uniqueid": "MTK0810:358UUM7WR0A6Y95VOA3SV6VFJTT7RP", "current_trial": 232, "dateTime": 1512757903843, "trialdata": {"rt": -1, "stimulus": "<p id=\"stim\">4</p>", "key_press": -1, "trial_type": "single-stim", "trial_index": 232, "time_elapsed": 1069944, "internal_node_id": "0.0-172.0-6.0"}}, {"uniqueid": "MTK0810:358UUM7WR0A6Y95VOA3SV6VFJTT7RP", "current_trial": 233, "dateTime": 1512757904843, "trialdata": {"rt": -1, "stimulus": "<p id=\"stim\">3</p>", "key_press": -1, "trial_type": "single-stim", "trial_index": 233, "time_elapsed": 1070949, "internal_node_id": "0.0-172.0-7.0"}}, {"uniqueid": "MTK0810:358UUM7WR0A6Y95VOA3SV6VFJTT7RP", "current_trial": 234, "dateTime": 1512757905848, "trialdata": {"rt": -1, "stimulus": "<p id=\"stim\">2</p>", "key_press": -1, "trial_type": "single-stim", "trial_index": 234, "time_elapsed": 1071954, "internal_node_id": "0.0-172.0-8.0"}}, {"uniqueid": "MTK0810:358UUM7WR0A6Y95VOA3SV6VFJTT7RP", "current_trial": 235, "dateTime": 1512757906853, "trialdata": {"rt": -1, "stimulus": "<p id=\"stim\">1</p>", "key_press": -1, "trial_type": "single-stim", "trial_index": 235, "time_elapsed": 1072959, "internal_node_id": "0.0-172.0-9.0"}}, {"uniqueid": "MTK0810:358UUM7WR0A6Y95VOA3SV6VFJTT7RP", "current_trial": 236, "dateTime": 1512757908358, "trialdata": {"rt": -1, "stimulus": "<p id=\"stim\">+</p>", "key_press": -1, "type": "FIXATION", "trial_type": "single-stim", "trial_index": 236, "time_elapsed": 1074464, "internal_node_id": "0.0-173.0-0.0"}}, {"uniqueid": "MTK0810:358UUM7WR0A6Y95VOA3SV6VFJTT7RP", "current_trial": 237, "dateTime": 1512757910100, "trialdata": {"rt": -1000, "stimulus": "/static/audio/wordpool/OYSTER.wav", "key_press": -1, "type": "PRES_AUD", "word": "oyster", "wordID": 994, "conditions": [12, 800, "a", 12000], "trial": 6, "serialpos": 0, "trial_type": "single-audio", "trial_index": 237, "time_elapsed": 1076206, "internal_node_id": "0.0-174.0"}}, {"uniqueid": "MTK0810:358UUM7WR0A6Y95VOA3SV6VFJTT7RP", "current_trial": 238, "dateTime": 1512757912023, "trialdata": {"rt": -1000, "stimulus": "/static/audio/wordpool/BARLEY.wav", "key_press": -1, "type": "PRES_AUD", "word": "barley", "wordID": 87, "conditions": [12, 800, "a", 12000], "trial": 6, "serialpos": 1, "trial_type": "single-audio", "trial_index": 238, "time_elapsed": 1078129, "internal_node_id": "0.0-175.0"}}, {"uniqueid": "MTK0810:358UUM7WR0A6Y95VOA3SV6VFJTT7RP", "current_trial": 239, "dateTime": 1512757913693, "trialdata": {"rt": -1000, "stimulus": "/static/audio/wordpool/GRAPE.wav", "key_press": -1, "type": "PRES_AUD", "word": "grape", "wordID": 653, "conditions": [12, 800, "a", 12000], "trial": 6, "serialpos": 2, "trial_type": "single-audio", "trial_index": 239, "time_elapsed": 1079799, "internal_node_id": "0.0-176.0"}}, {"uniqueid": "MTK0810:358UUM7WR0A6Y95VOA3SV6VFJTT7RP", "current_trial": 240, "dateTime": 1512757915628, "trialdata": {"rt": -1000, "stimulus": "/static/audio/wordpool/AIRPLANE.wav", "key_press": -1, "type": "PRES_AUD", "word": "airplane", "wordID": 11, "conditions": [12, 800, "a", 12000], "trial": 6, "serialpos": 3, "trial_type": "single-audio", "trial_index": 240, "time_elapsed": 1081734, "internal_node_id": "0.0-177.0"}}, {"uniqueid": "MTK0810:358UUM7WR0A6Y95VOA3SV6VFJTT7RP", "current_trial": 241, "dateTime": 1512757917295, "trialdata": {"rt": -1000, "stimulus": "/static/audio/wordpool/FIDDLE.wav", "key_press": -1, "type": "PRES_AUD", "word": "fiddle", "wordID": 560, "conditions": [12, 800, "a", 12000], "trial": 6, "serialpos": 4, "trial_type": "single-audio", "trial_index": 241, "time_elapsed": 1083401, "internal_node_id": "0.0-178.0"}}, {"uniqueid": "MTK0810:358UUM7WR0A6Y95VOA3SV6VFJTT7RP", "current_trial": 242, "dateTime": 1512757918945, "trialdata": {"rt": -1000, "stimulus": "/static/audio/wordpool/SCALLOP.wav", "key_press": -1, "type": "PRES_AUD", "word": "scallop", "wordID": 1241, "conditions": [12, 800, "a", 12000], "trial": 6, "serialpos": 5, "trial_type": "single-audio", "trial_index": 242, "time_elapsed": 1085051, "internal_node_id": "0.0-179.0"}}, {"uniqueid": "MTK0810:358UUM7WR0A6Y95VOA3SV6VFJTT7RP", "current_trial": 243, "dateTime": 1512757920705, "trialdata": {"rt": -1000, "stimulus": "/static/audio/wordpool/NOTEBOOK.wav", "key_press": -1, "type": "PRES_AUD", "word": "notebook", "wordID": 958, "conditions": [12, 800, "a", 12000], "trial": 6, "serialpos": 6, "trial_type": "single-audio", "trial_index": 243, "time_elapsed": 1086811, "internal_node_id": "0.0-180.0"}}, {"uniqueid": "MTK0810:358UUM7WR0A6Y95VOA3SV6VFJTT7RP", "current_trial": 244, "dateTime": 1512757922483, "trialdata": {"rt": -1000, "stimulus": "/static/audio/wordpool/CAFE.wav", "key_press": -1, "type": "PRES_AUD", "word": "cafe", "wordID": 215, "conditions": [12, 800, "a", 12000], "trial": 6, "serialpos": 7, "trial_type": "single-audio", "trial_index": 244, "time_elapsed": 1088589, "internal_node_id": "0.0-181.0"}}, {"uniqueid": "MTK0810:358UUM7WR0A6Y95VOA3SV6VFJTT7RP", "current_trial": 245, "dateTime": 1512757924288, "trialdata": {"rt": -1000, "stimulus": "/static/audio/wordpool/CHEMIST.wav", "key_press": -1, "type": "PRES_AUD", "word": "chemist", "wordID": 291, "conditions": [12, 800, "a", 12000], "trial": 6, "serialpos": 8, "trial_type": "single-audio", "trial_index": 245, "time_elapsed": 1090394, "internal_node_id": "0.0-182.0"}}, {"uniqueid": "MTK0810:358UUM7WR0A6Y95VOA3SV6VFJTT7RP", "current_trial": 246, "dateTime": 1512757926025, "trialdata": {"rt": -1000, "stimulus": "/static/audio/wordpool/BLENDER.wav", "key_press": -1, "type": "PRES_AUD", "word": "blender", "wordID": 135, "conditions": [12, 800, "a", 12000], "trial": 6, "serialpos": 9, "trial_type": "single-audio", "trial_index": 246, "time_elapsed": 1092131, "internal_node_id": "0.0-183.0"}}, {"uniqueid": "MTK0810:358UUM7WR0A6Y95VOA3SV6VFJTT7RP", "current_trial": 247, "dateTime": 1512757928003, "trialdata": {"rt": -1000, "stimulus": "/static/audio/wordpool/CIGAR.wav", "key_press": -1, "type": "PRES_AUD", "word": "cigar", "wordID": 307, "conditions": [12, 800, "a", 12000], "trial": 6, "serialpos": 10, "trial_type": "single-audio", "trial_index": 247, "time_elapsed": 1094109, "internal_node_id": "0.0-184.0"}}, {"uniqueid": "MTK0810:358UUM7WR0A6Y95VOA3SV6VFJTT7RP", "current_trial": 248, "dateTime": 1512757929617, "trialdata": {"rt": -1000, "stimulus": "/static/audio/wordpool/THREAD.wav", "key_press": -1, "type": "PRES_AUD", "word": "thread", "wordID": 1459, "conditions": [12, 800, "a", 12000], "trial": 6, "serialpos": 11, "trial_type": "single-audio", "trial_index": 248, "time_elapsed": 1095723, "internal_node_id": "0.0-185.0"}}, {"uniqueid": "MTK0810:358UUM7WR0A6Y95VOA3SV6VFJTT7RP", "current_trial": 249, "dateTime": 1512757930885, "trialdata": {"rt": -1, "stimulus": "", "key_press": -1, "type": "PRE_RECALL_DELAY", "trial_type": "single-stim", "trial_index": 249, "time_elapsed": 1096991, "internal_node_id": "0.0-186.0-0.0"}}, {"uniqueid": "MTK0810:358UUM7WR0A6Y95VOA3SV6VFJTT7RP", "current_trial": 250, "dateTime": 1512757931392, "trialdata": {"rt": -1000, "stimulus": "/static/audio/400Hz.wav", "key_press": -1, "type": "PRE_RECALL_ALERT", "trial_type": "single-audio", "trial_index": 250, "time_elapsed": 1097498, "internal_node_id": "0.0-187.0"}}, {"uniqueid": "MTK0810:358UUM7WR0A6Y95VOA3SV6VFJTT7RP", "current_trial": 251, "dateTime": 1512757991411, "trialdata": {"rt": [4343, 7490, 34028], "recwords": ["cigar", "airplane", "creep"], "type": "FREE_RECALL", "conditions": [12, 800, "a", 12000], "trial": 6, "trial_type": "free-recall", "trial_index": 251, "time_elapsed": 1157502, "internal_node_id": "0.0-188.0-0.0"}}, {"uniqueid": "MTK0810:358UUM7WR0A6Y95VOA3SV6VFJTT7RP", "current_trial": 252, "dateTime": 1512758060438, "trialdata": {"rt": 67022, "key_press": 13, "type": "INSTRUCTIONS", "trial_type": "text", "trial_index": 252, "time_elapsed": 1226543, "internal_node_id": "0.0-189.0"}}, {"uniqueid": "MTK0810:358UUM7WR0A6Y95VOA3SV6VFJTT7RP", "current_trial": 253, "dateTime": 1512758074443, "trialdata": {"rt": [4597, 8555], "responses": ["15", "17"], "num1": [9, 6, 3], "num2": [4, 2, 2], "num3": [2, 9, 9], "type": "DISTRACTOR", "conditions": [12, 800, "v", 12000], "trial": 7, "trial_type": "math-distractor", "trial_index": 253, "time_elapsed": 1240549, "internal_node_id": "0.0-190.0"}}, {"uniqueid": "MTK0810:358UUM7WR0A6Y95VOA3SV6VFJTT7RP", "current_trial": 254, "dateTime": 1512758077451, "trialdata": {"rt": -1, "stimulus": "<p id=\"stim\">10</p>", "key_press": -1, "trial_type": "single-stim", "trial_index": 254, "time_elapsed": 1243549, "internal_node_id": "0.0-191.0-0.0"}}, {"uniqueid": "MTK0810:358UUM7WR0A6Y95VOA3SV6VFJTT7RP", "current_trial": 255, "dateTime": 1512758078453, "trialdata": {"rt": -1, "stimulus": "<p id=\"stim\">9</p>", "key_press": -1, "trial_type": "single-stim", "trial_index": 255, "time_elapsed": 1244559, "internal_node_id": "0.0-191.0-1.0"}}, {"uniqueid": "MTK0810:358UUM7WR0A6Y95VOA3SV6VFJTT7RP", "current_trial": 256, "dateTime": 1512758079458, "trialdata": {"rt": -1, "stimulus": "<p id=\"stim\">8</p>", "key_press": -1, "trial_type": "single-stim", "trial_index": 256, "time_elapsed": 1245564, "internal_node_id": "0.0-191.0-2.0"}}, {"uniqueid": "MTK0810:358UUM7WR0A6Y95VOA3SV6VFJTT7RP", "current_trial": 257, "dateTime": 1512758080466, "trialdata": {"rt": -1, "stimulus": "<p id=\"stim\">7</p>", "key_press": -1, "trial_type": "single-stim", "trial_index": 257, "time_elapsed": 1246569, "internal_node_id": "0.0-191.0-3.0"}}, {"uniqueid": "MTK0810:358UUM7WR0A6Y95VOA3SV6VFJTT7RP", "current_trial": 258, "dateTime": 1512758081471, "trialdata": {"rt": -1, "stimulus": "<p id=\"stim\">6</p>", "key_press": -1, "trial_type": "single-stim", "trial_index": 258, "time_elapsed": 1247577, "internal_node_id": "0.0-191.0-4.0"}}, {"uniqueid": "MTK0810:358UUM7WR0A6Y95VOA3SV6VFJTT7RP", "current_trial": 259, "dateTime": 1512758082473, "trialdata": {"rt": -1, "stimulus": "<p id=\"stim\">5</p>", "key_press": -1, "trial_type": "single-stim", "trial_index": 259, "time_elapsed": 1248579, "internal_node_id": "0.0-191.0-5.0"}}, {"uniqueid": "MTK0810:358UUM7WR0A6Y95VOA3SV6VFJTT7RP", "current_trial": 260, "dateTime": 1512758083478, "trialdata": {"rt": -1, "stimulus": "<p id=\"stim\">4</p>", "key_press": -1, "trial_type": "single-stim", "trial_index": 260, "time_elapsed": 1249584, "internal_node_id": "0.0-191.0-6.0"}}, {"uniqueid": "MTK0810:358UUM7WR0A6Y95VOA3SV6VFJTT7RP", "current_trial": 261, "dateTime": 1512758084483, "trialdata": {"rt": -1, "stimulus": "<p id=\"stim\">3</p>", "key_press": -1, "trial_type": "single-stim", "trial_index": 261, "time_elapsed": 1250589, "internal_node_id": "0.0-191.0-7.0"}}, {"uniqueid": "MTK0810:358UUM7WR0A6Y95VOA3SV6VFJTT7RP", "current_trial": 262, "dateTime": 1512758085491, "trialdata": {"rt": -1, "stimulus": "<p id=\"stim\">2</p>", "key_press": -1, "trial_type": "single-stim", "trial_index": 262, "time_elapsed": 1251597, "internal_node_id": "0.0-191.0-8.0"}}, {"uniqueid": "MTK0810:358UUM7WR0A6Y95VOA3SV6VFJTT7RP", "current_trial": 263, "dateTime": 1512758086668, "trialdata": {"rt": -1, "stimulus": "<p id=\"stim\">1</p>", "key_press": -1, "trial_type": "single-stim", "trial_index": 263, "time_elapsed": 1252774, "internal_node_id": "0.0-191.0-9.0"}}, {"uniqueid": "MTK0810:358UUM7WR0A6Y95VOA3SV6VFJTT7RP", "current_trial": 264, "dateTime": 1512758088173, "trialdata": {"rt": -1, "stimulus": "<p id=\"stim\">+</p>", "key_press": -1, "type": "FIXATION", "trial_type": "single-stim", "trial_index": 264, "time_elapsed": 1254279, "internal_node_id": "0.0-192.0-0.0"}}, {"uniqueid": "MTK0810:358UUM7WR0A6Y95VOA3SV6VFJTT7RP", "current_trial": 265, "dateTime": 1512758088978, "trialdata": {"rt": -1, "stimulus": "<p id=\"stim\">WARDROBE</p>", "key_press": -1, "type": "PRES_VIS", "word": "wardrobe", "wordID": 1586, "conditions": [12, 800, "v", 12000], "trial": 7, "serialpos": 0, "trial_type": "single-stim", "trial_index": 265, "time_elapsed": 1255084, "internal_node_id": "0.0-193.0"}}, {"uniqueid": "MTK0810:358UUM7WR0A6Y95VOA3SV6VFJTT7RP", "current_trial": 266, "dateTime": 1512758090584, "trialdata": {"rt": -1, "stimulus": "<p id=\"stim\">ACTOR</p>", "key_press": -1, "type": "PRES_VIS", "word": "actor", "wordID": 4, "conditions": [12, 800, "v", 12000], "trial": 7, "serialpos": 1, "trial_type": "single-stim", "trial_index": 266, "time_elapsed": 1256690, "internal_node_id": "0.0-194.0"}}, {"uniqueid": "MTK0810:358UUM7WR0A6Y95VOA3SV6VFJTT7RP", "current_trial": 267, "dateTime": 1512758092286, "trialdata": {"rt": -1, "stimulus": "<p id=\"stim\">FILM</p>", "key_press": -1, "type": "PRES_VIS", "word": "film", "wordID": 564, "conditions": [12, 800, "v", 12000], "trial": 7, "serialpos": 2, "trial_type": "single-stim", "trial_index": 267, "time_elapsed": 1258392, "internal_node_id": "0.0-195.0"}}, {"uniqueid": "MTK0810:358UUM7WR0A6Y95VOA3SV6VFJTT7RP", "current_trial": 268, "dateTime": 1512758093941, "trialdata": {"rt": -1, "stimulus": "<p id=\"stim\">LACE</p>", "key_press": -1, "type": "PRES_VIS", "word": "lace", "wordID": 791, "conditions": [12, 800, "v", 12000], "trial": 7, "serialpos": 3, "trial_type": "single-stim", "trial_index": 268, "time_elapsed": 1260047, "internal_node_id": "0.0-196.0"}}, {"uniqueid": "MTK0810:358UUM7WR0A6Y95VOA3SV6VFJTT7RP", "current_trial": 269, "dateTime": 1512758095781, "trialdata": {"rt": -1, "stimulus": "<p id=\"stim\">RABBIT</p>", "key_press": -1, "type": "PRES_VIS", "word": "rabbit", "wordID": 1151, "conditions": [12, 800, "v", 12000], "trial": 7, "serialpos": 4, "trial_type": "single-stim", "trial_index": 269, "time_elapsed": 1261887, "internal_node_id": "0.0-197.0"}}, {"uniqueid": "MTK0810:358UUM7WR0A6Y95VOA3SV6VFJTT7RP", "current_trial": 270, "dateTime": 1512758097621, "trialdata": {"rt": -1, "stimulus": "<p id=\"stim\">VAGRANT</p>", "key_press": -1, "type": "PRES_VIS", "word": "vagrant", "wordID": 1543, "conditions": [12, 800, "v", 12000], "trial": 7, "serialpos": 5, "trial_type": "single-stim", "trial_index": 270, "time_elapsed": 1263725, "internal_node_id": "0.0-198.0"}}, {"uniqueid": "MTK0810:358UUM7WR0A6Y95VOA3SV6VFJTT7RP", "current_trial": 271, "dateTime": 1512758099444, "trialdata": {"rt": -1, "stimulus": "<p id=\"stim\">WOMAN</p>", "key_press": -1, "type": "PRES_VIS", "word": "woman", "wordID": 1619, "conditions": [12, 800, "v", 12000], "trial": 7, "serialpos": 6, "trial_type": "single-stim", "trial_index": 271, "time_elapsed": 1265550, "internal_node_id": "0.0-199.0"}}, {"uniqueid": "MTK0810:358UUM7WR0A6Y95VOA3SV6VFJTT7RP", "current_trial": 272, "dateTime": 1512758101071, "trialdata": {"rt": -1, "stimulus": "<p id=\"stim\">CATTLE</p>", "key_press": -1, "type": "PRES_VIS", "word": "cattle", "wordID": 260, "conditions": [12, 800, "v", 12000], "trial": 7, "serialpos": 7, "trial_type": "single-stim", "trial_index": 272, "time_elapsed": 1267177, "internal_node_id": "0.0-200.0"}}, {"uniqueid": "MTK0810:358UUM7WR0A6Y95VOA3SV6