{"condition": 0, "counterbalance": 2981, "assignmentId": "31LVTDXBL8H5DUUXS442EBDGD79LRA", "workerId": "MTK0625", "hitId": "34OWYT6U3WOVW9SBNI216QPABF5I98", "currenttrial": 626, "bonus": 0, "data": [{"uniqueid": "MTK0625:31LVTDXBL8H5DUUXS442EBDGD79LRA", "current_trial": 0, "dateTime": 1512571373733, "trialdata": {"rt": 3050, "key_press": 13, "type": "INSTRUCTIONS", "trial_type": "text", "trial_index": 0, "time_elapsed": 3051, "internal_node_id": "0.0-0.0"}}, {"uniqueid": "MTK0625:31LVTDXBL8H5DUUXS442EBDGD79LRA", "current_trial": 1, "dateTime": 1512571385868, "trialdata": {"rt": 12135, "key_press": 13, "type": "INSTRUCTIONS", "trial_type": "text", "trial_index": 1, "time_elapsed": 15187, "internal_node_id": "0.0-1.0"}}, {"uniqueid": "MTK0625:31LVTDXBL8H5DUUXS442EBDGD79LRA", "current_trial": 2, "dateTime": 1512571390141, "trialdata": {"rt": [4259], "responses": ["ocean"], "type": "AUDIO_TEST", "trial_type": "audio-test", "trial_index": 2, "time_elapsed": 19459, "internal_node_id": "0.0-2.0"}}, {"uniqueid": "MTK0625:31LVTDXBL8H5DUUXS442EBDGD79LRA", "current_trial": 3, "dateTime": 1512571396293, "trialdata": {"rt": [6146], "responses": ["crystal"], "type": "AUDIO_TEST", "trial_type": "audio-test", "trial_index": 3, "time_elapsed": 25612, "internal_node_id": "0.0-3.0"}}, {"uniqueid": "MTK0625:31LVTDXBL8H5DUUXS442EBDGD79LRA", "current_trial": 4, "dateTime": 1512571403817, "trialdata": {"rt": [4047, 7519], "responses": ["spikes", "spice"], "type": "AUDIO_TEST", "trial_type": "audio-test", "trial_index": 4, "time_elapsed": 33136, "internal_node_id": "0.0-4.0"}}, {"uniqueid": "MTK0625:31LVTDXBL8H5DUUXS442EBDGD79LRA", "current_trial": 5, "dateTime": 1512571419195, "trialdata": {"rt": 14577, "responses": "{\"Q0\":\"11:00PM\",\"Q1\":\"7:00AM\",\"Q2\":\"5\"}", "type": "SLEEP_SURVEY", "trial_type": "survey-text", "trial_index": 5, "time_elapsed": 48513, "internal_node_id": "0.0-5.0"}}, {"uniqueid": "MTK0625:31LVTDXBL8H5DUUXS442EBDGD79LRA", "current_trial": 6, "dateTime": 1512571482798, "trialdata": {"rt": 62601, "key_press": 13, "type": "INSTRUCTIONS", "trial_type": "text", "trial_index": 6, "time_elapsed": 112117, "internal_node_id": "0.0-6.0"}}, {"uniqueid": "MTK0625:31LVTDXBL8H5DUUXS442EBDGD79LRA", "current_trial": 7, "dateTime": 1512571496086, "trialdata": {"rt": 12754, "key_press": 13, "type": "INSTRUCTIONS", "trial_type": "text", "trial_index": 7, "time_elapsed": 125405, "internal_node_id": "0.0-7.0"}}, {"uniqueid": "MTK0625:31LVTDXBL8H5DUUXS442EBDGD79LRA", "current_trial": 8, "dateTime": 1512571501340, "trialdata": {"rt": 4753, "key_press": 13, "type": "INSTRUCTIONS", "trial_type": "text", "trial_index": 8, "time_elapsed": 130659, "internal_node_id": "0.0-8.0"}}, {"uniqueid": "MTK0625:31LVTDXBL8H5DUUXS442EBDGD79LRA", "current_trial": 9, "dateTime": 1512571520345, "trialdata": {"rt": [2271, 3780, 5270, 8628, 11009, 13143, 15071, 16820], "responses": ["9", "7", "10", "17", "22", "11", "11", "14"], "num1": [5, 3, 7, 3, 6, 7, 3, 1, 7], "num2": [3, 3, 1, 6, 8, 2, 4, 7, 3], "num3": [1, 1, 2, 8, 8, 2, 4, 6, 1], "type": "DISTRACTOR", "conditions": [18, 1200, "a", 18000], "trial": 0, "trial_type": "math-distractor", "trial_index": 9, "time_elapsed": 149664, "internal_node_id": "0.0-9.0"}}, {"uniqueid": "MTK0625:31LVTDXBL8H5DUUXS442EBDGD79LRA", "current_trial": 10, "dateTime": 1512571523347, "trialdata": {"rt": -1, "stimulus": "<p id=\"stim\">10</p>", "key_press": -1, "trial_type": "single-stim", "trial_index": 10, "time_elapsed": 152666, "internal_node_id": "0.0-10.0-0.0"}}, {"uniqueid": "MTK0625:31LVTDXBL8H5DUUXS442EBDGD79LRA", "current_trial": 11, "dateTime": 1512571524348, "trialdata": {"rt": -1, "stimulus": "<p id=\"stim\">9</p>", "key_press": -1, "trial_type": "single-stim", "trial_index": 11, "time_elapsed": 153667, "internal_node_id": "0.0-10.0-1.0"}}, {"uniqueid": "MTK0625:31LVTDXBL8H5DUUXS442EBDGD79LRA", "current_trial": 12, "dateTime": 1512571525349, "trialdata": {"rt": -1, "stimulus": "<p id=\"stim\">8</p>", "key_press": -1, "trial_type": "single-stim", "trial_index": 12, "time_elapsed": 154668, "internal_node_id": "0.0-10.0-2.0"}}, {"uniqueid": "MTK0625:31LVTDXBL8H5DUUXS442EBDGD79LRA", "current_trial": 13, "dateTime": 1512571526351, "trialdata": {"rt": -1, "stimulus": "<p id=\"stim\">7</p>", "key_press": -1, "trial_type": "single-stim", "trial_index": 13, "time_elapsed": 155670, "internal_node_id": "0.0-10.0-3.0"}}, {"uniqueid": "MTK0625:31LVTDXBL8H5DUUXS442EBDGD79LRA", "current_trial": 14, "dateTime": 1512571527353, "trialdata": {"rt": -1, "stimulus": "<p id=\"stim\">6</p>", "key_press": -1, "trial_type": "single-stim", "trial_index": 14, "time_elapsed": 156671, "internal_node_id": "0.0-10.0-4.0"}}, {"uniqueid": "MTK0625:31LVTDXBL8H5DUUXS442EBDGD79LRA", "current_trial": 15, "dateTime": 1512571528354, "trialdata": {"rt": -1, "stimulus": "<p id=\"stim\">5</p>", "key_press": -1, "trial_type": "single-stim", "trial_index": 15, "time_elapsed": 157673, "internal_node_id": "0.0-10.0-5.0"}}, {"uniqueid": "MTK0625:31LVTDXBL8H5DUUXS442EBDGD79LRA", "current_trial": 16, "dateTime": 1512571529358, "trialdata": {"rt": -1, "stimulus": "<p id=\"stim\">4</p>", "key_press": -1, "trial_type": "single-stim", "trial_index": 16, "time_elapsed": 158676, "internal_node_id": "0.0-10.0-6.0"}}, {"uniqueid": "MTK0625:31LVTDXBL8H5DUUXS442EBDGD79LRA", "current_trial": 17, "dateTime": 1512571530360, "trialdata": {"rt": -1, "stimulus": "<p id=\"stim\">3</p>", "key_press": -1, "trial_type": "single-stim", "trial_index": 17, "time_elapsed": 159678, "internal_node_id": "0.0-10.0-7.0"}}, {"uniqueid": "MTK0625:31LVTDXBL8H5DUUXS442EBDGD79LRA", "current_trial": 18, "dateTime": 1512571531362, "trialdata": {"rt": -1, "stimulus": "<p id=\"stim\">2</p>", "key_press": -1, "trial_type": "single-stim", "trial_index": 18, "time_elapsed": 160681, "internal_node_id": "0.0-10.0-8.0"}}, {"uniqueid": "MTK0625:31LVTDXBL8H5DUUXS442EBDGD79LRA", "current_trial": 19, "dateTime": 1512571532363, "trialdata": {"rt": -1, "stimulus": "<p id=\"stim\">1</p>", "key_press": -1, "trial_type": "single-stim", "trial_index": 19, "time_elapsed": 161682, "internal_node_id": "0.0-10.0-9.0"}}, {"uniqueid": "MTK0625:31LVTDXBL8H5DUUXS442EBDGD79LRA", "current_trial": 20, "dateTime": 1512571533864, "trialdata": {"rt": -1, "stimulus": "<p id=\"stim\">+</p>", "key_press": -1, "type": "FIXATION", "trial_type": "single-stim", "trial_index": 20, "time_elapsed": 163183, "internal_node_id": "0.0-11.0-0.0"}}, {"uniqueid": "MTK0625:31LVTDXBL8H5DUUXS442EBDGD79LRA", "current_trial": 21, "dateTime": 1512571535942, "trialdata": {"rt": -1000, "stimulus": "/static/audio/wordpool/BIKE.wav", "key_press": -1, "type": "PRES_AUD", "word": "bike", "wordID": 124, "conditions": [18, 1200, "a", 18000], "trial": 0, "serialpos": 0, "trial_type": "single-audio", "trial_index": 21, "time_elapsed": 165260, "internal_node_id": "0.0-12.0"}}, {"uniqueid": "MTK0625:31LVTDXBL8H5DUUXS442EBDGD79LRA", "current_trial": 22, "dateTime": 1512571538066, "trialdata": {"rt": -1000, "stimulus": "/static/audio/wordpool/UNCLE.wav", "key_press": -1, "type": "PRES_AUD", "word": "uncle", "wordID": 1535, "conditions": [18, 1200, "a", 18000], "trial": 0, "serialpos": 1, "trial_type": "single-audio", "trial_index": 22, "time_elapsed": 167385, "internal_node_id": "0.0-13.0"}}, {"uniqueid": "MTK0625:31LVTDXBL8H5DUUXS442EBDGD79LRA", "current_trial": 23, "dateTime": 1512571540311, "trialdata": {"rt": -1000, "stimulus": "/static/audio/wordpool/LION.wav", "key_press": -1, "type": "PRES_AUD", "word": "lion", "wordID": 826, "conditions": [18, 1200, "a", 18000], "trial": 0, "serialpos": 2, "trial_type": "single-audio", "trial_index": 23, "time_elapsed": 169629, "internal_node_id": "0.0-14.0"}}, {"uniqueid": "MTK0625:31LVTDXBL8H5DUUXS442EBDGD79LRA", "current_trial": 24, "dateTime": 1512571542695, "trialdata": {"rt": -1000, "stimulus": "/static/audio/wordpool/JELLY.wav", "key_press": -1, "type": "PRES_AUD", "word": "jelly", "wordID": 754, "conditions": [18, 1200, "a", 18000], "trial": 0, "serialpos": 3, "trial_type": "single-audio", "trial_index": 24, "time_elapsed": 172014, "internal_node_id": "0.0-15.0"}}, {"uniqueid": "MTK0625:31LVTDXBL8H5DUUXS442EBDGD79LRA", "current_trial": 25, "dateTime": 1512571544875, "trialdata": {"rt": -1000, "stimulus": "/static/audio/wordpool/TOMBSTONE.wav", "key_press": -1, "type": "PRES_AUD", "word": "tombstone", "wordID": 1477, "conditions": [18, 1200, "a", 18000], "trial": 0, "serialpos": 4, "trial_type": "single-audio", "trial_index": 25, "time_elapsed": 174194, "internal_node_id": "0.0-16.0"}}, {"uniqueid": "MTK0625:31LVTDXBL8H5DUUXS442EBDGD79LRA", "current_trial": 26, "dateTime": 1512571547081, "trialdata": {"rt": -1000, "stimulus": "/static/audio/wordpool/PADDING.wav", "key_press": -1, "type": "PRES_AUD", "word": "padding", "wordID": 998, "conditions": [18, 1200, "a", 18000], "trial": 0, "serialpos": 5, "trial_type": "single-audio", "trial_index": 26, "time_elapsed": 176400, "internal_node_id": "0.0-17.0"}}, {"uniqueid": "MTK0625:31LVTDXBL8H5DUUXS442EBDGD79LRA", "current_trial": 27, "dateTime": 1512571549096, "trialdata": {"rt": -1000, "stimulus": "/static/audio/wordpool/SCISSORS.wav", "key_press": -1, "type": "PRES_AUD", "word": "scissors", "wordID": 1249, "conditions": [18, 1200, "a", 18000], "trial": 0, "serialpos": 6, "trial_type": "single-audio", "trial_index": 27, "time_elapsed": 178415, "internal_node_id": "0.0-18.0"}}, {"uniqueid": "MTK0625:31LVTDXBL8H5DUUXS442EBDGD79LRA", "current_trial": 28, "dateTime": 1512571551326, "trialdata": {"rt": -1000, "stimulus": "/static/audio/wordpool/TYPIST.wav", "key_press": -1, "type": "PRES_AUD", "word": "typist", "wordID": 1531, "conditions": [18, 1200, "a", 18000], "trial": 0, "serialpos": 7, "trial_type": "single-audio", "trial_index": 28, "time_elapsed": 180644, "internal_node_id": "0.0-19.0"}}, {"uniqueid": "MTK0625:31LVTDXBL8H5DUUXS442EBDGD79LRA", "current_trial": 29, "dateTime": 1512571553398, "trialdata": {"rt": -1000, "stimulus": "/static/audio/wordpool/DORM.wav", "key_press": -1, "type": "PRES_AUD", "word": "dorm", "wordID": 487, "conditions": [18, 1200, "a", 18000], "trial": 0, "serialpos": 8, "trial_type": "single-audio", "trial_index": 29, "time_elapsed": 182717, "internal_node_id": "0.0-20.0"}}, {"uniqueid": "MTK0625:31LVTDXBL8H5DUUXS442EBDGD79LRA", "current_trial": 30, "dateTime": 1512571555738, "trialdata": {"rt": -1000, "stimulus": "/static/audio/wordpool/BALLOON.wav", "key_press": -1, "type": "PRES_AUD", "word": "balloon", "wordID": 74, "conditions": [18, 1200, "a", 18000], "trial": 0, "serialpos": 9, "trial_type": "single-audio", "trial_index": 30, "time_elapsed": 185057, "internal_node_id": "0.0-21.0"}}, {"uniqueid": "MTK0625:31LVTDXBL8H5DUUXS442EBDGD79LRA", "current_trial": 31, "dateTime": 1512571558860, "trialdata": {"rt": -1000, "stimulus": "/static/audio/wordpool/SHERIFF.wav", "key_press": -1, "type": "PRES_AUD", "word": "sheriff", "wordID": 1283, "conditions": [18, 1200, "a", 18000], "trial": 0, "serialpos": 10, "trial_type": "single-audio", "trial_index": 31, "time_elapsed": 188179, "internal_node_id": "0.0-22.0"}}, {"uniqueid": "MTK0625:31LVTDXBL8H5DUUXS442EBDGD79LRA", "current_trial": 32, "dateTime": 1512571560924, "trialdata": {"rt": -1000, "stimulus": "/static/audio/wordpool/FARMER.wav", "key_press": -1, "type": "PRES_AUD", "word": "farmer", "wordID": 552, "conditions": [18, 1200, "a", 18000], "trial": 0, "serialpos": 11, "trial_type": "single-audio", "trial_index": 32, "time_elapsed": 190243, "internal_node_id": "0.0-23.0"}}, {"uniqueid": "MTK0625:31LVTDXBL8H5DUUXS442EBDGD79LRA", "current_trial": 33, "dateTime": 1512571563130, "trialdata": {"rt": -1000, "stimulus": "/static/audio/wordpool/COIN.wav", "key_press": -1, "type": "PRES_AUD", "word": "coin", "wordID": 342, "conditions": [18, 1200, "a", 18000], "trial": 0, "serialpos": 12, "trial_type": "single-audio", "trial_index": 33, "time_elapsed": 192449, "internal_node_id": "0.0-24.0"}}, {"uniqueid": "MTK0625:31LVTDXBL8H5DUUXS442EBDGD79LRA", "current_trial": 34, "dateTime": 1512571565468, "trialdata": {"rt": -1000, "stimulus": "/static/audio/wordpool/GIRL.wav", "key_press": -1, "type": "PRES_AUD", "word": "girl", "wordID": 636, "conditions": [18, 1200, "a", 18000], "trial": 0, "serialpos": 13, "trial_type": "single-audio", "trial_index": 34, "time_elapsed": 194787, "internal_node_id": "0.0-25.0"}}, {"uniqueid": "MTK0625:31LVTDXBL8H5DUUXS442EBDGD79LRA", "current_trial": 35, "dateTime": 1512571567795, "trialdata": {"rt": -1000, "stimulus": "/static/audio/wordpool/CREATURE.wav", "key_press": -1, "type": "PRES_AUD", "word": "creature", "wordID": 402, "conditions": [18, 1200, "a", 18000], "trial": 0, "serialpos": 14, "trial_type": "single-audio", "trial_index": 35, "time_elapsed": 197114, "internal_node_id": "0.0-26.0"}}, {"uniqueid": "MTK0625:31LVTDXBL8H5DUUXS442EBDGD79LRA", "current_trial": 36, "dateTime": 1512571569884, "trialdata": {"rt": -1000, "stimulus": "/static/audio/wordpool/PENGUIN.wav", "key_press": -1, "type": "PRES_AUD", "word": "penguin", "wordID": 1043, "conditions": [18, 1200, "a", 18000], "trial": 0, "serialpos": 15, "trial_type": "single-audio", "trial_index": 36, "time_elapsed": 199202, "internal_node_id": "0.0-27.0"}}, {"uniqueid": "MTK0625:31LVTDXBL8H5DUUXS442EBDGD79LRA", "current_trial": 37, "dateTime": 1512571572090, "trialdata": {"rt": -1000, "stimulus": "/static/audio/wordpool/HOUND.wav", "key_press": -1, "type": "PRES_AUD", "word": "hound", "wordID": 723, "conditions": [18, 1200, "a", 18000], "trial": 0, "serialpos": 16, "trial_type": "single-audio", "trial_index": 37, "time_elapsed": 201409, "internal_node_id": "0.0-28.0"}}, {"uniqueid": "MTK0625:31LVTDXBL8H5DUUXS442EBDGD79LRA", "current_trial": 38, "dateTime": 1512571574364, "trialdata": {"rt": -1000, "stimulus": "/static/audio/wordpool/AWARD.wav", "key_press": -1, "type": "PRES_AUD", "word": "award", "wordID": 62, "conditions": [18, 1200, "a", 18000], "trial": 0, "serialpos": 17, "trial_type": "single-audio", "trial_index": 38, "time_elapsed": 203683, "internal_node_id": "0.0-29.0"}}, {"uniqueid": "MTK0625:31LVTDXBL8H5DUUXS442EBDGD79LRA", "current_trial": 39, "dateTime": 1512571575612, "trialdata": {"rt": -1, "stimulus": "", "key_press": -1, "type": "PRE_RECALL_DELAY", "trial_type": "single-stim", "trial_index": 39, "time_elapsed": 204931, "internal_node_id": "0.0-30.0-0.0"}}, {"uniqueid": "MTK0625:31LVTDXBL8H5DUUXS442EBDGD79LRA", "current_trial": 40, "dateTime": 1512571576113, "trialdata": {"rt": -1000, "stimulus": "/static/audio/400Hz.wav", "key_press": -1, "type": "PRE_RECALL_ALERT", "trial_type": "single-audio", "trial_index": 40, "time_elapsed": 205432, "internal_node_id": "0.0-31.0"}}, {"uniqueid": "MTK0625:31LVTDXBL8H5DUUXS442EBDGD79LRA", "current_trial": 41, "dateTime": 1512571636128, "trialdata": {"rt": [4843, 6795, 7911, 8780, 9784, 17567, 18336, 28057, 28724], "recwords": ["balloon", "padding", "tombstone", "padding", "scissors", "lion", "jelly", "spice", "uncle"], "type": "FREE_RECALL", "conditions": [18, 1200, "a", 18000], "trial": 0, "trial_type": "free-recall", "trial_index": 41, "time_elapsed": 265436, "internal_node_id": "0.0-32.0-0.0"}}, {"uniqueid": "MTK0625:31LVTDXBL8H5DUUXS442EBDGD79LRA", "current_trial": 42, "dateTime": 1512571639919, "trialdata": {"rt": 1788, "key_press": 13, "type": "INSTRUCTIONS", "trial_type": "text", "trial_index": 42, "time_elapsed": 269238, "internal_node_id": "0.0-33.0"}}, {"uniqueid": "MTK0625:31LVTDXBL8H5DUUXS442EBDGD79LRA", "current_trial": 43, "dateTime": 1512571659927, "trialdata": {"rt": [2328, 3544, 5319, 6950, 9296, 10439, 13846, 16770], "responses": ["16", "12", "11", "13", "13", "8", "24", "15"], "num1": [8, 5, 3, 9, 2, 2, 7, 6, 2], "num2": [3, 5, 4, 1, 6, 5, 9, 3, 3], "num3": [5, 2, 4, 3, 5, 1, 8, 6, 9], "type": "DISTRACTOR", "conditions": [18, 1200, "v", 18000], "trial": 1, "trial_type": "math-distractor", "trial_index": 43, "time_elapsed": 289246, "internal_node_id": "0.0-34.0"}}, {"uniqueid": "MTK0625:31LVTDXBL8H5DUUXS442EBDGD79LRA", "current_trial": 44, "dateTime": 1512571662931, "trialdata": {"rt": -1, "stimulus": "<p id=\"stim\">10</p>", "key_press": -1, "trial_type": "single-stim", "trial_index": 44, "time_elapsed": 292249, "internal_node_id": "0.0-35.0-0.0"}}, {"uniqueid": "MTK0625:31LVTDXBL8H5DUUXS442EBDGD79LRA", "current_trial": 45, "dateTime": 1512571663934, "trialdata": {"rt": -1, "stimulus": "<p id=\"stim\">9</p>", "key_press": -1, "trial_type": "single-stim", "trial_index": 45, "time_elapsed": 293252, "internal_node_id": "0.0-35.0-1.0"}}, {"uniqueid": "MTK0625:31LVTDXBL8H5DUUXS442EBDGD79LRA", "current_trial": 46, "dateTime": 1512571664938, "trialdata": {"rt": -1, "stimulus": "<p id=\"stim\">8</p>", "key_press": -1, "trial_type": "single-stim", "trial_index": 46, "time_elapsed": 294255, "internal_node_id": "0.0-35.0-2.0"}}, {"uniqueid": "MTK0625:31LVTDXBL8H5DUUXS442EBDGD79LRA", "current_trial": 47, "dateTime": 1512571665939, "trialdata": {"rt": -1, "stimulus": "<p id=\"stim\">7</p>", "key_press": -1, "trial_type": "single-stim", "trial_index": 47, "time_elapsed": 295258, "internal_node_id": "0.0-35.0-3.0"}}, {"uniqueid": "MTK0625:31LVTDXBL8H5DUUXS442EBDGD79LRA", "current_trial": 48, "dateTime": 1512571666941, "trialdata": {"rt": -1, "stimulus": "<p id=\"stim\">6</p>", "key_press": -1, "trial_type": "single-stim", "trial_index": 48, "time_elapsed": 296260, "internal_node_id": "0.0-35.0-4.0"}}, {"uniqueid": "MTK0625:31LVTDXBL8H5DUUXS442EBDGD79LRA", "current_trial": 49, "dateTime": 1512571667943, "trialdata": {"rt": -1, "stimulus": "<p id=\"stim\">5</p>", "key_press": -1, "trial_type": "single-stim", "trial_index": 49, "time_elapsed": 297261, "internal_node_id": "0.0-35.0-5.0"}}, {"uniqueid": "MTK0625:31LVTDXBL8H5DUUXS442EBDGD79LRA", "current_trial": 50, "dateTime": 1512571668945, "trialdata": {"rt": -1, "stimulus": "<p id=\"stim\">4</p>", "key_press": -1, "trial_type": "single-stim", "trial_index": 50, "time_elapsed": 298264, "internal_node_id": "0.0-35.0-6.0"}}, {"uniqueid": "MTK0625:31LVTDXBL8H5DUUXS442EBDGD79LRA", "current_trial": 51, "dateTime": 1512571669948, "trialdata": {"rt": -1, "stimulus": "<p id=\"stim\">3</p>", "key_press": -1, "trial_type": "single-stim", "trial_index": 51, "time_elapsed": 299266, "internal_node_id": "0.0-35.0-7.0"}}, {"uniqueid": "MTK0625:31LVTDXBL8H5DUUXS442EBDGD79LRA", "current_trial": 52, "dateTime": 1512571670952, "trialdata": {"rt": -1, "stimulus": "<p id=\"stim\">2</p>", "key_press": -1, "trial_type": "single-stim", "trial_index": 52, "time_elapsed": 300270, "internal_node_id": "0.0-35.0-8.0"}}, {"uniqueid": "MTK0625:31LVTDXBL8H5DUUXS442EBDGD79LRA", "current_trial": 53, "dateTime": 1512571671954, "trialdata": {"rt": -1, "stimulus": "<p id=\"stim\">1</p>", "key_press": -1, "trial_type": "single-stim", "trial_index": 53, "time_elapsed": 301272, "internal_node_id": "0.0-35.0-9.0"}}, {"uniqueid": "MTK0625:31LVTDXBL8H5DUUXS442EBDGD79LRA", "current_trial": 54, "dateTime": 1512571673456, "trialdata": {"rt": -1, "stimulus": "<p id=\"stim\">+</p>", "key_press": -1, "type": "FIXATION", "trial_type": "single-stim", "trial_index": 54, "time_elapsed": 302775, "internal_node_id": "0.0-36.0-0.0"}}, {"uniqueid": "MTK0625:31LVTDXBL8H5DUUXS442EBDGD79LRA", "current_trial": 55, "dateTime": 1512571674656, "trialdata": {"rt": -1, "stimulus": "<p id=\"stim\">SUMMIT</p>", "key_press": -1, "type": "PRES_VIS", "word": "summit", "wordID": 1404, "conditions": [18, 1200, "v", 18000], "trial": 1, "serialpos": 0, "trial_type": "single-stim", "trial_index": 55, "time_elapsed": 303975, "internal_node_id": "0.0-37.0"}}, {"uniqueid": "MTK0625:31LVTDXBL8H5DUUXS442EBDGD79LRA", "current_trial": 56, "dateTime": 1512571677054, "trialdata": {"rt": -1, "stimulus": "<p id=\"stim\">BULLET</p>", "key_press": -1, "type": "PRES_VIS", "word": "bullet", "wordID": 193, "conditions": [18, 1200, "v", 18000], "trial": 1, "serialpos": 1, "trial_type": "single-stim", "trial_index": 56, "time_elapsed": 306373, "internal_node_id": "0.0-38.0"}}, {"uniqueid": "MTK0625:31LVTDXBL8H5DUUXS442EBDGD79LRA", "current_trial": 57, "dateTime": 1512571679119, "trialdata": {"rt": -1, "stimulus": "<p id=\"stim\">PASTRY</p>", "key_press": -1, "type": "PRES_VIS", "word": "pastry", "wordID": 1021, "conditions": [18, 1200, "v", 18000], "trial": 1, "serialpos": 2, "trial_type": "single-stim", "trial_index": 57, "time_elapsed": 308438, "internal_node_id": "0.0-39.0"}}, {"uniqueid": "MTK0625:31LVTDXBL8H5DUUXS442EBDGD79LRA", "current_trial": 58, "dateTime": 1512571681229, "trialdata": {"rt": -1, "stimulus": "<p id=\"stim\">MOP</p>", "key_press": -1, "type": "PRES_VIS", "word": "mop", "wordID": 915, "conditions": [18, 1200, "v", 18000], "trial": 1, "serialpos": 3, "trial_type": "single-stim", "trial_index": 58, "time_elapsed": 310548, "internal_node_id": "0.0-40.0"}}, {"uniqueid": "MTK0625:31LVTDXBL8H5DUUXS442EBDGD79LRA", "current_trial": 59, "dateTime": 1512571683284, "trialdata": {"rt": -1, "stimulus": "<p id=\"stim\">BURGLAR</p>", "key_press": -1, "type": "PRES_VIS", "word": "burglar", "wordID": 199, "conditions": [18, 1200, "v", 18000], "trial": 1, "serialpos": 4, "trial_type": "single-stim", "trial_index": 59, "time_elapsed": 312603, "internal_node_id": "0.0-41.0"}}, {"uniqueid": "MTK0625:31LVTDXBL8H5DUUXS442EBDGD79LRA", "current_trial": 60, "dateTime": 1512571685517, "trialdata": {"rt": -1, "stimulus": "<p id=\"stim\">SKETCH</p>", "key_press": -1, "type": "PRES_VIS", "word": "sketch", "wordID": 1314, "conditions": [18, 1200, "v", 18000], "trial": 1, "serialpos": 5, "trial_type": "single-stim", "trial_index": 60, "time_elapsed": 314836, "internal_node_id": "0.0-42.0"}}, {"uniqueid": "MTK0625:31LVTDXBL8H5DUUXS442EBDGD79LRA", "current_trial": 61, "dateTime": 1512571687757, "trialdata": {"rt": -1, "stimulus": "<p id=\"stim\">SANDWICH</p>", "key_press": -1, "type": "PRES_VIS", "word": "sandwich", "wordID": 1231, "conditions": [18, 1200, "v", 18000], "trial": 1, "serialpos": 6, "trial_type": "single-stim", "trial_index": 61, "time_elapsed": 317076, "internal_node_id": "0.0-43.0"}}, {"uniqueid": "MTK0625:31LVTDXBL8H5DUUXS442EBDGD79LRA", "current_trial": 62, "dateTime": 1512571690150, "trialdata": {"rt": -1, "stimulus": "<p id=\"stim\">LADY</p>", "key_press": -1, "type": "PRES_VIS", "word": "lady", "wordID": 793, "conditions": [18, 1200, "v", 18000], "trial": 1, "serialpos": 7, "trial_type": "single-stim", "trial_index": 62, "time_elapsed": 319468, "internal_node_id": "0.0-44.0"}}, {"uniqueid": "MTK0625:31LVTDXBL8H5DUUXS442EBDGD79LRA", "current_trial": 63, "dateTime": 1512571692510, "trialdata": {"rt": -1, "stimulus": "<p id=\"stim\">EMPIRE</p>", "key_press": -1, "type": "PRES_VIS", "word": "empire", "wordID": 529, "conditions": [18, 1200, "v", 18000], "trial": 1, "serialpos": 8, "trial_type": "single-stim", "trial_index": 63, "time_elapsed": 321829, "internal_node_id": "0.0-45.0"}}, {"uniqueid": "MTK0625:31LVTDXBL8H5DUUXS442EBDGD79LRA", "current_trial": 64, "dateTime": 1512571694695, "trialdata": {"rt": -1, "stimulus": "<p id=\"stim\">HATCHET</p>", "key_press": -1, "type": "PRES_VIS", "word": "hatchet", "wordID": 690, "conditions": [18, 1200, "v", 18000], "trial": 1, "serialpos": 9, "trial_type": "single-stim", "trial_index": 64, "time_elapsed": 324013, "internal_node_id": "0.0-46.0"}}, {"uniqueid": "MTK0625:31LVTDXBL8H5DUUXS442EBDGD79LRA", "current_trial": 65, "dateTime": 1512571696726, "trialdata": {"rt": -1, "stimulus": "<p id=\"stim\">WHISTLE</p>", "key_press": -1, "type": "PRES_VIS", "word": "whistle", "wordID": 1605, "conditions": [18, 1200, "v", 18000], "trial": 1, "serialpos": 10, "trial_type": "single-stim", "trial_index": 65, "time_elapsed": 326045, "internal_node_id": "0.0-47.0"}}, {"uniqueid": "MTK0625:31LVTDXBL8H5DUUXS442EBDGD79LRA", "current_trial": 66, "dateTime": 1512571699054, "trialdata": {"rt": -1, "stimulus": "<p id=\"stim\">POISON</p>", "key_press": -1, "type": "PRES_VIS", "word": "poison", "wordID": 1095, "conditions": [18, 1200, "v", 18000], "trial": 1, "serialpos": 11, "trial_type": "single-stim", "trial_index": 66, "time_elapsed": 328373, "internal_node_id": "0.0-48.0"}}, {"uniqueid": "MTK0625:31LVTDXBL8H5DUUXS442EBDGD79LRA", "current_trial": 67, "dateTime": 1512571701428, "trialdata": {"rt": -1, "stimulus": "<p id=\"stim\">LACE</p>", "key_press": -1, "type": "PRES_VIS", "word": "lace", "wordID": 791, "conditions": [18, 1200, "v", 18000], "trial": 1, "serialpos": 12, "trial_type": "single-stim", "trial_index": 67, "time_elapsed": 330747, "internal_node_id": "0.0-49.0"}}, {"uniqueid": "MTK0625:31LVTDXBL8H5DUUXS442EBDGD79LRA", "current_trial": 68, "dateTime": 1512571703782, "trialdata": {"rt": -1, "stimulus": "<p id=\"stim\">FOX</p>", "key_press": -1, "type": "PRES_VIS", "word": "fox", "wordID": 597, "conditions": [18, 1200, "v", 18000], "trial": 1, "serialpos": 13, "trial_type": "single-stim", "trial_index": 68, "time_elapsed": 333100, "internal_node_id": "0.0-50.0"}}, {"uniqueid": "MTK0625:31LVTDXBL8H5DUUXS442EBDGD79LRA", "current_trial": 69, "dateTime": 1512571705998, "trialdata": {"rt": -1, "stimulus": "<p id=\"stim\">HAMPER</p>", "key_press": -1, "type": "PRES_VIS", "word": "hamper", "wordID": 681, "conditions": [18, 1200, "v", 18000], "trial": 1, "serialpos": 14, "trial_type": "single-stim", "trial_index": 69, "time_elapsed": 335317, "internal_node_id": "0.0-51.0"}}, {"uniqueid": "MTK0625:31LVTDXBL8H5DUUXS442EBDGD79LRA", "current_trial": 70, "dateTime": 1512571708337, "trialdata": {"rt": -1, "stimulus": "<p id=\"stim\">TUTU</p>", "key_press": -1, "type": "PRES_VIS", "word": "tutu", "wordID": 1523, "conditions": [18, 1200, "v", 18000], "trial": 1, "serialpos": 15, "trial_type": "single-stim", "trial_index": 70, "time_elapsed": 337655, "internal_node_id": "0.0-52.0"}}, {"uniqueid": "MTK0625:31LVTDXBL8H5DUUXS442EBDGD79LRA", "current_trial": 71, "dateTime": 1512571710378, "trialdata": {"rt": -1, "stimulus": "<p id=\"stim\">SLIDE</p>", "key_press": -1, "type": "PRES_VIS", "word": "slide", "wordID": 1325, "conditions": [18, 1200, "v", 18000], "trial": 1, "serialpos": 16, "trial_type": "single-stim", "trial_index": 71, "time_elapsed": 339697, "internal_node_id": "0.0-53.0"}}, {"uniqueid": "MTK0625:31LVTDXBL8H5DUUXS442EBDGD79LRA", "current_trial": 72, "dateTime": 1512571712399, "trialdata": {"rt": -1, "stimulus": "<p id=\"stim\">FOOT</p>", "key_press": -1, "type": "PRES_VIS", "word": "foot", "wordID": 589, "conditions": [18, 1200, "v", 18000], "trial": 1, "serialpos": 17, "trial_type": "single-stim", "trial_index": 72, "time_elapsed": 341718, "internal_node_id": "0.0-54.0"}}, {"uniqueid": "MTK0625:31LVTDXBL8H5DUUXS442EBDGD79LRA", "current_trial": 73, "dateTime": 1512571714473, "trialdata": {"rt": -1, "stimulus": "", "key_press": -1, "type": "PRE_RECALL_DELAY", "trial_type": "single-stim", "trial_index": 73, "time_elapsed": 343791, "internal_node_id": "0.0-55.0-0.0"}}, {"uniqueid": "MTK0625:31LVTDXBL8H5DUUXS442EBDGD79LRA", "current_trial": 74, "dateTime": 1512571714974, "trialdata": {"rt": -1000, "stimulus": "/static/audio/400Hz.wav", "key_press": -1, "type": "PRE_RECALL_ALERT", "trial_type": "single-audio", "trial_index": 74, "time_elapsed": 344293, "internal_node_id": "0.0-56.0"}}, {"uniqueid": "MTK0625:31LVTDXBL8H5DUUXS442EBDGD79LRA", "current_trial": 75, "dateTime": 1512571774981, "trialdata": {"rt": [3983, 5153, 6762, 7517, 7990, 8502, 9391, 10078, 11000, 13260], "recwords": ["lady", "hatchet", "poison", "whistle", "lace", "fox", "slide", "tutu", "hamper", "rich"], "type": "FREE_RECALL", "conditions": [18, 1200, "v", 18000], "trial": 1, "trial_type": "free-recall", "trial_index": 75, "time_elapsed": 404295, "internal_node_id": "0.0-57.0-0.0"}}, {"uniqueid": "MTK0625:31LVTDXBL8H5DUUXS442EBDGD79LRA", "current_trial": 76, "dateTime": 1512571778991, "trialdata": {"rt": 2005, "key_press": 13, "type": "INSTRUCTIONS", "trial_type": "text", "trial_index": 76, "time_elapsed": 408307, "internal_node_id": "0.0-58.0"}}, {"uniqueid": "MTK0625:31LVTDXBL8H5DUUXS442EBDGD79LRA", "current_trial": 77, "dateTime": 1512571804000, "trialdata": {"rt": [2420, 3693, 6350, 7861, 10059, 11136, 12879, 14522, 16672, 20929], "responses": ["15", "16", "20", "9", "17", "15", "19", "12", "21", "13"], "num1": [3, 6, 8, 4, 9, 1, 7, 5, 4, 7, 8], "num2": [4, 3, 4, 3, 3, 9, 9, 6, 9, 2, 7], "num3": [8, 7, 8, 2, 5, 5, 3, 1, 9, 4, 6], "type": "DISTRACTOR", "conditions": [12, 1600, "v", 24000], "trial": 2, "trial_type": "math-distractor", "trial_index": 77, "time_elapsed": 433318, "internal_node_id": "0.0-59.0"}}, {"uniqueid": "MTK0625:31LVTDXBL8H5DUUXS442EBDGD79LRA", "current_trial": 78, "dateTime": 1512571807004, "trialdata": {"rt": -1, "stimulus": "<p id=\"stim\">10</p>", "key_press": -1, "trial_type": "single-stim", "trial_index": 78, "time_elapsed": 436323, "internal_node_id": "0.0-60.0-0.0"}}, {"uniqueid": "MTK0625:31LVTDXBL8H5DUUXS442EBDGD79LRA", "current_trial": 79, "dateTime": 1512571808005, "trialdata": {"rt": -1, "stimulus": "<p id=\"stim\">9</p>", "key_press": -1, "trial_type": "single-stim", "trial_index": 79, "time_elapsed": 437324, "internal_node_id": "0.0-60.0-1.0"}}, {"uniqueid": "MTK0625:31LVTDXBL8H5DUUXS442EBDGD79LRA", "current_trial": 80, "dateTime": 1512571809008, "trialdata": {"rt": -1, "stimulus": "<p id=\"stim\">8</p>", "key_press": -1, "trial_type": "single-stim", "trial_index": 80, "time_elapsed": 438327, "internal_node_id": "0.0-60.0-2.0"}}, {"uniqueid": "MTK0625:31LVTDXBL8H5DUUXS442EBDGD79LRA", "current_trial": 81, "dateTime": 1512571810011, "trialdata": {"rt": -1, "stimulus": "<p id=\"stim\">7</p>", "key_press": -1, "trial_type": "single-stim", "trial_index": 81, "time_elapsed": 439329, "internal_node_id": "0.0-60.0-3.0"}}, {"uniqueid": "MTK0625:31LVTDXBL8H5DUUXS442EBDGD79LRA", "current_trial": 82, "dateTime": 1512571811013, "trialdata": {"rt": -1, "stimulus": "<p id=\"stim\">6</p>", "key_press": -1, "trial_type": "single-stim", "trial_index": 82, "time_elapsed": 440332, "internal_node_id": "0.0-60.0-4.0"}}, {"uniqueid": "MTK0625:31LVTDXBL8H5DUUXS442EBDGD79LRA", "current_trial": 83, "dateTime": 1512571812014, "trialdata": {"rt": -1, "stimulus": "<p id=\"stim\">5</p>", "key_press": -1, "trial_type": "single-stim", "trial_index": 83, "time_elapsed": 441333, "internal_node_id": "0.0-60.0-5.0"}}, {"uniqueid": "MTK0625:31LVTDXBL8H5DUUXS442EBDGD79LRA", "current_trial": 84, "dateTime": 1512571813015, "trialdata": {"rt": -1, "stimulus": "<p id=\"stim\">4</p>", "key_press": -1, "trial_type": "single-stim", "trial_index": 84, "time_elapsed": 442334, "internal_node_id": "0.0-60.0-6.0"}}, {"uniqueid": "MTK0625:31LVTDXBL8H5DUUXS442EBDGD79LRA", "current_trial": 85, "dateTime": 1512571814017, "trialdata": {"rt": -1, "stimulus": "<p id=\"stim\">3</p>", "key_press": -1, "trial_type": "single-stim", "trial_index": 85, "time_elapsed": 443336, "internal_node_id": "0.0-60.0-7.0"}}, {"uniqueid": "MTK0625:31LVTDXBL8H5DUUXS442EBDGD79LRA", "current_trial": 86, "dateTime": 1512571815019, "trialdata": {"rt": -1, "stimulus": "<p id=\"stim\">2</p>", "key_press": -1, "trial_type": "single-stim", "trial_index": 86, "time_elapsed": 444337, "internal_node_id": "0.0-60.0-8.0"}}, {"uniqueid": "MTK0625:31LVTDXBL8H5DUUXS442EBDGD79LRA", "current_trial": 87, "dateTime": 1512571816023, "trialdata": {"rt": -1, "stimulus": "<p id=\"stim\">1</p>", "key_press": -1, "trial_type": "single-stim", "trial_index": 87, "time_elapsed": 445341, "internal_node_id": "0.0-60.0-9.0"}}, {"uniqueid": "MTK0625:31LVTDXBL8H5DUUXS442EBDGD79LRA", "current_trial": 88, "dateTime": 1512571817528, "trialdata": {"rt": -1, "stimulus": "<p id=\"stim\">+</p>", "key_press": -1, "type": "FIXATION", "trial_type": "single-stim", "trial_index": 88, "time_elapsed": 446846, "internal_node_id": "0.0-61.0-0.0"}}, {"uniqueid": "MTK0625:31LVTDXBL8H5DUUXS442EBDGD79LRA", "current_trial": 89, "dateTime": 1512571819128, "trialdata": {"rt": -1, "stimulus": "<p id=\"stim\">KLEENEX</p>", "key_press": -1, "type": "PRES_VIS", "word": "kleenex", "wordID": 781, "conditions": [12, 1600, "v", 24000], "trial": 2, "serialpos": 0, "trial_type": "single-stim", "trial_index": 89, "time_elapsed": 448447, "internal_node_id": "0.0-62.0"}}, {"uniqueid": "MTK0625:31LVTDXBL8H5DUUXS442EBDGD79LRA", "current_trial": 90, "dateTime": 1512571821884, "trialdata": {"rt": -1, "stimulus": "<p id=\"stim\">SLOPE</p>", "key_press": -1, "type": "PRES_VIS", "word": "slope", "wordID": 1327, "conditions": [12, 1600, "v", 24000], "trial": 2, "serialpos": 1, "trial_type": "single-stim", "trial_index": 90, "time_elapsed": 451203, "internal_node_id": "0.0-63.0"}}, {"uniqueid": "MTK0625:31LVTDXBL8H5DUUXS442EBDGD79LRA", "current_trial": 91, "dateTime": 1512571824485, "trialdata": {"rt": -1, "stimulus": "<p id=\"stim\">CELLAR</p>", "key_press": -1, "type": "PRES_VIS", "word": "cellar", "wordID": 266, "conditions": [12, 1600, "v", 24000], "trial": 2, "serialpos": 2, "trial_type": "single-stim", "trial_index": 91, "time_elapsed": 453803, "internal_node_id": "0.0-64.0"}}, {"uniqueid": "MTK0625:31LVTDXBL8H5DUUXS442EBDGD79LRA", "current_trial": 92, "dateTime": 1512571827034, "trialdata": {"rt": -1, "stimulus": "<p id=\"stim\">BUGGY</p>", "key_press": -1, "type": "PRES_VIS", "word": "buggy", "wordID": 187, "conditions": [12, 1600, "v", 24000], "trial": 2, "serialpos": 3, "trial_type": "single-stim", "trial_index": 92, "time_elapsed": 456352, "internal_node_id": "0.0-65.0"}}, {"uniqueid": "MTK0625:31LVTDXBL8H5DUUXS442EBDGD79LRA", "current_trial": 93, "dateTime": 1512571829673, "trialdata": {"rt": -1, "stimulus": "<p id=\"stim\">SIDEWALK</p>", "key_press": -1, "type": "PRES_VIS", "word": "sidewalk", "wordID": 1302, "conditions": [12, 1600, "v", 24000], "trial": 2, "serialpos": 4, "trial_type": "single-stim", "trial_index": 93, "time_elapsed": 458991, "internal_node_id": "0.0-66.0"}}, {"uniqueid": "MTK0625:31LVTDXBL8H5DUUXS442EBDGD79LRA", "current_trial": 94, "dateTime": 1512571832262, "trialdata": {"rt": -1, "stimulus": "<p id=\"stim\">PLAZA</p>", "key_press": -1, "type": "PRES_VIS", "word": "plaza", "wordID": 1087, "conditions": [12, 1600, "v", 24000], "trial": 2, "serialpos": 5, "trial_type": "single-stim", "trial_index": 94, "time_elapsed": 461581, "internal_node_id": "0.0-67.0"}}, {"uniqueid": "MTK0625:31LVTDXBL8H5DUUXS442EBDGD79LRA", "current_trial": 95, "dateTime": 1512571834711, "trialdata": {"rt": -1, "stimulus": "<p id=\"stim\">VALVE</p>", "key_press": -1, "type": "PRES_VIS", "word": "valve", "wordID": 1545, "conditions": [12, 1600, "v", 24000], "trial": 2, "serialpos": 6, "trial_type": "single-stim", "trial_index": 95, "time_elapsed": 464029, "internal_node_id": "0.0-68.0"}}, {"uniqueid": "MTK0625:31LVTDXBL8H5DUUXS442EBDGD79LRA", "current_trial": 96, "dateTime": 1512571837400, "trialdata": {"rt": -1, "stimulus": "<p id=\"stim\">INMATE</p>", "key_press": -1, "type": "PRES_VIS", "word": "inmate", "wordID": 737, "conditions": [12, 1600, "v", 24000], "trial": 2, "serialpos": 7, "trial_type": "single-stim", "trial_index": 96, "time_elapsed": 466719, "internal_node_id": "0.0-69.0"}}, {"uniqueid": "MTK0625:31LVTDXBL8H5DUUXS442EBDGD79LRA", "current_trial": 97, "dateTime": 1512571840011, "trialdata": {"rt": -1, "stimulus": "<p id=\"stim\">WHISKERS</p>", "key_press": -1, "type": "PRES_VIS", "word": "whiskers", "wordID": 1604, "conditions": [12, 1600, "v", 24000], "trial": 2, "serialpos": 8, "trial_type": "single-stim", "trial_index": 97, "time_elapsed": 469330, "internal_node_id": "0.0-70.0"}}, {"uniqueid": "MTK0625:31LVTDXBL8H5DUUXS442EBDGD79LRA", "current_trial": 98, "dateTime": 1512571842569, "trialdata": {"rt": -1, "stimulus": "<p id=\"stim\">PIGEON</p>", "key_press": -1, "type": "PRES_VIS", "word": "pigeon", "wordID": 1064, "conditions": [12, 1600, "v", 24000], "trial": 2, "serialpos": 9, "trial_type": "single-stim", "trial_index": 98, "time_elapsed": 471888, "internal_node_id": "0.0-71.0"}}, {"uniqueid": "MTK0625:31LVTDXBL8H5DUUXS442EBDGD79LRA", "current_trial": 99, "dateTime": 1512571845353, "trialdata": {"rt": -1, "stimulus": "<p id=\"stim\">PISTON</p>", "key_press": -1, "type": "PRES_VIS", "word": "piston", "wordID": 1075, "conditions": [12, 1600, "v", 24000], "trial": 2, "serialpos": 10, "trial_type": "single-stim", "trial_index": 99, "time_elapsed": 474672, "internal_node_id": "0.0-72.0"}}, {"uniqueid": "MTK0625:31LVTDXBL8H5DUUXS442EBDGD79LRA", "current_trial": 100, "dateTime": 1512571847935, "trialdata": {"rt": -1, "stimulus": "<p id=\"stim\">BRICK</p>", "key_press": -1, "type": "PRES_VIS", "word": "brick", "wordID": 171, "conditions": [12, 1600, "v", 24000], "trial": 2, "serialpos": 11, "trial_type": "single-stim", "trial_index": 100, "time_elapsed": 477253, "internal_node_id": "0.0-73.0"}}, {"uniqueid": "MTK0625:31LVTDXBL8H5DUUXS442EBDGD79LRA", "current_trial": 101, "dateTime": 1512571850278, "trialdata": {"rt": -1, "stimulus": "", "key_press": -1, "type": "PRE_RECALL_DELAY", "trial_type": "single-stim", "trial_index": 101, "time_elapsed": 479597, "internal_node_id": "0.0-74.0-0.0"}}, {"uniqueid": "MTK0625:31LVTDXBL8H5DUUXS442EBDGD79LRA", "current_trial": 102, "dateTime": 1512571850781, "trialdata": {"rt": -1000, "stimulus": "/static/audio/400Hz.wav", "key_press": -1, "type": "PRE_RECALL_ALERT", "trial_type": "single-audio", "trial_index": 102, "time_elapsed": 480099, "internal_node_id": "0.0-75.0"}}, {"uniqueid": "MTK0625:31LVTDXBL8H5DUUXS442EBDGD79LRA", "current_trial": 103, "dateTime": 1512571910789, "trialdata": {"rt": [7899, 9137, 10199, 11438, 12695, 13511, 14273, 15166], "recwords": ["valve", "inmate", "whiskers", "sidewalk", "buggy", "plaza", "brick", "piston"], "type": "FREE_RECALL", "conditions": [12, 1600, "v", 24000], "trial": 2, "trial_type": "free-recall", "trial_index": 103, "time_elapsed": 540107, "internal_node_id": "0.0-76.0-0.0"}}, {"uniqueid": "MTK0625:31LVTDXBL8H5DUUXS442EBDGD79LRA", "current_trial": 104, "dateTime": 1512571921639, "trialdata": {"rt": 8848, "key_press": 13, "type": "INSTRUCTIONS", "trial_type": "text", "trial_index": 104, "time_elapsed": 550958, "internal_node_id": "0.0-77.0"}}, {"uniqueid": "MTK0625:31LVTDXBL8H5DUUXS442EBDGD79LRA", "current_trial": 105, "dateTime": 1512571947647, "trialdata": {"rt": [1688, 3685, 6463, 8051, 11043, 14363, 16265, 17523, 19303, 22510, 23929], "responses": ["11", "13", "18", "13", "24", "16", "16", "11", "7", "21", "9"], "num1": [1, 8, 8, 1, 8, 2, 3, 1, 3, 8, 2, 2], "num2": [7, 4, 9, 8, 9, 5, 4, 1, 2, 6, 2, 6], "num3": [3, 1, 1, 4, 7, 9, 9, 9, 2, 7, 5, 3], "type": "DISTRACTOR", "conditions": [12, 1600, "a", 24000], "trial": 3, "trial_type": "math-distractor", "trial_index": 105, "time_elapsed": 576966, "internal_node_id": "0.0-78.0"}}, {"uniqueid": "MTK0625:31LVTDXBL8H5DUUXS442EBDGD79LRA", "current_trial": 106, "dateTime": 1512571950650, "trialdata": {"rt": -1, "stimulus": "<p id=\"stim\">10</p>", "key_press": -1, "trial_type": "single-stim", "trial_index": 106, "time_elapsed": 579969, "internal_node_id": "0.0-79.0-0.0"}}, {"uniqueid": "MTK0625:31LVTDXBL8H5DUUXS442EBDGD79LRA", "current_trial": 107, "dateTime": 1512571951652, "trialdata": {"rt": -1, "stimulus": "<p id=\"stim\">9</p>", "key_press": -1, "trial_type": "single-stim", "trial_index": 107, "time_elapsed": 580971, "internal_node_id": "0.0-79.0-1.0"}}, {"uniqueid": "MTK0625:31LVTDXBL8H5DUUXS442EBDGD79LRA", "current_trial": 108, "dateTime": 1512571952655, "trialdata": {"rt": -1, "stimulus": "<p id=\"stim\">8</p>", "key_press": -1, "trial_type": "single-stim", "trial_index": 108, "time_elapsed": 581974, "internal_node_id": "0.0-79.0-2.0"}}, {"uniqueid": "MTK0625:31LVTDXBL8H5DUUXS442EBDGD79LRA", "current_trial": 109, "dateTime": 1512571953657, "trialdata": {"rt": -1, "stimulus": "<p id=\"stim\">7</p>", "key_press": -1, "trial_type": "single-stim", "trial_index": 109, "time_elapsed": 582975, "internal_node_id": "0.0-79.0-3.0"}}, {"uniqueid": "MTK0625:31LVTDXBL8H5DUUXS442EBDGD79LRA", "current_trial": 110, "dateTime": 1512571954657, "trialdata": {"rt": -1, "stimulus": "<p id=\"stim\">6</p>", "key_press": -1, "trial_type": "single-stim", "trial_index": 110, "time_elapsed": 583976, "internal_node_id": "0.0-79.0-4.0"}}, {"uniqueid": "MTK0625:31LVTDXBL8H5DUUXS442EBDGD79LRA", "current_trial": 111, "dateTime": 1512571955670, "trialdata": {"rt": -1, "stimulus": "<p id=\"stim\">5</p>", "key_press": -1, "trial_type": "single-stim", "trial_index": 111, "time_elapsed": 584989, "internal_node_id": "0.0-79.0-5.0"}}, {"uniqueid": "MTK0625:31LVTDXBL8H5DUUXS442EBDGD79LRA", "current_trial": 112, "dateTime": 1512571956680, "trialdata": {"rt": -1, "stimulus": "<p id=\"stim\">4</p>", "key_press": -1, "trial_type": "single-stim", "trial_index": 112, "time_elapsed": 585999, "internal_node_id": "0.0-79.0-6.0"}}, {"uniqueid": "MTK0625:31LVTDXBL8H5DUUXS442EBDGD79LRA", "current_trial": 113, "dateTime": 1512571957688, "trialdata": {"rt": -1, "stimulus": "<p id=\"stim\">3</p>", "key_press": -1, "trial_type": "single-stim", "trial_index": 113, "time_elapsed": 587006, "internal_node_id": "0.0-79.0-7.0"}}, {"uniqueid": "MTK0625:31LVTDXBL8H5DUUXS442EBDGD79LRA", "current_trial": 114, "dateTime": 1512571958690, "trialdata": {"rt": -1, "stimulus": "<p id=\"stim\">2</p>", "key_press": -1, "trial_type": "single-stim", "trial_index": 114, "time_elapsed": 588009, "internal_node_id": "0.0-79.0-8.0"}}, {"uniqueid": "MTK0625:31LVTDXBL8H5DUUXS442EBDGD79LRA", "current_trial": 115, "dateTime": 1512571959691, "trialdata": {"rt": -1, "stimulus": "<p id=\"stim\">1</p>", "key_press": -1, "trial_type": "single-stim", "trial_index": 115, "time_elapsed": 589010, "internal_node_id": "0.0-79.0-9.0"}}, {"uniqueid": "MTK0625:31LVTDXBL8H5DUUXS442EBDGD79LRA", "current_trial": 116, "dateTime": 1512571961193, "trialdata": {"rt": -1, "stimulus": "<p id=\"stim\">+</p>", "key_press": -1, "type": "FIXATION", "trial_type": "single-stim", "trial_index": 116, "time_elapsed": 590512, "internal_node_id": "0.0-80.0-0.0"}}, {"uniqueid": "MTK0625:31LVTDXBL8H5DUUXS442EBDGD79LRA", "current_trial": 117, "dateTime": 1512571963712, "trialdata": {"rt": -1000, "stimulus": "/static/audio/wordpool/LAKE.wav", "key_press": -1, "type": "PRES_AUD", "word": "lake", "wordID": 795, "conditions": [12, 1600, "a", 24000], "trial": 3, "serialpos": 0, "trial_type": "single-audio", "trial_index": 117, "time_elapsed": 593031, "internal_node_id": "0.0-81.0"}}, {"uniqueid": "MTK0625:31LVTDXBL8H5DUUXS442EBDGD79LRA", "current_trial": 118, "dateTime": 1512571966404, "trialdata": {"rt": -1000, "stimulus": "/static/audio/wordpool/MILDEW.wav", "key_press": -1, "type": "PRES_AUD", "word": "mildew", "wordID": 892, "conditions": [12, 1600, "a", 24000], "trial": 3, "serialpos": 1, "trial_type": "single-audio", "trial_index": 118, "time_elapsed": 595723, "internal_node_id": "0.0-82.0"}}, {"uniqueid": "MTK0625:31LVTDXBL8H5DUUXS442EBDGD79LRA", "current_trial": 119, "dateTime": 1512571968805, "trialdata": {"rt": -1000, "stimulus": "/static/audio/wordpool/LAVA.wav", "key_press": -1, "type": "PRES_AUD", "word": "lava", "wordID": 803, "conditions": [12, 1600, "a", 24000], "trial": 3, "serialpos": 2, "trial_type": "single-audio", "trial_index": 119, "time_elapsed": 598124, "internal_node_id": "0.0-83.0"}}, {"uniqueid": "MTK0625:31LVTDXBL8H5DUUXS442EBDGD79LRA", "current_trial": 120, "dateTime": 1512571971481, "trialdata": {"rt": -1000, "stimulus": "/static/audio/wordpool/RECORD.wav", "key_press": -1, "type": "PRES_AUD", "word": "record", "wordID": 1175, "conditions": [12, 1600, "a", 24000], "trial": 3, "serialpos": 3, "trial_type": "single-audio", "trial_index": 120, "time_elapsed": 600799, "internal_node_id": "0.0-84.0"}}, {"uniqueid": "MTK0625:31LVTDXBL8H5DUUXS442EBDGD79LRA", "current_trial": 121, "dateTime": 1512571973886, "trialdata": {"rt": -1000, "stimulus": "/static/audio/wordpool/SWIMMER.wav", "key_press": -1, "type": "PRES_AUD", "word": "swimmer", "wordID": 1419, "conditions": [12, 1600, "a", 24000], "trial": 3, "serialpos": 4, "trial_type": "single-audio", "trial_index": 121, "time_elapsed": 603205, "internal_node_id": "0.0-85.0"}}, {"uniqueid": "MTK0625:31LVTDXBL8H5DUUXS442EBDGD79LRA", "current_trial": 122, "dateTime": 1512571976301, "trialdata": {"rt": -1000, "stimulus": "/static/audio/wordpool/KNAPSACK.wav", "key_press": -1, "type": "PRES_AUD", "word": "knapsack", "wordID": 782, "conditions": [12, 1600, "a", 24000], "trial": 3, "serialpos": 5, "trial_type": "single-audio", "trial_index": 122, "time_elapsed": 605620, "internal_node_id": "0.0-86.0"}}, {"uniqueid": "MTK0625:31LVTDXBL8H5DUUXS442EBDGD79LRA", "current_trial": 123, "dateTime": 1512571978986, "trialdata": {"rt": -1000, "stimulus": "/static/audio/wordpool/BRIEFCASE.wav", "key_press": -1, "type": "PRES_AUD", "word": "briefcase", "wordID": 174, "conditions": [12, 1600, "a", 24000], "trial": 3, "serialpos": 6, "trial_type": "single-audio", "trial_index": 123, "time_elapsed": 608305, "internal_node_id": "0.0-87.0"}}, {"uniqueid": "MTK0625:31LVTDXBL8H5DUUXS442EBDGD79LRA", "current_trial": 124, "dateTime": 1512571981611, "trialdata": {"rt": -1000, "stimulus": "/static/audio/wordpool/ICING.wav", "key_press": -1, "type": "PRES_AUD", "word": "icing", "wordID": 731, "conditions": [12, 1600, "a", 24000], "trial": 3, "serialpos": 7, "trial_type": "single-audio", "trial_index": 124, "time_elapsed": 610930, "internal_node_id": "0.0-88.0"}}, {"uniqueid": "MTK0625:31LVTDXBL8H5DUUXS442EBDGD79LRA", "current_trial": 125, "dateTime": 1512571984075, "trialdata": {"rt": -1000, "stimulus": "/static/audio/wordpool/CRATER.wav", "key_press": -1, "type": "PRES_AUD", "word": "crater", "wordID": 399, "conditions": [12, 1600, "a", 24000], "trial": 3, "serialpos": 8, "trial_type": "single-audio", "trial_index": 125, "time_elapsed": 613394, "internal_node_id": "0.0-89.0"}}, {"uniqueid": "MTK0625:31LVTDXBL8H5DUUXS442EBDGD79LRA", "current_trial": 126, "dateTime": 1512571986631, "trialdata": {"rt": -1000, "stimulus": "/static/audio/wordpool/CONTRACT.wav", "key_press": -1, "type": "PRES_AUD", "word": "contract", "wordID": 367, "conditions": [12, 1600, "a", 24000], "trial": 3, "serialpos": 9, "trial_type": "single-audio", "trial_index": 126, "time_elapsed": 615950, "internal_node_id": "0.0-90.0"}}, {"uniqueid": "MTK0625:31LVTDXBL8H5DUUXS442EBDGD79LRA", "current_trial": 127, "dateTime": 1512571989366, "trialdata": {"rt": -1000, "stimulus": "/static/audio/wordpool/PERFUME.wav", "key_press": -1, "type": "PRES_AUD", "word": "perfume", "wordID": 1048, "conditions": [12, 1600, "a", 24000], "trial": 3, "serialpos": 10, "trial_type": "single-audio", "trial_index": 127, "time_elapsed": 618685, "internal_node_id": "0.0-91.0"}}, {"uniqueid": "MTK0625:31LVTDXBL8H5DUUXS442EBDGD79LRA", "current_trial": 128, "dateTime": 1512571992032, "trialdata": {"rt": -1000, "stimulus": "/static/audio/wordpool/PEACH.wav", "key_press": -1, "type": "PRES_AUD", "word": "peach", "wordID": 1030, "conditions": [12, 1600, "a", 24000], "trial": 3, "serialpos": 11, "trial_type": "single-audio", "trial_index": 128, "time_elapsed": 621351, "internal_node_id": "0.0-92.0"}}, {"uniqueid": "MTK0625:31LVTDXBL8H5DUUXS442EBDGD79LRA", "current_trial": 129, "dateTime": 1512571993296, "trialdata": {"rt": -1, "stimulus": "", "key_press": -1, "type": "PRE_RECALL_DELAY", "trial_type": "single-stim", "trial_index": 129, "time_elapsed": 622615, "internal_node_id": "0.0-93.0-0.0"}}, {"uniqueid": "MTK0625:31LVTDXBL8H5DUUXS442EBDGD79LRA", "current_trial": 130, "dateTime": 1512571993797, "trialdata": {"rt": -1000, "stimulus": "/static/audio/400Hz.wav", "key_press": -1, "type": "PRE_RECALL_ALERT", "trial_type": "single-audio", "trial_index": 130, "time_elapsed": 623116, "internal_node_id": "0.0-94.0"}}, {"uniqueid": "MTK0625:31LVTDXBL8H5DUUXS442EBDGD79LRA", "current_trial": 131, "dateTime": 1512572053817, "trialdata": {"rt": [6402, 7292, 9642, 11146, 12031, 13350, 14729, 16800], "recwords": ["briefcase", "icing", "crater", "record", "lava", "swimmer", "peach", "mildew"], "type": "FREE_RECALL", "conditions": [12, 1600, "a", 24000], "trial": 3, "trial_type": "free-recall", "trial_index": 131, "time_elapsed": 683124, "internal_node_id": "0.0-95.0-0.0"}}, {"uniqueid": "MTK0625:31LVTDXBL8H5DUUXS442EBDGD79LRA", "current_trial": 132, "dateTime": 1512572056835, "trialdata": {"rt": 1017, "key_press": 32, "type": "INSTRUCTIONS", "trial_type": "text", "trial_index": 132, "time_elapsed": 686154, "internal_node_id": "0.0-96.0"}}, {"uniqueid": "MTK0625:31LVTDXBL8H5DUUXS442EBDGD79LRA", "current_trial": 133, "dateTime": 1512572082838, "trialdata": {"rt": [1787, 2918, 4383, 5695, 7066, 10791, 12098, 13304, 15415, 17725, 19045, 20401, 21797, 22761], "responses": ["6", "10", "9", "13", "14", "21", "17", "15", "15", "14", "18", "14", "12", "12"], "num1": [4, 7, 1, 4, 2, 8, 4, 3, 4, 7, 1, 4, 4, 7, 1], "num2": [1, 2, 3, 4, 5, 6, 6, 5, 2, 5, 9, 9, 6, 3, 6], "num3": [1, 1, 5, 5, 7, 7, 7, 7, 9, 2, 8, 1, 2, 2, 7], "type": "DISTRACTOR", "conditions": [24, 1600, "a", 24000], "trial": 4, "trial_type": "math-distractor", "trial_index": 133, "time_elapsed": 712157, "internal_node_id": "0.0-97.0"}}, {"uniqueid": "MTK0625:31LVTDXBL8H5DUUXS442EBDGD79LRA", "current_trial": 134, "dateTime": 1512572085842, "trialdata": {"rt": -1, "stimulus": "<p id=\"stim\">10</p>", "key_press": -1, "trial_type": "single-stim", "trial_index": 134, "time_elapsed": 715160, "internal_node_id": "0.0-98.0-0.0"}}, {"uniqueid": "MTK0625:31LVTDXBL8H5DUUXS442EBDGD79LRA", "current_trial": 135, "dateTime": 1512572086843, "trialdata": {"rt": -1, "stimulus": "<p id=\"stim\">9</p>", "key_press": -1, "trial_type": "single-stim", "trial_index": 135, "time_elapsed": 716162, "internal_node_id": "0.0-98.0-1.0"}}, {"uniqueid": "MTK0625:31LVTDXBL8H5DUUXS442EBDGD79LRA", "current_trial": 136, "dateTime": 1512572087845, "trialdata": {"rt": -1, "stimulus": "<p id=\"stim\">8</p>", "key_press": -1, "trial_type": "single-stim", "trial_index": 136, "time_elapsed": 717164, "internal_node_id": "0.0-98.0-2.0"}}, {"uniqueid": "MTK0625:31LVTDXBL8H5DUUXS442EBDGD79LRA", "current_trial": 137, "dateTime": 1512572088846, "trialdata": {"rt": -1, "stimulus": "<p id=\"stim\">7</p>", "key_press": -1, "trial_type": "single-stim", "trial_index": 137, "time_elapsed": 718165, "internal_node_id": "0.0-98.0-3.0"}}, {"uniqueid": "MTK0625:31LVTDXBL8H5DUUXS442EBDGD79LRA", "current_trial": 138, "dateTime": 1512572089847, "trialdata": {"rt": -1, "stimulus": "<p id=\"stim\">6</p>", "key_press": -1, "trial_type": "single-stim", "trial_index": 138, "time_elapsed": 719166, "internal_node_id": "0.0-98.0-4.0"}}, {"uniqueid": "MTK0625:31LVTDXBL8H5DUUXS442EBDGD79LRA", "current_trial": 139, "dateTime": 1512572090848, "trialdata": {"rt": -1, "stimulus": "<p id=\"stim\">5</p>", "key_press": -1, "trial_type": "single-stim", "trial_index": 139, "time_elapsed": 720167, "internal_node_id": "0.0-98.0-5.0"}}, {"uniqueid": "MTK0625:31LVTDXBL8H5DUUXS442EBDGD79LRA", "current_trial": 140, "dateTime": 1512572091850, "trialdata": {"rt": -1, "stimulus": "<p id=\"stim\">4</p>", "key_press": -1, "trial_type": "single-stim", "trial_index": 140, "time_elapsed": 721169, "internal_node_id": "0.0-98.0-6.0"}}, {"uniqueid": "MTK0625:31LVTDXBL8H5DUUXS442EBDGD79LRA", "current_trial": 141, "dateTime": 1512572092851, "trialdata": {"rt": -1, "stimulus": "<p id=\"stim\">3</p>", "key_press": -1, "trial_type": "single-stim", "trial_index": 141, "time_elapsed": 722170, "internal_node_id": "0.0-98.0-7.0"}}, {"uniqueid": "MTK0625:31LVTDXBL8H5DUUXS442EBDGD79LRA", "current_trial": 142, "dateTime": 1512572093852, "trialdata": {"rt": -1, "stimulus": "<p id=\"stim\">2</p>", "key_press": -1, "trial_type": "single-stim", "trial_index": 142, "time_elapsed": 723171, "internal_node_id": "0.0-98.0-8.0"}}, {"uniqueid": "MTK0625:31LVTDXBL8H5DUUXS442EBDGD79LRA", "current_trial": 143, "dateTime": 1512572094854, "trialdata": {"rt": -1, "stimulus": "<p id=\"stim\">1</p>", "key_press": -1, "trial_type": "single-stim", "trial_index": 143, "time_elapsed": 724172, "internal_node_id": "0.0-98.0-9.0"}}, {"uniqueid": "MTK0625:31LVTDXBL8H5DUUXS442EBDGD79LRA", "current_trial": 144, "dateTime": 1512572096355, "trialdata": {"rt": -1, "stimulus": "<p id=\"stim\">+</p>", "key_press": -1, "type": "FIXATION", "trial_type": "single-stim", "trial_index": 144, "time_elapsed": 725674, "internal_node_id": "0.0-99.0-0.0"}}, {"uniqueid": "MTK0625:31LVTDXBL8H5DUUXS442EBDGD79LRA", "current_trial": 145, "dateTime": 1512572099001, "trialdata": {"rt": -1000, "stimulus": "/static/audio/wordpool/BLADE.wav", "key_press": -1, "type": "PRES_AUD", "word": "blade", "wordID": 133, "conditions": [24, 1600, "a", 24000], "trial": 4, "serialpos": 0, "trial_type": "single-audio", "trial_index": 145, "time_elapsed": 728320, "internal_node_id": "0.0-100.0"}}, {"uniqueid": "MTK0625:31LVTDXBL8H5DUUXS442EBDGD79LRA", "current_trial": 146, "dateTime": 1512572101725, "trialdata": {"rt": -1000, "stimulus": "/static/audio/wordpool/STALLION.wav", "key_press": -1, "type": "PRES_AUD", "word": "stallion", "wordID": 1368, "conditions": [24, 1600, "a", 24000], "trial": 4, "serialpos": 1, "trial_type": "single-audio", "trial_index": 146, "time_elapsed": 731044, "internal_node_id": "0.0-101.0"}}, {"uniqueid": "MTK0625:31LVTDXBL8H5DUUXS442EBDGD79LRA", "current_trial": 147, "dateTime": 1512572104151, "trialdata": {"rt": -1000, "stimulus": "/static/audio/wordpool/CRAB.wav", "key_press": -1, "type": "PRES_AUD", "word": "crab", "wordID": 396, "conditions": [24, 1600, "a", 24000], "trial": 4, "serialpos": 2, "trial_type": "single-audio", "trial_index": 147, "time_elapsed": 733470, "internal_node_id": "0.0-102.0"}}, {"uniqueid": "MTK0625:31LVTDXBL8H5DUUXS442EBDGD79LRA", "current_trial": 148, "dateTime": 1512572106931, "trialdata": {"rt": -1000, "stimulus": "/static/audio/wordpool/TURKEY.wav", "key_press": -1, "type": "PRES_AUD", "word": "turkey", "wordID": 1519, "conditions": [24, 1600, "a", 24000], "trial": 4, "serialpos": 3, "trial_type": "single-audio", "trial_index": 148, "time_elapsed": 736250, "internal_node_id": "0.0-103.0"}}, {"uniqueid": "MTK0625:31LVTDXBL8H5DUUXS442EBDGD79LRA", "current_trial": 149, "dateTime": 1512572109371, "trialdata": {"rt": -1000, "stimulus": "/static/audio/wordpool/PORK.wav", "key_press": -1, "type": "PRES_AUD", "word": "pork", "wordID": 1107, "conditions": [24, 1600, "a", 24000], "trial": 4, "serialpos": 4, "trial_type": "single-audio", "trial_index": 149, "time_elapsed": 738690, "internal_node_id": "0.0-104.0"}}, {"uniqueid": "MTK0625:31LVTDXBL8H5DUUXS442EBDGD79LRA", "current_trial": 150, "dateTime": 1512572111902, "trialdata": {"rt": -1000, "stimulus": "/static/audio/wordpool/CABIN.wav", "key_press": -1, "type": "PRES_AUD", "word": "cabin", "wordID": 210, "conditions": [24, 1600, "a", 24000], "trial": 4, "serialpos": 5, "trial_type": "single-audio", "trial_index": 150, "time_elapsed": 741221, "internal_node_id": "0.0-105.0"}}, {"uniqueid": "MTK0625:31LVTDXBL8H5DUUXS442EBDGD79LRA", "current_trial": 151, "dateTime": 1512572114689, "trialdata": {"rt": -1000, "stimulus": "/static/audio/wordpool/FRAME.wav", "key_press": -1, "type": "PRES_AUD", "word": "frame", "wordID": 599, "conditions": [24, 1600, "a", 24000], "trial": 4, "serialpos": 6, "trial_type": "single-audio", "trial_index": 151, "time_elapsed": 744008, "internal_node_id": "0.0-106.0"}}, {"uniqueid": "MTK0625:31LVTDXBL8H5DUUXS442EBDGD79LRA", "current_trial": 152, "dateTime": 1512572117432, "trialdata": {"rt": -1000, "stimulus": "/static/audio/wordpool/BELLY.wav", "key_press": -1, "type": "PRES_AUD", "word": "belly", "wordID": 118, "conditions": [24, 1600, "a", 24000], "trial": 4, "serialpos": 7, "trial_type": "single-audio", "trial_index": 152, "time_elapsed": 746751, "internal_node_id": "0.0-107.0"}}, {"uniqueid": "MTK0625:31LVTDXBL8H5DUUXS442EBDGD79LRA", "current_trial": 153, "dateTime": 1512572120065, "trialdata": {"rt": -1000, "stimulus": "/static/audio/wordpool/CATCHER.wav", "key_press": -1, "type": "PRES_AUD", "word": "catcher", "wordID": 257, "conditions": [24, 1600, "a", 24000], "trial": 4, "serialpos": 8, "trial_type": "single-audio", "trial_index": 153, "time_elapsed": 749384, "internal_node_id": "0.0-108.0"}}, {"uniqueid": "MTK0625:31LVTDXBL8H5DUUXS442EBDGD79LRA", "current_trial": 154, "dateTime": 1512572122559, "trialdata": {"rt": -1000, "stimulus": "/static/audio/wordpool/SALMON.wav", "key_press": -1, "type": "PRES_AUD", "word": "salmon", "wordID": 1226, "conditions": [24, 1600, "a", 24000], "trial": 4, "serialpos": 9, "trial_type": "single-audio", "trial_index": 154, "time_elapsed": 751878, "internal_node_id": "0.0-109.0"}}, {"uniqueid": "MTK0625:31LVTDXBL8H5DUUXS442EBDGD79LRA", "current_trial": 155, "dateTime": 1512572125140, "trialdata": {"rt": -1000, "stimulus": "/static/audio/wordpool/FRIEND.wav", "key_press": -1, "type": "PRES_AUD", "word": "friend", "wordID": 605, "conditions": [24, 1600, "a", 24000], "trial": 4, "serialpos": 10, "trial_type": "single-audio", "trial_index": 155, "time_elapsed": 754459, "internal_node_id": "0.0-110.0"}}, {"uniqueid": "MTK0625:31LVTDXBL8H5DUUXS442EBDGD79LRA", "current_trial": 156, "dateTime": 1512572127846, "trialdata": {"rt": -1000, "stimulus": "/static/audio/wordpool/GLASS.wav", "key_press": -1, "type": "PRES_AUD", "word": "glass", "wordID": 638, "conditions": [24, 1600, "a", 24000], "trial": 4, "serialpos": 11, "trial_type": "single-audio", "trial_index": 156, "time_elapsed": 757164, "internal_node_id": "0.0-111.0"}}, {"uniqueid": "MTK0625:31LVTDXBL8H5DUUXS442EBDGD79LRA", "current_trial": 157, "dateTime": 1512572130571, "trialdata": {"rt": -1000, "stimulus": "/static/audio/wordpool/BOUQUET.wav", "key_press": -1, "type": "PRES_AUD", "word": "bouquet", "wordID": 156, "conditions": [24, 1600, "a", 24000], "trial": 4, "serialpos": 12, "trial_type": "single-audio", "trial_index": 157, "time_elapsed": 759890, "internal_node_id": "0.0-112.0"}}, {"uniqueid": "MTK0625:31LVTDXBL8H5DUUXS442EBDGD79LRA", "current_trial": 158, "dateTime": 1512572133254, "trialdata": {"rt": -1000, "stimulus": "/static/audio/wordpool/SHELTER.wav", "key_press": -1, "type": "PRES_AUD", "word": "shelter", "wordID": 1281, "conditions": [24, 1600, "a", 24000], "trial": 4, "serialpos": 13, "trial_type": "single-audio", "trial_index": 158, "time_elapsed": 762572, "internal_node_id": "0.0-113.0"}}, {"uniqueid": "MTK0625:31LVTDXBL8H5DUUXS442EBDGD79LRA", "current_trial": 159, "dateTime": 1512572135934, "trialdata": {"rt": -1000, "stimulus": "/static/audio/wordpool/VIRUS.wav", "key_press": -1, "type": "PRES_AUD", "word": "virus", "wordID": 1571, "conditions": [24, 1600, "a", 24000], "trial": 4, "serialpos": 14, "trial_type": "single-audio", "trial_index": 159, "time_elapsed": 765252, "internal_node_id": "0.0-114.0"}}, {"uniqueid": "MTK0625:31LVTDXBL8H5DUUXS442EBDGD79LRA", "current_trial": 160, "dateTime": 1512572138436, "trialdata": {"rt": -1000, "stimulus": "/static/audio/wordpool/BLENDER.wav", "key_press": -1, "type": "PRES_AUD", "word": "blender", "wordID": 135, "conditions": [24, 1600, "a", 24000], "trial": 4, "serialpos": 15, "trial_type": "single-audio", "trial_index": 160, "time_elapsed": 767755, "internal_node_id": "0.0-115.0"}}, {"uniqueid": "MTK0625:31LVTDXBL8H5DUUXS442EBDGD79LRA", "current_trial": 161, "dateTime": 1512572141202, "trialdata": {"rt": -1000, "stimulus": "/static/audio/wordpool/SHOULDER.wav", "key_press": -1, "type": "PRES_AUD", "word": "shoulder", "wordID": 1293, "conditions": [24, 1600, "a", 24000], "trial": 4, "serialpos": 16, "trial_type": "single-audio", "trial_index": 161, "time_elapsed": 770521, "internal_node_id": "0.0-116.0"}}, {"uniqueid": "MTK0625:31LVTDXBL8H5DUUXS442EBDGD79LRA", "current_trial": 162, "dateTime": 1512572143756, "trialdata": {"rt": -1000, "stimulus": "/static/audio/wordpool/CRIB.wav", "key_press": -1, "type": "PRES_AUD", "word": "crib", "wordID": 406, "conditions": [24, 1600, "a", 24000], "trial": 4, "serialpos": 17, "trial_type": "single-audio", "trial_index": 162, "time_elapsed": 773075, "internal_node_id": "0.0-117.0"}}, {"uniqueid": "MTK0625:31LVTDXBL8H5DUUXS442EBDGD79LRA", "current_trial": 163, "dateTime": 1512572146308, "trialdata": {"rt": -1000, "stimulus": "/static/audio/wordpool/MATTRESS.wav", "key_press": -1, "type": "PRES_AUD", "word": "mattress", "wordID": 878, "conditions": [24, 1600, "a", 24000], "trial": 4, "serialpos": 18, "trial_type": "single-audio", "trial_index": 163, "time_elapsed": 775627, "internal_node_id": "0.0-118.0"}}, {"uniqueid": "MTK0625:31LVTDXBL8H5DUUXS442EBDGD79LRA", "current_trial": 164, "dateTime": 1512572148784, "trialdata": {"rt": -1000, "stimulus": "/static/audio/wordpool/DOUGHNUT.wav", "key_press": -1, "type": "PRES_AUD", "word": "doughnut", "wordID": 489, "conditions": [24, 1600, "a", 24000], "trial": 4, "serialpos": 19, "trial_type": "single-audio", "trial_index": 164, "time_elapsed": 778103, "internal_node_id": "0.0-119.0"}}, {"uniqueid": "MTK0625:31LVTDXBL8H5DUUXS442EBDGD79LRA", "current_trial": 165, "dateTime": 1512572151333, "trialdata": {"rt": -1000, "stimulus": "/static/audio/wordpool/SHRUB.wav", "key_press": -1, "type": "PRES_AUD", "word": "shrub", "wordID": 1298, "conditions": [24, 1600, "a", 24000], "trial": 4, "serialpos": 20, "trial_type": "single-audio", "trial_index": 165, "time_elapsed": 780651, "internal_node_id": "0.0-120.0"}}, {"uniqueid": "MTK0625:31LVTDXBL8H5DUUXS442EBDGD79LRA", "current_trial": 166, "dateTime": 1512572153760, "trialdata": {"rt": -1000, "stimulus": "/static/audio/wordpool/HEDGE.wav", "key_press": -1, "type": "PRES_AUD", "word": "hedge", "wordID": 698, "conditions": [24, 1600, "a", 24000], "trial": 4, "serialpos": 21, "trial_type": "single-audio", "trial_index": 166, "time_elapsed": 783078, "internal_node_id": "0.0-121.0"}}, {"uniqueid": "MTK0625:31LVTDXBL8H5DUUXS442EBDGD79LRA", "current_trial": 167, "dateTime": 1512572156501, "trialdata": {"rt": -1000, "stimulus": "/static/audio/wordpool/ANKLE.wav", "key_press": -1, "type": "PRES_AUD", "word": "ankle", "wordID": 23, "conditions": [24, 1600, "a", 24000], "trial": 4, "serialpos": 22, "trial_type": "single-audio", "trial_index": 167, "time_elapsed": 785820, "internal_node_id": "0.0-122.0"}}, {"uniqueid": "MTK0625:31LVTDXBL8H5DUUXS442EBDGD79LRA", "current_trial": 168, "dateTime": 1512572158944, "trialdata": {"rt": -1000, "stimulus": "/static/audio/wordpool/MESSAGE.wav", "key_press": -1, "type": "PRES_AUD", "word": "message", "wordID": 887, "conditions": [24, 1600, "a", 24000], "trial": 4, "serialpos": 23, "trial_type": "single-audio", "trial_index": 168, "time_elapsed": 788263, "internal_node_id": "0.0-123.0"}}, {"uniqueid": "MTK0625:31LVTDXBL8H5DUUXS442EBDGD79LRA", "current_trial": 169, "dateTime": 1512572160268, "trialdata": {"rt": -1, "stimulus": "", "key_press": -1, "type": "PRE_RECALL_DELAY", "trial_type": "single-stim", "trial_index": 169, "time_elapsed": 789587, "internal_node_id": "0.0-124.0-0.0"}}, {"uniqueid": "MTK0625:31LVTDXBL8H5DUUXS442EBDGD79LRA", "current_trial": 170, "dateTime": 1512572160769, "trialdata": {"rt": -1000, "stimulus": "/static/audio/400Hz.wav", "key_press": -1, "type": "PRE_RECALL_ALERT", "trial_type": "single-audio", "trial_index": 170, "time_elapsed": 790088, "internal_node_id": "0.0-125.0"}}, {"uniqueid": "MTK0625:31LVTDXBL8H5DUUXS442EBDGD79LRA", "current_trial": 171, "dateTime": 1512572220776, "trialdata": {"rt": [4242, 5115, 5957, 6604, 8129, 9919, 11095, 11873, 12536, 18353], "recwords": ["belly", "salmon", "shoulder", "donut", "shrub", "belly", "cabin", "frame", "pork", "message"], "type": "FREE_RECALL", "conditions": [24, 1600, "a", 24000], "trial": 4, "trial_type": "free-recall", "trial_index": 171, "time_elapsed": 850089, "internal_node_id": "0.0-126.0-0.0"}}, {"uniqueid": "MTK0625:31LVTDXBL8H5DUUXS442EBDGD79LRA", "current_trial": 172, "dateTime": 1512572224670, "trialdata": {"rt": 1894, "key_press": 13, "type": "INSTRUCTIONS", "trial_type": "text", "trial_index": 172, "time_elapsed": 853989, "internal_node_id": "0.0-127.0"}}, {"uniqueid": "MTK0625:31LVTDXBL8H5DUUXS442EBDGD79LRA", "current_trial": 173, "dateTime": 1512572250677, "trialdata": {"rt": [1826, 4658, 7023, 8325, 9866, 11006, 13614, 15475, 16824, 17964, 20149, 21631, 23196], "responses": ["13", "16", "19", "12", "12", "18", "24", "16", "7", "5", "20", "15", "19"], "num1": [3, 5, 7, 6, 4, 3, 9, 7, 4, 1, 2, 9, 9, 3], "num2": [9, 8, 8, 1, 7, 7, 7, 8, 2, 1, 9, 2, 8, 4], "num3": [1, 3, 4, 3, 1, 8, 8, 1, 1, 3, 9, 4, 2, 2], "type": "DISTRACTOR", "conditions": [24, 800, "v", 24000], "trial": 5, "trial_type": "math-distractor", "trial_index": 173, "time_elapsed": 879996, "internal_node_id": "0.0-128.0"}}, {"uniqueid": "MTK0625:31LVTDXBL8H5DUUXS442EBDGD79LRA", "current_trial": 174, "dateTime": 1512572253678, "trialdata": {"rt": -1, "stimulus": "<p id=\"stim\">10</p>", "key_press": -1, "trial_type": "single-stim", "trial_index": 174, "time_elapsed": 882997, "internal_node_id": "0.0-129.0-0.0"}}, {"uniqueid": "MTK0625:31LVTDXBL8H5DUUXS442EBDGD79LRA", "current_trial": 175, "dateTime": 1512572254679, "trialdata": {"rt": -1, "stimulus": "<p id=\"stim\">9</p>", "key_press": -1, "trial_type": "single-stim", "trial_index": 175, "time_elapsed": 883998, "internal_node_id": "0.0-129.0-1.0"}}, {"uniqueid": "MTK0625:31LVTDXBL8H5DUUXS442EBDGD79LRA", "current_trial": 176, "dateTime": 1512572255681, "trialdata": {"rt": -1, "stimulus": "<p id=\"stim\">8</p>", "key_press": -1, "trial_type": "single-stim", "trial_index": 176, "time_elapsed": 884999, "internal_node_id": "0.0-129.0-2.0"}}, {"uniqueid": "MTK0625:31LVTDXBL8H5DUUXS442EBDGD79LRA", "current_trial": 177, "dateTime": 1512572256682, "trialdata": {"rt": -1, "stimulus": "<p id=\"stim\">7</p>", "key_press": -1, "trial_type": "single-stim", "trial_index": 177, "time_elapsed": 886001, "internal_node_id": "0.0-129.0-3.0"}}, {"uniqueid": "MTK0625:31LVTDXBL8H5DUUXS442EBDGD79LRA", "current_trial": 178, "dateTime": 1512572257684, "trialdata": {"rt": -1, "stimulus": "<p id=\"stim\">6</p>", "key_press": -1, "trial_type": "single-stim", "trial_index": 178, "time_elapsed": 887003, "internal_node_id": "0.0-129.0-4.0"}}, {"uniqueid": "MTK0625:31LVTDXBL8H5DUUXS442EBDGD79LRA", "current_trial": 179, "dateTime": 1512572258686, "trialdata": {"rt": -1, "stimulus": "<p id=\"stim\">5</p>", "key_press": -1, "trial_type": "single-stim", "trial_index": 179, "time_elapsed": 888005, "internal_node_id": "0.0-129.0-5.0"}}, {"uniqueid": "MTK0625:31LVTDXBL8H5DUUXS442EBDGD79LRA", "current_trial": 180, "dateTime": 1512572259689, "trialdata": {"rt": -1, "stimulus": "<p id=\"stim\">4</p>", "key_press": -1, "trial_type": "single-stim", "trial_index": 180, "time_elapsed": 889007, "internal_node_id": "0.0-129.0-6.0"}}, {"uniqueid": "MTK0625:31LVTDXBL8H5DUUXS442EBDGD79LRA", "current_trial": 181, "dateTime": 1512572260690, "trialdata": {"rt": -1, "stimulus": "<p id=\"stim\">3</p>", "key_press": -1, "trial_type": "single-stim", "trial_index": 181, "time_elapsed": 890009, "internal_node_id": "0.0-129.0-7.0"}}, {"uniqueid": "MTK0625:31LVTDXBL8H5DUUXS442EBDGD79LRA", "current_trial": 182, "dateTime": 1512572261691, "trialdata": {"rt": -1, "stimulus": "<p id=\"stim\">2</p>", "key_press": -1, "trial_type": "single-stim", "trial_index": 182, "time_elapsed": 891010, "internal_node_id": "0.0-129.0-8.0"}}, {"uniqueid": "MTK0625:31LVTDXBL8H5DUUXS442EBDGD79LRA", "current_trial": 183, "dateTime": 1512572262693, "trialdata": {"rt": -1, "stimulus": "<p id=\"stim\">1</p>", "key_press": -1, "trial_type": "single-stim", "trial_index": 183, "time_elapsed": 892011, "internal_node_id": "0.0-129.0-9.0"}}, {"uniqueid": "MTK0625:31LVTDXBL8H5DUUXS442EBDGD79LRA", "current_trial": 184, "dateTime": 1512572264195, "trialdata": {"rt": -1, "stimulus": "<p id=\"stim\">+</p>", "key_press": -1, "type": "FIXATION", "trial_type": "single-stim", "trial_index": 184, "time_elapsed": 893514, "internal_node_id": "0.0-130.0-0.0"}}, {"uniqueid": "MTK0625:31LVTDXBL8H5DUUXS442EBDGD79LRA", "current_trial": 185, "dateTime": 1512572264997, "trialdata": {"rt": -1, "stimulus": "<p id=\"stim\">SWORD</p>", "key_press": -1, "type": "PRES_VIS", "word": "sword", "wordID": 1422, "conditions": [24, 800, "v", 24000], "trial": 5, "serialpos": 0, "trial_type": "single-stim", "trial_index": 185, "time_elapsed": 894316, "internal_node_id": "0.0-131.0"}}, {"uniqueid": "MTK0625:31LVTDXBL8H5DUUXS442EBDGD79LRA", "current_trial": 186, "dateTime": 1512572266936, "trialdata": {"rt": -1, "stimulus": "<p id=\"stim\">TWEEZERS</p>", "key_press": -1, "type": "PRES_VIS", "word": "tweezers", "wordID": 1525, "conditions": [24, 800, "v", 24000], "trial": 5, "serialpos": 1, "trial_type": "single-stim", "trial_index": 186, "time_elapsed": 896255, "internal_node_id": "0.0-132.0"}}, {"uniqueid": "MTK0625:31LVTDXBL8H5DUUXS442EBDGD79LRA", "current_trial": 187, "dateTime": 1512572268706, "trialdata": {"rt": -1, "stimulus": "<p id=\"stim\">PLIERS</p>", "key_press": -1, "type": "PRES_VIS", "word": "pliers", "wordID": 1088, "conditions": [24, 800, "v", 24000], "trial": 5, "serialpos": 2, "trial_type": "single-stim", "trial_index": 187, "time_elapsed": 898025, "internal_node_id": "0.0-133.0"}}, {"uniqueid": "MTK0625:31LVTDXBL8H5DUUXS442EBDGD79LRA", "current_trial": 188, "dateTime": 1512572270372, "trialdata": {"rt": -1, "stimulus": "<p id=\"stim\">LAPEL</p>", "key_press": -1, "type": "PRES_VIS", "word": "lapel", "wordID": 799, "conditions": [24, 800, "v", 24000], "trial": 5, "serialpos": 3, "trial_type": "single-stim", "trial_index": 188, "time_elapsed": 899691, "internal_node_id": "0.0-134.0"}}, {"uniqueid": "MTK0625:31LVTDXBL8H5DUUXS442EBDGD79LRA", "current_trial": 189, "dateTime": 1512572272149, "trialdata": {"rt": -1, "stimulus": "<p id=\"stim\">COWBOY</p>", "key_press": -1, "type": "PRES_VIS", "word": "cowboy", "wordID": 394, "conditions": [24, 800, "v", 24000], "trial": 5, "serialpos": 4, "trial_type": "single-stim", "trial_index": 189, "time_elapsed": 901468, "internal_node_id": "0.0-135.0"}}, {"uniqueid": "MTK0625:31LVTDXBL8H5DUUXS442EBDGD79LRA", "current_trial": 190, "dateTime": 1512572274041, "trialdata": {"rt": -1, "stimulus": "<p id=\"stim\">BEEF</p>", "key_press": -1, "type": "PRES_VIS", "word": "beef", "wordID": 112, "conditions": [24, 800, "v", 24000], "trial": 5, "serialpos": 5, "trial_type": "single-stim", "trial_index": 190, "time_elapsed": 903360, "internal_node_id": "0.0-136.0"}}, {"uniqueid": "MTK0625:31LVTDXBL8H5DUUXS442EBDGD79LRA", "current_trial": 191, "dateTime": 1512572275880, "trialdata": {"rt": -1, "stimulus": "<p id=\"stim\">EGYPT</p>", "key_press": -1, "type": "PRES_VIS", "word": "egypt", "wordID": 518, "conditions": [24, 800, "v", 24000], "trial": 5, "serialpos": 6, "trial_type": "single-stim", "trial_index": 191, "time_elapsed": 905198, "internal_node_id": "0.0-137.0"}}, {"uniqueid": "MTK0625:31LVTDXBL8H5DUUXS442EBDGD79LRA", "current_trial": 192, "dateTime": 1512572277686, "trialdata": {"rt": -1, "stimulus": "<p id=\"stim\">KNIFE</p>", "key_press": -1, "type": "PRES_VIS", "word": "knife", "wordID": 784, "conditions": [24, 800, "v", 24000], "trial": 5, "serialpos": 7, "trial_type": "single-stim", "trial_index": 192, "time_elapsed": 907005, "internal_node_id": "0.0-138.0"}}, {"uniqueid": "MTK0625:31LVTDXBL8H5DUUXS442EBDGD79LRA", "current_trial": 193, "dateTime": 1512572279632, "trialdata": {"rt": -1, "stimulus": "<p id=\"stim\">TART</p>", "key_press": -1, "type": "PRES_VIS", "word": "tart", "wordID": 1435, "conditions": [24, 800, "v", 24000], "trial": 5, "serialpos": 8, "trial_type": "single-stim", "trial_index": 193, "time_elapsed": 908951, "internal_node_id": "0.0-139.0"}}, {"uniqueid": "MTK0625:31LVTDXBL8H5DUUXS442EBDGD79LRA", "current_trial": 194, "dateTime": 1512572281249, "trialdata": {"rt": -1, "stimulus": "<p id=\"stim\">PLAID</p>", "key_press": -1, "type": "PRES_VIS", "word": "plaid", "wordID": 1079, "conditions": [24, 800, "v", 24000], "trial": 5, "serialpos": 9, "trial_type": "single-stim", "trial_index": 194, "time_elapsed": 910567, "internal_node_id": "0.0-140.0"}}, {"uniqueid": "MTK0625:31LVTDXBL8H5DUUXS442EBDGD79LRA", "current_trial": 195, "dateTime": 1512572283220, "trialdata": {"rt": -1, "stimulus": "<p id=\"stim\">TROUT</p>", "key_press": -1, "type": "PRES_VIS", "word": "trout", "wordID": 1510, "conditions": [24, 800, "v", 24000], "trial": 5, "serialpos": 10, "trial_type": "single-stim", "trial_index": 195, "time_elapsed": 912539, "internal_node_id": "0.0-141.0"}}, {"uniqueid": "MTK0625:31LVTDXBL8H5DUUXS442EBDGD79LRA", "current_trial": 196, "dateTime": 1512572284845, "trialdata": {"rt": -1, "stimulus": "<p id=\"stim\">MARINE</p>", "key_press": -1, "type": "PRES_VIS", "word": "marine", "wordID": 868, "conditions": [24, 800, "v", 24000], "trial": 5, "serialpos": 11, "trial_type": "single-stim", "trial_index": 196, "time_elapsed": 914163, "internal_node_id": "0.0-142.0"}}, {"uniqueid": "MTK0625:31LVTDXBL8H5DUUXS442EBDGD79LRA", "current_trial": 197, "dateTime": 1512572286612, "trialdata": {"rt": -1, "stimulus": "<p id=\"stim\">CHAUFFEUR</p>", "key_press": -1, "type": "PRES_VIS", "word": "chauffeur", "wordID": 282, "conditions": [24, 800, "v", 24000], "trial": 5, "serialpos": 12, "trial_type": "single-stim", "trial_index": 197, "time_elapsed": 915931, "internal_node_id": "0.0-143.0"}}, {"uniqueid": "MTK0625:31LVTDXBL8H5DUUXS442EBDGD79LRA", "current_trial": 198, "dateTime": 1512572288312, "trialdata": {"rt": -1, "stimulus": "<p id=\"stim\">FINGER</p>", "key_press": -1, "type": "PRES_VIS", "word": "finger", "wordID": 566, "conditions": [24, 800, "v", 24000], "trial": 5, "serialpos": 13, "trial_type": "single-stim", "trial_index": 198, "time_elapsed": 917631, "internal_node_id": "0.0-144.0"}}, {"uniqueid": "MTK0625:31LVTDXBL8H5DUUXS442EBDGD79LRA", "current_trial": 199, "dateTime": 1512572290094, "trialdata": {"rt": -1, "stimulus": "<p id=\"stim\">DANCER</p>", "key_press": -1, "type": "PRES_VIS", "word": "dancer", "wordID": 436, "conditions": [24, 800, "v", 24000], "trial": 5, "serialpos": 14, "trial_type": "single-stim", "trial_index": 199, "time_elapsed": 919413, "internal_node_id": "0.0-145.0"}}, {"uniqueid": "MTK0625:31LVTDXBL8H5DUUXS442EBDGD79LRA", "current_trial": 200, "dateTime": 1512572291977, "trialdata": {"rt": -1, "stimulus": "<p id=\"stim\">GYMNAST</p>", "key_press": -1, "type": "PRES_VIS", "word": "gymnast", "wordID": 674, "conditions": [24, 800, "v", 24000], "trial": 5, "serialpos": 15, "trial_type": "single-stim", "trial_index": 200, "time_elapsed": 921296, "internal_node_id": "0.0-146.0"}}, {"uniqueid": "MTK0625:31LVTDXBL8H5DUUXS442EBDGD79LRA", "current_trial": 201, "dateTime": 1512572293664, "trialdata": {"rt": -1, "stimulus": "<p id=\"stim\">SHIRT</p>", "key_press": -1, "type": "PRES_VIS", "word": "shirt", "wordID": 1286, "conditions": [24, 800, "v", 24000], "trial": 5, "serialpos": 16, "trial_type": "single-stim", "trial_index": 201, "time_elapsed": 922983, "internal_node_id": "0.0-147.0"}}, {"uniqueid": "MTK0625:31LVTDXBL8H5DUUXS442EBDGD79LRA", "current_trial": 202, "dateTime": 1512572295647, "trialdata": {"rt": -1, "stimulus": "<p id=\"stim\">PASSAGE</p>", "key_press": -1, "type": "PRES_VIS", "word": "passage", "wordID": 1018, "conditions": [24, 800, "v", 24000], "trial": 5, "serialpos": 17, "trial_type": "single-stim", "trial_index": 202, "time_elapsed": 924966, "internal_node_id": "0.0-148.0"}}, {"uniqueid": "MTK0625:31LVTDXBL8H5DUUXS442EBDGD79LRA", "current_trial": 203, "dateTime": 1512572297615, "trialdata": {"rt": -1, "stimulus": "<p id=\"stim\">WRIST</p>", "key_press": -1, "type": "PRES_VIS", "word": "wrist", "wordID": 1625, "conditions": [24, 800, "v", 24000], "trial": 5, "serialpos": 18, "trial_type": "single-stim", "trial_index": 203, "time_elapsed": 926933, "internal_node_id": "0.0-149.0"}}, {"uniqueid": "MTK0625:31LVTDXBL8H5DUUXS442EBDGD79LRA", "current_trial": 204, "dateTime": 1512572299291, "trialdata": {"rt": -1, "stimulus": "<p id=\"stim\">PLUTO</p>", "key_press": -1, "type": "PRES_VIS", "word": "pluto", "wordID": 1091, "conditions": [24, 800, "v", 24000], "trial": 5, "serialpos": 19, "trial_type": "single-stim", "trial_index": 204, "time_elapsed": 928609, "internal_node_id": "0.0-150.0"}}, {"uniqueid": "MTK0625:31LVTDXBL8H5DUUXS442EBDGD79LRA", "current_trial": 205, "dateTime": 1512572300898, "trialdata": {"rt": -1, "stimulus": "<p id=\"stim\">CARROT</p>", "key_press": -1, "type": "PRES_VIS", "word": "carrot", "wordID": 248, "conditions": [24, 800, "v", 24000], "trial": 5, "serialpos": 20, "trial_type": "single-stim", "trial_index": 205, "time_elapsed": 930217, "internal_node_id": "0.0-151.0"}}, {"uniqueid": "MTK0625:31LVTDXBL8H5DUUXS442EBDGD79LRA", "current_trial": 206, "dateTime": 1512572302703, "trialdata": {"rt": -1, "stimulus": "<p id=\"stim\">BUCKET</p>", "key_press": -1, "type": "PRES_VIS", "word": "bucket", "wordID": 183, "conditions": [24, 800, "v", 24000], "trial": 5, "serialpos": 21, "trial_type": "single-stim", "trial_index": 206, "time_elapsed": 932022, "internal_node_id": "0.0-152.0"}}, {"uniqueid": "MTK0625:31LVTDXBL8H5DUUXS442EBDGD79LRA", "current_trial": 207, "dateTime": 1512572304456, "trialdata": {"rt": -1, "stimulus": "<p id=\"stim\">FRAGRANCE</p>", "key_press": -1, "type": "PRES_VIS", "word": "fragrance", "wordID": 598, "conditions": [24, 800, "v", 24000], "trial": 5, "serialpos": 22, "trial_type": "single-stim", "trial_index": 207, "time_elapsed": 933774, "internal_node_id": "0.0-153.0"}}, {"uniqueid": "MTK0625:31LVTDXBL8H5DUUXS442EBDGD79LRA", "current_trial": 208, "dateTime": 1512572306420, "trialdata": {"rt": -1, "stimulus": "<p id=\"stim\">ACTRESS</p>", "key_press": -1, "type": "PRES_VIS", "word": "actress", "wordID": 5, "conditions": [24, 800, "v", 24000], "trial": 5, "serialpos": 23, "trial_type": "single-stim", "trial_index": 208, "time_elapsed": 935738, "internal_node_id": "0.0-154.0"}}, {"uniqueid": "MTK0625:31LVTDXBL8H5DUUXS442EBDGD79LRA", "current_trial": 209, "dateTime": 1512572308658, "trialdata": {"rt": -1, "stimulus": "", "key_press": -1, "type": "PRE_RECALL_DELAY", "trial_type": "single-stim", "trial_index": 209, "time_elapsed": 937977, "internal_node_id": "0.0-155.0-0.0"}}, {"uniqueid": "MTK0625:31LVTDXBL8H5DUUXS442EBDGD79LRA", "current_trial": 210, "dateTime": 1512572309159, "trialdata": {"rt": -1000, "stimulus": "/static/audio/400Hz.wav", "key_press": -1, "type": "PRE_RECALL_ALERT", "trial_type": "single-audio", "trial_index": 210, "time_elapsed": 938478, "internal_node_id": "0.0-156.0"}}, {"uniqueid": "MTK0625:31LVTDXBL8H5DUUXS442EBDGD79LRA", "current_trial": 211, "dateTime": 1512572369164, "trialdata": {"rt": [4682, 5505, 6857, 7913, 9066, 10150, 10722, 11537], "recwords": ["shirt", "dancer", "gymnast", "marine", "trout", "plaid", "tart", "knife"], "type": "FREE_RECALL", "conditions": [24, 800, "v", 24000], "trial": 5, "trial_type": "free-recall", "trial_index": 211, "time_elapsed": 998480, "internal_node_id": "0.0-157.0-0.0"}}, {"uniqueid": "MTK0625:31LVTDXBL8H5DUUXS442EBDGD79LRA", "current_trial": 212, "dateTime": 1512572374872, "trialdata": {"rt": 3707, "key_press": 13, "type": "INSTRUCTIONS", "trial_type": "text", "trial_index": 212, "time_elapsed": 1004191, "internal_node_id": "0.0-158.0"}}, {"uniqueid": "MTK0625:31LVTDXBL8H5DUUXS442EBDGD79LRA", "current_trial": 213, "dateTime": 1512572400875, "trialdata": {"rt": [2005, 3612, 5112, 6270, 7965, 9776, 11057, 12385, 15015, 17675, 19341, 20942], "responses": ["15", "8", "13", "5", "12", "15", "10", "15", "20", "20", "17", "12"], "num1": [3, 2, 4, 3, 3, 4, 3, 3, 9, 6, 2, 6, 8], "num2": [5, 4, 7, 1, 3, 7, 3, 7, 4, 8, 9, 3, 6], "num3": [7, 2, 2, 1, 6, 4, 4, 5, 7, 6, 6, 3, 7], "type": "DISTRACTOR", "conditions": [24, 1600, "v", 24000], "trial": 6, "trial_type": "math-distractor", "trial_index": 213, "time_elapsed": 1030193, "internal_node_id": "0.0-159.0"}}, {"uniqueid": "MTK0625:31LVTDXBL8H5DUUXS442EBDGD79LRA", "current_trial": 214, "dateTime": 1512572403877, "trialdata": {"rt": -1, "stimulus": "<p id=\"stim\">10</p>", "key_press": -1, "trial_type": "single-stim", "trial_index": 214, "time_elapsed": 1033196, "internal_node_id": "0.0-160.0-0.0"}}, {"uniqueid": "MTK0625:31LVTDXBL8H5DUUXS442EBDGD79LRA", "current_trial": 215, "dateTime": 1512572404877, "trialdata": {"rt": -1, "stimulus": "<p id=\"stim\">9</p>", "key_press": -1, "trial_type": "single-stim", "trial_index": 215, "time_elapsed": 1034196, "internal_node_id": "0.0-160.0-1.0"}}, {"uniqueid": "MTK0625:31LVTDXBL8H5DUUXS442EBDGD79LRA", "current_trial": 216, "dateTime": 1512572405878, "trialdata": {"rt": -1, "stimulus": "<p id=\"stim\">8</p>", "key_press": -1, "trial_type": "single-stim", "trial_index": 216, "time_elapsed": 1035197, "internal_node_id": "0.0-160.0-2.0"}}, {"uniqueid": "MTK0625:31LVTDXBL8H5DUUXS442EBDGD79LRA", "current_trial": 217, "dateTime": 1512572406880, "trialdata": {"rt": -1, "stimulus": "<p id=\"stim\">7</p>", "key_press": -1, "trial_type": "single-stim", "trial_index": 217, "time_elapsed": 1036198, "internal_node_id": "0.0-160.0-3.0"}}, {"uniqueid": "MTK0625:31LVTDXBL8H5DUUXS442EBDGD79LRA", "current_trial": 218, "dateTime": 1512572407880, "trialdata": {"rt": -1, "stimulus": "<p id=\"stim\">6</p>", "key_press": -1, "trial_type": "single-stim", "trial_index": 218, "time_elapsed": 1037199, "internal_node_id": "0.0-160.0-4.0"}}, {"uniqueid": "MTK0625:31LVTDXBL8H5DUUXS442EBDGD79LRA", "current_trial": 219, "dateTime": 1512572408882, "trialdata": {"rt": -1, "stimulus": "<p id=\"stim\">5</p>", "key_press": -1, "trial_type": "single-stim", "trial_index": 219, "time_elapsed": 1038200, "internal_node_id": "0.0-160.0-5.0"}}, {"uniqueid": "MTK0625:31LVTDXBL8H5DUUXS442EBDGD79LRA", "current_trial": 220, "dateTime": 1512572409884, "trialdata": {"rt": -1, "stimulus": "<p id=\"stim\">4</p>", "key_press": -1, "trial_type": "single-stim", "trial_index": 220, "time_elapsed": 1039202, "internal_node_id": "0.0-160.0-6.0"}}, {"uniqueid": "MTK0625:31LVTDXBL8H5DUUXS442EBDGD79LRA", "current_trial": 221, "dateTime": 1512572410885, "trialdata": {"rt": -1, "stimulus": "<p id=\"stim\">3</p>", "key_press": -1, "trial_type": "single-stim", "trial_index": 221, "time_elapsed": 1040204, "internal_node_id": "0.0-160.0-7.0"}}, {"uniqueid": "MTK0625:31LVTDXBL8H5DUUXS442EBDGD79LRA", "current_trial": 222, "dateTime": 1512572411886, "trialdata": {"rt": -1, "stimulus": "<p id=\"stim\">2</p>", "key_press": -1, "trial_type": "single-stim", "trial_index": 222, "time_elapsed": 1041205, "internal_node_id": "0.0-160.0-8.0"}}, {"uniqueid": "MTK0625:31LVTDXBL8H5DUUXS442EBDGD79LRA", "current_trial": 223, "dateTime": 1512572412887, "trialdata": {"rt": -1, "stimulus": "<p id=\"stim\">1</p>", "key_press": -1, "trial_type": "single-stim", "trial_index": 223, "time_elapsed": 1042205, "internal_node_id": "0.0-160.0-9.0"}}, {"uniqueid": "MTK0625:31LVTDXBL8H5DUUXS442EBDGD79LRA", "current_trial": 224, "dateTime": 1512572414388, "trialdata": {"rt": -1, "stimulus": "<p id=\"stim\">+</p>", "key_press": -1, "type": "FIXATION", "trial_type": "single-stim", "trial_index": 224, "time_elapsed": 1043707, "internal_node_id": "0.0-161.0-0.0"}}, {"uniqueid": "MTK0625:31LVTDXBL8H5DUUXS442EBDGD79LRA", "current_trial": 225, "dateTime": 1512572415990, "trialdata": {"rt": -1, "stimulus": "<p id=\"stim\">BEAST</p>", "key_press": -1, "type": "PRES_VIS", "word": "beast", "wordID": 107, "conditions": [24, 1600, "v", 24000], "trial": 6, "serialpos": 0, "trial_type": "single-stim", "trial_index": 225, "time_elapsed": 1045309, "internal_node_id": "0.0-162.0"}}, {"uniqueid": "MTK0625:31LVTDXBL8H5DUUXS442EBDGD79LRA", "current_trial": 226, "dateTime": 1512572418639, "trialdata": {"rt": -1, "stimulus": "<p id=\"stim\">SLUG</p>", "key_press": -1, "type": "PRES_VIS", "word": "slug", "wordID": 1328, "conditions": [24, 1600, "v", 24000], "trial": 6, "serialpos": 1, "trial_type": "single-stim", "trial_index": 226, "time_elapsed": 1047957, "internal_node_id": "0.0-163.0"}}, {"uniqueid": "MTK0625:31LVTDXBL8H5DUUXS442EBDGD79LRA", "current_trial": 227, "dateTime": 1512572421233, "trialdata": {"rt": -1, "stimulus": "<p id=\"stim\">BUG</p>", "key_press": -1, "type": "PRES_VIS", "word": "bug", "wordID": 186, "conditions": [24, 1600, "v", 24000], "trial": 6, "serialpos": 2, "trial_type": "single-stim", "trial_index": 227, "time_elapsed": 1050552, "internal_node_id": "0.0-164.0"}}, {"uniqueid": "MTK0625:31LVTDXBL8H5DUUXS442EBDGD79LRA", "current_trial": 228, "dateTime": 1512572423864, "trialdata": {"rt": -1, "stimulus": "<p id=\"stim\">JOURNAL</p>", "key_press": -1, "type": "PRES_VIS", "word": "journal", "wordID": 759, "conditions": [24, 1600, "v", 24000], "trial": 6, "serialpos": 3, "trial_type": "single-stim", "trial_index": 228, "time_elapsed": 1053183, "internal_node_id": "0.0-165.0"}}, {"uniqueid": "MTK0625:31LVTDXBL8H5DUUXS442EBDGD79LRA", "current_trial": 229, "dateTime": 1512572426591, "trialdata": {"rt": -1, "stimulus": "<p id=\"stim\">NOMAD</p>", "key_press": -1, "type": "PRES_VIS", "word": "nomad", "wordID": 954, "conditions": [24, 1600, "v", 24000], "trial": 6, "serialpos": 4, "trial_type": "single-stim", "trial_index": 229, "time_elapsed": 1055910, "internal_node_id": "0.0-166.0"}}, {"uniqueid": "MTK0625:31LVTDXBL8H5DUUXS442EBDGD79LRA", "current_trial": 230, "dateTime": 1512572429236, "trialdata": {"rt": -1, "stimulus": "<p id=\"stim\">SALAD</p>", "key_press": -1, "type": "PRES_VIS", "word": "salad", "wordID": 1223, "conditions": [24, 1600, "v", 24000], "trial": 6, "serialpos": 5, "trial_type": "single-stim", "trial_index": 230, "time_elapsed": 1058555, "internal_node_id": "0.0-167.0"}}, {"uniqueid": "MTK0625:31LVTDXBL8H5DUUXS442EBDGD79LRA", "current_trial": 231, "dateTime": 1512572432004, "trialdata": {"rt": -1, "stimulus": "<p id=\"stim\">AUTHOR</p>", "key_press": -1, "type": "PRES_VIS", "word": "author", "wordID": 60, "conditions": [24, 1600, "v", 24000], "trial": 6, "serialpos": 6, "trial_type": "single-stim", "trial_index": 231, "time_elapsed": 1061323, "internal_node_id": "0.0-168.0"}}, {"uniqueid": "MTK0625:31LVTDXBL8H5DUUXS442EBDGD79LRA", "current_trial": 232, "dateTime": 1512572434578, "trialdata": {"rt": -1, "stimulus": "<p id=\"stim\">POCKET</p>", "key_press": -1, "type": "PRES_VIS", "word": "pocket", "wordID": 1092, "conditions": [24, 1600, "v", 24000], "trial": 6, "serialpos": 7, "trial_type": "single-stim", "trial_index": 232, "time_elapsed": 1063897, "internal_node_id": "0.0-169.0"}}, {"uniqueid": "MTK0625:31LVTDXBL8H5DUUXS442EBDGD79LRA", "current_trial": 233, "dateTime": 1512572436982, "trialdata": {"rt": -1, "stimulus": "<p id=\"stim\">SCOTCH</p>", "key_press": -1, "type": "PRES_VIS", "word": "scotch", "wordID": 1250, "conditions": [24, 1600, "v", 24000], "trial": 6, "serialpos": 8, "trial_type": "single-stim", "trial_index": 233, "time_elapsed": 1066301, "internal_node_id": "0.0-170.0"}}, {"uniqueid": "MTK0625:31LVTDXBL8H5DUUXS442EBDGD79LRA", "current_trial": 234, "dateTime": 1512572439605, "trialdata": {"rt": -1, "stimulus": "<p id=\"stim\">BRANDY</p>", "key_press": -1, "type": "PRES_VIS", "word": "brandy", "wordID": 168, "conditions": [24, 1600, "v", 24000], "trial": 6, "serialpos": 9, "trial_type": "single-stim", "trial_index": 234, "time_elapsed": 1068923, "internal_node_id": "0.0-171.0"}}, {"uniqueid": "MTK0625:31LVTDXBL8H5DUUXS442EBDGD79LRA", "current_trial": 235, "dateTime": 1512572442173, "trialdata": {"rt": -1, "stimulus": "<p id=\"stim\">MONSTER</p>", "key_press": -1, "type": "PRES_VIS", "word": "monster", "wordID": 911, "conditions": [24, 1600, "v", 24000], "trial": 6, "serialpos": 10, "trial_type": "single-stim", "trial_index": 235, "time_elapsed": 1071491, "internal_node_id": "0.0-172.0"}}, {"uniqueid": "MTK0625:31LVTDXBL8H5DUUXS442EBDGD79LRA", "current_trial": 236, "dateTime": 1512572444624, "trialdata": {"rt": -1, "stimulus": "<p id=\"stim\">ITEM</p>", "key_press": -1, "type": "PRES_VIS", "word": "item", "wordID": 745, "conditions": [24, 1600, "v", 24000], "trial": 6, "serialpos": 11, "trial_type": "single-stim", "trial_index": 236, "time_elapsed": 1073943, "internal_node_id": "0.0-173.0"}}, {"uniqueid": "MTK0625:31LVTDXBL8H5DUUXS442EBDGD79LRA", "current_trial": 237, "dateTime": 1512572447411, "trialdata": {"rt": -1, "stimulus": "<p id=\"stim\">OZONE</p>", "key_press": -1, "type": "PRES_VIS", "word": "ozone", "wordID": 995, "conditions": [24, 1600, "v", 24000], "trial": 6, "serialpos": 12, "trial_type": "single-stim", "trial_index": 237, "time_elapsed": 1076729, "internal_node_id": "0.0-174.0"}}, {"uniqueid": "MTK0625:31LVTDXBL8H5DUUXS442EBDGD79LRA", "current_trial": 238, "dateTime": 1512572450079, "trialdata": {"rt": -1, "stimulus": "<p id=\"stim\">SMOG</p>", "key_press": -1, "type": "PRES_VIS", "word": "smog", "wordID": 1329, "conditions": [24, 1600, "v", 24000], "trial": 6, "serialpos": 13, "trial_type": "single-stim", "trial_index": 238, "time_elapsed": 1079398, "internal_node_id": "0.0-175.0"}}, {"uniqueid": "MTK0625:31LVTDXBL8H5DUUXS442EBDGD79LRA", "current_trial": 239, "dateTime": 1512572452825, "trialdata": {"rt": -1, "stimulus": "<p id=\"stim\">RIVER</p>", "key_press": -1, "type": "PRES_VIS", "word": "river", "wordID": 1193, "conditions": [24, 1600, "v", 24000], "trial": 6, "serialpos": 14, "trial_type": "single-stim", "trial_index": 239, "time_elapsed": 1082144, "internal_node_id": "0.0-176.0"}}, {"uniqueid": "MTK0625:31LVTDXBL8H5DUUXS442EBDGD79LRA", "current_trial": 240, "dateTime": 1512572455617, "trialdata": {"rt": -1, "stimulus": "<p id=\"stim\">TUBA</p>", "key_press": -1, "type": "PRES_VIS", "word": "tuba", "wordID": 1514, "conditions": [24, 1600, "v", 24000], "trial": 6, "serialpos": 15, "trial_type": "single-stim", "trial_index": 240, "time_elapsed": 1084936, "internal_node_id": "0.0-177.0"}}, {"uniqueid": "MTK0625:31LVTDXBL8H5DUUXS442EBDGD79LRA", "current_trial": 241, "dateTime": 1512572458316, "trialdata": {"rt": -1, "stimulus": "<p id=\"stim\">SAUSAGE</p>", "key_press": -1, "type": "PRES_VIS", "word": "sausage", "wordID": 1237, "conditions": [24, 1600, "v", 24000], "trial": 6, "serialpos": 16, "trial_type": "single-stim", "trial_index": 241, "time_elapsed": 1087635, "internal_node_id": "0.0-178.0"}}, {"uniqueid": "MTK0625:31LVTDXBL8H5DUUXS442EBDGD79LRA", "current_trial": 242, "dateTime": 1512572460921, "trialdata": {"rt": -1, "stimulus": "<p id=\"stim\">ULCER</p>", "key_press": -1, "type": "PRES_VIS", "word": "ulcer", "wordID": 1532, "conditions": [24, 1600, "v", 24000], "trial": 6, "serialpos": 17, "trial_type": "single-stim", "trial_index": 242, "time_elapsed": 1090239, "internal_node_id": "0.0-179.0"}}, {"uniqueid": "MTK0625:31LVTDXBL8H5DUUXS442EBDGD79LRA", "current_trial": 243, "dateTime": 1512572463434, "trialdata": {"rt": -1, "stimulus": "<p id=\"stim\">PATIENT</p>", "key_press": -1, "type": "PRES_VIS", "word": "patient", "wordID": 1023, "conditions": [24, 1600, "v", 24000], "trial": 6, "serialpos": 18, "trial_type": "single-stim", "trial_index": 243, "time_elapsed": 1092752, "internal_node_id": "0.0-180.0"}}, {"uniqueid": "MTK0625:31LVTDXBL8H5DUUXS442EBDGD79LRA", "current_trial": 244, "dateTime": 1512572465903, "trialdata": {"rt": -1, "stimulus": "<p id=\"stim\">STUDENT</p>", "key_press": -1, "type": "PRES_VIS", "word": "student", "wordID": 1394, "conditions": [24, 1600, "v", 24000], "trial": 6, "serialpos": 19, "trial_type": "single-stim", "trial_index": 244, "time_elapsed": 1095222, "internal_node_id": "0.0-181.0"}}, {"uniqueid": "MTK0625:31LVTDXBL8H5DUUXS442EBDGD79LRA", "current_trial": 245, "dateTime": 1512572468680, "trialdata": {"rt": -1, "stimulus": "<p id=\"stim\">SODA</p>", "key_press": -1, "type": "PRES_VIS", "word": "soda", "wordID": 1340, "conditions": [24, 1600, "v", 24000], "trial": 6, "serialpos": 20, "trial_type": "single-stim", "trial_index": 245, "time_elapsed": 1097999, "internal_node_id": "0.0-182.0"}}, {"uniqueid": "MTK0625:31LVTDXBL8H5DUUXS442EBDGD79LRA", "current_trial": 246, "dateTime": 1512572471439, "trialdata": {"rt": -1, "stimulus": "<p id=\"stim\">WASHER</p>", "key_press": -1, "type": "PRES_VIS", "word": "washer", "wordID": 1591, "conditions": [24, 1600, "v", 24000], "trial": 6, "serialpos": 21, "trial_type": "single-stim", "trial_index": 246, "time_elapsed": 1100758, "internal_node_id": "0.0-183.0"}}, {"uniqueid": "MTK0625:31LVTDXBL8H5DUUXS442EBDGD79LRA", "current_trial": 247, "dateTime": 1512572474043, "trialdata": {"rt": -1, "stimulus": "<p id=\"stim\">CANAL</p>", "key_press": -1, "type": "PRES_VIS", "word": "canal", "wordID": 225, "conditions": [24, 1600, "v", 24000], "trial": 6, "serialpos": 22, "trial_type": "single-stim", "trial_index": 247, "time_elapsed": 1103362, "internal_node_id": "0.0-184.0"}}, {"uniqueid": "MTK0625:31LVTDXBL8H5DUUXS442EBDGD79LRA", "current_trial": 248, "dateTime": 1512572476737, "trialdata": {"rt": -1, "stimulus": "<p id=\"stim\">GAVEL</p>", "key_press": -1, "type": "PRES_VIS", "word": "gavel", "wordID": 626, "conditions": [24, 1600, "v", 24000], "trial": 6, "serialpos": 23, "trial_type": "single-stim", "trial_index": 248, "time_elapsed": 1106056, "internal_node_id": "0.0-185.0"}}, {"uniqueid": "MTK0625:31LVTDXBL8H5DUUXS442EBDGD79LRA", "current_trial": 249, "dateTime": 1512572478812, "trialdata": {"rt": -1, "stimulus": "", "key_press": -1, "type": "PRE_RECALL_DELAY", "trial_type": "single-stim", "trial_index": 249, "time_elapsed": 1108130, "internal_node_id": "0.0-186.0-0.0"}}, {"uniqueid": "MTK0625:31LVTDXBL8H5DUUXS442EBDGD79LRA", "current_trial": 250, "dateTime": 1512572479313, "trialdata": {"rt": -1000, "stimulus": "/static/audio/400Hz.wav", "key_press": -1, "type": "PRE_RECALL_ALERT", "trial_type": "single-audio", "trial_index": 250, "time_elapsed": 1108632, "internal_node_id": "0.0-187.0"}}, {"uniqueid": "MTK0625:31LVTDXBL8H5DUUXS442EBDGD79LRA", "current_trial": 251, "dateTime": 1512572539318, "trialdata": {"rt": [3709, 4596, 5647, 6506, 7497, 8117, 8842], "recwords": ["scotch", "brandy", "sausage", "monster", "salad", "author", "nomad"], "type": "FREE_RECALL", "conditions": [24, 1600, "v", 24000], "trial": 6, "trial_type": "free-recall", "trial_index": 251, "time_elapsed": 1168634, "internal_node_id": "0.0-188.0-0.0"}}, {"uniqueid": "MTK0625:31LVTDXBL8H5DUUXS442EBDGD79LRA", "current_trial": 252, "dateTime": 1512572543018, "trialdata": {"rt": 1698, "key_press": 13, "type": "INSTRUCTIONS", "trial_type": "text", "trial_index": 252, "time_elapsed": 1172337, "internal_node_id": "0.0-189.0"}}, {"uniqueid": "MTK0625:31LVTDXBL8H5DUUXS442EBDGD79LRA", "current_trial": 253, "dateTime": 1512572557022, "trialdata": {"rt": [2123, 4128, 6211, 8984, 10355], "responses": ["16", "17", "14", "16", "11"], "num1": [4, 9, 6, 3, 5, 8], "num2": [4, 5, 2, 4, 1, 6], "num3": [8, 3, 6, 9, 5, 4], "type": "DISTRACTOR", "conditions": [24, 800, "a", 12000], "trial": 7, "trial_type": "math-distractor", "trial_index": 253, "time_elapsed": 1186341, "internal_node_id": "0.0-190.0"}}, {"uniqueid": "MTK0625:31LVTDXBL8H5DUUXS442EBDGD79LRA", "current_trial": 254, "dateTime": 1512572560024, "trialdata": {"rt": -1, "stimulus": "<p id=\"stim\">10</p>", "key_press": -1, "trial_type": "single-stim", "trial_index": 254, "time_elapsed": 1189342, "internal_node_id": "0.0-191.0-0.0"}}, {"uniqueid": "MTK0625:31LVTDXBL8H5DUUXS442EBDGD79LRA", "current_trial": 255, "dateTime": 1512572561025, "trialdata": {"rt": -1, "stimulus": "<p id=\"stim\">9</p>", "key_press": -1, "trial_type": "single-stim", "trial_index": 255, "time_elapsed": 1190344, "internal_node_id": "0.0-191.0-1.0"}}, {"uniqueid": "MTK0625:31LVTDXBL8H5DUUXS442EBDGD79LRA", "current_trial": 256, "dateTime": 1512572562026, "trialdata": {"rt": -1, "stimulus": "<p id=\"stim\">8</p>", "key_press": -1, "trial_type": "single-stim", "trial_index": 256, "time_elapsed": 1191345, "internal_node_id": "0.0-191.0-2.0"}}, {"uniqueid": "MTK0625:31LVTDXBL8H5DUUXS442EBDGD79LRA", "current_trial": 257, "dateTime": 1512572563027, "trialdata": {"rt": -1, "stimulus": "<p id=\"stim\">7</p>", "key_press": -1, "trial_type": "single-stim", "trial_index": 257, "time_elapsed": 1192346, "internal_node_id": "0.0-191.0-3.0"}}, {"uniqueid": "MTK0625:31LVTDXBL8H5DUUXS442EBDGD79LRA", "current_trial": 258, "dateTime": 1512572564028, "trialdata": {"rt": -1, "stimulus": "<p id=\"stim\">6</p>", "key_press": -1, "trial_type": "single-stim", "trial_index": 258, "time_elapsed": 1193347, "internal_node_id": "0.0-191.0-4.0"}}, {"uniqueid": "MTK0625:31LVTDXBL8H5DUUXS442EBDGD79LRA", "current_trial": 259, "dateTime": 1512572565029, "trialdata": {"rt": -1, "stimulus": "<p id=\"stim\">5</p>", "key_press": -1, "trial_type": "single-stim", "trial_index": 259, "time_elapsed": 1194348, "internal_node_id": "0.0-191.0-5.0"}}, {"uniqueid": "MTK0625:31LVTDXBL8H5DUUXS442EBDGD79LRA", "current_trial": 260, "dateTime": 1512572566031, "trialdata": {"rt": -1, "stimulus": "<p id=\"stim\">4</p>", "key_press": -1, "trial_type": "single-stim", "trial_index": 260, "time_elapsed": 1195350, "internal_node_id": "0.0-191.0-6.0"}}, {"uniqueid": "MTK0625:31LVTDXBL8H5DUUXS442EBDGD79LRA", "current_trial": 261, "dateTime": 1512572567034, "trialdata": {"rt": -1, "stimulus": "<p id=\"stim\">3</p>", "key_press": -1, "trial_type": "single-stim", "trial_index": 261, "time_elapsed": 1196352, "internal_node_id": "0.0-191.0-7.0"}}, {"uniqueid": "MTK0625:31LVTDXBL8H5DUUXS442EBDGD79LRA", "current_trial": 262, "dateTime": 1512572568035, "trialdata": {"rt": -1, "stimulus": "<p id=\"stim\">2</p>", "key_press": -1, "trial_type": "single-stim", "trial_index": 262, "time_elapsed": 1197354, "internal_node_id": "0.0-191.0-8.0"}}, {"uniqueid": "MTK0625:31LVTDXBL8H5DUUXS442EBDGD79LRA", "current_trial": 263, "dateTime": 1512572569036, "trialdata": {"rt": -1, "stimulus": "<p id=\"stim\">1</p>", "key_press": -1, "trial_type": "single-stim", "trial_index": 263, "time_elapsed": 1198355, "internal_node_id": "0.0-191.0-9.0"}}, {"uniqueid": "MTK0625:31LVTDXBL8H5DUUXS442EBDGD79LRA", "current_trial": 264, "dateTime": 1512572570538, "trialdata": {"rt": -1, "stimulus": "<p id=\"stim\">+</p>", "key_press": -1, "type": "FIXATION", "trial_type": "single-stim", "trial_index": 264, "time_elapsed": 1199857, "internal_node_id": "0.0-192.0-0.0"}}, {"uniqueid": "MTK0625:31LVTDXBL8H5DUUXS442EBDGD79LRA", "current_trial": 265, "dateTime": 1512572572523, "trialdata": {"rt": -1000, "stimulus": "/static/audio/wordpool/ANTLER.wav", "key_press": -1, "type": "PRES_AUD", "word": "antler", "wordID": 28, "conditions": [24, 800, "a", 12000], "trial": 7, "serialpos": 0, "trial_type": "single-audio", "trial_index": 265, "time_elapsed": 1201842, "internal_node_id": "0.0-193.0"}}, {"uniqueid": "MTK0625:31LVTDXBL8H5DUUXS442EBDGD79LRA", "current_trial": 266, "dateTime": 1512572574517, "trialdata": {"rt": -1000, "stimulus": "/static/audio/wordpool/SPOON.wav", "key_press": -1, "type": "PRES_AUD", "word": "spoon", "wordID": 1356, "conditions": [24, 800, "a", 12000], "trial": 7, "serialpos": 1, "trial_type": "single-audio", "trial_index": 266, "time_elapsed": 1203836, "internal_node_id": "0.0-194.0"}}, {"uniqueid": "MTK0625:31LVTDXBL8H5DUUXS442EBDGD79LRA", "current_trial": 267, "dateTime": 1512572576386, "trialdata": {"rt": -1000, "stimulus": "/static/audio/wordpool/DENTIST.wav", "key_press": -1, "type": "PRES_AUD", "word": "dentist", "wordID": 446, "conditions": [24, 800, "a", 12000], "trial": 7, "serialpos": 2, "trial_type": "single-audio", "trial_index": 267, "time_elapsed": 1205704, "internal_node_id": "0.0-195.0"}}, {"uniqueid": "MTK0625:31LVTDXBL8H5DUUXS442EBDGD79LRA", "current_trial": 268, "dateTime": 1512572577991, "trialdata": {"rt": -1000, "stimulus": "/static/audio/wordpool/DRESS.wav", "key_press": -1, "type": "PRES_AUD", "word": "dress", "wordID": 494, "conditions": [24, 800, "a", 12000], "trial": 7, "serialpos": 3, "trial_type": "single-audio", "trial_index": 268, "time_elapsed": 1207310, "internal_node_id": "0.0-196.0"}}, {"uniqueid": "MTK0625:31LVTDXBL8H5DUUXS442EBDGD79LRA", "current_trial": 269, "dateTime": 1512572579850, "trialdata": {"rt": -1000, "stimulus": "/static/audio/wordpool/LIPSTICK.wav", "key_press": -1, "type": "PRES_AUD", "word": "lipstick", "wordID": 828, "conditions": [24, 800, "a", 12000], "trial": 7, "serialpos": 4, "trial_type": "single-audio", "trial_index": 269, "time_elapsed": 1209169, "internal_node_id": "0.0-197.0"}}, {"uniqueid": "MTK0625:31LVTDXBL8H5DUUXS442EBDGD79LRA", "current_trial": 270, "dateTime": 1512572581843, "trialdata": {"rt": -100