{"condition": 0, "counterbalance": 218, "assignmentId": "3G5W44VEU8P34Y31RTYP07MUJFYGK6", "workerId": "MTK0112", "hitId": "3FSEU3P2NR7ET8RG7MWWB3QV3XIRRV", "currenttrial": 625, "bonus": 0, "data": [{"uniqueid": "MTK0112:3G5W44VEU8P34Y31RTYP07MUJFYGK6", "current_trial": 0, "dateTime": 1509161690783, "trialdata": {"rt": 3149, "key_press": 32, "type": "INSTRUCTIONS", "trial_type": "text", "trial_index": 0, "time_elapsed": 3156, "internal_node_id": "0.0-0.0"}}, {"uniqueid": "MTK0112:3G5W44VEU8P34Y31RTYP07MUJFYGK6", "current_trial": 1, "dateTime": 1509161713099, "trialdata": {"rt": 22312, "key_press": 32, "type": "INSTRUCTIONS", "trial_type": "text", "trial_index": 1, "time_elapsed": 25473, "internal_node_id": "0.0-1.0"}}, {"uniqueid": "MTK0112:3G5W44VEU8P34Y31RTYP07MUJFYGK6", "current_trial": 2, "dateTime": 1509161879165, "trialdata": {"rt": [166044], "responses": ["ocean"], "type": "AUDIO_TEST", "trial_type": "audio-test", "trial_index": 2, "time_elapsed": 191540, "internal_node_id": "0.0-2.0"}}, {"uniqueid": "MTK0112:3G5W44VEU8P34Y31RTYP07MUJFYGK6", "current_trial": 3, "dateTime": 1509161887951, "trialdata": {"rt": [8774], "responses": ["crystal"], "type": "AUDIO_TEST", "trial_type": "audio-test", "trial_index": 3, "time_elapsed": 200325, "internal_node_id": "0.0-3.0"}}, {"uniqueid": "MTK0112:3G5W44VEU8P34Y31RTYP07MUJFYGK6", "current_trial": 4, "dateTime": 1509162018527, "trialdata": {"rt": [130564], "responses": ["spice"], "type": "AUDIO_TEST", "trial_type": "audio-test", "trial_index": 4, "time_elapsed": 330902, "internal_node_id": "0.0-4.0"}}, {"uniqueid": "MTK0112:3G5W44VEU8P34Y31RTYP07MUJFYGK6", "current_trial": 5, "dateTime": 1509162024544, "trialdata": {"rt": 5247, "key_press": 13, "type": "INSTRUCTIONS", "trial_type": "text", "trial_index": 5, "time_elapsed": 336919, "internal_node_id": "0.0-5.0"}}, {"uniqueid": "MTK0112:3G5W44VEU8P34Y31RTYP07MUJFYGK6", "current_trial": 6, "dateTime": 1509162092135, "trialdata": {"rt": 67589, "key_press": 32, "type": "INSTRUCTIONS", "trial_type": "text", "trial_index": 6, "time_elapsed": 404509, "internal_node_id": "0.0-6.0"}}, {"uniqueid": "MTK0112:3G5W44VEU8P34Y31RTYP07MUJFYGK6", "current_trial": 7, "dateTime": 1509162117702, "trialdata": {"rt": 25565, "key_press": 32, "type": "INSTRUCTIONS", "trial_type": "text", "trial_index": 7, "time_elapsed": 430076, "internal_node_id": "0.0-7.0"}}, {"uniqueid": "MTK0112:3G5W44VEU8P34Y31RTYP07MUJFYGK6", "current_trial": 8, "dateTime": 1509162134247, "trialdata": {"rt": 16543, "key_press": 32, "type": "INSTRUCTIONS", "trial_type": "text", "trial_index": 8, "time_elapsed": 446622, "internal_node_id": "0.0-8.0"}}, {"uniqueid": "MTK0112:3G5W44VEU8P34Y31RTYP07MUJFYGK6", "current_trial": 9, "dateTime": 1509162153261, "trialdata": {"rt": [1919, 4078, 6420, 10419, 13825, 15715, 17436], "responses": ["11", "16", "13", "18", "13", "13", "19"], "num1": [3, 7, 2, 2, 4, 1, 8, 5], "num2": [7, 4, 5, 7, 1, 8, 4, 7], "num3": [1, 5, 6, 9, 8, 4, 7, 3], "type": "DISTRACTOR", "conditions": [18, 1200, "v", 18000], "trial": 0, "trial_type": "math-distractor", "trial_index": 9, "time_elapsed": 465636, "internal_node_id": "0.0-9.0"}}, {"uniqueid": "MTK0112:3G5W44VEU8P34Y31RTYP07MUJFYGK6", "current_trial": 10, "dateTime": 1509162156294, "trialdata": {"rt": -1, "stimulus": "<p id=\"stim\">10</p>", "key_press": -1, "trial_type": "single-stim", "trial_index": 10, "time_elapsed": 468669, "internal_node_id": "0.0-10.0-0.0"}}, {"uniqueid": "MTK0112:3G5W44VEU8P34Y31RTYP07MUJFYGK6", "current_trial": 11, "dateTime": 1509162157343, "trialdata": {"rt": -1, "stimulus": "<p id=\"stim\">9</p>", "key_press": -1, "trial_type": "single-stim", "trial_index": 11, "time_elapsed": 469717, "internal_node_id": "0.0-10.0-1.0"}}, {"uniqueid": "MTK0112:3G5W44VEU8P34Y31RTYP07MUJFYGK6", "current_trial": 12, "dateTime": 1509162158369, "trialdata": {"rt": -1, "stimulus": "<p id=\"stim\">8</p>", "key_press": -1, "trial_type": "single-stim", "trial_index": 12, "time_elapsed": 470744, "internal_node_id": "0.0-10.0-2.0"}}, {"uniqueid": "MTK0112:3G5W44VEU8P34Y31RTYP07MUJFYGK6", "current_trial": 13, "dateTime": 1509162159392, "trialdata": {"rt": -1, "stimulus": "<p id=\"stim\">7</p>", "key_press": -1, "trial_type": "single-stim", "trial_index": 13, "time_elapsed": 471766, "internal_node_id": "0.0-10.0-3.0"}}, {"uniqueid": "MTK0112:3G5W44VEU8P34Y31RTYP07MUJFYGK6", "current_trial": 14, "dateTime": 1509162160418, "trialdata": {"rt": -1, "stimulus": "<p id=\"stim\">6</p>", "key_press": -1, "trial_type": "single-stim", "trial_index": 14, "time_elapsed": 472793, "internal_node_id": "0.0-10.0-4.0"}}, {"uniqueid": "MTK0112:3G5W44VEU8P34Y31RTYP07MUJFYGK6", "current_trial": 15, "dateTime": 1509162161429, "trialdata": {"rt": -1, "stimulus": "<p id=\"stim\">5</p>", "key_press": -1, "trial_type": "single-stim", "trial_index": 15, "time_elapsed": 473804, "internal_node_id": "0.0-10.0-5.0"}}, {"uniqueid": "MTK0112:3G5W44VEU8P34Y31RTYP07MUJFYGK6", "current_trial": 16, "dateTime": 1509162162452, "trialdata": {"rt": -1, "stimulus": "<p id=\"stim\">4</p>", "key_press": -1, "trial_type": "single-stim", "trial_index": 16, "time_elapsed": 474826, "internal_node_id": "0.0-10.0-6.0"}}, {"uniqueid": "MTK0112:3G5W44VEU8P34Y31RTYP07MUJFYGK6", "current_trial": 17, "dateTime": 1509162163483, "trialdata": {"rt": -1, "stimulus": "<p id=\"stim\">3</p>", "key_press": -1, "trial_type": "single-stim", "trial_index": 17, "time_elapsed": 475858, "internal_node_id": "0.0-10.0-7.0"}}, {"uniqueid": "MTK0112:3G5W44VEU8P34Y31RTYP07MUJFYGK6", "current_trial": 18, "dateTime": 1509162164505, "trialdata": {"rt": -1, "stimulus": "<p id=\"stim\">2</p>", "key_press": -1, "trial_type": "single-stim", "trial_index": 18, "time_elapsed": 476880, "internal_node_id": "0.0-10.0-8.0"}}, {"uniqueid": "MTK0112:3G5W44VEU8P34Y31RTYP07MUJFYGK6", "current_trial": 19, "dateTime": 1509162165506, "trialdata": {"rt": -1, "stimulus": "<p id=\"stim\">1</p>", "key_press": -1, "trial_type": "single-stim", "trial_index": 19, "time_elapsed": 477881, "internal_node_id": "0.0-10.0-9.0"}}, {"uniqueid": "MTK0112:3G5W44VEU8P34Y31RTYP07MUJFYGK6", "current_trial": 20, "dateTime": 1509162167013, "trialdata": {"rt": -1, "stimulus": "<p id=\"stim\">+</p>", "key_press": -1, "type": "FIXATION", "trial_type": "single-stim", "trial_index": 20, "time_elapsed": 479388, "internal_node_id": "0.0-11.0-0.0"}}, {"uniqueid": "MTK0112:3G5W44VEU8P34Y31RTYP07MUJFYGK6", "current_trial": 21, "dateTime": 1509162168235, "trialdata": {"rt": -1, "stimulus": "<p id=\"stim\">FUNGUS</p>", "key_press": -1, "type": "PRES_VIS", "word": "fungus", "wordID": 613, "conditions": [18, 1200, "v", 18000], "trial": 0, "serialpos": 0, "trial_type": "single-stim", "trial_index": 21, "time_elapsed": 480609, "internal_node_id": "0.0-12.0"}}, {"uniqueid": "MTK0112:3G5W44VEU8P34Y31RTYP07MUJFYGK6", "current_trial": 22, "dateTime": 1509162170675, "trialdata": {"rt": -1, "stimulus": "<p id=\"stim\">TRENCH</p>", "key_press": -1, "type": "PRES_VIS", "word": "trench", "wordID": 1502, "conditions": [18, 1200, "v", 18000], "trial": 0, "serialpos": 1, "trial_type": "single-stim", "trial_index": 22, "time_elapsed": 483050, "internal_node_id": "0.0-13.0"}}, {"uniqueid": "MTK0112:3G5W44VEU8P34Y31RTYP07MUJFYGK6", "current_trial": 23, "dateTime": 1509162173054, "trialdata": {"rt": -1, "stimulus": "<p id=\"stim\">COLLEGE</p>", "key_press": -1, "type": "PRES_VIS", "word": "college", "wordID": 345, "conditions": [18, 1200, "v", 18000], "trial": 0, "serialpos": 2, "trial_type": "single-stim", "trial_index": 23, "time_elapsed": 485428, "internal_node_id": "0.0-14.0"}}, {"uniqueid": "MTK0112:3G5W44VEU8P34Y31RTYP07MUJFYGK6", "current_trial": 24, "dateTime": 1509162175380, "trialdata": {"rt": -1, "stimulus": "<p id=\"stim\">NOVEL</p>", "key_press": -1, "type": "PRES_VIS", "word": "novel", "wordID": 959, "conditions": [18, 1200, "v", 18000], "trial": 0, "serialpos": 3, "trial_type": "single-stim", "trial_index": 24, "time_elapsed": 487755, "internal_node_id": "0.0-15.0"}}, {"uniqueid": "MTK0112:3G5W44VEU8P34Y31RTYP07MUJFYGK6", "current_trial": 25, "dateTime": 1509162177700, "trialdata": {"rt": -1, "stimulus": "<p id=\"stim\">TILE</p>", "key_press": -1, "type": "PRES_VIS", "word": "tile", "wordID": 1467, "conditions": [18, 1200, "v", 18000], "trial": 0, "serialpos": 4, "trial_type": "single-stim", "trial_index": 25, "time_elapsed": 490075, "internal_node_id": "0.0-16.0"}}, {"uniqueid": "MTK0112:3G5W44VEU8P34Y31RTYP07MUJFYGK6", "current_trial": 26, "dateTime": 1509162179751, "trialdata": {"rt": -1, "stimulus": "<p id=\"stim\">DUSTPAN</p>", "key_press": -1, "type": "PRES_VIS", "word": "dustpan", "wordID": 508, "conditions": [18, 1200, "v", 18000], "trial": 0, "serialpos": 5, "trial_type": "single-stim", "trial_index": 26, "time_elapsed": 492126, "internal_node_id": "0.0-17.0"}}, {"uniqueid": "MTK0112:3G5W44VEU8P34Y31RTYP07MUJFYGK6", "current_trial": 27, "dateTime": 1509162182087, "trialdata": {"rt": -1, "stimulus": "<p id=\"stim\">SWORD</p>", "key_press": -1, "type": "PRES_VIS", "word": "sword", "wordID": 1422, "conditions": [18, 1200, "v", 18000], "trial": 0, "serialpos": 6, "trial_type": "single-stim", "trial_index": 27, "time_elapsed": 494461, "internal_node_id": "0.0-18.0"}}, {"uniqueid": "MTK0112:3G5W44VEU8P34Y31RTYP07MUJFYGK6", "current_trial": 28, "dateTime": 1509162184420, "trialdata": {"rt": -1, "stimulus": "<p id=\"stim\">SLIME</p>", "key_press": -1, "type": "PRES_VIS", "word": "slime", "wordID": 1326, "conditions": [18, 1200, "v", 18000], "trial": 0, "serialpos": 7, "trial_type": "single-stim", "trial_index": 28, "time_elapsed": 496794, "internal_node_id": "0.0-19.0"}}, {"uniqueid": "MTK0112:3G5W44VEU8P34Y31RTYP07MUJFYGK6", "current_trial": 29, "dateTime": 1509162186761, "trialdata": {"rt": -1, "stimulus": "<p id=\"stim\">NECKLACE</p>", "key_press": -1, "type": "PRES_VIS", "word": "necklace", "wordID": 939, "conditions": [18, 1200, "v", 18000], "trial": 0, "serialpos": 8, "trial_type": "single-stim", "trial_index": 29, "time_elapsed": 499136, "internal_node_id": "0.0-20.0"}}, {"uniqueid": "MTK0112:3G5W44VEU8P34Y31RTYP07MUJFYGK6", "current_trial": 30, "dateTime": 1509162189021, "trialdata": {"rt": -1, "stimulus": "<p id=\"stim\">LETTUCE</p>", "key_press": -1, "type": "PRES_VIS", "word": "lettuce", "wordID": 813, "conditions": [18, 1200, "v", 18000], "trial": 0, "serialpos": 9, "trial_type": "single-stim", "trial_index": 30, "time_elapsed": 501395, "internal_node_id": "0.0-21.0"}}, {"uniqueid": "MTK0112:3G5W44VEU8P34Y31RTYP07MUJFYGK6", "current_trial": 31, "dateTime": 1509162191374, "trialdata": {"rt": -1, "stimulus": "<p id=\"stim\">CABIN</p>", "key_press": -1, "type": "PRES_VIS", "word": "cabin", "wordID": 210, "conditions": [18, 1200, "v", 18000], "trial": 0, "serialpos": 10, "trial_type": "single-stim", "trial_index": 31, "time_elapsed": 503749, "internal_node_id": "0.0-22.0"}}, {"uniqueid": "MTK0112:3G5W44VEU8P34Y31RTYP07MUJFYGK6", "current_trial": 32, "dateTime": 1509162193536, "trialdata": {"rt": -1, "stimulus": "<p id=\"stim\">HUSBAND</p>", "key_press": -1, "type": "PRES_VIS", "word": "husband", "wordID": 727, "conditions": [18, 1200, "v", 18000], "trial": 0, "serialpos": 11, "trial_type": "single-stim", "trial_index": 32, "time_elapsed": 505911, "internal_node_id": "0.0-23.0"}}, {"uniqueid": "MTK0112:3G5W44VEU8P34Y31RTYP07MUJFYGK6", "current_trial": 33, "dateTime": 1509162195663, "trialdata": {"rt": -1, "stimulus": "<p id=\"stim\">SHARK</p>", "key_press": -1, "type": "PRES_VIS", "word": "shark", "wordID": 1274, "conditions": [18, 1200, "v", 18000], "trial": 0, "serialpos": 12, "trial_type": "single-stim", "trial_index": 33, "time_elapsed": 508038, "internal_node_id": "0.0-24.0"}}, {"uniqueid": "MTK0112:3G5W44VEU8P34Y31RTYP07MUJFYGK6", "current_trial": 34, "dateTime": 1509162198022, "trialdata": {"rt": -1, "stimulus": "<p id=\"stim\">RIFLE</p>", "key_press": -1, "type": "PRES_VIS", "word": "rifle", "wordID": 1191, "conditions": [18, 1200, "v", 18000], "trial": 0, "serialpos": 13, "trial_type": "single-stim", "trial_index": 34, "time_elapsed": 510396, "internal_node_id": "0.0-25.0"}}, {"uniqueid": "MTK0112:3G5W44VEU8P34Y31RTYP07MUJFYGK6", "current_trial": 35, "dateTime": 1509162200396, "trialdata": {"rt": -1, "stimulus": "<p id=\"stim\">AWARD</p>", "key_press": -1, "type": "PRES_VIS", "word": "award", "wordID": 62, "conditions": [18, 1200, "v", 18000], "trial": 0, "serialpos": 14, "trial_type": "single-stim", "trial_index": 35, "time_elapsed": 512771, "internal_node_id": "0.0-26.0"}}, {"uniqueid": "MTK0112:3G5W44VEU8P34Y31RTYP07MUJFYGK6", "current_trial": 36, "dateTime": 1509162202580, "trialdata": {"rt": -1, "stimulus": "<p id=\"stim\">WAITER</p>", "key_press": -1, "type": "PRES_VIS", "word": "waiter", "wordID": 1579, "conditions": [18, 1200, "v", 18000], "trial": 0, "serialpos": 15, "trial_type": "single-stim", "trial_index": 36, "time_elapsed": 514955, "internal_node_id": "0.0-27.0"}}, {"uniqueid": "MTK0112:3G5W44VEU8P34Y31RTYP07MUJFYGK6", "current_trial": 37, "dateTime": 1509162204722, "trialdata": {"rt": -1, "stimulus": "<p id=\"stim\">DENIM</p>", "key_press": -1, "type": "PRES_VIS", "word": "denim", "wordID": 445, "conditions": [18, 1200, "v", 18000], "trial": 0, "serialpos": 16, "trial_type": "single-stim", "trial_index": 37, "time_elapsed": 517097, "internal_node_id": "0.0-28.0"}}, {"uniqueid": "MTK0112:3G5W44VEU8P34Y31RTYP07MUJFYGK6", "current_trial": 38, "dateTime": 1509162207130, "trialdata": {"rt": -1, "stimulus": "<p id=\"stim\">LEADER</p>", "key_press": -1, "type": "PRES_VIS", "word": "leader", "wordID": 806, "conditions": [18, 1200, "v", 18000], "trial": 0, "serialpos": 17, "trial_type": "single-stim", "trial_index": 38, "time_elapsed": 519505, "internal_node_id": "0.0-29.0"}}, {"uniqueid": "MTK0112:3G5W44VEU8P34Y31RTYP07MUJFYGK6", "current_trial": 39, "dateTime": 1509162209416, "trialdata": {"rt": -1, "stimulus": "", "key_press": -1, "type": "PRE_RECALL_DELAY", "trial_type": "single-stim", "trial_index": 39, "time_elapsed": 521791, "internal_node_id": "0.0-30.0-0.0"}}, {"uniqueid": "MTK0112:3G5W44VEU8P34Y31RTYP07MUJFYGK6", "current_trial": 40, "dateTime": 1509162209921, "trialdata": {"rt": -1000, "stimulus": "/static/audio/400Hz.wav", "key_press": -1, "type": "PRE_RECALL_ALERT", "trial_type": "single-audio", "trial_index": 40, "time_elapsed": 522296, "internal_node_id": "0.0-31.0"}}, {"uniqueid": "MTK0112:3G5W44VEU8P34Y31RTYP07MUJFYGK6", "current_trial": 41, "dateTime": 1509162269938, "trialdata": {"rt": [5432, 7969, 10174, 22403, 29944, 37089, 47924], "recwords": ["fungus", "college", "award", "parent", "tile", "rifle", "dustpan"], "type": "FREE_RECALL", "conditions": [18, 1200, "v", 18000], "trial": 0, "trial_type": "free-recall", "trial_index": 41, "time_elapsed": 582307, "internal_node_id": "0.0-32.0-0.0"}}, {"uniqueid": "MTK0112:3G5W44VEU8P34Y31RTYP07MUJFYGK6", "current_trial": 42, "dateTime": 1509162273921, "trialdata": {"rt": 1979, "key_press": 32, "type": "INSTRUCTIONS", "trial_type": "text", "trial_index": 42, "time_elapsed": 586295, "internal_node_id": "0.0-33.0"}}, {"uniqueid": "MTK0112:3G5W44VEU8P34Y31RTYP07MUJFYGK6", "current_trial": 43, "dateTime": 1509162293937, "trialdata": {"rt": [2930, 4620, 5983, 9355, 10910, 13463, 15871, 17607], "responses": ["14", "9", "8", "19", "19", "20", "18", "17"], "num1": [2, 4, 1, 4, 5, 8, 8, 5, 5], "num2": [8, 3, 4, 8, 5, 4, 2, 7, 4], "num3": [3, 2, 3, 7, 9, 8, 8, 5, 9], "type": "DISTRACTOR", "conditions": [18, 1200, "a", 18000], "trial": 1, "trial_type": "math-distractor", "trial_index": 43, "time_elapsed": 606311, "internal_node_id": "0.0-34.0"}}, {"uniqueid": "MTK0112:3G5W44VEU8P34Y31RTYP07MUJFYGK6", "current_trial": 44, "dateTime": 1509162296948, "trialdata": {"rt": -1, "stimulus": "<p id=\"stim\">10</p>", "key_press": -1, "trial_type": "single-stim", "trial_index": 44, "time_elapsed": 609322, "internal_node_id": "0.0-35.0-0.0"}}, {"uniqueid": "MTK0112:3G5W44VEU8P34Y31RTYP07MUJFYGK6", "current_trial": 45, "dateTime": 1509162297971, "trialdata": {"rt": -1, "stimulus": "<p id=\"stim\">9</p>", "key_press": -1, "trial_type": "single-stim", "trial_index": 45, "time_elapsed": 610346, "internal_node_id": "0.0-35.0-1.0"}}, {"uniqueid": "MTK0112:3G5W44VEU8P34Y31RTYP07MUJFYGK6", "current_trial": 46, "dateTime": 1509162298975, "trialdata": {"rt": -1, "stimulus": "<p id=\"stim\">8</p>", "key_press": -1, "trial_type": "single-stim", "trial_index": 46, "time_elapsed": 611350, "internal_node_id": "0.0-35.0-2.0"}}, {"uniqueid": "MTK0112:3G5W44VEU8P34Y31RTYP07MUJFYGK6", "current_trial": 47, "dateTime": 1509162299978, "trialdata": {"rt": -1, "stimulus": "<p id=\"stim\">7</p>", "key_press": -1, "trial_type": "single-stim", "trial_index": 47, "time_elapsed": 612353, "internal_node_id": "0.0-35.0-3.0"}}, {"uniqueid": "MTK0112:3G5W44VEU8P34Y31RTYP07MUJFYGK6", "current_trial": 48, "dateTime": 1509162300981, "trialdata": {"rt": -1, "stimulus": "<p id=\"stim\">6</p>", "key_press": -1, "trial_type": "single-stim", "trial_index": 48, "time_elapsed": 613356, "internal_node_id": "0.0-35.0-4.0"}}, {"uniqueid": "MTK0112:3G5W44VEU8P34Y31RTYP07MUJFYGK6", "current_trial": 49, "dateTime": 1509162301987, "trialdata": {"rt": -1, "stimulus": "<p id=\"stim\">5</p>", "key_press": -1, "trial_type": "single-stim", "trial_index": 49, "time_elapsed": 614361, "internal_node_id": "0.0-35.0-5.0"}}, {"uniqueid": "MTK0112:3G5W44VEU8P34Y31RTYP07MUJFYGK6", "current_trial": 50, "dateTime": 1509162302989, "trialdata": {"rt": -1, "stimulus": "<p id=\"stim\">4</p>", "key_press": -1, "trial_type": "single-stim", "trial_index": 50, "time_elapsed": 615364, "internal_node_id": "0.0-35.0-6.0"}}, {"uniqueid": "MTK0112:3G5W44VEU8P34Y31RTYP07MUJFYGK6", "current_trial": 51, "dateTime": 1509162304021, "trialdata": {"rt": -1, "stimulus": "<p id=\"stim\">3</p>", "key_press": -1, "trial_type": "single-stim", "trial_index": 51, "time_elapsed": 616396, "internal_node_id": "0.0-35.0-7.0"}}, {"uniqueid": "MTK0112:3G5W44VEU8P34Y31RTYP07MUJFYGK6", "current_trial": 52, "dateTime": 1509162305031, "trialdata": {"rt": -1, "stimulus": "<p id=\"stim\">2</p>", "key_press": -1, "trial_type": "single-stim", "trial_index": 52, "time_elapsed": 617405, "internal_node_id": "0.0-35.0-8.0"}}, {"uniqueid": "MTK0112:3G5W44VEU8P34Y31RTYP07MUJFYGK6", "current_trial": 53, "dateTime": 1509162306035, "trialdata": {"rt": -1, "stimulus": "<p id=\"stim\">1</p>", "key_press": -1, "trial_type": "single-stim", "trial_index": 53, "time_elapsed": 618410, "internal_node_id": "0.0-35.0-9.0"}}, {"uniqueid": "MTK0112:3G5W44VEU8P34Y31RTYP07MUJFYGK6", "current_trial": 54, "dateTime": 1509162307539, "trialdata": {"rt": -1, "stimulus": "<p id=\"stim\">+</p>", "key_press": -1, "type": "FIXATION", "trial_type": "single-stim", "trial_index": 54, "time_elapsed": 619914, "internal_node_id": "0.0-36.0-0.0"}}, {"uniqueid": "MTK0112:3G5W44VEU8P34Y31RTYP07MUJFYGK6", "current_trial": 55, "dateTime": 1509162309899, "trialdata": {"rt": -1000, "stimulus": "/static/audio/wordpool/FIREPLACE.wav", "key_press": -1, "type": "PRES_AUD", "word": "fireplace", "wordID": 569, "conditions": [18, 1200, "a", 18000], "trial": 1, "serialpos": 0, "trial_type": "single-audio", "trial_index": 55, "time_elapsed": 622274, "internal_node_id": "0.0-37.0"}}, {"uniqueid": "MTK0112:3G5W44VEU8P34Y31RTYP07MUJFYGK6", "current_trial": 56, "dateTime": 1509162311952, "trialdata": {"rt": -1000, "stimulus": "/static/audio/wordpool/TUTU.wav", "key_press": -1, "type": "PRES_AUD", "word": "tutu", "wordID": 1523, "conditions": [18, 1200, "a", 18000], "trial": 1, "serialpos": 1, "trial_type": "single-audio", "trial_index": 56, "time_elapsed": 624327, "internal_node_id": "0.0-38.0"}}, {"uniqueid": "MTK0112:3G5W44VEU8P34Y31RTYP07MUJFYGK6", "current_trial": 57, "dateTime": 1509162314177, "trialdata": {"rt": -1000, "stimulus": "/static/audio/wordpool/BURGLAR.wav", "key_press": -1, "type": "PRES_AUD", "word": "burglar", "wordID": 199, "conditions": [18, 1200, "a", 18000], "trial": 1, "serialpos": 2, "trial_type": "single-audio", "trial_index": 57, "time_elapsed": 626551, "internal_node_id": "0.0-39.0"}}, {"uniqueid": "MTK0112:3G5W44VEU8P34Y31RTYP07MUJFYGK6", "current_trial": 58, "dateTime": 1509162316330, "trialdata": {"rt": -1000, "stimulus": "/static/audio/wordpool/TUBA.wav", "key_press": -1, "type": "PRES_AUD", "word": "tuba", "wordID": 1514, "conditions": [18, 1200, "a", 18000], "trial": 1, "serialpos": 3, "trial_type": "single-audio", "trial_index": 58, "time_elapsed": 628705, "internal_node_id": "0.0-40.0"}}, {"uniqueid": "MTK0112:3G5W44VEU8P34Y31RTYP07MUJFYGK6", "current_trial": 59, "dateTime": 1509162318404, "trialdata": {"rt": -1000, "stimulus": "/static/audio/wordpool/DUST.wav", "key_press": -1, "type": "PRES_AUD", "word": "dust", "wordID": 507, "conditions": [18, 1200, "a", 18000], "trial": 1, "serialpos": 4, "trial_type": "single-audio", "trial_index": 59, "time_elapsed": 630778, "internal_node_id": "0.0-41.0"}}, {"uniqueid": "MTK0112:3G5W44VEU8P34Y31RTYP07MUJFYGK6", "current_trial": 60, "dateTime": 1509162320504, "trialdata": {"rt": -1000, "stimulus": "/static/audio/wordpool/MUSTARD.wav", "key_press": -1, "type": "PRES_AUD", "word": "mustard", "wordID": 934, "conditions": [18, 1200, "a", 18000], "trial": 1, "serialpos": 5, "trial_type": "single-audio", "trial_index": 60, "time_elapsed": 632879, "internal_node_id": "0.0-42.0"}}, {"uniqueid": "MTK0112:3G5W44VEU8P34Y31RTYP07MUJFYGK6", "current_trial": 61, "dateTime": 1509162322767, "trialdata": {"rt": -1000, "stimulus": "/static/audio/wordpool/TYPIST.wav", "key_press": -1, "type": "PRES_AUD", "word": "typist", "wordID": 1531, "conditions": [18, 1200, "a", 18000], "trial": 1, "serialpos": 6, "trial_type": "single-audio", "trial_index": 61, "time_elapsed": 635142, "internal_node_id": "0.0-43.0"}}, {"uniqueid": "MTK0112:3G5W44VEU8P34Y31RTYP07MUJFYGK6", "current_trial": 62, "dateTime": 1509162325076, "trialdata": {"rt": -1000, "stimulus": "/static/audio/wordpool/LIGHTNING.wav", "key_press": -1, "type": "PRES_AUD", "word": "lightning", "wordID": 819, "conditions": [18, 1200, "a", 18000], "trial": 1, "serialpos": 7, "trial_type": "single-audio", "trial_index": 62, "time_elapsed": 637451, "internal_node_id": "0.0-44.0"}}, {"uniqueid": "MTK0112:3G5W44VEU8P34Y31RTYP07MUJFYGK6", "current_trial": 63, "dateTime": 1509162327194, "trialdata": {"rt": -1000, "stimulus": "/static/audio/wordpool/DONKEY.wav", "key_press": -1, "type": "PRES_AUD", "word": "donkey", "wordID": 483, "conditions": [18, 1200, "a", 18000], "trial": 1, "serialpos": 8, "trial_type": "single-audio", "trial_index": 63, "time_elapsed": 639569, "internal_node_id": "0.0-45.0"}}, {"uniqueid": "MTK0112:3G5W44VEU8P34Y31RTYP07MUJFYGK6", "current_trial": 64, "dateTime": 1509162329401, "trialdata": {"rt": -1000, "stimulus": "/static/audio/wordpool/SWITCH.wav", "key_press": -1, "type": "PRES_AUD", "word": "switch", "wordID": 1421, "conditions": [18, 1200, "a", 18000], "trial": 1, "serialpos": 9, "trial_type": "single-audio", "trial_index": 64, "time_elapsed": 641776, "internal_node_id": "0.0-46.0"}}, {"uniqueid": "MTK0112:3G5W44VEU8P34Y31RTYP07MUJFYGK6", "current_trial": 65, "dateTime": 1509162331547, "trialdata": {"rt": -1000, "stimulus": "/static/audio/wordpool/CONTRACT.wav", "key_press": -1, "type": "PRES_AUD", "word": "contract", "wordID": 367, "conditions": [18, 1200, "a", 18000], "trial": 1, "serialpos": 10, "trial_type": "single-audio", "trial_index": 65, "time_elapsed": 643922, "internal_node_id": "0.0-47.0"}}, {"uniqueid": "MTK0112:3G5W44VEU8P34Y31RTYP07MUJFYGK6", "current_trial": 66, "dateTime": 1509162333664, "trialdata": {"rt": -1000, "stimulus": "/static/audio/wordpool/JAPAN.wav", "key_press": -1, "type": "PRES_AUD", "word": "japan", "wordID": 748, "conditions": [18, 1200, "a", 18000], "trial": 1, "serialpos": 11, "trial_type": "single-audio", "trial_index": 66, "time_elapsed": 646039, "internal_node_id": "0.0-48.0"}}, {"uniqueid": "MTK0112:3G5W44VEU8P34Y31RTYP07MUJFYGK6", "current_trial": 67, "dateTime": 1509162335878, "trialdata": {"rt": -1000, "stimulus": "/static/audio/wordpool/HOUND.wav", "key_press": -1, "type": "PRES_AUD", "word": "hound", "wordID": 723, "conditions": [18, 1200, "a", 18000], "trial": 1, "serialpos": 12, "trial_type": "single-audio", "trial_index": 67, "time_elapsed": 648253, "internal_node_id": "0.0-49.0"}}, {"uniqueid": "MTK0112:3G5W44VEU8P34Y31RTYP07MUJFYGK6", "current_trial": 68, "dateTime": 1509162338133, "trialdata": {"rt": -1000, "stimulus": "/static/audio/wordpool/SKIRT.wav", "key_press": -1, "type": "PRES_AUD", "word": "skirt", "wordID": 1318, "conditions": [18, 1200, "a", 18000], "trial": 1, "serialpos": 13, "trial_type": "single-audio", "trial_index": 68, "time_elapsed": 650508, "internal_node_id": "0.0-50.0"}}, {"uniqueid": "MTK0112:3G5W44VEU8P34Y31RTYP07MUJFYGK6", "current_trial": 69, "dateTime": 1509162340284, "trialdata": {"rt": -1000, "stimulus": "/static/audio/wordpool/FRAGRANCE.wav", "key_press": -1, "type": "PRES_AUD", "word": "fragrance", "wordID": 598, "conditions": [18, 1200, "a", 18000], "trial": 1, "serialpos": 14, "trial_type": "single-audio", "trial_index": 69, "time_elapsed": 652659, "internal_node_id": "0.0-51.0"}}, {"uniqueid": "MTK0112:3G5W44VEU8P34Y31RTYP07MUJFYGK6", "current_trial": 70, "dateTime": 1509162342369, "trialdata": {"rt": -1000, "stimulus": "/static/audio/wordpool/VALLEY.wav", "key_press": -1, "type": "PRES_AUD", "word": "valley", "wordID": 1544, "conditions": [18, 1200, "a", 18000], "trial": 1, "serialpos": 15, "trial_type": "single-audio", "trial_index": 70, "time_elapsed": 654743, "internal_node_id": "0.0-52.0"}}, {"uniqueid": "MTK0112:3G5W44VEU8P34Y31RTYP07MUJFYGK6", "current_trial": 71, "dateTime": 1509162344562, "trialdata": {"rt": -1000, "stimulus": "/static/audio/wordpool/BRANDY.wav", "key_press": -1, "type": "PRES_AUD", "word": "brandy", "wordID": 168, "conditions": [18, 1200, "a", 18000], "trial": 1, "serialpos": 16, "trial_type": "single-audio", "trial_index": 71, "time_elapsed": 656936, "internal_node_id": "0.0-53.0"}}, {"uniqueid": "MTK0112:3G5W44VEU8P34Y31RTYP07MUJFYGK6", "current_trial": 72, "dateTime": 1509162346737, "trialdata": {"rt": -1000, "stimulus": "/static/audio/wordpool/PADDLE.wav", "key_press": -1, "type": "PRES_AUD", "word": "paddle", "wordID": 999, "conditions": [18, 1200, "a", 18000], "trial": 1, "serialpos": 17, "trial_type": "single-audio", "trial_index": 72, "time_elapsed": 659112, "internal_node_id": "0.0-54.0"}}, {"uniqueid": "MTK0112:3G5W44VEU8P34Y31RTYP07MUJFYGK6", "current_trial": 73, "dateTime": 1509162348049, "trialdata": {"rt": -1, "stimulus": "", "key_press": -1, "type": "PRE_RECALL_DELAY", "trial_type": "single-stim", "trial_index": 73, "time_elapsed": 660424, "internal_node_id": "0.0-55.0-0.0"}}, {"uniqueid": "MTK0112:3G5W44VEU8P34Y31RTYP07MUJFYGK6", "current_trial": 74, "dateTime": 1509162348601, "trialdata": {"rt": -1000, "stimulus": "/static/audio/400Hz.wav", "key_press": -1, "type": "PRE_RECALL_ALERT", "trial_type": "single-audio", "trial_index": 74, "time_elapsed": 660976, "internal_node_id": "0.0-56.0"}}, {"uniqueid": "MTK0112:3G5W44VEU8P34Y31RTYP07MUJFYGK6", "current_trial": 75, "dateTime": 1509162408624, "trialdata": {"rt": [4003, 5902, 8905, 11298, 15333, 21493], "recwords": ["japan", "pound", "fragrance", "towel", "penny", "dust"], "type": "FREE_RECALL", "conditions": [18, 1200, "a", 18000], "trial": 1, "trial_type": "free-recall", "trial_index": 75, "time_elapsed": 720995, "internal_node_id": "0.0-57.0-0.0"}}, {"uniqueid": "MTK0112:3G5W44VEU8P34Y31RTYP07MUJFYGK6", "current_trial": 76, "dateTime": 1509162415249, "trialdata": {"rt": 4608, "key_press": 32, "type": "INSTRUCTIONS", "trial_type": "text", "trial_index": 76, "time_elapsed": 727624, "internal_node_id": "0.0-58.0"}}, {"uniqueid": "MTK0112:3G5W44VEU8P34Y31RTYP07MUJFYGK6", "current_trial": 77, "dateTime": 1509162440256, "trialdata": {"rt": [2297, 4724, 6459, 8271, 10951, 13574, 15676, 17549, 19453, 21542, 23769], "responses": ["16", "14", "22", "17", "18", "21", "13", "10", "17", "22", "19"], "num1": [3, 1, 9, 7, 1, 9, 2, 7, 4, 4, 5, 6], "num2": [8, 7, 9, 5, 9, 4, 5, 2, 9, 9, 8, 6], "num3": [5, 6, 4, 5, 8, 8, 6, 1, 4, 9, 6, 7], "type": "DISTRACTOR", "conditions": [12, 1600, "v", 24000], "trial": 2, "trial_type": "math-distractor", "trial_index": 77, "time_elapsed": 752631, "internal_node_id": "0.0-59.0"}}, {"uniqueid": "MTK0112:3G5W44VEU8P34Y31RTYP07MUJFYGK6", "current_trial": 78, "dateTime": 1509162443277, "trialdata": {"rt": -1, "stimulus": "<p id=\"stim\">10</p>", "key_press": -1, "trial_type": "single-stim", "trial_index": 78, "time_elapsed": 755647, "internal_node_id": "0.0-60.0-0.0"}}, {"uniqueid": "MTK0112:3G5W44VEU8P34Y31RTYP07MUJFYGK6", "current_trial": 79, "dateTime": 1509162444281, "trialdata": {"rt": -1, "stimulus": "<p id=\"stim\">9</p>", "key_press": -1, "trial_type": "single-stim", "trial_index": 79, "time_elapsed": 756656, "internal_node_id": "0.0-60.0-1.0"}}, {"uniqueid": "MTK0112:3G5W44VEU8P34Y31RTYP07MUJFYGK6", "current_trial": 80, "dateTime": 1509162445284, "trialdata": {"rt": -1, "stimulus": "<p id=\"stim\">8</p>", "key_press": -1, "trial_type": "single-stim", "trial_index": 80, "time_elapsed": 757658, "internal_node_id": "0.0-60.0-2.0"}}, {"uniqueid": "MTK0112:3G5W44VEU8P34Y31RTYP07MUJFYGK6", "current_trial": 81, "dateTime": 1509162446305, "trialdata": {"rt": -1, "stimulus": "<p id=\"stim\">7</p>", "key_press": -1, "trial_type": "single-stim", "trial_index": 81, "time_elapsed": 758680, "internal_node_id": "0.0-60.0-3.0"}}, {"uniqueid": "MTK0112:3G5W44VEU8P34Y31RTYP07MUJFYGK6", "current_trial": 82, "dateTime": 1509162447342, "trialdata": {"rt": -1, "stimulus": "<p id=\"stim\">6</p>", "key_press": -1, "trial_type": "single-stim", "trial_index": 82, "time_elapsed": 759716, "internal_node_id": "0.0-60.0-4.0"}}, {"uniqueid": "MTK0112:3G5W44VEU8P34Y31RTYP07MUJFYGK6", "current_trial": 83, "dateTime": 1509162448358, "trialdata": {"rt": -1, "stimulus": "<p id=\"stim\">5</p>", "key_press": -1, "trial_type": "single-stim", "trial_index": 83, "time_elapsed": 760733, "internal_node_id": "0.0-60.0-5.0"}}, {"uniqueid": "MTK0112:3G5W44VEU8P34Y31RTYP07MUJFYGK6", "current_trial": 84, "dateTime": 1509162449369, "trialdata": {"rt": -1, "stimulus": "<p id=\"stim\">4</p>", "key_press": -1, "trial_type": "single-stim", "trial_index": 84, "time_elapsed": 761743, "internal_node_id": "0.0-60.0-6.0"}}, {"uniqueid": "MTK0112:3G5W44VEU8P34Y31RTYP07MUJFYGK6", "current_trial": 85, "dateTime": 1509162450383, "trialdata": {"rt": -1, "stimulus": "<p id=\"stim\">3</p>", "key_press": -1, "trial_type": "single-stim", "trial_index": 85, "time_elapsed": 762758, "internal_node_id": "0.0-60.0-7.0"}}, {"uniqueid": "MTK0112:3G5W44VEU8P34Y31RTYP07MUJFYGK6", "current_trial": 86, "dateTime": 1509162451409, "trialdata": {"rt": -1, "stimulus": "<p id=\"stim\">2</p>", "key_press": -1, "trial_type": "single-stim", "trial_index": 86, "time_elapsed": 763784, "internal_node_id": "0.0-60.0-8.0"}}, {"uniqueid": "MTK0112:3G5W44VEU8P34Y31RTYP07MUJFYGK6", "current_trial": 87, "dateTime": 1509162452442, "trialdata": {"rt": -1, "stimulus": "<p id=\"stim\">1</p>", "key_press": -1, "trial_type": "single-stim", "trial_index": 87, "time_elapsed": 764817, "internal_node_id": "0.0-60.0-9.0"}}, {"uniqueid": "MTK0112:3G5W44VEU8P34Y31RTYP07MUJFYGK6", "current_trial": 88, "dateTime": 1509162453954, "trialdata": {"rt": -1, "stimulus": "<p id=\"stim\">+</p>", "key_press": -1, "type": "FIXATION", "trial_type": "single-stim", "trial_index": 88, "time_elapsed": 766329, "internal_node_id": "0.0-61.0-0.0"}}, {"uniqueid": "MTK0112:3G5W44VEU8P34Y31RTYP07MUJFYGK6", "current_trial": 89, "dateTime": 1509162455620, "trialdata": {"rt": -1, "stimulus": "<p id=\"stim\">MILK</p>", "key_press": -1, "type": "PRES_VIS", "word": "milk", "wordID": 894, "conditions": [12, 1600, "v", 24000], "trial": 2, "serialpos": 0, "trial_type": "single-stim", "trial_index": 89, "time_elapsed": 767994, "internal_node_id": "0.0-62.0"}}, {"uniqueid": "MTK0112:3G5W44VEU8P34Y31RTYP07MUJFYGK6", "current_trial": 90, "dateTime": 1509162458187, "trialdata": {"rt": -1, "stimulus": "<p id=\"stim\">COUNTRY</p>", "key_press": -1, "type": "PRES_VIS", "word": "country", "wordID": 387, "conditions": [12, 1600, "v", 24000], "trial": 2, "serialpos": 1, "trial_type": "single-stim", "trial_index": 90, "time_elapsed": 770562, "internal_node_id": "0.0-63.0"}}, {"uniqueid": "MTK0112:3G5W44VEU8P34Y31RTYP07MUJFYGK6", "current_trial": 91, "dateTime": 1509162460688, "trialdata": {"rt": -1, "stimulus": "<p id=\"stim\">FLOWER</p>", "key_press": -1, "type": "PRES_VIS", "word": "flower", "wordID": 583, "conditions": [12, 1600, "v", 24000], "trial": 2, "serialpos": 2, "trial_type": "single-stim", "trial_index": 91, "time_elapsed": 773063, "internal_node_id": "0.0-64.0"}}, {"uniqueid": "MTK0112:3G5W44VEU8P34Y31RTYP07MUJFYGK6", "current_trial": 92, "dateTime": 1509162463153, "trialdata": {"rt": -1, "stimulus": "<p id=\"stim\">EXPERT</p>", "key_press": -1, "type": "PRES_VIS", "word": "expert", "wordID": 542, "conditions": [12, 1600, "v", 24000], "trial": 2, "serialpos": 3, "trial_type": "single-stim", "trial_index": 92, "time_elapsed": 775528, "internal_node_id": "0.0-65.0"}}, {"uniqueid": "MTK0112:3G5W44VEU8P34Y31RTYP07MUJFYGK6", "current_trial": 93, "dateTime": 1509162465917, "trialdata": {"rt": -1, "stimulus": "<p id=\"stim\">JUDGE</p>", "key_press": -1, "type": "PRES_VIS", "word": "judge", "wordID": 760, "conditions": [12, 1600, "v", 24000], "trial": 2, "serialpos": 4, "trial_type": "single-stim", "trial_index": 93, "time_elapsed": 778292, "internal_node_id": "0.0-66.0"}}, {"uniqueid": "MTK0112:3G5W44VEU8P34Y31RTYP07MUJFYGK6", "current_trial": 94, "dateTime": 1509162468720, "trialdata": {"rt": -1, "stimulus": "<p id=\"stim\">FLESH</p>", "key_press": -1, "type": "PRES_VIS", "word": "flesh", "wordID": 578, "conditions": [12, 1600, "v", 24000], "trial": 2, "serialpos": 5, "trial_type": "single-stim", "trial_index": 94, "time_elapsed": 781095, "internal_node_id": "0.0-67.0"}}, {"uniqueid": "MTK0112:3G5W44VEU8P34Y31RTYP07MUJFYGK6", "current_trial": 95, "dateTime": 1509162471315, "trialdata": {"rt": -1, "stimulus": "<p id=\"stim\">BARLEY</p>", "key_press": -1, "type": "PRES_VIS", "word": "barley", "wordID": 87, "conditions": [12, 1600, "v", 24000], "trial": 2, "serialpos": 6, "trial_type": "single-stim", "trial_index": 95, "time_elapsed": 783689, "internal_node_id": "0.0-68.0"}}, {"uniqueid": "MTK0112:3G5W44VEU8P34Y31RTYP07MUJFYGK6", "current_trial": 96, "dateTime": 1509162474081, "trialdata": {"rt": -1, "stimulus": "<p id=\"stim\">BADGE</p>", "key_press": -1, "type": "PRES_VIS", "word": "badge", "wordID": 67, "conditions": [12, 1600, "v", 24000], "trial": 2, "serialpos": 7, "trial_type": "single-stim", "trial_index": 96, "time_elapsed": 786456, "internal_node_id": "0.0-69.0"}}, {"uniqueid": "MTK0112:3G5W44VEU8P34Y31RTYP07MUJFYGK6", "current_trial": 97, "dateTime": 1509162476778, "trialdata": {"rt": -1, "stimulus": "<p id=\"stim\">PARTNER</p>", "key_press": -1, "type": "PRES_VIS", "word": "partner", "wordID": 1016, "conditions": [12, 1600, "v", 24000], "trial": 2, "serialpos": 8, "trial_type": "single-stim", "trial_index": 97, "time_elapsed": 789153, "internal_node_id": "0.0-70.0"}}, {"uniqueid": "MTK0112:3G5W44VEU8P34Y31RTYP07MUJFYGK6", "current_trial": 98, "dateTime": 1509162479244, "trialdata": {"rt": -1, "stimulus": "<p id=\"stim\">GARDEN</p>", "key_press": -1, "type": "PRES_VIS", "word": "garden", "wordID": 622, "conditions": [12, 1600, "v", 24000], "trial": 2, "serialpos": 9, "trial_type": "single-stim", "trial_index": 98, "time_elapsed": 791618, "internal_node_id": "0.0-71.0"}}, {"uniqueid": "MTK0112:3G5W44VEU8P34Y31RTYP07MUJFYGK6", "current_trial": 99, "dateTime": 1509162481937, "trialdata": {"rt": -1, "stimulus": "<p id=\"stim\">BABY</p>", "key_press": -1, "type": "PRES_VIS", "word": "baby", "wordID": 63, "conditions": [12, 1600, "v", 24000], "trial": 2, "serialpos": 10, "trial_type": "single-stim", "trial_index": 99, "time_elapsed": 794312, "internal_node_id": "0.0-72.0"}}, {"uniqueid": "MTK0112:3G5W44VEU8P34Y31RTYP07MUJFYGK6", "current_trial": 100, "dateTime": 1509162484684, "trialdata": {"rt": -1, "stimulus": "<p id=\"stim\">CRIB</p>", "key_press": -1, "type": "PRES_VIS", "word": "crib", "wordID": 406, "conditions": [12, 1600, "v", 24000], "trial": 2, "serialpos": 11, "trial_type": "single-stim", "trial_index": 100, "time_elapsed": 797059, "internal_node_id": "0.0-73.0"}}, {"uniqueid": "MTK0112:3G5W44VEU8P34Y31RTYP07MUJFYGK6", "current_trial": 101, "dateTime": 1509162486944, "trialdata": {"rt": -1, "stimulus": "", "key_press": -1, "type": "PRE_RECALL_DELAY", "trial_type": "single-stim", "trial_index": 101, "time_elapsed": 799319, "internal_node_id": "0.0-74.0-0.0"}}, {"uniqueid": "MTK0112:3G5W44VEU8P34Y31RTYP07MUJFYGK6", "current_trial": 102, "dateTime": 1509162487464, "trialdata": {"rt": -1000, "stimulus": "/static/audio/400Hz.wav", "key_press": -1, "type": "PRE_RECALL_ALERT", "trial_type": "single-audio", "trial_index": 102, "time_elapsed": 799834, "internal_node_id": "0.0-75.0"}}, {"uniqueid": "MTK0112:3G5W44VEU8P34Y31RTYP07MUJFYGK6", "current_trial": 103, "dateTime": 1509162547494, "trialdata": {"rt": [3895, 5454, 7261, 9333, 11406, 14665, 23672, 30517], "recwords": ["crib", "judge", "badge", "garden", "partner", "country", "flesh", "milk"], "type": "FREE_RECALL", "conditions": [12, 1600, "v", 24000], "trial": 2, "trial_type": "free-recall", "trial_index": 103, "time_elapsed": 859864, "internal_node_id": "0.0-76.0-0.0"}}, {"uniqueid": "MTK0112:3G5W44VEU8P34Y31RTYP07MUJFYGK6", "current_trial": 104, "dateTime": 1509162552001, "trialdata": {"rt": 2505, "key_press": 32, "type": "INSTRUCTIONS", "trial_type": "text", "trial_index": 104, "time_elapsed": 864376, "internal_node_id": "0.0-77.0"}}, {"uniqueid": "MTK0112:3G5W44VEU8P34Y31RTYP07MUJFYGK6", "current_trial": 105, "dateTime": 1509162578038, "trialdata": {"rt": [2291, 4399, 6717, 7910, 9731, 11196, 12751, 14885, 16589, 18773, 21777, 23575], "responses": ["14", "20", "17", "8", "12", "9", "14", "17", "16", "14", "22", "23"], "num1": [9, 3, 1, 2, 2, 5, 6, 3, 9, 3, 6, 9, 9], "num2": [4, 9, 9, 2, 9, 1, 7, 5, 1, 5, 9, 7, 9], "num3": [1, 8, 7, 4, 1, 3, 1, 9, 6, 6, 7, 7, 1], "type": "DISTRACTOR", "conditions": [24, 800, "a", 24000], "trial": 3, "trial_type": "math-distractor", "trial_index": 105, "time_elapsed": 890412, "internal_node_id": "0.0-78.0"}}, {"uniqueid": "MTK0112:3G5W44VEU8P34Y31RTYP07MUJFYGK6", "current_trial": 106, "dateTime": 1509162581066, "trialdata": {"rt": -1, "stimulus": "<p id=\"stim\">10</p>", "key_press": -1, "trial_type": "single-stim", "trial_index": 106, "time_elapsed": 893441, "internal_node_id": "0.0-79.0-0.0"}}, {"uniqueid": "MTK0112:3G5W44VEU8P34Y31RTYP07MUJFYGK6", "current_trial": 107, "dateTime": 1509162582073, "trialdata": {"rt": -1, "stimulus": "<p id=\"stim\">9</p>", "key_press": -1, "trial_type": "single-stim", "trial_index": 107, "time_elapsed": 894447, "internal_node_id": "0.0-79.0-1.0"}}, {"uniqueid": "MTK0112:3G5W44VEU8P34Y31RTYP07MUJFYGK6", "current_trial": 108, "dateTime": 1509162583079, "trialdata": {"rt": -1, "stimulus": "<p id=\"stim\">8</p>", "key_press": -1, "trial_type": "single-stim", "trial_index": 108, "time_elapsed": 895453, "internal_node_id": "0.0-79.0-2.0"}}, {"uniqueid": "MTK0112:3G5W44VEU8P34Y31RTYP07MUJFYGK6", "current_trial": 109, "dateTime": 1509162584088, "trialdata": {"rt": -1, "stimulus": "<p id=\"stim\">7</p>", "key_press": -1, "trial_type": "single-stim", "trial_index": 109, "time_elapsed": 896463, "internal_node_id": "0.0-79.0-3.0"}}, {"uniqueid": "MTK0112:3G5W44VEU8P34Y31RTYP07MUJFYGK6", "current_trial": 110, "dateTime": 1509162585089, "trialdata": {"rt": -1, "stimulus": "<p id=\"stim\">6</p>", "key_press": -1, "trial_type": "single-stim", "trial_index": 110, "time_elapsed": 897464, "internal_node_id": "0.0-79.0-4.0"}}, {"uniqueid": "MTK0112:3G5W44VEU8P34Y31RTYP07MUJFYGK6", "current_trial": 111, "dateTime": 1509162586104, "trialdata": {"rt": -1, "stimulus": "<p id=\"stim\">5</p>", "key_press": -1, "trial_type": "single-stim", "trial_index": 111, "time_elapsed": 898479, "internal_node_id": "0.0-79.0-5.0"}}, {"uniqueid": "MTK0112:3G5W44VEU8P34Y31RTYP07MUJFYGK6", "current_trial": 112, "dateTime": 1509162587120, "trialdata": {"rt": -1, "stimulus": "<p id=\"stim\">4</p>", "key_press": -1, "trial_type": "single-stim", "trial_index": 112, "time_elapsed": 899495, "internal_node_id": "0.0-79.0-6.0"}}, {"uniqueid": "MTK0112:3G5W44VEU8P34Y31RTYP07MUJFYGK6", "current_trial": 113, "dateTime": 1509162588148, "trialdata": {"rt": -1, "stimulus": "<p id=\"stim\">3</p>", "key_press": -1, "trial_type": "single-stim", "trial_index": 113, "time_elapsed": 900523, "internal_node_id": "0.0-79.0-7.0"}}, {"uniqueid": "MTK0112:3G5W44VEU8P34Y31RTYP07MUJFYGK6", "current_trial": 114, "dateTime": 1509162589151, "trialdata": {"rt": -1, "stimulus": "<p id=\"stim\">2</p>", "key_press": -1, "trial_type": "single-stim", "trial_index": 114, "time_elapsed": 901526, "internal_node_id": "0.0-79.0-8.0"}}, {"uniqueid": "MTK0112:3G5W44VEU8P34Y31RTYP07MUJFYGK6", "current_trial": 115, "dateTime": 1509162590169, "trialdata": {"rt": -1, "stimulus": "<p id=\"stim\">1</p>", "key_press": -1, "trial_type": "single-stim", "trial_index": 115, "time_elapsed": 902543, "internal_node_id": "0.0-79.0-9.0"}}, {"uniqueid": "MTK0112:3G5W44VEU8P34Y31RTYP07MUJFYGK6", "current_trial": 116, "dateTime": 1509162591681, "trialdata": {"rt": -1, "stimulus": "<p id=\"stim\">+</p>", "key_press": -1, "type": "FIXATION", "trial_type": "single-stim", "trial_index": 116, "time_elapsed": 904056, "internal_node_id": "0.0-80.0-0.0"}}, {"uniqueid": "MTK0112:3G5W44VEU8P34Y31RTYP07MUJFYGK6", "current_trial": 117, "dateTime": 1509162593619, "trialdata": {"rt": -1000, "stimulus": "/static/audio/wordpool/HAND.wav", "key_press": -1, "type": "PRES_AUD", "word": "hand", "wordID": 682, "conditions": [24, 800, "a", 24000], "trial": 3, "serialpos": 0, "trial_type": "single-audio", "trial_index": 117, "time_elapsed": 905994, "internal_node_id": "0.0-81.0"}}, {"uniqueid": "MTK0112:3G5W44VEU8P34Y31RTYP07MUJFYGK6", "current_trial": 118, "dateTime": 1509162595602, "trialdata": {"rt": -1000, "stimulus": "/static/audio/wordpool/GRILL.wav", "key_press": -1, "type": "PRES_AUD", "word": "grill", "wordID": 660, "conditions": [24, 800, "a", 24000], "trial": 3, "serialpos": 1, "trial_type": "single-audio", "trial_index": 118, "time_elapsed": 907976, "internal_node_id": "0.0-82.0"}}, {"uniqueid": "MTK0112:3G5W44VEU8P34Y31RTYP07MUJFYGK6", "current_trial": 119, "dateTime": 1509162597411, "trialdata": {"rt": -1000, "stimulus": "/static/audio/wordpool/TURKEY.wav", "key_press": -1, "type": "PRES_AUD", "word": "turkey", "wordID": 1519, "conditions": [24, 800, "a", 24000], "trial": 3, "serialpos": 2, "trial_type": "single-audio", "trial_index": 119, "time_elapsed": 909785, "internal_node_id": "0.0-83.0"}}, {"uniqueid": "MTK0112:3G5W44VEU8P34Y31RTYP07MUJFYGK6", "current_trial": 120, "dateTime": 1509162599280, "trialdata": {"rt": -1000, "stimulus": "/static/audio/wordpool/MARS.wav", "key_press": -1, "type": "PRES_AUD", "word": "mars", "wordID": 872, "conditions": [24, 800, "a", 24000], "trial": 3, "serialpos": 3, "trial_type": "single-audio", "trial_index": 120, "time_elapsed": 911654, "internal_node_id": "0.0-84.0"}}, {"uniqueid": "MTK0112:3G5W44VEU8P34Y31RTYP07MUJFYGK6", "current_trial": 121, "dateTime": 1509162600884, "trialdata": {"rt": -1000, "stimulus": "/static/audio/wordpool/EMPIRE.wav", "key_press": -1, "type": "PRES_AUD", "word": "empire", "wordID": 529, "conditions": [24, 800, "a", 24000], "trial": 3, "serialpos": 4, "trial_type": "single-audio", "trial_index": 121, "time_elapsed": 913259, "internal_node_id": "0.0-85.0"}}, {"uniqueid": "MTK0112:3G5W44VEU8P34Y31RTYP07MUJFYGK6", "current_trial": 122, "dateTime": 1509162602510, "trialdata": {"rt": -1000, "stimulus": "/static/audio/wordpool/STATUE.wav", "key_press": -1, "type": "PRES_AUD", "word": "statue", "wordID": 1373, "conditions": [24, 800, "a", 24000], "trial": 3, "serialpos": 5, "trial_type": "single-audio", "trial_index": 122, "time_elapsed": 914883, "internal_node_id": "0.0-86.0"}}, {"uniqueid": "MTK0112:3G5W44VEU8P34Y31RTYP07MUJFYGK6", "current_trial": 123, "dateTime": 1509162604482, "trialdata": {"rt": -1000, "stimulus": "/static/audio/wordpool/HIGHWAY.wav", "key_press": -1, "type": "PRES_AUD", "word": "highway", "wordID": 706, "conditions": [24, 800, "a", 24000], "trial": 3, "serialpos": 6, "trial_type": "single-audio", "trial_index": 123, "time_elapsed": 916857, "internal_node_id": "0.0-87.0"}}, {"uniqueid": "MTK0112:3G5W44VEU8P34Y31RTYP07MUJFYGK6", "current_trial": 124, "dateTime": 1509162606331, "trialdata": {"rt": -1000, "stimulus": "/static/audio/wordpool/CLAM.wav", "key_press": -1, "type": "PRES_AUD", "word": "clam", "wordID": 314, "conditions": [24, 800, "a", 24000], "trial": 3, "serialpos": 7, "trial_type": "single-audio", "trial_index": 124, "time_elapsed": 918706, "internal_node_id": "0.0-88.0"}}, {"uniqueid": "MTK0112:3G5W44VEU8P34Y31RTYP07MUJFYGK6", "current_trial": 125, "dateTime": 1509162608229, "trialdata": {"rt": -1000, "stimulus": "/static/audio/wordpool/CRAB.wav", "key_press": -1, "type": "PRES_AUD", "word": "crab", "wordID": 396, "conditions": [24, 800, "a", 24000], "trial": 3, "serialpos": 8, "trial_type": "single-audio", "trial_index": 125, "time_elapsed": 920603, "internal_node_id": "0.0-89.0"}}, {"uniqueid": "MTK0112:3G5W44VEU8P34Y31RTYP07MUJFYGK6", "current_trial": 126, "dateTime": 1509162609835, "trialdata": {"rt": -1000, "stimulus": "/static/audio/wordpool/PASSAGE.wav", "key_press": -1, "type": "PRES_AUD", "word": "passage", "wordID": 1018, "conditions": [24, 800, "a", 24000], "trial": 3, "serialpos": 9, "trial_type": "single-audio", "trial_index": 126, "time_elapsed": 922210, "internal_node_id": "0.0-90.0"}}, {"uniqueid": "MTK0112:3G5W44VEU8P34Y31RTYP07MUJFYGK6", "current_trial": 127, "dateTime": 1509162611553, "trialdata": {"rt": -1000, "stimulus": "/static/audio/wordpool/ACTOR.wav", "key_press": -1, "type": "PRES_AUD", "word": "actor", "wordID": 4, "conditions": [24, 800, "a", 24000], "trial": 3, "serialpos": 10, "trial_type": "single-audio", "trial_index": 127, "time_elapsed": 923928, "internal_node_id": "0.0-91.0"}}, {"uniqueid": "MTK0112:3G5W44VEU8P34Y31RTYP07MUJFYGK6", "current_trial": 128, "dateTime": 1509162613568, "trialdata": {"rt": -1000, "stimulus": "/static/audio/wordpool/SCULPTURE.wav", "key_press": -1, "type": "PRES_AUD", "word": "sculpture", "wordID": 1257, "conditions": [24, 800, "a", 24000], "trial": 3, "serialpos": 11, "trial_type": "single-audio", "trial_index": 128, "time_elapsed": 925942, "internal_node_id": "0.0-92.0"}}, {"uniqueid": "MTK0112:3G5W44VEU8P34Y31RTYP07MUJFYGK6", "current_trial": 129, "dateTime": 1509162615390, "trialdata": {"rt": -1000, "stimulus": "/static/audio/wordpool/CANDY.wav", "key_press": -1, "type": "PRES_AUD", "word": "candy", "wordID": 229, "conditions": [24, 800, "a", 24000], "trial": 3, "serialpos": 12, "trial_type": "single-audio", "trial_index": 129, "time_elapsed": 927764, "internal_node_id": "0.0-93.0"}}, {"uniqueid": "MTK0112:3G5W44VEU8P34Y31RTYP07MUJFYGK6", "current_trial": 130, "dateTime": 1509162617261, "trialdata": {"rt": -1000, "stimulus": "/static/audio/wordpool/SPARROW.wav", "key_press": -1, "type": "PRES_AUD", "word": "sparrow", "wordID": 1346, "conditions": [24, 800, "a", 24000], "trial": 3, "serialpos": 13, "trial_type": "single-audio", "trial_index": 130, "time_elapsed": 929636, "internal_node_id": "0.0-94.0"}}, {"uniqueid": "MTK0112:3G5W44VEU8P34Y31RTYP07MUJFYGK6", "current_trial": 131, "dateTime": 1509162619129, "trialdata": {"rt": -1000, "stimulus": "/static/audio/wordpool/TWIG.wav", "key_press": -1, "type": "PRES_AUD", "word": "twig", "wordID": 1526, "conditions": [24, 800, "a", 24000], "trial": 3, "serialpos": 14, "trial_type": "single-audio", "trial_index": 131, "time_elapsed": 931504, "internal_node_id": "0.0-95.0"}}, {"uniqueid": "MTK0112:3G5W44VEU8P34Y31RTYP07MUJFYGK6", "current_trial": 132, "dateTime": 1509162620850, "trialdata": {"rt": -1000, "stimulus": "/static/audio/wordpool/FRANCE.wav", "key_press": -1, "type": "PRES_AUD", "word": "france", "wordID": 600, "conditions": [24, 800, "a", 24000], "trial": 3, "serialpos": 15, "trial_type": "single-audio", "trial_index": 132, "time_elapsed": 933225, "internal_node_id": "0.0-96.0"}}, {"uniqueid": "MTK0112:3G5W44VEU8P34Y31RTYP07MUJFYGK6", "current_trial": 133, "dateTime": 1509162622747, "trialdata": {"rt": -1000, "stimulus": "/static/audio/wordpool/SNAKE.wav", "key_press": -1, "type": "PRES_AUD", "word": "snake", "wordID": 1332, "conditions": [24, 800, "a", 24000], "trial": 3, "serialpos": 16, "trial_type": "single-audio", "trial_index": 133, "time_elapsed": 935121, "internal_node_id": "0.0-97.0"}}, {"uniqueid": "MTK0112:3G5W44VEU8P34Y31RTYP07MUJFYGK6", "current_trial": 134, "dateTime": 1509162624511, "trialdata": {"rt": -1000, "stimulus": "/static/audio/wordpool/PECAN.wav", "key_press": -1, "type": "PRES_AUD", "word": "pecan", "wordID": 1035, "conditions": [24, 800, "a", 24000], "trial": 3, "serialpos": 17, "trial_type": "single-audio", "trial_index": 134, "time_elapsed": 936885, "internal_node_id": "0.0-98.0"}}, {"uniqueid": "MTK0112:3G5W44VEU8P34Y31RTYP07MUJFYGK6", "current_trial": 135, "dateTime": 1509162626474, "trialdata": {"rt": -1000, "stimulus": "/static/audio/wordpool/WRENCH.wav", "key_press": -1, "type": "PRES_AUD", "word": "wrench", "wordID": 1624, "conditions": [24, 800, "a", 24000], "trial": 3, "serialpos": 18, "trial_type": "single-audio", "trial_index": 135, "time_elapsed": 938848, "internal_node_id": "0.0-99.0"}}, {"uniqueid": "MTK0112:3G5W44VEU8P34Y31RTYP07MUJFYGK6", "current_trial": 136, "dateTime": 1509162628281, "trialdata": {"rt": -1000, "stimulus": "/static/audio/wordpool/SODA.wav", "key_press": -1, "type": "PRES_AUD", "word": "soda", "wordID": 1340, "conditions": [24, 800, "a", 24000], "trial": 3, "serialpos": 19, "trial_type": "single-audio", "trial_index": 136, "time_elapsed": 940656, "internal_node_id": "0.0-100.0"}}, {"uniqueid": "MTK0112:3G5W44VEU8P34Y31RTYP07MUJFYGK6", "current_trial": 137, "dateTime": 1509162629960, "trialdata": {"rt": -1000, "stimulus": "/static/audio/wordpool/COSTUME.wav", "key_press": -1, "type": "PRES_AUD", "word": "costume", "wordID": 382, "conditions": [24, 800, "a", 24000], "trial": 3, "serialpos": 20, "trial_type": "single-audio", "trial_index": 137, "time_elapsed": 942335, "internal_node_id": "0.0-101.0"}}, {"uniqueid": "MTK0112:3G5W44VEU8P34Y31RTYP07MUJFYGK6", "current_trial": 138, "dateTime": 1509162631682, "trialdata": {"rt": -1000, "stimulus": "/static/audio/wordpool/SCARECROW.wav", "key_press": -1, "type": "PRES_AUD", "word": "scarecrow", "wordID": 1244, "conditions": [24, 800, "a", 24000], "trial": 3, "serialpos": 21, "trial_type": "single-audio", "trial_index": 138, "time_elapsed": 944057, "internal_node_id": "0.0-102.0"}}, {"uniqueid": "MTK0112:3G5W44VEU8P34Y31RTYP07MUJFYGK6", "current_trial": 139, "dateTime": 1509162633597, "trialdata": {"rt": -1000, "stimulus": "/static/audio/wordpool/FRIEND.wav", "key_press": -1, "type": "PRES_AUD", "word": "friend", "wordID": 605, "conditions": [24, 800, "a", 24000], "trial": 3, "serialpos": 22, "trial_type": "single-audio", "trial_index": 139, "time_elapsed": 945972, "internal_node_id": "0.0-103.0"}}, {"uniqueid": "MTK0112:3G5W44VEU8P34Y31RTYP07MUJFYGK6", "current_trial": 140, "dateTime": 1509162635261, "trialdata": {"rt": -1000, "stimulus": "/static/audio/wordpool/MOTEL.wav", "key_press": -1, "type": "PRES_AUD", "word": "motel", "wordID": 918, "conditions": [24, 800, "a", 24000], "trial": 3, "serialpos": 23, "trial_type": "single-audio", "trial_index": 140, "time_elapsed": 947636, "internal_node_id": "0.0-104.0"}}, {"uniqueid": "MTK0112:3G5W44VEU8P34Y31RTYP07MUJFYGK6", "current_trial": 141, "dateTime": 1509162636540, "trialdata": {"rt": -1, "stimulus": "", "key_press": -1, "type": "PRE_RECALL_DELAY", "trial_type": "single-stim", "trial_index": 141, "time_elapsed": 948914, "internal_node_id": "0.0-105.0-0.0"}}, {"uniqueid": "MTK0112:3G5W44VEU8P34Y31RTYP07MUJFYGK6", "current_trial": 142, "dateTime": 1509162637043, "trialdata": {"rt": -1000, "stimulus": "/static/audio/400Hz.wav", "key_press": -1, "type": "PRE_RECALL_ALERT", "trial_type": "single-audio", "trial_index": 142, "time_elapsed": 949418, "internal_node_id": "0.0-106.0"}}, {"uniqueid": "MTK0112:3G5W44VEU8P34Y31RTYP07MUJFYGK6", "current_trial": 143, "dateTime": 1509162697069, "trialdata": {"rt": [2861, 6826, 8752, 10924, 13548, 15775, 18007, 20966], "recwords": ["motel", "scarecrown", "friend", "highways", "friends", "statue", "sculpture", "candy"], "type": "FREE_RECALL", "conditions": [24, 800, "a", 24000], "trial": 3, "trial_type": "free-recall", "trial_index": 143, "time_elapsed": 1009433, "internal_node_id": "0.0-107.0-0.0"}}, {"uniqueid": "MTK0112:3G5W44VEU8P34Y31RTYP07MUJFYGK6", "current_trial": 144, "dateTime": 1509162701131, "trialdata": {"rt": 2057, "key_press": 32, "type": "INSTRUCTIONS", "trial_type": "text", "trial_index": 144, "time_elapsed": 1013503, "internal_node_id": "0.0-108.0"}}, {"uniqueid": "MTK0112:3G5W44VEU8P34Y31RTYP07MUJFYGK6", "current_trial": 145, "dateTime": 1509162715139, "trialdata": {"rt": [2802, 4616, 6694, 7969, 9765, 10945], "responses": ["26", "16", "14", "12", "10", "11"], "num1": [9, 4, 2, 2, 5, 9, 9], "num2": [9, 9, 7, 7, 2, 1, 5], "num3": [8, 3, 5, 3, 3, 1, 1], "type": "DISTRACTOR", "conditions": [24, 1600, "a", 12000], "trial": 4, "trial_type": "math-distractor", "trial_index": 145, "time_elapsed": 1027513, "internal_node_id": "0.0-109.0"}}, {"uniqueid": "MTK0112:3G5W44VEU8P34Y31RTYP07MUJFYGK6", "current_trial": 146, "dateTime": 1509162718150, "trialdata": {"rt": -1, "stimulus": "<p id=\"stim\">10</p>", "key_press": -1, "trial_type": "single-stim", "trial_index": 146, "time_elapsed": 1030524, "internal_node_id": "0.0-110.0-0.0"}}, {"uniqueid": "MTK0112:3G5W44VEU8P34Y31RTYP07MUJFYGK6", "current_trial": 147, "dateTime": 1509162719168, "trialdata": {"rt": -1, "stimulus": "<p id=\"stim\">9</p>", "key_press": -1, "trial_type": "single-stim", "trial_index": 147, "time_elapsed": 1031542, "internal_node_id": "0.0-110.0-1.0"}}, {"uniqueid": "MTK0112:3G5W44VEU8P34Y31RTYP07MUJFYGK6", "current_trial": 148, "dateTime": 1509162720171, "trialdata": {"rt": -1, "stimulus": "<p id=\"stim\">8</p>", "key_press": -1, "trial_type": "single-stim", "trial_index": 148, "time_elapsed": 1032546, "internal_node_id": "0.0-110.0-2.0"}}, {"uniqueid": "MTK0112:3G5W44VEU8P34Y31RTYP07MUJFYGK6", "current_trial": 149, "dateTime": 1509162721174, "trialdata": {"rt": -1, "stimulus": "<p id=\"stim\">7</p>", "key_press": -1, "trial_type": "single-stim", "trial_index": 149, "time_elapsed": 1033548, "internal_node_id": "0.0-110.0-3.0"}}, {"uniqueid": "MTK0112:3G5W44VEU8P34Y31RTYP07MUJFYGK6", "current_trial": 150, "dateTime": 1509162722184, "trialdata": {"rt": -1, "stimulus": "<p id=\"stim\">6</p>", "key_press": -1, "trial_type": "single-stim", "trial_index": 150, "time_elapsed": 1034559, "internal_node_id": "0.0-110.0-4.0"}}, {"uniqueid": "MTK0112:3G5W44VEU8P34Y31RTYP07MUJFYGK6", "current_trial": 151, "dateTime": 1509162723188, "trialdata": {"rt": -1, "stimulus": "<p id=\"stim\">5</p>", "key_press": -1, "trial_type": "single-stim", "trial_index": 151, "time_elapsed": 1035563, "internal_node_id": "0.0-110.0-5.0"}}, {"uniqueid": "MTK0112:3G5W44VEU8P34Y31RTYP07MUJFYGK6", "current_trial": 152, "dateTime": 1509162724189, "trialdata": {"rt": -1, "stimulus": "<p id=\"stim\">4</p>", "key_press": -1, "trial_type": "single-stim", "trial_index": 152, "time_elapsed": 1036564, "internal_node_id": "0.0-110.0-6.0"}}, {"uniqueid": "MTK0112:3G5W44VEU8P34Y31RTYP07MUJFYGK6", "current_trial": 153, "dateTime": 1509162725191, "trialdata": {"rt": -1, "stimulus": "<p id=\"stim\">3</p>", "key_press": -1, "trial_type": "single-stim", "trial_index": 153, "time_elapsed": 1037566, "internal_node_id": "0.0-110.0-7.0"}}, {"uniqueid": "MTK0112:3G5W44VEU8P34Y31RTYP07MUJFYGK6", "current_trial": 154, "dateTime": 1509162726192, "trialdata": {"rt": -1, "stimulus": "<p id=\"stim\">2</p>", "key_press": -1, "trial_type": "single-stim", "trial_index": 154, "time_elapsed": 1038567, "internal_node_id": "0.0-110.0-8.0"}}, {"uniqueid": "MTK0112:3G5W44VEU8P34Y31RTYP07MUJFYGK6", "current_trial": 155, "dateTime": 1509162727200, "trialdata": {"rt": -1, "stimulus": "<p id=\"stim\">1</p>", "key_press": -1, "trial_type": "single-stim", "trial_index": 155, "time_elapsed": 1039574, "internal_node_id": "0.0-110.0-9.0"}}, {"uniqueid": "MTK0112:3G5W44VEU8P34Y31RTYP07MUJFYGK6", "current_trial": 156, "dateTime": 1509162728713, "trialdata": {"rt": -1, "stimulus": "<p id=\"stim\">+</p>", "key_press": -1, "type": "FIXATION", "trial_type": "single-stim", "trial_index": 156, "time_elapsed": 1041088, "internal_node_id": "0.0-111.0-0.0"}}, {"uniqueid": "MTK0112:3G5W44VEU8P34Y31RTYP07MUJFYGK6", "current_trial": 157, "dateTime": 1509162731322, "trialdata": {"rt": -1000, "stimulus": "/static/audio/wordpool/KNAPSACK.wav", "key_press": -1, "type": "PRES_AUD", "word": "knapsack", "wordID": 782, "conditions": [24, 1600, "a", 12000], "trial": 4, "serialpos": 0, "trial_type": "single-audio", "trial_index": 157, "time_elapsed": 1043697, "internal_node_id": "0.0-112.0"}}, {"uniqueid": "MTK0112:3G5W44VEU8P34Y31RTYP07MUJFYGK6", "current_trial": 158, "dateTime": 1509162733850, "trialdata": {"rt": -1000, "stimulus": "/static/audio/wordpool/WIFE.wav", "key_press": -1, "type": "PRES_AUD", "word": "wife", "wordID": 1608, "conditions": [24, 1600, "a", 12000], "trial": 4, "serialpos": 1, "trial_type": "single-audio", "trial_index": 158, "time_elapsed": 1046224, "internal_node_id": "0.0-113.0"}}, {"uniqueid": "MTK0112:3G5W44VEU8P34Y31RTYP07MUJFYGK6", "current_trial": 159, "dateTime": 1509162736564, "trialdata": {"rt": -1000, "stimulus": "/static/audio/wordpool/BOYFRIEND.wav", "key_press": -1, "type": "PRES_AUD", "word": "boyfriend", "wordID": 161, "conditions": [24, 1600, "a", 12000], "trial": 4, "serialpos": 2, "trial_type": "single-audio", "trial_index": 159, "time_elapsed": 1048939, "internal_node_id": "0.0-114.0"}}, {"uniqueid": "MTK0112:3G5W44VEU8P34Y31RTYP07MUJFYGK6", "current_trial": 160, "dateTime": 1509162739046, "trialdata": {"rt": -1000, "stimulus": "/static/audio/wordpool/LOVER.wav", "key_press": -1, "type": "PRES_AUD", "word": "lover", "wordID": 845, "conditions": [24, 1600, "a", 12000], "trial": 4, "serialpos": 3, "trial_type": "single-audio", "trial_index": 160, "time_elapsed": 1051421, "internal_node_id": "0.0-115.0"}}, {"uniqueid": "MTK0112:3G5W44VEU8P34Y31RTYP07MUJFYGK6", "current_trial": 161, "dateTime": 1509162741572, "trialdata": {"rt": -1000, "stimulus": "/static/audio/wordpool/JELLY.wav", "key_press": -1, "type": "PRES_AUD", "word": "jelly", "wordID": 754, "conditions": [24, 1600, "a", 12000], "trial": 4, "serialpos": 4, "trial_type": "single-audio", "trial_index": 161, "time_elapsed": 1053947, "internal_node_id": "0.0-116.0"}}, {"uniqueid": "MTK0112:3G5W44VEU8P34Y31RTYP07MUJFYGK6", "current_trial": 162, "dateTime": 1509162744057, "trialdata": {"rt": -1000, "stimulus": "/static/audio/wordpool/SUNSET.wav", "key_press": -1, "type": "PRES_AUD", "word": "sunset", "wordID": 1407, "conditions": [24, 1600, "a", 12000], "trial": 4, "serialpos": 5, "trial_type": "single-audio", "trial_index": 162, "time_elapsed": 1056432, "internal_node_id": "0.0-117.0"}}, {"uniqueid": "MTK0112:3G5W44VEU8P34Y31RTYP07MUJFYGK6", "current_trial": 163, "dateTime": 1509162746547, "trialdata": {"rt": -1000, "stimulus": "/static/audio/wordpool/KNIFE.wav", "key_press": -1, "type": "PRES_AUD", "word": "knife", "wordID": 784, "conditions": [24, 1600, "a", 12000], "trial": 4, "serialpos": 6, "trial_type": "single-audio", "trial_index": 163, "time_elapsed": 1058922, "internal_node_id": "0.0-118.0"}}, {"uniqueid": "MTK0112:3G5W44VEU8P34Y31RTYP07MUJFYGK6", "current_trial": 164, "dateTime": 1509162749051, "trialdata": {"rt": -1000, "stimulus": "/static/audio/wordpool/GIRL.wav", "key_press": -1, "type": "PRES_AUD", "word": "girl", "wordID": 636, "conditions": [24, 1600, "a", 12000], "trial": 4, "serialpos": 7, "trial_type": "single-audio", "trial_index": 164, "time_elapsed": 1061426, "internal_node_id": "0.0-119.0"}}, {"uniqueid": "MTK0112:3G5W44VEU8P34Y31RTYP07MUJFYGK6", "current_trial": 165, "dateTime": 1509162751549, "trialdata": {"rt": -1000, "stimulus": "/static/audio/wordpool/BODY.wav", "key_press": -1, "type": "PRES_AUD", "word": "body", "wordID": 144, "conditions": [24, 1600, "a", 12000], "trial": 4, "serialpos": 8, "trial_type": "single-audio", "trial_index": 165, "time_elapsed": 1063924, "internal_node_id": "0.0-120.0"}}, {"uniqueid": "MTK0112:3G5W44VEU8P34Y31RTYP07MUJFYGK6", "current_trial": 166, "dateTime": 1509162754089, "trialdata": {"rt": -1000, "stimulus": "/static/audio/wordpool/PISTOL.wav", "key_press": -1, "type": "PRES_AUD", "word": "pistol", "wordID": 1074, "conditions": [24, 1600, "a", 12000], "trial": 4, "serialpos": 9, "trial_type": "single-audio", "trial_index": 166, "time_elapsed": 1066464, "internal_node_id": "0.0-121.0"}}, {"uniqueid": "MTK0112:3G5W44VEU8P34Y31RTYP07MUJFYGK6", "current_trial": 167, "dateTime": 1509162756583, "trialdata": {"rt": -1000, "stimulus": "/static/audio/wordpool/STICKER.wav", "key_press": -1, "type": "PRES_AUD", "word": "sticker", "wordID": 1381, "conditions": [24, 1600, "a", 12000], "trial": 4, "serialpos": 10, "trial_type": "single-audio", "trial_index": 167, "time_elapsed": 1068957, "internal_node_id": "0.0-122.0"}}, {"uniqueid": "MTK0112:3G5W44VEU8P34Y31RTYP07MUJFYGK6", "current_trial": 168, "dateTime": 1509162759241, "trialdata": {"rt": -1000, "stimulus": "/static/audio/wordpool/GRAVE.wav", "key_press": -1, "type": "PRES_AUD", "word": "grave", "wordID": 657, "conditions": [24, 1600, "a", 12000], "trial": 4, "serialpos": 11, "trial_type": "single-audio", "trial_index": 168, "time_elapsed": 1071616, "internal_node_id": "0.0-123.0"}}, {"uniqueid": "MTK0112:3G5W44VEU8P34Y31RTYP07MUJFYGK6", "current_trial": 169, "dateTime": 1509162761975, "trialdata": {"rt": -1000, "stimulus": "/static/audio/wordpool/BEAKER.wav", "key_press": -1, "type": "PRES_AUD", "word": "beaker", "wordID": 103, "conditions": [24, 1600, "a", 12000], "trial": 4, "serialpos": 12, "trial_type": "single-audio", "trial_index": 169, "time_elapsed": 1074349, "internal_node_id": "0.0-124.0"}}, {"uniqueid": "MTK0112:3G5W44VEU8P34Y31RTYP07MUJFYGK6", "current_trial": 170, "dateTime": 1509162764598, "trialdata": {"rt": -1000, "stimulus": "/static/audio/wordpool/SCALPEL.wav", "key_press": -1, "type": "PRES_AUD", "word": "scalpel", "wordID": 1242, "conditions": [24, 1600, "a", 12000], "trial": 4, "serialpos": 13, "trial_type": "single-audio", "trial_index": 170, "time_elapsed": 1076972, "internal_node_id": "0.0-125.0"}}, {"uniqueid": "MTK0112:3G5W44VEU8P34Y31RTYP07MUJFYGK6", "current_trial": 171, "dateTime": 1509162767001, "trialdata": {"rt": -1000, "stimulus": "/static/audio/wordpool/KIDNEY.wav", "key_press": -1, "type": "PRES_AUD", "word": "kidney", "wordID": 775, "conditions": [24, 1600, "a", 12000], "trial": 4, "serialpos": 14, "trial_type": "single-audio", "trial_index": 171, "time_elapsed": 1079376, "internal_node_id": "0.0-126.0"}}, {"uniqueid": "MTK0112:3G5W44VEU8P34Y31RTYP07MUJFYGK6", "current_trial": 172, "dateTime": 1509162769698, "trialdata": {"rt": -1000, "stimulus": "/static/audio/wordpool/BINDER.wav", "key_press": -1, "type": "PRES_AUD", "word": "binder", "wordID": 126, "conditions": [24, 1600, "a", 12000], "trial": 4, "serialpos": 15, "trial_type": "single-audio", "trial_index": 172, "time_elapsed": 1082073, "internal_node_id": "0.0-127.0"}}, {"uniqueid": "MTK0112:3G5W44VEU8P34Y31RTYP07MUJFYGK6", "current_trial": 173, "dateTime": 1509162772122, "trialdata": {"rt": -1000, "stimulus": "/static/audio/wordpool/SPOUSE.wav", "key_press": -1, "type": "PRES_AUD", "word": "spouse", "wordID": 1357, "conditions": [24, 1600, "a", 12000], "trial": 4, "serialpos": 16, "trial_type": "single-audio", "trial_index": 173, "time_elapsed": 1084497, "internal_node_id": "0.0-128.0"}}, {"uniqueid": "MTK0112:3G5W44VEU8P34Y31RTYP07MUJFYGK6", "current_trial": 174, "dateTime": 1509162774875, "trialdata": {"rt": -1000, "stimulus": "/static/audio/wordpool/GLOBE.wav", "key_press": -1, "type": "PRES_AUD", "word": "globe", "wordID": 640, "conditions": [24, 1600, "a", 12000], "trial": 4, "serialpos": 17, "trial_type": "single-audio", "trial_index": 174, "time_elapsed": 1087250, "internal_node_id": "0.0-129.0"}}, {"uniqueid": "MTK0112:3G5W44VEU8P34Y31RTYP07MUJFYGK6", "current_trial": 175, "dateTime": 1509162777667, "trialdata": {"rt": -1000, "stimulus": "/static/audio/wordpool/WORLD.wav", "key_press": -1, "type": "PRES_AUD", "word": "world", "wordID": 1621, "conditions": [24, 1600, "a", 12000], "trial": 4, "serialpos": 18, "trial_type": "single-audio", "trial_index": 175, "time_elapsed": 1090039, "internal_node_id": "0.0-130.0"}}, {"uniqueid": "MTK0112:3G5W44VEU8P34Y31RTYP07MUJFYGK6", "current_trial": 176, "dateTime": 1509162780215, "trialdata": {"rt": -1000, "stimulus": "/static/audio/wordpool/SPONGE.wav", "key_press": -1, "type": "PRES_AUD", "word": "sponge", "wordID": 1354, "conditions": [24, 1600, "a", 12000], "trial": 4, "serialpos": 19, "trial_type": "single-audio", "trial_index": 176, "time_elapsed": 1092589, "internal_node_id": "0.0-131.0"}}, {"uniqueid": "MTK0112:3G5W44VEU8P34Y31RTYP07MUJFYGK6", "current_trial": 177, "dateTime": 1509162782998, "trialdata": {"rt": -1000, "stimulus": "/static/audio/wordpool/ITEM.wav", "key_press": -1, "type": "PRES_AUD", "word": "item", "wordID": 745, "conditions": [24, 1600, "a", 12000], "trial": 4, "serialpos": 20, "trial_type": "single-audio", "trial_index": 177, "time_elapsed": 1095373, "internal_node_id": "0.0-132.0"}}, {"uniqueid": "MTK0112:3G5W44VEU8P34Y31RTYP07MUJFYGK6", "current_trial": 178, "dateTime": 1509162785660, "trialdata": {"rt": -1000, "stimulus": "/static/audio/wordpool/SHIRT.wav", "key_press": -1, "type": "PRES_AUD", "word": "shirt", "wordID": 1286, "conditions": [24, 1600, "a", 12000], "trial": 4, "serialpos": 21, "trial_type": "single-audio", "trial_index": 178, "time_elapsed": 1098035, "internal_node_id": "0.0-133.0"}}, {"uniqueid": "MTK0112:3G5W44VEU8P34Y31RTYP07MUJFYGK6", "current_trial": 179, "dateTime": 1509162788445, "trialdata": {"rt": -1000, "stimulus": "/static/audio/wordpool/RAZOR.wav", "key_press": -1, "type": "PRES_AUD", "word": "razor", "wordID": 1170, "conditions": [24, 1600, "a", 12000], "trial": 4, "serialpos": 22, "trial_type": "single-audio", "trial_index": 179, "time_elapsed": 1100819, "internal_node_id": "0.0-134.0"}}, {"uniqueid": "MTK0112:3G5W44VEU8P34Y31RTYP07MUJFYGK6", "current_trial": 180, "dateTime": 1509162791024, "trialdata": {"rt": -1000, "stimulus": "/static/audio/wordpool/RIVER.wav", "key_press": -1, "type": "PRES_AUD", "word": "river", "wordID": 1193, "conditions": [24, 1600, "a", 12000], "trial": 4, "serialpos": 23, "trial_type": "single-audio", "trial_index": 180, "time_elapsed": 1103399, "internal_node_id": "0.0-135.0"}}, {"uniqueid": "MTK0112:3G5W44VEU8P34Y31RTYP07MUJFYGK6", "current_trial": 181, "dateTime": 1509162792445, "trialdata": {"rt": -1, "stimulus": "", "key_press": -1, "type": "PRE_RECALL_DELAY", "trial_type": "single-stim", "trial_index": 181, "time_elapsed": 1104820, "internal_node_id": "0.0-136.0-0.0"}}, {"uniqueid": "MTK0112:3G5W44VEU8P34Y31RTYP07MUJFYGK6", "current_trial": 182, "dateTime": 1509162792947, "trialdata": {"rt": -1000, "stimulus": "/static/audio/400Hz.wav", "key_press": -1, "type": "PRE_RECALL_ALERT", "trial_type": "single-audio", "trial_index": 182, "time_elapsed": 1105322, "internal_node_id": "0.0-137.0"}}, {"uniqueid": "MTK0112:3G5W44VEU8P34Y31RTYP07MUJFYGK6", "current_trial": 183, "dateTime": 1509162852971, "trialdata": {"rt": [3423, 4969, 6788, 8928, 10483, 14914, 17011, 26276, 28218, 31655], "recwords": ["razor", "river", "sponge", "kidney", "girl", "boyfriend", "lover", "sticker", "grave", "sunset"], "type": "FREE_RECALL", "conditions": [24, 1600, "a", 12000], "trial": 4, "trial_type": "free-recall", "trial_index": 183, "time_elapsed": 1165329, "internal_node_id": "0.0-138.0-0.0"}}, {"uniqueid": "MTK0112:3G5W44VEU8P34Y31RTYP07MUJFYGK6", "current_trial": 184, "dateTime": 1509162856048, "trialdata": {"rt": 1074, "key_press": 32, "type": "INSTRUCTIONS", "trial_type": "text", "trial_index": 184, "time_elapsed": 1168423, "internal_node_id": "0.0-139.0"}}, {"uniqueid": "MTK0112:3G5W44VEU8P34Y31RTYP07MUJFYGK6", "current_trial": 185, "dateTime": 1509162882074, "trialdata": {"rt": [1698, 3031, 4203, 5488, 6856, 9153, 10644, 13702, 15263, 17397, 19080, 21845], "responses": ["15", "7", "9", "12", "12", "20", "21", "21", "16", "21", "17", "20"], "num1": [9, 1, 3, 1, 5, 9, 9, 8, 3, 9, 7, 9, 7], "num2": [3, 1, 3, 9, 4, 2, 9, 6, 7, 8, 6, 7, 8], "num3": [3, 5, 3, 2, 3, 9, 3, 7, 6, 4, 4, 4, 2], "type": "DISTRACTOR", "conditions": [12, 1600, "a", 24000], "trial": 5, "trial_type": "math-distractor", "trial_index": 185, "time_elapsed": 1194448, "internal_node_id": "0.0-140.0"}}, {"uniqueid": "MTK0112:3G5W44VEU8P34Y31RTYP07MUJFYGK6", "current_trial": 186, "dateTime": 1509162885077, "trialdata": {"rt": -1, "stimulus": "<p id=\"stim\">10</p>", "key_press": -1, "trial_type": "single-stim", "trial_index": 186, "time_elapsed": 1197452, "internal_node_id": "0.0-141.0-0.0"}}, {"uniqueid": "MTK0112:3G5W44VEU8P34Y31RTYP07MUJFYGK6", "current_trial": 187, "dateTime": 1509162886079, "trialdata": {"rt": -1, "stimulus": "<p id=\"stim\">9</p>", "key_press": -1, "trial_type": "single-stim", "trial_index": 187, "time_elapsed": 1198454, "internal_node_id": "0.0-141.0-1.0"}}, {"uniqueid": "MTK0112:3G5W44VEU8P34Y31RTYP07MUJFYGK6", "current_trial": 188, "dateTime": 1509162887081, "trialdata": {"rt": -1, "stimulus": "<p id=\"stim\">8</p>", "key_press": -1, "trial_type": "single-stim", "trial_index": 188, "time_elapsed": 1199456, "internal_node_id": "0.0-141.0-2.0"}}, {"uniqueid": "MTK0112:3G5W44VEU8P34Y31RTYP07MUJFYGK6", "current_trial": 189, "dateTime": 1509162888084, "trialdata": {"rt": -1, "stimulus": "<p id=\"stim\">7</p>", "key_press": -1, "trial_type": "single-stim", "trial_index": 189, "time_elapsed": 1200459, "internal_node_id": "0.0-141.0-3.0"}}, {"uniqueid": "MTK0112:3G5W44VEU8P34Y31RTYP07MUJFYGK6", "current_trial": 190, "dateTime": 1509162889085, "trialdata": {"rt": -1, "stimulus": "<p id=\"stim\">6</p>", "key_press": -1, "trial_type": "single-stim", "trial_index": 190, "time_elapsed": 1201460, "internal_node_id": "0.0-141.0-4.0"}}, {"uniqueid": "MTK0112:3G5W44VEU8P34Y31RTYP07MUJFYGK6", "current_trial": 191, "dateTime": 1509162890087, "trialdata": {"rt": -1, "stimulus": "<p id=\"stim\">5</p>", "key_press": -1, "trial_type": "single-stim", "trial_index": 191, "time_elapsed": 1202462, "internal_node_id": "0.0-141.0-5.0"}}, {"uniqueid": "MTK0112:3G5W44VEU8P34Y31RTYP07MUJFYGK6", "current_trial": 192, "dateTime": 1509162891089, "trialdata": {"rt": -1, "stimulus": "<p id=\"stim\">4</p>", "key_press": -1, "trial_type": "single-stim", "trial_index": 192, "time_elapsed": 1203464, "internal_node_id": "0.0-141.0-6.0"}}, {"uniqueid": "MTK0112:3G5W44VEU8P34Y31RTYP07MUJFYGK6", "current_trial": 193, "dateTime": 1509162892100, "trialdata": {"rt": -1, "stimulus": "<p id=\"stim\">3</p>", "key_press": -1, "trial_type": "single-stim", "trial_index": 193, "time_elapsed": 1204475, "internal_node_id": "0.0-141.0-7.0"}}, {"uniqueid": "MTK0112:3G5W44VEU8P34Y31RTYP07MUJFYGK6", "current_trial": 194, "dateTime": 1509162893139, "trialdata": {"rt": -1, "stimulus": "<p id=\"stim\">2</p>", "key_press": -1, "trial_type": "single-stim", "trial_index": 194, "time_elapsed": 1205514, "internal_node_id": "0.0-141.0-8.0"}}, {"uniqueid": "MTK0112:3G5W44VEU8P34Y31RTYP07MUJFYGK6", "current_trial": 195, "dateTime": 1509162894149, "trialdata": {"rt": -1, "stimulus": "<p id=\"stim\">1</p>", "key_press": -1, "trial_type": "single-stim", "trial_index": 195, "time_elapsed": 1206524, "internal_node_id": "0.0-141.0-9.0"}}, {"uniqueid": "MTK0112:3G5W44VEU8P34Y31RTYP07MUJFYGK6", "current_trial": 196, "dateTime": 1509162895663, "trialdata": {"rt": -1, "stimulus": "<p id=\"stim\">+</p>", "key_press": -1, "type": "FIXATION", "trial_type": "single-stim", "trial_index": 196, "time_elapsed": 1208038, "internal_node_id": "0.0-142.0-0.0"}}, {"uniqueid": "MTK0112:3G5W44VEU8P34Y31RTYP07MUJFYGK6", "current_trial": 197, "dateTime": 1509162898486, "trialdata": {"rt": -1000, "stimulus": "/static/audio/wordpool/PEPPER.wav", "key_press": -1, "type": "PRES_AUD", "word": "pepper", "wordID": 1046, "conditions": [12, 1600, "a", 24000], "trial": 5, "serialpos": 0, "trial_type": "single-audio", "trial_index": 197, "time_elapsed": 1210861, "internal_node_id": "0.0-143.0"}}, {"uniqueid": "MTK0112:3G5W44VEU8P34Y31RTYP07MUJFYGK6", "current_trial": 198, "dateTime": 1509162900939, "trialdata": {"rt": -1000, "stimulus": "/static/audio/wordpool/CHURCH.wav", "key_press": -1, "type": "PRES_AUD", "word": "church", "wordID": 306, "conditions": [12, 1600, "a", 24000], "trial": 5, "serialpos": 1, "trial_type": "single-audio", "trial_index": 198, "time_elapsed": 1213314, "internal_node_id": "0.0-144.0"}}, {"uniqueid": "MTK0112:3G5W44VEU8P34Y31RTYP07MUJFYGK6", "current_trial": 199, "dateTime": 1509162903486, "trialdata": {"rt": -1000, "stimulus": "/static/audio/wordpool/CHAPEL.wav", "key_press": -1, "type": "PRES_AUD", "word": "chapel", "wordID": 279, "conditions": [12, 1600, "a", 24000], "trial": 5, "serialpos": 2, "trial_type": "single-audio", "trial_index": 199, "time_elapsed": 1215860, "internal_node_id": "0.0-145.0"}}, {"uniqueid": "MTK0112:3G5W44VEU8P34Y31RTYP07MUJFYGK6", "current_trial": 200, "dateTime": 1509162906196, "trialdata": {"rt": -1000, "stimulus": "/static/audio/wordpool/LABEL.wav", "key_press": -1, "type": "PRES_AUD", "word": "label", "wordID": 789, "conditions": [12, 1600, "a", 24000], "trial": 5, "serialpos": 3, "trial_type": "single-audio", "trial_index": 200, "time_elapsed": 1218570, "internal_node_id": "0.0-146.0"}}, {"uniqueid": "MTK0112:3G5W44VEU8P34Y31RTYP07MUJFYGK6", "current_trial": 201, "dateTime": 1509162908903, "trialdata": {"rt": -1000, "stimulus": "/static/audio/wordpool/JOURNAL.wav", "key_press": -1, "type": "PRES_AUD", "word": "journal", "wordID": 759, "conditions": [12, 1600, "a", 24000], "trial": 5, "serialpos": 4, "trial_type": "single-audio", "trial_index": 201, "time_elapsed": 1221278, "internal_node_id": "0.0-147.0"}}, {"uniqueid": "MTK0112:3G5W44VEU8P34Y31RTYP07MUJFYGK6", "current_trial": 202, "dateTime": 1509162911341, "trialdata": {"rt": -1000, "stimulus": "/static/audio/wordpool/DRILL.wav", "key_press": -1, "type": "PRES_AUD", "word": "drill", "wordID": 496, "conditions": [12, 1600, "a", 24000], "trial": 5, "serialpos": 5, "trial_type": "single-audio", "trial_index": 202, "time_elapsed": 1223715, "internal_node_id": "0.0-148.0"}}, {"uniqueid": "MTK0112:3G5W44VEU8P34Y31RTYP07MUJFYGK6", "current_trial": 203, "dateTime": 1509162913785, "trialdata": {"rt": -1000, "stimulus": "/static/audio/wordpool/GAZELLE.wav", "key_press": -1, "type": "PRES_AUD", "word": "gazelle", "wordID": 627, "conditions": [12, 1600, "a", 24000], "trial": 5, "serialpos": 6, "trial_type": "single-audio", "trial_index": 203, "time_elapsed": 1226159, "internal_node_id": "0.0-149.0"}}, {"uniqueid": "MTK0112:3G5W44VEU8P34Y31RTYP07MUJFYGK6", "current_trial": 204, "dateTime": 1509162916510, "trialdata": {"rt": -1000, "stimulus": "/static/audio/wordpool/TRIBE.wav", "key_press": -1, "type": "PRES_AUD", "word": "tribe", "wordID": 1504, "conditions": [12, 1600, "a", 24000], "trial": 5, "serialpos": 7, "trial_type": "single-audio", "trial_index": 204, "time_elapsed": 1228884, "internal_node_id": "0.0-150.0"}}, {"uniqueid": "MTK0112:3G5W44VEU8P34Y31RTYP07MUJFYGK6", "current_trial": 205, "dateTime": 1509162919057, "trialdata": {"rt": -1000, "stimulus": "/static/audio/wordpool/FLUTE.wav", "key_press": -1, "type": "PRES_AUD", "word": "flute", "wordID": 584, "conditions": [12, 1600, "a", 24000], "trial": 5, "serialpos": 8, "trial_type": "single-audio", "trial_index": 205, "time_elapsed": 1231431, "internal_node_id": "0.0-151.0"}}, {"uniqueid": "MTK0112:3G5W44VEU8P34Y31RTYP07MUJFYGK6", "current_trial": 206, "dateTime": 1509162921770, "trialdata": {"rt": -1000, "stimulus": "/static/audio/wordpool/GARLIC.wav", "key_press": -1, "type": "PRES_AUD", "word": "garlic", "wordID": 623, "conditions": [12, 1600, "a", 24000], "trial": 5, "serialpos": 9, "trial_type": "single-audio", "trial_index": 206, "time_elapsed": 1234145, "internal_node_id": "0.0-152.0"}}, {"uniqueid": "MTK0112:3G5W44VEU8P34Y31RTYP07MUJFYGK6", "current_trial": 207, "dateTime": 1509162924299, "trialdata": {"rt": -1000, "stimulus": "/static/audio/wordpool/MISSILE.wav", "key_press": -1, "type": "PRES_AUD", "word": "missile", "wordID": 899, "conditions": [12, 1600, "a", 24000], "trial": 5, "serialpos": 10, "trial_type": "single-audio", "trial_index": 207, "time_elapsed": 1236674, "internal_node_id": "0.0-153.0"}}, {"uniqueid": "MTK0112:3G5W44VEU8P34Y31RTYP07MUJFYGK6", "current_trial": 208, "dateTime": 1509162926965, "trialdata": {"rt": -1000, "stimulus": "/static/audio/wordpool/AIRPLANE.wav", "key_press": -1, "type": "PRES_AUD", "word": "airplane", "wordID": 11, "conditions": [12, 1600, "a", 24000], "trial": 5, "serialpos": 11, "trial_type": "single-audio", "trial_index": 208, "time_elapsed": 1239335, "internal_node_id": "0.0-154.0"}}, {"uniqueid": "MTK0112:3G5W44VEU8P34Y31RTYP07MUJFYGK6", "current_trial": 209, "dateTime": 1509162928306, "trialdata": {"rt": -1, "stimulus": "", "key_press": -1, "type": "PRE_RECALL_DELAY", "trial_type": "single-stim", "trial_index": 209, "time_elapsed": 1240681, "internal_node_id": "0.0-155.0-0.0"}}, {"uniqueid": "MTK0112:3G5W44VEU8P34Y31RTYP07MUJFYGK6", "current_trial": 210, "dateTime": 1509162928841, "trialdata": {"rt": -1000, "stimulus": "/static/audio/400Hz.wav", "key_press": -1, "type": "PRE_RECALL_ALERT", "trial_type": "single-audio", "trial_index": 210, "time_elapsed": 1241216, "internal_node_id": "0.0-156.0"}}, {"uniqueid": "MTK0112:3G5W44VEU8P34Y31RTYP07MUJFYGK6", "current_trial": 211, "dateTime": 1509162988891, "trialdata": {"rt": [2897, 4815, 9917, 12188, 13851, 15487, 17237, 19267, 22048, 29303], "recwords": ["missile", "air", "airplane", "gazelle", "tribe", "label", "journal", "church", "chapelle", "drill"], "type": "FREE_RECALL", "conditions": [12, 1600, "a", 24000], "trial": 5, "trial_type": "free-recall", "trial_index": 211, "time_elapsed": 1301252, "internal_node_id": "0.0-157.0-0.0"}}, {"uniqueid": "MTK0112:3G5W44VEU8P34Y31RTYP07MUJFYGK6", "current_trial": 212, "dateTime": 1509162993043, "trialdata": {"rt": 2124, "key_press": 13, "type": "INSTRUCTIONS", "trial_type": "text", "trial_index": 212, "time_elapsed": 1305418, "internal_node_id": "0.0-158.0"}}, {"uniqueid": "MTK0112:3G5W44VEU8P34Y31RTYP07MUJFYGK6", "current_trial": 213, "dateTime": 1509163007086, "trialdata": {"rt": [2112, 4294, 6396, 7646, 9541, 11236], "responses": ["13", "25", "14", "11", "19", "16"], "num1": [2, 9, 2, 3, 5, 9, 4], "num2": [4, 9, 3, 7, 6, 6, 6], "num3": [7, 7, 9, 1, 8, 1, 4], "type": "DISTRACTOR", "conditions": [12, 1600, "a", 12000], "trial": 6, "trial_type": "math-distractor", "trial_index": 213, "time_elapsed": 1319460, "internal_node_id": "0.0-159.0"}}, {"uniqueid": "MTK0112:3G5W44VEU8P34Y31RTYP07MUJFYGK6", "current_trial": 214, "dateTime": 1509163010125, "trialdata": {"rt": -1, "stimulus": "<p id=\"stim\">10</p>", "key_press": -1, "trial_type": "single-stim", "trial_index": 214, "time_elapsed": 1322499, "internal_node_id": "0.0-160.0-0.0"}}, {"uniqueid": "MTK0112:3G5W44VEU8P34Y31RTYP07MUJFYGK6", "current_trial": 215, "dateTime": 1509163011127, "trialdata": {"rt": -1, "stimulus": "<p id=\"stim\">9</p>", "key_press": -1, "trial_type": "single-stim", "trial_index": 215, "time_elapsed": 1323502, "internal_node_id": "0.0-160.0-1.0"}}, {"uniqueid": "MTK0112:3G5W44VEU8P34Y31RTYP07MUJFYGK6", "current_trial": 216, "dateTime": 1509163012130, "trialdata": {"rt": -1, "stimulus": "<p id=\"stim\">8</p>", "key_press": -1, "trial_type": "single-stim", "trial_index": 216, "time_elapsed": 1324504, "internal_node_id": "0.0-160.0-2.0"}}, {"uniqueid": "MTK0112:3G5W44VEU8P34Y31RTYP07MUJFYGK6", "current_trial": 217, "dateTime": 1509163013148, "trialdata": {"rt": -1, "stimulus": "<p id=\"stim\">7</p>", "key_press": -1, "trial_type": "single-stim", "trial_index": 217, "time_elapsed": 1325523, "internal_node_id": "0.0-160.0-3.0"}}, {"uniqueid": "MTK0112:3G5W44VEU8P34Y31RTYP07MUJFYGK6", "current_trial": 218, "dateTime": 1509163014150, "trialdata": {"rt": -1, "stimulus": "<p id=\"stim\">6</p>", "key_press": -1, "trial_type": "single-stim", "trial_index": 218, "time_elapsed": 1326525, "internal_node_id": "0.0-160.0-4.0"}}, {"uniqueid": "MTK0112:3G5W44VEU8P34Y31RTYP07MUJFYGK6", "current_trial": 219, "dateTime": 1509163015166, "trialdata": {"rt": -1, "stimulus": "<p id=\"stim\">5</p>", "key_press": -1, "trial_type": "single-stim", "trial_index": 219, "time_elapsed": 1327541, "internal_node_id": "0.0-160.0-5.0"}}, {"uniqueid": "MTK0112:3G5W44VEU8P34Y31RTYP07MUJFYGK6", "current_trial": 220, "dateTime": 1509163016196, "trialdata": {"rt": -1, "stimulus": "<p id=\"stim\">4</p>", "key_press": -1, "trial_type": "single-stim", "trial_index": 220, "time_elapsed": 1328571, "internal_node_id": "0.0-160.0-6.0"}}, {"uniqueid": "MTK0112:3G5W44VEU8P34Y31RTYP07MUJFYGK6", "current_trial": 221, "dateTime": 1509163017199, "trialdata": {"rt": -1, "stimulus": "<p id=\"stim\">3</p>", "key_press": -1, "trial_type": "single-stim", "trial_index": 221, "time_elapsed": 1329574, "internal_node_id": "0.0-160.0-7.0"}}, {"uniqueid": "MTK0112:3G5W44VEU8P34Y31RTYP07MUJFYGK6", "current_trial": 222, "dateTime": 1509163018245, "trialdata": {"rt": -1, "stimulus": "<p id=\"stim\">2</p>", "key_press": -1, "trial_type": "single-stim", "trial_index": 222, "time_elapsed": 1330614, "internal_node_id": "0.0-160.0-8.0"}}, {"uniqueid": "MTK0112:3G5W44VEU8P34Y31RTYP07MUJFYGK6", "current_trial": 223, "dateTime": 1509163019258, "trialdata": {"rt": -1, "stimulus": "<p id=\"stim\">1</p>", "key_press": -1, "trial_type": "single-stim", "trial_index": 223, "time_elapsed": 1331632, "internal_node_id": "0.0-160.0-9.0"}}, {"uniqueid": "MTK0112:3G5W44VEU8P34Y31RTYP07MUJFYGK6", "current_trial": 224, "dateTime": 1509163020761, "trialdata": {"rt": -1, "stimulus": "<p id=\"stim\">+</p>", "key_press": -1, "type": "FIXATION", "trial_type": "single-stim", "trial_index": 224, "time_elapsed": 1333136, "internal_node_id": "0.0-161.0-0.0"}}, {"uniqueid": "MTK0112:3G5W44VEU8P34Y31RTYP07MUJFYGK6", "current_trial": 225, "dateTime": 1509163023313, "trialdata": {"rt": -1000, "stimulus": "/static/audio/wordpool/POLICE.wav", "key_press": -1, "type": "PRES_AUD", "word": "police", "wordID": 1097, "conditions": [12, 1600, "a", 12000], "trial": 6, "serialpos": 0, "trial_type": "single-audio", "trial_index": 225, "time_elapsed": 1335687, "internal_node_id": "0.0-162.0"}}, {"uniqueid": "MTK0112:3G5W44VEU8P34Y31RTYP07MUJFYGK6", "current_trial": 226, "dateTime": 1509163026053, "trialdata": {"rt": -1000, "stimulus": "/static/audio/wordpool/PATROL.wav", "key_press": -1, "type": "PRES_AUD", "word": "patrol", "wordID": 1026, "conditions": [12, 1600, "a", 12000], "trial": 6, "serialpos": 1, "trial_type": "single-audio", "trial_index": 226, "time_elapsed": 1338426, "internal_node_id": "0.0-163.0"}}, {"uniqueid": "MTK0112:3G5W44VEU8P34Y31RTYP07MUJFYGK6", "current_trial": 227, "dateTime": 1509163028667, "trialdata": {"rt": -1000, "stimulus": "/static/audio/wordpool/PIGEON.wav", "key_press": -1, "type": "PRES_AUD", "word": "pigeon", "wordID": 1064, "conditions": [12, 1600, "a", 12000], "trial": 6, "serialpos": 2, "trial_type": "single-audio", "trial_index": 227, "time_elapsed": 1341041, "internal_node_id": "0.0-164.0"}}, {"uniqueid": "MTK0112:3G5W44VEU8P34Y31RTYP07MUJFYGK6", "current_trial": 228, "dateTime": 1509163031355, "trialdata": {"rt": -1000, "stimulus": "/static/audio/wordpool/SHOULDER.wav", "key_press": -1, "type": "PRES_AUD", "word": "shoulder", "wordID": 1293, "conditions": [12, 1600, "a", 12000], "trial": 6, "serialpos": 3, "trial_type": "single-audio", "trial_index": 228, "time_elapsed": 1343730, "internal_node_id": "0.0-165.0"}}, {"uniqueid": "MTK0112:3G5W44VEU8P34Y31RTYP07MUJFYGK6", "current_trial": 229, "dateTime": 1509163034095, "trialdata": {"rt": -1000, "stimulus": "/static/audio/wordpool/CABBAGE.wav", "key_press": -1, "type": "PRES_AUD", "word": "cabbage", "wordID": 209, "conditions": [12, 1600, "a", 12000], "trial": 6, "serialpos": 4, "trial_type": "single-audio", "trial_index": 229, "time_elapsed": 1346470, "internal_node_id": "0.0-166.0"}}, {"uniqueid": "MTK0112:3G5W44VEU8P34Y31RTYP07MUJFYGK6", "current_trial": 230, "dateTime": 1509163036773, "trialdata": {"rt": -1000, "stimulus": "/static/audio/wordpool/WASP.wav", "key_press": -1, "type": "PRES_AUD", "word": "wasp", "wordID": 1592, "conditions": [12, 1600, "a", 12000], "trial": 6, "serialpos": 5, "trial_type": "single-audio", "trial_index": 230, "time_elapsed": 1349148, "internal_node_id": "0.0-167.0"}}, {"uniqueid": "MTK0112:3G5W44VEU8P34Y31RTYP07MUJFYGK6", "current_trial": 231, "dateTime": 1509163039348, "trialdata": {"rt": -1000, "stimulus": "/static/audio/wordpool/SUMMIT.wav", "key_press": -1, "type": "PRES_AUD", "word": "summit", "wordID": 1404, "conditions": [12, 1600, "a", 12000], "trial": 6, "serialpos": 6, "trial_type": "single-audio", "trial_index": 231, "time_elapsed": 1351723, "internal_node_id": "0.0-168.0"}}, {"uniqueid": "MTK0112:3G5W44VEU8P34Y31RTYP07MUJFYGK6", "current_trial": 232, "dateTime": 1509163041924, "trialdata": {"rt": -1000, "stimulus": "/static/audio/wordpool/SLUG.wav", "key_press": -1, "type": "PRES_AUD", "word": "slug", "wordID": 1328, "conditions": [12, 1600, "a", 12000], "trial": 6, "serialpos": 7, "trial_type": "single-audio", "trial_index": 232, "time_elapsed": 1354299, "internal_node_id": "0.0-169.0"}}, {"uniqueid": "MTK0112:3G5W44VEU8P34Y31RTYP07MUJFYGK6", "current_trial": 233, "dateTime": 1509163044536, "trialdata": {"rt": -1000, "stimulus": "/static/audio/wordpool/ANKLE.wav", "key_press": -1, "type": "PRES_AUD", "word": "ankle", "wordID": 23, "conditions": [12, 1600, "a", 12000], "trial": 6, "serialpos": 8, "trial_type": "single-audio", "trial_index": 233, "time_elapsed": 1356911, "internal_node_id": "0.0-170.0"}}, {"uniqueid": "MTK0112:3G5W44VEU8P34Y31RTYP07MUJFYGK6", "current_trial": 234, "dateTime": 1509163047017, "trialdata": {"rt": -1000, "stimulus": "/static/audio/wordpool/EAGLE.wav", "key_press": -1, "type": "PRES_AUD", "word": "eagle", "wordID": 511, "conditions": [12, 1600, "a", 12000], "trial": 6, "serialpos": 9, "trial_type": "single-audio", "trial_index": 234, "time_elapsed": 1359392, "internal_node_id": "0.0-171.0"}}, {"uniqueid": "MTK0112:3G5W44VEU8P34Y31RTYP07MUJFYGK6", "current_trial": 235, "dateTime": 1509163049570, "trialdata": {"rt": -1000, "stimulus": "/static/audio/wordpool/ROD.wav", "key_press": -1, "type": "PRES_AUD", "word": "rod", "wordID": 1202, "conditions": [12, 1600, "a", 12000], "trial": 6, "serialpos": 10, "trial_type": "single-audio", "trial_index": 235, "time_elapsed": 1361944, "internal_node_id": "0.0-172.0"}}, {"uniqueid": "MTK0112:3G5W44VEU8P34Y31RTYP07MUJFYGK6", "current_trial": 236, "dateTime": 1509163052265, "trialdata": {"rt": -1000, "stimulus": "/static/audio/wordpool/GUITAR.wav", "key_press": -1, "type": "PRES_AUD", "word": "guitar", "wordID": 669, "conditions": [12, 1600, "a", 12000], "trial": 6, "serialpos": 11, "trial_type": "single-audio", "trial_index": 236, "time_elapsed": 1364640, "internal_node_id": "0.0-173.0"}}, {"uniqueid": "MTK0112:3G5W44VEU8P34Y31RTYP07MUJFYGK6", "current_trial": 237, "dateTime": 1509163053595, "trialdata": {"rt": -1, "stimulus": "", "key_press": -1, "type": "PRE_RECALL_DELAY", "trial_type": "single-stim", "trial_index": 237, "time_elapsed": 1365970, "internal_node_id": "0.0-174.0-0.0"}}, {"uniqueid": "MTK0112:3G5W44VEU8P34Y31RTYP07MUJFYGK6", "current_trial": 238, "dateTime": 1509163054098, "trialdata": {"rt": -1000, "stimulus": "/static/audio/400Hz.wav", "key_press": -1, "type": "PRE_RECALL_ALERT", "trial_type": "single-audio", "trial_index": 238, "time_elapsed": 1366473, "internal_node_id": "0.0-175.0"}}, {"uniqueid": "MTK0112:3G5W44VEU8P34Y31RTYP07MUJFYGK6", "current_trial": 239, "dateTime": 1509163114119, "trialdata": {"rt": [5176, 7010, 8649, 11440, 13101, 15263, 17703, 20143, 36783], "recwords": ["drug", "guitar", "eagle", "was", "wasp", "police", "patrol", "shoulder", "guitar"], "type": "FREE_RECALL", "conditions": [12, 1600, "a", 12000], "trial": 6, "trial_type": "free-recall", "trial_index": 239, "time_elapsed": 1426481, "internal_node_id": "0.0-176.0-0.0"}}, {"uniqueid": "MTK0112:3G5W44VEU8P34Y31RTYP07MUJFYGK6", "current_trial": 240, "dateTime": 1509163117769, "trialdata": {"rt": 1648, "key_press": 13, "type": "INSTRUCTIONS", "trial_type": "text", "trial_index": 240, "time_elapsed": 1430143, "internal_node_id": "0.0-177.0"}}, {"uniqueid": "MTK0112:3G5W44VEU8P34Y31RTYP07MUJFYGK6", "current_trial": 241, "dateTime": 1509163131808, "trialdata": {"rt": [1765, 4263, 5752, 7590, 10020, 11274], "responses": ["21", "15", "18", "17", "21", "8"], "num1": [8, 6, 1, 8, 5, 2, 7], "num2": [8, 8, 8, 7, 7, 4, 8], "num3": [5, 1, 9, 2, 9, 2, 2], "type": "DISTRACTOR", "conditions": [24, 800, "v", 12000], "trial": 7, "trial_type": "math-distractor", "trial_index": 241, "time_elapsed": 1444183, "internal_node_id": "0.0-178.0"}}, {"uniqueid": "MTK0112:3G5W44VEU8P34Y31RTYP07MUJFYGK6", "current_trial": 242, "dateTime": 1509163134846, "trialdata": {"rt": -1, "stimulus": "<p id=\"stim\">10</p>", "key_press": -1, "trial_type": "single-stim", "trial_index": 242, "time_elapsed": 1447221, "internal_node_id": "0.0-179.0-0.0"}}, {"uniqueid": "MTK0112:3G5W44VEU8P34Y31RTYP07MUJFYGK6", "current_trial": 243, "dateTime": 1509163135850, "trialdata": {"rt": -1, "stimulus": "<p id=\"stim\">9</p>", "key_press": -1, "trial_type": "single-stim", "trial_index": 243, "time_elapsed": 1448225, "internal_node_id": "0.0-179.0-1.0"}}, {"uniqueid": "MTK0112:3G5W44VEU8P34Y31RTYP07MUJFYGK6", "current_trial": 244, "dateTime": 1509163136876, "trialdata": {"rt": -1, "stimulus": "<p id=\"stim\">8</p>", "key_press": -1, "trial_type": "single-stim", "trial_index": 244, "time_elapsed": 1449250, "internal_node_id": "0.0-179.0-2.0"}}, {"uniqueid": "MTK0112:3G5W44VEU8P34Y31RTYP07MUJFYGK6", "current_trial": 245, "dateTime": 1509163137902, "trialdata": {"rt": -1, "stimulus": "<p id=\"stim\">7</p>", "key_press": -1, "trial_type": "single-stim", "trial_index": 245, "time_elapsed": 1450277, "internal_node_id": "0.0-179.0-3.0"}}, {"uniqueid": "MTK0112:3G5W44VEU8P34Y31RTYP07MUJFYGK6", "current_trial": 246, "dateTime": 1509163138947, "trialdata": {"rt": -1, "stimulus": "<p id=\"stim\">6</p>", "key_press": -1, "trial_type": "single-stim", "trial_index": 246, "time_elapsed": 1451322, "internal_node_id": "0.0-179.0-4.0"}}, {"uniqueid": "MTK0112:3G5W44VEU8P34Y31RTYP07MUJFYGK6", "current_trial": 247, "dateTime": 1509163139955, "trialdata": {"rt": -1, "stimulus": "<p id=\"stim\">5</p>", "key_press": -1, "trial_type": "single-stim", "trial_index": 247, "time_elapsed": 1452328, "internal_node_id": "0.0-179.0-5.0"}}, {"uniqueid": "MTK0112:3G5W44VEU8P34Y31RTYP07MUJFYGK6", "current_trial": 248, "dateTime": 1509163140967, "trialdata": {"rt": -1, "stimulus": "<p id=\"stim\">4</p>", "key_press": -1, "trial_type": "single-stim", "trial_index": 248, "time_elapsed": 1453342, "internal_node_id": "0.0-179.0-6.0"}}, {"uniqueid": "MTK0112:3G5W44VEU8P34Y31RTYP07MUJFYGK6", "current_trial": 249, "dateTime": 1509163141969, "trialdata": {"rt": -1, "stimulus": "<p id=\"stim\">3</p>", "key_press": -1, "trial_type": "single-stim", "trial_index": 249, "time_elapsed": 1454343, "internal_node_id": "0.0-179.0-7.0"}}, {"uniqueid": "MTK0112:3G5W44VEU8P34Y31RTYP07MUJFYGK6", "current_trial": 250, "dateTime": 1509163142975, "trialdata": {"rt": -1, "stimulus": "<p id=\"stim\">2</p>", "key_press": -1, "trial_type": "single-stim", "trial_index": 250, "time_elapsed": 1455350, "internal_node_id": "0.0-179.0-8.0"}}, {"uniqueid": "MTK0112:3G5W44VEU8P34Y31RTYP07MUJFYGK6", "current_trial": 251, "dateTime": 1509163143978, "trialdata": {"rt": -1, "stimulus": "<p id=\"stim\">1</p>", "key_press": -1, "trial_type": "single-stim", "trial_index": 251, "time_elapsed": 1456353, "internal_node_id": "0.0-179.0-9.0"}}, {"uniqueid": "MTK0112:3G5W44VEU8P34Y31RTYP07MUJFYGK6", "current_trial": 252, "dateTime": 1509163145486, "trialdata": {"rt": -1, "stimulus": "<p id=\"stim\">+</p>", "key_press": -1, "type": "FIXATION", "trial_type": "single-stim", "trial_index": 252, "time_elapsed": 1457861, "internal_node_id": "0.0-180.0-0.0"}}, {"uniqueid": "MTK0112:3G5W44VEU8P34Y31RTYP07MUJFYGK6", "current_trial": 253, "dateTime": 1509163146305, "trialdata": {"rt": -1, "stimulus": "<p id=\"stim\">SANDWICH</p>", "key_press": -1, "type": "PRES_VIS", "word": "sandwich", "wordID": 1231, "conditions": [24, 800, "v", 12000], "trial": 7, "serialpos": 0, "trial_type": "single-stim", "trial_index": 253, "time_elapsed": 1458680, "internal_node_id": "0.0-181.0"}}, {"uniqueid": "MTK0112:3G5W44VEU8P34Y31RTYP07MUJFYGK6", "current_trial": 254, "dateTime": 1509163148074, "trialdata": {"rt": -1, "stimulus": "<p id=\"stim\">BACON</p>", "key_press": -1, "type": "PRES_VIS", "word": "bacon", "wordID": 66, "conditions": [24, 800, "v", 12000], "trial": 7, "serialpos": 1, "trial_type": "single-stim", "trial_index": 254, "time_elapsed": 1460449, "internal_node_id": "0.0-182.0"}}, {"uniqueid": "MTK0112:3G5W44VEU8P34Y31RTYP07MUJFYGK6", "current_trial": 255, "dateTime": 1509163150094, "trialdata": {"rt": -1, "stimulus": "<p id=\"stim\">FRUIT</p>", "key_press": -1, "type": "PRES_VIS", "word": "fruit", "wordID": 609, "conditions": [24, 800, "v", 12000], "trial": 7, "serialpos": 2, "trial_type": "single-stim", "trial_index": 255, "time_elapsed": 1462468, "internal_node_id": "0.0-183.0"}}, {"uniqueid": "MTK0112:3G5W44VEU8P34Y31RTYP07MUJFYGK6", "current_trial": 256, "dateTime": 1509163152040, "trialdata": {"rt": -1, "stimulus": "<p id=\"stim\">BEEF</p>", "key_press": -1, "type": "PRES_VIS", "word": "beef", "wordID": 112, "conditions": [24, 800, "v", 12000], "trial": 7, "serialpos": 3, "trial_type": "single-stim", "trial_index": 256, "time_elapsed": 1464415, "internal_node_id": "0.0-184.0"}}, {"uniqueid": "MTK0112:3G5W44VEU8P34Y31RTYP07MUJFYGK6", "current_trial": 257, "dateTime": 1509163153791, "trialdata": {"rt": -1, "stimulus": "<p id=\"stim\">SEAL</p>", "key_press": -1, "type": "PRES_VIS", "word": "seal", "wordID": 1261, "conditions": [24, 800, "v", 12000], "trial": 7, "serialpos": 4, "trial_type": "single-stim", "trial_index": 257, "time_elapsed": 1466165, "internal_node_id": "0.0-185.0"}}, {"uniqueid": "MTK0112:3G5W44VEU8P34Y31RTYP07MUJFYGK6", "current_trial": 258, "dateTime": 1509163155655, "trialdata": {"rt": -1, "stimulus": "<p id=\"stim\">SEAGULL</p>", "key_press": -1, "type": "PRES_VIS", "word": "seagull", "wordID": 1260, "conditions": [24, 800, "v", 12000], "trial": 7, "serialpos": 5, "trial_type": "single-stim", "trial_index": 258, "time_elapsed": 1468029, "internal_node_id": "0.0-186.0"}}, {"uniqueid": "MTK0112:3G5W44VEU8P34Y31RTYP07MUJFYGK6", "current_trial": 259, "dateTime": 1509163157513, "trialdata": {"rt": -1, "stimulus": "<p id=\"stim\">OINTMENT</p>", "key_press": -1, "type": "PRES_VIS", "word": "ointment", "wordID": 973, "conditions": [24, 800, "v", 12000], "trial": 7, "serialpos": 6, "trial_type": "single-stim", "trial_index": 259, "time_elapsed": 1469887, "internal_node_id": "0.0-187.0"}}, {"uniqueid": "MTK0112:3G5W44VEU8P34Y31RTYP07MUJFYGK6", "current_trial": 260, "dateTime": 1509163159258, "trialdata": {"rt": -1, "stimulus": "<p id=\"stim\">FLASHLIGHT</p>", "key_press": -1, "type": "PRES_VIS", "word": "flashlight", "wordID": 574, "conditions": [24, 800, "v", 12000], "trial": 7, "serialpos": 7, "trial_type": "single-stim", "trial_index": 260, "time_elapsed": 1471632, "internal_node_id": "0.0-188.0"}}, {"uniqueid": "MTK0112:3G5W44VEU8P34Y31RTYP07MUJFYGK6", "current_trial": 261, "dateTime": 1509163161011, "trialdata": {"rt": -1, "stimulus": "<p id=\"stim\">LAKE</p>", "key_press": -1, "type": "PRES_VIS", "word": "lake", "wordID": 795, "conditions": [24, 800, "v", 12000], "trial": 7, "serialpos": 8, "trial_type": "single-stim", "trial_index": 261, "time_elapsed": 1473386, "internal_node_id": "0.0-189.0"}}, {"uniqueid": "MTK0112:3G5W44VEU8P34Y31RTYP07MUJFYGK6", "current_trial": 262, "dateTime": 1509163162925, "trialdata": {"rt": -1, "stimulus": "<p id=\"stim\">GRAVEL</p>", "key_press": -1, "type": "PRES_VIS", "word": "gravel", "wordID": 658, "conditions": [24, 800, "v", 12000], "trial": 7, "serialpos": 9, "trial_type": "single-stim", "trial_index": 262, "time_elapsed": 1475300, "internal_node_id": "0.0-190.0"}}, {"uniqueid": "MTK0112:3G5W44VEU8P34Y31RTYP07MUJFYGK6", "current_trial": 263, "dateTime": 1509163164748, "trialdata": {"rt": -1, "stimulus": "<p id=\"stim\">APPLE</p>", "key_press": -1, "type": "PRES_VIS", "word": "apple", "wordID": 32, "conditions": [24, 800, "v", 12000], "trial": 7, "serialpos": 10, "trial_type": "single-stim", "trial_index": 263, "time_elapsed": 1477123, "internal_node_id": "0.0-191.0"}}, {"uniqueid": "MTK0112:3G5W44VEU8P34Y31RTYP07MUJFYGK6", "current_trial": 264, "dateTime": 1509163166555, "trialdata": {"rt": -1, "stimulus": "<p id=\"stim\">PORK</p>", "key_press": -1, "type": "PRES_VIS", "word": "pork", "wordID": 1107, "conditions": [24, 800, "v", 12000], "trial": 7, "serialpos": 11, "trial_type": "single-stim", "trial_index": 264, "time_elapsed": 1478930, "internal_node_id": "0.0-192.0"}}, {"uniqueid": "MTK0112:3G5W44VEU8P34Y31RTYP07MUJFYGK6", "current_trial": 265, "dateTime": 1509163168324, "trialdata": {"rt": -1, "stimulus": "<p id=\"stim\">COUCH</p>", "key_press": -1, "type": "PRES_VIS", "word": "couch", "wordID": 385, "conditions": [24, 800, "v", 12000], "trial": 7, "serialpos": 12, "trial_type": "single-stim", "trial_index": 265, "time_elapsed": 1480699, "internal_node_id": "0.0-193.0"}}, {"uniqueid": "MTK0112:3G5W44VEU8P34Y31RTYP07MUJFYGK6", "current_trial": 266, "dateTime": 1509163169934, "trialdata": {"rt": -1, "stimulus": "<p id=\"stim\">MATTRESS</p>", "key_press": -1, "type": "PRES_VIS", "word": "mattress", "wordID": 878, "conditions": [24, 800, "v", 12000], "trial": 7, "serialpos": 13, "trial_type": "single-stim", "trial_index": 266, "time_elapsed": 1482308, "internal_node_id": "0.0-194.0"}}, {"uniqueid": "MTK0112:3G5W44VEU8P34Y31RTYP07MUJFYGK6", "current_trial": 267, "dateTime": 1509163171855, "trialdata": {"rt": -1, "stimulus": "<p id=\"stim\">ATLAS</p>", "key_press": -1, "type": "PRES_VIS", "word": "atlas", "wordID": 52, "conditions": [24, 800, "v", 12000], "trial": 7, "serialpos": 14, "trial_type": "single-stim", "trial_index": 267, "time_elapsed": 1484230, "internal_node_id": "0.0-195.0"}}, {"uniqueid": "MTK0112:3G5W44VEU8P34Y31RTYP07MUJFYGK6", "current_trial": 268, "dateTime": 1509163173884, "trialdata": {"rt": -1, "stimulus": "<p id=\"stim\">BUNNY</p>", "key_press": -1, "type": "PRES_VIS", "word": "bunny", "wordID": 197, "conditions": [24, 800, "v", 12000], "trial": 7, "serialpos": 15, "trial_type": "single-stim", "trial_index": 268, "time_elapsed": 1486259, "internal_node_id": "0.0-196.0"}}, {"uniqueid": "MTK0112:3G5W44VEU8P34Y31RTYP07MUJFYGK6", "current_trial": 269, "dateTime": 1509163175791, "trialdata": {"rt": -1, "stimulus": "<p id=\"stim\">POSTAGE</p>", "key_press": -1, "type": "PRES_VIS", "word": "postage", "wordID": 1112, "conditions": [24, 800, "v", 12000], "trial": 7, "serialpos": 16, "trial_type": "single-stim", "trial_index": 269, "time_elapsed": 1488166, "internal_node_id": "0.0-197.0"}}, {"uniqueid": "MTK0112:3G5W44VEU8P34Y31RTYP07MUJFYGK6", "current_trial":