{"condition": 0, "counterbalance": 982, "assignmentId": "3FQ5JJ512MV9EQKNEXBKQRVRKPMNKJ", "workerId": "MTK0087", "hitId": "322ZSN9Z5GRK8H2A0Z5E3PG3Z3I4TN", "currenttrial": 625, "bonus": 0, "data": [{"uniqueid": "MTK0087:3FQ5JJ512MV9EQKNEXBKQRVRKPMNKJ", "current_trial": 0, "dateTime": 1509131036571, "trialdata": {"rt": 35811, "key_press": 13, "type": "INSTRUCTIONS", "trial_type": "text", "trial_index": 0, "time_elapsed": 35812, "internal_node_id": "0.0-0.0"}}, {"uniqueid": "MTK0087:3FQ5JJ512MV9EQKNEXBKQRVRKPMNKJ", "current_trial": 1, "dateTime": 1509131057330, "trialdata": {"rt": 20759, "key_press": 13, "type": "INSTRUCTIONS", "trial_type": "text", "trial_index": 1, "time_elapsed": 56571, "internal_node_id": "0.0-1.0"}}, {"uniqueid": "MTK0087:3FQ5JJ512MV9EQKNEXBKQRVRKPMNKJ", "current_trial": 2, "dateTime": 1509131061506, "trialdata": {"rt": [4170], "responses": ["ocean"], "type": "AUDIO_TEST", "trial_type": "audio-test", "trial_index": 2, "time_elapsed": 60747, "internal_node_id": "0.0-2.0"}}, {"uniqueid": "MTK0087:3FQ5JJ512MV9EQKNEXBKQRVRKPMNKJ", "current_trial": 3, "dateTime": 1509131068466, "trialdata": {"rt": [6958], "responses": ["crystal"], "type": "AUDIO_TEST", "trial_type": "audio-test", "trial_index": 3, "time_elapsed": 67707, "internal_node_id": "0.0-3.0"}}, {"uniqueid": "MTK0087:3FQ5JJ512MV9EQKNEXBKQRVRKPMNKJ", "current_trial": 4, "dateTime": 1509131073850, "trialdata": {"rt": [5382], "responses": ["spice"], "type": "AUDIO_TEST", "trial_type": "audio-test", "trial_index": 4, "time_elapsed": 73091, "internal_node_id": "0.0-4.0"}}, {"uniqueid": "MTK0087:3FQ5JJ512MV9EQKNEXBKQRVRKPMNKJ", "current_trial": 5, "dateTime": 1509131079682, "trialdata": {"rt": 5082, "key_press": 32, "type": "INSTRUCTIONS", "trial_type": "text", "trial_index": 5, "time_elapsed": 78923, "internal_node_id": "0.0-5.0"}}, {"uniqueid": "MTK0087:3FQ5JJ512MV9EQKNEXBKQRVRKPMNKJ", "current_trial": 6, "dateTime": 1509131156026, "trialdata": {"rt": 76344, "key_press": 32, "type": "INSTRUCTIONS", "trial_type": "text", "trial_index": 6, "time_elapsed": 155267, "internal_node_id": "0.0-6.0"}}, {"uniqueid": "MTK0087:3FQ5JJ512MV9EQKNEXBKQRVRKPMNKJ", "current_trial": 7, "dateTime": 1509131184946, "trialdata": {"rt": 28920, "key_press": 13, "type": "INSTRUCTIONS", "trial_type": "text", "trial_index": 7, "time_elapsed": 184187, "internal_node_id": "0.0-7.0"}}, {"uniqueid": "MTK0087:3FQ5JJ512MV9EQKNEXBKQRVRKPMNKJ", "current_trial": 8, "dateTime": 1509131200993, "trialdata": {"rt": 16047, "key_press": 13, "type": "INSTRUCTIONS", "trial_type": "text", "trial_index": 8, "time_elapsed": 200234, "internal_node_id": "0.0-8.0"}}, {"uniqueid": "MTK0087:3FQ5JJ512MV9EQKNEXBKQRVRKPMNKJ", "current_trial": 9, "dateTime": 1509131219996, "trialdata": {"rt": [6614, 8925, 11941], "responses": ["12", "10", "20"], "num1": [2, 1, 9, 9], "num2": [9, 5, 6, 4], "num3": [1, 4, 5, 4], "type": "DISTRACTOR", "conditions": [18, 1200, "v", 18000], "trial": 0, "trial_type": "math-distractor", "trial_index": 9, "time_elapsed": 219236, "internal_node_id": "0.0-9.0"}}, {"uniqueid": "MTK0087:3FQ5JJ512MV9EQKNEXBKQRVRKPMNKJ", "current_trial": 10, "dateTime": 1509131222996, "trialdata": {"rt": -1, "stimulus": "<p id=\"stim\">10</p>", "key_press": -1, "trial_type": "single-stim", "trial_index": 10, "time_elapsed": 222237, "internal_node_id": "0.0-10.0-0.0"}}, {"uniqueid": "MTK0087:3FQ5JJ512MV9EQKNEXBKQRVRKPMNKJ", "current_trial": 11, "dateTime": 1509131223997, "trialdata": {"rt": -1, "stimulus": "<p id=\"stim\">9</p>", "key_press": -1, "trial_type": "single-stim", "trial_index": 11, "time_elapsed": 223238, "internal_node_id": "0.0-10.0-1.0"}}, {"uniqueid": "MTK0087:3FQ5JJ512MV9EQKNEXBKQRVRKPMNKJ", "current_trial": 12, "dateTime": 1509131224998, "trialdata": {"rt": -1, "stimulus": "<p id=\"stim\">8</p>", "key_press": -1, "trial_type": "single-stim", "trial_index": 12, "time_elapsed": 224239, "internal_node_id": "0.0-10.0-2.0"}}, {"uniqueid": "MTK0087:3FQ5JJ512MV9EQKNEXBKQRVRKPMNKJ", "current_trial": 13, "dateTime": 1509131225998, "trialdata": {"rt": -1, "stimulus": "<p id=\"stim\">7</p>", "key_press": -1, "trial_type": "single-stim", "trial_index": 13, "time_elapsed": 225239, "internal_node_id": "0.0-10.0-3.0"}}, {"uniqueid": "MTK0087:3FQ5JJ512MV9EQKNEXBKQRVRKPMNKJ", "current_trial": 14, "dateTime": 1509131226998, "trialdata": {"rt": -1, "stimulus": "<p id=\"stim\">6</p>", "key_press": -1, "trial_type": "single-stim", "trial_index": 14, "time_elapsed": 226239, "internal_node_id": "0.0-10.0-4.0"}}, {"uniqueid": "MTK0087:3FQ5JJ512MV9EQKNEXBKQRVRKPMNKJ", "current_trial": 15, "dateTime": 1509131227998, "trialdata": {"rt": -1, "stimulus": "<p id=\"stim\">5</p>", "key_press": -1, "trial_type": "single-stim", "trial_index": 15, "time_elapsed": 227239, "internal_node_id": "0.0-10.0-5.0"}}, {"uniqueid": "MTK0087:3FQ5JJ512MV9EQKNEXBKQRVRKPMNKJ", "current_trial": 16, "dateTime": 1509131228999, "trialdata": {"rt": -1, "stimulus": "<p id=\"stim\">4</p>", "key_press": -1, "trial_type": "single-stim", "trial_index": 16, "time_elapsed": 228240, "internal_node_id": "0.0-10.0-6.0"}}, {"uniqueid": "MTK0087:3FQ5JJ512MV9EQKNEXBKQRVRKPMNKJ", "current_trial": 17, "dateTime": 1509131229999, "trialdata": {"rt": -1, "stimulus": "<p id=\"stim\">3</p>", "key_press": -1, "trial_type": "single-stim", "trial_index": 17, "time_elapsed": 229240, "internal_node_id": "0.0-10.0-7.0"}}, {"uniqueid": "MTK0087:3FQ5JJ512MV9EQKNEXBKQRVRKPMNKJ", "current_trial": 18, "dateTime": 1509131230999, "trialdata": {"rt": -1, "stimulus": "<p id=\"stim\">2</p>", "key_press": -1, "trial_type": "single-stim", "trial_index": 18, "time_elapsed": 230240, "internal_node_id": "0.0-10.0-8.0"}}, {"uniqueid": "MTK0087:3FQ5JJ512MV9EQKNEXBKQRVRKPMNKJ", "current_trial": 19, "dateTime": 1509131232000, "trialdata": {"rt": -1, "stimulus": "<p id=\"stim\">1</p>", "key_press": -1, "trial_type": "single-stim", "trial_index": 19, "time_elapsed": 231241, "internal_node_id": "0.0-10.0-9.0"}}, {"uniqueid": "MTK0087:3FQ5JJ512MV9EQKNEXBKQRVRKPMNKJ", "current_trial": 20, "dateTime": 1509131233501, "trialdata": {"rt": -1, "stimulus": "<p id=\"stim\">+</p>", "key_press": -1, "type": "FIXATION", "trial_type": "single-stim", "trial_index": 20, "time_elapsed": 232742, "internal_node_id": "0.0-11.0-0.0"}}, {"uniqueid": "MTK0087:3FQ5JJ512MV9EQKNEXBKQRVRKPMNKJ", "current_trial": 21, "dateTime": 1509131234701, "trialdata": {"rt": -1, "stimulus": "<p id=\"stim\">HEADBAND</p>", "key_press": -1, "type": "PRES_VIS", "word": "headband", "wordID": 695, "conditions": [18, 1200, "v", 18000], "trial": 0, "serialpos": 0, "trial_type": "single-stim", "trial_index": 21, "time_elapsed": 233942, "internal_node_id": "0.0-12.0"}}, {"uniqueid": "MTK0087:3FQ5JJ512MV9EQKNEXBKQRVRKPMNKJ", "current_trial": 22, "dateTime": 1509131237087, "trialdata": {"rt": -1, "stimulus": "<p id=\"stim\">BANK</p>", "key_press": -1, "type": "PRES_VIS", "word": "bank", "wordID": 82, "conditions": [18, 1200, "v", 18000], "trial": 0, "serialpos": 1, "trial_type": "single-stim", "trial_index": 22, "time_elapsed": 236328, "internal_node_id": "0.0-13.0"}}, {"uniqueid": "MTK0087:3FQ5JJ512MV9EQKNEXBKQRVRKPMNKJ", "current_trial": 23, "dateTime": 1509131239234, "trialdata": {"rt": -1, "stimulus": "<p id=\"stim\">MAPLE</p>", "key_press": -1, "type": "PRES_VIS", "word": "maple", "wordID": 865, "conditions": [18, 1200, "v", 18000], "trial": 0, "serialpos": 2, "trial_type": "single-stim", "trial_index": 23, "time_elapsed": 238475, "internal_node_id": "0.0-14.0"}}, {"uniqueid": "MTK0087:3FQ5JJ512MV9EQKNEXBKQRVRKPMNKJ", "current_trial": 24, "dateTime": 1509131241332, "trialdata": {"rt": -1, "stimulus": "<p id=\"stim\">BINDER</p>", "key_press": -1, "type": "PRES_VIS", "word": "binder", "wordID": 126, "conditions": [18, 1200, "v", 18000], "trial": 0, "serialpos": 3, "trial_type": "single-stim", "trial_index": 24, "time_elapsed": 240573, "internal_node_id": "0.0-15.0"}}, {"uniqueid": "MTK0087:3FQ5JJ512MV9EQKNEXBKQRVRKPMNKJ", "current_trial": 25, "dateTime": 1509131243383, "trialdata": {"rt": -1, "stimulus": "<p id=\"stim\">CANAL</p>", "key_press": -1, "type": "PRES_VIS", "word": "canal", "wordID": 225, "conditions": [18, 1200, "v", 18000], "trial": 0, "serialpos": 4, "trial_type": "single-stim", "trial_index": 25, "time_elapsed": 242624, "internal_node_id": "0.0-16.0"}}, {"uniqueid": "MTK0087:3FQ5JJ512MV9EQKNEXBKQRVRKPMNKJ", "current_trial": 26, "dateTime": 1509131245502, "trialdata": {"rt": -1, "stimulus": "<p id=\"stim\">POISON</p>", "key_press": -1, "type": "PRES_VIS", "word": "poison", "wordID": 1095, "conditions": [18, 1200, "v", 18000], "trial": 0, "serialpos": 5, "trial_type": "single-stim", "trial_index": 26, "time_elapsed": 244743, "internal_node_id": "0.0-17.0"}}, {"uniqueid": "MTK0087:3FQ5JJ512MV9EQKNEXBKQRVRKPMNKJ", "current_trial": 27, "dateTime": 1509131247693, "trialdata": {"rt": -1, "stimulus": "<p id=\"stim\">SWAMP</p>", "key_press": -1, "type": "PRES_VIS", "word": "swamp", "wordID": 1415, "conditions": [18, 1200, "v", 18000], "trial": 0, "serialpos": 6, "trial_type": "single-stim", "trial_index": 27, "time_elapsed": 246934, "internal_node_id": "0.0-18.0"}}, {"uniqueid": "MTK0087:3FQ5JJ512MV9EQKNEXBKQRVRKPMNKJ", "current_trial": 28, "dateTime": 1509131249902, "trialdata": {"rt": -1, "stimulus": "<p id=\"stim\">ORANGE</p>", "key_press": -1, "type": "PRES_VIS", "word": "orange", "wordID": 979, "conditions": [18, 1200, "v", 18000], "trial": 0, "serialpos": 7, "trial_type": "single-stim", "trial_index": 28, "time_elapsed": 249143, "internal_node_id": "0.0-19.0"}}, {"uniqueid": "MTK0087:3FQ5JJ512MV9EQKNEXBKQRVRKPMNKJ", "current_trial": 29, "dateTime": 1509131252121, "trialdata": {"rt": -1, "stimulus": "<p id=\"stim\">CONTRACT</p>", "key_press": -1, "type": "PRES_VIS", "word": "contract", "wordID": 367, "conditions": [18, 1200, "v", 18000], "trial": 0, "serialpos": 8, "trial_type": "single-stim", "trial_index": 29, "time_elapsed": 251362, "internal_node_id": "0.0-20.0"}}, {"uniqueid": "MTK0087:3FQ5JJ512MV9EQKNEXBKQRVRKPMNKJ", "current_trial": 30, "dateTime": 1509131254442, "trialdata": {"rt": -1, "stimulus": "<p id=\"stim\">CHAPEL</p>", "key_press": -1, "type": "PRES_VIS", "word": "chapel", "wordID": 279, "conditions": [18, 1200, "v", 18000], "trial": 0, "serialpos": 9, "trial_type": "single-stim", "trial_index": 30, "time_elapsed": 253683, "internal_node_id": "0.0-21.0"}}, {"uniqueid": "MTK0087:3FQ5JJ512MV9EQKNEXBKQRVRKPMNKJ", "current_trial": 31, "dateTime": 1509131256507, "trialdata": {"rt": -1, "stimulus": "<p id=\"stim\">PARTNER</p>", "key_press": -1, "type": "PRES_VIS", "word": "partner", "wordID": 1016, "conditions": [18, 1200, "v", 18000], "trial": 0, "serialpos": 10, "trial_type": "single-stim", "trial_index": 31, "time_elapsed": 255748, "internal_node_id": "0.0-22.0"}}, {"uniqueid": "MTK0087:3FQ5JJ512MV9EQKNEXBKQRVRKPMNKJ", "current_trial": 32, "dateTime": 1509131258604, "trialdata": {"rt": -1, "stimulus": "<p id=\"stim\">VALVE</p>", "key_press": -1, "type": "PRES_VIS", "word": "valve", "wordID": 1545, "conditions": [18, 1200, "v", 18000], "trial": 0, "serialpos": 11, "trial_type": "single-stim", "trial_index": 32, "time_elapsed": 257845, "internal_node_id": "0.0-23.0"}}, {"uniqueid": "MTK0087:3FQ5JJ512MV9EQKNEXBKQRVRKPMNKJ", "current_trial": 33, "dateTime": 1509131260843, "trialdata": {"rt": -1, "stimulus": "<p id=\"stim\">GAZELLE</p>", "key_press": -1, "type": "PRES_VIS", "word": "gazelle", "wordID": 627, "conditions": [18, 1200, "v", 18000], "trial": 0, "serialpos": 12, "trial_type": "single-stim", "trial_index": 33, "time_elapsed": 260084, "internal_node_id": "0.0-24.0"}}, {"uniqueid": "MTK0087:3FQ5JJ512MV9EQKNEXBKQRVRKPMNKJ", "current_trial": 34, "dateTime": 1509131262980, "trialdata": {"rt": -1, "stimulus": "<p id=\"stim\">ACTRESS</p>", "key_press": -1, "type": "PRES_VIS", "word": "actress", "wordID": 5, "conditions": [18, 1200, "v", 18000], "trial": 0, "serialpos": 13, "trial_type": "single-stim", "trial_index": 34, "time_elapsed": 262221, "internal_node_id": "0.0-25.0"}}, {"uniqueid": "MTK0087:3FQ5JJ512MV9EQKNEXBKQRVRKPMNKJ", "current_trial": 35, "dateTime": 1509131265080, "trialdata": {"rt": -1, "stimulus": "<p id=\"stim\">ARMY</p>", "key_press": -1, "type": "PRES_VIS", "word": "army", "wordID": 38, "conditions": [18, 1200, "v", 18000], "trial": 0, "serialpos": 14, "trial_type": "single-stim", "trial_index": 35, "time_elapsed": 264321, "internal_node_id": "0.0-26.0"}}, {"uniqueid": "MTK0087:3FQ5JJ512MV9EQKNEXBKQRVRKPMNKJ", "current_trial": 36, "dateTime": 1509131267449, "trialdata": {"rt": -1, "stimulus": "<p id=\"stim\">TEMPLE</p>", "key_press": -1, "type": "PRES_VIS", "word": "temple", "wordID": 1447, "conditions": [18, 1200, "v", 18000], "trial": 0, "serialpos": 15, "trial_type": "single-stim", "trial_index": 36, "time_elapsed": 266690, "internal_node_id": "0.0-27.0"}}, {"uniqueid": "MTK0087:3FQ5JJ512MV9EQKNEXBKQRVRKPMNKJ", "current_trial": 37, "dateTime": 1509131269720, "trialdata": {"rt": -1, "stimulus": "<p id=\"stim\">CAFE</p>", "key_press": -1, "type": "PRES_VIS", "word": "cafe", "wordID": 215, "conditions": [18, 1200, "v", 18000], "trial": 0, "serialpos": 16, "trial_type": "single-stim", "trial_index": 37, "time_elapsed": 268961, "internal_node_id": "0.0-28.0"}}, {"uniqueid": "MTK0087:3FQ5JJ512MV9EQKNEXBKQRVRKPMNKJ", "current_trial": 38, "dateTime": 1509131271765, "trialdata": {"rt": -1, "stimulus": "<p id=\"stim\">GARDEN</p>", "key_press": -1, "type": "PRES_VIS", "word": "garden", "wordID": 622, "conditions": [18, 1200, "v", 18000], "trial": 0, "serialpos": 17, "trial_type": "single-stim", "trial_index": 38, "time_elapsed": 271006, "internal_node_id": "0.0-29.0"}}, {"uniqueid": "MTK0087:3FQ5JJ512MV9EQKNEXBKQRVRKPMNKJ", "current_trial": 39, "dateTime": 1509131273938, "trialdata": {"rt": -1, "stimulus": "", "key_press": -1, "type": "PRE_RECALL_DELAY", "trial_type": "single-stim", "trial_index": 39, "time_elapsed": 273179, "internal_node_id": "0.0-30.0-0.0"}}, {"uniqueid": "MTK0087:3FQ5JJ512MV9EQKNEXBKQRVRKPMNKJ", "current_trial": 40, "dateTime": 1509131274439, "trialdata": {"rt": -1000, "stimulus": "/static/audio/400Hz.wav", "key_press": -1, "type": "PRE_RECALL_ALERT", "trial_type": "single-audio", "trial_index": 40, "time_elapsed": 273680, "internal_node_id": "0.0-31.0"}}, {"uniqueid": "MTK0087:3FQ5JJ512MV9EQKNEXBKQRVRKPMNKJ", "current_trial": 41, "dateTime": 1509131334441, "trialdata": {"rt": [3946, 5530, 8442, 13522, 16930], "recwords": ["orage", "army", "gazelle", "chapel", "actress"], "type": "FREE_RECALL", "conditions": [18, 1200, "v", 18000], "trial": 0, "trial_type": "free-recall", "trial_index": 41, "time_elapsed": 333681, "internal_node_id": "0.0-32.0-0.0"}}, {"uniqueid": "MTK0087:3FQ5JJ512MV9EQKNEXBKQRVRKPMNKJ", "current_trial": 42, "dateTime": 1509131338267, "trialdata": {"rt": 1825, "key_press": 32, "type": "INSTRUCTIONS", "trial_type": "text", "trial_index": 42, "time_elapsed": 337508, "internal_node_id": "0.0-33.0"}}, {"uniqueid": "MTK0087:3FQ5JJ512MV9EQKNEXBKQRVRKPMNKJ", "current_trial": 43, "dateTime": 1509131358268, "trialdata": {"rt": [5086, 9438, 13310, 15582], "responses": ["15", "22", "10", "10"], "num1": [4, 6, 4, 4, 6], "num2": [8, 7, 3, 1, 1], "num3": [3, 9, 3, 5, 9], "type": "DISTRACTOR", "conditions": [18, 1200, "a", 18000], "trial": 1, "trial_type": "math-distractor", "trial_index": 43, "time_elapsed": 357509, "internal_node_id": "0.0-34.0"}}, {"uniqueid": "MTK0087:3FQ5JJ512MV9EQKNEXBKQRVRKPMNKJ", "current_trial": 44, "dateTime": 1509131361269, "trialdata": {"rt": -1, "stimulus": "<p id=\"stim\">10</p>", "key_press": -1, "trial_type": "single-stim", "trial_index": 44, "time_elapsed": 360510, "internal_node_id": "0.0-35.0-0.0"}}, {"uniqueid": "MTK0087:3FQ5JJ512MV9EQKNEXBKQRVRKPMNKJ", "current_trial": 45, "dateTime": 1509131362270, "trialdata": {"rt": -1, "stimulus": "<p id=\"stim\">9</p>", "key_press": -1, "trial_type": "single-stim", "trial_index": 45, "time_elapsed": 361511, "internal_node_id": "0.0-35.0-1.0"}}, {"uniqueid": "MTK0087:3FQ5JJ512MV9EQKNEXBKQRVRKPMNKJ", "current_trial": 46, "dateTime": 1509131363270, "trialdata": {"rt": -1, "stimulus": "<p id=\"stim\">8</p>", "key_press": -1, "trial_type": "single-stim", "trial_index": 46, "time_elapsed": 362511, "internal_node_id": "0.0-35.0-2.0"}}, {"uniqueid": "MTK0087:3FQ5JJ512MV9EQKNEXBKQRVRKPMNKJ", "current_trial": 47, "dateTime": 1509131364271, "trialdata": {"rt": -1, "stimulus": "<p id=\"stim\">7</p>", "key_press": -1, "trial_type": "single-stim", "trial_index": 47, "time_elapsed": 363512, "internal_node_id": "0.0-35.0-3.0"}}, {"uniqueid": "MTK0087:3FQ5JJ512MV9EQKNEXBKQRVRKPMNKJ", "current_trial": 48, "dateTime": 1509131365271, "trialdata": {"rt": -1, "stimulus": "<p id=\"stim\">6</p>", "key_press": -1, "trial_type": "single-stim", "trial_index": 48, "time_elapsed": 364512, "internal_node_id": "0.0-35.0-4.0"}}, {"uniqueid": "MTK0087:3FQ5JJ512MV9EQKNEXBKQRVRKPMNKJ", "current_trial": 49, "dateTime": 1509131366271, "trialdata": {"rt": -1, "stimulus": "<p id=\"stim\">5</p>", "key_press": -1, "trial_type": "single-stim", "trial_index": 49, "time_elapsed": 365512, "internal_node_id": "0.0-35.0-5.0"}}, {"uniqueid": "MTK0087:3FQ5JJ512MV9EQKNEXBKQRVRKPMNKJ", "current_trial": 50, "dateTime": 1509131367271, "trialdata": {"rt": -1, "stimulus": "<p id=\"stim\">4</p>", "key_press": -1, "trial_type": "single-stim", "trial_index": 50, "time_elapsed": 366512, "internal_node_id": "0.0-35.0-6.0"}}, {"uniqueid": "MTK0087:3FQ5JJ512MV9EQKNEXBKQRVRKPMNKJ", "current_trial": 51, "dateTime": 1509131368271, "trialdata": {"rt": -1, "stimulus": "<p id=\"stim\">3</p>", "key_press": -1, "trial_type": "single-stim", "trial_index": 51, "time_elapsed": 367512, "internal_node_id": "0.0-35.0-7.0"}}, {"uniqueid": "MTK0087:3FQ5JJ512MV9EQKNEXBKQRVRKPMNKJ", "current_trial": 52, "dateTime": 1509131369271, "trialdata": {"rt": -1, "stimulus": "<p id=\"stim\">2</p>", "key_press": -1, "trial_type": "single-stim", "trial_index": 52, "time_elapsed": 368512, "internal_node_id": "0.0-35.0-8.0"}}, {"uniqueid": "MTK0087:3FQ5JJ512MV9EQKNEXBKQRVRKPMNKJ", "current_trial": 53, "dateTime": 1509131370271, "trialdata": {"rt": -1, "stimulus": "<p id=\"stim\">1</p>", "key_press": -1, "trial_type": "single-stim", "trial_index": 53, "time_elapsed": 369512, "internal_node_id": "0.0-35.0-9.0"}}, {"uniqueid": "MTK0087:3FQ5JJ512MV9EQKNEXBKQRVRKPMNKJ", "current_trial": 54, "dateTime": 1509131371771, "trialdata": {"rt": -1, "stimulus": "<p id=\"stim\">+</p>", "key_press": -1, "type": "FIXATION", "trial_type": "single-stim", "trial_index": 54, "time_elapsed": 371012, "internal_node_id": "0.0-36.0-0.0"}}, {"uniqueid": "MTK0087:3FQ5JJ512MV9EQKNEXBKQRVRKPMNKJ", "current_trial": 55, "dateTime": 1509131374091, "trialdata": {"rt": -1000, "stimulus": "/static/audio/wordpool/SKETCH.wav", "key_press": -1, "type": "PRES_AUD", "word": "sketch", "wordID": 1314, "conditions": [18, 1200, "a", 18000], "trial": 1, "serialpos": 0, "trial_type": "single-audio", "trial_index": 55, "time_elapsed": 373332, "internal_node_id": "0.0-37.0"}}, {"uniqueid": "MTK0087:3FQ5JJ512MV9EQKNEXBKQRVRKPMNKJ", "current_trial": 56, "dateTime": 1509131376471, "trialdata": {"rt": -1000, "stimulus": "/static/audio/wordpool/APRON.wav", "key_press": -1, "type": "PRES_AUD", "word": "apron", "wordID": 34, "conditions": [18, 1200, "a", 18000], "trial": 1, "serialpos": 1, "trial_type": "single-audio", "trial_index": 56, "time_elapsed": 375712, "internal_node_id": "0.0-38.0"}}, {"uniqueid": "MTK0087:3FQ5JJ512MV9EQKNEXBKQRVRKPMNKJ", "current_trial": 57, "dateTime": 1509131378842, "trialdata": {"rt": -1000, "stimulus": "/static/audio/wordpool/POSTAGE.wav", "key_press": -1, "type": "PRES_AUD", "word": "postage", "wordID": 1112, "conditions": [18, 1200, "a", 18000], "trial": 1, "serialpos": 2, "trial_type": "single-audio", "trial_index": 57, "time_elapsed": 378083, "internal_node_id": "0.0-39.0"}}, {"uniqueid": "MTK0087:3FQ5JJ512MV9EQKNEXBKQRVRKPMNKJ", "current_trial": 58, "dateTime": 1509131380904, "trialdata": {"rt": -1000, "stimulus": "/static/audio/wordpool/SNAIL.wav", "key_press": -1, "type": "PRES_AUD", "word": "snail", "wordID": 1331, "conditions": [18, 1200, "a", 18000], "trial": 1, "serialpos": 3, "trial_type": "single-audio", "trial_index": 58, "time_elapsed": 380144, "internal_node_id": "0.0-40.0"}}, {"uniqueid": "MTK0087:3FQ5JJ512MV9EQKNEXBKQRVRKPMNKJ", "current_trial": 59, "dateTime": 1509131383056, "trialdata": {"rt": -1000, "stimulus": "/static/audio/wordpool/PIMPLE.wav", "key_press": -1, "type": "PRES_AUD", "word": "pimple", "wordID": 1070, "conditions": [18, 1200, "a", 18000], "trial": 1, "serialpos": 4, "trial_type": "single-audio", "trial_index": 59, "time_elapsed": 382297, "internal_node_id": "0.0-41.0"}}, {"uniqueid": "MTK0087:3FQ5JJ512MV9EQKNEXBKQRVRKPMNKJ", "current_trial": 60, "dateTime": 1509131385126, "trialdata": {"rt": -1000, "stimulus": "/static/audio/wordpool/SALMON.wav", "key_press": -1, "type": "PRES_AUD", "word": "salmon", "wordID": 1226, "conditions": [18, 1200, "a", 18000], "trial": 1, "serialpos": 5, "trial_type": "single-audio", "trial_index": 60, "time_elapsed": 384367, "internal_node_id": "0.0-42.0"}}, {"uniqueid": "MTK0087:3FQ5JJ512MV9EQKNEXBKQRVRKPMNKJ", "current_trial": 61, "dateTime": 1509131387238, "trialdata": {"rt": -1000, "stimulus": "/static/audio/wordpool/COSTUME.wav", "key_press": -1, "type": "PRES_AUD", "word": "costume", "wordID": 382, "conditions": [18, 1200, "a", 18000], "trial": 1, "serialpos": 6, "trial_type": "single-audio", "trial_index": 61, "time_elapsed": 386479, "internal_node_id": "0.0-43.0"}}, {"uniqueid": "MTK0087:3FQ5JJ512MV9EQKNEXBKQRVRKPMNKJ", "current_trial": 62, "dateTime": 1509131389320, "trialdata": {"rt": -1000, "stimulus": "/static/audio/wordpool/PERMIT.wav", "key_press": -1, "type": "PRES_AUD", "word": "permit", "wordID": 1050, "conditions": [18, 1200, "a", 18000], "trial": 1, "serialpos": 7, "trial_type": "single-audio", "trial_index": 62, "time_elapsed": 388561, "internal_node_id": "0.0-44.0"}}, {"uniqueid": "MTK0087:3FQ5JJ512MV9EQKNEXBKQRVRKPMNKJ", "current_trial": 63, "dateTime": 1509131391468, "trialdata": {"rt": -1000, "stimulus": "/static/audio/wordpool/CHEST.wav", "key_press": -1, "type": "PRES_AUD", "word": "chest", "wordID": 294, "conditions": [18, 1200, "a", 18000], "trial": 1, "serialpos": 8, "trial_type": "single-audio", "trial_index": 63, "time_elapsed": 390709, "internal_node_id": "0.0-45.0"}}, {"uniqueid": "MTK0087:3FQ5JJ512MV9EQKNEXBKQRVRKPMNKJ", "current_trial": 64, "dateTime": 1509131393480, "trialdata": {"rt": -1000, "stimulus": "/static/audio/wordpool/SALT.wav", "key_press": -1, "type": "PRES_AUD", "word": "salt", "wordID": 1228, "conditions": [18, 1200, "a", 18000], "trial": 1, "serialpos": 9, "trial_type": "single-audio", "trial_index": 64, "time_elapsed": 392721, "internal_node_id": "0.0-46.0"}}, {"uniqueid": "MTK0087:3FQ5JJ512MV9EQKNEXBKQRVRKPMNKJ", "current_trial": 65, "dateTime": 1509131395841, "trialdata": {"rt": -1000, "stimulus": "/static/audio/wordpool/CRAYON.wav", "key_press": -1, "type": "PRES_AUD", "word": "crayon", "wordID": 400, "conditions": [18, 1200, "a", 18000], "trial": 1, "serialpos": 10, "trial_type": "single-audio", "trial_index": 65, "time_elapsed": 395082, "internal_node_id": "0.0-47.0"}}, {"uniqueid": "MTK0087:3FQ5JJ512MV9EQKNEXBKQRVRKPMNKJ", "current_trial": 66, "dateTime": 1509131397935, "trialdata": {"rt": -1000, "stimulus": "/static/audio/wordpool/BROOK.wav", "key_press": -1, "type": "PRES_AUD", "word": "brook", "wordID": 176, "conditions": [18, 1200, "a", 18000], "trial": 1, "serialpos": 11, "trial_type": "single-audio", "trial_index": 66, "time_elapsed": 397176, "internal_node_id": "0.0-48.0"}}, {"uniqueid": "MTK0087:3FQ5JJ512MV9EQKNEXBKQRVRKPMNKJ", "current_trial": 67, "dateTime": 1509131400271, "trialdata": {"rt": -1000, "stimulus": "/static/audio/wordpool/MUFFIN.wav", "key_press": -1, "type": "PRES_AUD", "word": "muffin", "wordID": 928, "conditions": [18, 1200, "a", 18000], "trial": 1, "serialpos": 12, "trial_type": "single-audio", "trial_index": 67, "time_elapsed": 399512, "internal_node_id": "0.0-49.0"}}, {"uniqueid": "MTK0087:3FQ5JJ512MV9EQKNEXBKQRVRKPMNKJ", "current_trial": 68, "dateTime": 1509131402520, "trialdata": {"rt": -1000, "stimulus": "/static/audio/wordpool/WITNESS.wav", "key_press": -1, "type": "PRES_AUD", "word": "witness", "wordID": 1617, "conditions": [18, 1200, "a", 18000], "trial": 1, "serialpos": 13, "trial_type": "single-audio", "trial_index": 68, "time_elapsed": 401760, "internal_node_id": "0.0-50.0"}}, {"uniqueid": "MTK0087:3FQ5JJ512MV9EQKNEXBKQRVRKPMNKJ", "current_trial": 69, "dateTime": 1509131404664, "trialdata": {"rt": -1000, "stimulus": "/static/audio/wordpool/GOBLIN.wav", "key_press": -1, "type": "PRES_AUD", "word": "goblin", "wordID": 644, "conditions": [18, 1200, "a", 18000], "trial": 1, "serialpos": 14, "trial_type": "single-audio", "trial_index": 69, "time_elapsed": 403905, "internal_node_id": "0.0-51.0"}}, {"uniqueid": "MTK0087:3FQ5JJ512MV9EQKNEXBKQRVRKPMNKJ", "current_trial": 70, "dateTime": 1509131406744, "trialdata": {"rt": -1000, "stimulus": "/static/audio/wordpool/BLOCKADE.wav", "key_press": -1, "type": "PRES_AUD", "word": "blockade", "wordID": 136, "conditions": [18, 1200, "a", 18000], "trial": 1, "serialpos": 15, "trial_type": "single-audio", "trial_index": 70, "time_elapsed": 405984, "internal_node_id": "0.0-52.0"}}, {"uniqueid": "MTK0087:3FQ5JJ512MV9EQKNEXBKQRVRKPMNKJ", "current_trial": 71, "dateTime": 1509131408852, "trialdata": {"rt": -1000, "stimulus": "/static/audio/wordpool/NOVEL.wav", "key_press": -1, "type": "PRES_AUD", "word": "novel", "wordID": 959, "conditions": [18, 1200, "a", 18000], "trial": 1, "serialpos": 16, "trial_type": "single-audio", "trial_index": 71, "time_elapsed": 408093, "internal_node_id": "0.0-53.0"}}, {"uniqueid": "MTK0087:3FQ5JJ512MV9EQKNEXBKQRVRKPMNKJ", "current_trial": 72, "dateTime": 1509131410955, "trialdata": {"rt": -1000, "stimulus": "/static/audio/wordpool/BUTCHER.wav", "key_press": -1, "type": "PRES_AUD", "word": "butcher", "wordID": 202, "conditions": [18, 1200, "a", 18000], "trial": 1, "serialpos": 17, "trial_type": "single-audio", "trial_index": 72, "time_elapsed": 410196, "internal_node_id": "0.0-54.0"}}, {"uniqueid": "MTK0087:3FQ5JJ512MV9EQKNEXBKQRVRKPMNKJ", "current_trial": 73, "dateTime": 1509131412183, "trialdata": {"rt": -1, "stimulus": "", "key_press": -1, "type": "PRE_RECALL_DELAY", "trial_type": "single-stim", "trial_index": 73, "time_elapsed": 411424, "internal_node_id": "0.0-55.0-0.0"}}, {"uniqueid": "MTK0087:3FQ5JJ512MV9EQKNEXBKQRVRKPMNKJ", "current_trial": 74, "dateTime": 1509131412688, "trialdata": {"rt": -1000, "stimulus": "/static/audio/400Hz.wav", "key_press": -1, "type": "PRE_RECALL_ALERT", "trial_type": "single-audio", "trial_index": 74, "time_elapsed": 411929, "internal_node_id": "0.0-56.0"}}, {"uniqueid": "MTK0087:3FQ5JJ512MV9EQKNEXBKQRVRKPMNKJ", "current_trial": 75, "dateTime": 1509131472691, "trialdata": {"rt": [2432, 3784, 5936, 8040, 11824, 14648, 18720, 41945], "recwords": ["novel", "butcher", "goblin", "crayon", "pimple", "snail", "chest", "apron"], "type": "FREE_RECALL", "conditions": [18, 1200, "a", 18000], "trial": 1, "trial_type": "free-recall", "trial_index": 75, "time_elapsed": 471931, "internal_node_id": "0.0-57.0-0.0"}}, {"uniqueid": "MTK0087:3FQ5JJ512MV9EQKNEXBKQRVRKPMNKJ", "current_trial": 76, "dateTime": 1509131509600, "trialdata": {"rt": 34908, "key_press": 13, "type": "INSTRUCTIONS", "trial_type": "text", "trial_index": 76, "time_elapsed": 508840, "internal_node_id": "0.0-58.0"}}, {"uniqueid": "MTK0087:3FQ5JJ512MV9EQKNEXBKQRVRKPMNKJ", "current_trial": 77, "dateTime": 1509131522602, "trialdata": {"rt": [2449, 4857, 7265, 8889], "responses": ["16", "12", "8", "19"], "num1": [4, 3, 1, 5, 3], "num2": [6, 8, 4, 5, 8], "num3": [6, 1, 3, 9, 4], "type": "DISTRACTOR", "conditions": [24, 1600, "v", 12000], "trial": 2, "trial_type": "math-distractor", "trial_index": 77, "time_elapsed": 521843, "internal_node_id": "0.0-59.0"}}, {"uniqueid": "MTK0087:3FQ5JJ512MV9EQKNEXBKQRVRKPMNKJ", "current_trial": 78, "dateTime": 1509131525602, "trialdata": {"rt": -1, "stimulus": "<p id=\"stim\">10</p>", "key_press": -1, "trial_type": "single-stim", "trial_index": 78, "time_elapsed": 524843, "internal_node_id": "0.0-60.0-0.0"}}, {"uniqueid": "MTK0087:3FQ5JJ512MV9EQKNEXBKQRVRKPMNKJ", "current_trial": 79, "dateTime": 1509131526602, "trialdata": {"rt": -1, "stimulus": "<p id=\"stim\">9</p>", "key_press": -1, "trial_type": "single-stim", "trial_index": 79, "time_elapsed": 525843, "internal_node_id": "0.0-60.0-1.0"}}, {"uniqueid": "MTK0087:3FQ5JJ512MV9EQKNEXBKQRVRKPMNKJ", "current_trial": 80, "dateTime": 1509131527602, "trialdata": {"rt": -1, "stimulus": "<p id=\"stim\">8</p>", "key_press": -1, "trial_type": "single-stim", "trial_index": 80, "time_elapsed": 526843, "internal_node_id": "0.0-60.0-2.0"}}, {"uniqueid": "MTK0087:3FQ5JJ512MV9EQKNEXBKQRVRKPMNKJ", "current_trial": 81, "dateTime": 1509131528602, "trialdata": {"rt": -1, "stimulus": "<p id=\"stim\">7</p>", "key_press": -1, "trial_type": "single-stim", "trial_index": 81, "time_elapsed": 527843, "internal_node_id": "0.0-60.0-3.0"}}, {"uniqueid": "MTK0087:3FQ5JJ512MV9EQKNEXBKQRVRKPMNKJ", "current_trial": 82, "dateTime": 1509131529602, "trialdata": {"rt": -1, "stimulus": "<p id=\"stim\">6</p>", "key_press": -1, "trial_type": "single-stim", "trial_index": 82, "time_elapsed": 528843, "internal_node_id": "0.0-60.0-4.0"}}, {"uniqueid": "MTK0087:3FQ5JJ512MV9EQKNEXBKQRVRKPMNKJ", "current_trial": 83, "dateTime": 1509131530603, "trialdata": {"rt": -1, "stimulus": "<p id=\"stim\">5</p>", "key_press": -1, "trial_type": "single-stim", "trial_index": 83, "time_elapsed": 529844, "internal_node_id": "0.0-60.0-5.0"}}, {"uniqueid": "MTK0087:3FQ5JJ512MV9EQKNEXBKQRVRKPMNKJ", "current_trial": 84, "dateTime": 1509131531603, "trialdata": {"rt": -1, "stimulus": "<p id=\"stim\">4</p>", "key_press": -1, "trial_type": "single-stim", "trial_index": 84, "time_elapsed": 530844, "internal_node_id": "0.0-60.0-6.0"}}, {"uniqueid": "MTK0087:3FQ5JJ512MV9EQKNEXBKQRVRKPMNKJ", "current_trial": 85, "dateTime": 1509131532604, "trialdata": {"rt": -1, "stimulus": "<p id=\"stim\">3</p>", "key_press": -1, "trial_type": "single-stim", "trial_index": 85, "time_elapsed": 531845, "internal_node_id": "0.0-60.0-7.0"}}, {"uniqueid": "MTK0087:3FQ5JJ512MV9EQKNEXBKQRVRKPMNKJ", "current_trial": 86, "dateTime": 1509131533605, "trialdata": {"rt": -1, "stimulus": "<p id=\"stim\">2</p>", "key_press": -1, "trial_type": "single-stim", "trial_index": 86, "time_elapsed": 532846, "internal_node_id": "0.0-60.0-8.0"}}, {"uniqueid": "MTK0087:3FQ5JJ512MV9EQKNEXBKQRVRKPMNKJ", "current_trial": 87, "dateTime": 1509131534606, "trialdata": {"rt": -1, "stimulus": "<p id=\"stim\">1</p>", "key_press": -1, "trial_type": "single-stim", "trial_index": 87, "time_elapsed": 533847, "internal_node_id": "0.0-60.0-9.0"}}, {"uniqueid": "MTK0087:3FQ5JJ512MV9EQKNEXBKQRVRKPMNKJ", "current_trial": 88, "dateTime": 1509131536106, "trialdata": {"rt": -1, "stimulus": "<p id=\"stim\">+</p>", "key_press": -1, "type": "FIXATION", "trial_type": "single-stim", "trial_index": 88, "time_elapsed": 535347, "internal_node_id": "0.0-61.0-0.0"}}, {"uniqueid": "MTK0087:3FQ5JJ512MV9EQKNEXBKQRVRKPMNKJ", "current_trial": 89, "dateTime": 1509131537706, "trialdata": {"rt": -1, "stimulus": "<p id=\"stim\">EMPIRE</p>", "key_press": -1, "type": "PRES_VIS", "word": "empire", "wordID": 529, "conditions": [24, 1600, "v", 12000], "trial": 2, "serialpos": 0, "trial_type": "single-stim", "trial_index": 89, "time_elapsed": 536947, "internal_node_id": "0.0-62.0"}}, {"uniqueid": "MTK0087:3FQ5JJ512MV9EQKNEXBKQRVRKPMNKJ", "current_trial": 90, "dateTime": 1509131540346, "trialdata": {"rt": -1, "stimulus": "<p id=\"stim\">SILK</p>", "key_press": -1, "type": "PRES_VIS", "word": "silk", "wordID": 1306, "conditions": [24, 1600, "v", 12000], "trial": 2, "serialpos": 1, "trial_type": "single-stim", "trial_index": 90, "time_elapsed": 539587, "internal_node_id": "0.0-63.0"}}, {"uniqueid": "MTK0087:3FQ5JJ512MV9EQKNEXBKQRVRKPMNKJ", "current_trial": 91, "dateTime": 1509131542870, "trialdata": {"rt": -1, "stimulus": "<p id=\"stim\">GYMNAST</p>", "key_press": -1, "type": "PRES_VIS", "word": "gymnast", "wordID": 674, "conditions": [24, 1600, "v", 12000], "trial": 2, "serialpos": 2, "trial_type": "single-stim", "trial_index": 91, "time_elapsed": 542111, "internal_node_id": "0.0-64.0"}}, {"uniqueid": "MTK0087:3FQ5JJ512MV9EQKNEXBKQRVRKPMNKJ", "current_trial": 92, "dateTime": 1509131545395, "trialdata": {"rt": -1, "stimulus": "<p id=\"stim\">SKIRT</p>", "key_press": -1, "type": "PRES_VIS", "word": "skirt", "wordID": 1318, "conditions": [24, 1600, "v", 12000], "trial": 2, "serialpos": 3, "trial_type": "single-stim", "trial_index": 92, "time_elapsed": 544636, "internal_node_id": "0.0-65.0"}}, {"uniqueid": "MTK0087:3FQ5JJ512MV9EQKNEXBKQRVRKPMNKJ", "current_trial": 93, "dateTime": 1509131547971, "trialdata": {"rt": -1, "stimulus": "<p id=\"stim\">RIFLE</p>", "key_press": -1, "type": "PRES_VIS", "word": "rifle", "wordID": 1191, "conditions": [24, 1600, "v", 12000], "trial": 2, "serialpos": 4, "trial_type": "single-stim", "trial_index": 93, "time_elapsed": 547212, "internal_node_id": "0.0-66.0"}}, {"uniqueid": "MTK0087:3FQ5JJ512MV9EQKNEXBKQRVRKPMNKJ", "current_trial": 94, "dateTime": 1509131550433, "trialdata": {"rt": -1, "stimulus": "<p id=\"stim\">GHETTO</p>", "key_press": -1, "type": "PRES_VIS", "word": "ghetto", "wordID": 632, "conditions": [24, 1600, "v", 12000], "trial": 2, "serialpos": 5, "trial_type": "single-stim", "trial_index": 94, "time_elapsed": 549674, "internal_node_id": "0.0-67.0"}}, {"uniqueid": "MTK0087:3FQ5JJ512MV9EQKNEXBKQRVRKPMNKJ", "current_trial": 95, "dateTime": 1509131552882, "trialdata": {"rt": -1, "stimulus": "<p id=\"stim\">SWIMMER</p>", "key_press": -1, "type": "PRES_VIS", "word": "swimmer", "wordID": 1419, "conditions": [24, 1600, "v", 12000], "trial": 2, "serialpos": 6, "trial_type": "single-stim", "trial_index": 95, "time_elapsed": 552123, "internal_node_id": "0.0-68.0"}}, {"uniqueid": "MTK0087:3FQ5JJ512MV9EQKNEXBKQRVRKPMNKJ", "current_trial": 96, "dateTime": 1509131555506, "trialdata": {"rt": -1, "stimulus": "<p id=\"stim\">CHILD</p>", "key_press": -1, "type": "PRES_VIS", "word": "child", "wordID": 298, "conditions": [24, 1600, "v", 12000], "trial": 2, "serialpos": 7, "trial_type": "single-stim", "trial_index": 96, "time_elapsed": 554747, "internal_node_id": "0.0-69.0"}}, {"uniqueid": "MTK0087:3FQ5JJ512MV9EQKNEXBKQRVRKPMNKJ", "current_trial": 97, "dateTime": 1509131557976, "trialdata": {"rt": -1, "stimulus": "<p id=\"stim\">INFANT</p>", "key_press": -1, "type": "PRES_VIS", "word": "infant", "wordID": 736, "conditions": [24, 1600, "v", 12000], "trial": 2, "serialpos": 8, "trial_type": "single-stim", "trial_index": 97, "time_elapsed": 557217, "internal_node_id": "0.0-70.0"}}, {"uniqueid": "MTK0087:3FQ5JJ512MV9EQKNEXBKQRVRKPMNKJ", "current_trial": 98, "dateTime": 1509131560440, "trialdata": {"rt": -1, "stimulus": "<p id=\"stim\">VIRUS</p>", "key_press": -1, "type": "PRES_VIS", "word": "virus", "wordID": 1571, "conditions": [24, 1600, "v", 12000], "trial": 2, "serialpos": 9, "trial_type": "single-stim", "trial_index": 98, "time_elapsed": 559681, "internal_node_id": "0.0-71.0"}}, {"uniqueid": "MTK0087:3FQ5JJ512MV9EQKNEXBKQRVRKPMNKJ", "current_trial": 99, "dateTime": 1509131563010, "trialdata": {"rt": -1, "stimulus": "<p id=\"stim\">FUNGUS</p>", "key_press": -1, "type": "PRES_VIS", "word": "fungus", "wordID": 613, "conditions": [24, 1600, "v", 12000], "trial": 2, "serialpos": 10, "trial_type": "single-stim", "trial_index": 99, "time_elapsed": 562251, "internal_node_id": "0.0-72.0"}}, {"uniqueid": "MTK0087:3FQ5JJ512MV9EQKNEXBKQRVRKPMNKJ", "current_trial": 100, "dateTime": 1509131565609, "trialdata": {"rt": -1, "stimulus": "<p id=\"stim\">LOVER</p>", "key_press": -1, "type": "PRES_VIS", "word": "lover", "wordID": 845, "conditions": [24, 1600, "v", 12000], "trial": 2, "serialpos": 11, "trial_type": "single-stim", "trial_index": 100, "time_elapsed": 564850, "internal_node_id": "0.0-73.0"}}, {"uniqueid": "MTK0087:3FQ5JJ512MV9EQKNEXBKQRVRKPMNKJ", "current_trial": 101, "dateTime": 1509131568271, "trialdata": {"rt": -1, "stimulus": "<p id=\"stim\">GRAVE</p>", "key_press": -1, "type": "PRES_VIS", "word": "grave", "wordID": 657, "conditions": [24, 1600, "v", 12000], "trial": 2, "serialpos": 12, "trial_type": "single-stim", "trial_index": 101, "time_elapsed": 567512, "internal_node_id": "0.0-74.0"}}, {"uniqueid": "MTK0087:3FQ5JJ512MV9EQKNEXBKQRVRKPMNKJ", "current_trial": 102, "dateTime": 1509131570881, "trialdata": {"rt": -1, "stimulus": "<p id=\"stim\">KIDNEY</p>", "key_press": -1, "type": "PRES_VIS", "word": "kidney", "wordID": 775, "conditions": [24, 1600, "v", 12000], "trial": 2, "serialpos": 13, "trial_type": "single-stim", "trial_index": 102, "time_elapsed": 570122, "internal_node_id": "0.0-75.0"}}, {"uniqueid": "MTK0087:3FQ5JJ512MV9EQKNEXBKQRVRKPMNKJ", "current_trial": 103, "dateTime": 1509131573515, "trialdata": {"rt": -1, "stimulus": "<p id=\"stim\">NURSE</p>", "key_press": -1, "type": "PRES_VIS", "word": "nurse", "wordID": 962, "conditions": [24, 1600, "v", 12000], "trial": 2, "serialpos": 14, "trial_type": "single-stim", "trial_index": 103, "time_elapsed": 572756, "internal_node_id": "0.0-76.0"}}, {"uniqueid": "MTK0087:3FQ5JJ512MV9EQKNEXBKQRVRKPMNKJ", "current_trial": 104, "dateTime": 1509131575972, "trialdata": {"rt": -1, "stimulus": "<p id=\"stim\">SIBLING</p>", "key_press": -1, "type": "PRES_VIS", "word": "sibling", "wordID": 1300, "conditions": [24, 1600, "v", 12000], "trial": 2, "serialpos": 15, "trial_type": "single-stim", "trial_index": 104, "time_elapsed": 575213, "internal_node_id": "0.0-77.0"}}, {"uniqueid": "MTK0087:3FQ5JJ512MV9EQKNEXBKQRVRKPMNKJ", "current_trial": 105, "dateTime": 1509131578415, "trialdata": {"rt": -1, "stimulus": "<p id=\"stim\">OYSTER</p>", "key_press": -1, "type": "PRES_VIS", "word": "oyster", "wordID": 994, "conditions": [24, 1600, "v", 12000], "trial": 2, "serialpos": 16, "trial_type": "single-stim", "trial_index": 105, "time_elapsed": 577656, "internal_node_id": "0.0-78.0"}}, {"uniqueid": "MTK0087:3FQ5JJ512MV9EQKNEXBKQRVRKPMNKJ", "current_trial": 106, "dateTime": 1509131581110, "trialdata": {"rt": -1, "stimulus": "<p id=\"stim\">LETTUCE</p>", "key_press": -1, "type": "PRES_VIS", "word": "lettuce", "wordID": 813, "conditions": [24, 1600, "v", 12000], "trial": 2, "serialpos": 17, "trial_type": "single-stim", "trial_index": 106, "time_elapsed": 580351, "internal_node_id": "0.0-79.0"}}, {"uniqueid": "MTK0087:3FQ5JJ512MV9EQKNEXBKQRVRKPMNKJ", "current_trial": 107, "dateTime": 1509131583644, "trialdata": {"rt": -1, "stimulus": "<p id=\"stim\">BANJO</p>", "key_press": -1, "type": "PRES_VIS", "word": "banjo", "wordID": 81, "conditions": [24, 1600, "v", 12000], "trial": 2, "serialpos": 18, "trial_type": "single-stim", "trial_index": 107, "time_elapsed": 582885, "internal_node_id": "0.0-80.0"}}, {"uniqueid": "MTK0087:3FQ5JJ512MV9EQKNEXBKQRVRKPMNKJ", "current_trial": 108, "dateTime": 1509131586282, "trialdata": {"rt": -1, "stimulus": "<p id=\"stim\">LILY</p>", "key_press": -1, "type": "PRES_VIS", "word": "lily", "wordID": 820, "conditions": [24, 1600, "v", 12000], "trial": 2, "serialpos": 19, "trial_type": "single-stim", "trial_index": 108, "time_elapsed": 585523, "internal_node_id": "0.0-81.0"}}, {"uniqueid": "MTK0087:3FQ5JJ512MV9EQKNEXBKQRVRKPMNKJ", "current_trial": 109, "dateTime": 1509131588823, "trialdata": {"rt": -1, "stimulus": "<p id=\"stim\">FLOWER</p>", "key_press": -1, "type": "PRES_VIS", "word": "flower", "wordID": 583, "conditions": [24, 1600, "v", 12000], "trial": 2, "serialpos": 20, "trial_type": "single-stim", "trial_index": 109, "time_elapsed": 588064, "internal_node_id": "0.0-82.0"}}, {"uniqueid": "MTK0087:3FQ5JJ512MV9EQKNEXBKQRVRKPMNKJ", "current_trial": 110, "dateTime": 1509131591620, "trialdata": {"rt": -1, "stimulus": "<p id=\"stim\">BLENDER</p>", "key_press": -1, "type": "PRES_VIS", "word": "blender", "wordID": 135, "conditions": [24, 1600, "v", 12000], "trial": 2, "serialpos": 21, "trial_type": "single-stim", "trial_index": 110, "time_elapsed": 590861, "internal_node_id": "0.0-83.0"}}, {"uniqueid": "MTK0087:3FQ5JJ512MV9EQKNEXBKQRVRKPMNKJ", "current_trial": 111, "dateTime": 1509131594024, "trialdata": {"rt": -1, "stimulus": "<p id=\"stim\">FOOT</p>", "key_press": -1, "type": "PRES_VIS", "word": "foot", "wordID": 589, "conditions": [24, 1600, "v", 12000], "trial": 2, "serialpos": 22, "trial_type": "single-stim", "trial_index": 111, "time_elapsed": 593265, "internal_node_id": "0.0-84.0"}}, {"uniqueid": "MTK0087:3FQ5JJ512MV9EQKNEXBKQRVRKPMNKJ", "current_trial": 112, "dateTime": 1509131596549, "trialdata": {"rt": -1, "stimulus": "<p id=\"stim\">GUITAR</p>", "key_press": -1, "type": "PRES_VIS", "word": "guitar", "wordID": 669, "conditions": [24, 1600, "v", 12000], "trial": 2, "serialpos": 23, "trial_type": "single-stim", "trial_index": 112, "time_elapsed": 595790, "internal_node_id": "0.0-85.0"}}, {"uniqueid": "MTK0087:3FQ5JJ512MV9EQKNEXBKQRVRKPMNKJ", "current_trial": 113, "dateTime": 1509131598944, "trialdata": {"rt": -1, "stimulus": "", "key_press": -1, "type": "PRE_RECALL_DELAY", "trial_type": "single-stim", "trial_index": 113, "time_elapsed": 598185, "internal_node_id": "0.0-86.0-0.0"}}, {"uniqueid": "MTK0087:3FQ5JJ512MV9EQKNEXBKQRVRKPMNKJ", "current_trial": 114, "dateTime": 1509131599446, "trialdata": {"rt": -1000, "stimulus": "/static/audio/400Hz.wav", "key_press": -1, "type": "PRE_RECALL_ALERT", "trial_type": "single-audio", "trial_index": 114, "time_elapsed": 598687, "internal_node_id": "0.0-87.0"}}, {"uniqueid": "MTK0087:3FQ5JJ512MV9EQKNEXBKQRVRKPMNKJ", "current_trial": 115, "dateTime": 1509131659450, "trialdata": {"rt": [3178, 4202, 5602, 7474, 8874, 12330, 17434, 18266, 23123, 35099, 36395, 44883, 47339], "recwords": ["guitar", "foot", "banjo", "lily", "flower", "lettuce", "empire", "silk", "gymnast", "sibling", "oyster", "nurse", "kidney"], "type": "FREE_RECALL", "conditions": [24, 1600, "v", 12000], "trial": 2, "trial_type": "free-recall", "trial_index": 115, "time_elapsed": 658690, "internal_node_id": "0.0-88.0-0.0"}}, {"uniqueid": "MTK0087:3FQ5JJ512MV9EQKNEXBKQRVRKPMNKJ", "current_trial": 116, "dateTime": 1509131662866, "trialdata": {"rt": 1416, "key_press": 32, "type": "INSTRUCTIONS", "trial_type": "text", "trial_index": 116, "time_elapsed": 662107, "internal_node_id": "0.0-89.0"}}, {"uniqueid": "MTK0087:3FQ5JJ512MV9EQKNEXBKQRVRKPMNKJ", "current_trial": 117, "dateTime": 1509131676867, "trialdata": {"rt": [5519, 10055], "responses": ["20", "13"], "num1": [7, 8, 3], "num2": [6, 4, 3], "num3": [7, 1, 4], "type": "DISTRACTOR", "conditions": [12, 800, "a", 12000], "trial": 3, "trial_type": "math-distractor", "trial_index": 117, "time_elapsed": 676108, "internal_node_id": "0.0-90.0"}}, {"uniqueid": "MTK0087:3FQ5JJ512MV9EQKNEXBKQRVRKPMNKJ", "current_trial": 118, "dateTime": 1509131679868, "trialdata": {"rt": -1, "stimulus": "<p id=\"stim\">10</p>", "key_press": -1, "trial_type": "single-stim", "trial_index": 118, "time_elapsed": 679109, "internal_node_id": "0.0-91.0-0.0"}}, {"uniqueid": "MTK0087:3FQ5JJ512MV9EQKNEXBKQRVRKPMNKJ", "current_trial": 119, "dateTime": 1509131680867, "trialdata": {"rt": -1, "stimulus": "<p id=\"stim\">9</p>", "key_press": -1, "trial_type": "single-stim", "trial_index": 119, "time_elapsed": 680108, "internal_node_id": "0.0-91.0-1.0"}}, {"uniqueid": "MTK0087:3FQ5JJ512MV9EQKNEXBKQRVRKPMNKJ", "current_trial": 120, "dateTime": 1509131681867, "trialdata": {"rt": -1, "stimulus": "<p id=\"stim\">8</p>", "key_press": -1, "trial_type": "single-stim", "trial_index": 120, "time_elapsed": 681108, "internal_node_id": "0.0-91.0-2.0"}}, {"uniqueid": "MTK0087:3FQ5JJ512MV9EQKNEXBKQRVRKPMNKJ", "current_trial": 121, "dateTime": 1509131682867, "trialdata": {"rt": -1, "stimulus": "<p id=\"stim\">7</p>", "key_press": -1, "trial_type": "single-stim", "trial_index": 121, "time_elapsed": 682108, "internal_node_id": "0.0-91.0-3.0"}}, {"uniqueid": "MTK0087:3FQ5JJ512MV9EQKNEXBKQRVRKPMNKJ", "current_trial": 122, "dateTime": 1509131683867, "trialdata": {"rt": -1, "stimulus": "<p id=\"stim\">6</p>", "key_press": -1, "trial_type": "single-stim", "trial_index": 122, "time_elapsed": 683108, "internal_node_id": "0.0-91.0-4.0"}}, {"uniqueid": "MTK0087:3FQ5JJ512MV9EQKNEXBKQRVRKPMNKJ", "current_trial": 123, "dateTime": 1509131684867, "trialdata": {"rt": -1, "stimulus": "<p id=\"stim\">5</p>", "key_press": -1, "trial_type": "single-stim", "trial_index": 123, "time_elapsed": 684108, "internal_node_id": "0.0-91.0-5.0"}}, {"uniqueid": "MTK0087:3FQ5JJ512MV9EQKNEXBKQRVRKPMNKJ", "current_trial": 124, "dateTime": 1509131685867, "trialdata": {"rt": -1, "stimulus": "<p id=\"stim\">4</p>", "key_press": -1, "trial_type": "single-stim", "trial_index": 124, "time_elapsed": 685108, "internal_node_id": "0.0-91.0-6.0"}}, {"uniqueid": "MTK0087:3FQ5JJ512MV9EQKNEXBKQRVRKPMNKJ", "current_trial": 125, "dateTime": 1509131686868, "trialdata": {"rt": -1, "stimulus": "<p id=\"stim\">3</p>", "key_press": -1, "trial_type": "single-stim", "trial_index": 125, "time_elapsed": 686109, "internal_node_id": "0.0-91.0-7.0"}}, {"uniqueid": "MTK0087:3FQ5JJ512MV9EQKNEXBKQRVRKPMNKJ", "current_trial": 126, "dateTime": 1509131687869, "trialdata": {"rt": -1, "stimulus": "<p id=\"stim\">2</p>", "key_press": -1, "trial_type": "single-stim", "trial_index": 126, "time_elapsed": 687110, "internal_node_id": "0.0-91.0-8.0"}}, {"uniqueid": "MTK0087:3FQ5JJ512MV9EQKNEXBKQRVRKPMNKJ", "current_trial": 127, "dateTime": 1509131688870, "trialdata": {"rt": -1, "stimulus": "<p id=\"stim\">1</p>", "key_press": -1, "trial_type": "single-stim", "trial_index": 127, "time_elapsed": 688111, "internal_node_id": "0.0-91.0-9.0"}}, {"uniqueid": "MTK0087:3FQ5JJ512MV9EQKNEXBKQRVRKPMNKJ", "current_trial": 128, "dateTime": 1509131690371, "trialdata": {"rt": -1, "stimulus": "<p id=\"stim\">+</p>", "key_press": -1, "type": "FIXATION", "trial_type": "single-stim", "trial_index": 128, "time_elapsed": 689612, "internal_node_id": "0.0-92.0-0.0"}}, {"uniqueid": "MTK0087:3FQ5JJ512MV9EQKNEXBKQRVRKPMNKJ", "current_trial": 129, "dateTime": 1509131692186, "trialdata": {"rt": -1000, "stimulus": "/static/audio/wordpool/LIGHTNING.wav", "key_press": -1, "type": "PRES_AUD", "word": "lightning", "wordID": 819, "conditions": [12, 800, "a", 12000], "trial": 3, "serialpos": 0, "trial_type": "single-audio", "trial_index": 129, "time_elapsed": 691427, "internal_node_id": "0.0-93.0"}}, {"uniqueid": "MTK0087:3FQ5JJ512MV9EQKNEXBKQRVRKPMNKJ", "current_trial": 130, "dateTime": 1509131694074, "trialdata": {"rt": -1000, "stimulus": "/static/audio/wordpool/PICTURE.wav", "key_press": -1, "type": "PRES_AUD", "word": "picture", "wordID": 1060, "conditions": [12, 800, "a", 12000], "trial": 3, "serialpos": 1, "trial_type": "single-audio", "trial_index": 130, "time_elapsed": 693315, "internal_node_id": "0.0-94.0"}}, {"uniqueid": "MTK0087:3FQ5JJ512MV9EQKNEXBKQRVRKPMNKJ", "current_trial": 131, "dateTime": 1509131696001, "trialdata": {"rt": -1000, "stimulus": "/static/audio/wordpool/PORTRAIT.wav", "key_press": -1, "type": "PRES_AUD", "word": "portrait", "wordID": 1110, "conditions": [12, 800, "a", 12000], "trial": 3, "serialpos": 2, "trial_type": "single-audio", "trial_index": 131, "time_elapsed": 695242, "internal_node_id": "0.0-95.0"}}, {"uniqueid": "MTK0087:3FQ5JJ512MV9EQKNEXBKQRVRKPMNKJ", "current_trial": 132, "dateTime": 1509131697828, "trialdata": {"rt": -1000, "stimulus": "/static/audio/wordpool/DRAWING.wav", "key_press": -1, "type": "PRES_AUD", "word": "drawing", "wordID": 493, "conditions": [12, 800, "a", 12000], "trial": 3, "serialpos": 3, "trial_type": "single-audio", "trial_index": 132, "time_elapsed": 697069, "internal_node_id": "0.0-96.0"}}, {"uniqueid": "MTK0087:3FQ5JJ512MV9EQKNEXBKQRVRKPMNKJ", "current_trial": 133, "dateTime": 1509131699609, "trialdata": {"rt": -1000, "stimulus": "/static/audio/wordpool/BUG.wav", "key_press": -1, "type": "PRES_AUD", "word": "bug", "wordID": 186, "conditions": [12, 800, "a", 12000], "trial": 3, "serialpos": 4, "trial_type": "single-audio", "trial_index": 133, "time_elapsed": 698850, "internal_node_id": "0.0-97.0"}}, {"uniqueid": "MTK0087:3FQ5JJ512MV9EQKNEXBKQRVRKPMNKJ", "current_trial": 134, "dateTime": 1509131701553, "trialdata": {"rt": -1000, "stimulus": "/static/audio/wordpool/DRIVER.wav", "key_press": -1, "type": "PRES_AUD", "word": "driver", "wordID": 498, "conditions": [12, 800, "a", 12000], "trial": 3, "serialpos": 5, "trial_type": "single-audio", "trial_index": 134, "time_elapsed": 700794, "internal_node_id": "0.0-98.0"}}, {"uniqueid": "MTK0087:3FQ5JJ512MV9EQKNEXBKQRVRKPMNKJ", "current_trial": 135, "dateTime": 1509131703398, "trialdata": {"rt": -1000, "stimulus": "/static/audio/wordpool/PACKAGE.wav", "key_press": -1, "type": "PRES_AUD", "word": "package", "wordID": 996, "conditions": [12, 800, "a", 12000], "trial": 3, "serialpos": 6, "trial_type": "single-audio", "trial_index": 135, "time_elapsed": 702639, "internal_node_id": "0.0-99.0"}}, {"uniqueid": "MTK0087:3FQ5JJ512MV9EQKNEXBKQRVRKPMNKJ", "current_trial": 136, "dateTime": 1509131705213, "trialdata": {"rt": -1000, "stimulus": "/static/audio/wordpool/EYELASH.wav", "key_press": -1, "type": "PRES_AUD", "word": "eyelash", "wordID": 545, "conditions": [12, 800, "a", 12000], "trial": 3, "serialpos": 7, "trial_type": "single-audio", "trial_index": 136, "time_elapsed": 704454, "internal_node_id": "0.0-100.0"}}, {"uniqueid": "MTK0087:3FQ5JJ512MV9EQKNEXBKQRVRKPMNKJ", "current_trial": 137, "dateTime": 1509131707179, "trialdata": {"rt": -1000, "stimulus": "/static/audio/wordpool/POET.wav", "key_press": -1, "type": "PRES_AUD", "word": "poet", "wordID": 1094, "conditions": [12, 800, "a", 12000], "trial": 3, "serialpos": 8, "trial_type": "single-audio", "trial_index": 137, "time_elapsed": 706420, "internal_node_id": "0.0-101.0"}}, {"uniqueid": "MTK0087:3FQ5JJ512MV9EQKNEXBKQRVRKPMNKJ", "current_trial": 138, "dateTime": 1509131708838, "trialdata": {"rt": -1000, "stimulus": "/static/audio/wordpool/GRAPE.wav", "key_press": -1, "type": "PRES_AUD", "word": "grape", "wordID": 653, "conditions": [12, 800, "a", 12000], "trial": 3, "serialpos": 9, "trial_type": "single-audio", "trial_index": 138, "time_elapsed": 708078, "internal_node_id": "0.0-102.0"}}, {"uniqueid": "MTK0087:3FQ5JJ512MV9EQKNEXBKQRVRKPMNKJ", "current_trial": 139, "dateTime": 1509131710709, "trialdata": {"rt": -1000, "stimulus": "/static/audio/wordpool/BEAKER.wav", "key_press": -1, "type": "PRES_AUD", "word": "beaker", "wordID": 103, "conditions": [12, 800, "a", 12000], "trial": 3, "serialpos": 10, "trial_type": "single-audio", "trial_index": 139, "time_elapsed": 709950, "internal_node_id": "0.0-103.0"}}, {"uniqueid": "MTK0087:3FQ5JJ512MV9EQKNEXBKQRVRKPMNKJ", "current_trial": 140, "dateTime": 1509131712534, "trialdata": {"rt": -1000, "stimulus": "/static/audio/wordpool/TRUCK.wav", "key_press": -1, "type": "PRES_AUD", "word": "truck", "wordID": 1511, "conditions": [12, 800, "a", 12000], "trial": 3, "serialpos": 11, "trial_type": "single-audio", "trial_index": 140, "time_elapsed": 711775, "internal_node_id": "0.0-104.0"}}, {"uniqueid": "MTK0087:3FQ5JJ512MV9EQKNEXBKQRVRKPMNKJ", "current_trial": 141, "dateTime": 1509131713842, "trialdata": {"rt": -1, "stimulus": "", "key_press": -1, "type": "PRE_RECALL_DELAY", "trial_type": "single-stim", "trial_index": 141, "time_elapsed": 713083, "internal_node_id": "0.0-105.0-0.0"}}, {"uniqueid": "MTK0087:3FQ5JJ512MV9EQKNEXBKQRVRKPMNKJ", "current_trial": 142, "dateTime": 1509131714343, "trialdata": {"rt": -1000, "stimulus": "/static/audio/400Hz.wav", "key_press": -1, "type": "PRE_RECALL_ALERT", "trial_type": "single-audio", "trial_index": 142, "time_elapsed": 713584, "internal_node_id": "0.0-106.0"}}, {"uniqueid": "MTK0087:3FQ5JJ512MV9EQKNEXBKQRVRKPMNKJ", "current_trial": 143, "dateTime": 1509131774346, "trialdata": {"rt": [2746, 3682, 4714, 10667, 19242, 20491, 23442], "recwords": ["poet", "truck", "beaker", "grapes", "lightning", "picture", "portrait"], "type": "FREE_RECALL", "conditions": [12, 800, "a", 12000], "trial": 3, "trial_type": "free-recall", "trial_index": 143, "time_elapsed": 773586, "internal_node_id": "0.0-107.0-0.0"}}, {"uniqueid": "MTK0087:3FQ5JJ512MV9EQKNEXBKQRVRKPMNKJ", "current_trial": 144, "dateTime": 1509131780867, "trialdata": {"rt": 4521, "key_press": 13, "type": "INSTRUCTIONS", "trial_type": "text", "trial_index": 144, "time_elapsed": 780108, "internal_node_id": "0.0-108.0"}}, {"uniqueid": "MTK0087:3FQ5JJ512MV9EQKNEXBKQRVRKPMNKJ", "current_trial": 145, "dateTime": 1509131794867, "trialdata": {"rt": [2776, 4584, 6952], "responses": ["15", "9", "14"], "num1": [8, 1, 4, 9], "num2": [5, 4, 4, 8], "num3": [2, 4, 6, 9], "type": "DISTRACTOR", "conditions": [24, 800, "v", 12000], "trial": 4, "trial_type": "math-distractor", "trial_index": 145, "time_elapsed": 794108, "internal_node_id": "0.0-109.0"}}, {"uniqueid": "MTK0087:3FQ5JJ512MV9EQKNEXBKQRVRKPMNKJ", "current_trial": 146, "dateTime": 1509131797867, "trialdata": {"rt": -1, "stimulus": "<p id=\"stim\">10</p>", "key_press": -1, "trial_type": "single-stim", "trial_index": 146, "time_elapsed": 797108, "internal_node_id": "0.0-110.0-0.0"}}, {"uniqueid": "MTK0087:3FQ5JJ512MV9EQKNEXBKQRVRKPMNKJ", "current_trial": 147, "dateTime": 1509131798867, "trialdata": {"rt": -1, "stimulus": "<p id=\"stim\">9</p>", "key_press": -1, "trial_type": "single-stim", "trial_index": 147, "time_elapsed": 798108, "internal_node_id": "0.0-110.0-1.0"}}, {"uniqueid": "MTK0087:3FQ5JJ512MV9EQKNEXBKQRVRKPMNKJ", "current_trial": 148, "dateTime": 1509131799868, "trialdata": {"rt": -1, "stimulus": "<p id=\"stim\">8</p>", "key_press": -1, "trial_type": "single-stim", "trial_index": 148, "time_elapsed": 799109, "internal_node_id": "0.0-110.0-2.0"}}, {"uniqueid": "MTK0087:3FQ5JJ512MV9EQKNEXBKQRVRKPMNKJ", "current_trial": 149, "dateTime": 1509131800869, "trialdata": {"rt": -1, "stimulus": "<p id=\"stim\">7</p>", "key_press": -1, "trial_type": "single-stim", "trial_index": 149, "time_elapsed": 800110, "internal_node_id": "0.0-110.0-3.0"}}, {"uniqueid": "MTK0087:3FQ5JJ512MV9EQKNEXBKQRVRKPMNKJ", "current_trial": 150, "dateTime": 1509131801870, "trialdata": {"rt": -1, "stimulus": "<p id=\"stim\">6</p>", "key_press": -1, "trial_type": "single-stim", "trial_index": 150, "time_elapsed": 801111, "internal_node_id": "0.0-110.0-4.0"}}, {"uniqueid": "MTK0087:3FQ5JJ512MV9EQKNEXBKQRVRKPMNKJ", "current_trial": 151, "dateTime": 1509131802871, "trialdata": {"rt": -1, "stimulus": "<p id=\"stim\">5</p>", "key_press": -1, "trial_type": "single-stim", "trial_index": 151, "time_elapsed": 802112, "internal_node_id": "0.0-110.0-5.0"}}, {"uniqueid": "MTK0087:3FQ5JJ512MV9EQKNEXBKQRVRKPMNKJ", "current_trial": 152, "dateTime": 1509131803871, "trialdata": {"rt": -1, "stimulus": "<p id=\"stim\">4</p>", "key_press": -1, "trial_type": "single-stim", "trial_index": 152, "time_elapsed": 803112, "internal_node_id": "0.0-110.0-6.0"}}, {"uniqueid": "MTK0087:3FQ5JJ512MV9EQKNEXBKQRVRKPMNKJ", "current_trial": 153, "dateTime": 1509131804872, "trialdata": {"rt": -1, "stimulus": "<p id=\"stim\">3</p>", "key_press": -1, "trial_type": "single-stim", "trial_index": 153, "time_elapsed": 804113, "internal_node_id": "0.0-110.0-7.0"}}, {"uniqueid": "MTK0087:3FQ5JJ512MV9EQKNEXBKQRVRKPMNKJ", "current_trial": 154, "dateTime": 1509131805872, "trialdata": {"rt": -1, "stimulus": "<p id=\"stim\">2</p>", "key_press": -1, "trial_type": "single-stim", "trial_index": 154, "time_elapsed": 805113, "internal_node_id": "0.0-110.0-8.0"}}, {"uniqueid": "MTK0087:3FQ5JJ512MV9EQKNEXBKQRVRKPMNKJ", "current_trial": 155, "dateTime": 1509131806872, "trialdata": {"rt": -1, "stimulus": "<p id=\"stim\">1</p>", "key_press": -1, "trial_type": "single-stim", "trial_index": 155, "time_elapsed": 806113, "internal_node_id": "0.0-110.0-9.0"}}, {"uniqueid": "MTK0087:3FQ5JJ512MV9EQKNEXBKQRVRKPMNKJ", "current_trial": 156, "dateTime": 1509131808372, "trialdata": {"rt": -1, "stimulus": "<p id=\"stim\">+</p>", "key_press": -1, "type": "FIXATION", "trial_type": "single-stim", "trial_index": 156, "time_elapsed": 807613, "internal_node_id": "0.0-111.0-0.0"}}, {"uniqueid": "MTK0087:3FQ5JJ512MV9EQKNEXBKQRVRKPMNKJ", "current_trial": 157, "dateTime": 1509131809172, "trialdata": {"rt": -1, "stimulus": "<p id=\"stim\">QUEEN</p>", "key_press": -1, "type": "PRES_VIS", "word": "queen", "wordID": 1148, "conditions": [24, 800, "v", 12000], "trial": 4, "serialpos": 0, "trial_type": "single-stim", "trial_index": 157, "time_elapsed": 808413, "internal_node_id": "0.0-112.0"}}, {"uniqueid": "MTK0087:3FQ5JJ512MV9EQKNEXBKQRVRKPMNKJ", "current_trial": 158, "dateTime": 1509131810925, "trialdata": {"rt": -1, "stimulus": "<p id=\"stim\">WORKER</p>", "key_press": -1, "type": "PRES_VIS", "word": "worker", "wordID": 1620, "conditions": [24, 800, "v", 12000], "trial": 4, "serialpos": 1, "trial_type": "single-stim", "trial_index": 158, "time_elapsed": 810166, "internal_node_id": "0.0-113.0"}}, {"uniqueid": "MTK0087:3FQ5JJ512MV9EQKNEXBKQRVRKPMNKJ", "current_trial": 159, "dateTime": 1509131812718, "trialdata": {"rt": -1, "stimulus": "<p id=\"stim\">CRITIC</p>", "key_press": -1, "type": "PRES_VIS", "word": "critic", "wordID": 409, "conditions": [24, 800, "v", 12000], "trial": 4, "serialpos": 2, "trial_type": "single-stim", "trial_index": 159, "time_elapsed": 811959, "internal_node_id": "0.0-114.0"}}, {"uniqueid": "MTK0087:3FQ5JJ512MV9EQKNEXBKQRVRKPMNKJ", "current_trial": 160, "dateTime": 1509131814689, "trialdata": {"rt": -1, "stimulus": "<p id=\"stim\">APPLE</p>", "key_press": -1, "type": "PRES_VIS", "word": "apple", "wordID": 32, "conditions": [24, 800, "v", 12000], "trial": 4, "serialpos": 3, "trial_type": "single-stim", "trial_index": 160, "time_elapsed": 813930, "internal_node_id": "0.0-115.0"}}, {"uniqueid": "MTK0087:3FQ5JJ512MV9EQKNEXBKQRVRKPMNKJ", "current_trial": 161, "dateTime": 1509131816552, "trialdata": {"rt": -1, "stimulus": "<p id=\"stim\">SPARROW</p>", "key_press": -1, "type": "PRES_VIS", "word": "sparrow", "wordID": 1346, "conditions": [24, 800, "v", 12000], "trial": 4, "serialpos": 4, "trial_type": "single-stim", "trial_index": 161, "time_elapsed": 815793, "internal_node_id": "0.0-116.0"}}, {"uniqueid": "MTK0087:3FQ5JJ512MV9EQKNEXBKQRVRKPMNKJ", "current_trial": 162, "dateTime": 1509131818508, "trialdata": {"rt": -1, "stimulus": "<p id=\"stim\">CRIB</p>", "key_press": -1, "type": "PRES_VIS", "word": "crib", "wordID": 406, "conditions": [24, 800, "v", 12000], "trial": 4, "serialpos": 5, "trial_type": "single-stim", "trial_index": 162, "time_elapsed": 817749, "internal_node_id": "0.0-117.0"}}, {"uniqueid": "MTK0087:3FQ5JJ512MV9EQKNEXBKQRVRKPMNKJ", "current_trial": 163, "dateTime": 1509131820445, "trialdata": {"rt": -1, "stimulus": "<p id=\"stim\">GARLIC</p>", "key_press": -1, "type": "PRES_VIS", "word": "garlic", "wordID": 623, "conditions": [24, 800, "v", 12000], "trial": 4, "serialpos": 6, "trial_type": "single-stim", "trial_index": 163, "time_elapsed": 819686, "internal_node_id": "0.0-118.0"}}, {"uniqueid": "MTK0087:3FQ5JJ512MV9EQKNEXBKQRVRKPMNKJ", "current_trial": 164, "dateTime": 1509131822267, "trialdata": {"rt": -1, "stimulus": "<p id=\"stim\">ONION</p>", "key_press": -1, "type": "PRES_VIS", "word": "onion", "wordID": 976, "conditions": [24, 800, "v", 12000], "trial": 4, "serialpos": 7, "trial_type": "single-stim", "trial_index": 164, "time_elapsed": 821508, "internal_node_id": "0.0-119.0"}}, {"uniqueid": "MTK0087:3FQ5JJ512MV9EQKNEXBKQRVRKPMNKJ", "current_trial": 165, "dateTime": 1509131824014, "trialdata": {"rt": -1, "stimulus": "<p id=\"stim\">FILM</p>", "key_press": -1, "type": "PRES_VIS", "word": "film", "wordID": 564, "conditions": [24, 800, "v", 12000], "trial": 4, "serialpos": 8, "trial_type": "single-stim", "trial_index": 165, "time_elapsed": 823255, "internal_node_id": "0.0-120.0"}}, {"uniqueid": "MTK0087:3FQ5JJ512MV9EQKNEXBKQRVRKPMNKJ", "current_trial": 166, "dateTime": 1509131825980, "trialdata": {"rt": -1, "stimulus": "<p id=\"stim\">WINDOW</p>", "key_press": -1, "type": "PRES_VIS", "word": "window", "wordID": 1610, "conditions": [24, 800, "v", 12000], "trial": 4, "serialpos": 9, "trial_type": "single-stim", "trial_index": 166, "time_elapsed": 825221, "internal_node_id": "0.0-121.0"}}, {"uniqueid": "MTK0087:3FQ5JJ512MV9EQKNEXBKQRVRKPMNKJ", "current_trial": 167, "dateTime": 1509131827649, "trialdata": {"rt": -1, "stimulus": "<p id=\"stim\">COTTAGE</p>", "key_press": -1, "type": "PRES_VIS", "word": "cottage", "wordID": 383, "conditions": [24, 800, "v", 12000], "trial": 4, "serialpos": 10, "trial_type": "single-stim", "trial_index": 167, "time_elapsed": 826890, "internal_node_id": "0.0-122.0"}}, {"uniqueid": "MTK0087:3FQ5JJ512MV9EQKNEXBKQRVRKPMNKJ", "current_trial": 168, "dateTime": 1509131829331, "trialdata": {"rt": -1, "stimulus": "<p id=\"stim\">MATTRESS</p>", "key_press": -1, "type": "PRES_VIS", "word": "mattress", "wordID": 878, "conditions": [24, 800, "v", 12000], "trial": 4, "serialpos": 11, "trial_type": "single-stim", "trial_index": 168, "time_elapsed": 828572, "internal_node_id": "0.0-123.0"}}, {"uniqueid": "MTK0087:3FQ5JJ512MV9EQKNEXBKQRVRKPMNKJ", "current_trial": 169, "dateTime": 1509131831052, "trialdata": {"rt": -1, "stimulus": "<p id=\"stim\">HIKER</p>", "key_press": -1, "type": "PRES_VIS", "word": "hiker", "wordID": 707, "conditions": [24, 800, "v", 12000], "trial": 4, "serialpos": 12, "trial_type": "single-stim", "trial_index": 169, "time_elapsed": 830293, "internal_node_id": "0.0-124.0"}}, {"uniqueid": "MTK0087:3FQ5JJ512MV9EQKNEXBKQRVRKPMNKJ", "current_trial": 170, "dateTime": 1509131832840, "trialdata": {"rt": -1, "stimulus": "<p id=\"stim\">BREAST</p>", "key_press": -1, "type": "PRES_VIS", "word": "breast", "wordID": 170, "conditions": [24, 800, "v", 12000], "trial": 4, "serialpos": 13, "trial_type": "single-stim", "trial_index": 170, "time_elapsed": 832081, "internal_node_id": "0.0-125.0"}}, {"uniqueid": "MTK0087:3FQ5JJ512MV9EQKNEXBKQRVRKPMNKJ", "current_trial": 171, "dateTime": 1509131834704, "trialdata": {"rt": -1, "stimulus": "<p id=\"stim\">SHELTER</p>", "key_press": -1, "type": "PRES_VIS", "word": "shelter", "wordID": 1281, "conditions": [24, 800, "v", 12000], "trial": 4, "serialpos": 14, "trial_type": "single-stim", "trial_index": 171, "time_elapsed": 833945, "internal_node_id": "0.0-126.0"}}, {"uniqueid": "MTK0087:3FQ5JJ512MV9EQKNEXBKQRVRKPMNKJ", "current_trial": 172, "dateTime": 1509131836580, "trialdata": {"rt": -1, "stimulus": "<p id=\"stim\">MASK</p>", "key_press": -1, "type": "PRES_VIS", "word": "mask", "wordID": 875, "conditions": [24, 800, "v", 12000], "trial": 4, "serialpos": 15, "trial_type": "single-stim", "trial_index": 172, "time_elapsed": 835821, "internal_node_id": "0.0-127.0"}}, {"uniqueid": "MTK0087:3FQ5JJ512MV9EQKNEXBKQRVRKPMNKJ", "current_trial": 173, "dateTime": 1509131838308, "trialdata": {"rt": -1, "stimulus": "<p id=\"stim\">FLASK</p>", "key_press": -1, "type": "PRES_VIS", "word": "flask", "wordID": 575, "conditions": [24, 800, "v", 12000], "trial": 4, "serialpos": 16, "trial_type": "single-stim", "trial_index": 173, "time_elapsed": 837549, "internal_node_id": "0.0-128.0"}}, {"uniqueid": "MTK0087:3FQ5JJ512MV9EQKNEXBKQRVRKPMNKJ", "current_trial": 174, "dateTime": 1509131840028, "trialdata": {"rt": -1, "stimulus": "<p id=\"stim\">CLIMBER</p>", "key_press": -1, "type": "PRES_VIS", "word": "climber", "wordID": 322, "conditions": [24, 800, "v", 12000], "trial": 4, "serialpos": 17, "trial_type": "single-stim", "trial_index": 174, "time_elapsed": 839269, "internal_node_id": "0.0-129.0"}}, {"uniqueid": "MTK0087:3FQ5JJ512MV9EQKNEXBKQRVRKPMNKJ", "current_trial": 175, "dateTime": 1509131841700, "trialdata": {"rt": -1, "stimulus": "<p id=\"stim\">SEAGULL</p>", "key_press": -1, "type": "PRES_VIS", "word": "seagull", "wordID": 1260, "conditions": [24, 800, "v", 12000], "trial": 4, "serialpos": 18, "trial_type": "single-stim", "trial_index": 175, "time_elapsed": 840941, "internal_node_id": "0.0-130.0"}}, {"uniqueid": "MTK0087:3FQ5JJ512MV9EQKNEXBKQRVRKPMNKJ", "current_trial": 176, "dateTime": 1509131843463, "trialdata": {"rt": -1, "stimulus": "<p id=\"stim\">SCISSORS</p>", "key_press": -1, "type": "PRES_VIS", "word": "scissors", "wordID": 1249, "conditions": [24, 800, "v", 12000], "trial": 4, "serialpos": 19, "trial_type": "single-stim", "trial_index": 176, "time_elapsed": 842704, "internal_node_id": "0.0-131.0"}}, {"uniqueid": "MTK0087:3FQ5JJ512MV9EQKNEXBKQRVRKPMNKJ", "current_trial": 177, "dateTime": 1509131845146, "trialdata": {"rt": -1, "stimulus": "<p id=\"stim\">SKILLET</p>", "key_press": -1, "type": "PRES_VIS", "word": "skillet", "wordID": 1316, "conditions": [24, 800, "v", 12000], "trial": 4, "serialpos": 20, "trial_type": "single-stim", "trial_index": 177, "time_elapsed": 844387, "internal_node_id": "0.0-132.0"}}, {"uniqueid": "MTK0087:3FQ5JJ512MV9EQKNEXBKQRVRKPMNKJ", "current_trial": 178, "dateTime": 1509131846936, "trialdata": {"rt": -1, "stimulus": "<p id=\"stim\">GRILL</p>", "key_press": -1, "type": "PRES_VIS", "word": "grill", "wordID": 660, "conditions": [24, 800, "v", 12000], "trial": 4, "serialpos": 21, "trial_type": "single-stim", "trial_index": 178, "time_elapsed": 846177, "internal_node_id": "0.0-133.0"}}, {"uniqueid": "MTK0087:3FQ5JJ512MV9EQKNEXBKQRVRKPMNKJ", "current_trial": 179, "dateTime": 1509131848699, "trialdata": {"rt": -1, "stimulus": "<p id=\"stim\">PLATE</p>", "key_press": -1, "type": "PRES_VIS", "word": "plate", "wordID": 1085, "conditions": [24, 800, "v", 12000], "trial": 4, "serialpos": 22, "trial_type": "single-stim", "trial_index": 179, "time_elapsed": 847940, "internal_node_id": "0.0-134.0"}}, {"uniqueid": "MTK0087:3FQ5JJ512MV9EQKNEXBKQRVRKPMNKJ", "current_trial": 180, "dateTime": 1509131850439, "trialdata": {"rt": -1, "stimulus": "<p id=\"stim\">LUGGAGE</p>", "key_press": -1, "type": "PRES_VIS", "word": "luggage", "wordID": 846, "conditions": [24, 800, "v", 12000], "trial": 4, "serialpos": 23, "trial_type": "single-stim", "trial_index": 180, "time_elapsed": 849680, "internal_node_id": "0.0-135.0"}}, {"uniqueid": "MTK0087:3FQ5JJ512MV9EQKNEXBKQRVRKPMNKJ", "current_trial": 181, "dateTime": 1509131852680, "trialdata": {"rt": -1, "stimulus": "", "key_press": -1, "type": "PRE_RECALL_DELAY", "trial_type": "single-stim", "trial_index": 181, "time_elapsed": 851921, "internal_node_id": "0.0-136.0-0.0"}}, {"uniqueid": "MTK0087:3FQ5JJ512MV9EQKNEXBKQRVRKPMNKJ", "current_trial": 182, "dateTime": 1509131853181, "trialdata": {"rt": -1000, "stimulus": "/static/audio/400Hz.wav", "key_press": -1, "type": "PRE_RECALL_ALERT", "trial_type": "single-audio", "trial_index": 182, "time_elapsed": 852422, "internal_node_id": "0.0-137.0"}}, {"uniqueid": "MTK0087:3FQ5JJ512MV9EQKNEXBKQRVRKPMNKJ", "current_trial": 183, "dateTime": 1509131913183, "trialdata": {"rt": [2253, 3821, 5397, 10229, 17173, 18469, 21957, 37845, 38981, 51093, 52581], "recwords": ["plate", "luggage", "seagul", "scissors", "baggage", "plate", "cottage", "queen", "worker", "garlic", "onion"], "type": "FREE_RECALL", "conditions": [24, 800, "v", 12000], "trial": 4, "trial_type": "free-recall", "trial_index": 183, "time_elapsed": 912423, "internal_node_id": "0.0-138.0-0.0"}}, {"uniqueid": "MTK0087:3FQ5JJ512MV9EQKNEXBKQRVRKPMNKJ", "current_trial": 184, "dateTime": 1509131916179, "trialdata": {"rt": 995, "key_press": 13, "type": "INSTRUCTIONS", "trial_type": "text", "trial_index": 184, "time_elapsed": 915420, "internal_node_id": "0.0-139.0"}}, {"uniqueid": "MTK0087:3FQ5JJ512MV9EQKNEXBKQRVRKPMNKJ", "current_trial": 185, "dateTime": 1509131930181, "trialdata": {"rt": [5413, 9077], "responses": ["9", "18"], "num1": [2, 4, 5], "num2": [4, 9, 6], "num3": [3, 5, 3], "type": "DISTRACTOR", "conditions": [24, 1600, "a", 12000], "trial": 5, "trial_type": "math-distractor", "trial_index": 185, "time_elapsed": 929421, "internal_node_id": "0.0-140.0"}}, {"uniqueid": "MTK0087:3FQ5JJ512MV9EQKNEXBKQRVRKPMNKJ", "current_trial": 186, "dateTime": 1509131933183, "trialdata": {"rt": -1, "stimulus": "<p id=\"stim\">10</p>", "key_press": -1, "trial_type": "single-stim", "trial_index": 186, "time_elapsed": 932424, "internal_node_id": "0.0-141.0-0.0"}}, {"uniqueid": "MTK0087:3FQ5JJ512MV9EQKNEXBKQRVRKPMNKJ", "current_trial": 187, "dateTime": 1509131934183, "trialdata": {"rt": -1, "stimulus": "<p id=\"stim\">9</p>", "key_press": -1, "trial_type": "single-stim", "trial_index": 187, "time_elapsed": 933424, "internal_node_id": "0.0-141.0-1.0"}}, {"uniqueid": "MTK0087:3FQ5JJ512MV9EQKNEXBKQRVRKPMNKJ", "current_trial": 188, "dateTime": 1509131935183, "trialdata": {"rt": -1, "stimulus": "<p id=\"stim\">8</p>", "key_press": -1, "trial_type": "single-stim", "trial_index": 188, "time_elapsed": 934424, "internal_node_id": "0.0-141.0-2.0"}}, {"uniqueid": "MTK0087:3FQ5JJ512MV9EQKNEXBKQRVRKPMNKJ", "current_trial": 189, "dateTime": 1509131936184, "trialdata": {"rt": -1, "stimulus": "<p id=\"stim\">7</p>", "key_press": -1, "trial_type": "single-stim", "trial_index": 189, "time_elapsed": 935425, "internal_node_id": "0.0-141.0-3.0"}}, {"uniqueid": "MTK0087:3FQ5JJ512MV9EQKNEXBKQRVRKPMNKJ", "current_trial": 190, "dateTime": 1509131937184, "trialdata": {"rt": -1, "stimulus": "<p id=\"stim\">6</p>", "key_press": -1, "trial_type": "single-stim", "trial_index": 190, "time_elapsed": 936425, "internal_node_id": "0.0-141.0-4.0"}}, {"uniqueid": "MTK0087:3FQ5JJ512MV9EQKNEXBKQRVRKPMNKJ", "current_trial": 191, "dateTime": 1509131938185, "trialdata": {"rt": -1, "stimulus": "<p id=\"stim\">5</p>", "key_press": -1, "trial_type": "single-stim", "trial_index": 191, "time_elapsed": 937426, "internal_node_id": "0.0-141.0-5.0"}}, {"uniqueid": "MTK0087:3FQ5JJ512MV9EQKNEXBKQRVRKPMNKJ", "current_trial": 192, "dateTime": 1509131939186, "trialdata": {"rt": -1, "stimulus": "<p id=\"stim\">4</p>", "key_press": -1, "trial_type": "single-stim", "trial_index": 192, "time_elapsed": 938427, "internal_node_id": "0.0-141.0-6.0"}}, {"uniqueid": "MTK0087:3FQ5JJ512MV9EQKNEXBKQRVRKPMNKJ", "current_trial": 193, "dateTime": 1509131940187, "trialdata": {"rt": -1, "stimulus": "<p id=\"stim\">3</p>", "key_press": -1, "trial_type": "single-stim", "trial_index": 193, "time_elapsed": 939428, "internal_node_id": "0.0-141.0-7.0"}}, {"uniqueid": "MTK0087:3FQ5JJ512MV9EQKNEXBKQRVRKPMNKJ", "current_trial": 194, "dateTime": 1509131941187, "trialdata": {"rt": -1, "stimulus": "<p id=\"stim\">2</p>", "key_press": -1, "trial_type": "single-stim", "trial_index": 194, "time_elapsed": 940428, "internal_node_id": "0.0-141.0-8.0"}}, {"uniqueid": "MTK0087:3FQ5JJ512MV9EQKNEXBKQRVRKPMNKJ", "current_trial": 195, "dateTime": 1509131942187, "trialdata": {"rt": -1, "stimulus": "<p id=\"stim\">1</p>", "key_press": -1, "trial_type": "single-stim", "trial_index": 195, "time_elapsed": 941428, "internal_node_id": "0.0-141.0-9.0"}}, {"uniqueid": "MTK0087:3FQ5JJ512MV9EQKNEXBKQRVRKPMNKJ", "current_trial": 196, "dateTime": 1509131943688, "trialdata": {"rt": -1, "stimulus": "<p id=\"stim\">+</p>", "key_press": -1, "type": "FIXATION", "trial_type": "single-stim", "trial_index": 196, "time_elapsed": 942929, "internal_node_id": "0.0-142.0-0.0"}}, {"uniqueid": "MTK0087:3FQ5JJ512MV9EQKNEXBKQRVRKPMNKJ", "current_trial": 197, "dateTime": 1509131946253, "trialdata": {"rt": -1000, "stimulus": "/static/audio/wordpool/PLIERS.wav", "key_press": -1, "type": "PRES_AUD", "word": "pliers", "wordID": 1088, "conditions": [24, 1600, "a", 12000], "trial": 5, "serialpos": 0, "trial_type": "single-audio", "trial_index": 197, "time_elapsed": 945494, "internal_node_id": "0.0-143.0"}}, {"uniqueid": "MTK0087:3FQ5JJ512MV9EQKNEXBKQRVRKPMNKJ", "current_trial": 198, "dateTime": 1509131948884, "trialdata": {"rt": -1000, "stimulus": "/static/audio/wordpool/PARROT.wav", "key_press": -1, "type": "PRES_AUD", "word": "parrot", "wordID": 1014, "conditions": [24, 1600, "a", 12000], "trial": 5, "serialpos": 1, "trial_type": "single-audio", "trial_index": 198, "time_elapsed": 948125, "internal_node_id": "0.0-144.0"}}, {"uniqueid": "MTK0087:3FQ5JJ512MV9EQKNEXBKQRVRKPMNKJ", "current_trial": 199, "dateTime": 1509131951389, "trialdata": {"rt": -1000, "stimulus": "/static/audio/wordpool/PARSLEY.wav", "key_press": -1, "type": "PRES_AUD", "word": "parsley", "wordID": 1015, "conditions": [24, 1600, "a", 12000], "trial": 5, "serialpos": 2, "trial_type": "single-audio", "trial_index": 199, "time_elapsed": 950630, "internal_node_id": "0.0-145.0"}}, {"uniqueid": "MTK0087:3FQ5JJ512MV9EQKNEXBKQRVRKPMNKJ", "current_trial": 200, "dateTime": 1509131954161, "trialdata": {"rt": -1000, "stimulus": "/static/audio/wordpool/TYPIST.wav", "key_press": -1, "type": "PRES_AUD", "word": "typist", "wordID": 1531, "conditions": [24, 1600, "a", 12000], "trial": 5, "serialpos": 3, "trial_type": "single-audio", "trial_index": 200, "time_elapsed": 953402, "internal_node_id": "0.0-146.0"}}, {"uniqueid": "MTK0087:3FQ5JJ512MV9EQKNEXBKQRVRKPMNKJ", "current_trial": 201, "dateTime": 1509131956606, "trialdata": {"rt": -1000, "stimulus": "/static/audio/wordpool/LACE.wav", "key_press": -1, "type": "PRES_AUD", "word": "lace", "wordID": 791, "conditions": [24, 1600, "a", 12000], "trial": 5, "serialpos": 4, "trial_type": "single-audio", "trial_index": 201, "time_elapsed": 955847, "internal_node_id": "0.0-147.0"}}, {"uniqueid": "MTK0087:3FQ5JJ512MV9EQKNEXBKQRVRKPMNKJ", "current_trial": 202, "dateTime": 1509131959183, "trialdata": {"rt": -1000, "stimulus": "/static/audio/wordpool/SCARF.wav", "key_press": -1, "type": "PRES_AUD", "word": "scarf", "wordID": 1245, "conditions": [24, 1600, "a", 12000], "trial": 5, "serialpos": 5, "trial_type": "single-audio", "trial_index": 202, "time_elapsed": 958424, "internal_node_id": "0.0-148.0"}}, {"uniqueid": "MTK0087:3FQ5JJ512MV9EQKNEXBKQRVRKPMNKJ", "current_trial": 203, "dateTime": 1509131961609, "trialdata": {"rt": -1000, "stimulus": "/static/audio/wordpool/RADISH.wav", "key_press": -1, "type": "PRES_AUD", "word": "radish", "wordID": 1157, "conditions": [24, 1600, "a", 12000], "trial": 5, "serialpos": 6, "trial_type": "single-audio", "trial_index": 203, "time_elapsed": 960850, "internal_node_id": "0.0-149.0"}}, {"uniqueid": "MTK0087:3FQ5JJ512MV9EQKNEXBKQRVRKPMNKJ", "current_trial": 204, "dateTime": 1509131964194, "trialdata": {"rt": -1000, "stimulus": "/static/audio/wordpool/WASP.wav", "key_press": -1, "type": "PRES_AUD", "word": "wasp", "wordID": 1592, "conditions": [24, 1600, "a", 12000], "trial": 5, "serialpos": 7, "trial_type": "single-audio", "trial_index": 204, "time_elapsed": 963435, "internal_node_id": "0.0-150.0"}}, {"uniqueid": "MTK0087:3FQ5JJ512MV9EQKNEXBKQRVRKPMNKJ", "current_trial": 205, "dateTime": 1509131966723, "trialdata": {"rt": -1000, "stimulus": "/static/audio/wordpool/BOYFRIEND.wav", "key_press": -1, "type": "PRES_AUD", "word": "boyfriend", "wordID": 161, "conditions": [24, 1600, "a", 12000], "trial": 5, "serialpos": 8, "trial_type": "single-audio", "trial_index": 205, "time_elapsed": 965964, "internal_node_id": "0.0-151.0"}}, {"uniqueid": "MTK0087:3FQ5JJ512MV9EQKNEXBKQRVRKPMNKJ", "current_trial": 206, "dateTime": 1509131969211, "trialdata": {"rt": -1000, "stimulus": "/static/audio/wordpool/FRIEND.wav", "key_press": -1, "type": "PRES_AUD", "word": "friend", "wordID": 605, "conditions": [24, 1600, "a", 12000], "trial": 5, "serialpos": 9, "trial_type": "single-audio", "trial_index": 206, "time_elapsed": 968452, "internal_node_id": "0.0-152.0"}}, {"uniqueid": "MTK0087:3FQ5JJ512MV9EQKNEXBKQRVRKPMNKJ", "current_trial": 207, "dateTime": 1509131971768, "trialdata": {"rt": -1000, "stimulus": "/static/audio/wordpool/THREAD.wav", "key_press": -1, "type": "PRES_AUD", "word": "thread", "wordID": 1459, "conditions": [24, 1600, "a", 12000], "trial": 5, "serialpos": 10, "trial_type": "single-audio", "trial_index": 207, "time_elapsed": 971009, "internal_node_id": "0.0-153.0"}}, {"uniqueid": "MTK0087:3FQ5JJ512MV9EQKNEXBKQRVRKPMNKJ", "current_trial": 208, "dateTime": 1509131974410, "trialdata": {"rt": -1000, "stimulus": "/static/audio/wordpool/AGENT.wav", "key_press": -1, "type": "PRES_AUD", "word": "agent", "wordID": 9, "conditions": [24, 1600, "a", 12000], "trial": 5, "serialpos": 11, "trial_type": "single-audio", "trial_index": 208, "time_elapsed": 973651, "internal_node_id": "0.0-154.0"}}, {"uniqueid": "MTK0087:3FQ5JJ512MV9EQKNEXBKQRVRKPMNKJ", "current_trial": 209, "dateTime": 1509131976912, "trialdata": {"rt": -1000, "stimulus": "/static/audio/wordpool/POSSUM.wav", "key_press": -1, "type": "PRES_AUD", "word": "possum", "wordID": 1111, "conditions": [24, 1600, "a", 12000], "trial": 5, "serialpos": 12, "trial_type": "single-audio", "trial_index": 209, "time_elapsed": 976153, "internal_node_id": "0.0-155.0"}}, {"uniqueid": "MTK0087:3FQ5JJ512MV9EQKNEXBKQRVRKPMNKJ", "current_trial": 210, "dateTime": 1509131979326, "trialdata": {"rt": -1000, "stimulus": "/static/audio/wordpool/SNACK.wav", "key_press": -1, "type": "PRES_AUD", "word": "snack", "wordID": 1330, "conditions": [24, 1600, "a", 12000], "trial": 5, "serialpos": 13, "trial_type": "single-audio", "trial_index": 210, "time_elapsed": 978567, "internal_node_id": "0.0-156.0"}}, {"uniqueid": "MTK0087:3FQ5JJ512MV9EQKNEXBKQRVRKPMNKJ", "current_trial": 211, "dateTime": 1509131981738, "trialdata": {"rt": -1000, "stimulus": "/static/audio/wordpool/BARLEY.wav", "key_press": -1, "type": "PRES_AUD", "word": "barley", "wordID": 87, "conditions": [24, 1600, "a", 12000], "trial": 5, "serialpos": 14, "trial_type": "single-audio", "trial_index": 211, "time_elapsed": 980979, "internal_node_id": "0.0-157.0"}}, {"uniqueid": "MTK0087:3FQ5JJ512MV9EQKNEXBKQRVRKPMNKJ", "current_trial": 212, "dateTime": 1509131984310, "trialdata": {"rt": -1000, "stimulus": "/static/audio/wordpool/SLIME.wav", "key_press": -1, "type": "PRES_AUD", "word": "slime", "wordID": 1326, "conditions": [24, 1600, "a", 12000], "trial": 5, "serialpos": 15, "trial_type": "single-audio", "trial_index": 212, "time_elapsed": 983551, "internal_node_id": "0.0-158.0"}}, {"uniqueid": "MTK0087:3FQ5JJ512MV9EQKNEXBKQRVRKPMNKJ", "current_trial": 213, "dateTime": 1509131987080, "trialdata": {"rt": -1000, "stimulus": "/static/audio/wordpool/CAMEL.wav", "key_press": -1, "type": "PRES_AUD", "word": "camel", "wordID": 222, "conditions": [24, 1600, "a", 12000], "trial": 5, "serialpos": 16, "trial_type": "single-audio", "trial_index": 213, "time_elapsed": 986321, "internal_node_id": "0.0-159.0"}}, {"uniqueid": "MTK0087:3FQ5JJ512MV9EQKNEXBKQRVRKPMNKJ", "current_trial": 214, "dateTime": 1509131989509, "trialdata": {"rt": -1000, "stimulus": "/static/audio/wordpool/ASIA.wav", "key_press": -1, "type": "PRES_AUD", "word": "asia", "wordID": 45, "conditions": [24, 1600, "a", 12000], "trial": 5, "serialpos": 17, "trial_type": "single-audio", "trial_index": 214, "time_elapsed": 988750, "internal_node_id": "0.0-160.0"}}, {"uniqueid": "MTK0087:3FQ5JJ512MV9EQKNEXBKQRVRKPMNKJ", "current_trial": 215, "dateTime": 1509131992201, "trialdata": {"rt": -1000, "stimulus": "/static/audio/wordpool/PLUTO.wav", "key_press": -1, "type": "PRES_AUD", "word": "pluto", "wordID": 1091, "conditions": [24, 1600, "a", 12000], "trial": 5, "serialpos": 18, "trial_type": "single-audio", "trial_index": 215, "time_elapsed": 991442, "internal_node_id": "0.0-161.0"}}, {"uniqueid": "MTK0087:3FQ5JJ512MV9EQKNEXBKQRVRKPMNKJ", "current_trial": 216, "dateTime": 1509131994661, "trialdata": {"rt": -1000, "stimulus": "/static/audio/wordpool/DONKEY.wav", "key_press": -1, "type": "PRES_AUD", "word": "donkey", "wordID": 483, "conditions": [24, 1600, "a", 12000], "trial": 5, "serialpos": 19, "trial_type": "single-audio", "trial_index": 216, "time_elapsed": 993902, "internal_node_id": "0.0-162.0"}}, {"uniqueid": "MTK0087:3FQ5JJ512MV9EQKNEXBKQRVRKPMNKJ", "current_trial": 217, "dateTime": 1509131997421, "trialdata": {"rt": -1000, "stimulus": "/static/audio/wordpool/OUTDOORS.wav", "key_press": -1, "type": "PRES_AUD", "word": "outdoors", "wordID": 986, "conditions": [24, 1600, "a", 12000], "trial": 5, "serialpos": 20, "trial_type": "single-audio", "trial_index": 217, "time_elapsed": 996662, "internal_node_id": "0.0-163.0"}}, {"uniqueid": "MTK0087:3FQ5JJ512MV9EQKNEXBKQRVRKPMNKJ", "current_trial": 218, "dateTime": 1509132000140, "trialdata": {"rt": -1000, "stimulus": "/static/audio/wordpool/WOMAN.wav", "key_press": -1, "type": "PRES_AUD", "word": "woman", "wordID": 1619, "conditions": [24, 1600, "a", 12000], "trial": 5, "serialpos": 21, "trial_type": "single-audio", "trial_index": 218, "time_elapsed": 999381, "internal_node_id": "0.0-164.0"}}, {"uniqueid": "MTK0087:3FQ5JJ512MV9EQKNEXBKQRVRKPMNKJ", "current_trial": 219, "dateTime": 1509132002577, "trialdata": {"rt": -1000, "stimulus": "/static/audio/wordpool/VICTIM.wav", "key_press": -1, "type": "PRES_AUD", "word": "victim", "wordID": 1561, "conditions": [24, 1600, "a", 12000], "trial": 5, "serialpos": 22, "trial_type": "single-audio", "trial_index": 219, "time_elapsed": 1001818, "internal_node_id": "0.0-165.0"}}, {"uniqueid": "MTK0087:3FQ5JJ512MV9EQKNEXBKQRVRKPMNKJ", "current_trial": 220, "dateTime": 1509132004984, "trialdata": {"rt": -1000, "stimulus": "/static/audio/wordpool/UNCLE.wav", "key_press": -1, "type": "PRES_AUD", "word": "uncle", "wordID": 1535, "conditions": [24, 1600, "a", 12000], "trial": 5, "serialpos": 23, "trial_type": "single-audio", "trial_index": 220, "time_elapsed": 1004225, "internal_node_id": "0.0-166.0"}}, {"uniqueid": "MTK0087:3FQ5JJ512MV9EQKNEXBKQRVRKPMNKJ", "current_trial": 221, "dateTime": 1509132006327, "trialdata": {"rt": -1, "stimulus": "", "key_press": -1, "type": "PRE_RECALL_DELAY", "trial_type": "single-stim", "trial_index": 221, "time_elapsed": 1005568, "internal_node_id": "0.0-167.0-0.0"}}, {"uniqueid": "MTK0087:3FQ5JJ512MV9EQKNEXBKQRVRKPMNKJ", "current_trial": 222, "dateTime": 1509132006827, "trialdata": {"rt": -1000, "stimulus": "/static/audio/400Hz.wav", "key_press": -1, "type": "PRE_RECALL_ALERT", "trial_type": "single-audio", "trial_index": 222, "time_elapsed": 1006068, "internal_node_id": "0.0-168.0"}}, {"uniqueid": "MTK0087:3FQ5JJ512MV9EQKNEXBKQRVRKPMNKJ", "current_trial": 223, "dateTime": 1509132066830, "trialdata": {"rt": [2391, 3367, 4839, 7535, 11743, 14495, 16719, 19815, 23111, 29591, 35223, 38239, 44686, 45671, 49159, 49982], "recwords": ["victim", "uncle", "outdoors", "women", "pliers", "donkey", "pluto", "barley", "parsley", "typist", "agent", "thread", "victim", "uncle", "boyfriend", "friend"], "type": "FREE_RECALL", "conditions": [24, 1600, "a", 12000], "trial": 5, "trial_type": "free-recall", "trial_index": 223, "time_elapsed": 1066069, "internal_node_id": "0.0-169.0-0.0"}}, {"uniqueid": "MTK0087:3FQ5JJ512MV9EQKNEXBKQRVRKPMNKJ", "current_trial": 224, "dateTime": 1509132069659, "trialdata": {"rt": 827, "key_press": 32, "type": "INSTRUCTIONS", "trial_type": "text", "trial_index": 224, "time_elapsed": 1068900, "internal_node_id": "0.0-170.0"}}, {"uniqueid": "MTK0087:3FQ5JJ512MV9EQKNEXBKQRVRKPMNKJ", "current_trial": 225, "dateTime": 1509132095661, "trialdata": {"rt": [3847, 5999, 8167, 10359, 12103, 14295, 17271, 19231], "responses": ["15", "14", "18", "15", "9", "8", "9", "13"], "num1": [3, 3, 8, 6, 1, 2, 6, 6, 6], "num2": [5, 7, 1, 5, 1, 1, 2, 4, 9], "num3": [7, 4, 9, 4, 7, 5, 1, 3, 5], "type": "DISTRACTOR", "conditions": [12, 1600, "a", 24000], "trial": 6, "trial_type": "math-distractor", "trial_index": 225, "time_elapsed": 1094902, "internal_node_id": "0.0-171.0"}}, {"uniqueid": "MTK0087:3FQ5JJ512MV9EQKNEXBKQRVRKPMNKJ", "current_trial": 226, "dateTime": 1509132098662, "trialdata": {"rt": -1, "stimulus": "<p id=\"stim\">10</p>", "key_press": -1, "trial_type": "single-stim", "trial_index": 226, "time_elapsed": 1097903, "internal_node_id": "0.0-172.0-0.0"}}, {"uniqueid": "MTK0087:3FQ5JJ512MV9EQKNEXBKQRVRKPMNKJ", "current_trial": 227, "dateTime": 1509132099663, "trialdata": {"rt": -1, "stimulus": "<p id=\"stim\">9</p>", "key_press": -1, "trial_type": "single-stim", "trial_index": 227, "time_elapsed": 1098904, "internal_node_id": "0.0-172.0-1.0"}}, {"uniqueid": "MTK0087:3FQ5JJ512MV9EQKNEXBKQRVRKPMNKJ", "current_trial": 228, "dateTime": 1509132100664, "trialdata": {"rt": -1, "stimulus": "<p id=\"stim\">8</p>", "key_press": -1, "trial_type": "single-stim", "trial_index": 228, "time_elapsed": 1099905, "internal_node_id": "0.0-172.0-2.0"}}, {"uniqueid": "MTK0087:3FQ5JJ512MV9EQKNEXBKQRVRKPMNKJ", "current_trial": 229, "dateTime": 1509132101664, "trialdata": {"rt": -1, "stimulus": "<p id=\"stim\">7</p>", "key_press": -1, "trial_type": "single-stim", "trial_index": 229, "time_elapsed": 1100905, "internal_node_id": "0.0-172.0-3.0"}}, {"uniqueid": "MTK0087:3FQ5JJ512MV9EQKNEXBKQRVRKPMNKJ", "current_trial": 230, "dateTime": 1509132102664, "trialdata": {"rt": -1, "stimulus": "<p id=\"stim\">6</p>", "key_press": -1, "trial_type": "single-stim", "trial_index": 230, "time_elapsed": 1101905, "internal_node_id": "0.0-172.0-4.0"}}, {"uniqueid": "MTK0087:3FQ5JJ512MV9EQKNEXBKQRVRKPMNKJ", "current_trial": 231, "dateTime": 1509132103664, "trialdata": {"rt": -1, "stimulus": "<p id=\"stim\">5</p>", "key_press": -1, "trial_type": "single-stim", "trial_index": 231, "time_elapsed": 1102905, "internal_node_id": "0.0-172.0-5.0"}}, {"uniqueid": "MTK0087:3FQ5JJ512MV9EQKNEXBKQRVRKPMNKJ", "current_trial": 232, "dateTime": 1509132104664, "trialdata": {"rt": -1, "stimulus": "<p id=\"stim\">4</p>", "key_press": -1, "trial_type": "single-stim", "trial_index": 232, "time_elapsed": 1103905, "internal_node_id": "0.0-172.0-6.0"}}, {"uniqueid": "MTK0087:3FQ5JJ512MV9EQKNEXBKQRVRKPMNKJ", "current_trial": 233, "dateTime": 1509132105666, "trialdata": {"rt": -1, "stimulus": "<p id=\"stim\">3</p>", "key_press": -1, "trial_type": "single-stim", "trial_index": 233, "time_elapsed": 1104907, "internal_node_id": "0.0-172.0-7.0"}}, {"uniqueid": "MTK0087:3FQ5JJ512MV9EQKNEXBKQRVRKPMNKJ", "current_trial": 234, "dateTime": 1509132106666, "trialdata": {"rt": -1, "stimulus": "<p id=\"stim\">2</p>", "key_press": -1, "trial_type": "single-stim", "trial_index": 234, "time_elapsed": 1105907, "internal_node_id": "0.0-172.0-8.0"}}, {"uniqueid": "MTK0087:3FQ5JJ512MV9EQKNEXBKQRVRKPMNKJ", "current_trial": 235, "dateTime": 1509132107666, "trialdata": {"rt": -1, "stimulus": "<p id=\"stim\">1</p>", "key_press": -1, "trial_type": "single-stim", "trial_index": 235, "time_elapsed": 1106907, "internal_node_id": "0.0-172.0-9.0"}}, {"uniqueid": "MTK0087:3FQ5JJ512MV9EQKNEXBKQRVRKPMNKJ", "current_trial": 236, "dateTime": 1509132109166, "trialdata": {"rt": -1, "stimulus": "<p id=\"stim\">+</p>", "key_press": -1, "type": "FIXATION", "trial_type": "single-stim", "trial_index": 236, "time_elapsed": 1108407, "internal_node_id": "0.0-173.0-0.0"}}, {"uniqueid": "MTK0087:3FQ5JJ512MV9EQKNEXBKQRVRKPMNKJ", "current_trial": 237, "dateTime": 1509132111799, "trialdata": {"rt": -1000, "stimulus": "/static/audio/wordpool/SCALPEL.wav", "key_press": -1, "type": "PRES_AUD", "word": "scalpel", "wordID": 1242, "conditions": [12, 1600, "a", 24000], "trial": 6, "serialpos": 0, "trial_type": "single-audio", "trial_index": 237, "time_elapsed": 1111040, "internal_node_id": "0.0-174.0"}}, {"uniqueid": "MTK0087:3FQ5JJ512MV9EQKNEXBKQRVRKPMNKJ", "current_trial": 238, "dateTime": 1509132114367, "trialdata": {"rt": -1000, "stimulus": "/static/audio/wordpool/CANDY.wav", "key_press": -1, "type": "PRES_AUD", "word": "candy", "wordID": 229, "conditions": [12, 1600, "a", 24000], "trial": 6, "serialpos": 1, "trial_type": "single-audio", "trial_index": 238, "time_elapsed": 1113608, "internal_node_id": "0.0-175.0"}}, {"uniqueid": "MTK0087:3FQ5JJ512MV9EQKNEXBKQRVRKPMNKJ", "current_trial": 239, "dateTime": 1509132116938, "trialdata": {"rt": -1000, "stimulus": "/static/audio/wordpool/TREAT.wav", "key_press": -1, "type": "PRES_AUD", "word": "treat", "wordID": 1500, "conditions": [12, 1600, "a", 24000], "trial": 6, "serialpos": 2, "trial_type": "single-audio", "trial_index": 239, "time_elapsed": 1116179, "internal_node_id": "0.0-176.0"}}, {"uniqueid": "MTK0087:3FQ5JJ512MV9EQKNEXBKQRVRKPMNKJ", "current_trial": 240, "dateTime": 1509132119442, "trialdata": {"rt": -1000, "stimulus": "/static/audio/wordpool/MILK.wav", "key_press": -1, "type": "PRES_AUD", "word": "milk", "wordID": 894, "conditions": [12, 1600, "a", 24000], "trial": 6, "serialpos": 3, "trial_type": "single-audio", "trial_index": 240, "time_elapsed": 1118682, "internal_node_id": "0.0-177.0"}}, {"uniqueid": "MTK0087:3FQ5JJ512MV9EQKNEXBKQRVRKPMNKJ", "current_trial": 241, "dateTime": 1509132122049, "trialdata": {"rt": -1000, "stimulus": "/static/audio/wordpool/HONEY.wav", "key_press": -1, "type": "PRES_AUD", "word": "honey", "wordID": 712, "conditions": [12, 1600, "a", 24000], "trial": 6, "serialpos": 4, "trial_type": "single-audio", "trial_index": 241, "time_elapsed": 1121290, "internal_node_id": "0.0-178.0"}}, {"uniqueid": "MTK0087:3FQ5JJ512MV9EQKNEXBKQRVRKPMNKJ", "current_trial": 242, "dateTime": 1509132124776, "trialdata": {"rt": -1000, "stimulus": "/static/audio/wordpool/RAZOR.wav", "key_press": -1, "type": "PRES_AUD", "word": "razor", "wordID": 1170, "conditions": [12, 1600, "a", 24000], "trial": 6, "serialpos": 5, "trial_type": "single-audio", "trial_index": 242, "time_elapsed": 1124017, "internal_node_id": "0.0-179.0"}}, {"uniqueid": "MTK0087:3FQ5JJ512MV9EQKNEXBKQRVRKPMNKJ", "current_trial": 243, "dateTime": 1509132127302, "trialdata": {"rt": -1000, "stimulus": "/static/audio/wordpool/SUNRISE.wav", "key_press": -1, "type": "PRES_AUD", "word": "sunrise", "wordID": 1406, "conditions": [12, 1600, "a", 24000], "trial": 6, "serialpos": 6, "trial_type": "single-audio", "trial_index": 243, "time_elapsed": 1126543, "internal_node_id": "0.0-180.0"}}, {"uniqueid": "MTK0087:3FQ5JJ512MV9EQKNEXBKQRVRKPMNKJ", "current_trial": 244, "dateTime": 1509132129735, "trialdata": {"rt": -1000, "stimulus": "/static/audio/wordpool/GROUND.wav", "key_press": -1, "type": "PRES_AUD", "word": "ground", "wordID": 665, "conditions": [12, 1600, "a", 24000], "trial": 6, "serialpos": 7, "trial_type": "single-audio", "trial_index": 244, "time_elapsed": 1128976, "internal_node_id": "0.0-181.0"}}, {"uniqueid": "MTK0087:3FQ5JJ512MV9EQKNEXBKQRVRKPMNKJ", "current_trial": 245, "dateTime": 1509132132472, "trialdata": {"rt": -1000, "stimulus": "/static/audio/wordpool/CIGAR.wav", "key_press": -1, "type": "PRES_AUD", "word": "cigar", "wordID": 307, "conditions": [12, 1600, "a", 24000], "trial": 6, "serialpos": 8, "trial_type": "single-audio", "trial_index": 245, "time_elapsed": 1131713, "internal_node_id": "0.0-182.0"}}, {"uniqueid": "MTK0087:3FQ5JJ512MV9EQKNEXBKQRVRKPMNKJ", "current_trial": 246, "dateTime": 1509132134910, "trialdata": {"rt": -1000, "stimulus": "/static/audio/wordpool/FLUTE.wav", "key_press": -1, "type": "PRES_AUD", "word": "flute", "wordID": 584, "conditions": [12, 1600, "a", 24000], "trial": 6, "serialpos": 9, "trial_type": "single-audio", "trial_index": 246, "time_elapsed": 1134151, "internal_node_id": "0.0-183.0"}}, {"uniqueid": "MTK0087:3FQ5JJ512MV9EQKNEXBKQRVRKPMNKJ", "current_trial": 247, "dateTime": 1509132137514, "trialdata": {"rt": -1000, "stimulus": "/static/audio/wordpool/DORM.wav", "key_press": -1, "type": "PRES_AUD", "word": "dorm", "wordID": 487, "conditions": [12, 1600, "a", 24000], "trial": 6, "serialpos": 10, "trial_type": "single-audio", "trial_index": 247, "time_elapsed": 1136755, "internal_node_id": "0.0-184.0"}}, {"uniqueid": "MTK0087:3FQ5JJ512MV9EQKNEXBKQRVRKPMNKJ", "current_trial": 248, "dateTime": 1509132140096, "trialdata": {"rt": -1000, "stimulus": "/static/audio/wordpool/BURGLAR.wav", "key_press": -1, "type": "PRES_AUD", "word": "burglar", "wordID": 199, "conditions": [12, 1600, "a", 24000], "trial": 6, "serialpos": 11, "trial_type": "single-audio", "trial_index": 248, "time_elapsed": 1139337, "internal_node_id": "0.0-185.0"}}, {"uniqueid": "MTK0087:3FQ5JJ512MV9EQKNEXBKQRVRKPMNKJ", "current_trial": 249, "dateTime": 1509132141470, "trialdata": {"rt": -1, "stimulus": "", "key_press": -1, "type": "PRE_RECALL_DELAY", "trial_type": "single-stim", "trial_index": 249, "time_elapsed": 1140711, "internal_node_id": "0.0-186.0-0.0"}}, {"uniqueid": "MTK0087:3FQ5JJ512MV9EQKNEXBKQRVRKPMNKJ", "current_trial": 250, "dateTime": 1509132141970, "trialdata": {"rt": -1000, "stimulus": "/static/audio/400Hz.wav", "key_press": -1, "type": "PRE_RECALL_ALERT", "trial_type": "single-audio", "trial_index": 250, "time_elapsed": 1141211, "internal_node_id": "0.0-187.0"}}, {"uniqueid": "MTK0087:3FQ5JJ512MV9EQKNEXBKQRVRKPMNKJ", "current_trial": 251, "dateTime": 1509132201974, "trialdata": {"rt": [3447, 4791, 7215, 8215, 21191, 23152, 25232, 26432, 28224, 30024, 31656, 44416, 55608], "recwords": ["burglar", "dorm", "cigar", "flute", "sunrise", "razer", "candy", "treat", "milk", "honey", "sunrise", "scalpel", "ground"], "type": "FREE_RECALL", "conditions": [12, 1600, "a", 24000], "trial": 6, "trial_type": "free-recall", "trial_index": 251, "time_elapsed": 1201213, "internal_node_id": "0.0-188.0-0.0"}}, {"uniqueid": "MTK0087:3FQ5JJ512MV9EQKNEXBKQRVRKPMNKJ", "current_trial": 252, "dateTime": 1509132204443, "trialdata": {"rt": 469, "key_press": 13, "type": "INSTRUCTIONS", "trial_type": "text", "trial_index": 252, "time_elapsed": 1203684, "internal_node_id": "0.0-189.0"}}, {"uniqueid": "MTK0087:3FQ5JJ512MV9EQKNEXBKQRVRKPMNKJ", "current_trial": 253, "dateTime": 1509132218443, "trialdata": {"rt": [3744, 7384, 11128], "responses": ["18", "14", "14"], "num1": [7, 4, 7, 1], "num2": [2, 7, 2, 9], "num3": [9, 3, 5, 8], "type": "DISTRACTOR", "conditions": [12, 1600, "v", 12000], "trial": 7, "trial_type": "math-distractor", "trial_index": 253, "time_elapsed": 1217684, "internal_node_id": "0.0-190.0"}}, {"uniqueid": "MTK0087:3FQ5JJ512MV9EQKNEXBKQRVRKPMNKJ", "current_trial": 254, "dateTime": 1509132221443, "trialdata": {"rt": -1, "stimulus": "<p id=\"stim\">10</p>", "key_press": -1, "trial_type": "single-stim", "trial_index": 254, "time_elapsed": 1220684, "internal_node_id": "0.0-191.0-0.0"}}, {"uniqueid": "MTK0087:3FQ5JJ512MV9EQKNEXBKQRVRKPMNKJ", "current_trial": 255, "dateTime": 1509132222443, "trialdata": {"rt": -1, "stimulus": "<p id=\"stim\">9</p>", "key_press": -1, "trial_type": "single-stim", "trial_index": 255, "time_elapsed": 1221684, "internal_node_id": "0.0-191.0-1.0"}}, {"uniqueid": "MTK0087:3FQ5JJ512MV9EQKNEXBKQRVRKPMNKJ", "current_trial": 256, "dateTime": 1509132223443, "trialdata": {"rt": -1, "stimulus": "<p id=\"stim\">8</p>", "key_press": -1, "trial_type": "single-stim", "trial_index": 256, "time_elapsed": 1222684, "internal_node_id": "0.0-191.0-2.0"}}, {"uniqueid": "MTK0087:3FQ5JJ512MV9EQKNEXBKQRVRKPMNKJ", "current_trial": 257, "dateTime": 1509132224443, "trialdata": {"rt": -1, "stimulus": "<p id=\"stim\">7</p>", "key_press": -1, "trial_type": "single-stim", "trial_index": 257, "time_elapsed": 1223684, "internal_node_id": "0.0-191.0-3.0"}}, {"uniqueid": "MTK0087:3FQ5JJ512MV9EQKNEXBKQRVRKPMNKJ", "current_trial": 258, "dateTime": 1509132225444, "trialdata": {"rt": -1, "stimulus": "<p id=\"stim\">6</p>", "key_press": -1, "trial_type": "single-stim", "trial_index": 258, "time_elapsed": 1224685, "internal_node_id": "0.0-191.0-4.0"}}, {"uniqueid": "MTK0087:3FQ5JJ512MV9EQKNEXBKQRVRKPMNKJ", "current_trial": 259, "dateTime": 1509132226445, "trialdata": {"rt": -1, "stimulus": "<p id=\"stim\">5</p>", "key_press": -1, "trial_type": "single-stim", "trial_index": 259, "time_elapsed": 1225686, "internal_node_id": "0.0-191.0-5.0"}}, {"uniqueid": "MTK0087:3FQ5JJ512MV9EQKNEXBKQRVRKPMNKJ", "current_trial": 260, "dateTime": 1509132227446, "trialdata": {"rt": -1, "stimulus": "<p id=\"stim\">4</p>", "key_press": -1, "trial_type": "single-stim", "trial_index": 260, "time_elapsed": 1226687, "internal_node_id": "0.0-191.0-6.0"}}, {"uniqueid": "MTK0087:3FQ5JJ512MV9EQKNEXBKQRVRKPMNKJ", "current_trial": 261, "dateTime": 1509132228446, "trialdata": {"rt": -1, "stimulus": "<p id=\"stim\">3</p>", "key_press": -1, "trial_type": "single-stim", "trial_index": 261, "time_elapsed": 1227687, "internal_node_id": "0.0-191.0-7.0"}}, {"uniqueid": "MTK0087:3FQ5JJ512MV9EQKNEXBKQRVRKPMNKJ", "current_trial": 262, "dateTime": 1509132229447, "trialdata": {"rt": -1, "stimulus": "<p id=\"stim\">2</p>", "key_press": -1, "trial_type": "single-stim", "trial_index": 262, "time_elapsed": 1228688, "internal_node_id": "0.0-191.0-8.0"}}, {"uniqueid": "MTK0087:3FQ5JJ512MV9EQKNEXBKQRVRKPMNKJ", "current_trial": 263, "dateTime": 1509132230448, "trialdata": {"rt": -1, "stimulus": "<p id=\"stim\">1</p>", "key_press": -1, "trial_type": "single-stim", "trial_index": 263, "time_elapsed": 1229689, "internal_node_id": "0.0-191.0-9.0"}}, {"uniqueid": "MTK0087:3FQ5JJ512MV9EQKNEXBKQRVRKPMNKJ", "current_trial": 264, "dateTime": 1509132231949, "trialdata": {"rt": -1, "stimulus": "<p id=\"stim\">+</p>", "key_press": -1, "type": "FIXATION", "trial_type": "single-stim", "trial_index": 264, "time_elapsed": 1231190, "internal_node_id": "0.0-192.0-0.0"}}, {"uniqueid": "MTK0087:3FQ5JJ512MV9EQKNEXBKQRVRKPMNKJ", "current_trial": 265, "dateTime": 1509132233550, "trialdata": {"rt": -1, "stimulus": "<p id=\"stim\">TROUT</p>", "key_press": -1, "type": "PRES_VIS", "word": "trout", "wordID": 1510, "conditions": [12, 1600, "v", 12000], "trial": 7, "serialpos": 0, "trial_type": "single-stim", "trial_index": 265, "time_elapsed": 1232790, "internal_node_id": "0.0-193.0"}}, {"uniqueid": "MTK0087:3FQ5JJ512MV9EQKNEXBKQRVRKPMNKJ", "current_trial": 266, "dateTime": 1509132236015, "trialdata": {"rt": -1, "stimulus": "<p id=\"stim\">CLOCK</p>", "key_press": -1, "type": "PRES_VIS", "word": "clock", "wordID": 324, "conditions": [12, 1600, "v", 12000], "trial": 7, "serialpos": 1, "trial_type": "single-stim", "trial_index": 266, "time_elapsed": 1235256, "internal_node_id": "0.0-194.0"}}, {"uniqueid": "MTK0087:3FQ5JJ512MV9EQKNEXBKQRVRKPMNKJ", "current_trial": 267, "dateTime": 1509132238430, "trialdata": {"rt": -1, "stimulus": "<p id=\"stim\">WHISTLE</p>", "key_press": -1, "type": "PRES_VIS", "word": "whistle", "wordID": 1605, "conditions": [12, 1600, "v", 12000], "trial": 7, "serialpos": 2, "trial_type": "single-stim", "trial_index": 267, "time_elapsed": 1237671, "internal_node_id": "0.0-195.0"}}, {"uniqueid": "MTK0087:3FQ5JJ512MV9EQKNEXBKQRVRKPMNKJ", "current_trial": 268, "dateTime": 1509132240918, "trialdata": {"rt": -1, "stimulus": "<p id=\"stim\">SCULPTURE</p>", "key_press": -1, "type": "PRES_VIS", "word": "sculpture", "wordID": 1257, "conditions": [12, 1600, "v", 12000], "trial": 7, "serialpos": 3, "trial_type": "single-stim", "trial_index": 268, "time_elapsed": 1240159, "internal_node_id": "0.0-196.0"}}, {"uniqueid": "MTK0087:3FQ5JJ512MV9EQKNEXBKQRVRKPMNKJ", "current_trial": 269, "dateTime": 1509132243458, "trialdata": {"rt": -1, "stimulus": "<p id=\"stim\">GIRL</p>", "key_press": -1, "type": "PRES_VIS", "word": "girl", "wordID": 636, "conditions": [12, 1600, "v", 12000], "trial": 7, "serialpos": 4, "trial_type": "single-stim", "trial_index": 269, "time_elapsed": 1242699, "internal_node_id": "0.0-197.0"}}, {"uniqueid": "MTK0087:3FQ5JJ512MV9EQKNEXBKQRVRKPMNKJ", "current_trial": 270, "dateTime": 1509132245987, "trialdata": {"rt": -1, "stimulus": "<p id=\"stim\">CURTAIN</p>", "key_press": -1, "type": "PRES_VIS", "word": "curtain", "wordID": 426, "conditions": [12, 1600, "v", 12000], "trial": 7, "serialpos": 5, "trial_type": "single-stim", "trial_index": 270, "time_elapsed": 1245228, "internal_node_id": "0.0-198.0"}}, {"uniqueid": "MTK0087:3FQ5JJ512MV9EQKNEXBKQRVRKPMNKJ", "current_trial": 271, "dateTime": 1509132248607, "trialdata": {"rt": -1, "stimulus": "<p id=\"stim\">BLOUSE</p>", "key_press": -1, "type": "PRES_VIS", "word": "blouse", "wordID": 138, "conditions": [12, 1600, "v", 12000], "trial": 7, "serialpos": 6, "trial_type": "single-stim", "trial_index": 271, "time_elapsed": 1247848, "internal_node_id": "0.0-199.0"}}, {"uniqueid": "MTK0087:3FQ5JJ512MV9EQKNEXBKQRVRKPMNKJ", "current_trial": 272, "dateTime": 1509132251356, "trialdata": {"rt": -1, "stimulus": "<p id=\"stim\">PEACH</p>", "key_press": -1