{"condition": 0, "counterbalance": 101, "assignmentId": "3CPLWGV3MP6PXU1WA0KV0IHBB65N98", "workerId": "MTK0565", "hitId": "3VDVA3ILIDMZBDJLTHN568UBYFBG15", "currenttrial": 626, "bonus": 0, "data": [{"uniqueid": "MTK0565:3CPLWGV3MP6PXU1WA0KV0IHBB65N98", "current_trial": 0, "dateTime": 1511209445422, "trialdata": {"rt": 3605, "key_press": 32, "type": "INSTRUCTIONS", "trial_type": "text", "trial_index": 0, "time_elapsed": 3610, "internal_node_id": "0.0-0.0"}}, {"uniqueid": "MTK0565:3CPLWGV3MP6PXU1WA0KV0IHBB65N98", "current_trial": 1, "dateTime": 1511209456224, "trialdata": {"rt": 10799, "key_press": 32, "type": "INSTRUCTIONS", "trial_type": "text", "trial_index": 1, "time_elapsed": 14413, "internal_node_id": "0.0-1.0"}}, {"uniqueid": "MTK0565:3CPLWGV3MP6PXU1WA0KV0IHBB65N98", "current_trial": 2, "dateTime": 1511209466626, "trialdata": {"rt": [10377], "responses": ["ocean"], "type": "AUDIO_TEST", "trial_type": "audio-test", "trial_index": 2, "time_elapsed": 24814, "internal_node_id": "0.0-2.0"}}, {"uniqueid": "MTK0565:3CPLWGV3MP6PXU1WA0KV0IHBB65N98", "current_trial": 3, "dateTime": 1511209475750, "trialdata": {"rt": [9118], "responses": ["crystal"], "type": "AUDIO_TEST", "trial_type": "audio-test", "trial_index": 3, "time_elapsed": 33939, "internal_node_id": "0.0-3.0"}}, {"uniqueid": "MTK0565:3CPLWGV3MP6PXU1WA0KV0IHBB65N98", "current_trial": 4, "dateTime": 1511209482595, "trialdata": {"rt": [6840], "responses": ["spice"], "type": "AUDIO_TEST", "trial_type": "audio-test", "trial_index": 4, "time_elapsed": 40783, "internal_node_id": "0.0-4.0"}}, {"uniqueid": "MTK0565:3CPLWGV3MP6PXU1WA0KV0IHBB65N98", "current_trial": 5, "dateTime": 1511209497733, "trialdata": {"rt": 14386, "responses": "{\"Q0\":\"11pm\",\"Q1\":\"6am\",\"Q2\":\"3\"}", "type": "SLEEP_SURVEY", "trial_type": "survey-text", "trial_index": 5, "time_elapsed": 55922, "internal_node_id": "0.0-5.0"}}, {"uniqueid": "MTK0565:3CPLWGV3MP6PXU1WA0KV0IHBB65N98", "current_trial": 6, "dateTime": 1511209517654, "trialdata": {"rt": 18921, "key_press": 32, "type": "INSTRUCTIONS", "trial_type": "text", "trial_index": 6, "time_elapsed": 75843, "internal_node_id": "0.0-6.0"}}, {"uniqueid": "MTK0565:3CPLWGV3MP6PXU1WA0KV0IHBB65N98", "current_trial": 7, "dateTime": 1511209525989, "trialdata": {"rt": 7833, "key_press": 32, "type": "INSTRUCTIONS", "trial_type": "text", "trial_index": 7, "time_elapsed": 84178, "internal_node_id": "0.0-7.0"}}, {"uniqueid": "MTK0565:3CPLWGV3MP6PXU1WA0KV0IHBB65N98", "current_trial": 8, "dateTime": 1511209530895, "trialdata": {"rt": 4405, "key_press": 32, "type": "INSTRUCTIONS", "trial_type": "text", "trial_index": 8, "time_elapsed": 89084, "internal_node_id": "0.0-8.0"}}, {"uniqueid": "MTK0565:3CPLWGV3MP6PXU1WA0KV0IHBB65N98", "current_trial": 9, "dateTime": 1511209549914, "trialdata": {"rt": [], "responses": [], "num1": [1], "num2": [5], "num3": [4], "type": "DISTRACTOR", "conditions": [18, 1200, "a", 18000], "trial": 0, "trial_type": "math-distractor", "trial_index": 9, "time_elapsed": 108103, "internal_node_id": "0.0-9.0"}}, {"uniqueid": "MTK0565:3CPLWGV3MP6PXU1WA0KV0IHBB65N98", "current_trial": 10, "dateTime": 1511209552917, "trialdata": {"rt": -1, "stimulus": "<p id=\"stim\">10</p>", "key_press": -1, "trial_type": "single-stim", "trial_index": 10, "time_elapsed": 111106, "internal_node_id": "0.0-10.0-0.0"}}, {"uniqueid": "MTK0565:3CPLWGV3MP6PXU1WA0KV0IHBB65N98", "current_trial": 11, "dateTime": 1511209553919, "trialdata": {"rt": -1, "stimulus": "<p id=\"stim\">9</p>", "key_press": -1, "trial_type": "single-stim", "trial_index": 11, "time_elapsed": 112108, "internal_node_id": "0.0-10.0-1.0"}}, {"uniqueid": "MTK0565:3CPLWGV3MP6PXU1WA0KV0IHBB65N98", "current_trial": 12, "dateTime": 1511209554919, "trialdata": {"rt": -1, "stimulus": "<p id=\"stim\">8</p>", "key_press": -1, "trial_type": "single-stim", "trial_index": 12, "time_elapsed": 113108, "internal_node_id": "0.0-10.0-2.0"}}, {"uniqueid": "MTK0565:3CPLWGV3MP6PXU1WA0KV0IHBB65N98", "current_trial": 13, "dateTime": 1511209555921, "trialdata": {"rt": -1, "stimulus": "<p id=\"stim\">7</p>", "key_press": -1, "trial_type": "single-stim", "trial_index": 13, "time_elapsed": 114110, "internal_node_id": "0.0-10.0-3.0"}}, {"uniqueid": "MTK0565:3CPLWGV3MP6PXU1WA0KV0IHBB65N98", "current_trial": 14, "dateTime": 1511209556922, "trialdata": {"rt": -1, "stimulus": "<p id=\"stim\">6</p>", "key_press": -1, "trial_type": "single-stim", "trial_index": 14, "time_elapsed": 115111, "internal_node_id": "0.0-10.0-4.0"}}, {"uniqueid": "MTK0565:3CPLWGV3MP6PXU1WA0KV0IHBB65N98", "current_trial": 15, "dateTime": 1511209557923, "trialdata": {"rt": -1, "stimulus": "<p id=\"stim\">5</p>", "key_press": -1, "trial_type": "single-stim", "trial_index": 15, "time_elapsed": 116112, "internal_node_id": "0.0-10.0-5.0"}}, {"uniqueid": "MTK0565:3CPLWGV3MP6PXU1WA0KV0IHBB65N98", "current_trial": 16, "dateTime": 1511209558924, "trialdata": {"rt": -1, "stimulus": "<p id=\"stim\">4</p>", "key_press": -1, "trial_type": "single-stim", "trial_index": 16, "time_elapsed": 117113, "internal_node_id": "0.0-10.0-6.0"}}, {"uniqueid": "MTK0565:3CPLWGV3MP6PXU1WA0KV0IHBB65N98", "current_trial": 17, "dateTime": 1511209559925, "trialdata": {"rt": -1, "stimulus": "<p id=\"stim\">3</p>", "key_press": -1, "trial_type": "single-stim", "trial_index": 17, "time_elapsed": 118114, "internal_node_id": "0.0-10.0-7.0"}}, {"uniqueid": "MTK0565:3CPLWGV3MP6PXU1WA0KV0IHBB65N98", "current_trial": 18, "dateTime": 1511209560927, "trialdata": {"rt": -1, "stimulus": "<p id=\"stim\">2</p>", "key_press": -1, "trial_type": "single-stim", "trial_index": 18, "time_elapsed": 119116, "internal_node_id": "0.0-10.0-8.0"}}, {"uniqueid": "MTK0565:3CPLWGV3MP6PXU1WA0KV0IHBB65N98", "current_trial": 19, "dateTime": 1511209561928, "trialdata": {"rt": -1, "stimulus": "<p id=\"stim\">1</p>", "key_press": -1, "trial_type": "single-stim", "trial_index": 19, "time_elapsed": 120117, "internal_node_id": "0.0-10.0-9.0"}}, {"uniqueid": "MTK0565:3CPLWGV3MP6PXU1WA0KV0IHBB65N98", "current_trial": 20, "dateTime": 1511209563429, "trialdata": {"rt": -1, "stimulus": "<p id=\"stim\">+</p>", "key_press": -1, "type": "FIXATION", "trial_type": "single-stim", "trial_index": 20, "time_elapsed": 121618, "internal_node_id": "0.0-11.0-0.0"}}, {"uniqueid": "MTK0565:3CPLWGV3MP6PXU1WA0KV0IHBB65N98", "current_trial": 21, "dateTime": 1511209565735, "trialdata": {"rt": -1000, "stimulus": "/static/audio/wordpool/PLAZA.wav", "key_press": -1, "type": "PRES_AUD", "word": "plaza", "wordID": 1087, "conditions": [18, 1200, "a", 18000], "trial": 0, "serialpos": 0, "trial_type": "single-audio", "trial_index": 21, "time_elapsed": 123924, "internal_node_id": "0.0-12.0"}}, {"uniqueid": "MTK0565:3CPLWGV3MP6PXU1WA0KV0IHBB65N98", "current_trial": 22, "dateTime": 1511209568116, "trialdata": {"rt": -1000, "stimulus": "/static/audio/wordpool/COCKTAIL.wav", "key_press": -1, "type": "PRES_AUD", "word": "cocktail", "wordID": 337, "conditions": [18, 1200, "a", 18000], "trial": 0, "serialpos": 1, "trial_type": "single-audio", "trial_index": 22, "time_elapsed": 126305, "internal_node_id": "0.0-13.0"}}, {"uniqueid": "MTK0565:3CPLWGV3MP6PXU1WA0KV0IHBB65N98", "current_trial": 23, "dateTime": 1511209570343, "trialdata": {"rt": -1000, "stimulus": "/static/audio/wordpool/HUMAN.wav", "key_press": -1, "type": "PRES_AUD", "word": "human", "wordID": 725, "conditions": [18, 1200, "a", 18000], "trial": 0, "serialpos": 2, "trial_type": "single-audio", "trial_index": 23, "time_elapsed": 128532, "internal_node_id": "0.0-14.0"}}, {"uniqueid": "MTK0565:3CPLWGV3MP6PXU1WA0KV0IHBB65N98", "current_trial": 24, "dateTime": 1511209572435, "trialdata": {"rt": -1000, "stimulus": "/static/audio/wordpool/COMPASS.wav", "key_press": -1, "type": "PRES_AUD", "word": "compass", "wordID": 357, "conditions": [18, 1200, "a", 18000], "trial": 0, "serialpos": 3, "trial_type": "single-audio", "trial_index": 24, "time_elapsed": 130624, "internal_node_id": "0.0-15.0"}}, {"uniqueid": "MTK0565:3CPLWGV3MP6PXU1WA0KV0IHBB65N98", "current_trial": 25, "dateTime": 1511209574819, "trialdata": {"rt": -1000, "stimulus": "/static/audio/wordpool/ONION.wav", "key_press": -1, "type": "PRES_AUD", "word": "onion", "wordID": 976, "conditions": [18, 1200, "a", 18000], "trial": 0, "serialpos": 4, "trial_type": "single-audio", "trial_index": 25, "time_elapsed": 133007, "internal_node_id": "0.0-16.0"}}, {"uniqueid": "MTK0565:3CPLWGV3MP6PXU1WA0KV0IHBB65N98", "current_trial": 26, "dateTime": 1511209576911, "trialdata": {"rt": -1000, "stimulus": "/static/audio/wordpool/FOREHEAD.wav", "key_press": -1, "type": "PRES_AUD", "word": "forehead", "wordID": 591, "conditions": [18, 1200, "a", 18000], "trial": 0, "serialpos": 5, "trial_type": "single-audio", "trial_index": 26, "time_elapsed": 135100, "internal_node_id": "0.0-17.0"}}, {"uniqueid": "MTK0565:3CPLWGV3MP6PXU1WA0KV0IHBB65N98", "current_trial": 27, "dateTime": 1511209579195, "trialdata": {"rt": -1000, "stimulus": "/static/audio/wordpool/PORTRAIT.wav", "key_press": -1, "type": "PRES_AUD", "word": "portrait", "wordID": 1110, "conditions": [18, 1200, "a", 18000], "trial": 0, "serialpos": 6, "trial_type": "single-audio", "trial_index": 27, "time_elapsed": 137384, "internal_node_id": "0.0-18.0"}}, {"uniqueid": "MTK0565:3CPLWGV3MP6PXU1WA0KV0IHBB65N98", "current_trial": 28, "dateTime": 1511209581452, "trialdata": {"rt": -1000, "stimulus": "/static/audio/wordpool/LEG.wav", "key_press": -1, "type": "PRES_AUD", "word": "leg", "wordID": 808, "conditions": [18, 1200, "a", 18000], "trial": 0, "serialpos": 7, "trial_type": "single-audio", "trial_index": 28, "time_elapsed": 139641, "internal_node_id": "0.0-19.0"}}, {"uniqueid": "MTK0565:3CPLWGV3MP6PXU1WA0KV0IHBB65N98", "current_trial": 29, "dateTime": 1511209583684, "trialdata": {"rt": -1000, "stimulus": "/static/audio/wordpool/CRIB.wav", "key_press": -1, "type": "PRES_AUD", "word": "crib", "wordID": 406, "conditions": [18, 1200, "a", 18000], "trial": 0, "serialpos": 8, "trial_type": "single-audio", "trial_index": 29, "time_elapsed": 141873, "internal_node_id": "0.0-20.0"}}, {"uniqueid": "MTK0565:3CPLWGV3MP6PXU1WA0KV0IHBB65N98", "current_trial": 30, "dateTime": 1511209585956, "trialdata": {"rt": -1000, "stimulus": "/static/audio/wordpool/MAMMAL.wav", "key_press": -1, "type": "PRES_AUD", "word": "mammal", "wordID": 860, "conditions": [18, 1200, "a", 18000], "trial": 0, "serialpos": 9, "trial_type": "single-audio", "trial_index": 30, "time_elapsed": 144145, "internal_node_id": "0.0-21.0"}}, {"uniqueid": "MTK0565:3CPLWGV3MP6PXU1WA0KV0IHBB65N98", "current_trial": 31, "dateTime": 1511209588146, "trialdata": {"rt": -1000, "stimulus": "/static/audio/wordpool/LAGOON.wav", "key_press": -1, "type": "PRES_AUD", "word": "lagoon", "wordID": 794, "conditions": [18, 1200, "a", 18000], "trial": 0, "serialpos": 10, "trial_type": "single-audio", "trial_index": 31, "time_elapsed": 146335, "internal_node_id": "0.0-22.0"}}, {"uniqueid": "MTK0565:3CPLWGV3MP6PXU1WA0KV0IHBB65N98", "current_trial": 32, "dateTime": 1511209590151, "trialdata": {"rt": -1000, "stimulus": "/static/audio/wordpool/OFFICE.wav", "key_press": -1, "type": "PRES_AUD", "word": "office", "wordID": 971, "conditions": [18, 1200, "a", 18000], "trial": 0, "serialpos": 11, "trial_type": "single-audio", "trial_index": 32, "time_elapsed": 148340, "internal_node_id": "0.0-23.0"}}, {"uniqueid": "MTK0565:3CPLWGV3MP6PXU1WA0KV0IHBB65N98", "current_trial": 33, "dateTime": 1511209592412, "trialdata": {"rt": -1000, "stimulus": "/static/audio/wordpool/REPORT.wav", "key_press": -1, "type": "PRES_AUD", "word": "report", "wordID": 1183, "conditions": [18, 1200, "a", 18000], "trial": 0, "serialpos": 12, "trial_type": "single-audio", "trial_index": 33, "time_elapsed": 150600, "internal_node_id": "0.0-24.0"}}, {"uniqueid": "MTK0565:3CPLWGV3MP6PXU1WA0KV0IHBB65N98", "current_trial": 34, "dateTime": 1511209594482, "trialdata": {"rt": -1000, "stimulus": "/static/audio/wordpool/LAVA.wav", "key_press": -1, "type": "PRES_AUD", "word": "lava", "wordID": 803, "conditions": [18, 1200, "a", 18000], "trial": 0, "serialpos": 13, "trial_type": "single-audio", "trial_index": 34, "time_elapsed": 152671, "internal_node_id": "0.0-25.0"}}, {"uniqueid": "MTK0565:3CPLWGV3MP6PXU1WA0KV0IHBB65N98", "current_trial": 35, "dateTime": 1511209596664, "trialdata": {"rt": -1000, "stimulus": "/static/audio/wordpool/OYSTER.wav", "key_press": -1, "type": "PRES_AUD", "word": "oyster", "wordID": 994, "conditions": [18, 1200, "a", 18000], "trial": 0, "serialpos": 14, "trial_type": "single-audio", "trial_index": 35, "time_elapsed": 154853, "internal_node_id": "0.0-26.0"}}, {"uniqueid": "MTK0565:3CPLWGV3MP6PXU1WA0KV0IHBB65N98", "current_trial": 36, "dateTime": 1511209598666, "trialdata": {"rt": -1000, "stimulus": "/static/audio/wordpool/LAMP.wav", "key_press": -1, "type": "PRES_AUD", "word": "lamp", "wordID": 797, "conditions": [18, 1200, "a", 18000], "trial": 0, "serialpos": 15, "trial_type": "single-audio", "trial_index": 36, "time_elapsed": 156855, "internal_node_id": "0.0-27.0"}}, {"uniqueid": "MTK0565:3CPLWGV3MP6PXU1WA0KV0IHBB65N98", "current_trial": 37, "dateTime": 1511209600855, "trialdata": {"rt": -1000, "stimulus": "/static/audio/wordpool/LIGHTNING.wav", "key_press": -1, "type": "PRES_AUD", "word": "lightning", "wordID": 819, "conditions": [18, 1200, "a", 18000], "trial": 0, "serialpos": 16, "trial_type": "single-audio", "trial_index": 37, "time_elapsed": 159044, "internal_node_id": "0.0-28.0"}}, {"uniqueid": "MTK0565:3CPLWGV3MP6PXU1WA0KV0IHBB65N98", "current_trial": 38, "dateTime": 1511209602908, "trialdata": {"rt": -1000, "stimulus": "/static/audio/wordpool/ORANGE.wav", "key_press": -1, "type": "PRES_AUD", "word": "orange", "wordID": 979, "conditions": [18, 1200, "a", 18000], "trial": 0, "serialpos": 17, "trial_type": "single-audio", "trial_index": 38, "time_elapsed": 161097, "internal_node_id": "0.0-29.0"}}, {"uniqueid": "MTK0565:3CPLWGV3MP6PXU1WA0KV0IHBB65N98", "current_trial": 39, "dateTime": 1511209604251, "trialdata": {"rt": -1, "stimulus": "", "key_press": -1, "type": "PRE_RECALL_DELAY", "trial_type": "single-stim", "trial_index": 39, "time_elapsed": 162439, "internal_node_id": "0.0-30.0-0.0"}}, {"uniqueid": "MTK0565:3CPLWGV3MP6PXU1WA0KV0IHBB65N98", "current_trial": 40, "dateTime": 1511209604752, "trialdata": {"rt": -1000, "stimulus": "/static/audio/400Hz.wav", "key_press": -1, "type": "PRE_RECALL_ALERT", "trial_type": "single-audio", "trial_index": 40, "time_elapsed": 162941, "internal_node_id": "0.0-31.0"}}, {"uniqueid": "MTK0565:3CPLWGV3MP6PXU1WA0KV0IHBB65N98", "current_trial": 41, "dateTime": 1511209664759, "trialdata": {"rt": [2769, 3947, 5394, 6293, 8164, 9622, 18512, 19828], "recwords": ["lightning", "orange", "cocktail", "lava", "onion", "plaza", "orange", ""], "type": "FREE_RECALL", "conditions": [18, 1200, "a", 18000], "trial": 0, "trial_type": "free-recall", "trial_index": 41, "time_elapsed": 222946, "internal_node_id": "0.0-32.0-0.0"}}, {"uniqueid": "MTK0565:3CPLWGV3MP6PXU1WA0KV0IHBB65N98", "current_trial": 42, "dateTime": 1511209668355, "trialdata": {"rt": 1594, "key_press": 13, "type": "INSTRUCTIONS", "trial_type": "text", "trial_index": 42, "time_elapsed": 226544, "internal_node_id": "0.0-33.0"}}, {"uniqueid": "MTK0565:3CPLWGV3MP6PXU1WA0KV0IHBB65N98", "current_trial": 43, "dateTime": 1511209688358, "trialdata": {"rt": [3472, 5454, 6983, 8392, 9675, 11535, 13155, 14536, 16423], "responses": ["19", "10", "10", "13", "13", "16", "13", "11", "12"], "num1": [8, 3, 1, 4, 7, 2, 1, 1, 6, 6], "num2": [3, 6, 5, 6, 3, 6, 5, 7, 4, 8], "num3": [8, 1, 4, 3, 3, 8, 7, 3, 2, 2], "type": "DISTRACTOR", "conditions": [18, 1200, "v", 18000], "trial": 1, "trial_type": "math-distractor", "trial_index": 43, "time_elapsed": 246546, "internal_node_id": "0.0-34.0"}}, {"uniqueid": "MTK0565:3CPLWGV3MP6PXU1WA0KV0IHBB65N98", "current_trial": 44, "dateTime": 1511209691359, "trialdata": {"rt": -1, "stimulus": "<p id=\"stim\">10</p>", "key_press": -1, "trial_type": "single-stim", "trial_index": 44, "time_elapsed": 249548, "internal_node_id": "0.0-35.0-0.0"}}, {"uniqueid": "MTK0565:3CPLWGV3MP6PXU1WA0KV0IHBB65N98", "current_trial": 45, "dateTime": 1511209692360, "trialdata": {"rt": -1, "stimulus": "<p id=\"stim\">9</p>", "key_press": -1, "trial_type": "single-stim", "trial_index": 45, "time_elapsed": 250549, "internal_node_id": "0.0-35.0-1.0"}}, {"uniqueid": "MTK0565:3CPLWGV3MP6PXU1WA0KV0IHBB65N98", "current_trial": 46, "dateTime": 1511209693361, "trialdata": {"rt": -1, "stimulus": "<p id=\"stim\">8</p>", "key_press": -1, "trial_type": "single-stim", "trial_index": 46, "time_elapsed": 251550, "internal_node_id": "0.0-35.0-2.0"}}, {"uniqueid": "MTK0565:3CPLWGV3MP6PXU1WA0KV0IHBB65N98", "current_trial": 47, "dateTime": 1511209694363, "trialdata": {"rt": -1, "stimulus": "<p id=\"stim\">7</p>", "key_press": -1, "trial_type": "single-stim", "trial_index": 47, "time_elapsed": 252552, "internal_node_id": "0.0-35.0-3.0"}}, {"uniqueid": "MTK0565:3CPLWGV3MP6PXU1WA0KV0IHBB65N98", "current_trial": 48, "dateTime": 1511209695365, "trialdata": {"rt": -1, "stimulus": "<p id=\"stim\">6</p>", "key_press": -1, "trial_type": "single-stim", "trial_index": 48, "time_elapsed": 253553, "internal_node_id": "0.0-35.0-4.0"}}, {"uniqueid": "MTK0565:3CPLWGV3MP6PXU1WA0KV0IHBB65N98", "current_trial": 49, "dateTime": 1511209696366, "trialdata": {"rt": -1, "stimulus": "<p id=\"stim\">5</p>", "key_press": -1, "trial_type": "single-stim", "trial_index": 49, "time_elapsed": 254555, "internal_node_id": "0.0-35.0-5.0"}}, {"uniqueid": "MTK0565:3CPLWGV3MP6PXU1WA0KV0IHBB65N98", "current_trial": 50, "dateTime": 1511209697368, "trialdata": {"rt": -1, "stimulus": "<p id=\"stim\">4</p>", "key_press": -1, "trial_type": "single-stim", "trial_index": 50, "time_elapsed": 255557, "internal_node_id": "0.0-35.0-6.0"}}, {"uniqueid": "MTK0565:3CPLWGV3MP6PXU1WA0KV0IHBB65N98", "current_trial": 51, "dateTime": 1511209698370, "trialdata": {"rt": -1, "stimulus": "<p id=\"stim\">3</p>", "key_press": -1, "trial_type": "single-stim", "trial_index": 51, "time_elapsed": 256558, "internal_node_id": "0.0-35.0-7.0"}}, {"uniqueid": "MTK0565:3CPLWGV3MP6PXU1WA0KV0IHBB65N98", "current_trial": 52, "dateTime": 1511209699371, "trialdata": {"rt": -1, "stimulus": "<p id=\"stim\">2</p>", "key_press": -1, "trial_type": "single-stim", "trial_index": 52, "time_elapsed": 257560, "internal_node_id": "0.0-35.0-8.0"}}, {"uniqueid": "MTK0565:3CPLWGV3MP6PXU1WA0KV0IHBB65N98", "current_trial": 53, "dateTime": 1511209700372, "trialdata": {"rt": -1, "stimulus": "<p id=\"stim\">1</p>", "key_press": -1, "trial_type": "single-stim", "trial_index": 53, "time_elapsed": 258561, "internal_node_id": "0.0-35.0-9.0"}}, {"uniqueid": "MTK0565:3CPLWGV3MP6PXU1WA0KV0IHBB65N98", "current_trial": 54, "dateTime": 1511209701874, "trialdata": {"rt": -1, "stimulus": "<p id=\"stim\">+</p>", "key_press": -1, "type": "FIXATION", "trial_type": "single-stim", "trial_index": 54, "time_elapsed": 260063, "internal_node_id": "0.0-36.0-0.0"}}, {"uniqueid": "MTK0565:3CPLWGV3MP6PXU1WA0KV0IHBB65N98", "current_trial": 55, "dateTime": 1511209703075, "trialdata": {"rt": -1, "stimulus": "<p id=\"stim\">HUSBAND</p>", "key_press": -1, "type": "PRES_VIS", "word": "husband", "wordID": 727, "conditions": [18, 1200, "v", 18000], "trial": 1, "serialpos": 0, "trial_type": "single-stim", "trial_index": 55, "time_elapsed": 261264, "internal_node_id": "0.0-37.0"}}, {"uniqueid": "MTK0565:3CPLWGV3MP6PXU1WA0KV0IHBB65N98", "current_trial": 56, "dateTime": 1511209705342, "trialdata": {"rt": -1, "stimulus": "<p id=\"stim\">AIRPLANE</p>", "key_press": -1, "type": "PRES_VIS", "word": "airplane", "wordID": 11, "conditions": [18, 1200, "v", 18000], "trial": 1, "serialpos": 1, "trial_type": "single-stim", "trial_index": 56, "time_elapsed": 263531, "internal_node_id": "0.0-38.0"}}, {"uniqueid": "MTK0565:3CPLWGV3MP6PXU1WA0KV0IHBB65N98", "current_trial": 57, "dateTime": 1511209707661, "trialdata": {"rt": -1, "stimulus": "<p id=\"stim\">GRILL</p>", "key_press": -1, "type": "PRES_VIS", "word": "grill", "wordID": 660, "conditions": [18, 1200, "v", 18000], "trial": 1, "serialpos": 2, "trial_type": "single-stim", "trial_index": 57, "time_elapsed": 265850, "internal_node_id": "0.0-39.0"}}, {"uniqueid": "MTK0565:3CPLWGV3MP6PXU1WA0KV0IHBB65N98", "current_trial": 58, "dateTime": 1511209709796, "trialdata": {"rt": -1, "stimulus": "<p id=\"stim\">PAPER</p>", "key_press": -1, "type": "PRES_VIS", "word": "paper", "wordID": 1010, "conditions": [18, 1200, "v", 18000], "trial": 1, "serialpos": 3, "trial_type": "single-stim", "trial_index": 58, "time_elapsed": 267985, "internal_node_id": "0.0-40.0"}}, {"uniqueid": "MTK0565:3CPLWGV3MP6PXU1WA0KV0IHBB65N98", "current_trial": 59, "dateTime": 1511209711968, "trialdata": {"rt": -1, "stimulus": "<p id=\"stim\">PLIERS</p>", "key_press": -1, "type": "PRES_VIS", "word": "pliers", "wordID": 1088, "conditions": [18, 1200, "v", 18000], "trial": 1, "serialpos": 4, "trial_type": "single-stim", "trial_index": 59, "time_elapsed": 270156, "internal_node_id": "0.0-41.0"}}, {"uniqueid": "MTK0565:3CPLWGV3MP6PXU1WA0KV0IHBB65N98", "current_trial": 60, "dateTime": 1511209714037, "trialdata": {"rt": -1, "stimulus": "<p id=\"stim\">WIFE</p>", "key_press": -1, "type": "PRES_VIS", "word": "wife", "wordID": 1608, "conditions": [18, 1200, "v", 18000], "trial": 1, "serialpos": 5, "trial_type": "single-stim", "trial_index": 60, "time_elapsed": 272225, "internal_node_id": "0.0-42.0"}}, {"uniqueid": "MTK0565:3CPLWGV3MP6PXU1WA0KV0IHBB65N98", "current_trial": 61, "dateTime": 1511209716303, "trialdata": {"rt": -1, "stimulus": "<p id=\"stim\">SISTER</p>", "key_press": -1, "type": "PRES_VIS", "word": "sister", "wordID": 1311, "conditions": [18, 1200, "v", 18000], "trial": 1, "serialpos": 6, "trial_type": "single-stim", "trial_index": 61, "time_elapsed": 274491, "internal_node_id": "0.0-43.0"}}, {"uniqueid": "MTK0565:3CPLWGV3MP6PXU1WA0KV0IHBB65N98", "current_trial": 62, "dateTime": 1511209718541, "trialdata": {"rt": -1, "stimulus": "<p id=\"stim\">BUBBLE</p>", "key_press": -1, "type": "PRES_VIS", "word": "bubble", "wordID": 182, "conditions": [18, 1200, "v", 18000], "trial": 1, "serialpos": 7, "trial_type": "single-stim", "trial_index": 62, "time_elapsed": 276730, "internal_node_id": "0.0-44.0"}}, {"uniqueid": "MTK0565:3CPLWGV3MP6PXU1WA0KV0IHBB65N98", "current_trial": 63, "dateTime": 1511209720551, "trialdata": {"rt": -1, "stimulus": "<p id=\"stim\">COIN</p>", "key_press": -1, "type": "PRES_VIS", "word": "coin", "wordID": 342, "conditions": [18, 1200, "v", 18000], "trial": 1, "serialpos": 8, "trial_type": "single-stim", "trial_index": 63, "time_elapsed": 278740, "internal_node_id": "0.0-45.0"}}, {"uniqueid": "MTK0565:3CPLWGV3MP6PXU1WA0KV0IHBB65N98", "current_trial": 64, "dateTime": 1511209722829, "trialdata": {"rt": -1, "stimulus": "<p id=\"stim\">CLIMBER</p>", "key_press": -1, "type": "PRES_VIS", "word": "climber", "wordID": 322, "conditions": [18, 1200, "v", 18000], "trial": 1, "serialpos": 9, "trial_type": "single-stim", "trial_index": 64, "time_elapsed": 281017, "internal_node_id": "0.0-46.0"}}, {"uniqueid": "MTK0565:3CPLWGV3MP6PXU1WA0KV0IHBB65N98", "current_trial": 65, "dateTime": 1511209725208, "trialdata": {"rt": -1, "stimulus": "<p id=\"stim\">CASHEW</p>", "key_press": -1, "type": "PRES_VIS", "word": "cashew", "wordID": 252, "conditions": [18, 1200, "v", 18000], "trial": 1, "serialpos": 10, "trial_type": "single-stim", "trial_index": 65, "time_elapsed": 283397, "internal_node_id": "0.0-47.0"}}, {"uniqueid": "MTK0565:3CPLWGV3MP6PXU1WA0KV0IHBB65N98", "current_trial": 66, "dateTime": 1511209727418, "trialdata": {"rt": -1, "stimulus": "<p id=\"stim\">MESSAGE</p>", "key_press": -1, "type": "PRES_VIS", "word": "message", "wordID": 887, "conditions": [18, 1200, "v", 18000], "trial": 1, "serialpos": 11, "trial_type": "single-stim", "trial_index": 66, "time_elapsed": 285606, "internal_node_id": "0.0-48.0"}}, {"uniqueid": "MTK0565:3CPLWGV3MP6PXU1WA0KV0IHBB65N98", "current_trial": 67, "dateTime": 1511209729470, "trialdata": {"rt": -1, "stimulus": "<p id=\"stim\">HATCHET</p>", "key_press": -1, "type": "PRES_VIS", "word": "hatchet", "wordID": 690, "conditions": [18, 1200, "v", 18000], "trial": 1, "serialpos": 12, "trial_type": "single-stim", "trial_index": 67, "time_elapsed": 287659, "internal_node_id": "0.0-49.0"}}, {"uniqueid": "MTK0565:3CPLWGV3MP6PXU1WA0KV0IHBB65N98", "current_trial": 68, "dateTime": 1511209731840, "trialdata": {"rt": -1, "stimulus": "<p id=\"stim\">PARTNER</p>", "key_press": -1, "type": "PRES_VIS", "word": "partner", "wordID": 1016, "conditions": [18, 1200, "v", 18000], "trial": 1, "serialpos": 13, "trial_type": "single-stim", "trial_index": 68, "time_elapsed": 290027, "internal_node_id": "0.0-50.0"}}, {"uniqueid": "MTK0565:3CPLWGV3MP6PXU1WA0KV0IHBB65N98", "current_trial": 69, "dateTime": 1511209734231, "trialdata": {"rt": -1, "stimulus": "<p id=\"stim\">FLASHLIGHT</p>", "key_press": -1, "type": "PRES_VIS", "word": "flashlight", "wordID": 574, "conditions": [18, 1200, "v", 18000], "trial": 1, "serialpos": 14, "trial_type": "single-stim", "trial_index": 69, "time_elapsed": 292419, "internal_node_id": "0.0-51.0"}}, {"uniqueid": "MTK0565:3CPLWGV3MP6PXU1WA0KV0IHBB65N98", "current_trial": 70, "dateTime": 1511209736233, "trialdata": {"rt": -1, "stimulus": "<p id=\"stim\">CREVICE</p>", "key_press": -1, "type": "PRES_VIS", "word": "crevice", "wordID": 404, "conditions": [18, 1200, "v", 18000], "trial": 1, "serialpos": 15, "trial_type": "single-stim", "trial_index": 70, "time_elapsed": 294422, "internal_node_id": "0.0-52.0"}}, {"uniqueid": "MTK0565:3CPLWGV3MP6PXU1WA0KV0IHBB65N98", "current_trial": 71, "dateTime": 1511209738303, "trialdata": {"rt": -1, "stimulus": "<p id=\"stim\">HAMPER</p>", "key_press": -1, "type": "PRES_VIS", "word": "hamper", "wordID": 681, "conditions": [18, 1200, "v", 18000], "trial": 1, "serialpos": 16, "trial_type": "single-stim", "trial_index": 71, "time_elapsed": 296492, "internal_node_id": "0.0-53.0"}}, {"uniqueid": "MTK0565:3CPLWGV3MP6PXU1WA0KV0IHBB65N98", "current_trial": 72, "dateTime": 1511209740689, "trialdata": {"rt": -1, "stimulus": "<p id=\"stim\">DRIVER</p>", "key_press": -1, "type": "PRES_VIS", "word": "driver", "wordID": 498, "conditions": [18, 1200, "v", 18000], "trial": 1, "serialpos": 17, "trial_type": "single-stim", "trial_index": 72, "time_elapsed": 298878, "internal_node_id": "0.0-54.0"}}, {"uniqueid": "MTK0565:3CPLWGV3MP6PXU1WA0KV0IHBB65N98", "current_trial": 73, "dateTime": 1511209743113, "trialdata": {"rt": -1, "stimulus": "", "key_press": -1, "type": "PRE_RECALL_DELAY", "trial_type": "single-stim", "trial_index": 73, "time_elapsed": 301302, "internal_node_id": "0.0-55.0-0.0"}}, {"uniqueid": "MTK0565:3CPLWGV3MP6PXU1WA0KV0IHBB65N98", "current_trial": 74, "dateTime": 1511209743614, "trialdata": {"rt": -1000, "stimulus": "/static/audio/400Hz.wav", "key_press": -1, "type": "PRE_RECALL_ALERT", "trial_type": "single-audio", "trial_index": 74, "time_elapsed": 301803, "internal_node_id": "0.0-56.0"}}, {"uniqueid": "MTK0565:3CPLWGV3MP6PXU1WA0KV0IHBB65N98", "current_trial": 75, "dateTime": 1511209803622, "trialdata": {"rt": [3263, 5179, 7378, 8573, 17227, 20286], "recwords": ["message", "hatchet", "husband", "grill", "paper", "airplane"], "type": "FREE_RECALL", "conditions": [18, 1200, "v", 18000], "trial": 1, "trial_type": "free-recall", "trial_index": 75, "time_elapsed": 361807, "internal_node_id": "0.0-57.0-0.0"}}, {"uniqueid": "MTK0565:3CPLWGV3MP6PXU1WA0KV0IHBB65N98", "current_trial": 76, "dateTime": 1511209817391, "trialdata": {"rt": 11761, "key_press": 32, "type": "INSTRUCTIONS", "trial_type": "text", "trial_index": 76, "time_elapsed": 375574, "internal_node_id": "0.0-58.0"}}, {"uniqueid": "MTK0565:3CPLWGV3MP6PXU1WA0KV0IHBB65N98", "current_trial": 77, "dateTime": 1511209830395, "trialdata": {"rt": [3840, 6029, 7424, 9347, 10536], "responses": ["18", "20", "13", "14", "12"], "num1": [6, 9, 8, 9, 5, 5], "num2": [5, 8, 3, 2, 5, 3], "num3": [7, 3, 2, 3, 2, 8], "type": "DISTRACTOR", "conditions": [24, 1600, "a", 12000], "trial": 2, "trial_type": "math-distractor", "trial_index": 77, "time_elapsed": 388584, "internal_node_id": "0.0-59.0"}}, {"uniqueid": "MTK0565:3CPLWGV3MP6PXU1WA0KV0IHBB65N98", "current_trial": 78, "dateTime": 1511209833397, "trialdata": {"rt": -1, "stimulus": "<p id=\"stim\">10</p>", "key_press": -1, "trial_type": "single-stim", "trial_index": 78, "time_elapsed": 391586, "internal_node_id": "0.0-60.0-0.0"}}, {"uniqueid": "MTK0565:3CPLWGV3MP6PXU1WA0KV0IHBB65N98", "current_trial": 79, "dateTime": 1511209834399, "trialdata": {"rt": -1, "stimulus": "<p id=\"stim\">9</p>", "key_press": -1, "trial_type": "single-stim", "trial_index": 79, "time_elapsed": 392588, "internal_node_id": "0.0-60.0-1.0"}}, {"uniqueid": "MTK0565:3CPLWGV3MP6PXU1WA0KV0IHBB65N98", "current_trial": 80, "dateTime": 1511209835401, "trialdata": {"rt": -1, "stimulus": "<p id=\"stim\">8</p>", "key_press": -1, "trial_type": "single-stim", "trial_index": 80, "time_elapsed": 393590, "internal_node_id": "0.0-60.0-2.0"}}, {"uniqueid": "MTK0565:3CPLWGV3MP6PXU1WA0KV0IHBB65N98", "current_trial": 81, "dateTime": 1511209836402, "trialdata": {"rt": -1, "stimulus": "<p id=\"stim\">7</p>", "key_press": -1, "trial_type": "single-stim", "trial_index": 81, "time_elapsed": 394591, "internal_node_id": "0.0-60.0-3.0"}}, {"uniqueid": "MTK0565:3CPLWGV3MP6PXU1WA0KV0IHBB65N98", "current_trial": 82, "dateTime": 1511209837404, "trialdata": {"rt": -1, "stimulus": "<p id=\"stim\">6</p>", "key_press": -1, "trial_type": "single-stim", "trial_index": 82, "time_elapsed": 395592, "internal_node_id": "0.0-60.0-4.0"}}, {"uniqueid": "MTK0565:3CPLWGV3MP6PXU1WA0KV0IHBB65N98", "current_trial": 83, "dateTime": 1511209838405, "trialdata": {"rt": -1, "stimulus": "<p id=\"stim\">5</p>", "key_press": -1, "trial_type": "single-stim", "trial_index": 83, "time_elapsed": 396594, "internal_node_id": "0.0-60.0-5.0"}}, {"uniqueid": "MTK0565:3CPLWGV3MP6PXU1WA0KV0IHBB65N98", "current_trial": 84, "dateTime": 1511209839407, "trialdata": {"rt": -1, "stimulus": "<p id=\"stim\">4</p>", "key_press": -1, "trial_type": "single-stim", "trial_index": 84, "time_elapsed": 397595, "internal_node_id": "0.0-60.0-6.0"}}, {"uniqueid": "MTK0565:3CPLWGV3MP6PXU1WA0KV0IHBB65N98", "current_trial": 85, "dateTime": 1511209840408, "trialdata": {"rt": -1, "stimulus": "<p id=\"stim\">3</p>", "key_press": -1, "trial_type": "single-stim", "trial_index": 85, "time_elapsed": 398597, "internal_node_id": "0.0-60.0-7.0"}}, {"uniqueid": "MTK0565:3CPLWGV3MP6PXU1WA0KV0IHBB65N98", "current_trial": 86, "dateTime": 1511209841409, "trialdata": {"rt": -1, "stimulus": "<p id=\"stim\">2</p>", "key_press": -1, "trial_type": "single-stim", "trial_index": 86, "time_elapsed": 399598, "internal_node_id": "0.0-60.0-8.0"}}, {"uniqueid": "MTK0565:3CPLWGV3MP6PXU1WA0KV0IHBB65N98", "current_trial": 87, "dateTime": 1511209842411, "trialdata": {"rt": -1, "stimulus": "<p id=\"stim\">1</p>", "key_press": -1, "trial_type": "single-stim", "trial_index": 87, "time_elapsed": 400600, "internal_node_id": "0.0-60.0-9.0"}}, {"uniqueid": "MTK0565:3CPLWGV3MP6PXU1WA0KV0IHBB65N98", "current_trial": 88, "dateTime": 1511209843914, "trialdata": {"rt": -1, "stimulus": "<p id=\"stim\">+</p>", "key_press": -1, "type": "FIXATION", "trial_type": "single-stim", "trial_index": 88, "time_elapsed": 402102, "internal_node_id": "0.0-61.0-0.0"}}, {"uniqueid": "MTK0565:3CPLWGV3MP6PXU1WA0KV0IHBB65N98", "current_trial": 89, "dateTime": 1511209846580, "trialdata": {"rt": -1000, "stimulus": "/static/audio/wordpool/PIGEON.wav", "key_press": -1, "type": "PRES_AUD", "word": "pigeon", "wordID": 1064, "conditions": [24, 1600, "a", 12000], "trial": 2, "serialpos": 0, "trial_type": "single-audio", "trial_index": 89, "time_elapsed": 404769, "internal_node_id": "0.0-62.0"}}, {"uniqueid": "MTK0565:3CPLWGV3MP6PXU1WA0KV0IHBB65N98", "current_trial": 90, "dateTime": 1511209849166, "trialdata": {"rt": -1000, "stimulus": "/static/audio/wordpool/FRANCE.wav", "key_press": -1, "type": "PRES_AUD", "word": "france", "wordID": 600, "conditions": [24, 1600, "a", 12000], "trial": 2, "serialpos": 1, "trial_type": "single-audio", "trial_index": 90, "time_elapsed": 407355, "internal_node_id": "0.0-63.0"}}, {"uniqueid": "MTK0565:3CPLWGV3MP6PXU1WA0KV0IHBB65N98", "current_trial": 91, "dateTime": 1511209851761, "trialdata": {"rt": -1000, "stimulus": "/static/audio/wordpool/FLIPPER.wav", "key_press": -1, "type": "PRES_AUD", "word": "flipper", "wordID": 579, "conditions": [24, 1600, "a", 12000], "trial": 2, "serialpos": 2, "trial_type": "single-audio", "trial_index": 91, "time_elapsed": 409950, "internal_node_id": "0.0-64.0"}}, {"uniqueid": "MTK0565:3CPLWGV3MP6PXU1WA0KV0IHBB65N98", "current_trial": 92, "dateTime": 1511209854514, "trialdata": {"rt": -1000, "stimulus": "/static/audio/wordpool/JAPAN.wav", "key_press": -1, "type": "PRES_AUD", "word": "japan", "wordID": 748, "conditions": [24, 1600, "a", 12000], "trial": 2, "serialpos": 3, "trial_type": "single-audio", "trial_index": 92, "time_elapsed": 412703, "internal_node_id": "0.0-65.0"}}, {"uniqueid": "MTK0565:3CPLWGV3MP6PXU1WA0KV0IHBB65N98", "current_trial": 93, "dateTime": 1511209857031, "trialdata": {"rt": -1000, "stimulus": "/static/audio/wordpool/BROTHER.wav", "key_press": -1, "type": "PRES_AUD", "word": "brother", "wordID": 178, "conditions": [24, 1600, "a", 12000], "trial": 2, "serialpos": 4, "trial_type": "single-audio", "trial_index": 93, "time_elapsed": 415220, "internal_node_id": "0.0-66.0"}}, {"uniqueid": "MTK0565:3CPLWGV3MP6PXU1WA0KV0IHBB65N98", "current_trial": 94, "dateTime": 1511209859709, "trialdata": {"rt": -1000, "stimulus": "/static/audio/wordpool/PATIENT.wav", "key_press": -1, "type": "PRES_AUD", "word": "patient", "wordID": 1023, "conditions": [24, 1600, "a", 12000], "trial": 2, "serialpos": 5, "trial_type": "single-audio", "trial_index": 94, "time_elapsed": 417898, "internal_node_id": "0.0-67.0"}}, {"uniqueid": "MTK0565:3CPLWGV3MP6PXU1WA0KV0IHBB65N98", "current_trial": 95, "dateTime": 1511209862117, "trialdata": {"rt": -1000, "stimulus": "/static/audio/wordpool/LODGE.wav", "key_press": -1, "type": "PRES_AUD", "word": "lodge", "wordID": 838, "conditions": [24, 1600, "a", 12000], "trial": 2, "serialpos": 6, "trial_type": "single-audio", "trial_index": 95, "time_elapsed": 420306, "internal_node_id": "0.0-68.0"}}, {"uniqueid": "MTK0565:3CPLWGV3MP6PXU1WA0KV0IHBB65N98", "current_trial": 96, "dateTime": 1511209864801, "trialdata": {"rt": -1000, "stimulus": "/static/audio/wordpool/GOBLIN.wav", "key_press": -1, "type": "PRES_AUD", "word": "goblin", "wordID": 644, "conditions": [24, 1600, "a", 12000], "trial": 2, "serialpos": 7, "trial_type": "single-audio", "trial_index": 96, "time_elapsed": 422990, "internal_node_id": "0.0-69.0"}}, {"uniqueid": "MTK0565:3CPLWGV3MP6PXU1WA0KV0IHBB65N98", "current_trial": 97, "dateTime": 1511209867561, "trialdata": {"rt": -1000, "stimulus": "/static/audio/wordpool/DRAGON.wav", "key_press": -1, "type": "PRES_AUD", "word": "dragon", "wordID": 491, "conditions": [24, 1600, "a", 12000], "trial": 2, "serialpos": 8, "trial_type": "single-audio", "trial_index": 97, "time_elapsed": 425750, "internal_node_id": "0.0-70.0"}}, {"uniqueid": "MTK0565:3CPLWGV3MP6PXU1WA0KV0IHBB65N98", "current_trial": 98, "dateTime": 1511209870111, "trialdata": {"rt": -1000, "stimulus": "/static/audio/wordpool/BEAKER.wav", "key_press": -1, "type": "PRES_AUD", "word": "beaker", "wordID": 103, "conditions": [24, 1600, "a", 12000], "trial": 2, "serialpos": 9, "trial_type": "single-audio", "trial_index": 98, "time_elapsed": 428300, "internal_node_id": "0.0-71.0"}}, {"uniqueid": "MTK0565:3CPLWGV3MP6PXU1WA0KV0IHBB65N98", "current_trial": 99, "dateTime": 1511209872736, "trialdata": {"rt": -1000, "stimulus": "/static/audio/wordpool/JUNGLE.wav", "key_press": -1, "type": "PRES_AUD", "word": "jungle", "wordID": 763, "conditions": [24, 1600, "a", 12000], "trial": 2, "serialpos": 10, "trial_type": "single-audio", "trial_index": 99, "time_elapsed": 430925, "internal_node_id": "0.0-72.0"}}, {"uniqueid": "MTK0565:3CPLWGV3MP6PXU1WA0KV0IHBB65N98", "current_trial": 100, "dateTime": 1511209875398, "trialdata": {"rt": -1000, "stimulus": "/static/audio/wordpool/ASIA.wav", "key_press": -1, "type": "PRES_AUD", "word": "asia", "wordID": 45, "conditions": [24, 1600, "a", 12000], "trial": 2, "serialpos": 11, "trial_type": "single-audio", "trial_index": 100, "time_elapsed": 433587, "internal_node_id": "0.0-73.0"}}, {"uniqueid": "MTK0565:3CPLWGV3MP6PXU1WA0KV0IHBB65N98", "current_trial": 101, "dateTime": 1511209877979, "trialdata": {"rt": -1000, "stimulus": "/static/audio/wordpool/STOVE.wav", "key_press": -1, "type": "PRES_AUD", "word": "stove", "wordID": 1387, "conditions": [24, 1600, "a", 12000], "trial": 2, "serialpos": 12, "trial_type": "single-audio", "trial_index": 101, "time_elapsed": 436168, "internal_node_id": "0.0-74.0"}}, {"uniqueid": "MTK0565:3CPLWGV3MP6PXU1WA0KV0IHBB65N98", "current_trial": 102, "dateTime": 1511209880635, "trialdata": {"rt": -1000, "stimulus": "/static/audio/wordpool/HONEY.wav", "key_press": -1, "type": "PRES_AUD", "word": "honey", "wordID": 712, "conditions": [24, 1600, "a", 12000], "trial": 2, "serialpos": 13, "trial_type": "single-audio", "trial_index": 102, "time_elapsed": 438824, "internal_node_id": "0.0-75.0"}}, {"uniqueid": "MTK0565:3CPLWGV3MP6PXU1WA0KV0IHBB65N98", "current_trial": 103, "dateTime": 1511209883153, "trialdata": {"rt": -1000, "stimulus": "/static/audio/wordpool/DONKEY.wav", "key_press": -1, "type": "PRES_AUD", "word": "donkey", "wordID": 483, "conditions": [24, 1600, "a", 12000], "trial": 2, "serialpos": 14, "trial_type": "single-audio", "trial_index": 103, "time_elapsed": 441342, "internal_node_id": "0.0-76.0"}}, {"uniqueid": "MTK0565:3CPLWGV3MP6PXU1WA0KV0IHBB65N98", "current_trial": 104, "dateTime": 1511209885696, "trialdata": {"rt": -1000, "stimulus": "/static/audio/wordpool/PUDDING.wav", "key_press": -1, "type": "PRES_AUD", "word": "pudding", "wordID": 1138, "conditions": [24, 1600, "a", 12000], "trial": 2, "serialpos": 15, "trial_type": "single-audio", "trial_index": 104, "time_elapsed": 443885, "internal_node_id": "0.0-77.0"}}, {"uniqueid": "MTK0565:3CPLWGV3MP6PXU1WA0KV0IHBB65N98", "current_trial": 105, "dateTime": 1511209888243, "trialdata": {"rt": -1000, "stimulus": "/static/audio/wordpool/LETTUCE.wav", "key_press": -1, "type": "PRES_AUD", "word": "lettuce", "wordID": 813, "conditions": [24, 1600, "a", 12000], "trial": 2, "serialpos": 16, "trial_type": "single-audio", "trial_index": 105, "time_elapsed": 446432, "internal_node_id": "0.0-78.0"}}, {"uniqueid": "MTK0565:3CPLWGV3MP6PXU1WA0KV0IHBB65N98", "current_trial": 106, "dateTime": 1511209890733, "trialdata": {"rt": -1000, "stimulus": "/static/audio/wordpool/MILK.wav", "key_press": -1, "type": "PRES_AUD", "word": "milk", "wordID": 894, "conditions": [24, 1600, "a", 12000], "trial": 2, "serialpos": 17, "trial_type": "single-audio", "trial_index": 106, "time_elapsed": 448922, "internal_node_id": "0.0-79.0"}}, {"uniqueid": "MTK0565:3CPLWGV3MP6PXU1WA0KV0IHBB65N98", "current_trial": 107, "dateTime": 1511209893357, "trialdata": {"rt": -1000, "stimulus": "/static/audio/wordpool/KNAPSACK.wav", "key_press": -1, "type": "PRES_AUD", "word": "knapsack", "wordID": 782, "conditions": [24, 1600, "a", 12000], "trial": 2, "serialpos": 18, "trial_type": "single-audio", "trial_index": 107, "time_elapsed": 451545, "internal_node_id": "0.0-80.0"}}, {"uniqueid": "MTK0565:3CPLWGV3MP6PXU1WA0KV0IHBB65N98", "current_trial": 108, "dateTime": 1511209896058, "trialdata": {"rt": -1000, "stimulus": "/static/audio/wordpool/DINER.wav", "key_press": -1, "type": "PRES_AUD", "word": "diner", "wordID": 466, "conditions": [24, 1600, "a", 12000], "trial": 2, "serialpos": 19, "trial_type": "single-audio", "trial_index": 108, "time_elapsed": 454247, "internal_node_id": "0.0-81.0"}}, {"uniqueid": "MTK0565:3CPLWGV3MP6PXU1WA0KV0IHBB65N98", "current_trial": 109, "dateTime": 1511209898834, "trialdata": {"rt": -1000, "stimulus": "/static/audio/wordpool/WAITRESS.wav", "key_press": -1, "type": "PRES_AUD", "word": "waitress", "wordID": 1580, "conditions": [24, 1600, "a", 12000], "trial": 2, "serialpos": 20, "trial_type": "single-audio", "trial_index": 109, "time_elapsed": 457023, "internal_node_id": "0.0-82.0"}}, {"uniqueid": "MTK0565:3CPLWGV3MP6PXU1WA0KV0IHBB65N98", "current_trial": 110, "dateTime": 1511209901464, "trialdata": {"rt": -1000, "stimulus": "/static/audio/wordpool/DENIM.wav", "key_press": -1, "type": "PRES_AUD", "word": "denim", "wordID": 445, "conditions": [24, 1600, "a", 12000], "trial": 2, "serialpos": 21, "trial_type": "single-audio", "trial_index": 110, "time_elapsed": 459653, "internal_node_id": "0.0-83.0"}}, {"uniqueid": "MTK0565:3CPLWGV3MP6PXU1WA0KV0IHBB65N98", "current_trial": 111, "dateTime": 1511209904117, "trialdata": {"rt": -1000, "stimulus": "/static/audio/wordpool/CAMEL.wav", "key_press": -1, "type": "PRES_AUD", "word": "camel", "wordID": 222, "conditions": [24, 1600, "a", 12000], "trial": 2, "serialpos": 22, "trial_type": "single-audio", "trial_index": 111, "time_elapsed": 462304, "internal_node_id": "0.0-84.0"}}, {"uniqueid": "MTK0565:3CPLWGV3MP6PXU1WA0KV0IHBB65N98", "current_trial": 112, "dateTime": 1511209906746, "trialdata": {"rt": -1000, "stimulus": "/static/audio/wordpool/BABY.wav", "key_press": -1, "type": "PRES_AUD", "word": "baby", "wordID": 63, "conditions": [24, 1600, "a", 12000], "trial": 2, "serialpos": 23, "trial_type": "single-audio", "trial_index": 112, "time_elapsed": 464935, "internal_node_id": "0.0-85.0"}}, {"uniqueid": "MTK0565:3CPLWGV3MP6PXU1WA0KV0IHBB65N98", "current_trial": 113, "dateTime": 1511209908112, "trialdata": {"rt": -1, "stimulus": "", "key_press": -1, "type": "PRE_RECALL_DELAY", "trial_type": "single-stim", "trial_index": 113, "time_elapsed": 466300, "internal_node_id": "0.0-86.0-0.0"}}, {"uniqueid": "MTK0565:3CPLWGV3MP6PXU1WA0KV0IHBB65N98", "current_trial": 114, "dateTime": 1511209908613, "trialdata": {"rt": -1000, "stimulus": "/static/audio/400Hz.wav", "key_press": -1, "type": "PRE_RECALL_ALERT", "trial_type": "single-audio", "trial_index": 114, "time_elapsed": 466802, "internal_node_id": "0.0-87.0"}}, {"uniqueid": "MTK0565:3CPLWGV3MP6PXU1WA0KV0IHBB65N98", "current_trial": 115, "dateTime": 1511209968621, "trialdata": {"rt": [2209, 3003, 4822, 5808, 6666, 7714, 9180], "recwords": ["camel", "baby", "knapsack", "goblin", "dragon", "beaker", "honey"], "type": "FREE_RECALL", "conditions": [24, 1600, "a", 12000], "trial": 2, "trial_type": "free-recall", "trial_index": 115, "time_elapsed": 526806, "internal_node_id": "0.0-88.0-0.0"}}, {"uniqueid": "MTK0565:3CPLWGV3MP6PXU1WA0KV0IHBB65N98", "current_trial": 116, "dateTime": 1511209971813, "trialdata": {"rt": 1190, "key_press": 13, "type": "INSTRUCTIONS", "trial_type": "text", "trial_index": 116, "time_elapsed": 530002, "internal_node_id": "0.0-89.0"}}, {"uniqueid": "MTK0565:3CPLWGV3MP6PXU1WA0KV0IHBB65N98", "current_trial": 117, "dateTime": 1511209997817, "trialdata": {"rt": [3383, 5577, 7189, 8696, 10580, 12651, 14248, 16920, 19182, 20463, 22992], "responses": ["23", "13", "12", "10", "18", "17", "18", "8", "22", "12", "22"], "num1": [8, 4, 1, 1, 9, 2, 7, 1, 9, 7, 9, 8], "num2": [9, 2, 5, 8, 5, 6, 2, 2, 5, 2, 6, 8], "num3": [6, 7, 6, 1, 4, 9, 9, 5, 8, 3, 7, 1], "type": "DISTRACTOR", "conditions": [12, 800, "a", 24000], "trial": 3, "trial_type": "math-distractor", "trial_index": 117, "time_elapsed": 556006, "internal_node_id": "0.0-90.0"}}, {"uniqueid": "MTK0565:3CPLWGV3MP6PXU1WA0KV0IHBB65N98", "current_trial": 118, "dateTime": 1511210000819, "trialdata": {"rt": -1, "stimulus": "<p id=\"stim\">10</p>", "key_press": -1, "trial_type": "single-stim", "trial_index": 118, "time_elapsed": 559007, "internal_node_id": "0.0-91.0-0.0"}}, {"uniqueid": "MTK0565:3CPLWGV3MP6PXU1WA0KV0IHBB65N98", "current_trial": 119, "dateTime": 1511210001820, "trialdata": {"rt": -1, "stimulus": "<p id=\"stim\">9</p>", "key_press": -1, "trial_type": "single-stim", "trial_index": 119, "time_elapsed": 560009, "internal_node_id": "0.0-91.0-1.0"}}, {"uniqueid": "MTK0565:3CPLWGV3MP6PXU1WA0KV0IHBB65N98", "current_trial": 120, "dateTime": 1511210002821, "trialdata": {"rt": -1, "stimulus": "<p id=\"stim\">8</p>", "key_press": -1, "trial_type": "single-stim", "trial_index": 120, "time_elapsed": 561010, "internal_node_id": "0.0-91.0-2.0"}}, {"uniqueid": "MTK0565:3CPLWGV3MP6PXU1WA0KV0IHBB65N98", "current_trial": 121, "dateTime": 1511210003822, "trialdata": {"rt": -1, "stimulus": "<p id=\"stim\">7</p>", "key_press": -1, "trial_type": "single-stim", "trial_index": 121, "time_elapsed": 562011, "internal_node_id": "0.0-91.0-3.0"}}, {"uniqueid": "MTK0565:3CPLWGV3MP6PXU1WA0KV0IHBB65N98", "current_trial": 122, "dateTime": 1511210004824, "trialdata": {"rt": -1, "stimulus": "<p id=\"stim\">6</p>", "key_press": -1, "trial_type": "single-stim", "trial_index": 122, "time_elapsed": 563013, "internal_node_id": "0.0-91.0-4.0"}}, {"uniqueid": "MTK0565:3CPLWGV3MP6PXU1WA0KV0IHBB65N98", "current_trial": 123, "dateTime": 1511210005825, "trialdata": {"rt": -1, "stimulus": "<p id=\"stim\">5</p>", "key_press": -1, "trial_type": "single-stim", "trial_index": 123, "time_elapsed": 564014, "internal_node_id": "0.0-91.0-5.0"}}, {"uniqueid": "MTK0565:3CPLWGV3MP6PXU1WA0KV0IHBB65N98", "current_trial": 124, "dateTime": 1511210006826, "trialdata": {"rt": -1, "stimulus": "<p id=\"stim\">4</p>", "key_press": -1, "trial_type": "single-stim", "trial_index": 124, "time_elapsed": 565015, "internal_node_id": "0.0-91.0-6.0"}}, {"uniqueid": "MTK0565:3CPLWGV3MP6PXU1WA0KV0IHBB65N98", "current_trial": 125, "dateTime": 1511210007827, "trialdata": {"rt": -1, "stimulus": "<p id=\"stim\">3</p>", "key_press": -1, "trial_type": "single-stim", "trial_index": 125, "time_elapsed": 566016, "internal_node_id": "0.0-91.0-7.0"}}, {"uniqueid": "MTK0565:3CPLWGV3MP6PXU1WA0KV0IHBB65N98", "current_trial": 126, "dateTime": 1511210008829, "trialdata": {"rt": -1, "stimulus": "<p id=\"stim\">2</p>", "key_press": -1, "trial_type": "single-stim", "trial_index": 126, "time_elapsed": 567018, "internal_node_id": "0.0-91.0-8.0"}}, {"uniqueid": "MTK0565:3CPLWGV3MP6PXU1WA0KV0IHBB65N98", "current_trial": 127, "dateTime": 1511210009830, "trialdata": {"rt": -1, "stimulus": "<p id=\"stim\">1</p>", "key_press": -1, "trial_type": "single-stim", "trial_index": 127, "time_elapsed": 568019, "internal_node_id": "0.0-91.0-9.0"}}, {"uniqueid": "MTK0565:3CPLWGV3MP6PXU1WA0KV0IHBB65N98", "current_trial": 128, "dateTime": 1511210011332, "trialdata": {"rt": -1, "stimulus": "<p id=\"stim\">+</p>", "key_press": -1, "type": "FIXATION", "trial_type": "single-stim", "trial_index": 128, "time_elapsed": 569520, "internal_node_id": "0.0-92.0-0.0"}}, {"uniqueid": "MTK0565:3CPLWGV3MP6PXU1WA0KV0IHBB65N98", "current_trial": 129, "dateTime": 1511210013125, "trialdata": {"rt": -1000, "stimulus": "/static/audio/wordpool/BUTCHER.wav", "key_press": -1, "type": "PRES_AUD", "word": "butcher", "wordID": 202, "conditions": [12, 800, "a", 24000], "trial": 3, "serialpos": 0, "trial_type": "single-audio", "trial_index": 129, "time_elapsed": 571314, "internal_node_id": "0.0-93.0"}}, {"uniqueid": "MTK0565:3CPLWGV3MP6PXU1WA0KV0IHBB65N98", "current_trial": 130, "dateTime": 1511210014915, "trialdata": {"rt": -1000, "stimulus": "/static/audio/wordpool/SPARROW.wav", "key_press": -1, "type": "PRES_AUD", "word": "sparrow", "wordID": 1346, "conditions": [12, 800, "a", 24000], "trial": 3, "serialpos": 1, "trial_type": "single-audio", "trial_index": 130, "time_elapsed": 573103, "internal_node_id": "0.0-94.0"}}, {"uniqueid": "MTK0565:3CPLWGV3MP6PXU1WA0KV0IHBB65N98", "current_trial": 131, "dateTime": 1511210016586, "trialdata": {"rt": -1000, "stimulus": "/static/audio/wordpool/ROBIN.wav", "key_press": -1, "type": "PRES_AUD", "word": "robin", "wordID": 1198, "conditions": [12, 800, "a", 24000], "trial": 3, "serialpos": 2, "trial_type": "single-audio", "trial_index": 131, "time_elapsed": 574775, "internal_node_id": "0.0-95.0"}}, {"uniqueid": "MTK0565:3CPLWGV3MP6PXU1WA0KV0IHBB65N98", "current_trial": 132, "dateTime": 1511210018194, "trialdata": {"rt": -1000, "stimulus": "/static/audio/wordpool/WASHER.wav", "key_press": -1, "type": "PRES_AUD", "word": "washer", "wordID": 1591, "conditions": [12, 800, "a", 24000], "trial": 3, "serialpos": 3, "trial_type": "single-audio", "trial_index": 132, "time_elapsed": 576383, "internal_node_id": "0.0-96.0"}}, {"uniqueid": "MTK0565:3CPLWGV3MP6PXU1WA0KV0IHBB65N98", "current_trial": 133, "dateTime": 1511210019922, "trialdata": {"rt": -1000, "stimulus": "/static/audio/wordpool/PLATE.wav", "key_press": -1, "type": "PRES_AUD", "word": "plate", "wordID": 1085, "conditions": [12, 800, "a", 24000], "trial": 3, "serialpos": 4, "trial_type": "single-audio", "trial_index": 133, "time_elapsed": 578111, "internal_node_id": "0.0-97.0"}}, {"uniqueid": "MTK0565:3CPLWGV3MP6PXU1WA0KV0IHBB65N98", "current_trial": 134, "dateTime": 1511210021579, "trialdata": {"rt": -1000, "stimulus": "/static/audio/wordpool/SHARK.wav", "key_press": -1, "type": "PRES_AUD", "word": "shark", "wordID": 1274, "conditions": [12, 800, "a", 24000], "trial": 3, "serialpos": 5, "trial_type": "single-audio", "trial_index": 134, "time_elapsed": 579768, "internal_node_id": "0.0-98.0"}}, {"uniqueid": "MTK0565:3CPLWGV3MP6PXU1WA0KV0IHBB65N98", "current_trial": 135, "dateTime": 1511210023561, "trialdata": {"rt": -1000, "stimulus": "/static/audio/wordpool/TWIG.wav", "key_press": -1, "type": "PRES_AUD", "word": "twig", "wordID": 1526, "conditions": [12, 800, "a", 24000], "trial": 3, "serialpos": 6, "trial_type": "single-audio", "trial_index": 135, "time_elapsed": 581750, "internal_node_id": "0.0-99.0"}}, {"uniqueid": "MTK0565:3CPLWGV3MP6PXU1WA0KV0IHBB65N98", "current_trial": 136, "dateTime": 1511210025274, "trialdata": {"rt": -1000, "stimulus": "/static/audio/wordpool/SWIMMER.wav", "key_press": -1, "type": "PRES_AUD", "word": "swimmer", "wordID": 1419, "conditions": [12, 800, "a", 24000], "trial": 3, "serialpos": 7, "trial_type": "single-audio", "trial_index": 136, "time_elapsed": 583463, "internal_node_id": "0.0-100.0"}}, {"uniqueid": "MTK0565:3CPLWGV3MP6PXU1WA0KV0IHBB65N98", "current_trial": 137, "dateTime": 1511210026903, "trialdata": {"rt": -1000, "stimulus": "/static/audio/wordpool/FOOT.wav", "key_press": -1, "type": "PRES_AUD", "word": "foot", "wordID": 589, "conditions": [12, 800, "a", 24000], "trial": 3, "serialpos": 8, "trial_type": "single-audio", "trial_index": 137, "time_elapsed": 585092, "internal_node_id": "0.0-101.0"}}, {"uniqueid": "MTK0565:3CPLWGV3MP6PXU1WA0KV0IHBB65N98", "current_trial": 138, "dateTime": 1511210028571, "trialdata": {"rt": -1000, "stimulus": "/static/audio/wordpool/GLOVE.wav", "key_press": -1, "type": "PRES_AUD", "word": "glove", "wordID": 641, "conditions": [12, 800, "a", 24000], "trial": 3, "serialpos": 9, "trial_type": "single-audio", "trial_index": 138, "time_elapsed": 586760, "internal_node_id": "0.0-102.0"}}, {"uniqueid": "MTK0565:3CPLWGV3MP6PXU1WA0KV0IHBB65N98", "current_trial": 139, "dateTime": 1511210030384, "trialdata": {"rt": -1000, "stimulus": "/static/audio/wordpool/DOLPHIN.wav", "key_press": -1, "type": "PRES_AUD", "word": "dolphin", "wordID": 482, "conditions": [12, 800, "a", 24000], "trial": 3, "serialpos": 10, "trial_type": "single-audio", "trial_index": 139, "time_elapsed": 588572, "internal_node_id": "0.0-103.0"}}, {"uniqueid": "MTK0565:3CPLWGV3MP6PXU1WA0KV0IHBB65N98", "current_trial": 140, "dateTime": 1511210032008, "trialdata": {"rt": -1000, "stimulus": "/static/audio/wordpool/PIMPLE.wav", "key_press": -1, "type": "PRES_AUD", "word": "pimple", "wordID": 1070, "conditions": [12, 800, "a", 24000], "trial": 3, "serialpos": 11, "trial_type": "single-audio", "trial_index": 140, "time_elapsed": 590197, "internal_node_id": "0.0-104.0"}}, {"uniqueid": "MTK0565:3CPLWGV3MP6PXU1WA0KV0IHBB65N98", "current_trial": 141, "dateTime": 1511210033225, "trialdata": {"rt": -1, "stimulus": "", "key_press": -1, "type": "PRE_RECALL_DELAY", "trial_type": "single-stim", "trial_index": 141, "time_elapsed": 591414, "internal_node_id": "0.0-105.0-0.0"}}, {"uniqueid": "MTK0565:3CPLWGV3MP6PXU1WA0KV0IHBB65N98", "current_trial": 142, "dateTime": 1511210033726, "trialdata": {"rt": -1000, "stimulus": "/static/audio/400Hz.wav", "key_press": -1, "type": "PRE_RECALL_ALERT", "trial_type": "single-audio", "trial_index": 142, "time_elapsed": 591915, "internal_node_id": "0.0-106.0"}}, {"uniqueid": "MTK0565:3CPLWGV3MP6PXU1WA0KV0IHBB65N98", "current_trial": 143, "dateTime": 1511210093729, "trialdata": {"rt": [2951, 4787, 15645], "recwords": ["pimple", "dolphin", "bear"], "type": "FREE_RECALL", "conditions": [12, 800, "a", 24000], "trial": 3, "trial_type": "free-recall", "trial_index": 143, "time_elapsed": 651916, "internal_node_id": "0.0-107.0-0.0"}}, {"uniqueid": "MTK0565:3CPLWGV3MP6PXU1WA0KV0IHBB65N98", "current_trial": 144, "dateTime": 1511210105464, "trialdata": {"rt": 9734, "key_press": 32, "type": "INSTRUCTIONS", "trial_type": "text", "trial_index": 144, "time_elapsed": 663653, "internal_node_id": "0.0-108.0"}}, {"uniqueid": "MTK0565:3CPLWGV3MP6PXU1WA0KV0IHBB65N98", "current_trial": 145, "dateTime": 1511210131468, "trialdata": {"rt": [1978, 4497, 6359, 8125, 9789, 11674, 14759, 17085, 18651, 20416, 22016], "responses": ["17", "26", "17", "15", "18", "17", "22", "21", "18", "19", "13"], "num1": [9, 9, 3, 1, 6, 7, 6, 9, 9, 8, 5, 2], "num2": [4, 8, 5, 8, 4, 4, 9, 3, 2, 8, 7, 7], "num3": [4, 9, 9, 6, 7, 6, 7, 9, 7, 3, 1, 5], "type": "DISTRACTOR", "conditions": [12, 800, "v", 24000], "trial": 4, "trial_type": "math-distractor", "trial_index": 145, "time_elapsed": 689657, "internal_node_id": "0.0-109.0"}}, {"uniqueid": "MTK0565:3CPLWGV3MP6PXU1WA0KV0IHBB65N98", "current_trial": 146, "dateTime": 1511210134470, "trialdata": {"rt": -1, "stimulus": "<p id=\"stim\">10</p>", "key_press": -1, "trial_type": "single-stim", "trial_index": 146, "time_elapsed": 692659, "internal_node_id": "0.0-110.0-0.0"}}, {"uniqueid": "MTK0565:3CPLWGV3MP6PXU1WA0KV0IHBB65N98", "current_trial": 147, "dateTime": 1511210135471, "trialdata": {"rt": -1, "stimulus": "<p id=\"stim\">9</p>", "key_press": -1, "trial_type": "single-stim", "trial_index": 147, "time_elapsed": 693660, "internal_node_id": "0.0-110.0-1.0"}}, {"uniqueid": "MTK0565:3CPLWGV3MP6PXU1WA0KV0IHBB65N98", "current_trial": 148, "dateTime": 1511210136472, "trialdata": {"rt": -1, "stimulus": "<p id=\"stim\">8</p>", "key_press": -1, "trial_type": "single-stim", "trial_index": 148, "time_elapsed": 694661, "internal_node_id": "0.0-110.0-2.0"}}, {"uniqueid": "MTK0565:3CPLWGV3MP6PXU1WA0KV0IHBB65N98", "current_trial": 149, "dateTime": 1511210137477, "trialdata": {"rt": -1, "stimulus": "<p id=\"stim\">7</p>", "key_press": -1, "trial_type": "single-stim", "trial_index": 149, "time_elapsed": 695663, "internal_node_id": "0.0-110.0-3.0"}}, {"uniqueid": "MTK0565:3CPLWGV3MP6PXU1WA0KV0IHBB65N98", "current_trial": 150, "dateTime": 1511210138478, "trialdata": {"rt": -1, "stimulus": "<p id=\"stim\">6</p>", "key_press": -1, "trial_type": "single-stim", "trial_index": 150, "time_elapsed": 696667, "internal_node_id": "0.0-110.0-4.0"}}, {"uniqueid": "MTK0565:3CPLWGV3MP6PXU1WA0KV0IHBB65N98", "current_trial": 151, "dateTime": 1511210139480, "trialdata": {"rt": -1, "stimulus": "<p id=\"stim\">5</p>", "key_press": -1, "trial_type": "single-stim", "trial_index": 151, "time_elapsed": 697669, "internal_node_id": "0.0-110.0-5.0"}}, {"uniqueid": "MTK0565:3CPLWGV3MP6PXU1WA0KV0IHBB65N98", "current_trial": 152, "dateTime": 1511210140481, "trialdata": {"rt": -1, "stimulus": "<p id=\"stim\">4</p>", "key_press": -1, "trial_type": "single-stim", "trial_index": 152, "time_elapsed": 698670, "internal_node_id": "0.0-110.0-6.0"}}, {"uniqueid": "MTK0565:3CPLWGV3MP6PXU1WA0KV0IHBB65N98", "current_trial": 153, "dateTime": 1511210141483, "trialdata": {"rt": -1, "stimulus": "<p id=\"stim\">3</p>", "key_press": -1, "trial_type": "single-stim", "trial_index": 153, "time_elapsed": 699671, "internal_node_id": "0.0-110.0-7.0"}}, {"uniqueid": "MTK0565:3CPLWGV3MP6PXU1WA0KV0IHBB65N98", "current_trial": 154, "dateTime": 1511210142484, "trialdata": {"rt": -1, "stimulus": "<p id=\"stim\">2</p>", "key_press": -1, "trial_type": "single-stim", "trial_index": 154, "time_elapsed": 700673, "internal_node_id": "0.0-110.0-8.0"}}, {"uniqueid": "MTK0565:3CPLWGV3MP6PXU1WA0KV0IHBB65N98", "current_trial": 155, "dateTime": 1511210143486, "trialdata": {"rt": -1, "stimulus": "<p id=\"stim\">1</p>", "key_press": -1, "trial_type": "single-stim", "trial_index": 155, "time_elapsed": 701674, "internal_node_id": "0.0-110.0-9.0"}}, {"uniqueid": "MTK0565:3CPLWGV3MP6PXU1WA0KV0IHBB65N98", "current_trial": 156, "dateTime": 1511210144987, "trialdata": {"rt": -1, "stimulus": "<p id=\"stim\">+</p>", "key_press": -1, "type": "FIXATION", "trial_type": "single-stim", "trial_index": 156, "time_elapsed": 703176, "internal_node_id": "0.0-111.0-0.0"}}, {"uniqueid": "MTK0565:3CPLWGV3MP6PXU1WA0KV0IHBB65N98", "current_trial": 157, "dateTime": 1511210145788, "trialdata": {"rt": -1, "stimulus": "<p id=\"stim\">PADDLE</p>", "key_press": -1, "type": "PRES_VIS", "word": "paddle", "wordID": 999, "conditions": [12, 800, "v", 24000], "trial": 4, "serialpos": 0, "trial_type": "single-stim", "trial_index": 157, "time_elapsed": 703977, "internal_node_id": "0.0-112.0"}}, {"uniqueid": "MTK0565:3CPLWGV3MP6PXU1WA0KV0IHBB65N98", "current_trial": 158, "dateTime": 1511210147637, "trialdata": {"rt": -1, "stimulus": "<p id=\"stim\">RADISH</p>", "key_press": -1, "type": "PRES_VIS", "word": "radish", "wordID": 1157, "conditions": [12, 800, "v", 24000], "trial": 4, "serialpos": 1, "trial_type": "single-stim", "trial_index": 158, "time_elapsed": 705826, "internal_node_id": "0.0-113.0"}}, {"uniqueid": "MTK0565:3CPLWGV3MP6PXU1WA0KV0IHBB65N98", "current_trial": 159, "dateTime": 1511210149290, "trialdata": {"rt": -1, "stimulus": "<p id=\"stim\">SEAL</p>", "key_press": -1, "type": "PRES_VIS", "word": "seal", "wordID": 1261, "conditions": [12, 800, "v", 24000], "trial": 4, "serialpos": 2, "trial_type": "single-stim", "trial_index": 159, "time_elapsed": 707479, "internal_node_id": "0.0-114.0"}}, {"uniqueid": "MTK0565:3CPLWGV3MP6PXU1WA0KV0IHBB65N98", "current_trial": 160, "dateTime": 1511210151083, "trialdata": {"rt": -1, "stimulus": "<p id=\"stim\">CLAMP</p>", "key_press": -1, "type": "PRES_VIS", "word": "clamp", "wordID": 315, "conditions": [12, 800, "v", 24000], "trial": 4, "serialpos": 3, "trial_type": "single-stim", "trial_index": 160, "time_elapsed": 709272, "internal_node_id": "0.0-115.0"}}, {"uniqueid": "MTK0565:3CPLWGV3MP6PXU1WA0KV0IHBB65N98", "current_trial": 161, "dateTime": 1511210153002, "trialdata": {"rt": -1, "stimulus": "<p id=\"stim\">BLACKBOARD</p>", "key_press": -1, "type": "PRES_VIS", "word": "blackboard", "wordID": 132, "conditions": [12, 800, "v", 24000], "trial": 4, "serialpos": 4, "trial_type": "single-stim", "trial_index": 161, "time_elapsed": 711191, "internal_node_id": "0.0-116.0"}}, {"uniqueid": "MTK0565:3CPLWGV3MP6PXU1WA0KV0IHBB65N98", "current_trial": 162, "dateTime": 1511210154831, "trialdata": {"rt": -1, "stimulus": "<p id=\"stim\">ANKLE</p>", "key_press": -1, "type": "PRES_VIS", "word": "ankle", "wordID": 23, "conditions": [12, 800, "v", 24000], "trial": 4, "serialpos": 5, "trial_type": "single-stim", "trial_index": 162, "time_elapsed": 713020, "internal_node_id": "0.0-117.0"}}, {"uniqueid": "MTK0565:3CPLWGV3MP6PXU1WA0KV0IHBB65N98", "current_trial": 163, "dateTime": 1511210156759, "trialdata": {"rt": -1, "stimulus": "<p id=\"stim\">SHORTCAKE</p>", "key_press": -1, "type": "PRES_VIS", "word": "shortcake", "wordID": 1291, "conditions": [12, 800, "v", 24000], "trial": 4, "serialpos": 6, "trial_type": "single-stim", "trial_index": 163, "time_elapsed": 714948, "internal_node_id": "0.0-118.0"}}, {"uniqueid": "MTK0565:3CPLWGV3MP6PXU1WA0KV0IHBB65N98", "current_trial": 164, "dateTime": 1511210158572, "trialdata": {"rt": -1, "stimulus": "<p id=\"stim\">TREAT</p>", "key_press": -1, "type": "PRES_VIS", "word": "treat", "wordID": 1500, "conditions": [12, 800, "v", 24000], "trial": 4, "serialpos": 7, "trial_type": "single-stim", "trial_index": 164, "time_elapsed": 716761, "internal_node_id": "0.0-119.0"}}, {"uniqueid": "MTK0565:3CPLWGV3MP6PXU1WA0KV0IHBB65N98", "current_trial": 165, "dateTime": 1511210160426, "trialdata": {"rt": -1, "stimulus": "<p id=\"stim\">SILK</p>", "key_press": -1, "type": "PRES_VIS", "word": "silk", "wordID": 1306, "conditions": [12, 800, "v", 24000], "trial": 4, "serialpos": 8, "trial_type": "single-stim", "trial_index": 165, "time_elapsed": 718615, "internal_node_id": "0.0-120.0"}}, {"uniqueid": "MTK0565:3CPLWGV3MP6PXU1WA0KV0IHBB65N98", "current_trial": 166, "dateTime": 1511210162221, "trialdata": {"rt": -1, "stimulus": "<p id=\"stim\">FRAGRANCE</p>", "key_press": -1, "type": "PRES_VIS", "word": "fragrance", "wordID": 598, "conditions": [12, 800, "v", 24000], "trial": 4, "serialpos": 9, "trial_type": "single-stim", "trial_index": 166, "time_elapsed": 720410, "internal_node_id": "0.0-121.0"}}, {"uniqueid": "MTK0565:3CPLWGV3MP6PXU1WA0KV0IHBB65N98", "current_trial": 167, "dateTime": 1511210163837, "trialdata": {"rt": -1, "stimulus": "<p id=\"stim\">PERFUME</p>", "key_press": -1, "type": "PRES_VIS", "word": "perfume", "wordID": 1048, "conditions": [12, 800, "v", 24000], "trial": 4, "serialpos": 10, "trial_type": "single-stim", "trial_index": 167, "time_elapsed": 722026, "internal_node_id": "0.0-122.0"}}, {"uniqueid": "MTK0565:3CPLWGV3MP6PXU1WA0KV0IHBB65N98", "current_trial": 168, "dateTime": 1511210165794, "trialdata": {"rt": -1, "stimulus": "<p id=\"stim\">SHOULDER</p>", "key_press": -1, "type": "PRES_VIS", "word": "shoulder", "wordID": 1293, "conditions": [12, 800, "v", 24000], "trial": 4, "serialpos": 11, "trial_type": "single-stim", "trial_index": 168, "time_elapsed": 723983, "internal_node_id": "0.0-123.0"}}, {"uniqueid": "MTK0565:3CPLWGV3MP6PXU1WA0KV0IHBB65N98", "current_trial": 169, "dateTime": 1511210167941, "trialdata": {"rt": -1, "stimulus": "", "key_press": -1, "type": "PRE_RECALL_DELAY", "trial_type": "single-stim", "trial_index": 169, "time_elapsed": 726130, "internal_node_id": "0.0-124.0-0.0"}}, {"uniqueid": "MTK0565:3CPLWGV3MP6PXU1WA0KV0IHBB65N98", "current_trial": 170, "dateTime": 1511210168442, "trialdata": {"rt": -1000, "stimulus": "/static/audio/400Hz.wav", "key_press": -1, "type": "PRE_RECALL_ALERT", "trial_type": "single-audio", "trial_index": 170, "time_elapsed": 726631, "internal_node_id": "0.0-125.0"}}, {"uniqueid": "MTK0565:3CPLWGV3MP6PXU1WA0KV0IHBB65N98", "current_trial": 171, "dateTime": 1511210228449, "trialdata": {"rt": [1794, 3176, 4227, 5267, 6736, 16524, 17365], "recwords": ["silk", "fragrance", "perfume", "shoulder", "shortcake", "seal", "paddle"], "type": "FREE_RECALL", "conditions": [12, 800, "v", 24000], "trial": 4, "trial_type": "free-recall", "trial_index": 171, "time_elapsed": 786635, "internal_node_id": "0.0-126.0-0.0"}}, {"uniqueid": "MTK0565:3CPLWGV3MP6PXU1WA0KV0IHBB65N98", "current_trial": 172, "dateTime": 1511210231780, "trialdata": {"rt": 1329, "key_press": 32, "type": "INSTRUCTIONS", "trial_type": "text", "trial_index": 172, "time_elapsed": 789968, "internal_node_id": "0.0-127.0"}}, {"uniqueid": "MTK0565:3CPLWGV3MP6PXU1WA0KV0IHBB65N98", "current_trial": 173, "dateTime": 1511210257783, "trialdata": {"rt": [3020, 6017, 7818, 9441, 11390, 14709, 16177, 17620, 18832, 21695, 23887], "responses": ["20", "17", "22", "9", "12", "22", "17", "11", "13", "10", "12"], "num1": [6, 8, 9, 1, 3, 8, 1, 8, 5, 5, 6, 9], "num2": [6, 4, 7, 3, 2, 9, 7, 2, 3, 3, 5, 6], "num3": [8, 5, 6, 6, 7, 7, 9, 1, 5, 2, 1, 5], "type": "DISTRACTOR", "conditions": [24, 1600, "a", 24000], "trial": 5, "trial_type": "math-distractor", "trial_index": 173, "time_elapsed": 815972, "internal_node_id": "0.0-128.0"}}, {"uniqueid": "MTK0565:3CPLWGV3MP6PXU1WA0KV0IHBB65N98", "current_trial": 174, "dateTime": 1511210260785, "trialdata": {"rt": -1, "stimulus": "<p id=\"stim\">10</p>", "key_press": -1, "trial_type": "single-stim", "trial_index": 174, "time_elapsed": 818974, "internal_node_id": "0.0-129.0-0.0"}}, {"uniqueid": "MTK0565:3CPLWGV3MP6PXU1WA0KV0IHBB65N98", "current_trial": 175, "dateTime": 1511210261786, "trialdata": {"rt": -1, "stimulus": "<p id=\"stim\">9</p>", "key_press": -1, "trial_type": "single-stim", "trial_index": 175, "time_elapsed": 819975, "internal_node_id": "0.0-129.0-1.0"}}, {"uniqueid": "MTK0565:3CPLWGV3MP6PXU1WA0KV0IHBB65N98", "current_trial": 176, "dateTime": 1511210262787, "trialdata": {"rt": -1, "stimulus": "<p id=\"stim\">8</p>", "key_press": -1, "trial_type": "single-stim", "trial_index": 176, "time_elapsed": 820976, "internal_node_id": "0.0-129.0-2.0"}}, {"uniqueid": "MTK0565:3CPLWGV3MP6PXU1WA0KV0IHBB65N98", "current_trial": 177, "dateTime": 1511210263789, "trialdata": {"rt": -1, "stimulus": "<p id=\"stim\">7</p>", "key_press": -1, "trial_type": "single-stim", "trial_index": 177, "time_elapsed": 821978, "internal_node_id": "0.0-129.0-3.0"}}, {"uniqueid": "MTK0565:3CPLWGV3MP6PXU1WA0KV0IHBB65N98", "current_trial": 178, "dateTime": 1511210264791, "trialdata": {"rt": -1, "stimulus": "<p id=\"stim\">6</p>", "key_press": -1, "trial_type": "single-stim", "trial_index": 178, "time_elapsed": 822980, "internal_node_id": "0.0-129.0-4.0"}}, {"uniqueid": "MTK0565:3CPLWGV3MP6PXU1WA0KV0IHBB65N98", "current_trial": 179, "dateTime": 1511210265793, "trialdata": {"rt": -1, "stimulus": "<p id=\"stim\">5</p>", "key_press": -1, "trial_type": "single-stim", "trial_index": 179, "time_elapsed": 823982, "internal_node_id": "0.0-129.0-5.0"}}, {"uniqueid": "MTK0565:3CPLWGV3MP6PXU1WA0KV0IHBB65N98", "current_trial": 180, "dateTime": 1511210266794, "trialdata": {"rt": -1, "stimulus": "<p id=\"stim\">4</p>", "key_press": -1, "trial_type": "single-stim", "trial_index": 180, "time_elapsed": 824983, "internal_node_id": "0.0-129.0-6.0"}}, {"uniqueid": "MTK0565:3CPLWGV3MP6PXU1WA0KV0IHBB65N98", "current_trial": 181, "dateTime": 1511210267795, "trialdata": {"rt": -1, "stimulus": "<p id=\"stim\">3</p>", "key_press": -1, "trial_type": "single-stim", "trial_index": 181, "time_elapsed": 825984, "internal_node_id": "0.0-129.0-7.0"}}, {"uniqueid": "MTK0565:3CPLWGV3MP6PXU1WA0KV0IHBB65N98", "current_trial": 182, "dateTime": 1511210268797, "trialdata": {"rt": -1, "stimulus": "<p id=\"stim\">2</p>", "key_press": -1, "trial_type": "single-stim", "trial_index": 182, "time_elapsed": 826986, "internal_node_id": "0.0-129.0-8.0"}}, {"uniqueid": "MTK0565:3CPLWGV3MP6PXU1WA0KV0IHBB65N98", "current_trial": 183, "dateTime": 1511210269798, "trialdata": {"rt": -1, "stimulus": "<p id=\"stim\">1</p>", "key_press": -1, "trial_type": "single-stim", "trial_index": 183, "time_elapsed": 827987, "internal_node_id": "0.0-129.0-9.0"}}, {"uniqueid": "MTK0565:3CPLWGV3MP6PXU1WA0KV0IHBB65N98", "current_trial": 184, "dateTime": 1511210271300, "trialdata": {"rt": -1, "stimulus": "<p id=\"stim\">+</p>", "key_press": -1, "type": "FIXATION", "trial_type": "single-stim", "trial_index": 184, "time_elapsed": 829489, "internal_node_id": "0.0-130.0-0.0"}}, {"uniqueid": "MTK0565:3CPLWGV3MP6PXU1WA0KV0IHBB65N98", "current_trial": 185, "dateTime": 1511210273840, "trialdata": {"rt": -1000, "stimulus": "/static/audio/wordpool/SKIRT.wav", "key_press": -1, "type": "PRES_AUD", "word": "skirt", "wordID": 1318, "conditions": [24, 1600, "a", 24000], "trial": 5, "serialpos": 0, "trial_type": "single-audio", "trial_index": 185, "time_elapsed": 832029, "internal_node_id": "0.0-131.0"}}, {"uniqueid": "MTK0565:3CPLWGV3MP6PXU1WA0KV0IHBB65N98", "current_trial": 186, "dateTime": 1511210276563, "trialdata": {"rt": -1000, "stimulus": "/static/audio/wordpool/BLOUSE.wav", "key_press": -1, "type": "PRES_AUD", "word": "blouse", "wordID": 138, "conditions": [24, 1600, "a", 24000], "trial": 5, "serialpos": 1, "trial_type": "single-audio", "trial_index": 186, "time_elapsed": 834752, "internal_node_id": "0.0-132.0"}}, {"uniqueid": "MTK0565:3CPLWGV3MP6PXU1WA0KV0IHBB65N98", "current_trial": 187, "dateTime": 1511210279317, "trialdata": {"rt": -1000, "stimulus": "/static/audio/wordpool/LIVER.wav", "key_press": -1, "type": "PRES_AUD", "word": "liver", "wordID": 832, "conditions": [24, 1600, "a", 24000], "trial": 5, "serialpos": 2, "trial_type": "single-audio", "trial_index": 187, "time_elapsed": 837506, "internal_node_id": "0.0-133.0"}}, {"uniqueid": "MTK0565:3CPLWGV3MP6PXU1WA0KV0IHBB65N98", "current_trial": 188, "dateTime": 1511210281861, "trialdata": {"rt": -1000, "stimulus": "/static/audio/wordpool/GLOBE.wav", "key_press": -1, "type": "PRES_AUD", "word": "globe", "wordID": 640, "conditions": [24, 1600, "a", 24000], "trial": 5, "serialpos": 3, "trial_type": "single-audio", "trial_index": 188, "time_elapsed": 840050, "internal_node_id": "0.0-134.0"}}, {"uniqueid": "MTK0565:3CPLWGV3MP6PXU1WA0KV0IHBB65N98", "current_trial": 189, "dateTime": 1511210284470, "trialdata": {"rt": -1000, "stimulus": "/static/audio/wordpool/NIGHTGOWN.wav", "key_press": -1, "type": "PRES_AUD", "word": "nightgown", "wordID": 952, "conditions": [24, 1600, "a", 24000], "trial": 5, "serialpos": 4, "trial_type": "single-audio", "trial_index": 189, "time_elapsed": 842659, "internal_node_id": "0.0-135.0"}}, {"uniqueid": "MTK0565:3CPLWGV3MP6PXU1WA0KV0IHBB65N98", "current_trial": 190, "dateTime": 1511210287197, "trialdata": {"rt": -1000, "stimulus": "/static/audio/wordpool/SNAKE.wav", "key_press": -1, "type": "PRES_AUD", "word": "snake", "wordID": 1332, "conditions": [24, 1600, "a", 24000], "trial": 5, "serialpos": 5, "trial_type": "single-audio", "trial_index": 190, "time_elapsed": 845386, "internal_node_id": "0.0-136.0"}}, {"uniqueid": "MTK0565:3CPLWGV3MP6PXU1WA0KV0IHBB65N98", "current_trial": 191, "dateTime": 1511210289943, "trialdata": {"rt": -1000, "stimulus": "/static/audio/wordpool/CYCLONE.wav", "key_press": -1, "type": "PRES_AUD", "word": "cyclone", "wordID": 430, "conditions": [24, 1600, "a", 24000], "trial": 5, "serialpos": 6, "trial_type": "single-audio", "trial_index": 191, "time_elapsed": 848132, "internal_node_id": "0.0-137.0"}}, {"uniqueid": "MTK0565:3CPLWGV3MP6PXU1WA0KV0IHBB65N98", "current_trial": 192, "dateTime": 1511210292737, "trialdata": {"rt": -1000, "stimulus": "/static/audio/wordpool/WORLD.wav", "key_press": -1, "type": "PRES_AUD", "word": "world", "wordID": 1621, "conditions": [24, 1600, "a", 24000], "trial": 5, "serialpos": 7, "trial_type": "single-audio", "trial_index": 192, "time_elapsed": 850925, "internal_node_id": "0.0-138.0"}}, {"uniqueid": "MTK0565:3CPLWGV3MP6PXU1WA0KV0IHBB65N98", "current_trial": 193, "dateTime": 1511210295141, "trialdata": {"rt": -1000, "stimulus": "/static/audio/wordpool/WRIST.wav", "key_press": -1, "type": "PRES_AUD", "word": "wrist", "wordID": 1625, "conditions": [24, 1600, "a", 24000], "trial": 5, "serialpos": 8, "trial_type": "single-audio", "trial_index": 193, "time_elapsed": 853330, "internal_node_id": "0.0-139.0"}}, {"uniqueid": "MTK0565:3CPLWGV3MP6PXU1WA0KV0IHBB65N98", "current_trial": 194, "dateTime": 1511210297734, "trialdata": {"rt": -1000, "stimulus": "/static/audio/wordpool/BUREAU.wav", "key_press": -1, "type": "PRES_AUD", "word": "bureau", "wordID": 198, "conditions": [24, 1600, "a", 24000], "trial": 5, "serialpos": 9, "trial_type": "single-audio", "trial_index": 194, "time_elapsed": 855923, "internal_node_id": "0.0-140.0"}}, {"uniqueid": "MTK0565:3CPLWGV3MP6PXU1WA0KV0IHBB65N98", "current_trial": 195, "dateTime": 1511210300384, "trialdata": {"rt": -1000, "stimulus": "/static/audio/wordpool/CLAM.wav", "key_press": -1, "type": "PRES_AUD", "word": "clam", "wordID": 314, "conditions": [24, 1600, "a", 24000], "trial": 5, "serialpos": 10, "trial_type": "single-audio", "trial_index": 195, "time_elapsed": 858572, "internal_node_id": "0.0-141.0"}}, {"uniqueid": "MTK0565:3CPLWGV3MP6PXU1WA0KV0IHBB65N98", "current_trial": 196, "dateTime": 1511210303150, "trialdata": {"rt": -1000, "stimulus": "/static/audio/wordpool/JELLY.wav", "key_press": -1, "type": "PRES_AUD", "word": "jelly", "wordID": 754, "conditions": [24, 1600, "a", 24000], "trial": 5, "serialpos": 11, "trial_type": "single-audio", "trial_index": 196, "time_elapsed": 861339, "internal_node_id": "0.0-142.0"}}, {"uniqueid": "MTK0565:3CPLWGV3MP6PXU1WA0KV0IHBB65N98", "current_trial": 197, "dateTime": 1511210305921, "trialdata": {"rt": -1000, "stimulus": "/static/audio/wordpool/BRICK.wav", "key_press": -1, "type": "PRES_AUD", "word": "brick", "wordID": 171, "conditions": [24, 1600, "a", 24000], "trial": 5, "serialpos": 12, "trial_type": "single-audio", "trial_index": 197, "time_elapsed": 864110, "internal_node_id": "0.0-143.0"}}, {"uniqueid": "MTK0565:3CPLWGV3MP6PXU1WA0KV0IHBB65N98", "current_trial": 198, "dateTime": 1511210308598, "trialdata": {"rt": -1000, "stimulus": "/static/audio/wordpool/CHAUFFEUR.wav", "key_press": -1, "type": "PRES_AUD", "word": "chauffeur", "wordID": 282, "conditions": [24, 1600, "a", 24000], "trial": 5, "serialpos": 13, "trial_type": "single-audio", "trial_index": 198, "time_elapsed": 866786, "internal_node_id": "0.0-144.0"}}, {"uniqueid": "MTK0565:3CPLWGV3MP6PXU1WA0KV0IHBB65N98", "current_trial": 199, "dateTime": 1511210311122, "trialdata": {"rt": -1000, "stimulus": "/static/audio/wordpool/LIZARD.wav", "key_press": -1, "type": "PRES_AUD", "word": "lizard", "wordID": 833, "conditions": [24, 1600, "a", 24000], "trial": 5, "serialpos": 14, "trial_type": "single-audio", "trial_index": 199, "time_elapsed": 869311, "internal_node_id": "0.0-145.0"}}, {"uniqueid": "MTK0565:3CPLWGV3MP6PXU1WA0KV0IHBB65N98", "current_trial": 200, "dateTime": 1511210313744, "trialdata": {"rt": -1000, "stimulus": "/static/audio/wordpool/COUNTY.wav", "key_press": -1, "type": "PRES_AUD", "word": "county", "wordID": 388, "conditions": [24, 1600, "a", 24000], "trial": 5, "serialpos": 15, "trial_type": "single-audio", "trial_index": 200, "time_elapsed": 871933, "internal_node_id": "0.0-146.0"}}, {"uniqueid": "MTK0565:3CPLWGV3MP6PXU1WA0KV0IHBB65N98", "current_trial": 201, "dateTime": 1511210316527, "trialdata": {"rt": -1000, "stimulus": "/static/audio/wordpool/ISLAND.wav", "key_press": -1, "type": "PRES_AUD", "word": "island", "wordID": 744, "conditions": [24, 1600, "a", 24000], "trial": 5, "serialpos": 16, "trial_type": "single-audio", "trial_index": 201, "time_elapsed": 874716, "internal_node_id": "0.0-147.0"}}, {"uniqueid": "MTK0565:3CPLWGV3MP6PXU1WA0KV0IHBB65N98", "current_trial": 202, "dateTime": 1511210319267, "trialdata": {"rt": -1000, "stimulus": "/static/audio/wordpool/PARSLEY.wav", "key_press": -1, "type": "PRES_AUD", "word": "parsley", "wordID": 1015, "conditions": [24, 1600, "a", 24000], "trial": 5, "serialpos": 17, "trial_type": "single-audio", "trial_index": 202, "time_elapsed": 877456, "internal_node_id": "0.0-148.0"}}, {"uniqueid": "MTK0565:3CPLWGV3MP6PXU1WA0KV0IHBB65N98", "current_trial": 203, "dateTime": 1511210321895, "trialdata": {"rt": -1000, "stimulus": "/static/audio/wordpool/RAFT.wav", "key_press": -1, "type": "PRES_AUD", "word": "raft", "wordID": 1158, "conditions": [24, 1600, "a", 24000], "trial": 5, "serialpos": 18, "trial_type": "single-audio", "trial_index": 203, "time_elapsed": 880084, "internal_node_id": "0.0-149.0"}}, {"uniqueid": "MTK0565:3CPLWGV3MP6PXU1WA0KV0IHBB65N98", "current_trial": 204, "dateTime": 1511210324495, "trialdata": {"rt": -1000, "stimulus": "/static/audio/wordpool/COBRA.wav", "key_press": -1, "type": "PRES_AUD", "word": "cobra", "wordID": 335, "conditions": [24, 1600, "a", 24000], "trial": 5, "serialpos": 19, "trial_type": "single-audio", "trial_index": 204, "time_elapsed": 882684, "internal_node_id": "0.0-150.0"}}, {"uniqueid": "MTK0565:3CPLWGV3MP6PXU1WA0KV0IHBB65N98", "current_trial": 205, "dateTime": 1511210327187, "trialdata": {"rt": -1000, "stimulus": "/static/audio/wordpool/ROBBER.wav", "key_press": -1, "type": "PRES_AUD", "word": "robber", "wordID": 1196, "conditions": [24, 1600, "a", 24000], "trial": 5, "serialpos": 20, "trial_type": "single-audio", "trial_index": 205, "time_elapsed": 885376, "internal_node_id": "0.0-151.0"}}, {"uniqueid": "MTK0565:3CPLWGV3MP6PXU1WA0KV0IHBB65N98", "current_trial": 206, "dateTime": 1511210329907, "trialdata": {"rt": -1000, "stimulus": "/static/audio/wordpool/UNCLE.wav", "key_press": -1, "type": "PRES_AUD", "word": "uncle", "wordID": 1535, "conditions": [24, 1600, "a", 24000], "trial": 5, "serialpos": 21, "trial_type": "single-audio", "trial_index": 206, "time_elapsed": 888096, "internal_node_id": "0.0-152.0"}}, {"uniqueid": "MTK0565:3CPLWGV3MP6PXU1WA0KV0IHBB65N98", "current_trial": 207, "dateTime": 1511210332596, "trialdata": {"rt": -1000, "stimulus": "/static/audio/wordpool/WAGON.wav", "key_press": -1, "type": "PRES_AUD", "word": "wagon", "wordID": 1577, "conditions": [24, 1600, "a", 24000], "trial": 5, "serialpos": 22, "trial_type": "single-audio", "trial_index": 207, "time_elapsed": 890785, "internal_node_id": "0.0-153.0"}}, {"uniqueid": "MTK0565:3CPLWGV3MP6PXU1WA0KV0IHBB65N98", "current_trial": 208, "dateTime": 1511210335380, "trialdata": {"rt": -1000, "stimulus": "/static/audio/wordpool/TRACTOR.wav", "key_press": -1, "type": "PRES_AUD", "word": "tractor", "wordID": 1492, "conditions": [24, 1600, "a", 24000], "trial": 5, "serialpos": 23, "trial_type": "single-audio", "trial_index": 208, "time_elapsed": 893568, "internal_node_id": "0.0-154.0"}}, {"uniqueid": "MTK0565:3CPLWGV3MP6PXU1WA0KV0IHBB65N98", "current_trial": 209, "dateTime": 1511210336584, "trialdata": {"rt": -1, "stimulus": "", "key_press": -1, "type": "PRE_RECALL_DELAY", "trial_type": "single-stim", "trial_index": 209, "time_elapsed": 894773, "internal_node_id": "0.0-155.0-0.0"}}, {"uniqueid": "MTK0565:3CPLWGV3MP6PXU1WA0KV0IHBB65N98", "current_trial": 210, "dateTime": 1511210337086, "trialdata": {"rt": -1000, "stimulus": "/static/audio/400Hz.wav", "key_press": -1, "type": "PRE_RECALL_ALERT", "trial_type": "single-audio", "trial_index": 210, "time_elapsed": 895274, "internal_node_id": "0.0-156.0"}}, {"uniqueid": "MTK0565:3CPLWGV3MP6PXU1WA0KV0IHBB65N98", "current_trial": 211, "dateTime": 1511210397094, "trialdata": {"rt": [2146, 3439, 4625, 5528, 7169, 12624, 18382, 19430], "recwords": ["wagon", "tractor", "cobra", "raft", "blouse", "raft", "wagon", "tractor"], "type": "FREE_RECALL", "conditions": [24, 1600, "a", 24000], "trial": 5, "trial_type": "free-recall", "trial_index": 211, "time_elapsed": 955278, "internal_node_id": "0.0-157.0-0.0"}}, {"uniqueid": "MTK0565:3CPLWGV3MP6PXU1WA0KV0IHBB65N98", "current_trial": 212, "dateTime": 1511210405628, "trialdata": {"rt": 6532, "key_press": 32, "type": "INSTRUCTIONS", "trial_type": "text", "trial_index": 212, "time_elapsed": 963817, "internal_node_id": "0.0-158.0"}}, {"uniqueid": "MTK0565:3CPLWGV3MP6PXU1WA0KV0IHBB65N98", "current_trial": 213, "dateTime": 1511210431631, "trialdata": {"rt": [2825, 5809, 8583, 10780, 12836, 15314, 17197, 18625, 20368, 22030, 23356], "responses": ["17", "24", "17", "8", "16", "15", "16", "12", "11", "10", "16"], "num1": [6, 8, 9, 1, 7, 7, 7, 4, 6, 3, 5, 4], "num2": [3, 7, 6, 4, 1, 6, 7, 6, 3, 4, 5, 3], "num3": [8, 9, 2, 3, 8, 2, 2, 2, 2, 3, 6, 7], "type": "DISTRACTOR", "conditions": [12, 1600, "v", 24000], "trial": 6, "trial_type": "math-distractor", "trial_index": 213, "time_elapsed": 989820, "internal_node_id": "0.0-159.0"}}, {"uniqueid": "MTK0565:3CPLWGV3MP6PXU1WA0KV0IHBB65N98", "current_trial": 214, "dateTime": 1511210434632, "trialdata": {"rt": -1, "stimulus": "<p id=\"stim\">10</p>", "key_press": -1, "trial_type": "single-stim", "trial_index": 214, "time_elapsed": 992821, "internal_node_id": "0.0-160.0-0.0"}}, {"uniqueid": "MTK0565:3CPLWGV3MP6PXU1WA0KV0IHBB65N98", "current_trial": 215, "dateTime": 1511210435633, "trialdata": {"rt": -1, "stimulus": "<p id=\"stim\">9</p>", "key_press": -1, "trial_type": "single-stim", "trial_index": 215, "time_elapsed": 993822, "internal_node_id": "0.0-160.0-1.0"}}, {"uniqueid": "MTK0565:3CPLWGV3MP6PXU1WA0KV0IHBB65N98", "current_trial": 216, "dateTime": 1511210436634, "trialdata": {"rt": -1, "stimulus": "<p id=\"stim\">8</p>", "key_press": -1, "trial_type": "single-stim", "trial_index": 216, "time_elapsed": 994823, "internal_node_id": "0.0-160.0-2.0"}}, {"uniqueid": "MTK0565:3CPLWGV3MP6PXU1WA0KV0IHBB65N98", "current_trial": 217, "dateTime": 1511210437636, "trialdata": {"rt": -1, "stimulus": "<p id=\"stim\">7</p>", "key_press": -1, "trial_type": "single-stim", "trial_index": 217, "time_elapsed": 995824, "internal_node_id": "0.0-160.0-3.0"}}, {"uniqueid": "MTK0565:3CPLWGV3MP6PXU1WA0KV0IHBB65N98", "current_trial": 218, "dateTime": 1511210438636, "trialdata": {"rt": -1, "stimulus": "<p id=\"stim\">6</p>", "key_press": -1, "trial_type": "single-stim", "trial_index": 218, "time_elapsed": 996825, "internal_node_id": "0.0-160.0-4.0"}}, {"uniqueid": "MTK0565:3CPLWGV3MP6PXU1WA0KV0IHBB65N98", "current_trial": 219, "dateTime": 1511210439638, "trialdata": {"rt": -1, "stimulus": "<p id=\"stim\">5</p>", "key_press": -1, "trial_type": "single-stim", "trial_index": 219, "time_elapsed": 997826, "internal_node_id": "0.0-160.0-5.0"}}, {"uniqueid": "MTK0565:3CPLWGV3MP6PXU1WA0KV0IHBB65N98", "current_trial": 220, "dateTime": 1511210440639, "trialdata": {"rt": -1, "stimulus": "<p id=\"stim\">4</p>", "key_press": -1, "trial_type": "single-stim", "trial_index": 220, "time_elapsed": 998828, "internal_node_id": "0.0-160.0-6.0"}}, {"uniqueid": "MTK0565:3CPLWGV3MP6PXU1WA0KV0IHBB65N98", "current_trial": 221, "dateTime": 1511210441640, "trialdata": {"rt": -1, "stimulus": "<p id=\"stim\">3</p>", "key_press": -1, "trial_type": "single-stim", "trial_index": 221, "time_elapsed": 999829, "internal_node_id": "0.0-160.0-7.0"}}, {"uniqueid": "MTK0565:3CPLWGV3MP6PXU1WA0KV0IHBB65N98", "current_trial": 222, "dateTime": 1511210442641, "trialdata": {"rt": -1, "stimulus": "<p id=\"stim\">2</p>", "key_press": -1, "trial_type": "single-stim", "trial_index": 222, "time_elapsed": 1000830, "internal_node_id": "0.0-160.0-8.0"}}, {"uniqueid": "MTK0565:3CPLWGV3MP6PXU1WA0KV0IHBB65N98", "current_trial": 223, "dateTime": 1511210443642, "trialdata": {"rt": -1, "stimulus": "<p id=\"stim\">1</p>", "key_press": -1, "trial_type": "single-stim", "trial_index": 223, "time_elapsed": 1001831, "internal_node_id": "0.0-160.0-9.0"}}, {"uniqueid": "MTK0565:3CPLWGV3MP6PXU1WA0KV0IHBB65N98", "current_trial": 224, "dateTime": 1511210445143, "trialdata": {"rt": -1, "stimulus": "<p id=\"stim\">+</p>", "key_press": -1, "type": "FIXATION", "trial_type": "single-stim", "trial_index": 224, "time_elapsed": 1003332, "internal_node_id": "0.0-161.0-0.0"}}, {"uniqueid": "MTK0565:3CPLWGV3MP6PXU1WA0KV0IHBB65N98", "current_trial": 225, "dateTime": 1511210446744, "trialdata": {"rt": -1, "stimulus": "<p id=\"stim\">ZEBRA</p>", "key_press": -1, "type": "PRES_VIS", "word": "zebra", "wordID": 1634, "conditions": [12, 1600, "v", 24000], "trial": 6, "serialpos": 0, "trial_type": "single-stim", "trial_index": 225, "time_elapsed": 1004933, "internal_node_id": "0.0-162.0"}}, {"uniqueid": "MTK0565:3CPLWGV3MP6PXU1WA0KV0IHBB65N98", "current_trial": 226, "dateTime": 1511210449199, "trialdata": {"rt": -1, "stimulus": "<p id=\"stim\">JUDGE</p>", "key_press": -1, "type": "PRES_VIS", "word": "judge", "wordID": 760, "conditions": [12, 1600, "v", 24000], "trial": 6, "serialpos": 1, "trial_type": "single-stim", "trial_index": 226, "time_elapsed": 1007388, "internal_node_id": "0.0-163.0"}}, {"uniqueid": "MTK0565:3CPLWGV3MP6PXU1WA0KV0IHBB65N98", "current_trial": 227, "dateTime": 1511210451760, "trialdata": {"rt": -1, "stimulus": "<p id=\"stim\">POCKET</p>", "key_press": -1, "type": "PRES_VIS", "word": "pocket", "wordID": 1092, "conditions": [12, 1600, "v", 24000], "trial": 6, "serialpos": 2, "trial_type": "single-stim", "trial_index": 227, "time_elapsed": 1009949, "internal_node_id": "0.0-164.0"}}, {"uniqueid": "MTK0565:3CPLWGV3MP6PXU1WA0KV0IHBB65N98", "current_trial": 228, "dateTime": 1511210454375, "trialdata": {"rt": -1, "stimulus": "<p id=\"stim\">BRIEFCASE</p>", "key_press": -1, "type": "PRES_VIS", "word": "briefcase", "wordID": 174, "conditions": [12, 1600, "v", 24000], "trial": 6, "serialpos": 3, "trial_type": "single-stim", "trial_index": 228, "time_elapsed": 1012564, "internal_node_id": "0.0-165.0"}}, {"uniqueid": "MTK0565:3CPLWGV3MP6PXU1WA0KV0IHBB65N98", "current_trial": 229, "dateTime": 1511210456895, "trialdata": {"rt": -1, "stimulus": "<p id=\"stim\">HAND</p>", "key_press": -1, "type": "PRES_VIS", "word": "hand", "wordID": 682, "conditions": [12, 1600, "v", 24000], "trial": 6, "serialpos": 4, "trial_type": "single-stim", "trial_index": 229, "time_elapsed": 1015084, "internal_node_id": "0.0-166.0"}}, {"uniqueid": "MTK0565:3CPLWGV3MP6PXU1WA0KV0IHBB65N98", "current_trial": 230, "dateTime": 1511210459679, "trialdata": {"rt": -1, "stimulus": "<p id=\"stim\">FIDDLE</p>", "key_press": -1, "type": "PRES_VIS", "word": "fiddle", "wordID": 560, "conditions": [12, 1600, "v", 24000], "trial": 6, "serialpos": 5, "trial_type": "single-stim", "trial_index": 230, "time_elapsed": 1017868, "internal_node_id": "0.0-167.0"}}, {"uniqueid": "MTK0565:3CPLWGV3MP6PXU1WA0KV0IHBB65N98", "current_trial": 231, "dateTime": 1511210462438, "trialdata": {"rt": -1, "stimulus": "<p id=\"stim\">INFANT</p>", "key_press": -1, "type": "PRES_VIS", "word": "infant", "wordID": 736, "conditions": [12, 1600, "v", 24000], "trial": 6, "serialpos": 6, "trial_type": "single-stim", "trial_index": 231, "time_elapsed": 1020626, "internal_node_id": "0.0-168.0"}}, {"uniqueid": "MTK0565:3CPLWGV3MP6PXU1WA0KV0IHBB65N98", "current_trial": 232, "dateTime": 1511210465033, "trialdata": {"rt": -1, "stimulus": "<p id=\"stim\">RUST</p>", "key_press": -1, "type": "PRES_VIS", "word": "rust", "wordID": 1218, "conditions": [12, 1600, "v", 24000], "trial": 6, "serialpos": 7, "trial_type": "single-stim", "trial_index": 232, "time_elapsed": 1023222, "internal_node_id": "0.0-169.0"}}, {"uniqueid": "MTK0565:3CPLWGV3MP6PXU1WA0KV0IHBB65N98", "current_trial": 233, "dateTime": 1511210467707, "trialdata": {"rt": -1, "stimulus": "<p id=\"stim\">WHISTLE</p>", "key_press": -1, "type": "PRES_VIS", "word": "whistle", "wordID": 1605, "conditions": [12, 1600, "v", 24000], "trial": 6, "serialpos": 8, "trial_type": "single-stim", "trial_index": 233, "time_elapsed": 1025896, "internal_node_id": "0.0-170.0"}}, {"uniqueid": "MTK0565:3CPLWGV3MP6PXU1WA0KV0IHBB65N98", "current_trial": 234, "dateTime": 1511210470486, "trialdata": {"rt": -1, "stimulus": "<p id=\"stim\">CHILD</p>", "key_press": -1, "type": "PRES_VIS", "word": "child", "wordID": 298, "conditions": [12, 1600, "v", 24000], "trial": 6, "serialpos": 9, "trial_type": "single-stim", "trial_index": 234, "time_elapsed": 1028675, "internal_node_id": "0.0-171.0"}}, {"uniqueid": "MTK0565:3CPLWGV3MP6PXU1WA0KV0IHBB65N98", "current_trial": 235, "dateTime": 1511210473201, "trialdata": {"rt": -1, "stimulus": "<p id=\"stim\">CASHIER</p>", "key_press": -1, "type": "PRES_VIS", "word": "cashier", "wordID": 253, "conditions": [12, 1600, "v", 24000], "trial": 6, "serialpos": 10, "trial_type": "single-stim", "trial_index": 235, "time_elapsed": 1031390, "internal_node_id": "0.0-172.0"}}, {"uniqueid": "MTK0565:3CPLWGV3MP6PXU1WA0KV0IHBB65N98", "current_trial": 236, "dateTime": 1511210475684, "trialdata": {"rt": -1, "stimulus": "<p id=\"stim\">SUSPECT</p>", "key_press": -1, "type": "PRES_VIS", "word": "suspect", "wordID": 1414, "conditions": [12, 1600, "v", 24000], "trial": 6, "serialpos": 11, "trial_type": "single-stim", "trial_index": 236, "time_elapsed": 1033873, "internal_node_id": "0.0-173.0"}}, {"uniqueid": "MTK0565:3CPLWGV3MP6PXU1WA0KV0IHBB65N98", "current_trial": 237, "dateTime": 1511210478213, "trialdata": {"rt": -1, "stimulus": "", "key_press": -1, "type": "PRE_RECALL_DELAY", "trial_type": "single-stim", "trial_index": 237, "time_elapsed": 1036402, "internal_node_id": "0.0-174.0-0.0"}}, {"uniqueid": "MTK0565:3CPLWGV3MP6PXU1WA0KV0IHBB65N98", "current_trial": 238, "dateTime": 1511210478715, "trialdata": {"rt": -1000, "stimulus": "/static/audio/400Hz.wav", "key_press": -1, "type": "PRE_RECALL_ALERT", "trial_type": "single-audio", "trial_index": 238, "time_elapsed": 1036904, "internal_node_id": "0.0-175.0"}}, {"uniqueid": "MTK0565:3CPLWGV3MP6PXU1WA0KV0IHBB65N98", "current_trial": 239, "dateTime": 1511210538722, "trialdata": {"rt": [2197, 4100, 5482, 6111, 6939, 7815], "recwords": ["infant", "briefcase", "fiddle", "rust", "child", "infant"], "type": "FREE_RECALL", "conditions": [12, 1600, "v", 24000], "trial": 6, "trial_type": "free-recall", "trial_index": 239, "time_elapsed": 1096907, "internal_node_id": "0.0-176.0-0.0"}}, {"uniqueid": "MTK0565:3CPLWGV3MP6PXU1WA0KV0IHBB65N98", "current_trial": 240, "dateTime": 1511210546984, "trialdata": {"rt": 6261, "key_press": 32, "type": "INSTRUCTIONS", "trial_type": "text", "trial_index": 240, "time_elapsed": 1105173, "internal_node_id": "0.0-177.0"}}, {"uniqueid": "MTK0565:3CPLWGV3MP6PXU1WA0KV0IHBB65N98", "current_trial": 241, "dateTime": 1511210572987, "trialdata": {"rt": [3132, 4160, 5200, 6866, 7913, 9545, 11295, 12434, 14185, 15689, 17424, 18927, 21586, 23360], "responses": ["9", "9", "13", "9", "11", "14", "8", "4", "14", "15", "7", "15", "25", "24"], "num1": [1, 4, 5, 2, 1, 5, 1, 2, 1, 3, 2, 1, 9, 9, 6], "num2": [6, 4, 5, 1, 9, 3, 2, 1, 8, 3, 4, 8, 7, 6, 8], "num3": [2, 1, 3, 6, 1, 6, 5, 1, 5, 9, 1, 6, 9, 9, 4], "type": "DISTRACTOR", "conditions": [24, 1600, "v", 24000], "trial": 7, "trial_type": "math-distractor", "trial_index": 241, "time_elapsed": 1131176, "internal_node_id": "0.0-178.0"}}, {"uniqueid": "MTK0565:3CPLWGV3MP6PXU1WA0KV0IHBB65N98", "current_trial": 242, "dateTime": 1511210575988, "trialdata": {"rt": -1, "stimulus": "<p id=\"stim\">10</p>", "key_press": -1, "trial_type": "single-stim", "trial_index": 242, "time_elapsed": 1134177, "internal_node_id": "0.0-179.0-0.0"}}, {"uniqueid": "MTK0565:3CPLWGV3MP6PXU1WA0KV0IHBB65N98", "current_trial": 243, "dateTime": 1511210576989, "trialdata": {"rt": -1, "stimulus": "<p id=\"stim\">9</p>", "key_press": -1, "trial_type": "single-stim", "trial_index": 243, "time_elapsed": 1135178, "internal_node_id": "0.0-179.0-1.0"}}, {"uniqueid": "MTK0565:3CPLWGV3MP6PXU1WA0KV0IHBB65N98", "current_trial": 244, "dateTime": 1511210577990, "trialdata": {"rt": -1, "stimulus": "<p id=\"stim\">8</p>", "key_press": -1, "trial_type": "single-stim", "trial_index": 244, "time_elapsed": 1136179, "internal_node_id": "0.0-179.0-2.0"}}, {"uniqueid": "MTK0565:3CPLWGV3MP6PXU1WA0KV0IHBB65N98", "current_trial": 245, "dateTime": 1511210578992, "trialdata": {"rt": -1, "stimulus": "<p id=\"stim\">7</p>", "key_press": -1, "trial_type": "single-stim", "trial_index": 245, "time_elapsed": 1137181, "internal_node_id": "0.0-179.0-3.0"}}, {"uniqueid": "MTK0565:3CPLWGV3MP6PXU1WA0KV0IHBB65N98", "current_trial": 246, "dateTime": 1511210579994, "trialdata": {"rt": -1, "stimulus": "<p id=\"stim\">6</p>", "key_press": -1, "trial_type": "single-stim", "trial_index": 246, "time_elapsed": 1138183, "internal_node_id": "0.0-179.0-4.0"}}, {"uniqueid": "MTK0565:3CPLWGV3MP6PXU1WA0KV0IHBB65N98", "current_trial": 247, "dateTime": 1511210580995, "trialdata": {"rt": -1, "stimulus": "<p id=\"stim\">5</p>", "key_press": -1, "trial_type": "single-stim", "trial_index": 247, "time_elapsed": 1139184, "internal_node_id": "0.0-179.0-5.0"}}, {"uniqueid": "MTK0565:3CPLWGV3MP6PXU1WA0KV0IHBB65N98", "current_trial": 248, "dateTime": 1511210581997, "trialdata": {"rt": -1, "stimulus": "<p id=\"stim\">4</p>", "key_press": -1, "trial_type": "single-stim", "trial_index": 248, "time_elapsed": 1140186, "internal_node_id": "0.0-179.0-6.0"}}, {"uniqueid": "MTK0565:3CPLWGV3MP6PXU1WA0KV0IHBB65N98", "current_trial": 249, "dateTime": 1511210582998, "trialdata": {"rt": -1, "stimulus": "<p id=\"stim\">3</p>", "key_press": -1, "trial_type": "single-stim", "trial_index": 249, "time_elapsed": 1141187, "internal_node_id": "0.0-179.0-7.0"}}, {"uniqueid": "MTK0565:3CPLWGV3MP6PXU1WA0KV0IHBB65N98", "current_trial": 250, "dateTime": 1511210584000, "trialdata": {"rt": -1, "stimulus": "<p id=\"stim\">2</p>", "key_press": -1, "trial_type": "single-stim", "trial_index": 250, "time_elapsed": 1142189, "internal_node_id": "0.0-179.0-8.0"}}, {"uniqueid": "MTK0565:3CPLWGV3MP6PXU1WA0KV0IHBB65N98", "current_trial": 251, "dateTime": 1511210585002, "trialdata": {"rt": -1, "stimulus": "<p id=\"stim\">1</p>", "key_press": -1, "trial_type": "single-stim", "trial_index": 251, "time_elapsed": 1143190, "internal_node_id": "0.0-179.0-9.0"}}, {"uniqueid": "MTK0565:3CPLWGV3MP6PXU1WA0KV0IHBB65N98", "current_trial": 252, "dateTime": 1511210586503, "trialdata": {"rt": -1, "stimulus": "<p id=\"stim\">+</p>", "key_press": -1, "type": "FIXATION", "trial_type": "single-stim", "trial_index": 252, "time_elapsed": 1144692, "internal_node_id": "0.0-180.0-0.0"}}, {"uniqueid": "MTK0565:3CPLWGV3MP6PXU1WA0KV0IHBB65N98", "current_trial": 253, "dateTime": 1511210588104, "trialdata": {"rt": -1, "stimulus": "<p id=\"stim\">FIREPLACE</p>", "key_press": -1, "type": "PRES_VIS", "word": "fireplace", "wordID": 569, "conditions": [24, 1600, "v", 24000], "trial": 7, "serialpos": 0, "trial_type": "single-stim", "trial_index": 253, "time_elapsed": 1146293, "internal_node_id": "0.0-181.0"}}, {"uniqueid": "MTK0565:3CPLWGV3MP6PXU1WA0KV0IHBB65N98", "current_trial": 254, "dateTime": 1511210590650, "trialdata": {"rt": -1, "stimulus": "<p id=\"stim\">CHIPMUNK</p>", "key_press": -1, "type": "PRES_VIS", "word": "chipmunk", "wordID": 303, "conditions": [24, 1600, "v", 24000], "trial": 7, "serialpos": 1, "trial_type": "single-stim", "trial_index": 254, "time_elapsed": 1148839, "internal_node_id": "0.0-182.0"}}, {"uniqueid": "MTK0565:3CPLWGV3MP6PXU1WA0KV0IHBB65N98", "current_trial": 255, "dateTime": 1511210593402, "trialdata": {"rt": -1, "stimulus": "<p id=\"stim\">KNIFE</p>", "key_press": -1, "type": "PRES_VIS", "word": "knife", "wordID": 784, "conditions": [24, 1600, "v", 24000], "trial": 7, "serialpos": 2, "trial_type": "single-stim", "trial_index": 255, "time_elapsed": 1151591, "internal_node_id": "0.0-183.0"}}, {"uniqueid": "MTK0565:3CPLWGV3MP6PXU1WA0KV0IHBB65N98", "current_trial": 256, "dateTime": 1511210596172, "trialdata": {"rt": -1, "stimulus": "<p id=\"stim\">CATCHER</p>", "key_press": -1, "type": "PRES_VIS", "word": "catcher", "wordID": 257, "conditions": [24, 1600, "v", 24000], "trial": 7, "serialpos": 3, "trial_type": "single-stim", "trial_index": 256, "time_elapsed": 1154361, "internal_node_id": "0.0-184.0"}}, {"uniqueid": "MTK0565:3CPLWGV3MP6PXU1WA0KV0IHBB65N98", "current_trial": 257, "dateTime": 1511210598960, "trialdata": {"rt": -1, "stimulus": "<p id=\"stim\">ARMY</p>", "key_press": -1, "type": "PRES_VIS", "word": "army", "wordID": 38, "conditions": [24, 1600, "v", 24000], "trial": 7, "serialpos": 4, "trial_type": "single-stim", "trial_index": 257, "time_elapsed": 1157149, "internal_node_id": "0.0-185.0"}}, {"uniqueid": "MTK0565:3CPLWGV3MP6PXU1WA0KV0IHBB65N98", "current_trial": 258, "dateTime": 1511210601571, "trialdata": {"rt": -1, "stimulus": "<p id=\"stim\">MISSILE</p>", "key_press": -1, "type": "PRES_VIS", "word": "missile", "wordID": 899, "conditions": [24, 1600, "v", 24000], "trial": 7, "serialpos": 5, "trial_type": "single-stim", "trial_index": 258, "time_elapsed": 1159760, "internal_node_id": "0.0-186.0"}}, {"uniqueid": "MTK0565:3CPLWGV3MP6PXU1WA0KV0IHBB65N98", "current_trial": 259, "dateTime": 1511210604067, "trialdata": {"rt": -1, "stimulus": "<p id=\"stim\">SKILLET</p>", "key_press": -1, "type": "PRES_VIS", "word": "skillet", "wordID": 1316, "conditions": [24, 1600, "v", 24000], "trial": 7, "serialpos": 6, "trial_type": "single-stim", "trial_index": 259, "time_elapsed": 1162256, "internal_node_id": "0.0-187.0"}}, {"uniqueid": "MTK0565:3CPLWGV3MP6PXU1WA0KV0IHBB65N98", "current_trial": 260, "dateTime": 1511210606747, "trialdata": {"rt": -1, "stimulus": "<p id=\"stim\">JUGGLER</p>", "key_press": -1, "type": "PRES_VIS", "word": "juggler", "wordID": 762, "conditions": [24, 1600, "v", 24000], "trial": 7, "serialpos": 7, "trial_type": "single-stim", "trial_index": 260, "time_elapsed": 1164936, "internal_node_id": "0.0-188.0"}}, {"uniqueid": "MTK0565:3CPLWGV3MP6PXU1WA0KV0IHBB65N98", "current_trial": 261, "dateTime": 1511210609292, "trialdata": {"rt": -1, "stimulus": "<p id=\"stim\">PORK</p>", "key_press": -1, "type": "PRES_VIS", "word": "pork", "wordID": 1107, "conditions": [24, 1600, "v", 24000], "trial": 7, "serialpos": 8, "trial_type": "single-stim", "trial_index": 261, "time_elapsed": 1167480, "internal_node_id": "0.0-189.0"}}, {"uniqueid": "MTK0565:3CPLWGV3MP6PXU1WA0KV0IHBB65N98", "current_trial": 262, "dateTime": 1511210611947, "trialdata": {"rt": -1, "stimulus": "<p id=\"stim\">SAUSAGE</p>", "key_press": -1, "type": "PRES_VIS", "word": "sausage", "wordID": 1237, "conditions": [24, 1600, "v", 24000], "trial": 7, "serialpos": 9, "trial_type": "single-stim", "trial_index": 262, "time_elapsed": 1170136, "internal_node_id": "0.0-190.0"}}, {"uniqueid": "MTK0565:3CPLWGV3MP6PXU1WA0KV0IHBB65N98", "current_trial": 263, "dateTime": 1511210614636, "trialdata": {"rt": -1, "stimulus": "<p id=\"stim\">KITCHEN</p>", "key_press": -1, "type": "PRES_VIS", "word": "kitchen", "wordID": 777, "conditions": [24, 1600, "v", 24000], "trial": 7, "serialpos": 10, "trial_type": "single-stim", "trial_index": 263, "time_elapsed": 1172825, "internal_node_id": "0.0-191.0"}}, {"uniqueid": "MTK0565:3CPLWGV3MP6PXU1WA0KV0IHBB65N98", "current_trial": 264, "dateTime": 1511210617061, "trialdata": {"rt": -1, "stimulus": "<p id=\"stim\">BARREL</p>", "key_press": -1, "type": "PRES_VIS", "word": "barrel", "wordID": 90, "conditions": [24, 1600, "v", 24000], "trial": 7, "serialpos": 11, "trial_type": "single-stim", "trial_index": 264, "time_elapsed": 1175249, "internal_node_id": "0.0-192.0"}}, {"uniqueid": "MTK0565:3CPLWGV3MP6PXU1WA0KV0IHBB65N98", "current_trial": 265, "dateTime": 1511210619561, "trialdata": {"rt": -1, "stimulus": "<p id=\"stim\">PROTON</p>", "key_press": -1, "type": "PRES_VIS", "word": "proton", "wordID": 1131, "conditions": [24, 1600, "v", 24000], "trial": 7, "serialpos": 12, "trial_type": "single-stim", "trial_index": 265, "time_elapsed": 1177750, "internal_node_id": "0.0-193.0"}}, {"uniqueid": "MTK0565:3CPLWGV3MP6PXU1WA0KV0IHBB65N98", "current_trial": 266, "dateTime": 1511210622275, "trialdata": {"rt": -1, "stimulus": "<p id=\"stim\">SLOPE</p>", "key_press": -1, "type": "PRES_VIS", "word": "slope", "wordID": 1327, "conditions": [24, 1600, "v", 24000], "trial": 7, "serialpos": 13, "trial_type": "single-stim", "trial_index": 266, "time_elapsed": 1180464, "internal_node_id": "0.0-194.0"}}, {"uniqueid": "MTK0565:3CPLWGV3MP6PXU1WA0KV0IHBB65N98", "current_trial": 267, "dateTime": 1511210624974, "trialdata": {"rt": -1, "stimulus": "<p id=\"stim\">MAILBOX</p>", "key_press": -1, "type": "PRES_VIS", "word": "mailbox", "wordID": 856, "conditions": [24, 1600, "v", 24000], "trial": 7, "serialpos": 14, "trial_type": "single-stim", "trial_index": 267, "time_elapsed": 1183163, "internal_node_id": "0.0-195.0"}}, {"uniqueid": "MTK0565:3CPLWGV3MP6PXU1WA0KV0IHBB65N98", "current_trial": 268, "dateTime": 1511210627473, "trialdata": {"rt": -1, "stimulus": "<p id=\"stim\">OMELET</p>", "key_press": -1, "type": "PRES_VIS", "word": "omelet", "wordID": 975, "conditions": [24, 1600, "v", 24000], "trial": 7, "serialpos": 15, "trial_type": "single-stim", "trial_index": 268, "time_elapsed": 1185661, "internal_node_id": "0.0-196.0"}}, {"uniqueid": "MTK0565:3CPLWGV3MP6PXU1WA0KV0IHBB65N98", "current_trial": 269, "dateTime": 1511210630135, "trialdata": {"rt": -1, "stimulus": "<p id=\"stim\">BLOCKADE</p>", "key_press": -1, "type": "PRES_VIS", "word": "blockade", "wordID": 136, "conditions": [24, 1600, "v", 24000], "trial": 7, "serialpos": 16, "trial_type": "single-stim", "trial_index": 269, "time_elapsed": 1188324, "internal_node_id": "0.0-197.0"}}, {"uniqueid": "MTK0565:3CPLWGV3MP6PXU1WA0KV0IHBB65N98", "current_trial": 270, "dateTime": 1511210632577, "trialdata": {"rt": -1, "stimulus": "<p id=\"stim\">REBEL</p>", "key_press": -1, "type": "PRES_VIS", "word": "rebel", "wordID": 1171, "conditions": [24, 1600, "v", 24000], "trial": 7, "serialpos"