{"condition": 0, "counterbalance": 336, "assignmentId": "3D8YOU6S9FRFA1J79UT5U3I3RMTU63", "workerId": "MTK0023", "hitId": "3S1WOPCJFG08MG3YDB3NA55LEPNJE3", "currenttrial": 625, "bonus": 0, "data": [{"uniqueid": "MTK0023:3D8YOU6S9FRFA1J79UT5U3I3RMTU63", "current_trial": 0, "dateTime": 1509047969434, "trialdata": {"rt": 1818, "key_press": 38, "type": "INSTRUCTIONS", "trial_type": "text", "trial_index": 0, "time_elapsed": 1823, "internal_node_id": "0.0-0.0"}}, {"uniqueid": "MTK0023:3D8YOU6S9FRFA1J79UT5U3I3RMTU63", "current_trial": 1, "dateTime": 1509047985015, "trialdata": {"rt": 15578, "key_press": 38, "type": "INSTRUCTIONS", "trial_type": "text", "trial_index": 1, "time_elapsed": 17405, "internal_node_id": "0.0-1.0"}}, {"uniqueid": "MTK0023:3D8YOU6S9FRFA1J79UT5U3I3RMTU63", "current_trial": 2, "dateTime": 1509048026663, "trialdata": {"rt": [41625], "responses": ["ocean"], "type": "AUDIO_TEST", "trial_type": "audio-test", "trial_index": 2, "time_elapsed": 59053, "internal_node_id": "0.0-2.0"}}, {"uniqueid": "MTK0023:3D8YOU6S9FRFA1J79UT5U3I3RMTU63", "current_trial": 3, "dateTime": 1509048033191, "trialdata": {"rt": [6519], "responses": ["crystal"], "type": "AUDIO_TEST", "trial_type": "audio-test", "trial_index": 3, "time_elapsed": 65581, "internal_node_id": "0.0-3.0"}}, {"uniqueid": "MTK0023:3D8YOU6S9FRFA1J79UT5U3I3RMTU63", "current_trial": 4, "dateTime": 1509048039559, "trialdata": {"rt": [6359], "responses": ["spice"], "type": "AUDIO_TEST", "trial_type": "audio-test", "trial_index": 4, "time_elapsed": 71949, "internal_node_id": "0.0-4.0"}}, {"uniqueid": "MTK0023:3D8YOU6S9FRFA1J79UT5U3I3RMTU63", "current_trial": 5, "dateTime": 1509048044430, "trialdata": {"rt": 4120, "key_press": 38, "type": "INSTRUCTIONS", "trial_type": "text", "trial_index": 5, "time_elapsed": 76820, "internal_node_id": "0.0-5.0"}}, {"uniqueid": "MTK0023:3D8YOU6S9FRFA1J79UT5U3I3RMTU63", "current_trial": 6, "dateTime": 1509048100959, "trialdata": {"rt": 56528, "key_press": 38, "type": "INSTRUCTIONS", "trial_type": "text", "trial_index": 6, "time_elapsed": 133349, "internal_node_id": "0.0-6.0"}}, {"uniqueid": "MTK0023:3D8YOU6S9FRFA1J79UT5U3I3RMTU63", "current_trial": 7, "dateTime": 1509048119518, "trialdata": {"rt": 18558, "key_press": 38, "type": "INSTRUCTIONS", "trial_type": "text", "trial_index": 7, "time_elapsed": 151908, "internal_node_id": "0.0-7.0"}}, {"uniqueid": "MTK0023:3D8YOU6S9FRFA1J79UT5U3I3RMTU63", "current_trial": 8, "dateTime": 1509048158750, "trialdata": {"rt": 39230, "key_press": 38, "type": "INSTRUCTIONS", "trial_type": "text", "trial_index": 8, "time_elapsed": 191140, "internal_node_id": "0.0-8.0"}}, {"uniqueid": "MTK0023:3D8YOU6S9FRFA1J79UT5U3I3RMTU63", "current_trial": 9, "dateTime": 1509048177762, "trialdata": {"rt": [4780, 9669, 13253, 15765], "responses": ["15", "11", "14", "12"], "num1": [3, 5, 5, 8, 6], "num2": [7, 2, 3, 2, 3], "num3": [5, 4, 6, 2, 1], "type": "DISTRACTOR", "conditions": [18, 1200, "a", 18000], "trial": 0, "trial_type": "math-distractor", "trial_index": 9, "time_elapsed": 210152, "internal_node_id": "0.0-9.0"}}, {"uniqueid": "MTK0023:3D8YOU6S9FRFA1J79UT5U3I3RMTU63", "current_trial": 10, "dateTime": 1509048180764, "trialdata": {"rt": -1, "stimulus": "<p id=\"stim\">10</p>", "key_press": -1, "trial_type": "single-stim", "trial_index": 10, "time_elapsed": 213154, "internal_node_id": "0.0-10.0-0.0"}}, {"uniqueid": "MTK0023:3D8YOU6S9FRFA1J79UT5U3I3RMTU63", "current_trial": 11, "dateTime": 1509048181765, "trialdata": {"rt": -1, "stimulus": "<p id=\"stim\">9</p>", "key_press": -1, "trial_type": "single-stim", "trial_index": 11, "time_elapsed": 214155, "internal_node_id": "0.0-10.0-1.0"}}, {"uniqueid": "MTK0023:3D8YOU6S9FRFA1J79UT5U3I3RMTU63", "current_trial": 12, "dateTime": 1509048182766, "trialdata": {"rt": -1, "stimulus": "<p id=\"stim\">8</p>", "key_press": -1, "trial_type": "single-stim", "trial_index": 12, "time_elapsed": 215156, "internal_node_id": "0.0-10.0-2.0"}}, {"uniqueid": "MTK0023:3D8YOU6S9FRFA1J79UT5U3I3RMTU63", "current_trial": 13, "dateTime": 1509048183767, "trialdata": {"rt": -1, "stimulus": "<p id=\"stim\">7</p>", "key_press": -1, "trial_type": "single-stim", "trial_index": 13, "time_elapsed": 216157, "internal_node_id": "0.0-10.0-3.0"}}, {"uniqueid": "MTK0023:3D8YOU6S9FRFA1J79UT5U3I3RMTU63", "current_trial": 14, "dateTime": 1509048184768, "trialdata": {"rt": -1, "stimulus": "<p id=\"stim\">6</p>", "key_press": -1, "trial_type": "single-stim", "trial_index": 14, "time_elapsed": 217158, "internal_node_id": "0.0-10.0-4.0"}}, {"uniqueid": "MTK0023:3D8YOU6S9FRFA1J79UT5U3I3RMTU63", "current_trial": 15, "dateTime": 1509048185770, "trialdata": {"rt": -1, "stimulus": "<p id=\"stim\">5</p>", "key_press": -1, "trial_type": "single-stim", "trial_index": 15, "time_elapsed": 218160, "internal_node_id": "0.0-10.0-5.0"}}, {"uniqueid": "MTK0023:3D8YOU6S9FRFA1J79UT5U3I3RMTU63", "current_trial": 16, "dateTime": 1509048186771, "trialdata": {"rt": -1, "stimulus": "<p id=\"stim\">4</p>", "key_press": -1, "trial_type": "single-stim", "trial_index": 16, "time_elapsed": 219160, "internal_node_id": "0.0-10.0-6.0"}}, {"uniqueid": "MTK0023:3D8YOU6S9FRFA1J79UT5U3I3RMTU63", "current_trial": 17, "dateTime": 1509048187772, "trialdata": {"rt": -1, "stimulus": "<p id=\"stim\">3</p>", "key_press": -1, "trial_type": "single-stim", "trial_index": 17, "time_elapsed": 220161, "internal_node_id": "0.0-10.0-7.0"}}, {"uniqueid": "MTK0023:3D8YOU6S9FRFA1J79UT5U3I3RMTU63", "current_trial": 18, "dateTime": 1509048188772, "trialdata": {"rt": -1, "stimulus": "<p id=\"stim\">2</p>", "key_press": -1, "trial_type": "single-stim", "trial_index": 18, "time_elapsed": 221161, "internal_node_id": "0.0-10.0-8.0"}}, {"uniqueid": "MTK0023:3D8YOU6S9FRFA1J79UT5U3I3RMTU63", "current_trial": 19, "dateTime": 1509048189773, "trialdata": {"rt": -1, "stimulus": "<p id=\"stim\">1</p>", "key_press": -1, "trial_type": "single-stim", "trial_index": 19, "time_elapsed": 222162, "internal_node_id": "0.0-10.0-9.0"}}, {"uniqueid": "MTK0023:3D8YOU6S9FRFA1J79UT5U3I3RMTU63", "current_trial": 20, "dateTime": 1509048191273, "trialdata": {"rt": -1, "stimulus": "<p id=\"stim\">+</p>", "key_press": -1, "type": "FIXATION", "trial_type": "single-stim", "trial_index": 20, "time_elapsed": 223663, "internal_node_id": "0.0-11.0-0.0"}}, {"uniqueid": "MTK0023:3D8YOU6S9FRFA1J79UT5U3I3RMTU63", "current_trial": 21, "dateTime": 1509048193310, "trialdata": {"rt": -1000, "stimulus": "/static/audio/wordpool/GAZELLE.wav", "key_press": -1, "type": "PRES_AUD", "word": "gazelle", "wordID": 627, "conditions": [18, 1200, "a", 18000], "trial": 0, "serialpos": 0, "trial_type": "single-audio", "trial_index": 21, "time_elapsed": 225700, "internal_node_id": "0.0-12.0"}}, {"uniqueid": "MTK0023:3D8YOU6S9FRFA1J79UT5U3I3RMTU63", "current_trial": 22, "dateTime": 1509048195500, "trialdata": {"rt": -1000, "stimulus": "/static/audio/wordpool/CONTRACT.wav", "key_press": -1, "type": "PRES_AUD", "word": "contract", "wordID": 367, "conditions": [18, 1200, "a", 18000], "trial": 0, "serialpos": 1, "trial_type": "single-audio", "trial_index": 22, "time_elapsed": 227890, "internal_node_id": "0.0-13.0"}}, {"uniqueid": "MTK0023:3D8YOU6S9FRFA1J79UT5U3I3RMTU63", "current_trial": 23, "dateTime": 1509048197780, "trialdata": {"rt": -1000, "stimulus": "/static/audio/wordpool/DRUG.wav", "key_press": -1, "type": "PRES_AUD", "word": "drug", "wordID": 500, "conditions": [18, 1200, "a", 18000], "trial": 0, "serialpos": 2, "trial_type": "single-audio", "trial_index": 23, "time_elapsed": 230170, "internal_node_id": "0.0-14.0"}}, {"uniqueid": "MTK0023:3D8YOU6S9FRFA1J79UT5U3I3RMTU63", "current_trial": 24, "dateTime": 1509048199847, "trialdata": {"rt": -1000, "stimulus": "/static/audio/wordpool/OYSTER.wav", "key_press": -1, "type": "PRES_AUD", "word": "oyster", "wordID": 994, "conditions": [18, 1200, "a", 18000], "trial": 0, "serialpos": 3, "trial_type": "single-audio", "trial_index": 24, "time_elapsed": 232237, "internal_node_id": "0.0-15.0"}}, {"uniqueid": "MTK0023:3D8YOU6S9FRFA1J79UT5U3I3RMTU63", "current_trial": 25, "dateTime": 1509048202047, "trialdata": {"rt": -1000, "stimulus": "/static/audio/wordpool/GRILL.wav", "key_press": -1, "type": "PRES_AUD", "word": "grill", "wordID": 660, "conditions": [18, 1200, "a", 18000], "trial": 0, "serialpos": 4, "trial_type": "single-audio", "trial_index": 25, "time_elapsed": 234437, "internal_node_id": "0.0-16.0"}}, {"uniqueid": "MTK0023:3D8YOU6S9FRFA1J79UT5U3I3RMTU63", "current_trial": 26, "dateTime": 1509048204087, "trialdata": {"rt": -1000, "stimulus": "/static/audio/wordpool/ATLAS.wav", "key_press": -1, "type": "PRES_AUD", "word": "atlas", "wordID": 52, "conditions": [18, 1200, "a", 18000], "trial": 0, "serialpos": 5, "trial_type": "single-audio", "trial_index": 26, "time_elapsed": 236477, "internal_node_id": "0.0-17.0"}}, {"uniqueid": "MTK0023:3D8YOU6S9FRFA1J79UT5U3I3RMTU63", "current_trial": 27, "dateTime": 1509048206123, "trialdata": {"rt": -1000, "stimulus": "/static/audio/wordpool/LABEL.wav", "key_press": -1, "type": "PRES_AUD", "word": "label", "wordID": 789, "conditions": [18, 1200, "a", 18000], "trial": 0, "serialpos": 6, "trial_type": "single-audio", "trial_index": 27, "time_elapsed": 238513, "internal_node_id": "0.0-18.0"}}, {"uniqueid": "MTK0023:3D8YOU6S9FRFA1J79UT5U3I3RMTU63", "current_trial": 28, "dateTime": 1509048208153, "trialdata": {"rt": -1000, "stimulus": "/static/audio/wordpool/HOOD.wav", "key_press": -1, "type": "PRES_AUD", "word": "hood", "wordID": 713, "conditions": [18, 1200, "a", 18000], "trial": 0, "serialpos": 7, "trial_type": "single-audio", "trial_index": 28, "time_elapsed": 240543, "internal_node_id": "0.0-19.0"}}, {"uniqueid": "MTK0023:3D8YOU6S9FRFA1J79UT5U3I3RMTU63", "current_trial": 29, "dateTime": 1509048210469, "trialdata": {"rt": -1000, "stimulus": "/static/audio/wordpool/BEAKER.wav", "key_press": -1, "type": "PRES_AUD", "word": "beaker", "wordID": 103, "conditions": [18, 1200, "a", 18000], "trial": 0, "serialpos": 8, "trial_type": "single-audio", "trial_index": 29, "time_elapsed": 242859, "internal_node_id": "0.0-20.0"}}, {"uniqueid": "MTK0023:3D8YOU6S9FRFA1J79UT5U3I3RMTU63", "current_trial": 30, "dateTime": 1509048212860, "trialdata": {"rt": -1000, "stimulus": "/static/audio/wordpool/FUNGUS.wav", "key_press": -1, "type": "PRES_AUD", "word": "fungus", "wordID": 613, "conditions": [18, 1200, "a", 18000], "trial": 0, "serialpos": 9, "trial_type": "single-audio", "trial_index": 30, "time_elapsed": 245250, "internal_node_id": "0.0-21.0"}}, {"uniqueid": "MTK0023:3D8YOU6S9FRFA1J79UT5U3I3RMTU63", "current_trial": 31, "dateTime": 1509048215030, "trialdata": {"rt": -1000, "stimulus": "/static/audio/wordpool/SHORTS.wav", "key_press": -1, "type": "PRES_AUD", "word": "shorts", "wordID": 1292, "conditions": [18, 1200, "a", 18000], "trial": 0, "serialpos": 10, "trial_type": "single-audio", "trial_index": 31, "time_elapsed": 247420, "internal_node_id": "0.0-22.0"}}, {"uniqueid": "MTK0023:3D8YOU6S9FRFA1J79UT5U3I3RMTU63", "current_trial": 32, "dateTime": 1509048217210, "trialdata": {"rt": -1000, "stimulus": "/static/audio/wordpool/MOTEL.wav", "key_press": -1, "type": "PRES_AUD", "word": "motel", "wordID": 918, "conditions": [18, 1200, "a", 18000], "trial": 0, "serialpos": 11, "trial_type": "single-audio", "trial_index": 32, "time_elapsed": 249600, "internal_node_id": "0.0-23.0"}}, {"uniqueid": "MTK0023:3D8YOU6S9FRFA1J79UT5U3I3RMTU63", "current_trial": 33, "dateTime": 1509048219269, "trialdata": {"rt": -1000, "stimulus": "/static/audio/wordpool/GRAVE.wav", "key_press": -1, "type": "PRES_AUD", "word": "grave", "wordID": 657, "conditions": [18, 1200, "a", 18000], "trial": 0, "serialpos": 12, "trial_type": "single-audio", "trial_index": 33, "time_elapsed": 251659, "internal_node_id": "0.0-24.0"}}, {"uniqueid": "MTK0023:3D8YOU6S9FRFA1J79UT5U3I3RMTU63", "current_trial": 34, "dateTime": 1509048221566, "trialdata": {"rt": -1000, "stimulus": "/static/audio/wordpool/QUAIL.wav", "key_press": -1, "type": "PRES_AUD", "word": "quail", "wordID": 1146, "conditions": [18, 1200, "a", 18000], "trial": 0, "serialpos": 13, "trial_type": "single-audio", "trial_index": 34, "time_elapsed": 253956, "internal_node_id": "0.0-25.0"}}, {"uniqueid": "MTK0023:3D8YOU6S9FRFA1J79UT5U3I3RMTU63", "current_trial": 35, "dateTime": 1509048223888, "trialdata": {"rt": -1000, "stimulus": "/static/audio/wordpool/PORTRAIT.wav", "key_press": -1, "type": "PRES_AUD", "word": "portrait", "wordID": 1110, "conditions": [18, 1200, "a", 18000], "trial": 0, "serialpos": 14, "trial_type": "single-audio", "trial_index": 35, "time_elapsed": 256278, "internal_node_id": "0.0-26.0"}}, {"uniqueid": "MTK0023:3D8YOU6S9FRFA1J79UT5U3I3RMTU63", "current_trial": 36, "dateTime": 1509048226262, "trialdata": {"rt": -1000, "stimulus": "/static/audio/wordpool/GIFT.wav", "key_press": -1, "type": "PRES_AUD", "word": "gift", "wordID": 634, "conditions": [18, 1200, "a", 18000], "trial": 0, "serialpos": 15, "trial_type": "single-audio", "trial_index": 36, "time_elapsed": 258652, "internal_node_id": "0.0-27.0"}}, {"uniqueid": "MTK0023:3D8YOU6S9FRFA1J79UT5U3I3RMTU63", "current_trial": 37, "dateTime": 1509048228432, "trialdata": {"rt": -1000, "stimulus": "/static/audio/wordpool/CASKET.wav", "key_press": -1, "type": "PRES_AUD", "word": "casket", "wordID": 254, "conditions": [18, 1200, "a", 18000], "trial": 0, "serialpos": 16, "trial_type": "single-audio", "trial_index": 37, "time_elapsed": 260822, "internal_node_id": "0.0-28.0"}}, {"uniqueid": "MTK0023:3D8YOU6S9FRFA1J79UT5U3I3RMTU63", "current_trial": 38, "dateTime": 1509048230524, "trialdata": {"rt": -1000, "stimulus": "/static/audio/wordpool/BUGGY.wav", "key_press": -1, "type": "PRES_AUD", "word": "buggy", "wordID": 187, "conditions": [18, 1200, "a", 18000], "trial": 0, "serialpos": 17, "trial_type": "single-audio", "trial_index": 38, "time_elapsed": 262914, "internal_node_id": "0.0-29.0"}}, {"uniqueid": "MTK0023:3D8YOU6S9FRFA1J79UT5U3I3RMTU63", "current_trial": 39, "dateTime": 1509048231786, "trialdata": {"rt": -1, "stimulus": "", "key_press": -1, "type": "PRE_RECALL_DELAY", "trial_type": "single-stim", "trial_index": 39, "time_elapsed": 264176, "internal_node_id": "0.0-30.0-0.0"}}, {"uniqueid": "MTK0023:3D8YOU6S9FRFA1J79UT5U3I3RMTU63", "current_trial": 40, "dateTime": 1509048232292, "trialdata": {"rt": -1000, "stimulus": "/static/audio/400Hz.wav", "key_press": -1, "type": "PRE_RECALL_ALERT", "trial_type": "single-audio", "trial_index": 40, "time_elapsed": 264682, "internal_node_id": "0.0-31.0"}}, {"uniqueid": "MTK0023:3D8YOU6S9FRFA1J79UT5U3I3RMTU63", "current_trial": 41, "dateTime": 1509048292295, "trialdata": {"rt": [4997, 6950, 10763, 15086, 20870], "recwords": ["gazelle", "casket", "buggy", "paper", "baby"], "type": "FREE_RECALL", "conditions": [18, 1200, "a", 18000], "trial": 0, "trial_type": "free-recall", "trial_index": 41, "time_elapsed": 324685, "internal_node_id": "0.0-32.0-0.0"}}, {"uniqueid": "MTK0023:3D8YOU6S9FRFA1J79UT5U3I3RMTU63", "current_trial": 42, "dateTime": 1509048297030, "trialdata": {"rt": 2734, "key_press": 38, "type": "INSTRUCTIONS", "trial_type": "text", "trial_index": 42, "time_elapsed": 329420, "internal_node_id": "0.0-33.0"}}, {"uniqueid": "MTK0023:3D8YOU6S9FRFA1J79UT5U3I3RMTU63", "current_trial": 43, "dateTime": 1509048317033, "trialdata": {"rt": [5094, 9910, 16231], "responses": ["19", "24", "18"], "num1": [3, 8, 6, 3], "num2": [7, 8, 6, 1], "num3": [9, 8, 6, 5], "type": "DISTRACTOR", "conditions": [18, 1200, "v", 18000], "trial": 1, "trial_type": "math-distractor", "trial_index": 43, "time_elapsed": 349423, "internal_node_id": "0.0-34.0"}}, {"uniqueid": "MTK0023:3D8YOU6S9FRFA1J79UT5U3I3RMTU63", "current_trial": 44, "dateTime": 1509048320034, "trialdata": {"rt": -1, "stimulus": "<p id=\"stim\">10</p>", "key_press": -1, "trial_type": "single-stim", "trial_index": 44, "time_elapsed": 352423, "internal_node_id": "0.0-35.0-0.0"}}, {"uniqueid": "MTK0023:3D8YOU6S9FRFA1J79UT5U3I3RMTU63", "current_trial": 45, "dateTime": 1509048321035, "trialdata": {"rt": -1, "stimulus": "<p id=\"stim\">9</p>", "key_press": -1, "trial_type": "single-stim", "trial_index": 45, "time_elapsed": 353424, "internal_node_id": "0.0-35.0-1.0"}}, {"uniqueid": "MTK0023:3D8YOU6S9FRFA1J79UT5U3I3RMTU63", "current_trial": 46, "dateTime": 1509048322035, "trialdata": {"rt": -1, "stimulus": "<p id=\"stim\">8</p>", "key_press": -1, "trial_type": "single-stim", "trial_index": 46, "time_elapsed": 354425, "internal_node_id": "0.0-35.0-2.0"}}, {"uniqueid": "MTK0023:3D8YOU6S9FRFA1J79UT5U3I3RMTU63", "current_trial": 47, "dateTime": 1509048323036, "trialdata": {"rt": -1, "stimulus": "<p id=\"stim\">7</p>", "key_press": -1, "trial_type": "single-stim", "trial_index": 47, "time_elapsed": 355426, "internal_node_id": "0.0-35.0-3.0"}}, {"uniqueid": "MTK0023:3D8YOU6S9FRFA1J79UT5U3I3RMTU63", "current_trial": 48, "dateTime": 1509048324039, "trialdata": {"rt": -1, "stimulus": "<p id=\"stim\">6</p>", "key_press": -1, "trial_type": "single-stim", "trial_index": 48, "time_elapsed": 356428, "internal_node_id": "0.0-35.0-4.0"}}, {"uniqueid": "MTK0023:3D8YOU6S9FRFA1J79UT5U3I3RMTU63", "current_trial": 49, "dateTime": 1509048325040, "trialdata": {"rt": -1, "stimulus": "<p id=\"stim\">5</p>", "key_press": -1, "trial_type": "single-stim", "trial_index": 49, "time_elapsed": 357429, "internal_node_id": "0.0-35.0-5.0"}}, {"uniqueid": "MTK0023:3D8YOU6S9FRFA1J79UT5U3I3RMTU63", "current_trial": 50, "dateTime": 1509048326042, "trialdata": {"rt": -1, "stimulus": "<p id=\"stim\">4</p>", "key_press": -1, "trial_type": "single-stim", "trial_index": 50, "time_elapsed": 358431, "internal_node_id": "0.0-35.0-6.0"}}, {"uniqueid": "MTK0023:3D8YOU6S9FRFA1J79UT5U3I3RMTU63", "current_trial": 51, "dateTime": 1509048327043, "trialdata": {"rt": -1, "stimulus": "<p id=\"stim\">3</p>", "key_press": -1, "trial_type": "single-stim", "trial_index": 51, "time_elapsed": 359432, "internal_node_id": "0.0-35.0-7.0"}}, {"uniqueid": "MTK0023:3D8YOU6S9FRFA1J79UT5U3I3RMTU63", "current_trial": 52, "dateTime": 1509048328044, "trialdata": {"rt": -1, "stimulus": "<p id=\"stim\">2</p>", "key_press": -1, "trial_type": "single-stim", "trial_index": 52, "time_elapsed": 360433, "internal_node_id": "0.0-35.0-8.0"}}, {"uniqueid": "MTK0023:3D8YOU6S9FRFA1J79UT5U3I3RMTU63", "current_trial": 53, "dateTime": 1509048329045, "trialdata": {"rt": -1, "stimulus": "<p id=\"stim\">1</p>", "key_press": -1, "trial_type": "single-stim", "trial_index": 53, "time_elapsed": 361434, "internal_node_id": "0.0-35.0-9.0"}}, {"uniqueid": "MTK0023:3D8YOU6S9FRFA1J79UT5U3I3RMTU63", "current_trial": 54, "dateTime": 1509048330546, "trialdata": {"rt": -1, "stimulus": "<p id=\"stim\">+</p>", "key_press": -1, "type": "FIXATION", "trial_type": "single-stim", "trial_index": 54, "time_elapsed": 362935, "internal_node_id": "0.0-36.0-0.0"}}, {"uniqueid": "MTK0023:3D8YOU6S9FRFA1J79UT5U3I3RMTU63", "current_trial": 55, "dateTime": 1509048331747, "trialdata": {"rt": -1, "stimulus": "<p id=\"stim\">STUDENT</p>", "key_press": -1, "type": "PRES_VIS", "word": "student", "wordID": 1394, "conditions": [18, 1200, "v", 18000], "trial": 1, "serialpos": 0, "trial_type": "single-stim", "trial_index": 55, "time_elapsed": 364136, "internal_node_id": "0.0-37.0"}}, {"uniqueid": "MTK0023:3D8YOU6S9FRFA1J79UT5U3I3RMTU63", "current_trial": 56, "dateTime": 1509048334081, "trialdata": {"rt": -1, "stimulus": "<p id=\"stim\">SODA</p>", "key_press": -1, "type": "PRES_VIS", "word": "soda", "wordID": 1340, "conditions": [18, 1200, "v", 18000], "trial": 1, "serialpos": 1, "trial_type": "single-stim", "trial_index": 56, "time_elapsed": 366470, "internal_node_id": "0.0-38.0"}}, {"uniqueid": "MTK0023:3D8YOU6S9FRFA1J79UT5U3I3RMTU63", "current_trial": 57, "dateTime": 1509048336339, "trialdata": {"rt": -1, "stimulus": "<p id=\"stim\">RAFT</p>", "key_press": -1, "type": "PRES_VIS", "word": "raft", "wordID": 1158, "conditions": [18, 1200, "v", 18000], "trial": 1, "serialpos": 2, "trial_type": "single-stim", "trial_index": 57, "time_elapsed": 368728, "internal_node_id": "0.0-39.0"}}, {"uniqueid": "MTK0023:3D8YOU6S9FRFA1J79UT5U3I3RMTU63", "current_trial": 58, "dateTime": 1509048338580, "trialdata": {"rt": -1, "stimulus": "<p id=\"stim\">FOX</p>", "key_press": -1, "type": "PRES_VIS", "word": "fox", "wordID": 597, "conditions": [18, 1200, "v", 18000], "trial": 1, "serialpos": 3, "trial_type": "single-stim", "trial_index": 58, "time_elapsed": 370969, "internal_node_id": "0.0-40.0"}}, {"uniqueid": "MTK0023:3D8YOU6S9FRFA1J79UT5U3I3RMTU63", "current_trial": 59, "dateTime": 1509048340789, "trialdata": {"rt": -1, "stimulus": "<p id=\"stim\">CAFE</p>", "key_press": -1, "type": "PRES_VIS", "word": "cafe", "wordID": 215, "conditions": [18, 1200, "v", 18000], "trial": 1, "serialpos": 4, "trial_type": "single-stim", "trial_index": 59, "time_elapsed": 373178, "internal_node_id": "0.0-41.0"}}, {"uniqueid": "MTK0023:3D8YOU6S9FRFA1J79UT5U3I3RMTU63", "current_trial": 60, "dateTime": 1509048342983, "trialdata": {"rt": -1, "stimulus": "<p id=\"stim\">BRIEFCASE</p>", "key_press": -1, "type": "PRES_VIS", "word": "briefcase", "wordID": 174, "conditions": [18, 1200, "v", 18000], "trial": 1, "serialpos": 5, "trial_type": "single-stim", "trial_index": 60, "time_elapsed": 375372, "internal_node_id": "0.0-42.0"}}, {"uniqueid": "MTK0023:3D8YOU6S9FRFA1J79UT5U3I3RMTU63", "current_trial": 61, "dateTime": 1509048345194, "trialdata": {"rt": -1, "stimulus": "<p id=\"stim\">JOURNAL</p>", "key_press": -1, "type": "PRES_VIS", "word": "journal", "wordID": 759, "conditions": [18, 1200, "v", 18000], "trial": 1, "serialpos": 6, "trial_type": "single-stim", "trial_index": 61, "time_elapsed": 377583, "internal_node_id": "0.0-43.0"}}, {"uniqueid": "MTK0023:3D8YOU6S9FRFA1J79UT5U3I3RMTU63", "current_trial": 62, "dateTime": 1509048347394, "trialdata": {"rt": -1, "stimulus": "<p id=\"stim\">WHISKERS</p>", "key_press": -1, "type": "PRES_VIS", "word": "whiskers", "wordID": 1604, "conditions": [18, 1200, "v", 18000], "trial": 1, "serialpos": 7, "trial_type": "single-stim", "trial_index": 62, "time_elapsed": 379783, "internal_node_id": "0.0-44.0"}}, {"uniqueid": "MTK0023:3D8YOU6S9FRFA1J79UT5U3I3RMTU63", "current_trial": 63, "dateTime": 1509048349569, "trialdata": {"rt": -1, "stimulus": "<p id=\"stim\">BABY</p>", "key_press": -1, "type": "PRES_VIS", "word": "baby", "wordID": 63, "conditions": [18, 1200, "v", 18000], "trial": 1, "serialpos": 8, "trial_type": "single-stim", "trial_index": 63, "time_elapsed": 381958, "internal_node_id": "0.0-45.0"}}, {"uniqueid": "MTK0023:3D8YOU6S9FRFA1J79UT5U3I3RMTU63", "current_trial": 64, "dateTime": 1509048351653, "trialdata": {"rt": -1, "stimulus": "<p id=\"stim\">STATUE</p>", "key_press": -1, "type": "PRES_VIS", "word": "statue", "wordID": 1373, "conditions": [18, 1200, "v", 18000], "trial": 1, "serialpos": 9, "trial_type": "single-stim", "trial_index": 64, "time_elapsed": 384042, "internal_node_id": "0.0-46.0"}}, {"uniqueid": "MTK0023:3D8YOU6S9FRFA1J79UT5U3I3RMTU63", "current_trial": 65, "dateTime": 1509048353976, "trialdata": {"rt": -1, "stimulus": "<p id=\"stim\">CITRUS</p>", "key_press": -1, "type": "PRES_VIS", "word": "citrus", "wordID": 312, "conditions": [18, 1200, "v", 18000], "trial": 1, "serialpos": 10, "trial_type": "single-stim", "trial_index": 65, "time_elapsed": 386365, "internal_node_id": "0.0-47.0"}}, {"uniqueid": "MTK0023:3D8YOU6S9FRFA1J79UT5U3I3RMTU63", "current_trial": 66, "dateTime": 1509048356148, "trialdata": {"rt": -1, "stimulus": "<p id=\"stim\">BRACES</p>", "key_press": -1, "type": "PRES_VIS", "word": "braces", "wordID": 163, "conditions": [18, 1200, "v", 18000], "trial": 1, "serialpos": 11, "trial_type": "single-stim", "trial_index": 66, "time_elapsed": 388537, "internal_node_id": "0.0-48.0"}}, {"uniqueid": "MTK0023:3D8YOU6S9FRFA1J79UT5U3I3RMTU63", "current_trial": 67, "dateTime": 1509048358385, "trialdata": {"rt": -1, "stimulus": "<p id=\"stim\">KNAPSACK</p>", "key_press": -1, "type": "PRES_VIS", "word": "knapsack", "wordID": 782, "conditions": [18, 1200, "v", 18000], "trial": 1, "serialpos": 12, "trial_type": "single-stim", "trial_index": 67, "time_elapsed": 390774, "internal_node_id": "0.0-49.0"}}, {"uniqueid": "MTK0023:3D8YOU6S9FRFA1J79UT5U3I3RMTU63", "current_trial": 68, "dateTime": 1509048360521, "trialdata": {"rt": -1, "stimulus": "<p id=\"stim\">TEACHER</p>", "key_press": -1, "type": "PRES_VIS", "word": "teacher", "wordID": 1439, "conditions": [18, 1200, "v", 18000], "trial": 1, "serialpos": 13, "trial_type": "single-stim", "trial_index": 68, "time_elapsed": 392907, "internal_node_id": "0.0-50.0"}}, {"uniqueid": "MTK0023:3D8YOU6S9FRFA1J79UT5U3I3RMTU63", "current_trial": 69, "dateTime": 1509048362763, "trialdata": {"rt": -1, "stimulus": "<p id=\"stim\">LUGGAGE</p>", "key_press": -1, "type": "PRES_VIS", "word": "luggage", "wordID": 846, "conditions": [18, 1200, "v", 18000], "trial": 1, "serialpos": 14, "trial_type": "single-stim", "trial_index": 69, "time_elapsed": 395152, "internal_node_id": "0.0-51.0"}}, {"uniqueid": "MTK0023:3D8YOU6S9FRFA1J79UT5U3I3RMTU63", "current_trial": 70, "dateTime": 1509048364883, "trialdata": {"rt": -1, "stimulus": "<p id=\"stim\">PARENT</p>", "key_press": -1, "type": "PRES_VIS", "word": "parent", "wordID": 1012, "conditions": [18, 1200, "v", 18000], "trial": 1, "serialpos": 15, "trial_type": "single-stim", "trial_index": 70, "time_elapsed": 397272, "internal_node_id": "0.0-52.0"}}, {"uniqueid": "MTK0023:3D8YOU6S9FRFA1J79UT5U3I3RMTU63", "current_trial": 71, "dateTime": 1509048367180, "trialdata": {"rt": -1, "stimulus": "<p id=\"stim\">BEAST</p>", "key_press": -1, "type": "PRES_VIS", "word": "beast", "wordID": 107, "conditions": [18, 1200, "v", 18000], "trial": 1, "serialpos": 16, "trial_type": "single-stim", "trial_index": 71, "time_elapsed": 399569, "internal_node_id": "0.0-53.0"}}, {"uniqueid": "MTK0023:3D8YOU6S9FRFA1J79UT5U3I3RMTU63", "current_trial": 72, "dateTime": 1509048369443, "trialdata": {"rt": -1, "stimulus": "<p id=\"stim\">GLOVE</p>", "key_press": -1, "type": "PRES_VIS", "word": "glove", "wordID": 641, "conditions": [18, 1200, "v", 18000], "trial": 1, "serialpos": 17, "trial_type": "single-stim", "trial_index": 72, "time_elapsed": 401832, "internal_node_id": "0.0-54.0"}}, {"uniqueid": "MTK0023:3D8YOU6S9FRFA1J79UT5U3I3RMTU63", "current_trial": 73, "dateTime": 1509048371621, "trialdata": {"rt": -1, "stimulus": "", "key_press": -1, "type": "PRE_RECALL_DELAY", "trial_type": "single-stim", "trial_index": 73, "time_elapsed": 404010, "internal_node_id": "0.0-55.0-0.0"}}, {"uniqueid": "MTK0023:3D8YOU6S9FRFA1J79UT5U3I3RMTU63", "current_trial": 74, "dateTime": 1509048372122, "trialdata": {"rt": -1000, "stimulus": "/static/audio/400Hz.wav", "key_press": -1, "type": "PRE_RECALL_ALERT", "trial_type": "single-audio", "trial_index": 74, "time_elapsed": 404512, "internal_node_id": "0.0-56.0"}}, {"uniqueid": "MTK0023:3D8YOU6S9FRFA1J79UT5U3I3RMTU63", "current_trial": 75, "dateTime": 1509048432123, "trialdata": {"rt": [2490, 4230, 6643, 8370, 10787, 15243, 30395], "recwords": ["beast", "glove", "luggage", "baby", "napsack", "love", "glider"], "type": "FREE_RECALL", "conditions": [18, 1200, "v", 18000], "trial": 1, "trial_type": "free-recall", "trial_index": 75, "time_elapsed": 464513, "internal_node_id": "0.0-57.0-0.0"}}, {"uniqueid": "MTK0023:3D8YOU6S9FRFA1J79UT5U3I3RMTU63", "current_trial": 76, "dateTime": 1509048438110, "trialdata": {"rt": 3987, "key_press": 38, "type": "INSTRUCTIONS", "trial_type": "text", "trial_index": 76, "time_elapsed": 470500, "internal_node_id": "0.0-58.0"}}, {"uniqueid": "MTK0023:3D8YOU6S9FRFA1J79UT5U3I3RMTU63", "current_trial": 77, "dateTime": 1509048451113, "trialdata": {"rt": [2541, 4868, 7404], "responses": ["9", "7", "19"], "num1": [1, 4, 9, 7], "num2": [6, 1, 3, 8], "num3": [2, 2, 7, 8], "type": "DISTRACTOR", "conditions": [24, 800, "v", 12000], "trial": 2, "trial_type": "math-distractor", "trial_index": 77, "time_elapsed": 483503, "internal_node_id": "0.0-59.0"}}, {"uniqueid": "MTK0023:3D8YOU6S9FRFA1J79UT5U3I3RMTU63", "current_trial": 78, "dateTime": 1509048454114, "trialdata": {"rt": -1, "stimulus": "<p id=\"stim\">10</p>", "key_press": -1, "trial_type": "single-stim", "trial_index": 78, "time_elapsed": 486503, "internal_node_id": "0.0-60.0-0.0"}}, {"uniqueid": "MTK0023:3D8YOU6S9FRFA1J79UT5U3I3RMTU63", "current_trial": 79, "dateTime": 1509048455114, "trialdata": {"rt": -1, "stimulus": "<p id=\"stim\">9</p>", "key_press": -1, "trial_type": "single-stim", "trial_index": 79, "time_elapsed": 487504, "internal_node_id": "0.0-60.0-1.0"}}, {"uniqueid": "MTK0023:3D8YOU6S9FRFA1J79UT5U3I3RMTU63", "current_trial": 80, "dateTime": 1509048456115, "trialdata": {"rt": -1, "stimulus": "<p id=\"stim\">8</p>", "key_press": -1, "trial_type": "single-stim", "trial_index": 80, "time_elapsed": 488505, "internal_node_id": "0.0-60.0-2.0"}}, {"uniqueid": "MTK0023:3D8YOU6S9FRFA1J79UT5U3I3RMTU63", "current_trial": 81, "dateTime": 1509048457117, "trialdata": {"rt": -1, "stimulus": "<p id=\"stim\">7</p>", "key_press": -1, "trial_type": "single-stim", "trial_index": 81, "time_elapsed": 489506, "internal_node_id": "0.0-60.0-3.0"}}, {"uniqueid": "MTK0023:3D8YOU6S9FRFA1J79UT5U3I3RMTU63", "current_trial": 82, "dateTime": 1509048458118, "trialdata": {"rt": -1, "stimulus": "<p id=\"stim\">6</p>", "key_press": -1, "trial_type": "single-stim", "trial_index": 82, "time_elapsed": 490507, "internal_node_id": "0.0-60.0-4.0"}}, {"uniqueid": "MTK0023:3D8YOU6S9FRFA1J79UT5U3I3RMTU63", "current_trial": 83, "dateTime": 1509048459119, "trialdata": {"rt": -1, "stimulus": "<p id=\"stim\">5</p>", "key_press": -1, "trial_type": "single-stim", "trial_index": 83, "time_elapsed": 491508, "internal_node_id": "0.0-60.0-5.0"}}, {"uniqueid": "MTK0023:3D8YOU6S9FRFA1J79UT5U3I3RMTU63", "current_trial": 84, "dateTime": 1509048460120, "trialdata": {"rt": -1, "stimulus": "<p id=\"stim\">4</p>", "key_press": -1, "trial_type": "single-stim", "trial_index": 84, "time_elapsed": 492509, "internal_node_id": "0.0-60.0-6.0"}}, {"uniqueid": "MTK0023:3D8YOU6S9FRFA1J79UT5U3I3RMTU63", "current_trial": 85, "dateTime": 1509048461121, "trialdata": {"rt": -1, "stimulus": "<p id=\"stim\">3</p>", "key_press": -1, "trial_type": "single-stim", "trial_index": 85, "time_elapsed": 493510, "internal_node_id": "0.0-60.0-7.0"}}, {"uniqueid": "MTK0023:3D8YOU6S9FRFA1J79UT5U3I3RMTU63", "current_trial": 86, "dateTime": 1509048462122, "trialdata": {"rt": -1, "stimulus": "<p id=\"stim\">2</p>", "key_press": -1, "trial_type": "single-stim", "trial_index": 86, "time_elapsed": 494511, "internal_node_id": "0.0-60.0-8.0"}}, {"uniqueid": "MTK0023:3D8YOU6S9FRFA1J79UT5U3I3RMTU63", "current_trial": 87, "dateTime": 1509048463123, "trialdata": {"rt": -1, "stimulus": "<p id=\"stim\">1</p>", "key_press": -1, "trial_type": "single-stim", "trial_index": 87, "time_elapsed": 495512, "internal_node_id": "0.0-60.0-9.0"}}, {"uniqueid": "MTK0023:3D8YOU6S9FRFA1J79UT5U3I3RMTU63", "current_trial": 88, "dateTime": 1509048464624, "trialdata": {"rt": -1, "stimulus": "<p id=\"stim\">+</p>", "key_press": -1, "type": "FIXATION", "trial_type": "single-stim", "trial_index": 88, "time_elapsed": 497013, "internal_node_id": "0.0-61.0-0.0"}}, {"uniqueid": "MTK0023:3D8YOU6S9FRFA1J79UT5U3I3RMTU63", "current_trial": 89, "dateTime": 1509048465425, "trialdata": {"rt": -1, "stimulus": "<p id=\"stim\">TRENCH</p>", "key_press": -1, "type": "PRES_VIS", "word": "trench", "wordID": 1502, "conditions": [24, 800, "v", 12000], "trial": 2, "serialpos": 0, "trial_type": "single-stim", "trial_index": 89, "time_elapsed": 497814, "internal_node_id": "0.0-62.0"}}, {"uniqueid": "MTK0023:3D8YOU6S9FRFA1J79UT5U3I3RMTU63", "current_trial": 90, "dateTime": 1509048467258, "trialdata": {"rt": -1, "stimulus": "<p id=\"stim\">FLUTE</p>", "key_press": -1, "type": "PRES_VIS", "word": "flute", "wordID": 584, "conditions": [24, 800, "v", 12000], "trial": 2, "serialpos": 1, "trial_type": "single-stim", "trial_index": 90, "time_elapsed": 499647, "internal_node_id": "0.0-63.0"}}, {"uniqueid": "MTK0023:3D8YOU6S9FRFA1J79UT5U3I3RMTU63", "current_trial": 91, "dateTime": 1509048469214, "trialdata": {"rt": -1, "stimulus": "<p id=\"stim\">CONCERT</p>", "key_press": -1, "type": "PRES_VIS", "word": "concert", "wordID": 359, "conditions": [24, 800, "v", 12000], "trial": 2, "serialpos": 2, "trial_type": "single-stim", "trial_index": 91, "time_elapsed": 501604, "internal_node_id": "0.0-64.0"}}, {"uniqueid": "MTK0023:3D8YOU6S9FRFA1J79UT5U3I3RMTU63", "current_trial": 92, "dateTime": 1509048471187, "trialdata": {"rt": -1, "stimulus": "<p id=\"stim\">SHRUB</p>", "key_press": -1, "type": "PRES_VIS", "word": "shrub", "wordID": 1298, "conditions": [24, 800, "v", 12000], "trial": 2, "serialpos": 3, "trial_type": "single-stim", "trial_index": 92, "time_elapsed": 503577, "internal_node_id": "0.0-65.0"}}, {"uniqueid": "MTK0023:3D8YOU6S9FRFA1J79UT5U3I3RMTU63", "current_trial": 93, "dateTime": 1509048473108, "trialdata": {"rt": -1, "stimulus": "<p id=\"stim\">CRAYON</p>", "key_press": -1, "type": "PRES_VIS", "word": "crayon", "wordID": 400, "conditions": [24, 800, "v", 12000], "trial": 2, "serialpos": 4, "trial_type": "single-stim", "trial_index": 93, "time_elapsed": 505498, "internal_node_id": "0.0-66.0"}}, {"uniqueid": "MTK0023:3D8YOU6S9FRFA1J79UT5U3I3RMTU63", "current_trial": 94, "dateTime": 1509048474800, "trialdata": {"rt": -1, "stimulus": "<p id=\"stim\">SWORD</p>", "key_press": -1, "type": "PRES_VIS", "word": "sword", "wordID": 1422, "conditions": [24, 800, "v", 12000], "trial": 2, "serialpos": 5, "trial_type": "single-stim", "trial_index": 94, "time_elapsed": 507189, "internal_node_id": "0.0-67.0"}}, {"uniqueid": "MTK0023:3D8YOU6S9FRFA1J79UT5U3I3RMTU63", "current_trial": 95, "dateTime": 1509048476660, "trialdata": {"rt": -1, "stimulus": "<p id=\"stim\">FLOWER</p>", "key_press": -1, "type": "PRES_VIS", "word": "flower", "wordID": 583, "conditions": [24, 800, "v", 12000], "trial": 2, "serialpos": 6, "trial_type": "single-stim", "trial_index": 95, "time_elapsed": 509049, "internal_node_id": "0.0-68.0"}}, {"uniqueid": "MTK0023:3D8YOU6S9FRFA1J79UT5U3I3RMTU63", "current_trial": 96, "dateTime": 1509048478329, "trialdata": {"rt": -1, "stimulus": "<p id=\"stim\">PUDDING</p>", "key_press": -1, "type": "PRES_VIS", "word": "pudding", "wordID": 1138, "conditions": [24, 800, "v", 12000], "trial": 2, "serialpos": 7, "trial_type": "single-stim", "trial_index": 96, "time_elapsed": 510719, "internal_node_id": "0.0-69.0"}}, {"uniqueid": "MTK0023:3D8YOU6S9FRFA1J79UT5U3I3RMTU63", "current_trial": 97, "dateTime": 1509048480271, "trialdata": {"rt": -1, "stimulus": "<p id=\"stim\">TURTLE</p>", "key_press": -1, "type": "PRES_VIS", "word": "turtle", "wordID": 1521, "conditions": [24, 800, "v", 12000], "trial": 2, "serialpos": 8, "trial_type": "single-stim", "trial_index": 97, "time_elapsed": 512661, "internal_node_id": "0.0-70.0"}}, {"uniqueid": "MTK0023:3D8YOU6S9FRFA1J79UT5U3I3RMTU63", "current_trial": 98, "dateTime": 1509048482266, "trialdata": {"rt": -1, "stimulus": "<p id=\"stim\">EUROPE</p>", "key_press": -1, "type": "PRES_VIS", "word": "europe", "wordID": 540, "conditions": [24, 800, "v", 12000], "trial": 2, "serialpos": 9, "trial_type": "single-stim", "trial_index": 98, "time_elapsed": 514656, "internal_node_id": "0.0-71.0"}}, {"uniqueid": "MTK0023:3D8YOU6S9FRFA1J79UT5U3I3RMTU63", "current_trial": 99, "dateTime": 1509048484080, "trialdata": {"rt": -1, "stimulus": "<p id=\"stim\">ASIA</p>", "key_press": -1, "type": "PRES_VIS", "word": "asia", "wordID": 45, "conditions": [24, 800, "v", 12000], "trial": 2, "serialpos": 10, "trial_type": "single-stim", "trial_index": 99, "time_elapsed": 516469, "internal_node_id": "0.0-72.0"}}, {"uniqueid": "MTK0023:3D8YOU6S9FRFA1J79UT5U3I3RMTU63", "current_trial": 100, "dateTime": 1509048485951, "trialdata": {"rt": -1, "stimulus": "<p id=\"stim\">JELLY</p>", "key_press": -1, "type": "PRES_VIS", "word": "jelly", "wordID": 754, "conditions": [24, 800, "v", 12000], "trial": 2, "serialpos": 11, "trial_type": "single-stim", "trial_index": 100, "time_elapsed": 518341, "internal_node_id": "0.0-73.0"}}, {"uniqueid": "MTK0023:3D8YOU6S9FRFA1J79UT5U3I3RMTU63", "current_trial": 101, "dateTime": 1509048487846, "trialdata": {"rt": -1, "stimulus": "<p id=\"stim\">COUSIN</p>", "key_press": -1, "type": "PRES_VIS", "word": "cousin", "wordID": 391, "conditions": [24, 800, "v", 12000], "trial": 2, "serialpos": 12, "trial_type": "single-stim", "trial_index": 101, "time_elapsed": 520236, "internal_node_id": "0.0-74.0"}}, {"uniqueid": "MTK0023:3D8YOU6S9FRFA1J79UT5U3I3RMTU63", "current_trial": 102, "dateTime": 1509048489664, "trialdata": {"rt": -1, "stimulus": "<p id=\"stim\">WARDROBE</p>", "key_press": -1, "type": "PRES_VIS", "word": "wardrobe", "wordID": 1586, "conditions": [24, 800, "v", 12000], "trial": 2, "serialpos": 13, "trial_type": "single-stim", "trial_index": 102, "time_elapsed": 522054, "internal_node_id": "0.0-75.0"}}, {"uniqueid": "MTK0023:3D8YOU6S9FRFA1J79UT5U3I3RMTU63", "current_trial": 103, "dateTime": 1509048491407, "trialdata": {"rt": -1, "stimulus": "<p id=\"stim\">BLOUSE</p>", "key_press": -1, "type": "PRES_VIS", "word": "blouse", "wordID": 138, "conditions": [24, 800, "v", 12000], "trial": 2, "serialpos": 14, "trial_type": "single-stim", "trial_index": 103, "time_elapsed": 523797, "internal_node_id": "0.0-76.0"}}, {"uniqueid": "MTK0023:3D8YOU6S9FRFA1J79UT5U3I3RMTU63", "current_trial": 104, "dateTime": 1509048493338, "trialdata": {"rt": -1, "stimulus": "<p id=\"stim\">LIGHTNING</p>", "key_press": -1, "type": "PRES_VIS", "word": "lightning", "wordID": 819, "conditions": [24, 800, "v", 12000], "trial": 2, "serialpos": 15, "trial_type": "single-stim", "trial_index": 104, "time_elapsed": 525728, "internal_node_id": "0.0-77.0"}}, {"uniqueid": "MTK0023:3D8YOU6S9FRFA1J79UT5U3I3RMTU63", "current_trial": 105, "dateTime": 1509048495285, "trialdata": {"rt": -1, "stimulus": "<p id=\"stim\">TRIBE</p>", "key_press": -1, "type": "PRES_VIS", "word": "tribe", "wordID": 1504, "conditions": [24, 800, "v", 12000], "trial": 2, "serialpos": 16, "trial_type": "single-stim", "trial_index": 105, "time_elapsed": 527674, "internal_node_id": "0.0-78.0"}}, {"uniqueid": "MTK0023:3D8YOU6S9FRFA1J79UT5U3I3RMTU63", "current_trial": 106, "dateTime": 1509048497026, "trialdata": {"rt": -1, "stimulus": "<p id=\"stim\">SERVANT</p>", "key_press": -1, "type": "PRES_VIS", "word": "servant", "wordID": 1270, "conditions": [24, 800, "v", 12000], "trial": 2, "serialpos": 17, "trial_type": "single-stim", "trial_index": 106, "time_elapsed": 529416, "internal_node_id": "0.0-79.0"}}, {"uniqueid": "MTK0023:3D8YOU6S9FRFA1J79UT5U3I3RMTU63", "current_trial": 107, "dateTime": 1509048498953, "trialdata": {"rt": -1, "stimulus": "<p id=\"stim\">LAGOON</p>", "key_press": -1, "type": "PRES_VIS", "word": "lagoon", "wordID": 794, "conditions": [24, 800, "v", 12000], "trial": 2, "serialpos": 18, "trial_type": "single-stim", "trial_index": 107, "time_elapsed": 531342, "internal_node_id": "0.0-80.0"}}, {"uniqueid": "MTK0023:3D8YOU6S9FRFA1J79UT5U3I3RMTU63", "current_trial": 108, "dateTime": 1509048500914, "trialdata": {"rt": -1, "stimulus": "<p id=\"stim\">UNCLE</p>", "key_press": -1, "type": "PRES_VIS", "word": "uncle", "wordID": 1535, "conditions": [24, 800, "v", 12000], "trial": 2, "serialpos": 19, "trial_type": "single-stim", "trial_index": 108, "time_elapsed": 533303, "internal_node_id": "0.0-81.0"}}, {"uniqueid": "MTK0023:3D8YOU6S9FRFA1J79UT5U3I3RMTU63", "current_trial": 109, "dateTime": 1509048502787, "trialdata": {"rt": -1, "stimulus": "<p id=\"stim\">HERO</p>", "key_press": -1, "type": "PRES_VIS", "word": "hero", "wordID": 705, "conditions": [24, 800, "v", 12000], "trial": 2, "serialpos": 20, "trial_type": "single-stim", "trial_index": 109, "time_elapsed": 535177, "internal_node_id": "0.0-82.0"}}, {"uniqueid": "MTK0023:3D8YOU6S9FRFA1J79UT5U3I3RMTU63", "current_trial": 110, "dateTime": 1509048504395, "trialdata": {"rt": -1, "stimulus": "<p id=\"stim\">PALACE</p>", "key_press": -1, "type": "PRES_VIS", "word": "palace", "wordID": 1005, "conditions": [24, 800, "v", 12000], "trial": 2, "serialpos": 21, "trial_type": "single-stim", "trial_index": 110, "time_elapsed": 536785, "internal_node_id": "0.0-83.0"}}, {"uniqueid": "MTK0023:3D8YOU6S9FRFA1J79UT5U3I3RMTU63", "current_trial": 111, "dateTime": 1509048506067, "trialdata": {"rt": -1, "stimulus": "<p id=\"stim\">CONVICT</p>", "key_press": -1, "type": "PRES_VIS", "word": "convict", "wordID": 370, "conditions": [24, 800, "v", 12000], "trial": 2, "serialpos": 22, "trial_type": "single-stim", "trial_index": 111, "time_elapsed": 538457, "internal_node_id": "0.0-84.0"}}, {"uniqueid": "MTK0023:3D8YOU6S9FRFA1J79UT5U3I3RMTU63", "current_trial": 112, "dateTime": 1509048507684, "trialdata": {"rt": -1, "stimulus": "<p id=\"stim\">OUTLAW</p>", "key_press": -1, "type": "PRES_VIS", "word": "outlaw", "wordID": 988, "conditions": [24, 800, "v", 12000], "trial": 2, "serialpos": 23, "trial_type": "single-stim", "trial_index": 112, "time_elapsed": 540074, "internal_node_id": "0.0-85.0"}}, {"uniqueid": "MTK0023:3D8YOU6S9FRFA1J79UT5U3I3RMTU63", "current_trial": 113, "dateTime": 1509048509792, "trialdata": {"rt": -1, "stimulus": "", "key_press": -1, "type": "PRE_RECALL_DELAY", "trial_type": "single-stim", "trial_index": 113, "time_elapsed": 542182, "internal_node_id": "0.0-86.0-0.0"}}, {"uniqueid": "MTK0023:3D8YOU6S9FRFA1J79UT5U3I3RMTU63", "current_trial": 114, "dateTime": 1509048510297, "trialdata": {"rt": -1000, "stimulus": "/static/audio/400Hz.wav", "key_press": -1, "type": "PRE_RECALL_ALERT", "trial_type": "single-audio", "trial_index": 114, "time_elapsed": 542687, "internal_node_id": "0.0-87.0"}}, {"uniqueid": "MTK0023:3D8YOU6S9FRFA1J79UT5U3I3RMTU63", "current_trial": 115, "dateTime": 1509048570298, "trialdata": {"rt": [4066, 7565, 9957, 13481, 17348, 18758, 20373, 22411], "recwords": ["convict", "outlaw", "schrub", "flower", "pudding", "jelly", "asia", "europe"], "type": "FREE_RECALL", "conditions": [24, 800, "v", 12000], "trial": 2, "trial_type": "free-recall", "trial_index": 115, "time_elapsed": 602688, "internal_node_id": "0.0-88.0-0.0"}}, {"uniqueid": "MTK0023:3D8YOU6S9FRFA1J79UT5U3I3RMTU63", "current_trial": 116, "dateTime": 1509048574519, "trialdata": {"rt": 2220, "key_press": 38, "type": "INSTRUCTIONS", "trial_type": "text", "trial_index": 116, "time_elapsed": 606908, "internal_node_id": "0.0-89.0"}}, {"uniqueid": "MTK0023:3D8YOU6S9FRFA1J79UT5U3I3RMTU63", "current_trial": 117, "dateTime": 1509048600522, "trialdata": {"rt": [3115, 10164, 12940, 16347, 19803, 22212], "responses": ["16", "21", "14", "20", "15", "14"], "num1": [5, 9, 3, 8, 8, 2, 7], "num2": [8, 5, 9, 8, 4, 3, 6], "num3": [3, 7, 2, 4, 3, 9, 3], "type": "DISTRACTOR", "conditions": [12, 1600, "v", 24000], "trial": 3, "trial_type": "math-distractor", "trial_index": 117, "time_elapsed": 632912, "internal_node_id": "0.0-90.0"}}, {"uniqueid": "MTK0023:3D8YOU6S9FRFA1J79UT5U3I3RMTU63", "current_trial": 118, "dateTime": 1509048603522, "trialdata": {"rt": -1, "stimulus": "<p id=\"stim\">10</p>", "key_press": -1, "trial_type": "single-stim", "trial_index": 118, "time_elapsed": 635912, "internal_node_id": "0.0-91.0-0.0"}}, {"uniqueid": "MTK0023:3D8YOU6S9FRFA1J79UT5U3I3RMTU63", "current_trial": 119, "dateTime": 1509048604523, "trialdata": {"rt": -1, "stimulus": "<p id=\"stim\">9</p>", "key_press": -1, "trial_type": "single-stim", "trial_index": 119, "time_elapsed": 636913, "internal_node_id": "0.0-91.0-1.0"}}, {"uniqueid": "MTK0023:3D8YOU6S9FRFA1J79UT5U3I3RMTU63", "current_trial": 120, "dateTime": 1509048605524, "trialdata": {"rt": -1, "stimulus": "<p id=\"stim\">8</p>", "key_press": -1, "trial_type": "single-stim", "trial_index": 120, "time_elapsed": 637914, "internal_node_id": "0.0-91.0-2.0"}}, {"uniqueid": "MTK0023:3D8YOU6S9FRFA1J79UT5U3I3RMTU63", "current_trial": 121, "dateTime": 1509048606526, "trialdata": {"rt": -1, "stimulus": "<p id=\"stim\">7</p>", "key_press": -1, "trial_type": "single-stim", "trial_index": 121, "time_elapsed": 638915, "internal_node_id": "0.0-91.0-3.0"}}, {"uniqueid": "MTK0023:3D8YOU6S9FRFA1J79UT5U3I3RMTU63", "current_trial": 122, "dateTime": 1509048607527, "trialdata": {"rt": -1, "stimulus": "<p id=\"stim\">6</p>", "key_press": -1, "trial_type": "single-stim", "trial_index": 122, "time_elapsed": 639916, "internal_node_id": "0.0-91.0-4.0"}}, {"uniqueid": "MTK0023:3D8YOU6S9FRFA1J79UT5U3I3RMTU63", "current_trial": 123, "dateTime": 1509048608528, "trialdata": {"rt": -1, "stimulus": "<p id=\"stim\">5</p>", "key_press": -1, "trial_type": "single-stim", "trial_index": 123, "time_elapsed": 640917, "internal_node_id": "0.0-91.0-5.0"}}, {"uniqueid": "MTK0023:3D8YOU6S9FRFA1J79UT5U3I3RMTU63", "current_trial": 124, "dateTime": 1509048609529, "trialdata": {"rt": -1, "stimulus": "<p id=\"stim\">4</p>", "key_press": -1, "trial_type": "single-stim", "trial_index": 124, "time_elapsed": 641918, "internal_node_id": "0.0-91.0-6.0"}}, {"uniqueid": "MTK0023:3D8YOU6S9FRFA1J79UT5U3I3RMTU63", "current_trial": 125, "dateTime": 1509048610530, "trialdata": {"rt": -1, "stimulus": "<p id=\"stim\">3</p>", "key_press": -1, "trial_type": "single-stim", "trial_index": 125, "time_elapsed": 642919, "internal_node_id": "0.0-91.0-7.0"}}, {"uniqueid": "MTK0023:3D8YOU6S9FRFA1J79UT5U3I3RMTU63", "current_trial": 126, "dateTime": 1509048611530, "trialdata": {"rt": -1, "stimulus": "<p id=\"stim\">2</p>", "key_press": -1, "trial_type": "single-stim", "trial_index": 126, "time_elapsed": 643920, "internal_node_id": "0.0-91.0-8.0"}}, {"uniqueid": "MTK0023:3D8YOU6S9FRFA1J79UT5U3I3RMTU63", "current_trial": 127, "dateTime": 1509048612532, "trialdata": {"rt": -1, "stimulus": "<p id=\"stim\">1</p>", "key_press": -1, "trial_type": "single-stim", "trial_index": 127, "time_elapsed": 644921, "internal_node_id": "0.0-91.0-9.0"}}, {"uniqueid": "MTK0023:3D8YOU6S9FRFA1J79UT5U3I3RMTU63", "current_trial": 128, "dateTime": 1509048614033, "trialdata": {"rt": -1, "stimulus": "<p id=\"stim\">+</p>", "key_press": -1, "type": "FIXATION", "trial_type": "single-stim", "trial_index": 128, "time_elapsed": 646422, "internal_node_id": "0.0-92.0-0.0"}}, {"uniqueid": "MTK0023:3D8YOU6S9FRFA1J79UT5U3I3RMTU63", "current_trial": 129, "dateTime": 1509048615633, "trialdata": {"rt": -1, "stimulus": "<p id=\"stim\">BASEMENT</p>", "key_press": -1, "type": "PRES_VIS", "word": "basement", "wordID": 93, "conditions": [12, 1600, "v", 24000], "trial": 3, "serialpos": 0, "trial_type": "single-stim", "trial_index": 129, "time_elapsed": 648023, "internal_node_id": "0.0-93.0"}}, {"uniqueid": "MTK0023:3D8YOU6S9FRFA1J79UT5U3I3RMTU63", "current_trial": 130, "dateTime": 1509048618320, "trialdata": {"rt": -1, "stimulus": "<p id=\"stim\">CELLAR</p>", "key_press": -1, "type": "PRES_VIS", "word": "cellar", "wordID": 266, "conditions": [12, 1600, "v", 24000], "trial": 3, "serialpos": 1, "trial_type": "single-stim", "trial_index": 130, "time_elapsed": 650710, "internal_node_id": "0.0-94.0"}}, {"uniqueid": "MTK0023:3D8YOU6S9FRFA1J79UT5U3I3RMTU63", "current_trial": 131, "dateTime": 1509048620950, "trialdata": {"rt": -1, "stimulus": "<p id=\"stim\">MISSILE</p>", "key_press": -1, "type": "PRES_VIS", "word": "missile", "wordID": 899, "conditions": [12, 1600, "v", 24000], "trial": 3, "serialpos": 2, "trial_type": "single-stim", "trial_index": 131, "time_elapsed": 653340, "internal_node_id": "0.0-95.0"}}, {"uniqueid": "MTK0023:3D8YOU6S9FRFA1J79UT5U3I3RMTU63", "current_trial": 132, "dateTime": 1509048623643, "trialdata": {"rt": -1, "stimulus": "<p id=\"stim\">SEAGULL</p>", "key_press": -1, "type": "PRES_VIS", "word": "seagull", "wordID": 1260, "conditions": [12, 1600, "v", 24000], "trial": 3, "serialpos": 3, "trial_type": "single-stim", "trial_index": 132, "time_elapsed": 656032, "internal_node_id": "0.0-96.0"}}, {"uniqueid": "MTK0023:3D8YOU6S9FRFA1J79UT5U3I3RMTU63", "current_trial": 133, "dateTime": 1509048626146, "trialdata": {"rt": -1, "stimulus": "<p id=\"stim\">LODGE</p>", "key_press": -1, "type": "PRES_VIS", "word": "lodge", "wordID": 838, "conditions": [12, 1600, "v", 24000], "trial": 3, "serialpos": 4, "trial_type": "single-stim", "trial_index": 133, "time_elapsed": 658535, "internal_node_id": "0.0-97.0"}}, {"uniqueid": "MTK0023:3D8YOU6S9FRFA1J79UT5U3I3RMTU63", "current_trial": 134, "dateTime": 1509048628579, "trialdata": {"rt": -1, "stimulus": "<p id=\"stim\">PEANUT</p>", "key_press": -1, "type": "PRES_VIS", "word": "peanut", "wordID": 1031, "conditions": [12, 1600, "v", 24000], "trial": 3, "serialpos": 5, "trial_type": "single-stim", "trial_index": 134, "time_elapsed": 660968, "internal_node_id": "0.0-98.0"}}, {"uniqueid": "MTK0023:3D8YOU6S9FRFA1J79UT5U3I3RMTU63", "current_trial": 135, "dateTime": 1509048631316, "trialdata": {"rt": -1, "stimulus": "<p id=\"stim\">COTTAGE</p>", "key_press": -1, "type": "PRES_VIS", "word": "cottage", "wordID": 383, "conditions": [12, 1600, "v", 24000], "trial": 3, "serialpos": 6, "trial_type": "single-stim", "trial_index": 135, "time_elapsed": 663705, "internal_node_id": "0.0-99.0"}}, {"uniqueid": "MTK0023:3D8YOU6S9FRFA1J79UT5U3I3RMTU63", "current_trial": 136, "dateTime": 1509048633879, "trialdata": {"rt": -1, "stimulus": "<p id=\"stim\">YACHT</p>", "key_press": -1, "type": "PRES_VIS", "word": "yacht", "wordID": 1628, "conditions": [12, 1600, "v", 24000], "trial": 3, "serialpos": 7, "trial_type": "single-stim", "trial_index": 136, "time_elapsed": 666268, "internal_node_id": "0.0-100.0"}}, {"uniqueid": "MTK0023:3D8YOU6S9FRFA1J79UT5U3I3RMTU63", "current_trial": 137, "dateTime": 1509048636420, "trialdata": {"rt": -1, "stimulus": "<p id=\"stim\">PECAN</p>", "key_press": -1, "type": "PRES_VIS", "word": "pecan", "wordID": 1035, "conditions": [12, 1600, "v", 24000], "trial": 3, "serialpos": 8, "trial_type": "single-stim", "trial_index": 137, "time_elapsed": 668810, "internal_node_id": "0.0-101.0"}}, {"uniqueid": "MTK0023:3D8YOU6S9FRFA1J79UT5U3I3RMTU63", "current_trial": 138, "dateTime": 1509048639142, "trialdata": {"rt": -1, "stimulus": "<p id=\"stim\">COSTUME</p>", "key_press": -1, "type": "PRES_VIS", "word": "costume", "wordID": 382, "conditions": [12, 1600, "v", 24000], "trial": 3, "serialpos": 9, "trial_type": "single-stim", "trial_index": 138, "time_elapsed": 671532, "internal_node_id": "0.0-102.0"}}, {"uniqueid": "MTK0023:3D8YOU6S9FRFA1J79UT5U3I3RMTU63", "current_trial": 139, "dateTime": 1509048641810, "trialdata": {"rt": -1, "stimulus": "<p id=\"stim\">MATCH</p>", "key_press": -1, "type": "PRES_VIS", "word": "match", "wordID": 877, "conditions": [12, 1600, "v", 24000], "trial": 3, "serialpos": 10, "trial_type": "single-stim", "trial_index": 139, "time_elapsed": 674200, "internal_node_id": "0.0-103.0"}}, {"uniqueid": "MTK0023:3D8YOU6S9FRFA1J79UT5U3I3RMTU63", "current_trial": 140, "dateTime": 1509048644419, "trialdata": {"rt": -1, "stimulus": "<p id=\"stim\">HANDBAG</p>", "key_press": -1, "type": "PRES_VIS", "word": "handbag", "wordID": 683, "conditions": [12, 1600, "v", 24000], "trial": 3, "serialpos": 11, "trial_type": "single-stim", "trial_index": 140, "time_elapsed": 676807, "internal_node_id": "0.0-104.0"}}, {"uniqueid": "MTK0023:3D8YOU6S9FRFA1J79UT5U3I3RMTU63", "current_trial": 141, "dateTime": 1509048646533, "trialdata": {"rt": -1, "stimulus": "", "key_press": -1, "type": "PRE_RECALL_DELAY", "trial_type": "single-stim", "trial_index": 141, "time_elapsed": 678923, "internal_node_id": "0.0-105.0-0.0"}}, {"uniqueid": "MTK0023:3D8YOU6S9FRFA1J79UT5U3I3RMTU63", "current_trial": 142, "dateTime": 1509048647043, "trialdata": {"rt": -1000, "stimulus": "/static/audio/400Hz.wav", "key_press": -1, "type": "PRE_RECALL_ALERT", "trial_type": "single-audio", "trial_index": 142, "time_elapsed": 679433, "internal_node_id": "0.0-106.0"}}, {"uniqueid": "MTK0023:3D8YOU6S9FRFA1J79UT5U3I3RMTU63", "current_trial": 143, "dateTime": 1509048707044, "trialdata": {"rt": [3077, 4697, 7543, 10247, 13643, 25619, 40922], "recwords": ["basement", "cellar", "lodge", "handbag", "match", "nut", "cottage"], "type": "FREE_RECALL", "conditions": [12, 1600, "v", 24000], "trial": 3, "trial_type": "free-recall", "trial_index": 143, "time_elapsed": 739434, "internal_node_id": "0.0-107.0-0.0"}}, {"uniqueid": "MTK0023:3D8YOU6S9FRFA1J79UT5U3I3RMTU63", "current_trial": 144, "dateTime": 1509048710630, "trialdata": {"rt": 1585, "key_press": 38, "type": "INSTRUCTIONS", "trial_type": "text", "trial_index": 144, "time_elapsed": 743020, "internal_node_id": "0.0-108.0"}}, {"uniqueid": "MTK0023:3D8YOU6S9FRFA1J79UT5U3I3RMTU63", "current_trial": 145, "dateTime": 1509048736632, "trialdata": {"rt": [7149, 9765, 15484, 18196, 21892], "responses": ["13", "6", "16", "8", "20"], "num1": [6, 1, 2, 3, 3, 7], "num2": [5, 1, 7, 3, 9, 5], "num3": [2, 4, 7, 2, 8, 6], "type": "DISTRACTOR", "conditions": [24, 1600, "a", 24000], "trial": 4, "trial_type": "math-distractor", "trial_index": 145, "time_elapsed": 769022, "internal_node_id": "0.0-109.0"}}, {"uniqueid": "MTK0023:3D8YOU6S9FRFA1J79UT5U3I3RMTU63", "current_trial": 146, "dateTime": 1509048739633, "trialdata": {"rt": -1, "stimulus": "<p id=\"stim\">10</p>", "key_press": -1, "trial_type": "single-stim", "trial_index": 146, "time_elapsed": 772022, "internal_node_id": "0.0-110.0-0.0"}}, {"uniqueid": "MTK0023:3D8YOU6S9FRFA1J79UT5U3I3RMTU63", "current_trial": 147, "dateTime": 1509048740633, "trialdata": {"rt": -1, "stimulus": "<p id=\"stim\">9</p>", "key_press": -1, "trial_type": "single-stim", "trial_index": 147, "time_elapsed": 773023, "internal_node_id": "0.0-110.0-1.0"}}, {"uniqueid": "MTK0023:3D8YOU6S9FRFA1J79UT5U3I3RMTU63", "current_trial": 148, "dateTime": 1509048741635, "trialdata": {"rt": -1, "stimulus": "<p id=\"stim\">8</p>", "key_press": -1, "trial_type": "single-stim", "trial_index": 148, "time_elapsed": 774024, "internal_node_id": "0.0-110.0-2.0"}}, {"uniqueid": "MTK0023:3D8YOU6S9FRFA1J79UT5U3I3RMTU63", "current_trial": 149, "dateTime": 1509048742636, "trialdata": {"rt": -1, "stimulus": "<p id=\"stim\">7</p>", "key_press": -1, "trial_type": "single-stim", "trial_index": 149, "time_elapsed": 775025, "internal_node_id": "0.0-110.0-3.0"}}, {"uniqueid": "MTK0023:3D8YOU6S9FRFA1J79UT5U3I3RMTU63", "current_trial": 150, "dateTime": 1509048743637, "trialdata": {"rt": -1, "stimulus": "<p id=\"stim\">6</p>", "key_press": -1, "trial_type": "single-stim", "trial_index": 150, "time_elapsed": 776026, "internal_node_id": "0.0-110.0-4.0"}}, {"uniqueid": "MTK0023:3D8YOU6S9FRFA1J79UT5U3I3RMTU63", "current_trial": 151, "dateTime": 1509048744637, "trialdata": {"rt": -1, "stimulus": "<p id=\"stim\">5</p>", "key_press": -1, "trial_type": "single-stim", "trial_index": 151, "time_elapsed": 777027, "internal_node_id": "0.0-110.0-5.0"}}, {"uniqueid": "MTK0023:3D8YOU6S9FRFA1J79UT5U3I3RMTU63", "current_trial": 152, "dateTime": 1509048745639, "trialdata": {"rt": -1, "stimulus": "<p id=\"stim\">4</p>", "key_press": -1, "trial_type": "single-stim", "trial_index": 152, "time_elapsed": 778028, "internal_node_id": "0.0-110.0-6.0"}}, {"uniqueid": "MTK0023:3D8YOU6S9FRFA1J79UT5U3I3RMTU63", "current_trial": 153, "dateTime": 1509048746640, "trialdata": {"rt": -1, "stimulus": "<p id=\"stim\">3</p>", "key_press": -1, "trial_type": "single-stim", "trial_index": 153, "time_elapsed": 779029, "internal_node_id": "0.0-110.0-7.0"}}, {"uniqueid": "MTK0023:3D8YOU6S9FRFA1J79UT5U3I3RMTU63", "current_trial": 154, "dateTime": 1509048747640, "trialdata": {"rt": -1, "stimulus": "<p id=\"stim\">2</p>", "key_press": -1, "trial_type": "single-stim", "trial_index": 154, "time_elapsed": 780030, "internal_node_id": "0.0-110.0-8.0"}}, {"uniqueid": "MTK0023:3D8YOU6S9FRFA1J79UT5U3I3RMTU63", "current_trial": 155, "dateTime": 1509048748642, "trialdata": {"rt": -1, "stimulus": "<p id=\"stim\">1</p>", "key_press": -1, "trial_type": "single-stim", "trial_index": 155, "time_elapsed": 781031, "internal_node_id": "0.0-110.0-9.0"}}, {"uniqueid": "MTK0023:3D8YOU6S9FRFA1J79UT5U3I3RMTU63", "current_trial": 156, "dateTime": 1509048750142, "trialdata": {"rt": -1, "stimulus": "<p id=\"stim\">+</p>", "key_press": -1, "type": "FIXATION", "trial_type": "single-stim", "trial_index": 156, "time_elapsed": 782532, "internal_node_id": "0.0-111.0-0.0"}}, {"uniqueid": "MTK0023:3D8YOU6S9FRFA1J79UT5U3I3RMTU63", "current_trial": 157, "dateTime": 1509048752671, "trialdata": {"rt": -1000, "stimulus": "/static/audio/wordpool/WINDOW.wav", "key_press": -1, "type": "PRES_AUD", "word": "window", "wordID": 1610, "conditions": [24, 1600, "a", 24000], "trial": 4, "serialpos": 0, "trial_type": "single-audio", "trial_index": 157, "time_elapsed": 785061, "internal_node_id": "0.0-112.0"}}, {"uniqueid": "MTK0023:3D8YOU6S9FRFA1J79UT5U3I3RMTU63", "current_trial": 158, "dateTime": 1509048755081, "trialdata": {"rt": -1000, "stimulus": "/static/audio/wordpool/FLESH.wav", "key_press": -1, "type": "PRES_AUD", "word": "flesh", "wordID": 578, "conditions": [24, 1600, "a", 24000], "trial": 4, "serialpos": 1, "trial_type": "single-audio", "trial_index": 158, "time_elapsed": 787471, "internal_node_id": "0.0-113.0"}}, {"uniqueid": "MTK0023:3D8YOU6S9FRFA1J79UT5U3I3RMTU63", "current_trial": 159, "dateTime": 1509048757761, "trialdata": {"rt": -1000, "stimulus": "/static/audio/wordpool/SLIDE.wav", "key_press": -1, "type": "PRES_AUD", "word": "slide", "wordID": 1325, "conditions": [24, 1600, "a", 24000], "trial": 4, "serialpos": 2, "trial_type": "single-audio", "trial_index": 159, "time_elapsed": 790151, "internal_node_id": "0.0-114.0"}}, {"uniqueid": "MTK0023:3D8YOU6S9FRFA1J79UT5U3I3RMTU63", "current_trial": 160, "dateTime": 1509048760418, "trialdata": {"rt": -1000, "stimulus": "/static/audio/wordpool/ITEM.wav", "key_press": -1, "type": "PRES_AUD", "word": "item", "wordID": 745, "conditions": [24, 1600, "a", 24000], "trial": 4, "serialpos": 3, "trial_type": "single-audio", "trial_index": 160, "time_elapsed": 792808, "internal_node_id": "0.0-115.0"}}, {"uniqueid": "MTK0023:3D8YOU6S9FRFA1J79UT5U3I3RMTU63", "current_trial": 161, "dateTime": 1509048763198, "trialdata": {"rt": -1000, "stimulus": "/static/audio/wordpool/CLOUD.wav", "key_press": -1, "type": "PRES_AUD", "word": "cloud", "wordID": 327, "conditions": [24, 1600, "a", 24000], "trial": 4, "serialpos": 4, "trial_type": "single-audio", "trial_index": 161, "time_elapsed": 795588, "internal_node_id": "0.0-116.0"}}, {"uniqueid": "MTK0023:3D8YOU6S9FRFA1J79UT5U3I3RMTU63", "current_trial": 162, "dateTime": 1509048765614, "trialdata": {"rt": -1000, "stimulus": "/static/audio/wordpool/DASHBOARD.wav", "key_press": -1, "type": "PRES_AUD", "word": "dashboard", "wordID": 440, "conditions": [24, 1600, "a", 24000], "trial": 4, "serialpos": 5, "trial_type": "single-audio", "trial_index": 162, "time_elapsed": 798004, "internal_node_id": "0.0-117.0"}}, {"uniqueid": "MTK0023:3D8YOU6S9FRFA1J79UT5U3I3RMTU63", "current_trial": 163, "dateTime": 1509048768394, "trialdata": {"rt": -1000, "stimulus": "/static/audio/wordpool/SCISSORS.wav", "key_press": -1, "type": "PRES_AUD", "word": "scissors", "wordID": 1249, "conditions": [24, 1600, "a", 24000], "trial": 4, "serialpos": 6, "trial_type": "single-audio", "trial_index": 163, "time_elapsed": 800784, "internal_node_id": "0.0-118.0"}}, {"uniqueid": "MTK0023:3D8YOU6S9FRFA1J79UT5U3I3RMTU63", "current_trial": 164, "dateTime": 1509048770800, "trialdata": {"rt": -1000, "stimulus": "/static/audio/wordpool/GYMNAST.wav", "key_press": -1, "type": "PRES_AUD", "word": "gymnast", "wordID": 674, "conditions": [24, 1600, "a", 24000], "trial": 4, "serialpos": 7, "trial_type": "single-audio", "trial_index": 164, "time_elapsed": 803190, "internal_node_id": "0.0-119.0"}}, {"uniqueid": "MTK0023:3D8YOU6S9FRFA1J79UT5U3I3RMTU63", "current_trial": 165, "dateTime": 1509048773297, "trialdata": {"rt": -1000, "stimulus": "/static/audio/wordpool/SWIMMER.wav", "key_press": -1, "type": "PRES_AUD", "word": "swimmer", "wordID": 1419, "conditions": [24, 1600, "a", 24000], "trial": 4, "serialpos": 8, "trial_type": "single-audio", "trial_index": 165, "time_elapsed": 805687, "internal_node_id": "0.0-120.0"}}, {"uniqueid": "MTK0023:3D8YOU6S9FRFA1J79UT5U3I3RMTU63", "current_trial": 166, "dateTime": 1509048775914, "trialdata": {"rt": -1000, "stimulus": "/static/audio/wordpool/EYELASH.wav", "key_press": -1, "type": "PRES_AUD", "word": "eyelash", "wordID": 545, "conditions": [24, 1600, "a", 24000], "trial": 4, "serialpos": 9, "trial_type": "single-audio", "trial_index": 166, "time_elapsed": 808304, "internal_node_id": "0.0-121.0"}}, {"uniqueid": "MTK0023:3D8YOU6S9FRFA1J79UT5U3I3RMTU63", "current_trial": 167, "dateTime": 1509048778420, "trialdata": {"rt": -1000, "stimulus": "/static/audio/wordpool/PLIERS.wav", "key_press": -1, "type": "PRES_AUD", "word": "pliers", "wordID": 1088, "conditions": [24, 1600, "a", 24000], "trial": 4, "serialpos": 10, "trial_type": "single-audio", "trial_index": 167, "time_elapsed": 810810, "internal_node_id": "0.0-122.0"}}, {"uniqueid": "MTK0023:3D8YOU6S9FRFA1J79UT5U3I3RMTU63", "current_trial": 168, "dateTime": 1509048781078, "trialdata": {"rt": -1000, "stimulus": "/static/audio/wordpool/WHISTLE.wav", "key_press": -1, "type": "PRES_AUD", "word": "whistle", "wordID": 1605, "conditions": [24, 1600, "a", 24000], "trial": 4, "serialpos": 11, "trial_type": "single-audio", "trial_index": 168, "time_elapsed": 813468, "internal_node_id": "0.0-123.0"}}, {"uniqueid": "MTK0023:3D8YOU6S9FRFA1J79UT5U3I3RMTU63", "current_trial": 169, "dateTime": 1509048783587, "trialdata": {"rt": -1000, "stimulus": "/static/audio/wordpool/FRAGRANCE.wav", "key_press": -1, "type": "PRES_AUD", "word": "fragrance", "wordID": 598, "conditions": [24, 1600, "a", 24000], "trial": 4, "serialpos": 12, "trial_type": "single-audio", "trial_index": 169, "time_elapsed": 815977, "internal_node_id": "0.0-124.0"}}, {"uniqueid": "MTK0023:3D8YOU6S9FRFA1J79UT5U3I3RMTU63", "current_trial": 170, "dateTime": 1509048786347, "trialdata": {"rt": -1000, "stimulus": "/static/audio/wordpool/PIGMENT.wav", "key_press": -1, "type": "PRES_AUD", "word": "pigment", "wordID": 1065, "conditions": [24, 1600, "a", 24000], "trial": 4, "serialpos": 13, "trial_type": "single-audio", "trial_index": 170, "time_elapsed": 818737, "internal_node_id": "0.0-125.0"}}, {"uniqueid": "MTK0023:3D8YOU6S9FRFA1J79UT5U3I3RMTU63", "current_trial": 171, "dateTime": 1509048788883, "trialdata": {"rt": -1000, "stimulus": "/static/audio/wordpool/CLOTHES.wav", "key_press": -1, "type": "PRES_AUD", "word": "clothes", "wordID": 326, "conditions": [24, 1600, "a", 24000], "trial": 4, "serialpos": 14, "trial_type": "single-audio", "trial_index": 171, "time_elapsed": 821273, "internal_node_id": "0.0-126.0"}}, {"uniqueid": "MTK0023:3D8YOU6S9FRFA1J79UT5U3I3RMTU63", "current_trial": 172, "dateTime": 1509048791494, "trialdata": {"rt": -1000, "stimulus": "/static/audio/wordpool/PEACH.wav", "key_press": -1, "type": "PRES_AUD", "word": "peach", "wordID": 1030, "conditions": [24, 1600, "a", 24000], "trial": 4, "serialpos": 15, "trial_type": "single-audio", "trial_index": 172, "time_elapsed": 823884, "internal_node_id": "0.0-127.0"}}, {"uniqueid": "MTK0023:3D8YOU6S9FRFA1J79UT5U3I3RMTU63", "current_trial": 173, "dateTime": 1509048794261, "trialdata": {"rt": -1000, "stimulus": "/static/audio/wordpool/KITCHEN.wav", "key_press": -1, "type": "PRES_AUD", "word": "kitchen", "wordID": 777, "conditions": [24, 1600, "a", 24000], "trial": 4, "serialpos": 16, "trial_type": "single-audio", "trial_index": 173, "time_elapsed": 826651, "internal_node_id": "0.0-128.0"}}, {"uniqueid": "MTK0023:3D8YOU6S9FRFA1J79UT5U3I3RMTU63", "current_trial": 174, "dateTime": 1509048797021, "trialdata": {"rt": -1000, "stimulus": "/static/audio/wordpool/APPLE.wav", "key_press": -1, "type": "PRES_AUD", "word": "apple", "wordID": 32, "conditions": [24, 1600, "a", 24000], "trial": 4, "serialpos": 17, "trial_type": "single-audio", "trial_index": 174, "time_elapsed": 829411, "internal_node_id": "0.0-129.0"}}, {"uniqueid": "MTK0023:3D8YOU6S9FRFA1J79UT5U3I3RMTU63", "current_trial": 175, "dateTime": 1509048799427, "trialdata": {"rt": -1000, "stimulus": "/static/audio/wordpool/MARS.wav", "key_press": -1, "type": "PRES_AUD", "word": "mars", "wordID": 872, "conditions": [24, 1600, "a", 24000], "trial": 4, "serialpos": 18, "trial_type": "single-audio", "trial_index": 175, "time_elapsed": 831817, "internal_node_id": "0.0-130.0"}}, {"uniqueid": "MTK0023:3D8YOU6S9FRFA1J79UT5U3I3RMTU63", "current_trial": 176, "dateTime": 1509048802204, "trialdata": {"rt": -1000, "stimulus": "/static/audio/wordpool/TORTOISE.wav", "key_press": -1, "type": "PRES_AUD", "word": "tortoise", "wordID": 1485, "conditions": [24, 1600, "a", 24000], "trial": 4, "serialpos": 19, "trial_type": "single-audio", "trial_index": 176, "time_elapsed": 834594, "internal_node_id": "0.0-131.0"}}, {"uniqueid": "MTK0023:3D8YOU6S9FRFA1J79UT5U3I3RMTU63", "current_trial": 177, "dateTime": 1509048804800, "trialdata": {"rt": -1000, "stimulus": "/static/audio/wordpool/FOREHEAD.wav", "key_press": -1, "type": "PRES_AUD", "word": "forehead", "wordID": 591, "conditions": [24, 1600, "a", 24000], "trial": 4, "serialpos": 20, "trial_type": "single-audio", "trial_index": 177, "time_elapsed": 837190, "internal_node_id": "0.0-132.0"}}, {"uniqueid": "MTK0023:3D8YOU6S9FRFA1J79UT5U3I3RMTU63", "current_trial": 178, "dateTime": 1509048807440, "trialdata": {"rt": -1000, "stimulus": "/static/audio/wordpool/DRESS.wav", "key_press": -1, "type": "PRES_AUD", "word": "dress", "wordID": 494, "conditions": [24, 1600, "a", 24000], "trial": 4, "serialpos": 21, "trial_type": "single-audio", "trial_index": 178, "time_elapsed": 839830, "internal_node_id": "0.0-133.0"}}, {"uniqueid": "MTK0023:3D8YOU6S9FRFA1J79UT5U3I3RMTU63", "current_trial": 179, "dateTime": 1509048810117, "trialdata": {"rt": -1000, "stimulus": "/static/audio/wordpool/LILY.wav", "key_press": -1, "type": "PRES_AUD", "word": "lily", "wordID": 820, "conditions": [24, 1600, "a", 24000], "trial": 4, "serialpos": 22, "trial_type": "single-audio", "trial_index": 179, "time_elapsed": 842507, "internal_node_id": "0.0-134.0"}}, {"uniqueid": "MTK0023:3D8YOU6S9FRFA1J79UT5U3I3RMTU63", "current_trial": 180, "dateTime": 1509048812917, "trialdata": {"rt": -1000, "stimulus": "/static/audio/wordpool/ORCHID.wav", "key_press": -1, "type": "PRES_AUD", "word": "orchid", "wordID": 981, "conditions": [24, 1600, "a", 24000], "trial": 4, "serialpos": 23, "trial_type": "single-audio", "trial_index": 180, "time_elapsed": 845307, "internal_node_id": "0.0-135.0"}}, {"uniqueid": "MTK0023:3D8YOU6S9FRFA1J79UT5U3I3RMTU63", "current_trial": 181, "dateTime": 1509048814167, "trialdata": {"rt": -1, "stimulus": "", "key_press": -1, "type": "PRE_RECALL_DELAY", "trial_type": "single-stim", "trial_index": 181, "time_elapsed": 846557, "internal_node_id": "0.0-136.0-0.0"}}, {"uniqueid": "MTK0023:3D8YOU6S9FRFA1J79UT5U3I3RMTU63", "current_trial": 182, "dateTime": 1509048814673, "trialdata": {"rt": -1000, "stimulus": "/static/audio/400Hz.wav", "key_press": -1, "type": "PRE_RECALL_ALERT", "trial_type": "single-audio", "trial_index": 182, "time_elapsed": 847063, "internal_node_id": "0.0-137.0"}}, {"uniqueid": "MTK0023:3D8YOU6S9FRFA1J79UT5U3I3RMTU63", "current_trial": 183, "dateTime": 1509048874674, "trialdata": {"rt": [3651, 5240, 7560, 10896, 13597, 16714, 26467], "recwords": ["lily", "orchard", "window", "eyelash", "forehead", "swimmer", "whistle"], "type": "FREE_RECALL", "conditions": [24, 1600, "a", 24000], "trial": 4, "trial_type": "free-recall", "trial_index": 183, "time_elapsed": 907064, "internal_node_id": "0.0-138.0-0.0"}}, {"uniqueid": "MTK0023:3D8YOU6S9FRFA1J79UT5U3I3RMTU63", "current_trial": 184, "dateTime": 1509048878543, "trialdata": {"rt": 1867, "key_press": 38, "type": "INSTRUCTIONS", "trial_type": "text", "trial_index": 184, "time_elapsed": 910932, "internal_node_id": "0.0-139.0"}}, {"uniqueid": "MTK0023:3D8YOU6S9FRFA1J79UT5U3I3RMTU63", "current_trial": 185, "dateTime": 1509048892546, "trialdata": {"rt": [4172, 7236, 9731], "responses": ["14", "18", "20"], "num1": [2, 9, 2, 4], "num2": [7, 8, 9, 6], "num3": [5, 1, 9, 7], "type": "DISTRACTOR", "conditions": [12, 800, "v", 12000], "trial": 5, "trial_type": "math-distractor", "trial_index": 185, "time_elapsed": 924936, "internal_node_id": "0.0-140.0"}}, {"uniqueid": "MTK0023:3D8YOU6S9FRFA1J79UT5U3I3RMTU63", "current_trial": 186, "dateTime": 1509048895546, "trialdata": {"rt": -1, "stimulus": "<p id=\"stim\">10</p>", "key_press": -1, "trial_type": "single-stim", "trial_index": 186, "time_elapsed": 927936, "internal_node_id": "0.0-141.0-0.0"}}, {"uniqueid": "MTK0023:3D8YOU6S9FRFA1J79UT5U3I3RMTU63", "current_trial": 187, "dateTime": 1509048896547, "trialdata": {"rt": -1, "stimulus": "<p id=\"stim\">9</p>", "key_press": -1, "trial_type": "single-stim", "trial_index": 187, "time_elapsed": 928937, "internal_node_id": "0.0-141.0-1.0"}}, {"uniqueid": "MTK0023:3D8YOU6S9FRFA1J79UT5U3I3RMTU63", "current_trial": 188, "dateTime": 1509048897548, "trialdata": {"rt": -1, "stimulus": "<p id=\"stim\">8</p>", "key_press": -1, "trial_type": "single-stim", "trial_index": 188, "time_elapsed": 929938, "internal_node_id": "0.0-141.0-2.0"}}, {"uniqueid": "MTK0023:3D8YOU6S9FRFA1J79UT5U3I3RMTU63", "current_trial": 189, "dateTime": 1509048898549, "trialdata": {"rt": -1, "stimulus": "<p id=\"stim\">7</p>", "key_press": -1, "trial_type": "single-stim", "trial_index": 189, "time_elapsed": 930939, "internal_node_id": "0.0-141.0-3.0"}}, {"uniqueid": "MTK0023:3D8YOU6S9FRFA1J79UT5U3I3RMTU63", "current_trial": 190, "dateTime": 1509048899550, "trialdata": {"rt": -1, "stimulus": "<p id=\"stim\">6</p>", "key_press": -1, "trial_type": "single-stim", "trial_index": 190, "time_elapsed": 931940, "internal_node_id": "0.0-141.0-4.0"}}, {"uniqueid": "MTK0023:3D8YOU6S9FRFA1J79UT5U3I3RMTU63", "current_trial": 191, "dateTime": 1509048900551, "trialdata": {"rt": -1, "stimulus": "<p id=\"stim\">5</p>", "key_press": -1, "trial_type": "single-stim", "trial_index": 191, "time_elapsed": 932941, "internal_node_id": "0.0-141.0-5.0"}}, {"uniqueid": "MTK0023:3D8YOU6S9FRFA1J79UT5U3I3RMTU63", "current_trial": 192, "dateTime": 1509048901552, "trialdata": {"rt": -1, "stimulus": "<p id=\"stim\">4</p>", "key_press": -1, "trial_type": "single-stim", "trial_index": 192, "time_elapsed": 933942, "internal_node_id": "0.0-141.0-6.0"}}, {"uniqueid": "MTK0023:3D8YOU6S9FRFA1J79UT5U3I3RMTU63", "current_trial": 193, "dateTime": 1509048902554, "trialdata": {"rt": -1, "stimulus": "<p id=\"stim\">3</p>", "key_press": -1, "trial_type": "single-stim", "trial_index": 193, "time_elapsed": 934943, "internal_node_id": "0.0-141.0-7.0"}}, {"uniqueid": "MTK0023:3D8YOU6S9FRFA1J79UT5U3I3RMTU63", "current_trial": 194, "dateTime": 1509048903555, "trialdata": {"rt": -1, "stimulus": "<p id=\"stim\">2</p>", "key_press": -1, "trial_type": "single-stim", "trial_index": 194, "time_elapsed": 935944, "internal_node_id": "0.0-141.0-8.0"}}, {"uniqueid": "MTK0023:3D8YOU6S9FRFA1J79UT5U3I3RMTU63", "current_trial": 195, "dateTime": 1509048904556, "trialdata": {"rt": -1, "stimulus": "<p id=\"stim\">1</p>", "key_press": -1, "trial_type": "single-stim", "trial_index": 195, "time_elapsed": 936945, "internal_node_id": "0.0-141.0-9.0"}}, {"uniqueid": "MTK0023:3D8YOU6S9FRFA1J79UT5U3I3RMTU63", "current_trial": 196, "dateTime": 1509048906057, "trialdata": {"rt": -1, "stimulus": "<p id=\"stim\">+</p>", "key_press": -1, "type": "FIXATION", "trial_type": "single-stim", "trial_index": 196, "time_elapsed": 938446, "internal_node_id": "0.0-142.0-0.0"}}, {"uniqueid": "MTK0023:3D8YOU6S9FRFA1J79UT5U3I3RMTU63", "current_trial": 197, "dateTime": 1509048906857, "trialdata": {"rt": -1, "stimulus": "<p id=\"stim\">BACON</p>", "key_press": -1, "type": "PRES_VIS", "word": "bacon", "wordID": 66, "conditions": [12, 800, "v", 12000], "trial": 5, "serialpos": 0, "trial_type": "single-stim", "trial_index": 197, "time_elapsed": 939247, "internal_node_id": "0.0-143.0"}}, {"uniqueid": "MTK0023:3D8YOU6S9FRFA1J79UT5U3I3RMTU63", "current_trial": 198, "dateTime": 1509048908640, "trialdata": {"rt": -1, "stimulus": "<p id=\"stim\">LUMBER</p>", "key_press": -1, "type": "PRES_VIS", "word": "lumber", "wordID": 847, "conditions": [12, 800, "v", 12000], "trial": 5, "serialpos": 1, "trial_type": "single-stim", "trial_index": 198, "time_elapsed": 941030, "internal_node_id": "0.0-144.0"}}, {"uniqueid": "MTK0023:3D8YOU6S9FRFA1J79UT5U3I3RMTU63", "current_trial": 199, "dateTime": 1509048910246, "trialdata": {"rt": -1, "stimulus": "<p id=\"stim\">ISLAND</p>", "key_press": -1, "type": "PRES_VIS", "word": "island", "wordID": 744, "conditions": [12, 800, "v", 12000], "trial": 5, "serialpos": 2, "trial_type": "single-stim", "trial_index": 199, "time_elapsed": 942635, "internal_node_id": "0.0-145.0"}}, {"uniqueid": "MTK0023:3D8YOU6S9FRFA1J79UT5U3I3RMTU63", "current_trial": 200, "dateTime": 1509048912226, "trialdata": {"rt": -1, "stimulus": "<p id=\"stim\">TEMPLE</p>", "key_press": -1, "type": "PRES_VIS", "word": "temple", "wordID": 1447, "conditions": [12, 800, "v", 12000], "trial": 5, "serialpos": 3, "trial_type": "single-stim", "trial_index": 200, "time_elapsed": 944615, "internal_node_id": "0.0-146.0"}}, {"uniqueid": "MTK0023:3D8YOU6S9FRFA1J79UT5U3I3RMTU63", "current_trial": 201, "dateTime": 1509048913991, "trialdata": {"rt": -1, "stimulus": "<p id=\"stim\">FRECKLE</p>", "key_press": -1, "type": "PRES_VIS", "word": "freckle", "wordID": 601, "conditions": [12, 800, "v", 12000], "trial": 5, "serialpos": 4, "trial_type": "single-stim", "trial_index": 201, "time_elapsed": 946381, "internal_node_id": "0.0-147.0"}}, {"uniqueid": "MTK0023:3D8YOU6S9FRFA1J79UT5U3I3RMTU63", "current_trial": 202, "dateTime": 1509048915799, "trialdata": {"rt": -1, "stimulus": "<p id=\"stim\">CLAM</p>", "key_press": -1, "type": "PRES_VIS", "word": "clam", "wordID": 314, "conditions": [12, 800, "v", 12000], "trial": 5, "serialpos": 5, "trial_type": "single-stim", "trial_index": 202, "time_elapsed": 948188, "internal_node_id": "0.0-148.0"}}, {"uniqueid": "MTK0023:3D8YOU6S9FRFA1J79UT5U3I3RMTU63", "current_trial": 203, "dateTime": 1509048917722, "trialdata": {"rt": -1, "stimulus": "<p id=\"stim\">MARROW</p>", "key_press": -1, "type": "PRES_VIS", "word": "marrow", "wordID": 871, "conditions": [12, 800, "v", 12000], "trial": 5, "serialpos": 6, "trial_type": "single-stim", "trial_index": 203, "time_elapsed": 950111, "internal_node_id": "0.0-149.0"}}, {"uniqueid": "MTK0023:3D8YOU6S9FRFA1J79UT5U3I3RMTU63", "current_trial": 204, "dateTime": 1509048919612, "trialdata": {"rt": -1, "stimulus": "<p id=\"stim\">SPOOL</p>", "key_press": -1, "type": "PRES_VIS", "word": "spool", "wordID": 1355, "conditions": [12, 800, "v", 12000], "trial": 5, "serialpos": 7, "trial_type": "single-stim", "trial_index": 204, "time_elapsed": 952001, "internal_node_id": "0.0-150.0"}}, {"uniqueid": "MTK0023:3D8YOU6S9FRFA1J79UT5U3I3RMTU63", "current_trial": 205, "dateTime": 1509048921599, "trialdata": {"rt": -1, "stimulus": "<p id=\"stim\">MAPLE</p>", "key_press": -1, "type": "PRES_VIS", "word": "maple", "wordID": 865, "conditions": [12, 800, "v", 12000], "trial": 5, "serialpos": 8, "trial_type": "single-stim", "trial_index": 205, "time_elapsed": 953989, "internal_node_id": "0.0-151.0"}}, {"uniqueid": "MTK0023:3D8YOU6S9FRFA1J79UT5U3I3RMTU63", "current_trial": 206, "dateTime": 1509048923305, "trialdata": {"rt": -1, "stimulus": "<p id=\"stim\">PIMPLE</p>", "key_press": -1, "type": "PRES_VIS", "word": "pimple", "wordID": 1070, "conditions": [12, 800, "v", 12000], "trial": 5, "serialpos": 9, "trial_type": "single-stim", "trial_index": 206, "time_elapsed": 955694, "internal_node_id": "0.0-152.0"}}, {"uniqueid": "MTK0023:3D8YOU6S9FRFA1J79UT5U3I3RMTU63", "current_trial": 207, "dateTime": 1509048925240, "trialdata": {"rt": -1, "stimulus": "<p id=\"stim\">WAGON</p>", "key_press": -1, "type": "PRES_VIS", "word": "wagon", "wordID": 1577, "conditions": [12, 800, "v", 12000], "trial": 5, "serialpos": 10, "trial_type": "single-stim", "trial_index": 207, "time_elapsed": 957630, "internal_node_id": "0.0-153.0"}}, {"uniqueid": "MTK0023:3D8YOU6S9FRFA1J79UT5U3I3RMTU63", "current_trial": 208, "dateTime": 1509048927102, "trialdata": {"rt": -1, "stimulus": "<p id=\"stim\">TRUCK</p>", "key_press": -1, "type": "PRES_VIS", "word": "truck", "wordID": 1511, "conditions": [12, 800, "v", 12000], "trial": 5, "serialpos": 11, "trial_type": "single-stim", "trial_index": 208, "time_elapsed": 959491, "internal_node_id": "0.0-154.0"}}, {"uniqueid": "MTK0023:3D8YOU6S9FRFA1J79UT5U3I3RMTU63", "current_trial": 209, "dateTime": 1509048929202, "trialdata": {"rt": -1, "stimulus": "", "key_press": -1, "type": "PRE_RECALL_DELAY", "trial_type": "single-stim", "trial_index": 209, "time_elapsed": 961591, "internal_node_id": "0.0-155.0-0.0"}}, {"uniqueid": "MTK0023:3D8YOU6S9FRFA1J79UT5U3I3RMTU63", "current_trial": 210, "dateTime": 1509048929707, "trialdata": {"rt": -1000, "stimulus": "/static/audio/400Hz.wav", "key_press": -1, "type": "PRE_RECALL_ALERT", "trial_type": "single-audio", "trial_index": 210, "time_elapsed": 962097, "internal_node_id": "0.0-156.0"}}, {"uniqueid": "MTK0023:3D8YOU6S9FRFA1J79UT5U3I3RMTU63", "current_trial": 211, "dateTime": 1509048989708, "trialdata": {"rt": [3945, 5681, 7041, 10921, 13734, 19233, 21214], "recwords": ["bacon", "clam", "truck", "forehead", "freckle", "island", "wood"], "type": "FREE_RECALL", "conditions": [12, 800, "v", 12000], "trial": 5, "trial_type": "free-recall", "trial_index": 211, "time_elapsed": 1022098, "internal_node_id": "0.0-157.0-0.0"}}, {"uniqueid": "MTK0023:3D8YOU6S9FRFA1J79UT5U3I3RMTU63", "current_trial": 212, "dateTime": 1509048992902, "trialdata": {"rt": 1192, "key_press": 38, "type": "INSTRUCTIONS", "trial_type": "text", "trial_index": 212, "time_elapsed": 1025292, "internal_node_id": "0.0-158.0"}}, {"uniqueid": "MTK0023:3D8YOU6S9FRFA1J79UT5U3I3RMTU63", "current_trial": 213, "dateTime": 1509049018905, "trialdata": {"rt": [2980, 6100, 8733, 12477, 18630, 21516], "responses": ["11", "12", "17", "12", "16", "11"], "num1": [2, 2, 9, 3, 2, 8, 9], "num2": [7, 1, 4, 2, 5, 1, 1], "num3": [2, 9, 4, 7, 9, 2, 2], "type": "DISTRACTOR", "conditions": [12, 800, "a", 24000], "trial": 6, "trial_type": "math-distractor", "trial_index": 213, "time_elapsed": 1051295, "internal_node_id": "0.0-159.0"}}, {"uniqueid": "MTK0023:3D8YOU6S9FRFA1J79UT5U3I3RMTU63", "current_trial": 214, "dateTime": 1509049021905, "trialdata": {"rt": -1, "stimulus": "<p id=\"stim\">10</p>", "key_press": -1, "trial_type": "single-stim", "trial_index": 214, "time_elapsed": 1054295, "internal_node_id": "0.0-160.0-0.0"}}, {"uniqueid": "MTK0023:3D8YOU6S9FRFA1J79UT5U3I3RMTU63", "current_trial": 215, "dateTime": 1509049022907, "trialdata": {"rt": -1, "stimulus": "<p id=\"stim\">9</p>", "key_press": -1, "trial_type": "single-stim", "trial_index": 215, "time_elapsed": 1055296, "internal_node_id": "0.0-160.0-1.0"}}, {"uniqueid": "MTK0023:3D8YOU6S9FRFA1J79UT5U3I3RMTU63", "current_trial": 216, "dateTime": 1509049023908, "trialdata": {"rt": -1, "stimulus": "<p id=\"stim\">8</p>", "key_press": -1, "trial_type": "single-stim", "trial_index": 216, "time_elapsed": 1056297, "internal_node_id": "0.0-160.0-2.0"}}, {"uniqueid": "MTK0023:3D8YOU6S9FRFA1J79UT5U3I3RMTU63", "current_trial": 217, "dateTime": 1509049024908, "trialdata": {"rt": -1, "stimulus": "<p id=\"stim\">7</p>", "key_press": -1, "trial_type": "single-stim", "trial_index": 217, "time_elapsed": 1057298, "internal_node_id": "0.0-160.0-3.0"}}, {"uniqueid": "MTK0023:3D8YOU6S9FRFA1J79UT5U3I3RMTU63", "current_trial": 218, "dateTime": 1509049025909, "trialdata": {"rt": -1, "stimulus": "<p id=\"stim\">6</p>", "key_press": -1, "trial_type": "single-stim", "trial_index": 218, "time_elapsed": 1058299, "internal_node_id": "0.0-160.0-4.0"}}, {"uniqueid": "MTK0023:3D8YOU6S9FRFA1J79UT5U3I3RMTU63", "current_trial": 219, "dateTime": 1509049026911, "trialdata": {"rt": -1, "stimulus": "<p id=\"stim\">5</p>", "key_press": -1, "trial_type": "single-stim", "trial_index": 219, "time_elapsed": 1059300, "internal_node_id": "0.0-160.0-5.0"}}, {"uniqueid": "MTK0023:3D8YOU6S9FRFA1J79UT5U3I3RMTU63", "current_trial": 220, "dateTime": 1509049027912, "trialdata": {"rt": -1, "stimulus": "<p id=\"stim\">4</p>", "key_press": -1, "trial_type": "single-stim", "trial_index": 220, "time_elapsed": 1060301, "internal_node_id": "0.0-160.0-6.0"}}, {"uniqueid": "MTK0023:3D8YOU6S9FRFA1J79UT5U3I3RMTU63", "current_trial": 221, "dateTime": 1509049028913, "trialdata": {"rt": -1, "stimulus": "<p id=\"stim\">3</p>", "key_press": -1, "trial_type": "single-stim", "trial_index": 221, "time_elapsed": 1061302, "internal_node_id": "0.0-160.0-7.0"}}, {"uniqueid": "MTK0023:3D8YOU6S9FRFA1J79UT5U3I3RMTU63", "current_trial": 222, "dateTime": 1509049029914, "trialdata": {"rt": -1, "stimulus": "<p id=\"stim\">2</p>", "key_press": -1, "trial_type": "single-stim", "trial_index": 222, "time_elapsed": 1062303, "internal_node_id": "0.0-160.0-8.0"}}, {"uniqueid": "MTK0023:3D8YOU6S9FRFA1J79UT5U3I3RMTU63", "current_trial": 223, "dateTime": 1509049030915, "trialdata": {"rt": -1, "stimulus": "<p id=\"stim\">1</p>", "key_press": -1, "trial_type": "single-stim", "trial_index": 223, "time_elapsed": 1063304, "internal_node_id": "0.0-160.0-9.0"}}, {"uniqueid": "MTK0023:3D8YOU6S9FRFA1J79UT5U3I3RMTU63", "current_trial": 224, "dateTime": 1509049032417, "trialdata": {"rt": -1, "stimulus": "<p id=\"stim\">+</p>", "key_press": -1, "type": "FIXATION", "trial_type": "single-stim", "trial_index": 224, "time_elapsed": 1064806, "internal_node_id": "0.0-161.0-0.0"}}, {"uniqueid": "MTK0023:3D8YOU6S9FRFA1J79UT5U3I3RMTU63", "current_trial": 225, "dateTime": 1509049034116, "trialdata": {"rt": -1000, "stimulus": "/static/audio/wordpool/STAMP.wav", "key_press": -1, "type": "PRES_AUD", "word": "stamp", "wordID": 1369, "conditions": [12, 800, "a", 24000], "trial": 6, "serialpos": 0, "trial_type": "single-audio", "trial_index": 225, "time_elapsed": 1066506, "internal_node_id": "0.0-162.0"}}, {"uniqueid": "MTK0023:3D8YOU6S9FRFA1J79UT5U3I3RMTU63", "current_trial": 226, "dateTime": 1509049036057, "trialdata": {"rt": -1000, "stimulus": "/static/audio/wordpool/MUMMY.wav", "key_press": -1, "type": "PRES_AUD", "word": "mummy", "wordID": 931, "conditions": [12, 800, "a", 24000], "trial": 6, "serialpos": 1, "trial_type": "single-audio", "trial_index": 226, "time_elapsed": 1068447, "internal_node_id": "0.0-163.0"}}, {"uniqueid": "MTK0023:3D8YOU6S9FRFA1J79UT5U3I3RMTU63", "current_trial": 227, "dateTime": 1509049037712, "trialdata": {"rt": -1000, "stimulus": "/static/audio/wordpool/CREATURE.wav", "key_press": -1, "type": "PRES_AUD", "word": "creature", "wordID": 402, "conditions": [12, 800, "a", 24000], "trial": 6, "serialpos": 2, "trial_type": "single-audio", "trial_index": 227, "time_elapsed": 1070102, "internal_node_id": "0.0-164.0"}}, {"uniqueid": "MTK0023:3D8YOU6S9FRFA1J79UT5U3I3RMTU63", "current_trial": 228, "dateTime": 1509049039502, "trialdata": {"rt": -1000, "stimulus": "/static/audio/wordpool/HEADBAND.wav", "key_press": -1, "type": "PRES_AUD", "word": "headband", "wordID": 695, "conditions": [12, 800, "a", 24000], "trial": 6, "serialpos": 3, "trial_type": "single-audio", "trial_index": 228, "time_elapsed": 1071892, "internal_node_id": "0.0-165.0"}}, {"uniqueid": "MTK0023:3D8YOU6S9FRFA1J79UT5U3I3RMTU63", "current_trial": 229, "dateTime": 1509049041479, "trialdata": {"rt": -1000, "stimulus": "/static/audio/wordpool/NOMAD.wav", "key_press": -1, "type": "PRES_AUD", "word": "nomad", "wordID": 954, "conditions": [12, 800, "a", 24000], "trial": 6, "serialpos": 4, "trial_type": "single-audio", "trial_index": 229, "time_elapsed": 1073869, "internal_node_id": "0.0-166.0"}}, {"uniqueid": "MTK0023:3D8YOU6S9FRFA1J79UT5U3I3RMTU63", "current_trial": 230, "dateTime": 1509049043408, "trialdata": {"rt": -1000, "stimulus": "/static/audio/wordpool/MONSTER.wav", "key_press": -1, "type": "PRES_AUD", "word": "monster", "wordID": 911, "conditions": [12, 800, "a", 24000], "trial": 6, "serialpos": 5, "trial_type": "single-audio", "trial_index": 230, "time_elapsed": 1075798, "internal_node_id": "0.0-167.0"}}, {"uniqueid": "MTK0023:3D8YOU6S9FRFA1J79UT5U3I3RMTU63", "current_trial": 231, "dateTime": 1509049045378, "trialdata": {"rt": -1000, "stimulus": "/static/audio/wordpool/SISTER.wav", "key_press": -1, "type": "PRES_AUD", "word": "sister", "wordID": 1311, "conditions": [12, 800, "a", 24000], "trial": 6, "serialpos": 6, "trial_type": "single-audio", "trial_index": 231, "time_elapsed": 1077768, "internal_node_id": "0.0-168.0"}}, {"uniqueid": "MTK0023:3D8YOU6S9FRFA1J79UT5U3I3RMTU63", "current_trial": 232, "dateTime": 1509049047025, "trialdata": {"rt": -1000, "stimulus": "/static/audio/wordpool/SIBLING.wav", "key_press": -1, "type": "PRES_AUD", "word": "sibling", "wordID": 1300, "conditions": [12, 800, "a", 24000], "trial": 6, "serialpos": 7, "trial_type": "single-audio", "trial_index": 232, "time_elapsed": 1079415, "internal_node_id": "0.0-169.0"}}, {"uniqueid": "MTK0023:3D8YOU6S9FRFA1J79UT5U3I3RMTU63", "current_trial": 233, "dateTime": 1509049048915, "trialdata": {"rt": -1000, "stimulus": "/static/audio/wordpool/FILM.wav", "key_press": -1, "type": "PRES_AUD", "word": "film", "wordID": 564, "conditions": [12, 800, "a", 24000], "trial": 6, "serialpos": 8, "trial_type": "single-audio", "trial_index": 233, "time_elapsed": 1081305, "internal_node_id": "0.0-170.0"}}, {"uniqueid": "MTK0023:3D8YOU6S9FRFA1J79UT5U3I3RMTU63", "current_trial": 234, "dateTime": 1509049050695, "trialdata": {"rt": -1000, "stimulus": "/static/audio/wordpool/COUNTY.wav", "key_press": -1, "type": "PRES_AUD", "word": "county", "wordID": 388, "conditions": [12, 800, "a", 24000], "trial": 6, "serialpos": 9, "trial_type": "single-audio", "trial_index": 234, "time_elapsed": 1083085, "internal_node_id": "0.0-171.0"}}, {"uniqueid": "MTK0023:3D8YOU6S9FRFA1J79UT5U3I3RMTU63", "current_trial": 235, "dateTime": 1509049052374, "trialdata": {"rt": -1000, "stimulus": "/static/audio/wordpool/WASHER.wav", "key_press": -1, "type": "PRES_AUD", "word": "washer", "wordID": 1591, "conditions": [12, 800, "a", 24000], "trial": 6, "serialpos": 10, "trial_type": "single-audio", "trial_index": 235, "time_elapsed": 1084764, "internal_node_id": "0.0-172.0"}}, {"uniqueid": "MTK0023:3D8YOU6S9FRFA1J79UT5U3I3RMTU63", "current_trial": 236, "dateTime": 1509049054314, "trialdata": {"rt": -1000, "stimulus": "/static/audio/wordpool/PEPPER.wav", "key_press": -1, "type": "PRES_AUD", "word": "pepper", "wordID": 1046, "conditions": [12, 800, "a", 24000], "trial": 6, "serialpos": 11, "trial_type": "single-audio", "trial_index": 236, "time_elapsed": 1086704, "internal_node_id": "0.0-173.0"}}, {"uniqueid": "MTK0023:3D8YOU6S9FRFA1J79UT5U3I3RMTU63", "current_trial": 237, "dateTime": 1509049055678, "trialdata": {"rt": -1, "stimulus": "", "key_press": -1, "type": "PRE_RECALL_DELAY", "trial_type": "single-stim", "trial_index": 237, "time_elapsed": 1088068, "internal_node_id": "0.0-174.0-0.0"}}, {"uniqueid": "MTK0023:3D8YOU6S9FRFA1J79UT5U3I3RMTU63", "current_trial": 238, "dateTime": 1509049056178, "trialdata": {"rt": -1000, "stimulus": "/static/audio/400Hz.wav", "key_press": -1, "type": "PRE_RECALL_ALERT", "trial_type": "single-audio", "trial_index": 238, "time_elapsed": 1088568, "internal_node_id": "0.0-175.0"}}, {"uniqueid": "MTK0023:3D8YOU6S9FRFA1J79UT5U3I3RMTU63", "current_trial": 239, "dateTime": 1509049116179, "trialdata": {"rt": [2142, 4283, 7761, 10879, 14482, 19418, 41187], "recwords": ["sister", "sibling", "monster", "film", "creature", "pebble", "sibling"], "type": "FREE_RECALL", "conditions": [12, 800, "a", 24000], "trial": 6, "trial_type": "free-recall", "trial_index": 239, "time_elapsed": 1148569, "internal_node_id": "0.0-176.0-0.0"}}, {"uniqueid": "MTK0023:3D8YOU6S9FRFA1J79UT5U3I3RMTU63", "current_trial": 240, "dateTime": 1509049119294, "trialdata": {"rt": 1115, "key_press": 38, "type": "INSTRUCTIONS", "trial_type": "text", "trial_index": 240, "time_elapsed": 1151684, "internal_node_id": "0.0-177.0"}}, {"uniqueid": "MTK0023:3D8YOU6S9FRFA1J79UT5U3I3RMTU63", "current_trial": 241, "dateTime": 1509049145298, "trialdata": {"rt": [4403, 7235, 9924, 15532, 19372, 22323], "responses": ["16", "19", "14", "13", "14", "13"], "num1": [6, 6, 3, 5, 3, 4, 5], "num2": [6, 5, 2, 7, 5, 6, 8], "num3": [4, 8, 9, 1, 6, 3, 3], "type": "DISTRACTOR", "conditions": [24, 800, "a", 24000], "trial": 7, "trial_type": "math-distractor", "trial_index": 241, "time_elapsed": 1177688, "internal_node_id": "0.0-178.0"}}, {"uniqueid": "MTK0023:3D8YOU6S9FRFA1J79UT5U3I3RMTU63", "current_trial": 242, "dateTime": 1509049148298, "trialdata": {"rt": -1, "stimulus": "<p id=\"stim\">10</p>", "key_press": -1, "trial_type": "single-stim", "trial_index": 242, "time_elapsed": 1180688, "internal_node_id": "0.0-179.0-0.0"}}, {"uniqueid": "MTK0023:3D8YOU6S9FRFA1J79UT5U3I3RMTU63", "current_trial": 243, "dateTime": 1509049149300, "trialdata": {"rt": -1, "stimulus": "<p id=\"stim\">9</p>", "key_press": -1, "trial_type": "single-stim", "trial_index": 243, "time_elapsed": 1181689, "internal_node_id": "0.0-179.0-1.0"}}, {"uniqueid": "MTK0023:3D8YOU6S9FRFA1J79UT5U3I3RMTU63", "current_trial": 244, "dateTime": 1509049150301, "trialdata": {"rt": -1, "stimulus": "<p id=\"stim\">8</p>", "key_press": -1, "trial_type": "single-stim", "trial_index": 244, "time_elapsed": 1182690, "internal_node_id": "0.0-179.0-2.0"}}, {"uniqueid": "MTK0023:3D8YOU6S9FRFA1J79UT5U3I3RMTU63", "current_trial": 245, "dateTime": 1509049151302, "trialdata": {"rt": -1, "stimulus": "<p id=\"stim\">7</p>", "key_press": -1, "trial_type": "single-stim", "trial_index": 245, "time_elapsed": 1183691, "internal_node_id": "0.0-179.0-3.0"}}, {"uniqueid": "MTK0023:3D8YOU6S9FRFA1J79UT5U3I3RMTU63", "current_trial": 246, "dateTime": 1509049152302, "trialdata": {"rt": -1, "stimulus": "<p id=\"stim\">6</p>", "key_press": -1, "trial_type": "single-stim", "trial_index": 246, "time_elapsed": 1184692, "internal_node_id": "0.0-179.0-4.0"}}, {"uniqueid": "MTK0023:3D8YOU6S9FRFA1J79UT5U3I3RMTU63", "current_trial": 247, "dateTime": 1509049153303, "trialdata": {"rt": -1, "stimulus": "<p id=\"stim\">5</p>", "key_press": -1, "trial_type": "single-stim", "trial_index": 247, "time_elapsed": 1185693, "internal_node_id": "0.0-179.0-5.0"}}, {"uniqueid": "MTK0023:3D8YOU6S9FRFA1J79UT5U3I3RMTU63", "current_trial": 248, "dateTime": 1509049154306, "trialdata": {"rt": -1, "stimulus": "<p id=\"stim\">4</p>", "key_press": -1, "trial_type": "single-stim", "trial_index": 248, "time_elapsed": 1186695, "internal_node_id": "0.0-179.0-6.0"}}, {"uniqueid": "MTK0023:3D8YOU6S9FRFA1J79UT5U3I3RMTU63", "current_trial": 249, "dateTime": 1509049155307, "trialdata": {"rt": -1, "stimulus": "<p id=\"stim\">3</p>", "key_press": -1, "trial_type": "single-stim", "trial_index": 249, "time_elapsed": 1187696, "internal_node_id": "0.0-179.0-7.0"}}, {"uniqueid": "MTK0023:3D8YOU6S9FRFA1J79UT5U3I3RMTU63", "current_trial": 250, "dateTime": 1509049156308, "trialdata": {"rt": -1, "stimulus": "<p id=\"stim\">2</p>", "key_press": -1, "trial_type": "single-stim", "trial_index": 250, "time_elapsed": 1188697, "internal_node_id": "0.0-179.0-8.0"}}, {"uniqueid": "MTK0023:3D8YOU6S9FRFA1J79UT5U3I3RMTU63", "current_trial": 251, "dateTime": 1509049157309, "trialdata": {"rt": -1, "stimulus": "<p id=\"stim\">1</p>", "key_press": -1, "trial_type": "single-stim", "trial_index": 251, "time_elapsed": 1189698, "internal_node_id": "0.0-179.0-9.0"}}, {"uniqueid": "MTK0023:3D8YOU6S9FRFA1J79UT5U3I3RMTU63", "current_trial": 252, "dateTime": 1509049158810, "trialdata": {"rt": -1, "stimulus": "<p id=\"stim\">+</p>", "key_press": -1, "type": "FIXATION", "trial_type": "single-stim", "trial_index": 252, "time_elapsed": 1191199, "internal_node_id": "0.0-180.0-0.0"}}, {"uniqueid": "MTK0023:3D8YOU6S9FRFA1J79UT5U3I3RMTU63", "current_trial": 253, "dateTime": 1509049160690, "trialdata": {"rt": -1000, "stimulus": "/static/audio/wordpool/BOYFRIEND.wav", "key_press": -1, "type": "PRES_AUD", "word": "boyfriend", "wordID": 161, "conditions": [24, 800, "a", 24000], "trial": 7, "serialpos": 0, "trial_type": "single-audio", "trial_index": 253, "time_elapsed": 1193080, "internal_node_id": "0.0-181.0"}}, {"uniqueid": "MTK0023:3D8YOU6S9FRFA1J79UT5U3I3RMTU63", "current_trial": 254, "dateTime": 1509049162441, "trialdata": {"rt": -1000, "stimulus": "/static/audio/wordpool/GARBAGE.wav", "key_press": -1, "type": "PRES_AUD", "word": "garbage", "wordID": 621, "conditions": [24, 800, "a", 24000], "trial": 7, "serialpos": 1, "trial_type": "single-audio", "trial_index": 254, "time_elapsed": 1194831, "internal_node_id": "0.0-182.0"}}, {"uniqueid": "MTK0023:3D8YOU6S9FRFA1J79UT5U3I3RMTU63", "current_trial": 255, "dateTime": 1509049164260, "trialdata": {"rt": -1000, "stimulus": "/static/audio/wordpool/CAMEL.wav", "key_press": -1, "type": "PRES_AUD", "word": "camel", "wordID": 222, "conditions": [24, 800, "a", 24000], "trial": 7, "serialpos": 2, "trial_type": "single-audio", "trial_index": 255, "time_elapsed": 1196650, "internal_node_id": "0.0-183.0"}}, {"uniqueid": "MTK0023:3D8YOU6S9FRFA1J79UT5U3I3RMTU63", "current_trial": 256, "dateTime": 1509049165870, "trialdata": {"rt": -1000, "stimulus": "/static/audio/wordpool/DONKEY.wav", "key_press": -1, "type": "PRES_AUD", "word": "donkey", "wordID": 483, "conditions": [24, 800, "a", 24000], "trial": 7, "serialpos": 3, "trial_type": "single-audio", "trial_index": 256, "time_elapsed": 1198260, "internal_node_id": "0.0-184.0"}}, {"uniqueid": "MTK0023:3D8YOU6S9FRFA1J79UT5U3I3RMTU63", "current_trial": 257, "dateTime": 1509049167737, "trialdata": {"rt": -1000, "stimulus": "/static/audio/wordpool/FIREMAN.wav", "key_press": -1, "type": "PRES_AUD", "word": "fireman", "wordID": 568, "conditions": [24, 800, "a", 24000], "trial": 7, "serialpos": 4, "trial_type": "single-audio", "trial_index": 257, "time_elapsed": 1200127, "internal_node_id": "0.0-185.0"}}, {"uniqueid": "MTK0023:3D8YOU6S9FRFA1J79UT5U3I3RMTU63", "current_trial": 258, "dateTime": 1509049169450, "trialdata": {"rt": -1000, "stimulus": "/static/audio/wordpool/RELISH.wav", "key_press": -1, "type": "PRES_AUD", "word": "relish", "wordID": 1182, "conditions": [24, 800, "a", 24000], "trial": 7, "serialpos": 5, "trial_type": "single-audio", "trial_index": 258, "time_elapsed": 1201840, "internal_node_id": "0.0-186.0"}}, {"uniqueid": "MTK0023:3D8YOU6S9FRFA1J79UT5U3I3RMTU63", "current_trial": 259, "dateTime": 1509049171133, "trialdata": {"rt": -1000, "stimulus": "/static/audio/wordpool/BANJO.wav", "key_press": -1, "type": "PRES_AUD", "word": "banjo", "wordID": 81, "conditions": [24, 800, "a", 24000], "trial": 7, "serialpos": 6, "trial_type": "single-audio", "trial_index": 259, "time_elapsed": 1203523, "internal_node_id": "0.0-187.0"}}, {"uniqueid": "MTK0023:3D8YOU6S9FRFA1J79UT5U3I3RMTU63", "current_trial": 260, "dateTime": 1509049172833, "trialdata": {"rt": -1000, "stimulus": "/static/audio/wordpool/GOBLIN.wav", "key_press": -1, "type": "PRES_AUD", "word": "goblin", "wordID": 644, "conditions": [24, 800, "a", 24000], "trial": 7, "serialpos": 7, "trial_type": "single-audio", "trial_index": 260, "time_elapsed": 1205223, "internal_node_id": "0.0-188.0"}}, {"uniqueid": "MTK0023:3D8YOU6S9FRFA1J79UT5U3I3RMTU63", "current_trial": 261, "dateTime": 1509049174553, "trialdata": {"rt": -1000, "stimulus": "/static/audio/wordpool/SNAKE.wav", "key_press": -1, "type": "PRES_AUD", "word": "snake", "wordID": 1332, "conditions": [24, 800, "a", 24000], "trial": 7, "serialpos": 8, "trial_type": "single-audio", "trial_index": 261, "time_elapsed": 1206943, "internal_node_id": "0.0-189.0"}}, {"uniqueid": "MTK0023:3D8YOU6S9FRFA1J79UT5U3I3RMTU63", "current_trial": 262, "dateTime": 1509049176453, "trialdata": {"rt": -1000, "stimulus": "/static/audio/wordpool/MUFFIN.wav", "key_press": -1, "type": "PRES_AUD", "word": "muffin", "wordID": 928, "conditions": [24, 800, "a", 24000], "trial": 7, "serialpos": 9, "trial_type": "single-audio", "trial_index": 262, "time_elapsed": 1208843, "internal_node_id": "0.0-190.0"}}, {"uniqueid": "MTK0023:3D8YOU6S9FRFA1J79UT5U3I3RMTU63", "current_trial": 263, "dateTime": 1509049178413, "trialdata": {"rt": -1000, "stimulus": "/static/audio/wordpool/TROMBONE.wav", "key_press": -1, "type": "PRES_AUD", "word": "trombone", "wordID": 1507, "conditions": [24, 800, "a", 24000], "trial": 7, "serialpos": 10, "trial_type": "single-audio", "trial_index": 263, "time_elapsed": 1210803, "internal_node_id": "0.0-191.0"}}, {"uniqueid": "MTK0023:3D8YOU6S9FRFA1J79UT5U3I3RMTU63", "current_trial": 264, "dateTime": 1509049180130, "trialdata": {"rt": -1000, "stimulus": "/static/audio/wordpool/PATROL.wav", "key_press": -1, "type": "PRES_AUD", "word": "patrol", "wordID": 1026, "conditions": [24, 800, "a", 24000], "trial": 7, "serialpos": 11, "trial_type": "single-audio", "trial_index": 264, "time_elapsed": 1212520, "internal_node_id": "0.0-192.0"}}, {"uniqueid": "MTK0023:3D8YOU6S9FRFA1J79UT5U3I3RMTU63", "current_trial": 265, "dateTime": 1509049182056, "trialdata": {"rt": -1000, "stimulus": "/static/audio/wordpool/PANTHER.wav", "key_press": -1, "type": "PRES_AUD", "word": "panther", "wordID": 1008, "conditions": [24, 800, "a", 24000], "trial": 7, "serialpos": 12, "trial_type": "single-audio", "trial_index": 265, "time_elapsed": 1214446, "internal_node_id": "0.0-193.0"}}, {"uniqueid": "MTK0023:3D8YOU6S9FRFA1J79UT5U3I3RMTU63", "current_trial": 266, "dateTime": 1509049183776, "trialdata": {"rt": -1000, "stimulus": "/static/audio/wordpool/BATHTUB.wav", "key_press": -1, "type": "PRES_AUD", "word": "bathtub", "wordID": 99, "conditions": [24, 800, "a", 24000], "trial": 7, "serialpos": 13, "trial_type": "single-audio", "trial_index": 266, "time_elapsed": 1216166, "internal_node_id": "0.0-194.0"}}, {"uniqueid": "MTK0023:3D8YOU6S9FRFA1J79UT5U3I3RMTU63", "current_trial": 267, "dateTime": 1509049185413, "trialdata": {"rt": -1000, "stimulus": "/static/audio/wordpool/HARP.wav", "key_press": -1, "type": "PRES_AUD", "word": "harp", "wordID": 688, "conditions": [24, 800, "a", 24000], "trial": 7, "serialpos": 14, "trial_type": "single-audio", "trial_index": 267, "time_elapsed": 1217803, "internal_node_id": "0.0-195.0"}}, {"uniqueid": "MTK0023:3D8YOU6S9FRFA1J79UT5U3I3RMTU63", "current_trial": 268, "dateTime": 1509049187265, "trialdata": {"rt": -1000, "stimulus": "/static/audio/wordpool/EAGLE.wav", "key_press": -1, "type": "PRES_AUD", "word": "eagle", "wordID": 511, "conditions": [24, 800, "a", 24000], "trial": 7, "serialpos": 15, "trial_type": "single-audio", "trial_index": 268, "time_elapsed": 1219655, "internal_node_id": "0.0-196.0"}}, {"uniqueid": "MTK0023:3D8YOU6S9FRFA1J79UT5U3I3RMTU63", "current_trial": 269, "dateTime": 1509049189119, "trialdata": {"rt": -1000, "stimulus": "/static/audio/wordpool/MILDEW.wav", "key_press": -1, "type": "PRES_AUD", "word": "mildew", "wordID": 892, "conditions": [24, 800, "a", 24000], "trial": 7, "serialpos": 16, "trial_type": "single-audio", "trial_index": 269, "time_elapsed": 1221509, "internal_node_id": "0.0-197.0"}}, {"uniqueid": "MTK0023:3D8YOU6S9FRFA1J79UT5U3I3RMTU63", "current_trial": 270, "dateTime": 1509049191049, "trialdata": {"rt": -1000, "stimulus": "/static/audio/wordpool/BLENDER.wav", "key_press": -1, "type": "PRES_AUD", "word": "blender", "wordID": 135, "conditions": [24, 800, "a", 24000], "trial": 7, "serialpos": 17, "trial_type": "single-audio", "trial_index": 270, "time_elapsed": 1223439, "internal_node_id": "0.0-198.0"}}, {"uniqueid": "MTK0023:3D8YOU6S9FRFA1J79UT5U3I3RMTU63", "current_trial": 271, "dateTime": 1509049192756, "trialdata": {"rt": -1000, "stimulus": "/static/audio/wordpool/PADDLE.wav", "key_press": -1, "type": "PRES_AUD", "word": "paddle", "wordID": 999, "conditions": [24, 800, "a", 24000], "trial": 7, "serialpos": 18, "trial_type": "single-audio", "trial_index": 271, "time_elapsed": 1225146, "internal_node_id": "0.0-199.0"}}, {"uniqueid": "MTK0023:3D8YOU6S9FRFA1J79UT5U3I3RMTU63", "current_trial": 272, "dateTime": 1509049194706, "trialdata": {"rt": -1000, "stimulus": "/static/audio/wordpool/BEAVER.wav", "key_press": -1, "type": "PRES_AUD", "word": "beaver", "wordID": 108, "conditions": [24, 800, "a", 24000], "trial": 7, "serialpos": 19, "trial_type": "single-a