{"condition": 0, "counterbalance": 2601, "assignmentId": "3JWH6J9I9TK8LNGT8KYRROC11O7NBJ", "workerId": "MTK0913", "hitId": "360ZO6N6J1QHSSI28X0TYJWRSQV9MP", "currenttrial": 626, "bonus": 0, "data": [{"uniqueid": "MTK0913:3JWH6J9I9TK8LNGT8KYRROC11O7NBJ", "current_trial": 0, "dateTime": 1512873272262, "trialdata": {"rt": 119344, "key_press": 32, "type": "INSTRUCTIONS", "trial_type": "text", "trial_index": 0, "time_elapsed": 119349, "internal_node_id": "0.0-0.0"}}, {"uniqueid": "MTK0913:3JWH6J9I9TK8LNGT8KYRROC11O7NBJ", "current_trial": 1, "dateTime": 1512873283792, "trialdata": {"rt": 11522, "key_press": 32, "type": "INSTRUCTIONS", "trial_type": "text", "trial_index": 1, "time_elapsed": 130881, "internal_node_id": "0.0-1.0"}}, {"uniqueid": "MTK0913:3JWH6J9I9TK8LNGT8KYRROC11O7NBJ", "current_trial": 2, "dateTime": 1512873302310, "trialdata": {"rt": [18344], "responses": ["ocean"], "type": "AUDIO_TEST", "trial_type": "audio-test", "trial_index": 2, "time_elapsed": 149400, "internal_node_id": "0.0-2.0"}}, {"uniqueid": "MTK0913:3JWH6J9I9TK8LNGT8KYRROC11O7NBJ", "current_trial": 3, "dateTime": 1512873309513, "trialdata": {"rt": [7165], "responses": ["crystal"], "type": "AUDIO_TEST", "trial_type": "audio-test", "trial_index": 3, "time_elapsed": 156604, "internal_node_id": "0.0-3.0"}}, {"uniqueid": "MTK0913:3JWH6J9I9TK8LNGT8KYRROC11O7NBJ", "current_trial": 4, "dateTime": 1512873314971, "trialdata": {"rt": [5400], "responses": ["spice"], "type": "AUDIO_TEST", "trial_type": "audio-test", "trial_index": 4, "time_elapsed": 162061, "internal_node_id": "0.0-4.0"}}, {"uniqueid": "MTK0913:3JWH6J9I9TK8LNGT8KYRROC11O7NBJ", "current_trial": 5, "dateTime": 1512873331564, "trialdata": {"rt": 15829, "responses": "{\"Q0\":\"5am\",\"Q1\":\"4pm\",\"Q2\":\"5\"}", "type": "SLEEP_SURVEY", "trial_type": "survey-text", "trial_index": 5, "time_elapsed": 178654, "internal_node_id": "0.0-5.0"}}, {"uniqueid": "MTK0913:3JWH6J9I9TK8LNGT8KYRROC11O7NBJ", "current_trial": 6, "dateTime": 1512873373413, "trialdata": {"rt": 40838, "key_press": 32, "type": "INSTRUCTIONS", "trial_type": "text", "trial_index": 6, "time_elapsed": 220501, "internal_node_id": "0.0-6.0"}}, {"uniqueid": "MTK0913:3JWH6J9I9TK8LNGT8KYRROC11O7NBJ", "current_trial": 7, "dateTime": 1512873380998, "trialdata": {"rt": 7079, "key_press": 32, "type": "INSTRUCTIONS", "trial_type": "text", "trial_index": 7, "time_elapsed": 228088, "internal_node_id": "0.0-7.0"}}, {"uniqueid": "MTK0913:3JWH6J9I9TK8LNGT8KYRROC11O7NBJ", "current_trial": 8, "dateTime": 1512873384627, "trialdata": {"rt": 3122, "key_press": 32, "type": "INSTRUCTIONS", "trial_type": "text", "trial_index": 8, "time_elapsed": 231717, "internal_node_id": "0.0-8.0"}}, {"uniqueid": "MTK0913:3JWH6J9I9TK8LNGT8KYRROC11O7NBJ", "current_trial": 9, "dateTime": 1512873403655, "trialdata": {"rt": [3281, 5554, 7946, 10041, 13202, 15253, 16969], "responses": ["17", "8", "7", "10", "19", "13", "7"], "num1": [3, 5, 1, 1, 4, 3, 1, 3], "num2": [8, 1, 1, 8, 7, 4, 2, 4], "num3": [6, 2, 5, 1, 8, 6, 4, 2], "type": "DISTRACTOR", "conditions": [18, 1200, "v", 18000], "trial": 0, "trial_type": "math-distractor", "trial_index": 9, "time_elapsed": 250744, "internal_node_id": "0.0-9.0"}}, {"uniqueid": "MTK0913:3JWH6J9I9TK8LNGT8KYRROC11O7NBJ", "current_trial": 10, "dateTime": 1512873406668, "trialdata": {"rt": -1, "stimulus": "<p id=\"stim\">10</p>", "key_press": -1, "trial_type": "single-stim", "trial_index": 10, "time_elapsed": 253757, "internal_node_id": "0.0-10.0-0.0"}}, {"uniqueid": "MTK0913:3JWH6J9I9TK8LNGT8KYRROC11O7NBJ", "current_trial": 11, "dateTime": 1512873407675, "trialdata": {"rt": -1, "stimulus": "<p id=\"stim\">9</p>", "key_press": -1, "trial_type": "single-stim", "trial_index": 11, "time_elapsed": 254765, "internal_node_id": "0.0-10.0-1.0"}}, {"uniqueid": "MTK0913:3JWH6J9I9TK8LNGT8KYRROC11O7NBJ", "current_trial": 12, "dateTime": 1512873408682, "trialdata": {"rt": -1, "stimulus": "<p id=\"stim\">8</p>", "key_press": -1, "trial_type": "single-stim", "trial_index": 12, "time_elapsed": 255772, "internal_node_id": "0.0-10.0-2.0"}}, {"uniqueid": "MTK0913:3JWH6J9I9TK8LNGT8KYRROC11O7NBJ", "current_trial": 13, "dateTime": 1512873409898, "trialdata": {"rt": -1, "stimulus": "<p id=\"stim\">7</p>", "key_press": -1, "trial_type": "single-stim", "trial_index": 13, "time_elapsed": 256988, "internal_node_id": "0.0-10.0-3.0"}}, {"uniqueid": "MTK0913:3JWH6J9I9TK8LNGT8KYRROC11O7NBJ", "current_trial": 14, "dateTime": 1512873410904, "trialdata": {"rt": -1, "stimulus": "<p id=\"stim\">6</p>", "key_press": -1, "trial_type": "single-stim", "trial_index": 14, "time_elapsed": 257994, "internal_node_id": "0.0-10.0-4.0"}}, {"uniqueid": "MTK0913:3JWH6J9I9TK8LNGT8KYRROC11O7NBJ", "current_trial": 15, "dateTime": 1512873411909, "trialdata": {"rt": -1, "stimulus": "<p id=\"stim\">5</p>", "key_press": -1, "trial_type": "single-stim", "trial_index": 15, "time_elapsed": 258999, "internal_node_id": "0.0-10.0-5.0"}}, {"uniqueid": "MTK0913:3JWH6J9I9TK8LNGT8KYRROC11O7NBJ", "current_trial": 16, "dateTime": 1512873412913, "trialdata": {"rt": -1, "stimulus": "<p id=\"stim\">4</p>", "key_press": -1, "trial_type": "single-stim", "trial_index": 16, "time_elapsed": 260003, "internal_node_id": "0.0-10.0-6.0"}}, {"uniqueid": "MTK0913:3JWH6J9I9TK8LNGT8KYRROC11O7NBJ", "current_trial": 17, "dateTime": 1512873413916, "trialdata": {"rt": -1, "stimulus": "<p id=\"stim\">3</p>", "key_press": -1, "trial_type": "single-stim", "trial_index": 17, "time_elapsed": 261006, "internal_node_id": "0.0-10.0-7.0"}}, {"uniqueid": "MTK0913:3JWH6J9I9TK8LNGT8KYRROC11O7NBJ", "current_trial": 18, "dateTime": 1512873414919, "trialdata": {"rt": -1, "stimulus": "<p id=\"stim\">2</p>", "key_press": -1, "trial_type": "single-stim", "trial_index": 18, "time_elapsed": 262010, "internal_node_id": "0.0-10.0-8.0"}}, {"uniqueid": "MTK0913:3JWH6J9I9TK8LNGT8KYRROC11O7NBJ", "current_trial": 19, "dateTime": 1512873415923, "trialdata": {"rt": -1, "stimulus": "<p id=\"stim\">1</p>", "key_press": -1, "trial_type": "single-stim", "trial_index": 19, "time_elapsed": 263013, "internal_node_id": "0.0-10.0-9.0"}}, {"uniqueid": "MTK0913:3JWH6J9I9TK8LNGT8KYRROC11O7NBJ", "current_trial": 20, "dateTime": 1512873417434, "trialdata": {"rt": -1, "stimulus": "<p id=\"stim\">+</p>", "key_press": -1, "type": "FIXATION", "trial_type": "single-stim", "trial_index": 20, "time_elapsed": 264522, "internal_node_id": "0.0-11.0-0.0"}}, {"uniqueid": "MTK0913:3JWH6J9I9TK8LNGT8KYRROC11O7NBJ", "current_trial": 21, "dateTime": 1512873418638, "trialdata": {"rt": -1, "stimulus": "<p id=\"stim\">LEOPARD</p>", "key_press": -1, "type": "PRES_VIS", "word": "leopard", "wordID": 811, "conditions": [18, 1200, "v", 18000], "trial": 0, "serialpos": 0, "trial_type": "single-stim", "trial_index": 21, "time_elapsed": 265729, "internal_node_id": "0.0-12.0"}}, {"uniqueid": "MTK0913:3JWH6J9I9TK8LNGT8KYRROC11O7NBJ", "current_trial": 22, "dateTime": 1512873420857, "trialdata": {"rt": -1, "stimulus": "<p id=\"stim\">MESSAGE</p>", "key_press": -1, "type": "PRES_VIS", "word": "message", "wordID": 887, "conditions": [18, 1200, "v", 18000], "trial": 0, "serialpos": 1, "trial_type": "single-stim", "trial_index": 22, "time_elapsed": 267946, "internal_node_id": "0.0-13.0"}}, {"uniqueid": "MTK0913:3JWH6J9I9TK8LNGT8KYRROC11O7NBJ", "current_trial": 23, "dateTime": 1512873422884, "trialdata": {"rt": -1, "stimulus": "<p id=\"stim\">STAMP</p>", "key_press": -1, "type": "PRES_VIS", "word": "stamp", "wordID": 1369, "conditions": [18, 1200, "v", 18000], "trial": 0, "serialpos": 2, "trial_type": "single-stim", "trial_index": 23, "time_elapsed": 269975, "internal_node_id": "0.0-14.0"}}, {"uniqueid": "MTK0913:3JWH6J9I9TK8LNGT8KYRROC11O7NBJ", "current_trial": 24, "dateTime": 1512873425159, "trialdata": {"rt": -1, "stimulus": "<p id=\"stim\">AIRPORT</p>", "key_press": -1, "type": "PRES_VIS", "word": "airport", "wordID": 12, "conditions": [18, 1200, "v", 18000], "trial": 0, "serialpos": 3, "trial_type": "single-stim", "trial_index": 24, "time_elapsed": 272250, "internal_node_id": "0.0-15.0"}}, {"uniqueid": "MTK0913:3JWH6J9I9TK8LNGT8KYRROC11O7NBJ", "current_trial": 25, "dateTime": 1512873427365, "trialdata": {"rt": -1, "stimulus": "<p id=\"stim\">EUROPE</p>", "key_press": -1, "type": "PRES_VIS", "word": "europe", "wordID": 540, "conditions": [18, 1200, "v", 18000], "trial": 0, "serialpos": 4, "trial_type": "single-stim", "trial_index": 25, "time_elapsed": 274456, "internal_node_id": "0.0-16.0"}}, {"uniqueid": "MTK0913:3JWH6J9I9TK8LNGT8KYRROC11O7NBJ", "current_trial": 26, "dateTime": 1512873429645, "trialdata": {"rt": -1, "stimulus": "<p id=\"stim\">DOUGHNUT</p>", "key_press": -1, "type": "PRES_VIS", "word": "doughnut", "wordID": 489, "conditions": [18, 1200, "v", 18000], "trial": 0, "serialpos": 5, "trial_type": "single-stim", "trial_index": 26, "time_elapsed": 276735, "internal_node_id": "0.0-17.0"}}, {"uniqueid": "MTK0913:3JWH6J9I9TK8LNGT8KYRROC11O7NBJ", "current_trial": 27, "dateTime": 1512873431684, "trialdata": {"rt": -1, "stimulus": "<p id=\"stim\">FLAG</p>", "key_press": -1, "type": "PRES_VIS", "word": "flag", "wordID": 572, "conditions": [18, 1200, "v", 18000], "trial": 0, "serialpos": 6, "trial_type": "single-stim", "trial_index": 27, "time_elapsed": 278775, "internal_node_id": "0.0-18.0"}}, {"uniqueid": "MTK0913:3JWH6J9I9TK8LNGT8KYRROC11O7NBJ", "current_trial": 28, "dateTime": 1512873433956, "trialdata": {"rt": -1, "stimulus": "<p id=\"stim\">CATTLE</p>", "key_press": -1, "type": "PRES_VIS", "word": "cattle", "wordID": 260, "conditions": [18, 1200, "v", 18000], "trial": 0, "serialpos": 7, "trial_type": "single-stim", "trial_index": 28, "time_elapsed": 281047, "internal_node_id": "0.0-19.0"}}, {"uniqueid": "MTK0913:3JWH6J9I9TK8LNGT8KYRROC11O7NBJ", "current_trial": 29, "dateTime": 1512873436076, "trialdata": {"rt": -1, "stimulus": "<p id=\"stim\">LEG</p>", "key_press": -1, "type": "PRES_VIS", "word": "leg", "wordID": 808, "conditions": [18, 1200, "v", 18000], "trial": 0, "serialpos": 8, "trial_type": "single-stim", "trial_index": 29, "time_elapsed": 283166, "internal_node_id": "0.0-20.0"}}, {"uniqueid": "MTK0913:3JWH6J9I9TK8LNGT8KYRROC11O7NBJ", "current_trial": 30, "dateTime": 1512873438114, "trialdata": {"rt": -1, "stimulus": "<p id=\"stim\">BEAST</p>", "key_press": -1, "type": "PRES_VIS", "word": "beast", "wordID": 107, "conditions": [18, 1200, "v", 18000], "trial": 0, "serialpos": 9, "trial_type": "single-stim", "trial_index": 30, "time_elapsed": 285205, "internal_node_id": "0.0-21.0"}}, {"uniqueid": "MTK0913:3JWH6J9I9TK8LNGT8KYRROC11O7NBJ", "current_trial": 31, "dateTime": 1512873440176, "trialdata": {"rt": -1, "stimulus": "<p id=\"stim\">DRAWING</p>", "key_press": -1, "type": "PRES_VIS", "word": "drawing", "wordID": 493, "conditions": [18, 1200, "v", 18000], "trial": 0, "serialpos": 10, "trial_type": "single-stim", "trial_index": 31, "time_elapsed": 287267, "internal_node_id": "0.0-22.0"}}, {"uniqueid": "MTK0913:3JWH6J9I9TK8LNGT8KYRROC11O7NBJ", "current_trial": 32, "dateTime": 1512873442312, "trialdata": {"rt": -1, "stimulus": "<p id=\"stim\">FOREHEAD</p>", "key_press": -1, "type": "PRES_VIS", "word": "forehead", "wordID": 591, "conditions": [18, 1200, "v", 18000], "trial": 0, "serialpos": 11, "trial_type": "single-stim", "trial_index": 32, "time_elapsed": 289402, "internal_node_id": "0.0-23.0"}}, {"uniqueid": "MTK0913:3JWH6J9I9TK8LNGT8KYRROC11O7NBJ", "current_trial": 33, "dateTime": 1512873444562, "trialdata": {"rt": -1, "stimulus": "<p id=\"stim\">WAGON</p>", "key_press": -1, "type": "PRES_VIS", "word": "wagon", "wordID": 1577, "conditions": [18, 1200, "v", 18000], "trial": 0, "serialpos": 12, "trial_type": "single-stim", "trial_index": 33, "time_elapsed": 291652, "internal_node_id": "0.0-24.0"}}, {"uniqueid": "MTK0913:3JWH6J9I9TK8LNGT8KYRROC11O7NBJ", "current_trial": 34, "dateTime": 1512873446925, "trialdata": {"rt": -1, "stimulus": "<p id=\"stim\">FLIPPER</p>", "key_press": -1, "type": "PRES_VIS", "word": "flipper", "wordID": 579, "conditions": [18, 1200, "v", 18000], "trial": 0, "serialpos": 13, "trial_type": "single-stim", "trial_index": 34, "time_elapsed": 294015, "internal_node_id": "0.0-25.0"}}, {"uniqueid": "MTK0913:3JWH6J9I9TK8LNGT8KYRROC11O7NBJ", "current_trial": 35, "dateTime": 1512873448934, "trialdata": {"rt": -1, "stimulus": "<p id=\"stim\">HELMET</p>", "key_press": -1, "type": "PRES_VIS", "word": "helmet", "wordID": 701, "conditions": [18, 1200, "v", 18000], "trial": 0, "serialpos": 14, "trial_type": "single-stim", "trial_index": 35, "time_elapsed": 296024, "internal_node_id": "0.0-26.0"}}, {"uniqueid": "MTK0913:3JWH6J9I9TK8LNGT8KYRROC11O7NBJ", "current_trial": 36, "dateTime": 1512873451131, "trialdata": {"rt": -1, "stimulus": "<p id=\"stim\">SWORD</p>", "key_press": -1, "type": "PRES_VIS", "word": "sword", "wordID": 1422, "conditions": [18, 1200, "v", 18000], "trial": 0, "serialpos": 15, "trial_type": "single-stim", "trial_index": 36, "time_elapsed": 298222, "internal_node_id": "0.0-27.0"}}, {"uniqueid": "MTK0913:3JWH6J9I9TK8LNGT8KYRROC11O7NBJ", "current_trial": 37, "dateTime": 1512873453167, "trialdata": {"rt": -1, "stimulus": "<p id=\"stim\">VALLEY</p>", "key_press": -1, "type": "PRES_VIS", "word": "valley", "wordID": 1544, "conditions": [18, 1200, "v", 18000], "trial": 0, "serialpos": 16, "trial_type": "single-stim", "trial_index": 37, "time_elapsed": 300258, "internal_node_id": "0.0-28.0"}}, {"uniqueid": "MTK0913:3JWH6J9I9TK8LNGT8KYRROC11O7NBJ", "current_trial": 38, "dateTime": 1512873455176, "trialdata": {"rt": -1, "stimulus": "<p id=\"stim\">BELLY</p>", "key_press": -1, "type": "PRES_VIS", "word": "belly", "wordID": 118, "conditions": [18, 1200, "v", 18000], "trial": 0, "serialpos": 17, "trial_type": "single-stim", "trial_index": 38, "time_elapsed": 302267, "internal_node_id": "0.0-29.0"}}, {"uniqueid": "MTK0913:3JWH6J9I9TK8LNGT8KYRROC11O7NBJ", "current_trial": 39, "dateTime": 1512873457288, "trialdata": {"rt": -1, "stimulus": "", "key_press": -1, "type": "PRE_RECALL_DELAY", "trial_type": "single-stim", "trial_index": 39, "time_elapsed": 304379, "internal_node_id": "0.0-30.0-0.0"}}, {"uniqueid": "MTK0913:3JWH6J9I9TK8LNGT8KYRROC11O7NBJ", "current_trial": 40, "dateTime": 1512873457794, "trialdata": {"rt": -1000, "stimulus": "/static/audio/400Hz.wav", "key_press": -1, "type": "PRE_RECALL_ALERT", "trial_type": "single-audio", "trial_index": 40, "time_elapsed": 304884, "internal_node_id": "0.0-31.0"}}, {"uniqueid": "MTK0913:3JWH6J9I9TK8LNGT8KYRROC11O7NBJ", "current_trial": 41, "dateTime": 1512873517829, "trialdata": {"rt": [3753, 5019, 6291, 8837, 17273, 24073, 39006, 53792, 58541], "recwords": ["leopard", "sword", "belly", "valley", "leg", "beast", "airport", "axe", "beg"], "type": "FREE_RECALL", "conditions": [18, 1200, "v", 18000], "trial": 0, "trial_type": "free-recall", "trial_index": 41, "time_elapsed": 364900, "internal_node_id": "0.0-32.0-0.0"}}, {"uniqueid": "MTK0913:3JWH6J9I9TK8LNGT8KYRROC11O7NBJ", "current_trial": 42, "dateTime": 1512873522108, "trialdata": {"rt": 1826, "key_press": 32, "type": "INSTRUCTIONS", "trial_type": "text", "trial_index": 42, "time_elapsed": 369198, "internal_node_id": "0.0-33.0"}}, {"uniqueid": "MTK0913:3JWH6J9I9TK8LNGT8KYRROC11O7NBJ", "current_trial": 43, "dateTime": 1512873542127, "trialdata": {"rt": [3111, 5733, 7717, 10098, 11570, 13641, 15871, 17953], "responses": ["12", "21", "7", "16", "11", "17", "20", "15"], "num1": [2, 9, 3, 5, 7, 2, 7, 7, 5], "num2": [3, 9, 1, 9, 3, 8, 6, 2, 2], "num3": [7, 3, 3, 2, 1, 7, 7, 6, 8], "type": "DISTRACTOR", "conditions": [18, 1200, "a", 18000], "trial": 1, "trial_type": "math-distractor", "trial_index": 43, "time_elapsed": 389216, "internal_node_id": "0.0-34.0"}}, {"uniqueid": "MTK0913:3JWH6J9I9TK8LNGT8KYRROC11O7NBJ", "current_trial": 44, "dateTime": 1512873545132, "trialdata": {"rt": -1, "stimulus": "<p id=\"stim\">10</p>", "key_press": -1, "trial_type": "single-stim", "trial_index": 44, "time_elapsed": 392222, "internal_node_id": "0.0-35.0-0.0"}}, {"uniqueid": "MTK0913:3JWH6J9I9TK8LNGT8KYRROC11O7NBJ", "current_trial": 45, "dateTime": 1512873546134, "trialdata": {"rt": -1, "stimulus": "<p id=\"stim\">9</p>", "key_press": -1, "trial_type": "single-stim", "trial_index": 45, "time_elapsed": 393225, "internal_node_id": "0.0-35.0-1.0"}}, {"uniqueid": "MTK0913:3JWH6J9I9TK8LNGT8KYRROC11O7NBJ", "current_trial": 46, "dateTime": 1512873547137, "trialdata": {"rt": -1, "stimulus": "<p id=\"stim\">8</p>", "key_press": -1, "trial_type": "single-stim", "trial_index": 46, "time_elapsed": 394228, "internal_node_id": "0.0-35.0-2.0"}}, {"uniqueid": "MTK0913:3JWH6J9I9TK8LNGT8KYRROC11O7NBJ", "current_trial": 47, "dateTime": 1512873548141, "trialdata": {"rt": -1, "stimulus": "<p id=\"stim\">7</p>", "key_press": -1, "trial_type": "single-stim", "trial_index": 47, "time_elapsed": 395231, "internal_node_id": "0.0-35.0-3.0"}}, {"uniqueid": "MTK0913:3JWH6J9I9TK8LNGT8KYRROC11O7NBJ", "current_trial": 48, "dateTime": 1512873549143, "trialdata": {"rt": -1, "stimulus": "<p id=\"stim\">6</p>", "key_press": -1, "trial_type": "single-stim", "trial_index": 48, "time_elapsed": 396234, "internal_node_id": "0.0-35.0-4.0"}}, {"uniqueid": "MTK0913:3JWH6J9I9TK8LNGT8KYRROC11O7NBJ", "current_trial": 49, "dateTime": 1512873550146, "trialdata": {"rt": -1, "stimulus": "<p id=\"stim\">5</p>", "key_press": -1, "trial_type": "single-stim", "trial_index": 49, "time_elapsed": 397236, "internal_node_id": "0.0-35.0-5.0"}}, {"uniqueid": "MTK0913:3JWH6J9I9TK8LNGT8KYRROC11O7NBJ", "current_trial": 50, "dateTime": 1512873551148, "trialdata": {"rt": -1, "stimulus": "<p id=\"stim\">4</p>", "key_press": -1, "trial_type": "single-stim", "trial_index": 50, "time_elapsed": 398239, "internal_node_id": "0.0-35.0-6.0"}}, {"uniqueid": "MTK0913:3JWH6J9I9TK8LNGT8KYRROC11O7NBJ", "current_trial": 51, "dateTime": 1512873552152, "trialdata": {"rt": -1, "stimulus": "<p id=\"stim\">3</p>", "key_press": -1, "trial_type": "single-stim", "trial_index": 51, "time_elapsed": 399242, "internal_node_id": "0.0-35.0-7.0"}}, {"uniqueid": "MTK0913:3JWH6J9I9TK8LNGT8KYRROC11O7NBJ", "current_trial": 52, "dateTime": 1512873553155, "trialdata": {"rt": -1, "stimulus": "<p id=\"stim\">2</p>", "key_press": -1, "trial_type": "single-stim", "trial_index": 52, "time_elapsed": 400245, "internal_node_id": "0.0-35.0-8.0"}}, {"uniqueid": "MTK0913:3JWH6J9I9TK8LNGT8KYRROC11O7NBJ", "current_trial": 53, "dateTime": 1512873554157, "trialdata": {"rt": -1, "stimulus": "<p id=\"stim\">1</p>", "key_press": -1, "trial_type": "single-stim", "trial_index": 53, "time_elapsed": 401248, "internal_node_id": "0.0-35.0-9.0"}}, {"uniqueid": "MTK0913:3JWH6J9I9TK8LNGT8KYRROC11O7NBJ", "current_trial": 54, "dateTime": 1512873555660, "trialdata": {"rt": -1, "stimulus": "<p id=\"stim\">+</p>", "key_press": -1, "type": "FIXATION", "trial_type": "single-stim", "trial_index": 54, "time_elapsed": 402751, "internal_node_id": "0.0-36.0-0.0"}}, {"uniqueid": "MTK0913:3JWH6J9I9TK8LNGT8KYRROC11O7NBJ", "current_trial": 55, "dateTime": 1512873558126, "trialdata": {"rt": -1000, "stimulus": "/static/audio/wordpool/DIME.wav", "key_press": -1, "type": "PRES_AUD", "word": "dime", "wordID": 465, "conditions": [18, 1200, "a", 18000], "trial": 1, "serialpos": 0, "trial_type": "single-audio", "trial_index": 55, "time_elapsed": 405216, "internal_node_id": "0.0-37.0"}}, {"uniqueid": "MTK0913:3JWH6J9I9TK8LNGT8KYRROC11O7NBJ", "current_trial": 56, "dateTime": 1512873560251, "trialdata": {"rt": -1000, "stimulus": "/static/audio/wordpool/SWAMP.wav", "key_press": -1, "type": "PRES_AUD", "word": "swamp", "wordID": 1415, "conditions": [18, 1200, "a", 18000], "trial": 1, "serialpos": 1, "trial_type": "single-audio", "trial_index": 56, "time_elapsed": 407342, "internal_node_id": "0.0-38.0"}}, {"uniqueid": "MTK0913:3JWH6J9I9TK8LNGT8KYRROC11O7NBJ", "current_trial": 57, "dateTime": 1512873562499, "trialdata": {"rt": -1000, "stimulus": "/static/audio/wordpool/JAPAN.wav", "key_press": -1, "type": "PRES_AUD", "word": "japan", "wordID": 748, "conditions": [18, 1200, "a", 18000], "trial": 1, "serialpos": 2, "trial_type": "single-audio", "trial_index": 57, "time_elapsed": 409590, "internal_node_id": "0.0-39.0"}}, {"uniqueid": "MTK0913:3JWH6J9I9TK8LNGT8KYRROC11O7NBJ", "current_trial": 58, "dateTime": 1512873564620, "trialdata": {"rt": -1000, "stimulus": "/static/audio/wordpool/SCISSORS.wav", "key_press": -1, "type": "PRES_AUD", "word": "scissors", "wordID": 1249, "conditions": [18, 1200, "a", 18000], "trial": 1, "serialpos": 3, "trial_type": "single-audio", "trial_index": 58, "time_elapsed": 411711, "internal_node_id": "0.0-40.0"}}, {"uniqueid": "MTK0913:3JWH6J9I9TK8LNGT8KYRROC11O7NBJ", "current_trial": 59, "dateTime": 1512873566883, "trialdata": {"rt": -1000, "stimulus": "/static/audio/wordpool/WOMAN.wav", "key_press": -1, "type": "PRES_AUD", "word": "woman", "wordID": 1619, "conditions": [18, 1200, "a", 18000], "trial": 1, "serialpos": 4, "trial_type": "single-audio", "trial_index": 59, "time_elapsed": 413974, "internal_node_id": "0.0-41.0"}}, {"uniqueid": "MTK0913:3JWH6J9I9TK8LNGT8KYRROC11O7NBJ", "current_trial": 60, "dateTime": 1512873569256, "trialdata": {"rt": -1000, "stimulus": "/static/audio/wordpool/BUBBLE.wav", "key_press": -1, "type": "PRES_AUD", "word": "bubble", "wordID": 182, "conditions": [18, 1200, "a", 18000], "trial": 1, "serialpos": 5, "trial_type": "single-audio", "trial_index": 60, "time_elapsed": 416346, "internal_node_id": "0.0-42.0"}}, {"uniqueid": "MTK0913:3JWH6J9I9TK8LNGT8KYRROC11O7NBJ", "current_trial": 61, "dateTime": 1512873571569, "trialdata": {"rt": -1000, "stimulus": "/static/audio/wordpool/WAITER.wav", "key_press": -1, "type": "PRES_AUD", "word": "waiter", "wordID": 1579, "conditions": [18, 1200, "a", 18000], "trial": 1, "serialpos": 6, "trial_type": "single-audio", "trial_index": 61, "time_elapsed": 418660, "internal_node_id": "0.0-43.0"}}, {"uniqueid": "MTK0913:3JWH6J9I9TK8LNGT8KYRROC11O7NBJ", "current_trial": 62, "dateTime": 1512873573824, "trialdata": {"rt": -1000, "stimulus": "/static/audio/wordpool/EXPERT.wav", "key_press": -1, "type": "PRES_AUD", "word": "expert", "wordID": 542, "conditions": [18, 1200, "a", 18000], "trial": 1, "serialpos": 7, "trial_type": "single-audio", "trial_index": 62, "time_elapsed": 420915, "internal_node_id": "0.0-44.0"}}, {"uniqueid": "MTK0913:3JWH6J9I9TK8LNGT8KYRROC11O7NBJ", "current_trial": 63, "dateTime": 1512873576127, "trialdata": {"rt": -1000, "stimulus": "/static/audio/wordpool/BANK.wav", "key_press": -1, "type": "PRES_AUD", "word": "bank", "wordID": 82, "conditions": [18, 1200, "a", 18000], "trial": 1, "serialpos": 8, "trial_type": "single-audio", "trial_index": 63, "time_elapsed": 423218, "internal_node_id": "0.0-45.0"}}, {"uniqueid": "MTK0913:3JWH6J9I9TK8LNGT8KYRROC11O7NBJ", "current_trial": 64, "dateTime": 1512873578416, "trialdata": {"rt": -1000, "stimulus": "/static/audio/wordpool/ORCHID.wav", "key_press": -1, "type": "PRES_AUD", "word": "orchid", "wordID": 981, "conditions": [18, 1200, "a", 18000], "trial": 1, "serialpos": 9, "trial_type": "single-audio", "trial_index": 64, "time_elapsed": 425507, "internal_node_id": "0.0-46.0"}}, {"uniqueid": "MTK0913:3JWH6J9I9TK8LNGT8KYRROC11O7NBJ", "current_trial": 65, "dateTime": 1512873580447, "trialdata": {"rt": -1000, "stimulus": "/static/audio/wordpool/GUARD.wav", "key_press": -1, "type": "PRES_AUD", "word": "guard", "wordID": 666, "conditions": [18, 1200, "a", 18000], "trial": 1, "serialpos": 10, "trial_type": "single-audio", "trial_index": 65, "time_elapsed": 427538, "internal_node_id": "0.0-47.0"}}, {"uniqueid": "MTK0913:3JWH6J9I9TK8LNGT8KYRROC11O7NBJ", "current_trial": 66, "dateTime": 1512873582726, "trialdata": {"rt": -1000, "stimulus": "/static/audio/wordpool/CHILD.wav", "key_press": -1, "type": "PRES_AUD", "word": "child", "wordID": 298, "conditions": [18, 1200, "a", 18000], "trial": 1, "serialpos": 11, "trial_type": "single-audio", "trial_index": 66, "time_elapsed": 429816, "internal_node_id": "0.0-48.0"}}, {"uniqueid": "MTK0913:3JWH6J9I9TK8LNGT8KYRROC11O7NBJ", "current_trial": 67, "dateTime": 1512873585070, "trialdata": {"rt": -1000, "stimulus": "/static/audio/wordpool/POSSUM.wav", "key_press": -1, "type": "PRES_AUD", "word": "possum", "wordID": 1111, "conditions": [18, 1200, "a", 18000], "trial": 1, "serialpos": 12, "trial_type": "single-audio", "trial_index": 67, "time_elapsed": 432161, "internal_node_id": "0.0-49.0"}}, {"uniqueid": "MTK0913:3JWH6J9I9TK8LNGT8KYRROC11O7NBJ", "current_trial": 68, "dateTime": 1512873587282, "trialdata": {"rt": -1000, "stimulus": "/static/audio/wordpool/ATOM.wav", "key_press": -1, "type": "PRES_AUD", "word": "atom", "wordID": 54, "conditions": [18, 1200, "a", 18000], "trial": 1, "serialpos": 13, "trial_type": "single-audio", "trial_index": 68, "time_elapsed": 434373, "internal_node_id": "0.0-50.0"}}, {"uniqueid": "MTK0913:3JWH6J9I9TK8LNGT8KYRROC11O7NBJ", "current_trial": 69, "dateTime": 1512873589493, "trialdata": {"rt": -1000, "stimulus": "/static/audio/wordpool/TOMBSTONE.wav", "key_press": -1, "type": "PRES_AUD", "word": "tombstone", "wordID": 1477, "conditions": [18, 1200, "a", 18000], "trial": 1, "serialpos": 14, "trial_type": "single-audio", "trial_index": 69, "time_elapsed": 436583, "internal_node_id": "0.0-51.0"}}, {"uniqueid": "MTK0913:3JWH6J9I9TK8LNGT8KYRROC11O7NBJ", "current_trial": 70, "dateTime": 1512873591798, "trialdata": {"rt": -1000, "stimulus": "/static/audio/wordpool/SWIMMER.wav", "key_press": -1, "type": "PRES_AUD", "word": "swimmer", "wordID": 1419, "conditions": [18, 1200, "a", 18000], "trial": 1, "serialpos": 15, "trial_type": "single-audio", "trial_index": 70, "time_elapsed": 438889, "internal_node_id": "0.0-52.0"}}, {"uniqueid": "MTK0913:3JWH6J9I9TK8LNGT8KYRROC11O7NBJ", "current_trial": 71, "dateTime": 1512873594081, "trialdata": {"rt": -1000, "stimulus": "/static/audio/wordpool/CHAMPAGNE.wav", "key_press": -1, "type": "PRES_AUD", "word": "champagne", "wordID": 277, "conditions": [18, 1200, "a", 18000], "trial": 1, "serialpos": 16, "trial_type": "single-audio", "trial_index": 71, "time_elapsed": 441172, "internal_node_id": "0.0-53.0"}}, {"uniqueid": "MTK0913:3JWH6J9I9TK8LNGT8KYRROC11O7NBJ", "current_trial": 72, "dateTime": 1512873596161, "trialdata": {"rt": -1000, "stimulus": "/static/audio/wordpool/SPOUSE.wav", "key_press": -1, "type": "PRES_AUD", "word": "spouse", "wordID": 1357, "conditions": [18, 1200, "a", 18000], "trial": 1, "serialpos": 17, "trial_type": "single-audio", "trial_index": 72, "time_elapsed": 443252, "internal_node_id": "0.0-54.0"}}, {"uniqueid": "MTK0913:3JWH6J9I9TK8LNGT8KYRROC11O7NBJ", "current_trial": 73, "dateTime": 1512873597503, "trialdata": {"rt": -1, "stimulus": "", "key_press": -1, "type": "PRE_RECALL_DELAY", "trial_type": "single-stim", "trial_index": 73, "time_elapsed": 444593, "internal_node_id": "0.0-55.0-0.0"}}, {"uniqueid": "MTK0913:3JWH6J9I9TK8LNGT8KYRROC11O7NBJ", "current_trial": 74, "dateTime": 1512873598006, "trialdata": {"rt": -1000, "stimulus": "/static/audio/400Hz.wav", "key_press": -1, "type": "PRE_RECALL_ALERT", "trial_type": "single-audio", "trial_index": 74, "time_elapsed": 445096, "internal_node_id": "0.0-56.0"}}, {"uniqueid": "MTK0913:3JWH6J9I9TK8LNGT8KYRROC11O7NBJ", "current_trial": 75, "dateTime": 1512873658045, "trialdata": {"rt": [4145, 6824, 8430, 15349, 27168, 30938, 45905, 56394], "recwords": ["champagne", "spouse", "simmer", "dime", "spouse", "atom", "child", "bubble"], "type": "FREE_RECALL", "conditions": [18, 1200, "a", 18000], "trial": 1, "trial_type": "free-recall", "trial_index": 75, "time_elapsed": 505115, "internal_node_id": "0.0-57.0-0.0"}}, {"uniqueid": "MTK0913:3JWH6J9I9TK8LNGT8KYRROC11O7NBJ", "current_trial": 76, "dateTime": 1512873661841, "trialdata": {"rt": 1764, "key_press": 32, "type": "INSTRUCTIONS", "trial_type": "text", "trial_index": 76, "time_elapsed": 508904, "internal_node_id": "0.0-58.0"}}, {"uniqueid": "MTK0913:3JWH6J9I9TK8LNGT8KYRROC11O7NBJ", "current_trial": 77, "dateTime": 1512873686867, "trialdata": {"rt": [2418, 5135, 7051, 9435, 11346, 15263, 17453, 18954, 21240, 23115], "responses": ["20", "16", "16", "19", "6", "13", "15", "8", "15", "10"], "num1": [9, 7, 9, 9, 1, 6, 3, 1, 1, 3, 8], "num2": [7, 3, 3, 2, 2, 5, 6, 6, 5, 6, 5], "num3": [4, 6, 4, 8, 3, 2, 6, 1, 9, 1, 6], "type": "DISTRACTOR", "conditions": [12, 1600, "v", 24000], "trial": 2, "trial_type": "math-distractor", "trial_index": 77, "time_elapsed": 533958, "internal_node_id": "0.0-59.0"}}, {"uniqueid": "MTK0913:3JWH6J9I9TK8LNGT8KYRROC11O7NBJ", "current_trial": 78, "dateTime": 1512873689874, "trialdata": {"rt": -1, "stimulus": "<p id=\"stim\">10</p>", "key_press": -1, "trial_type": "single-stim", "trial_index": 78, "time_elapsed": 536963, "internal_node_id": "0.0-60.0-0.0"}}, {"uniqueid": "MTK0913:3JWH6J9I9TK8LNGT8KYRROC11O7NBJ", "current_trial": 79, "dateTime": 1512873690880, "trialdata": {"rt": -1, "stimulus": "<p id=\"stim\">9</p>", "key_press": -1, "trial_type": "single-stim", "trial_index": 79, "time_elapsed": 537969, "internal_node_id": "0.0-60.0-1.0"}}, {"uniqueid": "MTK0913:3JWH6J9I9TK8LNGT8KYRROC11O7NBJ", "current_trial": 80, "dateTime": 1512873691886, "trialdata": {"rt": -1, "stimulus": "<p id=\"stim\">8</p>", "key_press": -1, "trial_type": "single-stim", "trial_index": 80, "time_elapsed": 538976, "internal_node_id": "0.0-60.0-2.0"}}, {"uniqueid": "MTK0913:3JWH6J9I9TK8LNGT8KYRROC11O7NBJ", "current_trial": 81, "dateTime": 1512873692890, "trialdata": {"rt": -1, "stimulus": "<p id=\"stim\">7</p>", "key_press": -1, "trial_type": "single-stim", "trial_index": 81, "time_elapsed": 539980, "internal_node_id": "0.0-60.0-3.0"}}, {"uniqueid": "MTK0913:3JWH6J9I9TK8LNGT8KYRROC11O7NBJ", "current_trial": 82, "dateTime": 1512873693893, "trialdata": {"rt": -1, "stimulus": "<p id=\"stim\">6</p>", "key_press": -1, "trial_type": "single-stim", "trial_index": 82, "time_elapsed": 540984, "internal_node_id": "0.0-60.0-4.0"}}, {"uniqueid": "MTK0913:3JWH6J9I9TK8LNGT8KYRROC11O7NBJ", "current_trial": 83, "dateTime": 1512873694897, "trialdata": {"rt": -1, "stimulus": "<p id=\"stim\">5</p>", "key_press": -1, "trial_type": "single-stim", "trial_index": 83, "time_elapsed": 541987, "internal_node_id": "0.0-60.0-5.0"}}, {"uniqueid": "MTK0913:3JWH6J9I9TK8LNGT8KYRROC11O7NBJ", "current_trial": 84, "dateTime": 1512873695900, "trialdata": {"rt": -1, "stimulus": "<p id=\"stim\">4</p>", "key_press": -1, "trial_type": "single-stim", "trial_index": 84, "time_elapsed": 542990, "internal_node_id": "0.0-60.0-6.0"}}, {"uniqueid": "MTK0913:3JWH6J9I9TK8LNGT8KYRROC11O7NBJ", "current_trial": 85, "dateTime": 1512873696907, "trialdata": {"rt": -1, "stimulus": "<p id=\"stim\">3</p>", "key_press": -1, "trial_type": "single-stim", "trial_index": 85, "time_elapsed": 543995, "internal_node_id": "0.0-60.0-7.0"}}, {"uniqueid": "MTK0913:3JWH6J9I9TK8LNGT8KYRROC11O7NBJ", "current_trial": 86, "dateTime": 1512873697915, "trialdata": {"rt": -1, "stimulus": "<p id=\"stim\">2</p>", "key_press": -1, "trial_type": "single-stim", "trial_index": 86, "time_elapsed": 545004, "internal_node_id": "0.0-60.0-8.0"}}, {"uniqueid": "MTK0913:3JWH6J9I9TK8LNGT8KYRROC11O7NBJ", "current_trial": 87, "dateTime": 1512873698925, "trialdata": {"rt": -1, "stimulus": "<p id=\"stim\">1</p>", "key_press": -1, "trial_type": "single-stim", "trial_index": 87, "time_elapsed": 546014, "internal_node_id": "0.0-60.0-9.0"}}, {"uniqueid": "MTK0913:3JWH6J9I9TK8LNGT8KYRROC11O7NBJ", "current_trial": 88, "dateTime": 1512873700622, "trialdata": {"rt": -1, "stimulus": "<p id=\"stim\">+</p>", "key_press": -1, "type": "FIXATION", "trial_type": "single-stim", "trial_index": 88, "time_elapsed": 547710, "internal_node_id": "0.0-61.0-0.0"}}, {"uniqueid": "MTK0913:3JWH6J9I9TK8LNGT8KYRROC11O7NBJ", "current_trial": 89, "dateTime": 1512873702227, "trialdata": {"rt": -1, "stimulus": "<p id=\"stim\">COLLEGE</p>", "key_press": -1, "type": "PRES_VIS", "word": "college", "wordID": 345, "conditions": [12, 1600, "v", 24000], "trial": 2, "serialpos": 0, "trial_type": "single-stim", "trial_index": 89, "time_elapsed": 549317, "internal_node_id": "0.0-62.0"}}, {"uniqueid": "MTK0913:3JWH6J9I9TK8LNGT8KYRROC11O7NBJ", "current_trial": 90, "dateTime": 1512873704820, "trialdata": {"rt": -1, "stimulus": "<p id=\"stim\">HERO</p>", "key_press": -1, "type": "PRES_VIS", "word": "hero", "wordID": 705, "conditions": [12, 1600, "v", 24000], "trial": 2, "serialpos": 1, "trial_type": "single-stim", "trial_index": 90, "time_elapsed": 551910, "internal_node_id": "0.0-63.0"}}, {"uniqueid": "MTK0913:3JWH6J9I9TK8LNGT8KYRROC11O7NBJ", "current_trial": 91, "dateTime": 1512873707601, "trialdata": {"rt": -1, "stimulus": "<p id=\"stim\">KITCHEN</p>", "key_press": -1, "type": "PRES_VIS", "word": "kitchen", "wordID": 777, "conditions": [12, 1600, "v", 24000], "trial": 2, "serialpos": 2, "trial_type": "single-stim", "trial_index": 91, "time_elapsed": 554690, "internal_node_id": "0.0-64.0"}}, {"uniqueid": "MTK0913:3JWH6J9I9TK8LNGT8KYRROC11O7NBJ", "current_trial": 92, "dateTime": 1512873710017, "trialdata": {"rt": -1, "stimulus": "<p id=\"stim\">COOK</p>", "key_press": -1, "type": "PRES_VIS", "word": "cook", "wordID": 371, "conditions": [12, 1600, "v", 24000], "trial": 2, "serialpos": 3, "trial_type": "single-stim", "trial_index": 92, "time_elapsed": 557106, "internal_node_id": "0.0-65.0"}}, {"uniqueid": "MTK0913:3JWH6J9I9TK8LNGT8KYRROC11O7NBJ", "current_trial": 93, "dateTime": 1512873712714, "trialdata": {"rt": -1, "stimulus": "<p id=\"stim\">BALLOON</p>", "key_press": -1, "type": "PRES_VIS", "word": "balloon", "wordID": 74, "conditions": [12, 1600, "v", 24000], "trial": 2, "serialpos": 4, "trial_type": "single-stim", "trial_index": 93, "time_elapsed": 559803, "internal_node_id": "0.0-66.0"}}, {"uniqueid": "MTK0913:3JWH6J9I9TK8LNGT8KYRROC11O7NBJ", "current_trial": 94, "dateTime": 1512873715167, "trialdata": {"rt": -1, "stimulus": "<p id=\"stim\">PEBBLE</p>", "key_press": -1, "type": "PRES_VIS", "word": "pebble", "wordID": 1034, "conditions": [12, 1600, "v", 24000], "trial": 2, "serialpos": 5, "trial_type": "single-stim", "trial_index": 94, "time_elapsed": 562257, "internal_node_id": "0.0-67.0"}}, {"uniqueid": "MTK0913:3JWH6J9I9TK8LNGT8KYRROC11O7NBJ", "current_trial": 95, "dateTime": 1512873717660, "trialdata": {"rt": -1, "stimulus": "<p id=\"stim\">STUDENT</p>", "key_press": -1, "type": "PRES_VIS", "word": "student", "wordID": 1394, "conditions": [12, 1600, "v", 24000], "trial": 2, "serialpos": 6, "trial_type": "single-stim", "trial_index": 95, "time_elapsed": 564750, "internal_node_id": "0.0-68.0"}}, {"uniqueid": "MTK0913:3JWH6J9I9TK8LNGT8KYRROC11O7NBJ", "current_trial": 96, "dateTime": 1512873720235, "trialdata": {"rt": -1, "stimulus": "<p id=\"stim\">POCKET</p>", "key_press": -1, "type": "PRES_VIS", "word": "pocket", "wordID": 1092, "conditions": [12, 1600, "v", 24000], "trial": 2, "serialpos": 7, "trial_type": "single-stim", "trial_index": 96, "time_elapsed": 567324, "internal_node_id": "0.0-69.0"}}, {"uniqueid": "MTK0913:3JWH6J9I9TK8LNGT8KYRROC11O7NBJ", "current_trial": 97, "dateTime": 1512873722812, "trialdata": {"rt": -1, "stimulus": "<p id=\"stim\">GAVEL</p>", "key_press": -1, "type": "PRES_VIS", "word": "gavel", "wordID": 626, "conditions": [12, 1600, "v", 24000], "trial": 2, "serialpos": 8, "trial_type": "single-stim", "trial_index": 97, "time_elapsed": 569902, "internal_node_id": "0.0-70.0"}}, {"uniqueid": "MTK0913:3JWH6J9I9TK8LNGT8KYRROC11O7NBJ", "current_trial": 98, "dateTime": 1512873725483, "trialdata": {"rt": -1, "stimulus": "<p id=\"stim\">PIZZA</p>", "key_press": -1, "type": "PRES_VIS", "word": "pizza", "wordID": 1078, "conditions": [12, 1600, "v", 24000], "trial": 2, "serialpos": 9, "trial_type": "single-stim", "trial_index": 98, "time_elapsed": 572573, "internal_node_id": "0.0-71.0"}}, {"uniqueid": "MTK0913:3JWH6J9I9TK8LNGT8KYRROC11O7NBJ", "current_trial": 99, "dateTime": 1512873728219, "trialdata": {"rt": -1, "stimulus": "<p id=\"stim\">NIGHTGOWN</p>", "key_press": -1, "type": "PRES_VIS", "word": "nightgown", "wordID": 952, "conditions": [12, 1600, "v", 24000], "trial": 2, "serialpos": 10, "trial_type": "single-stim", "trial_index": 99, "time_elapsed": 575309, "internal_node_id": "0.0-72.0"}}, {"uniqueid": "MTK0913:3JWH6J9I9TK8LNGT8KYRROC11O7NBJ", "current_trial": 100, "dateTime": 1512873730824, "trialdata": {"rt": -1, "stimulus": "<p id=\"stim\">CRAYON</p>", "key_press": -1, "type": "PRES_VIS", "word": "crayon", "wordID": 400, "conditions": [12, 1600, "v", 24000], "trial": 2, "serialpos": 11, "trial_type": "single-stim", "trial_index": 100, "time_elapsed": 577914, "internal_node_id": "0.0-73.0"}}, {"uniqueid": "MTK0913:3JWH6J9I9TK8LNGT8KYRROC11O7NBJ", "current_trial": 101, "dateTime": 1512873733093, "trialdata": {"rt": -1, "stimulus": "", "key_press": -1, "type": "PRE_RECALL_DELAY", "trial_type": "single-stim", "trial_index": 101, "time_elapsed": 580183, "internal_node_id": "0.0-74.0-0.0"}}, {"uniqueid": "MTK0913:3JWH6J9I9TK8LNGT8KYRROC11O7NBJ", "current_trial": 102, "dateTime": 1512873733602, "trialdata": {"rt": -1000, "stimulus": "/static/audio/400Hz.wav", "key_press": -1, "type": "PRE_RECALL_ALERT", "trial_type": "single-audio", "trial_index": 102, "time_elapsed": 580691, "internal_node_id": "0.0-75.0"}}, {"uniqueid": "MTK0913:3JWH6J9I9TK8LNGT8KYRROC11O7NBJ", "current_trial": 103, "dateTime": 1512873793642, "trialdata": {"rt": [5519, 7603, 9433, 10874, 15924, 17804, 46965, 55456, 56795, 58712], "recwords": ["nightgown", "crayon", "pebble", "pizza", "college", "student", "train", "", "", ""], "type": "FREE_RECALL", "conditions": [12, 1600, "v", 24000], "trial": 2, "trial_type": "free-recall", "trial_index": 103, "time_elapsed": 640712, "internal_node_id": "0.0-76.0-0.0"}}, {"uniqueid": "MTK0913:3JWH6J9I9TK8LNGT8KYRROC11O7NBJ", "current_trial": 104, "dateTime": 1512873797632, "trialdata": {"rt": 1983, "key_press": 32, "type": "INSTRUCTIONS", "trial_type": "text", "trial_index": 104, "time_elapsed": 644721, "internal_node_id": "0.0-77.0"}}, {"uniqueid": "MTK0913:3JWH6J9I9TK8LNGT8KYRROC11O7NBJ", "current_trial": 105, "dateTime": 1512873823654, "trialdata": {"rt": [2491, 4241, 5696, 7140, 8737, 10289, 12223, 14145, 15771, 17607, 19333, 22164], "responses": ["12", "16", "11", "10", "20", "11", "9", "24", "16", "13", "11", "17"], "num1": [5, 8, 4, 1, 8, 7, 5, 8, 1, 1, 2, 8, 4], "num2": [4, 4, 3, 7, 8, 2, 2, 7, 9, 5, 8, 2, 3], "num3": [3, 4, 4, 2, 4, 2, 2, 9, 6, 7, 1, 7, 4], "type": "DISTRACTOR", "conditions": [12, 800, "a", 24000], "trial": 3, "trial_type": "math-distractor", "trial_index": 105, "time_elapsed": 670744, "internal_node_id": "0.0-78.0"}}, {"uniqueid": "MTK0913:3JWH6J9I9TK8LNGT8KYRROC11O7NBJ", "current_trial": 106, "dateTime": 1512873826663, "trialdata": {"rt": -1, "stimulus": "<p id=\"stim\">10</p>", "key_press": -1, "trial_type": "single-stim", "trial_index": 106, "time_elapsed": 673751, "internal_node_id": "0.0-79.0-0.0"}}, {"uniqueid": "MTK0913:3JWH6J9I9TK8LNGT8KYRROC11O7NBJ", "current_trial": 107, "dateTime": 1512873827671, "trialdata": {"rt": -1, "stimulus": "<p id=\"stim\">9</p>", "key_press": -1, "trial_type": "single-stim", "trial_index": 107, "time_elapsed": 674758, "internal_node_id": "0.0-79.0-1.0"}}, {"uniqueid": "MTK0913:3JWH6J9I9TK8LNGT8KYRROC11O7NBJ", "current_trial": 108, "dateTime": 1512873828676, "trialdata": {"rt": -1, "stimulus": "<p id=\"stim\">8</p>", "key_press": -1, "trial_type": "single-stim", "trial_index": 108, "time_elapsed": 675766, "internal_node_id": "0.0-79.0-2.0"}}, {"uniqueid": "MTK0913:3JWH6J9I9TK8LNGT8KYRROC11O7NBJ", "current_trial": 109, "dateTime": 1512873829684, "trialdata": {"rt": -1, "stimulus": "<p id=\"stim\">7</p>", "key_press": -1, "trial_type": "single-stim", "trial_index": 109, "time_elapsed": 676774, "internal_node_id": "0.0-79.0-3.0"}}, {"uniqueid": "MTK0913:3JWH6J9I9TK8LNGT8KYRROC11O7NBJ", "current_trial": 110, "dateTime": 1512873830689, "trialdata": {"rt": -1, "stimulus": "<p id=\"stim\">6</p>", "key_press": -1, "trial_type": "single-stim", "trial_index": 110, "time_elapsed": 677779, "internal_node_id": "0.0-79.0-4.0"}}, {"uniqueid": "MTK0913:3JWH6J9I9TK8LNGT8KYRROC11O7NBJ", "current_trial": 111, "dateTime": 1512873831694, "trialdata": {"rt": -1, "stimulus": "<p id=\"stim\">5</p>", "key_press": -1, "trial_type": "single-stim", "trial_index": 111, "time_elapsed": 678783, "internal_node_id": "0.0-79.0-5.0"}}, {"uniqueid": "MTK0913:3JWH6J9I9TK8LNGT8KYRROC11O7NBJ", "current_trial": 112, "dateTime": 1512873832697, "trialdata": {"rt": -1, "stimulus": "<p id=\"stim\">4</p>", "key_press": -1, "trial_type": "single-stim", "trial_index": 112, "time_elapsed": 679787, "internal_node_id": "0.0-79.0-6.0"}}, {"uniqueid": "MTK0913:3JWH6J9I9TK8LNGT8KYRROC11O7NBJ", "current_trial": 113, "dateTime": 1512873833704, "trialdata": {"rt": -1, "stimulus": "<p id=\"stim\">3</p>", "key_press": -1, "trial_type": "single-stim", "trial_index": 113, "time_elapsed": 680793, "internal_node_id": "0.0-79.0-7.0"}}, {"uniqueid": "MTK0913:3JWH6J9I9TK8LNGT8KYRROC11O7NBJ", "current_trial": 114, "dateTime": 1512873834709, "trialdata": {"rt": -1, "stimulus": "<p id=\"stim\">2</p>", "key_press": -1, "trial_type": "single-stim", "trial_index": 114, "time_elapsed": 681799, "internal_node_id": "0.0-79.0-8.0"}}, {"uniqueid": "MTK0913:3JWH6J9I9TK8LNGT8KYRROC11O7NBJ", "current_trial": 115, "dateTime": 1512873835713, "trialdata": {"rt": -1, "stimulus": "<p id=\"stim\">1</p>", "key_press": -1, "trial_type": "single-stim", "trial_index": 115, "time_elapsed": 682803, "internal_node_id": "0.0-79.0-9.0"}}, {"uniqueid": "MTK0913:3JWH6J9I9TK8LNGT8KYRROC11O7NBJ", "current_trial": 116, "dateTime": 1512873837218, "trialdata": {"rt": -1, "stimulus": "<p id=\"stim\">+</p>", "key_press": -1, "type": "FIXATION", "trial_type": "single-stim", "trial_index": 116, "time_elapsed": 684309, "internal_node_id": "0.0-80.0-0.0"}}, {"uniqueid": "MTK0913:3JWH6J9I9TK8LNGT8KYRROC11O7NBJ", "current_trial": 117, "dateTime": 1512873839057, "trialdata": {"rt": -1000, "stimulus": "/static/audio/wordpool/DENIM.wav", "key_press": -1, "type": "PRES_AUD", "word": "denim", "wordID": 445, "conditions": [12, 800, "a", 24000], "trial": 3, "serialpos": 0, "trial_type": "single-audio", "trial_index": 117, "time_elapsed": 686147, "internal_node_id": "0.0-81.0"}}, {"uniqueid": "MTK0913:3JWH6J9I9TK8LNGT8KYRROC11O7NBJ", "current_trial": 118, "dateTime": 1512873840812, "trialdata": {"rt": -1000, "stimulus": "/static/audio/wordpool/HOSTESS.wav", "key_press": -1, "type": "PRES_AUD", "word": "hostess", "wordID": 722, "conditions": [12, 800, "a", 24000], "trial": 3, "serialpos": 1, "trial_type": "single-audio", "trial_index": 118, "time_elapsed": 687902, "internal_node_id": "0.0-82.0"}}, {"uniqueid": "MTK0913:3JWH6J9I9TK8LNGT8KYRROC11O7NBJ", "current_trial": 119, "dateTime": 1512873842788, "trialdata": {"rt": -1000, "stimulus": "/static/audio/wordpool/CREVICE.wav", "key_press": -1, "type": "PRES_AUD", "word": "crevice", "wordID": 404, "conditions": [12, 800, "a", 24000], "trial": 3, "serialpos": 2, "trial_type": "single-audio", "trial_index": 119, "time_elapsed": 689878, "internal_node_id": "0.0-83.0"}}, {"uniqueid": "MTK0913:3JWH6J9I9TK8LNGT8KYRROC11O7NBJ", "current_trial": 120, "dateTime": 1512873844776, "trialdata": {"rt": -1000, "stimulus": "/static/audio/wordpool/INMATE.wav", "key_press": -1, "type": "PRES_AUD", "word": "inmate", "wordID": 737, "conditions": [12, 800, "a", 24000], "trial": 3, "serialpos": 3, "trial_type": "single-audio", "trial_index": 120, "time_elapsed": 691866, "internal_node_id": "0.0-84.0"}}, {"uniqueid": "MTK0913:3JWH6J9I9TK8LNGT8KYRROC11O7NBJ", "current_trial": 121, "dateTime": 1512873846720, "trialdata": {"rt": -1000, "stimulus": "/static/audio/wordpool/PUDDING.wav", "key_press": -1, "type": "PRES_AUD", "word": "pudding", "wordID": 1138, "conditions": [12, 800, "a", 24000], "trial": 3, "serialpos": 4, "trial_type": "single-audio", "trial_index": 121, "time_elapsed": 693810, "internal_node_id": "0.0-85.0"}}, {"uniqueid": "MTK0913:3JWH6J9I9TK8LNGT8KYRROC11O7NBJ", "current_trial": 122, "dateTime": 1512873848570, "trialdata": {"rt": -1000, "stimulus": "/static/audio/wordpool/SLIME.wav", "key_press": -1, "type": "PRES_AUD", "word": "slime", "wordID": 1326, "conditions": [12, 800, "a", 24000], "trial": 3, "serialpos": 5, "trial_type": "single-audio", "trial_index": 122, "time_elapsed": 695660, "internal_node_id": "0.0-86.0"}}, {"uniqueid": "MTK0913:3JWH6J9I9TK8LNGT8KYRROC11O7NBJ", "current_trial": 123, "dateTime": 1512873850222, "trialdata": {"rt": -1000, "stimulus": "/static/audio/wordpool/RAZOR.wav", "key_press": -1, "type": "PRES_AUD", "word": "razor", "wordID": 1170, "conditions": [12, 800, "a", 24000], "trial": 3, "serialpos": 6, "trial_type": "single-audio", "trial_index": 123, "time_elapsed": 697312, "internal_node_id": "0.0-87.0"}}, {"uniqueid": "MTK0913:3JWH6J9I9TK8LNGT8KYRROC11O7NBJ", "current_trial": 124, "dateTime": 1512873851826, "trialdata": {"rt": -1000, "stimulus": "/static/audio/wordpool/CLOTHES.wav", "key_press": -1, "type": "PRES_AUD", "word": "clothes", "wordID": 326, "conditions": [12, 800, "a", 24000], "trial": 3, "serialpos": 7, "trial_type": "single-audio", "trial_index": 124, "time_elapsed": 698916, "internal_node_id": "0.0-88.0"}}, {"uniqueid": "MTK0913:3JWH6J9I9TK8LNGT8KYRROC11O7NBJ", "current_trial": 125, "dateTime": 1512873853679, "trialdata": {"rt": -1000, "stimulus": "/static/audio/wordpool/TRUCK.wav", "key_press": -1, "type": "PRES_AUD", "word": "truck", "wordID": 1511, "conditions": [12, 800, "a", 24000], "trial": 3, "serialpos": 8, "trial_type": "single-audio", "trial_index": 125, "time_elapsed": 700769, "internal_node_id": "0.0-89.0"}}, {"uniqueid": "MTK0913:3JWH6J9I9TK8LNGT8KYRROC11O7NBJ", "current_trial": 126, "dateTime": 1512873855513, "trialdata": {"rt": -1000, "stimulus": "/static/audio/wordpool/DRIVER.wav", "key_press": -1, "type": "PRES_AUD", "word": "driver", "wordID": 498, "conditions": [12, 800, "a", 24000], "trial": 3, "serialpos": 9, "trial_type": "single-audio", "trial_index": 126, "time_elapsed": 702603, "internal_node_id": "0.0-90.0"}}, {"uniqueid": "MTK0913:3JWH6J9I9TK8LNGT8KYRROC11O7NBJ", "current_trial": 127, "dateTime": 1512873857119, "trialdata": {"rt": -1000, "stimulus": "/static/audio/wordpool/CRATER.wav", "key_press": -1, "type": "PRES_AUD", "word": "crater", "wordID": 399, "conditions": [12, 800, "a", 24000], "trial": 3, "serialpos": 10, "trial_type": "single-audio", "trial_index": 127, "time_elapsed": 704209, "internal_node_id": "0.0-91.0"}}, {"uniqueid": "MTK0913:3JWH6J9I9TK8LNGT8KYRROC11O7NBJ", "current_trial": 128, "dateTime": 1512873859060, "trialdata": {"rt": -1000, "stimulus": "/static/audio/wordpool/SHERIFF.wav", "key_press": -1, "type": "PRES_AUD", "word": "sheriff", "wordID": 1283, "conditions": [12, 800, "a", 24000], "trial": 3, "serialpos": 11, "trial_type": "single-audio", "trial_index": 128, "time_elapsed": 706150, "internal_node_id": "0.0-92.0"}}, {"uniqueid": "MTK0913:3JWH6J9I9TK8LNGT8KYRROC11O7NBJ", "current_trial": 129, "dateTime": 1512873860278, "trialdata": {"rt": -1, "stimulus": "", "key_press": -1, "type": "PRE_RECALL_DELAY", "trial_type": "single-stim", "trial_index": 129, "time_elapsed": 707368, "internal_node_id": "0.0-93.0-0.0"}}, {"uniqueid": "MTK0913:3JWH6J9I9TK8LNGT8KYRROC11O7NBJ", "current_trial": 130, "dateTime": 1512873860781, "trialdata": {"rt": -1000, "stimulus": "/static/audio/400Hz.wav", "key_press": -1, "type": "PRE_RECALL_ALERT", "trial_type": "single-audio", "trial_index": 130, "time_elapsed": 707871, "internal_node_id": "0.0-94.0"}}, {"uniqueid": "MTK0913:3JWH6J9I9TK8LNGT8KYRROC11O7NBJ", "current_trial": 131, "dateTime": 1512873920799, "trialdata": {"rt": [6459, 9539, 19331, 21561, 30344, 39519, 56369, 56869, 57223], "recwords": ["preacher", "sheriff", "truck", "clothes", "denim", "razor", "", "", ""], "type": "FREE_RECALL", "conditions": [12, 800, "a", 24000], "trial": 3, "trial_type": "free-recall", "trial_index": 131, "time_elapsed": 767881, "internal_node_id": "0.0-95.0-0.0"}}, {"uniqueid": "MTK0913:3JWH6J9I9TK8LNGT8KYRROC11O7NBJ", "current_trial": 132, "dateTime": 1512873924069, "trialdata": {"rt": 1268, "key_press": 13, "type": "INSTRUCTIONS", "trial_type": "text", "trial_index": 132, "time_elapsed": 771160, "internal_node_id": "0.0-96.0"}}, {"uniqueid": "MTK0913:3JWH6J9I9TK8LNGT8KYRROC11O7NBJ", "current_trial": 133, "dateTime": 1512873938085, "trialdata": {"rt": [2950, 5134, 7291, 8778, 10508], "responses": ["21", "16", "14", "10", "15"], "num1": [9, 7, 3, 3, 6, 2], "num2": [4, 1, 5, 6, 2, 3], "num3": [8, 8, 6, 1, 7, 8], "type": "DISTRACTOR", "conditions": [12, 800, "v", 12000], "trial": 4, "trial_type": "math-distractor", "trial_index": 133, "time_elapsed": 785175, "internal_node_id": "0.0-97.0"}}, {"uniqueid": "MTK0913:3JWH6J9I9TK8LNGT8KYRROC11O7NBJ", "current_trial": 134, "dateTime": 1512873941088, "trialdata": {"rt": -1, "stimulus": "<p id=\"stim\">10</p>", "key_press": -1, "trial_type": "single-stim", "trial_index": 134, "time_elapsed": 788178, "internal_node_id": "0.0-98.0-0.0"}}, {"uniqueid": "MTK0913:3JWH6J9I9TK8LNGT8KYRROC11O7NBJ", "current_trial": 135, "dateTime": 1512873942091, "trialdata": {"rt": -1, "stimulus": "<p id=\"stim\">9</p>", "key_press": -1, "trial_type": "single-stim", "trial_index": 135, "time_elapsed": 789181, "internal_node_id": "0.0-98.0-1.0"}}, {"uniqueid": "MTK0913:3JWH6J9I9TK8LNGT8KYRROC11O7NBJ", "current_trial": 136, "dateTime": 1512873943094, "trialdata": {"rt": -1, "stimulus": "<p id=\"stim\">8</p>", "key_press": -1, "trial_type": "single-stim", "trial_index": 136, "time_elapsed": 790184, "internal_node_id": "0.0-98.0-2.0"}}, {"uniqueid": "MTK0913:3JWH6J9I9TK8LNGT8KYRROC11O7NBJ", "current_trial": 137, "dateTime": 1512873944097, "trialdata": {"rt": -1, "stimulus": "<p id=\"stim\">7</p>", "key_press": -1, "trial_type": "single-stim", "trial_index": 137, "time_elapsed": 791187, "internal_node_id": "0.0-98.0-3.0"}}, {"uniqueid": "MTK0913:3JWH6J9I9TK8LNGT8KYRROC11O7NBJ", "current_trial": 138, "dateTime": 1512873945100, "trialdata": {"rt": -1, "stimulus": "<p id=\"stim\">6</p>", "key_press": -1, "trial_type": "single-stim", "trial_index": 138, "time_elapsed": 792190, "internal_node_id": "0.0-98.0-4.0"}}, {"uniqueid": "MTK0913:3JWH6J9I9TK8LNGT8KYRROC11O7NBJ", "current_trial": 139, "dateTime": 1512873946103, "trialdata": {"rt": -1, "stimulus": "<p id=\"stim\">5</p>", "key_press": -1, "trial_type": "single-stim", "trial_index": 139, "time_elapsed": 793193, "internal_node_id": "0.0-98.0-5.0"}}, {"uniqueid": "MTK0913:3JWH6J9I9TK8LNGT8KYRROC11O7NBJ", "current_trial": 140, "dateTime": 1512873947196, "trialdata": {"rt": -1, "stimulus": "<p id=\"stim\">4</p>", "key_press": -1, "trial_type": "single-stim", "trial_index": 140, "time_elapsed": 794287, "internal_node_id": "0.0-98.0-6.0"}}, {"uniqueid": "MTK0913:3JWH6J9I9TK8LNGT8KYRROC11O7NBJ", "current_trial": 141, "dateTime": 1512873948200, "trialdata": {"rt": -1, "stimulus": "<p id=\"stim\">3</p>", "key_press": -1, "trial_type": "single-stim", "trial_index": 141, "time_elapsed": 795290, "internal_node_id": "0.0-98.0-7.0"}}, {"uniqueid": "MTK0913:3JWH6J9I9TK8LNGT8KYRROC11O7NBJ", "current_trial": 142, "dateTime": 1512873949206, "trialdata": {"rt": -1, "stimulus": "<p id=\"stim\">2</p>", "key_press": -1, "trial_type": "single-stim", "trial_index": 142, "time_elapsed": 796295, "internal_node_id": "0.0-98.0-8.0"}}, {"uniqueid": "MTK0913:3JWH6J9I9TK8LNGT8KYRROC11O7NBJ", "current_trial": 143, "dateTime": 1512873950209, "trialdata": {"rt": -1, "stimulus": "<p id=\"stim\">1</p>", "key_press": -1, "trial_type": "single-stim", "trial_index": 143, "time_elapsed": 797299, "internal_node_id": "0.0-98.0-9.0"}}, {"uniqueid": "MTK0913:3JWH6J9I9TK8LNGT8KYRROC11O7NBJ", "current_trial": 144, "dateTime": 1512873951712, "trialdata": {"rt": -1, "stimulus": "<p id=\"stim\">+</p>", "key_press": -1, "type": "FIXATION", "trial_type": "single-stim", "trial_index": 144, "time_elapsed": 798802, "internal_node_id": "0.0-99.0-0.0"}}, {"uniqueid": "MTK0913:3JWH6J9I9TK8LNGT8KYRROC11O7NBJ", "current_trial": 145, "dateTime": 1512873952515, "trialdata": {"rt": -1, "stimulus": "<p id=\"stim\">TRACTOR</p>", "key_press": -1, "type": "PRES_VIS", "word": "tractor", "wordID": 1492, "conditions": [12, 800, "v", 12000], "trial": 4, "serialpos": 0, "trial_type": "single-stim", "trial_index": 145, "time_elapsed": 799605, "internal_node_id": "0.0-100.0"}}, {"uniqueid": "MTK0913:3JWH6J9I9TK8LNGT8KYRROC11O7NBJ", "current_trial": 146, "dateTime": 1512873954198, "trialdata": {"rt": -1, "stimulus": "<p id=\"stim\">SAUSAGE</p>", "key_press": -1, "type": "PRES_VIS", "word": "sausage", "wordID": 1237, "conditions": [12, 800, "v", 12000], "trial": 4, "serialpos": 1, "trial_type": "single-stim", "trial_index": 146, "time_elapsed": 801288, "internal_node_id": "0.0-101.0"}}, {"uniqueid": "MTK0913:3JWH6J9I9TK8LNGT8KYRROC11O7NBJ", "current_trial": 147, "dateTime": 1512873956146, "trialdata": {"rt": -1, "stimulus": "<p id=\"stim\">BOUQUET</p>", "key_press": -1, "type": "PRES_VIS", "word": "bouquet", "wordID": 156, "conditions": [12, 800, "v", 12000], "trial": 4, "serialpos": 2, "trial_type": "single-stim", "trial_index": 147, "time_elapsed": 803236, "internal_node_id": "0.0-102.0"}}, {"uniqueid": "MTK0913:3JWH6J9I9TK8LNGT8KYRROC11O7NBJ", "current_trial": 148, "dateTime": 1512873957954, "trialdata": {"rt": -1, "stimulus": "<p id=\"stim\">CHAPEL</p>", "key_press": -1, "type": "PRES_VIS", "word": "chapel", "wordID": 279, "conditions": [12, 800, "v", 12000], "trial": 4, "serialpos": 3, "trial_type": "single-stim", "trial_index": 148, "time_elapsed": 805044, "internal_node_id": "0.0-103.0"}}, {"uniqueid": "MTK0913:3JWH6J9I9TK8LNGT8KYRROC11O7NBJ", "current_trial": 149, "dateTime": 1512873959805, "trialdata": {"rt": -1, "stimulus": "<p id=\"stim\">APPLE</p>", "key_press": -1, "type": "PRES_VIS", "word": "apple", "wordID": 32, "conditions": [12, 800, "v", 12000], "trial": 4, "serialpos": 4, "trial_type": "single-stim", "trial_index": 149, "time_elapsed": 806895, "internal_node_id": "0.0-104.0"}}, {"uniqueid": "MTK0913:3JWH6J9I9TK8LNGT8KYRROC11O7NBJ", "current_trial": 150, "dateTime": 1512873961474, "trialdata": {"rt": -1, "stimulus": "<p id=\"stim\">PEACH</p>", "key_press": -1, "type": "PRES_VIS", "word": "peach", "wordID": 1030, "conditions": [12, 800, "v", 12000], "trial": 4, "serialpos": 5, "trial_type": "single-stim", "trial_index": 150, "time_elapsed": 808564, "internal_node_id": "0.0-105.0"}}, {"uniqueid": "MTK0913:3JWH6J9I9TK8LNGT8KYRROC11O7NBJ", "current_trial": 151, "dateTime": 1512873963285, "trialdata": {"rt": -1, "stimulus": "<p id=\"stim\">SCRIBBLE</p>", "key_press": -1, "type": "PRES_VIS", "word": "scribble", "wordID": 1255, "conditions": [12, 800, "v", 12000], "trial": 4, "serialpos": 6, "trial_type": "single-stim", "trial_index": 151, "time_elapsed": 810375, "internal_node_id": "0.0-106.0"}}, {"uniqueid": "MTK0913:3JWH6J9I9TK8LNGT8KYRROC11O7NBJ", "current_trial": 152, "dateTime": 1512873964962, "trialdata": {"rt": -1, "stimulus": "<p id=\"stim\">FRUIT</p>", "key_press": -1, "type": "PRES_VIS", "word": "fruit", "wordID": 609, "conditions": [12, 800, "v", 12000], "trial": 4, "serialpos": 7, "trial_type": "single-stim", "trial_index": 152, "time_elapsed": 812052, "internal_node_id": "0.0-107.0"}}, {"uniqueid": "MTK0913:3JWH6J9I9TK8LNGT8KYRROC11O7NBJ", "current_trial": 153, "dateTime": 1512873966722, "trialdata": {"rt": -1, "stimulus": "<p id=\"stim\">SNAIL</p>", "key_press": -1, "type": "PRES_VIS", "word": "snail", "wordID": 1331, "conditions": [12, 800, "v", 12000], "trial": 4, "serialpos": 8, "trial_type": "single-stim", "trial_index": 153, "time_elapsed": 813812, "internal_node_id": "0.0-108.0"}}, {"uniqueid": "MTK0913:3JWH6J9I9TK8LNGT8KYRROC11O7NBJ", "current_trial": 154, "dateTime": 1512873968670, "trialdata": {"rt": -1, "stimulus": "<p id=\"stim\">CRIB</p>", "key_press": -1, "type": "PRES_VIS", "word": "crib", "wordID": 406, "conditions": [12, 800, "v", 12000], "trial": 4, "serialpos": 9, "trial_type": "single-stim", "trial_index": 154, "time_elapsed": 815760, "internal_node_id": "0.0-109.0"}}, {"uniqueid": "MTK0913:3JWH6J9I9TK8LNGT8KYRROC11O7NBJ", "current_trial": 155, "dateTime": 1512873970633, "trialdata": {"rt": -1, "stimulus": "<p id=\"stim\">CHEST</p>", "key_press": -1, "type": "PRES_VIS", "word": "chest", "wordID": 294, "conditions": [12, 800, "v", 12000], "trial": 4, "serialpos": 10, "trial_type": "single-stim", "trial_index": 155, "time_elapsed": 817723, "internal_node_id": "0.0-110.0"}}, {"uniqueid": "MTK0913:3JWH6J9I9TK8LNGT8KYRROC11O7NBJ", "current_trial": 156, "dateTime": 1512873972522, "trialdata": {"rt": -1, "stimulus": "<p id=\"stim\">TORTOISE</p>", "key_press": -1, "type": "PRES_VIS", "word": "tortoise", "wordID": 1485, "conditions": [12, 800, "v", 12000], "trial": 4, "serialpos": 11, "trial_type": "single-stim", "trial_index": 156, "time_elapsed": 819612, "internal_node_id": "0.0-111.0"}}, {"uniqueid": "MTK0913:3JWH6J9I9TK8LNGT8KYRROC11O7NBJ", "current_trial": 157, "dateTime": 1512873974782, "trialdata": {"rt": -1, "stimulus": "", "key_press": -1, "type": "PRE_RECALL_DELAY", "trial_type": "single-stim", "trial_index": 157, "time_elapsed": 821872, "internal_node_id": "0.0-112.0-0.0"}}, {"uniqueid": "MTK0913:3JWH6J9I9TK8LNGT8KYRROC11O7NBJ", "current_trial": 158, "dateTime": 1512873975287, "trialdata": {"rt": -1000, "stimulus": "/static/audio/400Hz.wav", "key_press": -1, "type": "PRE_RECALL_ALERT", "trial_type": "single-audio", "trial_index": 158, "time_elapsed": 822377, "internal_node_id": "0.0-113.0"}}, {"uniqueid": "MTK0913:3JWH6J9I9TK8LNGT8KYRROC11O7NBJ", "current_trial": 159, "dateTime": 1512874035316, "trialdata": {"rt": [3182, 5582, 7628, 9174, 11376, 23485, 40574, 48020, 48229, 48425], "recwords": ["apple", "peach", "snail", "fruit", "tortoise", "rock", "baggage", "", "", ""], "type": "FREE_RECALL", "conditions": [12, 800, "v", 12000], "trial": 4, "trial_type": "free-recall", "trial_index": 159, "time_elapsed": 882388, "internal_node_id": "0.0-114.0-0.0"}}, {"uniqueid": "MTK0913:3JWH6J9I9TK8LNGT8KYRROC11O7NBJ", "current_trial": 160, "dateTime": 1512874076986, "trialdata": {"rt": 39665, "key_press": 32, "type": "INSTRUCTIONS", "trial_type": "text", "trial_index": 160, "time_elapsed": 924076, "internal_node_id": "0.0-115.0"}}, {"uniqueid": "MTK0913:3JWH6J9I9TK8LNGT8KYRROC11O7NBJ", "current_trial": 161, "dateTime": 1512874091006, "trialdata": {"rt": [2298, 4019, 6416, 8464, 9840, 11995], "responses": ["19", "21", "22", "21", "11", "15"], "num1": [7, 8, 7, 7, 9, 6, 6], "num2": [4, 4, 8, 8, 1, 5, 7], "num3": [8, 9, 7, 6, 1, 4, 1], "type": "DISTRACTOR", "conditions": [12, 1600, "a", 12000], "trial": 5, "trial_type": "math-distractor", "trial_index": 161, "time_elapsed": 938097, "internal_node_id": "0.0-116.0"}}, {"uniqueid": "MTK0913:3JWH6J9I9TK8LNGT8KYRROC11O7NBJ", "current_trial": 162, "dateTime": 1512874094010, "trialdata": {"rt": -1, "stimulus": "<p id=\"stim\">10</p>", "key_press": -1, "trial_type": "single-stim", "trial_index": 162, "time_elapsed": 941100, "internal_node_id": "0.0-117.0-0.0"}}, {"uniqueid": "MTK0913:3JWH6J9I9TK8LNGT8KYRROC11O7NBJ", "current_trial": 163, "dateTime": 1512874095013, "trialdata": {"rt": -1, "stimulus": "<p id=\"stim\">9</p>", "key_press": -1, "trial_type": "single-stim", "trial_index": 163, "time_elapsed": 942103, "internal_node_id": "0.0-117.0-1.0"}}, {"uniqueid": "MTK0913:3JWH6J9I9TK8LNGT8KYRROC11O7NBJ", "current_trial": 164, "dateTime": 1512874096016, "trialdata": {"rt": -1, "stimulus": "<p id=\"stim\">8</p>", "key_press": -1, "trial_type": "single-stim", "trial_index": 164, "time_elapsed": 943106, "internal_node_id": "0.0-117.0-2.0"}}, {"uniqueid": "MTK0913:3JWH6J9I9TK8LNGT8KYRROC11O7NBJ", "current_trial": 165, "dateTime": 1512874097019, "trialdata": {"rt": -1, "stimulus": "<p id=\"stim\">7</p>", "key_press": -1, "trial_type": "single-stim", "trial_index": 165, "time_elapsed": 944109, "internal_node_id": "0.0-117.0-3.0"}}, {"uniqueid": "MTK0913:3JWH6J9I9TK8LNGT8KYRROC11O7NBJ", "current_trial": 166, "dateTime": 1512874098022, "trialdata": {"rt": -1, "stimulus": "<p id=\"stim\">6</p>", "key_press": -1, "trial_type": "single-stim", "trial_index": 166, "time_elapsed": 945113, "internal_node_id": "0.0-117.0-4.0"}}, {"uniqueid": "MTK0913:3JWH6J9I9TK8LNGT8KYRROC11O7NBJ", "current_trial": 167, "dateTime": 1512874099025, "trialdata": {"rt": -1, "stimulus": "<p id=\"stim\">5</p>", "key_press": -1, "trial_type": "single-stim", "trial_index": 167, "time_elapsed": 946115, "internal_node_id": "0.0-117.0-5.0"}}, {"uniqueid": "MTK0913:3JWH6J9I9TK8LNGT8KYRROC11O7NBJ", "current_trial": 168, "dateTime": 1512874100029, "trialdata": {"rt": -1, "stimulus": "<p id=\"stim\">4</p>", "key_press": -1, "trial_type": "single-stim", "trial_index": 168, "time_elapsed": 947119, "internal_node_id": "0.0-117.0-6.0"}}, {"uniqueid": "MTK0913:3JWH6J9I9TK8LNGT8KYRROC11O7NBJ", "current_trial": 169, "dateTime": 1512874101033, "trialdata": {"rt": -1, "stimulus": "<p id=\"stim\">3</p>", "key_press": -1, "trial_type": "single-stim", "trial_index": 169, "time_elapsed": 948123, "internal_node_id": "0.0-117.0-7.0"}}, {"uniqueid": "MTK0913:3JWH6J9I9TK8LNGT8KYRROC11O7NBJ", "current_trial": 170, "dateTime": 1512874102036, "trialdata": {"rt": -1, "stimulus": "<p id=\"stim\">2</p>", "key_press": -1, "trial_type": "single-stim", "trial_index": 170, "time_elapsed": 949126, "internal_node_id": "0.0-117.0-8.0"}}, {"uniqueid": "MTK0913:3JWH6J9I9TK8LNGT8KYRROC11O7NBJ", "current_trial": 171, "dateTime": 1512874103039, "trialdata": {"rt": -1, "stimulus": "<p id=\"stim\">1</p>", "key_press": -1, "trial_type": "single-stim", "trial_index": 171, "time_elapsed": 950129, "internal_node_id": "0.0-117.0-9.0"}}, {"uniqueid": "MTK0913:3JWH6J9I9TK8LNGT8KYRROC11O7NBJ", "current_trial": 172, "dateTime": 1512874104542, "trialdata": {"rt": -1, "stimulus": "<p id=\"stim\">+</p>", "key_press": -1, "type": "FIXATION", "trial_type": "single-stim", "trial_index": 172, "time_elapsed": 951632, "internal_node_id": "0.0-118.0-0.0"}}, {"uniqueid": "MTK0913:3JWH6J9I9TK8LNGT8KYRROC11O7NBJ", "current_trial": 173, "dateTime": 1512874107033, "trialdata": {"rt": -1000, "stimulus": "/static/audio/wordpool/PASTRY.wav", "key_press": -1, "type": "PRES_AUD", "word": "pastry", "wordID": 1021, "conditions": [12, 1600, "a", 12000], "trial": 5, "serialpos": 0, "trial_type": "single-audio", "trial_index": 173, "time_elapsed": 954123, "internal_node_id": "0.0-119.0"}}, {"uniqueid": "MTK0913:3JWH6J9I9TK8LNGT8KYRROC11O7NBJ", "current_trial": 174, "dateTime": 1512874109451, "trialdata": {"rt": -1000, "stimulus": "/static/audio/wordpool/NECKLACE.wav", "key_press": -1, "type": "PRES_AUD", "word": "necklace", "wordID": 939, "conditions": [12, 1600, "a", 12000], "trial": 5, "serialpos": 1, "trial_type": "single-audio", "trial_index": 174, "time_elapsed": 956541, "internal_node_id": "0.0-120.0"}}, {"uniqueid": "MTK0913:3JWH6J9I9TK8LNGT8KYRROC11O7NBJ", "current_trial": 175, "dateTime": 1512874112110, "trialdata": {"rt": -1000, "stimulus": "/static/audio/wordpool/SUPPER.wav", "key_press": -1, "type": "PRES_AUD", "word": "supper", "wordID": 1410, "conditions": [12, 1600, "a", 12000], "trial": 5, "serialpos": 2, "trial_type": "single-audio", "trial_index": 175, "time_elapsed": 959200, "internal_node_id": "0.0-121.0"}}, {"uniqueid": "MTK0913:3JWH6J9I9TK8LNGT8KYRROC11O7NBJ", "current_trial": 176, "dateTime": 1512874114550, "trialdata": {"rt": -1000, "stimulus": "/static/audio/wordpool/ANTLER.wav", "key_press": -1, "type": "PRES_AUD", "word": "antler", "wordID": 28, "conditions": [12, 1600, "a", 12000], "trial": 5, "serialpos": 3, "trial_type": "single-audio", "trial_index": 176, "time_elapsed": 961640, "internal_node_id": "0.0-122.0"}}, {"uniqueid": "MTK0913:3JWH6J9I9TK8LNGT8KYRROC11O7NBJ", "current_trial": 177, "dateTime": 1512874117192, "trialdata": {"rt": -1000, "stimulus": "/static/audio/wordpool/FLOWER.wav", "key_press": -1, "type": "PRES_AUD", "word": "flower", "wordID": 583, "conditions": [12, 1600, "a", 12000], "trial": 5, "serialpos": 4, "trial_type": "single-audio", "trial_index": 177, "time_elapsed": 964282, "internal_node_id": "0.0-123.0"}}, {"uniqueid": "MTK0913:3JWH6J9I9TK8LNGT8KYRROC11O7NBJ", "current_trial": 178, "dateTime": 1512874119897, "trialdata": {"rt": -1000, "stimulus": "/static/audio/wordpool/CIGAR.wav", "key_press": -1, "type": "PRES_AUD", "word": "cigar", "wordID": 307, "conditions": [12, 1600, "a", 12000], "trial": 5, "serialpos": 5, "trial_type": "single-audio", "trial_index": 178, "time_elapsed": 966987, "internal_node_id": "0.0-124.0"}}, {"uniqueid": "MTK0913:3JWH6J9I9TK8LNGT8KYRROC11O7NBJ", "current_trial": 179, "dateTime": 1512874122609, "trialdata": {"rt": -1000, "stimulus": "/static/audio/wordpool/WITNESS.wav", "key_press": -1, "type": "PRES_AUD", "word": "witness", "wordID": 1617, "conditions": [12, 1600, "a", 12000], "trial": 5, "serialpos": 6, "trial_type": "single-audio", "trial_index": 179, "time_elapsed": 969699, "internal_node_id": "0.0-125.0"}}, {"uniqueid": "MTK0913:3JWH6J9I9TK8LNGT8KYRROC11O7NBJ", "current_trial": 180, "dateTime": 1512874125335, "trialdata": {"rt": -1000, "stimulus": "/static/audio/wordpool/BEAKER.wav", "key_press": -1, "type": "PRES_AUD", "word": "beaker", "wordID": 103, "conditions": [12, 1600, "a", 12000], "trial": 5, "serialpos": 7, "trial_type": "single-audio", "trial_index": 180, "time_elapsed": 972425, "internal_node_id": "0.0-126.0"}}, {"uniqueid": "MTK0913:3JWH6J9I9TK8LNGT8KYRROC11O7NBJ", "current_trial": 181, "dateTime": 1512874127771, "trialdata": {"rt": -1000, "stimulus": "/static/audio/wordpool/GRAPE.wav", "key_press": -1, "type": "PRES_AUD", "word": "grape", "wordID": 653, "conditions": [12, 1600, "a", 12000], "trial": 5, "serialpos": 8, "trial_type": "single-audio", "trial_index": 181, "time_elapsed": 974861, "internal_node_id": "0.0-127.0"}}, {"uniqueid": "MTK0913:3JWH6J9I9TK8LNGT8KYRROC11O7NBJ", "current_trial": 182, "dateTime": 1512874130404, "trialdata": {"rt": -1000, "stimulus": "/static/audio/wordpool/BARLEY.wav", "key_press": -1, "type": "PRES_AUD", "word": "barley", "wordID": 87, "conditions": [12, 1600, "a", 12000], "trial": 5, "serialpos": 9, "trial_type": "single-audio", "trial_index": 182, "time_elapsed": 977494, "internal_node_id": "0.0-128.0"}}, {"uniqueid": "MTK0913:3JWH6J9I9TK8LNGT8KYRROC11O7NBJ", "current_trial": 183, "dateTime": 1512874132954, "trialdata": {"rt": -1000, "stimulus": "/static/audio/wordpool/GARDEN.wav", "key_press": -1, "type": "PRES_AUD", "word": "garden", "wordID": 622, "conditions": [12, 1600, "a", 12000], "trial": 5, "serialpos": 10, "trial_type": "single-audio", "trial_index": 183, "time_elapsed": 980044, "internal_node_id": "0.0-129.0"}}, {"uniqueid": "MTK0913:3JWH6J9I9TK8LNGT8KYRROC11O7NBJ", "current_trial": 184, "dateTime": 1512874135503, "trialdata": {"rt": -1000, "stimulus": "/static/audio/wordpool/MARROW.wav", "key_press": -1, "type": "PRES_AUD", "word": "marrow", "wordID": 871, "conditions": [12, 1600, "a", 12000], "trial": 5, "serialpos": 11, "trial_type": "single-audio", "trial_index": 184, "time_elapsed": 982593, "internal_node_id": "0.0-130.0"}}, {"uniqueid": "MTK0913:3JWH6J9I9TK8LNGT8KYRROC11O7NBJ", "current_trial": 185, "dateTime": 1512874136828, "trialdata": {"rt": -1, "stimulus": "", "key_press": -1, "type": "PRE_RECALL_DELAY", "trial_type": "single-stim", "trial_index": 185, "time_elapsed": 983919, "internal_node_id": "0.0-131.0-0.0"}}, {"uniqueid": "MTK0913:3JWH6J9I9TK8LNGT8KYRROC11O7NBJ", "current_trial": 186, "dateTime": 1512874137344, "trialdata": {"rt": -1000, "stimulus": "/static/audio/400Hz.wav", "key_press": -1, "type": "PRE_RECALL_ALERT", "trial_type": "single-audio", "trial_index": 186, "time_elapsed": 984434, "internal_node_id": "0.0-132.0"}}, {"uniqueid": "MTK0913:3JWH6J9I9TK8LNGT8KYRROC11O7NBJ", "current_trial": 187, "dateTime": 1512874197370, "trialdata": {"rt": [3991, 5953, 7640, 11091, 17032, 21766, 38534, 55742, 55988, 56172, 58595, 58836], "recwords": ["marrow", "garden", "barley", "anchor", "garden", "flower", "cotton", "", "", "", "", ""], "type": "FREE_RECALL", "conditions": [12, 1600, "a", 12000], "trial": 5, "trial_type": "free-recall", "trial_index": 187, "time_elapsed": 1044447, "internal_node_id": "0.0-133.0-0.0"}}, {"uniqueid": "MTK0913:3JWH6J9I9TK8LNGT8KYRROC11O7NBJ", "current_trial": 188, "dateTime": 1512874201108, "trialdata": {"rt": 1729, "key_press": 32, "type": "INSTRUCTIONS", "trial_type": "text", "trial_index": 188, "time_elapsed": 1048198, "internal_node_id": "0.0-134.0"}}, {"uniqueid": "MTK0913:3JWH6J9I9TK8LNGT8KYRROC11O7NBJ", "current_trial": 189, "dateTime": 1512874215121, "trialdata": {"rt": [3007, 6244, 8135, 10220], "responses": ["19", "20", "15", "18"], "num1": [4, 8, 6, 9, 7], "num2": [8, 5, 1, 4, 5], "num3": [7, 7, 8, 5, 1], "type": "DISTRACTOR", "conditions": [12, 800, "a", 12000], "trial": 6, "trial_type": "math-distractor", "trial_index": 189, "time_elapsed": 1062211, "internal_node_id": "0.0-135.0"}}, {"uniqueid": "MTK0913:3JWH6J9I9TK8LNGT8KYRROC11O7NBJ", "current_trial": 190, "dateTime": 1512874218124, "trialdata": {"rt": -1, "stimulus": "<p id=\"stim\">10</p>", "key_press": -1, "trial_type": "single-stim", "trial_index": 190, "time_elapsed": 1065214, "internal_node_id": "0.0-136.0-0.0"}}, {"uniqueid": "MTK0913:3JWH6J9I9TK8LNGT8KYRROC11O7NBJ", "current_trial": 191, "dateTime": 1512874219127, "trialdata": {"rt": -1, "stimulus": "<p id=\"stim\">9</p>", "key_press": -1, "trial_type": "single-stim", "trial_index": 191, "time_elapsed": 1066217, "internal_node_id": "0.0-136.0-1.0"}}, {"uniqueid": "MTK0913:3JWH6J9I9TK8LNGT8KYRROC11O7NBJ", "current_trial": 192, "dateTime": 1512874220130, "trialdata": {"rt": -1, "stimulus": "<p id=\"stim\">8</p>", "key_press": -1, "trial_type": "single-stim", "trial_index": 192, "time_elapsed": 1067220, "internal_node_id": "0.0-136.0-2.0"}}, {"uniqueid": "MTK0913:3JWH6J9I9TK8LNGT8KYRROC11O7NBJ", "current_trial": 193, "dateTime": 1512874221133, "trialdata": {"rt": -1, "stimulus": "<p id=\"stim\">7</p>", "key_press": -1, "trial_type": "single-stim", "trial_index": 193, "time_elapsed": 1068223, "internal_node_id": "0.0-136.0-3.0"}}, {"uniqueid": "MTK0913:3JWH6J9I9TK8LNGT8KYRROC11O7NBJ", "current_trial": 194, "dateTime": 1512874222136, "trialdata": {"rt": -1, "stimulus": "<p id=\"stim\">6</p>", "key_press": -1, "trial_type": "single-stim", "trial_index": 194, "time_elapsed": 1069226, "internal_node_id": "0.0-136.0-4.0"}}, {"uniqueid": "MTK0913:3JWH6J9I9TK8LNGT8KYRROC11O7NBJ", "current_trial": 195, "dateTime": 1512874223139, "trialdata": {"rt": -1, "stimulus": "<p id=\"stim\">5</p>", "key_press": -1, "trial_type": "single-stim", "trial_index": 195, "time_elapsed": 1070229, "internal_node_id": "0.0-136.0-5.0"}}, {"uniqueid": "MTK0913:3JWH6J9I9TK8LNGT8KYRROC11O7NBJ", "current_trial": 196, "dateTime": 1512874224142, "trialdata": {"rt": -1, "stimulus": "<p id=\"stim\">4</p>", "key_press": -1, "trial_type": "single-stim", "trial_index": 196, "time_elapsed": 1071232, "internal_node_id": "0.0-136.0-6.0"}}, {"uniqueid": "MTK0913:3JWH6J9I9TK8LNGT8KYRROC11O7NBJ", "current_trial": 197, "dateTime": 1512874225482, "trialdata": {"rt": -1, "stimulus": "<p id=\"stim\">3</p>", "key_press": -1, "trial_type": "single-stim", "trial_index": 197, "time_elapsed": 1072572, "internal_node_id": "0.0-136.0-7.0"}}, {"uniqueid": "MTK0913:3JWH6J9I9TK8LNGT8KYRROC11O7NBJ", "current_trial": 198, "dateTime": 1512874226488, "trialdata": {"rt": -1, "stimulus": "<p id=\"stim\">2</p>", "key_press": -1, "trial_type": "single-stim", "trial_index": 198, "time_elapsed": 1073579, "internal_node_id": "0.0-136.0-8.0"}}, {"uniqueid": "MTK0913:3JWH6J9I9TK8LNGT8KYRROC11O7NBJ", "current_trial": 199, "dateTime": 1512874227492, "trialdata": {"rt": -1, "stimulus": "<p id=\"stim\">1</p>", "key_press": -1, "trial_type": "single-stim", "trial_index": 199, "time_elapsed": 1074582, "internal_node_id": "0.0-136.0-9.0"}}, {"uniqueid": "MTK0913:3JWH6J9I9TK8LNGT8KYRROC11O7NBJ", "current_trial": 200, "dateTime": 1512874228995, "trialdata": {"rt": -1, "stimulus": "<p id=\"stim\">+</p>", "key_press": -1, "type": "FIXATION", "trial_type": "single-stim", "trial_index": 200, "time_elapsed": 1076085, "internal_node_id": "0.0-137.0-0.0"}}, {"uniqueid": "MTK0913:3JWH6J9I9TK8LNGT8KYRROC11O7NBJ", "current_trial": 201, "dateTime": 1512874230943, "trialdata": {"rt": -1000, "stimulus": "/static/audio/wordpool/TURKEY.wav", "key_press": -1, "type": "PRES_AUD", "word": "turkey", "wordID": 1519, "conditions": [12, 800, "a", 12000], "trial": 6, "serialpos": 0, "trial_type": "single-audio", "trial_index": 201, "time_elapsed": 1078009, "internal_node_id": "0.0-138.0"}}, {"uniqueid": "MTK0913:3JWH6J9I9TK8LNGT8KYRROC11O7NBJ", "current_trial": 202, "dateTime": 1512874232575, "trialdata": {"rt": -1000, "stimulus": "/static/audio/wordpool/LIZARD.wav", "key_press": -1, "type": "PRES_AUD", "word": "lizard", "wordID": 833, "conditions": [12, 800, "a", 12000], "trial": 6, "serialpos": 1, "trial_type": "single-audio", "trial_index": 202, "time_elapsed": 1079663, "internal_node_id": "0.0-139.0"}}, {"uniqueid": "MTK0913:3JWH6J9I9TK8LNGT8KYRROC11O7NBJ", "current_trial": 203, "dateTime": 1512874234419, "trialdata": {"rt": -1000, "stimulus": "/static/audio/wordpool/TURTLE.wav", "key_press": -1, "type": "PRES_AUD", "word": "turtle", "wordID": 1521, "conditions": [12, 800, "a", 12000], "trial": 6, "serialpos": 2, "trial_type": "single-audio", "trial_index": 203, "time_elapsed": 1081509, "internal_node_id": "0.0-140.0"}}, {"uniqueid": "MTK0913:3JWH6J9I9TK8LNGT8KYRROC11O7NBJ", "current_trial": 204, "dateTime": 1512874236251, "trialdata": {"rt": -1000, "stimulus": "/static/audio/wordpool/LASER.wav", "key_press": -1, "type": "PRES_AUD", "word": "laser", "wordID": 800, "conditions": [12, 800, "a", 12000], "trial": 6, "serialpos": 3, "trial_type": "single-audio", "trial_index": 204, "time_elapsed": 1083341, "internal_node_id": "0.0-141.0"}}, {"uniqueid": "MTK0913:3JWH6J9I9TK8LNGT8KYRROC11O7NBJ", "current_trial": 205, "dateTime": 1512874238104, "trialdata": {"rt": -1000, "stimulus": "/static/audio/wordpool/COUSIN.wav", "key_press": -1, "type": "PRES_AUD", "word": "cousin", "wordID": 391, "conditions": [12, 800, "a", 12000], "trial": 6, "serialpos": 4, "trial_type": "single-audio", "trial_index": 205, "time_elapsed": 1085194, "internal_node_id": "0.0-142.0"}}, {"uniqueid": "MTK0913:3JWH6J9I9TK8LNGT8KYRROC11O7NBJ", "current_trial": 206, "dateTime": 1512874239934, "trialdata": {"rt": -1000, "stimulus": "/static/audio/wordpool/WARDROBE.wav", "key_press": -1, "type": "PRES_AUD", "word": "wardrobe", "wordID": 1586, "conditions": [12, 800, "a", 12000], "trial": 6, "serialpos": 5, "trial_type": "single-audio", "trial_index": 206, "time_elapsed": 1087024, "internal_node_id": "0.0-143.0"}}, {"uniqueid": "MTK0913:3JWH6J9I9TK8LNGT8KYRROC11O7NBJ", "current_trial": 207, "dateTime": 1512874241663, "trialdata": {"rt": -1000, "stimulus": "/static/audio/wordpool/COSTUME.wav", "key_press": -1, "type": "PRES_AUD", "word": "costume", "wordID": 382, "conditions": [12, 800, "a", 12000], "trial": 6, "serialpos": 6, "trial_type": "single-audio", "trial_index": 207, "time_elapsed": 1088753, "internal_node_id": "0.0-144.0"}}, {"uniqueid": "MTK0913:3JWH6J9I9TK8LNGT8KYRROC11O7NBJ", "current_trial": 208, "dateTime": 1512874243569, "trialdata": {"rt": -1000, "stimulus": "/static/audio/wordpool/SHARK.wav", "key_press": -1, "type": "PRES_AUD", "word": "shark", "wordID": 1274, "conditions": [12, 800, "a", 12000], "trial": 6, "serialpos": 7, "trial_type": "single-audio", "trial_index": 208, "time_elapsed": 1090659, "internal_node_id": "0.0-145.0"}}, {"uniqueid": "MTK0913:3JWH6J9I9TK8LNGT8KYRROC11O7NBJ", "current_trial": 209, "dateTime": 1512874245359, "trialdata": {"rt": -1000, "stimulus": "/static/audio/wordpool/TURNIP.wav", "key_press": -1, "type": "PRES_AUD", "word": "turnip", "wordID": 1520, "conditions": [12, 800, "a", 12000], "trial": 6, "serialpos": 8, "trial_type": "single-audio", "trial_index": 209, "time_elapsed": 1092450, "internal_node_id": "0.0-146.0"}}, {"uniqueid": "MTK0913:3JWH6J9I9TK8LNGT8KYRROC11O7NBJ", "current_trial": 210, "dateTime": 1512874247211, "trialdata": {"rt": -1000, "stimulus": "/static/audio/wordpool/MATCH.wav", "key_press": -1, "type": "PRES_AUD", "word": "match", "wordID": 877, "conditions": [12, 800, "a", 12000], "trial": 6, "serialpos": 9, "trial_type": "single-audio", "trial_index": 210, "time_elapsed": 1094301, "internal_node_id": "0.0-147.0"}}, {"uniqueid": "MTK0913:3JWH6J9I9TK8LNGT8KYRROC11O7NBJ", "current_trial": 211, "dateTime": 1512874249174, "trialdata": {"rt": -1000, "stimulus": "/static/audio/wordpool/SOFTBALL.wav", "key_press": -1, "type": "PRES_AUD", "word": "softball", "wordID": 1342, "conditions": [12, 800, "a", 12000], "trial": 6, "serialpos": 10, "trial_type": "single-audio", "trial_index": 211, "time_elapsed": 1096264, "internal_node_id": "0.0-148.0"}}, {"uniqueid": "MTK0913:3JWH6J9I9TK8LNGT8KYRROC11O7NBJ", "current_trial": 212, "dateTime": 1512874251011, "trialdata": {"rt": -1000, "stimulus": "/static/audio/wordpool/QUAIL.wav", "key_press": -1, "type": "PRES_AUD", "word": "quail", "wordID": 1146, "conditions": [12, 800, "a", 12000], "trial": 6, "serialpos": 11, "trial_type": "single-audio", "trial_index": 212, "time_elapsed": 1098101, "internal_node_id": "0.0-149.0"}}, {"uniqueid": "MTK0913:3JWH6J9I9TK8LNGT8KYRROC11O7NBJ", "current_trial": 213, "dateTime": 1512874252252, "trialdata": {"rt": -1, "stimulus": "", "key_press": -1, "type": "PRE_RECALL_DELAY", "trial_type": "single-stim", "trial_index": 213, "time_elapsed": 1099342, "internal_node_id": "0.0-150.0-0.0"}}, {"uniqueid": "MTK0913:3JWH6J9I9TK8LNGT8KYRROC11O7NBJ", "current_trial": 214, "dateTime": 1512874252755, "trialdata": {"rt": -1000, "stimulus": "/static/audio/400Hz.wav", "key_press": -1, "type": "PRE_RECALL_ALERT", "trial_type": "single-audio", "trial_index": 214, "time_elapsed": 1099845, "internal_node_id": "0.0-151.0"}}, {"uniqueid": "MTK0913:3JWH6J9I9TK8LNGT8KYRROC11O7NBJ", "current_trial": 215, "dateTime": 1512874312780, "trialdata": {"rt": [5697, 8072, 10050, 12424, 21916, 24632, 26407, 50868, 51100, 51315, 51518, 51737], "recwords": ["softball", "quail", "turkey", "turnip", "snail", "lizard", "laser", "", "", "", "", ""], "type": "FREE_RECALL", "conditions": [12, 800, "a", 12000], "trial": 6, "trial_type": "free-recall", "trial_index": 215, "time_elapsed": 1159855, "internal_node_id": "0.0-152.0-0.0"}}, {"uniqueid": "MTK0913:3JWH6J9I9TK8LNGT8KYRROC11O7NBJ", "current_trial": 216, "dateTime": 1512874609502, "trialdata": {"rt": 294714, "key_press": 32, "type": "INSTRUCTIONS", "trial_type": "text", "trial_index": 216, "time_elapsed": 1456590, "internal_node_id": "0.0-153.0"}}, {"uniqueid": "MTK0913:3JWH6J9I9TK8LNGT8KYRROC11O7NBJ", "current_trial": 217, "dateTime": 1512874635492, "trialdata": {"rt": [2342, 4165, 6395, 9765, 11977, 13847, 15515, 17619, 19176, 20540, 23768], "responses": ["19", "16", "19", "26", "7", "20", "15", "15", "10", "8", "26"], "num1": [8, 9, 7, 9, 2, 4, 6, 4, 7, 6, 3, 8], "num2": [8, 6, 9, 8, 3, 4, 3, 5, 1, 1, 8, 5], "num3": [3, 1, 5, 9, 2, 8, 6, 6, 2, 1, 9, 9], "type": "DISTRACTOR", "conditions": [24, 800, "v", 24000], "trial": 7, "trial_type": "math-distractor", "trial_index": 217, "time_elapsed": 1482580, "internal_node_id": "0.0-154.0"}}, {"uniqueid": "MTK0913:3JWH6J9I9TK8LNGT8KYRROC11O7NBJ", "current_trial": 218, "dateTime": 1512874638501, "trialdata": {"rt": -1, "stimulus": "<p id=\"stim\">10</p>", "key_press": -1, "trial_type": "single-stim", "trial_index": 218, "time_elapsed": 1485591, "internal_node_id": "0.0-155.0-0.0"}}, {"uniqueid": "MTK0913:3JWH6J9I9TK8LNGT8KYRROC11O7NBJ", "current_trial": 219, "dateTime": 1512874639508, "trialdata": {"rt": -1, "stimulus": "<p id=\"stim\">9</p>", "key_press": -1, "trial_type": "single-stim", "trial_index": 219, "time_elapsed": 1486598, "internal_node_id": "0.0-155.0-1.0"}}, {"uniqueid": "MTK0913:3JWH6J9I9TK8LNGT8KYRROC11O7NBJ", "current_trial": 220, "dateTime": 1512874640518, "trialdata": {"rt": -1, "stimulus": "<p id=\"stim\">8</p>", "key_press": -1, "trial_type": "single-stim", "trial_index": 220, "time_elapsed": 1487606, "internal_node_id": "0.0-155.0-2.0"}}, {"uniqueid": "MTK0913:3JWH6J9I9TK8LNGT8KYRROC11O7NBJ", "current_trial": 221, "dateTime": 1512874641538, "trialdata": {"rt": -1, "stimulus": "<p id=\"stim\">7</p>", "key_press": -1, "trial_type": "single-stim", "trial_index": 221, "time_elapsed": 1488627, "internal_node_id": "0.0-155.0-3.0"}}, {"uniqueid": "MTK0913:3JWH6J9I9TK8LNGT8KYRROC11O7NBJ", "current_trial": 222, "dateTime": 1512874642546, "trialdata": {"rt": -1, "stimulus": "<p id=\"stim\">6</p>", "key_press": -1, "trial_type": "single-stim", "trial_index": 222, "time_elapsed": 1489635, "internal_node_id": "0.0-155.0-4.0"}}, {"uniqueid": "MTK0913:3JWH6J9I9TK8LNGT8KYRROC11O7NBJ", "current_trial": 223, "dateTime": 1512874643553, "trialdata": {"rt": -1, "stimulus": "<p id=\"stim\">5</p>", "key_press": -1, "trial_type": "single-stim", "trial_index": 223, "time_elapsed": 1490642, "internal_node_id": "0.0-155.0-5.0"}}, {"uniqueid": "MTK0913:3JWH6J9I9TK8LNGT8KYRROC11O7NBJ", "current_trial": 224, "dateTime": 1512874644561, "trialdata": {"rt": -1, "stimulus": "<p id=\"stim\">4</p>", "key_press": -1, "trial_type": "single-stim", "trial_index": 224, "time_elapsed": 1491650, "internal_node_id": "0.0-155.0-6.0"}}, {"uniqueid": "MTK0913:3JWH6J9I9TK8LNGT8KYRROC11O7NBJ", "current_trial": 225, "dateTime": 1512874645566, "trialdata": {"rt": -1, "stimulus": "<p id=\"stim\">3</p>", "key_press": -1, "trial_type": "single-stim", "trial_index": 225, "time_elapsed": 1492656, "internal_node_id": "0.0-155.0-7.0"}}, {"uniqueid": "MTK0913:3JWH6J9I9TK8LNGT8KYRROC11O7NBJ", "current_trial": 226, "dateTime": 1512874646789, "trialdata": {"rt": -1, "stimulus": "<p id=\"stim\">2</p>", "key_press": -1, "trial_type": "single-stim", "trial_index": 226, "time_elapsed": 1493879, "internal_node_id": "0.0-155.0-8.0"}}, {"uniqueid": "MTK0913:3JWH6J9I9TK8LNGT8KYRROC11O7NBJ", "current_trial": 227, "dateTime": 1512874647794, "trialdata": {"rt": -1, "stimulus": "<p id=\"stim\">1</p>", "key_press": -1, "trial_type": "single-stim", "trial_index": 227, "time_elapsed": 1494884, "internal_node_id": "0.0-155.0-9.0"}}, {"uniqueid": "MTK0913:3JWH6J9I9TK8LNGT8KYRROC11O7NBJ", "current_trial": 228, "dateTime": 1512874649298, "trialdata": {"rt": -1, "stimulus": "<p id=\"stim\">+</p>", "key_press": -1, "type": "FIXATION", "trial_type": "single-stim", "trial_index": 228, "time_elapsed": 1496388, "internal_node_id": "0.0-156.0-0.0"}}, {"uniqueid": "MTK0913:3JWH6J9I9TK8LNGT8KYRROC11O7NBJ", "current_trial": 229, "dateTime": 1512874650102, "trialdata": {"rt": -1, "stimulus": "<p id=\"stim\">STONE</p>", "key_press": -1, "type": "PRES_VIS", "word": "stone", "wordID": 1384, "conditions": [24, 800, "v", 24000], "trial": 7, "serialpos": 0, "trial_type": "single-stim", "trial_index": 229, "time_elapsed": 1497192, "internal_node_id": "0.0-157.0"}}, {"uniqueid": "MTK0913:3JWH6J9I9TK8LNGT8KYRROC11O7NBJ", "current_trial": 230, "dateTime": 1512874651961, "trialdata": {"rt": -1, "stimulus": "<p id=\"stim\">DASHBOARD</p>", "key_press": -1, "type": "PRES_VIS", "word": "dashboard", "wordID": 440, "conditions": [24, 800, "v", 24000], "trial": 7, "serialpos": 1, "trial_type": "single-stim", "trial_index": 230, "time_elapsed": 1499049, "internal_node_id": "0.0-158.0"}}, {"uniqueid": "MTK0913:3JWH6J9I9TK8LNGT8KYRROC11O7NBJ", "current_trial": 231, "dateTime": 1512874653860, "trialdata": {"rt": -1, "stimulus": "<p id=\"stim\">EYELASH</p>", "key_press": -1, "type": "PRES_VIS", "word": "eyelash", "wordID": 545, "conditions": [24, 800, "v", 24000], "trial": 7, "serialpos": 2, "trial_type": "single-stim", "trial_index": 231, "time_elapsed": 1500949, "internal_node_id": "0.0-159.0"}}, {"uniqueid": "MTK0913:3JWH6J9I9TK8LNGT8KYRROC11O7NBJ", "current_trial": 232, "dateTime": 1512874655754, "trialdata": {"rt": -1, "stimulus": "<p id=\"stim\">SHELTER</p>", "key_press": -1, "type": "PRES_VIS", "word": "shelter", "wordID": 1281, "conditions": [24, 800, "v", 24000], "trial": 7, "serialpos": 3, "trial_type": "single-stim", "trial_index": 232, "time_elapsed": 1502844, "internal_node_id": "0.0-160.0"}}, {"uniqueid": "MTK0913:3JWH6J9I9TK8LNGT8KYRROC11O7NBJ", "current_trial": 233, "dateTime": 1512874657626, "trialdata": {"rt": -1, "stimulus": "<p id=\"stim\">TUNNEL</p>", "key_press": -1, "type": "PRES_VIS", "word": "tunnel", "wordID": 1518, "conditions": [24, 800, "v", 24000], "trial": 7, "serialpos": 4, "trial_type": "single-stim", "trial_index": 233, "time_elapsed": 1504716, "internal_node_id": "0.0-161.0"}}, {"uniqueid": "MTK0913:3JWH6J9I9TK8LNGT8KYRROC11O7NBJ", "current_trial": 234, "dateTime": 1512874659258, "trialdata": {"rt": -1, "stimulus": "<p id=\"stim\">CLAM</p>", "key_press": -1, "type": "PRES_VIS", "word": "clam", "wordID": 314, "conditions": [24, 800, "v", 24000], "trial": 7, "serialpos": 5, "trial_type": "single-stim", "trial_index": 234, "time_elapsed": 1506348, "internal_node_id": "0.0-162.0"}}, {"uniqueid": "MTK0913:3JWH6J9I9TK8LNGT8KYRROC11O7NBJ", "current_trial": 235, "dateTime": 1512874661246, "trialdata": {"rt": -1, "stimulus": "<p id=\"stim\">POPCORN</p>", "key_press": -1, "type": "PRES_VIS", "word": "popcorn", "wordID": 1103, "conditions": [24, 800, "v", 24000], "trial": 7, "serialpos": 6, "trial_type": "single-stim", "trial_index": 235, "time_elapsed": 1508336, "internal_node_id": "0.0-163.0"}}, {"uniqueid": "MTK0913:3JWH6J9I9TK8LNGT8KYRROC11O7NBJ", "current_trial": 236, "dateTime": 1512874662955, "trialdata": {"rt": -1, "stimulus": "<p id=\"stim\">SHRUB</p>", "key_press": -1, "type": "PRES_VIS", "word": "shrub", "wordID": 1298, "conditions": [24, 800, "v", 24000], "trial": 7, "serialpos": 7, "trial_type": "single-stim", "trial_index": 236, "time_elapsed": 1510045, "internal_node_id": "0.0-164.0"}}, {"uniqueid": "MTK0913:3JWH6J9I9TK8LNGT8KYRROC11O7NBJ", "current_trial": 237, "dateTime": 1512874664832, "trialdata": {"rt": -1, "stimulus": "<p id=\"stim\">FRIEND</p>", "key_press": -1, "type": "PRES_VIS", "word": "friend", "wordID": 605, "conditions": [24, 800, "v", 24000], "trial": 7, "serialpos": 8, "trial_type": "single-stim", "trial_index": 237, "time_elapsed": 1511922, "internal_node_id": "0.0-165.0"}}, {"uniqueid": "MTK0913:3JWH6J9I9TK8LNGT8KYRROC11O7NBJ", "current_trial": 238, "dateTime": 1512874666514, "trialdata": {"rt": -1, "stimulus": "<p id=\"stim\">BRICK</p>", "key_press": -1, "type": "PRES_VIS", "word": "brick", "wordID": 171, "conditions": [24, 800, "v", 24000], "trial": 7, "serialpos": 9, "trial_type": "single-stim", "trial_index": 238, "time_elapsed": 1513603, "internal_node_id": "0.0-166.0"}}, {"uniqueid": "MTK0913:3JWH6J9I9TK8LNGT8KYRROC11O7NBJ", "current_trial": 239, "dateTime": 1512874668381, "trialdata": {"rt": -1, "stimulus": "<p id=\"stim\">SISTER</p>", "key_press": -1, "type": "PRES_VIS", "word": "sister", "wordID": 1311, "conditions": [24, 800, "v", 24000], "trial": 7, "serialpos": 10, "trial_type": "single-stim", "trial_index": 239, "time_elapsed": 1515471, "internal_node_id": "0.0-167.0"}}, {"uniqueid": "MTK0913:3JWH6J9I9TK8LNGT8KYRROC11O7NBJ", "current_trial": 240, "dateTime": 1512874669993, "trialdata": {"rt": -1, "stimulus": "<p id=\"stim\">UNCLE</p>", "key_press": -1, "type": "PRES_VIS", "word": "uncle", "wordID": 1535, "conditions": [24, 800, "v", 24000], "trial": 7, "serialpos": 11, "trial_type": "single-stim", "trial_index": 240, "time_elapsed": 1517083, "internal_node_id": "0.0-168.0"}}, {"uniqueid": "MTK0913:3JWH6J9I9TK8LNGT8KYRROC11O7NBJ", "current_trial": 241, "dateTime": 1512874671894, "trialdata": {"rt": -1, "stimulus": "<p id=\"stim\">BROTHER</p>", "key_press": -1, "type": "PRES_VIS", "word": "brother", "wordID": 178, "conditions": [24, 800, "v", 24000], "trial": 7, "serialpos": 12, "trial_type": "single-stim", "trial_index": 241, "time_elapsed": 1518984, "internal_node_id": "0.0-169.0"}}, {"uniqueid": "MTK0913:3JWH6J9I9TK8LNGT8KYRROC11O7NBJ", "current_trial": 242, "dateTime": 1512874673823, "trialdata": {"rt": -1, "stimulus": "<p id=\"stim\">BABY</p>", "key_press": -1, "type": "PRES_VIS", "word": "baby", "wordID": 63, "conditions": [24, 800, "v", 24000], "trial": 7, "serialpos": 13, "trial_type": "single-stim", "trial_index": 242, "time_elapsed": 1520913, "internal_node_id": "0.0-170.0"}}, {"uniqueid": "MTK0913:3JWH6J9I9TK8LNGT8KYRROC11O7NBJ", "current_trial": 243, "dateTime": 1512874675495, "trialdata": {"rt": -1, "stimulus": "<p id=\"stim\">SUITCASE</p>", "key_press": -1, "type": "PRES_VIS", "word": "suitcase", "wordID": 1402, "conditions": [24, 800, "v", 24000], "trial": 7, "serialpos": 14, "trial_type": "single-stim", "trial_index": 243, "time_elapsed": 1522585, "internal_node_id": "0.0-171.0"}}, {"uniqueid": "MTK0913:3JWH6J9I9TK8LNGT8KYRROC11O7NBJ", "current_trial": 244, "dateTime": 1512874677283, "trialdata": {"rt": -1, "stimulus": "<p id=\"stim\">SERVANT</p>", "key_press": -1, "type": "PRES_VIS", "word": "servant", "wordID": 1270, "conditions": [24, 800, "v", 24000], "trial": 7, "serialpos": 15, "trial_type": "single-stim", "trial_index": 244, "time_elapsed": 1524372, "internal_node_id": "0.0-172.0"}}, {"uniqueid": "MTK0913:3JWH6J9I9TK8LNGT8KYRROC11O7NBJ", "current_trial": 245, "dateTime": 1512874678907, "trialdata": {"rt": -1, "stimulus": "<p id=\"stim\">HORNET</p>", "key_press": -1, "type": "PRES_VIS", "word": "hornet", "wordID": 717, "conditions": [24, 800, "v", 24000], "trial": 7, "serialpos": 16, "trial_type": "single-stim", "trial_index": 245, "time_elapsed": 1525996, "internal_node_id": "0.0-173.0"}}, {"uniqueid": "MTK0913:3JWH6J9I9TK8LNGT8KYRROC11O7NBJ", "current_trial": 246, "dateTime": 1512874680832, "trialdata": {"rt": -1, "stimulus": "<p id=\"stim\">LIGHTNING</p>", "key_press": -1, "type": "PRES_VIS", "word": "lightning", "wordID": 819, "conditions": [24, 800, "v", 24000], "trial": 7, "serialpos": 17, "trial_type": "single-stim", "trial_index": 246, "time_elapsed": 1527922, "internal_node_id": "0.0-174.0"}}, {"uniqueid": "MTK0913:3JWH6J9I9TK8LNGT8KYRROC11O7NBJ", "current_trial": 247, "dateTime": 1512874682741, "trialdata": {"rt": -1, "stimulus": "<p id=\"stim\">DINER</p>", "key_press": -1, "type": "PRES_VIS", "word": "diner", "wordID": 466, "conditions": [24, 800, "v", 24000], "trial": 7, "serialpos": 18, "trial_type": "single-stim", "trial_index": 247, "time_elapsed": 1529830, "internal_node_id": "0.0-175.0"}}, {"uniqueid": "MTK0913:3JWH6J9I9TK8LNGT8KYRROC11O7NBJ", "current_trial": 248, "dateTime": 1512874684627, "trialdata": {"rt": -1, "stimulus": "<p id=\"stim\">LUGGAGE</p>", "key_press": -1, "type": "PRES_VIS", "word": "luggage", "wordID": 846, "conditions": [24, 800, "v", 24000], "trial": 7, "serialpos": 19, "trial_type": "single-stim", "trial_index": 248, "time_elapsed": 1531717, "internal_node_id": "0.0-176.0"}}, {"uniqueid": "MTK0913:3JWH6J9I9TK8LNGT8KYRROC11O7NBJ", "current_trial": 249, "dateTime": 1512874686293, "trialdata": {"rt": -1, "stimulus": "<p id=\"stim\">COMET</p>", "key_press": -1, "type": "PRES_VIS", "word": "comet", "wordID": 352, "conditions": [24, 800, "v", 24000], "trial": 7, "serialpos": 20, "trial_type": "single-stim", "trial_index": 249, "time_elapsed": 1533383, "internal_node_id": "0.0-177.0"}}, {"uniqueid": "MTK0913:3JWH6J9I9TK8LNGT8KYRROC11O7NBJ", "current_trial": 250, "dateTime": 1512874687951, "trialdata": {"rt": -1, "stimulus": "<p id=\"stim\">GYMNAST</p>", "key_press": -1, "type": "PRES_VIS", "word": "gymnast", "wordID": 674, "conditions": [24, 800, "v", 24000], "trial": 7, "serialpos": 21, "trial_type": "single-stim", "trial_index": 250, "time_elapsed": 1535041, "internal_node_id": "0.0-178.0"}}, {"uniqueid": "MTK0913:3JWH6J9I9TK8LNGT8KYRROC11O7NBJ", "current_trial": 251, "dateTime": 1512874689831, "trialdata": {"rt": -1, "stimulus": "<p id=\"stim\">DANCER</p>", "key_press": -1, "type": "PRES_VIS", "word": "dancer", "wordID": 436, "conditions": [24, 800, "v", 24000], "trial": 7, "serialpos": 22, "trial_type": "single-stim", "trial_index": 251, "time_elapsed": 1536921, "internal_node_id": "0.0-179.0"}}, {"uniqueid": "MTK0913:3JWH6J9I9TK8LNGT8KYRROC11O7NBJ", "current_trial": 252, "dateTime": 1512874691761, "trialdata": {"rt": -1, "stimulus": "<p id=\"stim\">TUTU</p>", "key_press": -1, "type": "PRES_VIS", "word": "tutu", "wordID": 1523, "conditions": [24, 800, "v", 24000], "trial": 7, "serialpos": 23, "trial_type": "single-stim", "trial_index": 252, "time_elapsed": 1538851, "internal_node_id": "0.0-180.0"}}, {"uniqueid": "MTK0913:3JWH6J9I9TK8LNGT8KYRROC11O7NBJ", "current_trial": 253, "dateTime": 1512874693781, "trialdata": {"rt": -1, "stimulus": "", "key_press": -1, "type": "PRE_RECALL_DELAY", "trial_type": "single-stim", "trial_index": 253, "time_elapsed": 1540871, "internal_node_id": "0.0-181.0-0.0"}}, {"uniqueid": "MTK0913:3JWH6J9I9TK8LNGT8KYRROC11O7NBJ", "current_trial": 254, "dateTime": 1512874694288, "trialdata": {"rt": -1000, "stimulus": "/static/audio/400Hz.wav", "key_press": -1, "type": "PRE_RECALL_ALERT", "trial_type": "single-audio", "trial_index": 254, "time_elapsed": 1541377, "internal_node_id": "0.0-182.0"}}, {"uniqueid": "MTK0913:3JWH6J9I9TK8LNGT8KYRROC11O7NBJ", "current_trial": 255, "dateTime": 1512874754333, "trialdata": {"rt": [3599, 6513, 9284, 10879, 13052, 15256, 16880, 21049, 31532, 43965, 57839, 58053, 58230, 58415, 58557], "recwords": ["dancer", "tutu", "luggage", "baby", "brother", "sister", "uncle", "damage", "staircase", "lightning", "", "", "", "", ""], "type": "FREE_RECALL", "conditions": [24, 800, "v", 24000], "trial": 7, "trial_type": "free-recall", "trial_index": 255, "time_elapsed": 1601396, "internal_node_id": "0.0-183.0-0.0"}}, {"uniqueid": "MTK0913:3JWH6J9I9TK8LNGT8KYRROC11O7NBJ", "current_trial": 256, "dateTime": 1512874758783, "trialdata": {"rt": 2441, "key_press": 32, "type": "INSTRUCTIONS", "trial_type": "text", "trial_index": 256, "time_elapsed": 1605871, "internal_node_id": "0.0-184.0"}}, {"uniqueid": "MTK0913:3JWH6J9I9TK8LNGT8KYRROC11O7NBJ", "current_trial": 257, "dateTime": 1512874784805, "trialdata": {"rt": [2385, 4469, 6342, 7785, 9680, 11785, 13345, 14993, 16664, 18442, 20655, 22863], "responses": ["15", "17", "14", "14", "18", "13", "8", "21", "13", "16", "18", "23"], "num1": [8, 4, 7, 6, 6, 7, 3, 9, 9, 9, 9, 8, 7], "num2": [3, 7, 6, 1, 3, 3, 1, 9, 2, 6, 5, 6, 9], "num3": [4, 6, 1, 7, 9, 3, 4, 3, 2, 1, 4, 9, 2], "type": "DISTRACTOR", "conditions": [12, 800, "v", 24000], "trial": 8, "trial_type": "math-distractor", "trial_index": 257, "time_elapsed": 1631893, "internal_node_id": "0.0-185.0"}}, {"uniqueid": "MTK0913:3JWH6J9I9TK8LNGT8KYRROC11O7NBJ", "current_trial": 258, "dateTime": 1512874787810, "trialdata": {"rt": -1, "stimulus": "<p id=\"stim\">10</p>", "key_press": -1, "trial_type": "single-stim", "trial_index": 258, "time_elapsed": 1634901, "internal_node_id": "0.0-186.0-0.0"}}, {"uniqueid": "MTK0913:3JWH6J9I9TK8LNGT8KYRROC11O7NBJ", "current_trial": 259, "dateTime": 1512874788816, "trialdata": {"rt": -1, "stimulus": "<p id=\"stim\">9</p>", "key_press": -1, "trial_type": "single-stim", "trial_index": 259, "time_elapsed": 1635906, "internal_node_id": "0.0-186.0-1.0"}}, {"uniqueid": "MTK0913:3JWH6J9I9TK8LNGT8KYRROC11O7NBJ", "current_trial": 260, "dateTime": 1512874789822, "trialdata": {"rt": -1, "stimulus": "<p id=\"stim\">8</p>", "key_press": -1, "trial_type": "single-stim", "trial_index": 260, "time_elapsed": 1636912, "internal_node_id": "0.0-186.0-2.0"}}, {"uniqueid": "MTK0913:3JWH6J9I9TK8LNGT8KYRROC11O7NBJ", "current_trial": 261, "dateTime": 1512874790826, "trialdata": {"rt": -1, "stimulus": "<p id=\"stim\">7</p>", "key_press": -1, "trial_type": "single-stim", "trial_index": 261, "time_elapsed": 1637917, "internal_node_id": "0.0-186.0-3.0"}}, {"uniqueid": "MTK0913:3JWH6J9I9TK8LNGT8KYRROC11O7NBJ", "current_trial": 262, "dateTime": 1512874791831, "trialdata": {"rt": -1, "stimulus": "<p id=\"stim\">6</p>", "key_press": -1, "trial_type": "single-stim", "trial_index": 262, "time_elapsed": 1638921, "internal_node_id": "0.0-186.0-4.0"}}, {"uniqueid": "MTK0913:3JWH6J9I9TK8LNGT8KYRROC11O7NBJ", "current_trial": 263, "dateTime": 1512874792835, "trialdata": {"rt": -1, "stimulus": "<p id=\"stim\">5</p>", "key_press": -1, "trial_type": "single-stim", "trial_index": 263, "time_elapsed": 1639925, "internal_node_id": "0.0-186.0-5.0"}}, {"uniqueid": "MTK0913:3JWH6J9I9TK8LNGT8KYRROC11O7NBJ", "current_trial": 264, "dateTime": 1512874793838, "trialdata": {"rt": -1, "stimulus": "<p id=\"stim\">4</p>", "key_press": -1, "trial_type": "single-stim", "trial_index": 264, "time_elapsed": 1640928, "internal_node_id": "0.0-186.0-6.0"}}, {"uniqueid": "MTK0913:3JWH6J9I9TK8LNGT8KYRROC11O7NBJ", "current_trial": 265, "dateTime": 1512874794845, "trialdata": {"rt": -1, "stimulus": "<p id=\"stim\">3</p>", "key_press": -1, "trial_type": "single-stim", "trial_index": 265, "time_elapsed": 1641933, "internal_node_id": "0.0-186.0-7.0"}}, {"uniqueid": "MTK0913:3JWH6J9I9TK8LNGT8KYRROC11O7NBJ", "current_trial": 266, "dateTime": 1512874796489, "trialdata": {"rt": -1, "stimulus": "<p id=\"stim\">2</p>", "key_press": -1, "trial_type": "single-stim", "trial_index": 266, "time_elapsed": 1643579, "internal_node_id": "0.0-186.0-8.0"}}, {"uniqueid": "MTK0913:3JWH6J9I9TK8LNGT8KYRROC11O7NBJ", "current_trial": 267, "dateTime": 1512874797494, "trialdata": {"rt": -1, "stimulus": "<p id=\"stim\">1</p>", "key_press": -1, "trial_type": "single-stim", "trial_index": 267, "time_elapsed": 1644584, "internal_node_id": "0.0-186.0-9.0"}}, {"uniqueid": "MTK0913:3JWH6J9I9TK8LNGT8KYRROC11O7NBJ", "current_trial": 268, "dateTime": 1512874798999, "trialdata": {"rt": -1, "stimulus": "<p id=\"stim\">+</p>", "key_press": -1, "type": "FIXATION", "trial_type": "single-stim", "trial_index": 268, "time_elapsed": 1646089, "internal_node_id": "0.0-187.0-0.0"}}, {"uniqueid": "MTK0913:3JWH6J9I9TK8LNGT8KYRROC11O7NBJ", "current_trial": 269, "dateTime": 1512874799802, "trialdata": {"rt": -1, "stimulus": "<p id=\"stim\">BARREL</p>", "key_press": -1, "type": "PRES_VIS", "word": "barrel", "wordID": 90, "conditions": [12, 800, "v", 24000], "trial": 8, "serialpos": 0, "trial_type": "single-stim", "trial_index": 269, "time_elapsed": 1646893, "internal_node_id": "0.0-188.0"}}, {"uniqueid": "MTK0913:3JWH6J9I9TK8LNGT8KYRROC11O7NBJ", "current_trial": 270, "dateTime": 1512874801604, "trialdata": {"rt": -1, "stimulus": "<p id=\"stim\">GALLON</p>", "key_press": -1, "type": "PRES_VIS", "word": "gallon", "wordID": 617, "conditions": [12, 800, "v", 24000], "trial": 8, "serialpos": 1, "trial_type": "single-stim", "trial_index": 270, "time_elapsed": 1648694, "internal_node_id": "0.0-189.0"}}, {"uniqueid": "MTK0913:3JWH6J9I9TK8LNGT8KYRROC11O7NBJ", "current_trial": 271, "dateTime": 1512874803530, "trialdata": {"rt": -1, "stimulus": "<p id=\"stim\">STATUE</p>", "key_press": -1, "type": "PRES_VIS", "word": "statue", "wordID": 1373, "conditions": [12, 800, "v", 24000], "trial": 8, "serialpos": 2, "trial_type": "single-stim", "trial_index": 271, "time_elapsed": 1650620, "internal_node_id": "0.0-190.0"}}, {"uniqueid": "MTK0913:3JWH6J9I9TK8LNGT8KYRROC11O7NBJ", "current_trial": 272, "dateTime": 1512874805447, "trialdata": {"rt": -1, "stimulus": "<p id=\"stim\">HARP</p>", "key_press": -1, "type": "PRES_VIS", "word": "harp", "wordID": 688, "conditions": [12, 800, "v", 24000], "trial": 8, "serialpos": 3, "trial_type": "single-stim", "trial_index": 272, "time_elapsed": 1652538, "internal_node_id": "0.0-191.0"}}, {"uniqueid": "MTK0913:3JWH6J9I9TK8LNGT8KYRROC11O7NBJ", "current_trial": 273, "dateTime": 1512874807080, "trialdata": {"rt": -1, "stimulus": "<p id=\"stim\">CREATURE</p>", "key_press": -1, "type": "PRES_VIS", "word": "creature", "wordID": 402, "conditions": [12, 800, "v", 24000], "trial": 8, "serialpos": 4, "trial_type": "single-stim", "trial_index": 273, "time_elapsed": 1654170, "internal_node_id": "0.0-192.0"}}, {"uniqueid": "MTK0913:3JWH6J9I9TK8LNGT8KYRROC11O7NBJ", "current_trial": 274, "dateTime": 1512874808795, "trialdata": {"rt": -1, "stimu