{"condition": 0, "counterbalance": 2373, "assignmentId": "3IAS3U3I0GNCW1R0M107Z093OLF2BO", "workerId": "MTK0588", "hitId": "3M67TQBQQHVGQR9DBUAOPS1RYZHA9X", "currenttrial": 626, "bonus": 0, "data": [{"uniqueid": "MTK0588:3IAS3U3I0GNCW1R0M107Z093OLF2BO", "current_trial": 0, "dateTime": 1511556150202, "trialdata": {"rt": 8852, "key_press": 190, "type": "INSTRUCTIONS", "trial_type": "text", "trial_index": 0, "time_elapsed": 8854, "internal_node_id": "0.0-0.0"}}, {"uniqueid": "MTK0588:3IAS3U3I0GNCW1R0M107Z093OLF2BO", "current_trial": 1, "dateTime": 1511556221341, "trialdata": {"rt": 71138, "key_press": 74, "type": "INSTRUCTIONS", "trial_type": "text", "trial_index": 1, "time_elapsed": 79994, "internal_node_id": "0.0-1.0"}}, {"uniqueid": "MTK0588:3IAS3U3I0GNCW1R0M107Z093OLF2BO", "current_trial": 2, "dateTime": 1511556232189, "trialdata": {"rt": [10805], "responses": ["ocean"], "type": "AUDIO_TEST", "trial_type": "audio-test", "trial_index": 2, "time_elapsed": 90842, "internal_node_id": "0.0-2.0"}}, {"uniqueid": "MTK0588:3IAS3U3I0GNCW1R0M107Z093OLF2BO", "current_trial": 3, "dateTime": 1511556237584, "trialdata": {"rt": [5390], "responses": ["crystal"], "type": "AUDIO_TEST", "trial_type": "audio-test", "trial_index": 3, "time_elapsed": 96237, "internal_node_id": "0.0-3.0"}}, {"uniqueid": "MTK0588:3IAS3U3I0GNCW1R0M107Z093OLF2BO", "current_trial": 4, "dateTime": 1511556244881, "trialdata": {"rt": [7290], "responses": ["spice"], "type": "AUDIO_TEST", "trial_type": "audio-test", "trial_index": 4, "time_elapsed": 103534, "internal_node_id": "0.0-4.0"}}, {"uniqueid": "MTK0588:3IAS3U3I0GNCW1R0M107Z093OLF2BO", "current_trial": 5, "dateTime": 1511556295884, "trialdata": {"rt": 50250, "responses": "{\"Q0\":\"1:30 A.M.\",\"Q1\":\"8.00 A.M.\",\"Q2\":\"2\"}", "type": "SLEEP_SURVEY", "trial_type": "survey-text", "trial_index": 5, "time_elapsed": 154537, "internal_node_id": "0.0-5.0"}}, {"uniqueid": "MTK0588:3IAS3U3I0GNCW1R0M107Z093OLF2BO", "current_trial": 6, "dateTime": 1511556333851, "trialdata": {"rt": 36966, "key_press": 17, "type": "INSTRUCTIONS", "trial_type": "text", "trial_index": 6, "time_elapsed": 192504, "internal_node_id": "0.0-6.0"}}, {"uniqueid": "MTK0588:3IAS3U3I0GNCW1R0M107Z093OLF2BO", "current_trial": 7, "dateTime": 1511556377186, "trialdata": {"rt": 42834, "key_press": 75, "type": "INSTRUCTIONS", "trial_type": "text", "trial_index": 7, "time_elapsed": 235839, "internal_node_id": "0.0-7.0"}}, {"uniqueid": "MTK0588:3IAS3U3I0GNCW1R0M107Z093OLF2BO", "current_trial": 8, "dateTime": 1511556385472, "trialdata": {"rt": 7784, "key_press": 75, "type": "INSTRUCTIONS", "trial_type": "text", "trial_index": 8, "time_elapsed": 244125, "internal_node_id": "0.0-8.0"}}, {"uniqueid": "MTK0588:3IAS3U3I0GNCW1R0M107Z093OLF2BO", "current_trial": 9, "dateTime": 1511556404476, "trialdata": {"rt": [2482, 5891, 7381, 12521, 15185, 17153], "responses": ["14", "13", "11", "16", "13", "9"], "num1": [4, 5, 1, 4, 7, 5, 5], "num2": [5, 1, 4, 8, 1, 3, 2], "num3": [5, 7, 6, 4, 5, 1, 7], "type": "DISTRACTOR", "conditions": [18, 1200, "v", 18000], "trial": 0, "trial_type": "math-distractor", "trial_index": 9, "time_elapsed": 263129, "internal_node_id": "0.0-9.0"}}, {"uniqueid": "MTK0588:3IAS3U3I0GNCW1R0M107Z093OLF2BO", "current_trial": 10, "dateTime": 1511556407477, "trialdata": {"rt": -1, "stimulus": "<p id=\"stim\">10</p>", "key_press": -1, "trial_type": "single-stim", "trial_index": 10, "time_elapsed": 266130, "internal_node_id": "0.0-10.0-0.0"}}, {"uniqueid": "MTK0588:3IAS3U3I0GNCW1R0M107Z093OLF2BO", "current_trial": 11, "dateTime": 1511556408477, "trialdata": {"rt": -1, "stimulus": "<p id=\"stim\">9</p>", "key_press": -1, "trial_type": "single-stim", "trial_index": 11, "time_elapsed": 267130, "internal_node_id": "0.0-10.0-1.0"}}, {"uniqueid": "MTK0588:3IAS3U3I0GNCW1R0M107Z093OLF2BO", "current_trial": 12, "dateTime": 1511556409478, "trialdata": {"rt": -1, "stimulus": "<p id=\"stim\">8</p>", "key_press": -1, "trial_type": "single-stim", "trial_index": 12, "time_elapsed": 268130, "internal_node_id": "0.0-10.0-2.0"}}, {"uniqueid": "MTK0588:3IAS3U3I0GNCW1R0M107Z093OLF2BO", "current_trial": 13, "dateTime": 1511556410478, "trialdata": {"rt": -1, "stimulus": "<p id=\"stim\">7</p>", "key_press": -1, "trial_type": "single-stim", "trial_index": 13, "time_elapsed": 269131, "internal_node_id": "0.0-10.0-3.0"}}, {"uniqueid": "MTK0588:3IAS3U3I0GNCW1R0M107Z093OLF2BO", "current_trial": 14, "dateTime": 1511556411478, "trialdata": {"rt": -1, "stimulus": "<p id=\"stim\">6</p>", "key_press": -1, "trial_type": "single-stim", "trial_index": 14, "time_elapsed": 270131, "internal_node_id": "0.0-10.0-4.0"}}, {"uniqueid": "MTK0588:3IAS3U3I0GNCW1R0M107Z093OLF2BO", "current_trial": 15, "dateTime": 1511556412478, "trialdata": {"rt": -1, "stimulus": "<p id=\"stim\">5</p>", "key_press": -1, "trial_type": "single-stim", "trial_index": 15, "time_elapsed": 271131, "internal_node_id": "0.0-10.0-5.0"}}, {"uniqueid": "MTK0588:3IAS3U3I0GNCW1R0M107Z093OLF2BO", "current_trial": 16, "dateTime": 1511556413478, "trialdata": {"rt": -1, "stimulus": "<p id=\"stim\">4</p>", "key_press": -1, "trial_type": "single-stim", "trial_index": 16, "time_elapsed": 272131, "internal_node_id": "0.0-10.0-6.0"}}, {"uniqueid": "MTK0588:3IAS3U3I0GNCW1R0M107Z093OLF2BO", "current_trial": 17, "dateTime": 1511556414479, "trialdata": {"rt": -1, "stimulus": "<p id=\"stim\">3</p>", "key_press": -1, "trial_type": "single-stim", "trial_index": 17, "time_elapsed": 273132, "internal_node_id": "0.0-10.0-7.0"}}, {"uniqueid": "MTK0588:3IAS3U3I0GNCW1R0M107Z093OLF2BO", "current_trial": 18, "dateTime": 1511556415480, "trialdata": {"rt": -1, "stimulus": "<p id=\"stim\">2</p>", "key_press": -1, "trial_type": "single-stim", "trial_index": 18, "time_elapsed": 274133, "internal_node_id": "0.0-10.0-8.0"}}, {"uniqueid": "MTK0588:3IAS3U3I0GNCW1R0M107Z093OLF2BO", "current_trial": 19, "dateTime": 1511556416481, "trialdata": {"rt": -1, "stimulus": "<p id=\"stim\">1</p>", "key_press": -1, "trial_type": "single-stim", "trial_index": 19, "time_elapsed": 275134, "internal_node_id": "0.0-10.0-9.0"}}, {"uniqueid": "MTK0588:3IAS3U3I0GNCW1R0M107Z093OLF2BO", "current_trial": 20, "dateTime": 1511556417981, "trialdata": {"rt": -1, "stimulus": "<p id=\"stim\">+</p>", "key_press": -1, "type": "FIXATION", "trial_type": "single-stim", "trial_index": 20, "time_elapsed": 276634, "internal_node_id": "0.0-11.0-0.0"}}, {"uniqueid": "MTK0588:3IAS3U3I0GNCW1R0M107Z093OLF2BO", "current_trial": 21, "dateTime": 1511556419181, "trialdata": {"rt": -1, "stimulus": "<p id=\"stim\">JELLO</p>", "key_press": -1, "type": "PRES_VIS", "word": "jello", "wordID": 753, "conditions": [18, 1200, "v", 18000], "trial": 0, "serialpos": 0, "trial_type": "single-stim", "trial_index": 21, "time_elapsed": 277834, "internal_node_id": "0.0-12.0"}}, {"uniqueid": "MTK0588:3IAS3U3I0GNCW1R0M107Z093OLF2BO", "current_trial": 22, "dateTime": 1511556421371, "trialdata": {"rt": -1, "stimulus": "<p id=\"stim\">ROD</p>", "key_press": -1, "type": "PRES_VIS", "word": "rod", "wordID": 1202, "conditions": [18, 1200, "v", 18000], "trial": 0, "serialpos": 1, "trial_type": "single-stim", "trial_index": 22, "time_elapsed": 280024, "internal_node_id": "0.0-13.0"}}, {"uniqueid": "MTK0588:3IAS3U3I0GNCW1R0M107Z093OLF2BO", "current_trial": 23, "dateTime": 1511556423398, "trialdata": {"rt": -1, "stimulus": "<p id=\"stim\">GANGSTER</p>", "key_press": -1, "type": "PRES_VIS", "word": "gangster", "wordID": 619, "conditions": [18, 1200, "v", 18000], "trial": 0, "serialpos": 2, "trial_type": "single-stim", "trial_index": 23, "time_elapsed": 282050, "internal_node_id": "0.0-14.0"}}, {"uniqueid": "MTK0588:3IAS3U3I0GNCW1R0M107Z093OLF2BO", "current_trial": 24, "dateTime": 1511556425533, "trialdata": {"rt": -1, "stimulus": "<p id=\"stim\">HOUND</p>", "key_press": -1, "type": "PRES_VIS", "word": "hound", "wordID": 723, "conditions": [18, 1200, "v", 18000], "trial": 0, "serialpos": 3, "trial_type": "single-stim", "trial_index": 24, "time_elapsed": 284186, "internal_node_id": "0.0-15.0"}}, {"uniqueid": "MTK0588:3IAS3U3I0GNCW1R0M107Z093OLF2BO", "current_trial": 25, "dateTime": 1511556427616, "trialdata": {"rt": -1, "stimulus": "<p id=\"stim\">ULCER</p>", "key_press": -1, "type": "PRES_VIS", "word": "ulcer", "wordID": 1532, "conditions": [18, 1200, "v", 18000], "trial": 0, "serialpos": 4, "trial_type": "single-stim", "trial_index": 25, "time_elapsed": 286269, "internal_node_id": "0.0-16.0"}}, {"uniqueid": "MTK0588:3IAS3U3I0GNCW1R0M107Z093OLF2BO", "current_trial": 26, "dateTime": 1511556429851, "trialdata": {"rt": -1, "stimulus": "<p id=\"stim\">GOBLIN</p>", "key_press": -1, "type": "PRES_VIS", "word": "goblin", "wordID": 644, "conditions": [18, 1200, "v", 18000], "trial": 0, "serialpos": 5, "trial_type": "single-stim", "trial_index": 26, "time_elapsed": 288504, "internal_node_id": "0.0-17.0"}}, {"uniqueid": "MTK0588:3IAS3U3I0GNCW1R0M107Z093OLF2BO", "current_trial": 27, "dateTime": 1511556432058, "trialdata": {"rt": -1, "stimulus": "<p id=\"stim\">SISTER</p>", "key_press": -1, "type": "PRES_VIS", "word": "sister", "wordID": 1311, "conditions": [18, 1200, "v", 18000], "trial": 0, "serialpos": 6, "trial_type": "single-stim", "trial_index": 27, "time_elapsed": 290711, "internal_node_id": "0.0-18.0"}}, {"uniqueid": "MTK0588:3IAS3U3I0GNCW1R0M107Z093OLF2BO", "current_trial": 28, "dateTime": 1511556434229, "trialdata": {"rt": -1, "stimulus": "<p id=\"stim\">COUCH</p>", "key_press": -1, "type": "PRES_VIS", "word": "couch", "wordID": 385, "conditions": [18, 1200, "v", 18000], "trial": 0, "serialpos": 7, "trial_type": "single-stim", "trial_index": 28, "time_elapsed": 292881, "internal_node_id": "0.0-19.0"}}, {"uniqueid": "MTK0588:3IAS3U3I0GNCW1R0M107Z093OLF2BO", "current_trial": 29, "dateTime": 1511556436502, "trialdata": {"rt": -1, "stimulus": "<p id=\"stim\">TART</p>", "key_press": -1, "type": "PRES_VIS", "word": "tart", "wordID": 1435, "conditions": [18, 1200, "v", 18000], "trial": 0, "serialpos": 8, "trial_type": "single-stim", "trial_index": 29, "time_elapsed": 295155, "internal_node_id": "0.0-20.0"}}, {"uniqueid": "MTK0588:3IAS3U3I0GNCW1R0M107Z093OLF2BO", "current_trial": 30, "dateTime": 1511556438605, "trialdata": {"rt": -1, "stimulus": "<p id=\"stim\">BUCKET</p>", "key_press": -1, "type": "PRES_VIS", "word": "bucket", "wordID": 183, "conditions": [18, 1200, "v", 18000], "trial": 0, "serialpos": 9, "trial_type": "single-stim", "trial_index": 30, "time_elapsed": 297257, "internal_node_id": "0.0-21.0"}}, {"uniqueid": "MTK0588:3IAS3U3I0GNCW1R0M107Z093OLF2BO", "current_trial": 31, "dateTime": 1511556440935, "trialdata": {"rt": -1, "stimulus": "<p id=\"stim\">TROMBONE</p>", "key_press": -1, "type": "PRES_VIS", "word": "trombone", "wordID": 1507, "conditions": [18, 1200, "v", 18000], "trial": 0, "serialpos": 10, "trial_type": "single-stim", "trial_index": 31, "time_elapsed": 299588, "internal_node_id": "0.0-22.0"}}, {"uniqueid": "MTK0588:3IAS3U3I0GNCW1R0M107Z093OLF2BO", "current_trial": 32, "dateTime": 1511556443275, "trialdata": {"rt": -1, "stimulus": "<p id=\"stim\">PIGEON</p>", "key_press": -1, "type": "PRES_VIS", "word": "pigeon", "wordID": 1064, "conditions": [18, 1200, "v", 18000], "trial": 0, "serialpos": 11, "trial_type": "single-stim", "trial_index": 32, "time_elapsed": 301928, "internal_node_id": "0.0-23.0"}}, {"uniqueid": "MTK0588:3IAS3U3I0GNCW1R0M107Z093OLF2BO", "current_trial": 33, "dateTime": 1511556445340, "trialdata": {"rt": -1, "stimulus": "<p id=\"stim\">SPACE</p>", "key_press": -1, "type": "PRES_VIS", "word": "space", "wordID": 1344, "conditions": [18, 1200, "v", 18000], "trial": 0, "serialpos": 12, "trial_type": "single-stim", "trial_index": 33, "time_elapsed": 303993, "internal_node_id": "0.0-24.0"}}, {"uniqueid": "MTK0588:3IAS3U3I0GNCW1R0M107Z093OLF2BO", "current_trial": 34, "dateTime": 1511556447518, "trialdata": {"rt": -1, "stimulus": "<p id=\"stim\">CAMEL</p>", "key_press": -1, "type": "PRES_VIS", "word": "camel", "wordID": 222, "conditions": [18, 1200, "v", 18000], "trial": 0, "serialpos": 13, "trial_type": "single-stim", "trial_index": 34, "time_elapsed": 306171, "internal_node_id": "0.0-25.0"}}, {"uniqueid": "MTK0588:3IAS3U3I0GNCW1R0M107Z093OLF2BO", "current_trial": 35, "dateTime": 1511556449824, "trialdata": {"rt": -1, "stimulus": "<p id=\"stim\">DRIVER</p>", "key_press": -1, "type": "PRES_VIS", "word": "driver", "wordID": 498, "conditions": [18, 1200, "v", 18000], "trial": 0, "serialpos": 14, "trial_type": "single-stim", "trial_index": 35, "time_elapsed": 308477, "internal_node_id": "0.0-26.0"}}, {"uniqueid": "MTK0588:3IAS3U3I0GNCW1R0M107Z093OLF2BO", "current_trial": 36, "dateTime": 1511556452120, "trialdata": {"rt": -1, "stimulus": "<p id=\"stim\">TORTOISE</p>", "key_press": -1, "type": "PRES_VIS", "word": "tortoise", "wordID": 1485, "conditions": [18, 1200, "v", 18000], "trial": 0, "serialpos": 15, "trial_type": "single-stim", "trial_index": 36, "time_elapsed": 310773, "internal_node_id": "0.0-27.0"}}, {"uniqueid": "MTK0588:3IAS3U3I0GNCW1R0M107Z093OLF2BO", "current_trial": 37, "dateTime": 1511556454179, "trialdata": {"rt": -1, "stimulus": "<p id=\"stim\">VAGRANT</p>", "key_press": -1, "type": "PRES_VIS", "word": "vagrant", "wordID": 1543, "conditions": [18, 1200, "v", 18000], "trial": 0, "serialpos": 16, "trial_type": "single-stim", "trial_index": 37, "time_elapsed": 312831, "internal_node_id": "0.0-28.0"}}, {"uniqueid": "MTK0588:3IAS3U3I0GNCW1R0M107Z093OLF2BO", "current_trial": 38, "dateTime": 1511556456449, "trialdata": {"rt": -1, "stimulus": "<p id=\"stim\">GARBAGE</p>", "key_press": -1, "type": "PRES_VIS", "word": "garbage", "wordID": 621, "conditions": [18, 1200, "v", 18000], "trial": 0, "serialpos": 17, "trial_type": "single-stim", "trial_index": 38, "time_elapsed": 315102, "internal_node_id": "0.0-29.0"}}, {"uniqueid": "MTK0588:3IAS3U3I0GNCW1R0M107Z093OLF2BO", "current_trial": 39, "dateTime": 1511556458538, "trialdata": {"rt": -1, "stimulus": "", "key_press": -1, "type": "PRE_RECALL_DELAY", "trial_type": "single-stim", "trial_index": 39, "time_elapsed": 317190, "internal_node_id": "0.0-30.0-0.0"}}, {"uniqueid": "MTK0588:3IAS3U3I0GNCW1R0M107Z093OLF2BO", "current_trial": 40, "dateTime": 1511556459039, "trialdata": {"rt": -1000, "stimulus": "/static/audio/400Hz.wav", "key_press": -1, "type": "PRE_RECALL_ALERT", "trial_type": "single-audio", "trial_index": 40, "time_elapsed": 317692, "internal_node_id": "0.0-31.0"}}, {"uniqueid": "MTK0588:3IAS3U3I0GNCW1R0M107Z093OLF2BO", "current_trial": 41, "dateTime": 1511556519044, "trialdata": {"rt": [4486, 5816, 8965, 15255, 31284, 46133, 48787], "recwords": ["turtle", "space", "vagrant", "garbage", "", "", ""], "type": "FREE_RECALL", "conditions": [18, 1200, "v", 18000], "trial": 0, "trial_type": "free-recall", "trial_index": 41, "time_elapsed": 377695, "internal_node_id": "0.0-32.0-0.0"}}, {"uniqueid": "MTK0588:3IAS3U3I0GNCW1R0M107Z093OLF2BO", "current_trial": 42, "dateTime": 1511556522823, "trialdata": {"rt": 1778, "key_press": 65, "type": "INSTRUCTIONS", "trial_type": "text", "trial_index": 42, "time_elapsed": 381476, "internal_node_id": "0.0-33.0"}}, {"uniqueid": "MTK0588:3IAS3U3I0GNCW1R0M107Z093OLF2BO", "current_trial": 43, "dateTime": 1511556542826, "trialdata": {"rt": [2885, 5477, 7593, 9161, 11058, 13406, 16477], "responses": ["13", "16", "15", "14", "19", "21", "16"], "num1": [2, 7, 6, 6, 4, 8, 2, 7], "num2": [7, 3, 3, 2, 9, 5, 9, 5], "num3": [4, 6, 6, 6, 6, 8, 5, 8], "type": "DISTRACTOR", "conditions": [18, 1200, "a", 18000], "trial": 1, "trial_type": "math-distractor", "trial_index": 43, "time_elapsed": 401479, "internal_node_id": "0.0-34.0"}}, {"uniqueid": "MTK0588:3IAS3U3I0GNCW1R0M107Z093OLF2BO", "current_trial": 44, "dateTime": 1511556545826, "trialdata": {"rt": -1, "stimulus": "<p id=\"stim\">10</p>", "key_press": -1, "trial_type": "single-stim", "trial_index": 44, "time_elapsed": 404479, "internal_node_id": "0.0-35.0-0.0"}}, {"uniqueid": "MTK0588:3IAS3U3I0GNCW1R0M107Z093OLF2BO", "current_trial": 45, "dateTime": 1511556546828, "trialdata": {"rt": -1, "stimulus": "<p id=\"stim\">9</p>", "key_press": -1, "trial_type": "single-stim", "trial_index": 45, "time_elapsed": 405480, "internal_node_id": "0.0-35.0-1.0"}}, {"uniqueid": "MTK0588:3IAS3U3I0GNCW1R0M107Z093OLF2BO", "current_trial": 46, "dateTime": 1511556547829, "trialdata": {"rt": -1, "stimulus": "<p id=\"stim\">8</p>", "key_press": -1, "trial_type": "single-stim", "trial_index": 46, "time_elapsed": 406481, "internal_node_id": "0.0-35.0-2.0"}}, {"uniqueid": "MTK0588:3IAS3U3I0GNCW1R0M107Z093OLF2BO", "current_trial": 47, "dateTime": 1511556548829, "trialdata": {"rt": -1, "stimulus": "<p id=\"stim\">7</p>", "key_press": -1, "trial_type": "single-stim", "trial_index": 47, "time_elapsed": 407482, "internal_node_id": "0.0-35.0-3.0"}}, {"uniqueid": "MTK0588:3IAS3U3I0GNCW1R0M107Z093OLF2BO", "current_trial": 48, "dateTime": 1511556549830, "trialdata": {"rt": -1, "stimulus": "<p id=\"stim\">6</p>", "key_press": -1, "trial_type": "single-stim", "trial_index": 48, "time_elapsed": 408482, "internal_node_id": "0.0-35.0-4.0"}}, {"uniqueid": "MTK0588:3IAS3U3I0GNCW1R0M107Z093OLF2BO", "current_trial": 49, "dateTime": 1511556550830, "trialdata": {"rt": -1, "stimulus": "<p id=\"stim\">5</p>", "key_press": -1, "trial_type": "single-stim", "trial_index": 49, "time_elapsed": 409483, "internal_node_id": "0.0-35.0-5.0"}}, {"uniqueid": "MTK0588:3IAS3U3I0GNCW1R0M107Z093OLF2BO", "current_trial": 50, "dateTime": 1511556551830, "trialdata": {"rt": -1, "stimulus": "<p id=\"stim\">4</p>", "key_press": -1, "trial_type": "single-stim", "trial_index": 50, "time_elapsed": 410483, "internal_node_id": "0.0-35.0-6.0"}}, {"uniqueid": "MTK0588:3IAS3U3I0GNCW1R0M107Z093OLF2BO", "current_trial": 51, "dateTime": 1511556552834, "trialdata": {"rt": -1, "stimulus": "<p id=\"stim\">3</p>", "key_press": -1, "trial_type": "single-stim", "trial_index": 51, "time_elapsed": 411487, "internal_node_id": "0.0-35.0-7.0"}}, {"uniqueid": "MTK0588:3IAS3U3I0GNCW1R0M107Z093OLF2BO", "current_trial": 52, "dateTime": 1511556553834, "trialdata": {"rt": -1, "stimulus": "<p id=\"stim\">2</p>", "key_press": -1, "trial_type": "single-stim", "trial_index": 52, "time_elapsed": 412487, "internal_node_id": "0.0-35.0-8.0"}}, {"uniqueid": "MTK0588:3IAS3U3I0GNCW1R0M107Z093OLF2BO", "current_trial": 53, "dateTime": 1511556554835, "trialdata": {"rt": -1, "stimulus": "<p id=\"stim\">1</p>", "key_press": -1, "trial_type": "single-stim", "trial_index": 53, "time_elapsed": 413488, "internal_node_id": "0.0-35.0-9.0"}}, {"uniqueid": "MTK0588:3IAS3U3I0GNCW1R0M107Z093OLF2BO", "current_trial": 54, "dateTime": 1511556556336, "trialdata": {"rt": -1, "stimulus": "<p id=\"stim\">+</p>", "key_press": -1, "type": "FIXATION", "trial_type": "single-stim", "trial_index": 54, "time_elapsed": 414988, "internal_node_id": "0.0-36.0-0.0"}}, {"uniqueid": "MTK0588:3IAS3U3I0GNCW1R0M107Z093OLF2BO", "current_trial": 55, "dateTime": 1511556558361, "trialdata": {"rt": -1000, "stimulus": "/static/audio/wordpool/PATROL.wav", "key_press": -1, "type": "PRES_AUD", "word": "patrol", "wordID": 1026, "conditions": [18, 1200, "a", 18000], "trial": 1, "serialpos": 0, "trial_type": "single-audio", "trial_index": 55, "time_elapsed": 417014, "internal_node_id": "0.0-37.0"}}, {"uniqueid": "MTK0588:3IAS3U3I0GNCW1R0M107Z093OLF2BO", "current_trial": 56, "dateTime": 1511556560399, "trialdata": {"rt": -1000, "stimulus": "/static/audio/wordpool/ANTLER.wav", "key_press": -1, "type": "PRES_AUD", "word": "antler", "wordID": 28, "conditions": [18, 1200, "a", 18000], "trial": 1, "serialpos": 1, "trial_type": "single-audio", "trial_index": 56, "time_elapsed": 419052, "internal_node_id": "0.0-38.0"}}, {"uniqueid": "MTK0588:3IAS3U3I0GNCW1R0M107Z093OLF2BO", "current_trial": 57, "dateTime": 1511556562659, "trialdata": {"rt": -1000, "stimulus": "/static/audio/wordpool/CITRUS.wav", "key_press": -1, "type": "PRES_AUD", "word": "citrus", "wordID": 312, "conditions": [18, 1200, "a", 18000], "trial": 1, "serialpos": 2, "trial_type": "single-audio", "trial_index": 57, "time_elapsed": 421312, "internal_node_id": "0.0-39.0"}}, {"uniqueid": "MTK0588:3IAS3U3I0GNCW1R0M107Z093OLF2BO", "current_trial": 58, "dateTime": 1511556564746, "trialdata": {"rt": -1000, "stimulus": "/static/audio/wordpool/CARROT.wav", "key_press": -1, "type": "PRES_AUD", "word": "carrot", "wordID": 248, "conditions": [18, 1200, "a", 18000], "trial": 1, "serialpos": 3, "trial_type": "single-audio", "trial_index": 58, "time_elapsed": 423399, "internal_node_id": "0.0-40.0"}}, {"uniqueid": "MTK0588:3IAS3U3I0GNCW1R0M107Z093OLF2BO", "current_trial": 59, "dateTime": 1511556567058, "trialdata": {"rt": -1000, "stimulus": "/static/audio/wordpool/PLUTO.wav", "key_press": -1, "type": "PRES_AUD", "word": "pluto", "wordID": 1091, "conditions": [18, 1200, "a", 18000], "trial": 1, "serialpos": 4, "trial_type": "single-audio", "trial_index": 59, "time_elapsed": 425711, "internal_node_id": "0.0-41.0"}}, {"uniqueid": "MTK0588:3IAS3U3I0GNCW1R0M107Z093OLF2BO", "current_trial": 60, "dateTime": 1511556569365, "trialdata": {"rt": -1000, "stimulus": "/static/audio/wordpool/PEACH.wav", "key_press": -1, "type": "PRES_AUD", "word": "peach", "wordID": 1030, "conditions": [18, 1200, "a", 18000], "trial": 1, "serialpos": 5, "trial_type": "single-audio", "trial_index": 60, "time_elapsed": 428017, "internal_node_id": "0.0-42.0"}}, {"uniqueid": "MTK0588:3IAS3U3I0GNCW1R0M107Z093OLF2BO", "current_trial": 61, "dateTime": 1511556571557, "trialdata": {"rt": -1000, "stimulus": "/static/audio/wordpool/RAFT.wav", "key_press": -1, "type": "PRES_AUD", "word": "raft", "wordID": 1158, "conditions": [18, 1200, "a", 18000], "trial": 1, "serialpos": 6, "trial_type": "single-audio", "trial_index": 61, "time_elapsed": 430209, "internal_node_id": "0.0-43.0"}}, {"uniqueid": "MTK0588:3IAS3U3I0GNCW1R0M107Z093OLF2BO", "current_trial": 62, "dateTime": 1511556573594, "trialdata": {"rt": -1000, "stimulus": "/static/audio/wordpool/NOTEBOOK.wav", "key_press": -1, "type": "PRES_AUD", "word": "notebook", "wordID": 958, "conditions": [18, 1200, "a", 18000], "trial": 1, "serialpos": 7, "trial_type": "single-audio", "trial_index": 62, "time_elapsed": 432247, "internal_node_id": "0.0-44.0"}}, {"uniqueid": "MTK0588:3IAS3U3I0GNCW1R0M107Z093OLF2BO", "current_trial": 63, "dateTime": 1511556575764, "trialdata": {"rt": -1000, "stimulus": "/static/audio/wordpool/BUBBLE.wav", "key_press": -1, "type": "PRES_AUD", "word": "bubble", "wordID": 182, "conditions": [18, 1200, "a", 18000], "trial": 1, "serialpos": 8, "trial_type": "single-audio", "trial_index": 63, "time_elapsed": 434417, "internal_node_id": "0.0-45.0"}}, {"uniqueid": "MTK0588:3IAS3U3I0GNCW1R0M107Z093OLF2BO", "current_trial": 64, "dateTime": 1511556578128, "trialdata": {"rt": -1000, "stimulus": "/static/audio/wordpool/DAUGHTER.wav", "key_press": -1, "type": "PRES_AUD", "word": "daughter", "wordID": 441, "conditions": [18, 1200, "a", 18000], "trial": 1, "serialpos": 9, "trial_type": "single-audio", "trial_index": 64, "time_elapsed": 436781, "internal_node_id": "0.0-46.0"}}, {"uniqueid": "MTK0588:3IAS3U3I0GNCW1R0M107Z093OLF2BO", "current_trial": 65, "dateTime": 1511556580279, "trialdata": {"rt": -1000, "stimulus": "/static/audio/wordpool/GUARD.wav", "key_press": -1, "type": "PRES_AUD", "word": "guard", "wordID": 666, "conditions": [18, 1200, "a", 18000], "trial": 1, "serialpos": 10, "trial_type": "single-audio", "trial_index": 65, "time_elapsed": 438932, "internal_node_id": "0.0-47.0"}}, {"uniqueid": "MTK0588:3IAS3U3I0GNCW1R0M107Z093OLF2BO", "current_trial": 66, "dateTime": 1511556582643, "trialdata": {"rt": -1000, "stimulus": "/static/audio/wordpool/TABLET.wav", "key_press": -1, "type": "PRES_AUD", "word": "tablet", "wordID": 1426, "conditions": [18, 1200, "a", 18000], "trial": 1, "serialpos": 11, "trial_type": "single-audio", "trial_index": 66, "time_elapsed": 441296, "internal_node_id": "0.0-48.0"}}, {"uniqueid": "MTK0588:3IAS3U3I0GNCW1R0M107Z093OLF2BO", "current_trial": 67, "dateTime": 1511556584827, "trialdata": {"rt": -1000, "stimulus": "/static/audio/wordpool/SWIMMER.wav", "key_press": -1, "type": "PRES_AUD", "word": "swimmer", "wordID": 1419, "conditions": [18, 1200, "a", 18000], "trial": 1, "serialpos": 12, "trial_type": "single-audio", "trial_index": 67, "time_elapsed": 443480, "internal_node_id": "0.0-49.0"}}, {"uniqueid": "MTK0588:3IAS3U3I0GNCW1R0M107Z093OLF2BO", "current_trial": 68, "dateTime": 1511556587048, "trialdata": {"rt": -1000, "stimulus": "/static/audio/wordpool/BEEF.wav", "key_press": -1, "type": "PRES_AUD", "word": "beef", "wordID": 112, "conditions": [18, 1200, "a", 18000], "trial": 1, "serialpos": 13, "trial_type": "single-audio", "trial_index": 68, "time_elapsed": 445699, "internal_node_id": "0.0-50.0"}}, {"uniqueid": "MTK0588:3IAS3U3I0GNCW1R0M107Z093OLF2BO", "current_trial": 69, "dateTime": 1511556589100, "trialdata": {"rt": -1000, "stimulus": "/static/audio/wordpool/MACHINE.wav", "key_press": -1, "type": "PRES_AUD", "word": "machine", "wordID": 851, "conditions": [18, 1200, "a", 18000], "trial": 1, "serialpos": 14, "trial_type": "single-audio", "trial_index": 69, "time_elapsed": 447753, "internal_node_id": "0.0-51.0"}}, {"uniqueid": "MTK0588:3IAS3U3I0GNCW1R0M107Z093OLF2BO", "current_trial": 70, "dateTime": 1511556591153, "trialdata": {"rt": -1000, "stimulus": "/static/audio/wordpool/PUDDLE.wav", "key_press": -1, "type": "PRES_AUD", "word": "puddle", "wordID": 1139, "conditions": [18, 1200, "a", 18000], "trial": 1, "serialpos": 15, "trial_type": "single-audio", "trial_index": 70, "time_elapsed": 449806, "internal_node_id": "0.0-52.0"}}, {"uniqueid": "MTK0588:3IAS3U3I0GNCW1R0M107Z093OLF2BO", "current_trial": 71, "dateTime": 1511556593352, "trialdata": {"rt": -1000, "stimulus": "/static/audio/wordpool/BELLY.wav", "key_press": -1, "type": "PRES_AUD", "word": "belly", "wordID": 118, "conditions": [18, 1200, "a", 18000], "trial": 1, "serialpos": 16, "trial_type": "single-audio", "trial_index": 71, "time_elapsed": 452005, "internal_node_id": "0.0-53.0"}}, {"uniqueid": "MTK0588:3IAS3U3I0GNCW1R0M107Z093OLF2BO", "current_trial": 72, "dateTime": 1511556595557, "trialdata": {"rt": -1000, "stimulus": "/static/audio/wordpool/MONSTER.wav", "key_press": -1, "type": "PRES_AUD", "word": "monster", "wordID": 911, "conditions": [18, 1200, "a", 18000], "trial": 1, "serialpos": 17, "trial_type": "single-audio", "trial_index": 72, "time_elapsed": 454210, "internal_node_id": "0.0-54.0"}}, {"uniqueid": "MTK0588:3IAS3U3I0GNCW1R0M107Z093OLF2BO", "current_trial": 73, "dateTime": 1511556596813, "trialdata": {"rt": -1, "stimulus": "", "key_press": -1, "type": "PRE_RECALL_DELAY", "trial_type": "single-stim", "trial_index": 73, "time_elapsed": 455466, "internal_node_id": "0.0-55.0-0.0"}}, {"uniqueid": "MTK0588:3IAS3U3I0GNCW1R0M107Z093OLF2BO", "current_trial": 74, "dateTime": 1511556597315, "trialdata": {"rt": -1000, "stimulus": "/static/audio/400Hz.wav", "key_press": -1, "type": "PRE_RECALL_ALERT", "trial_type": "single-audio", "trial_index": 74, "time_elapsed": 455968, "internal_node_id": "0.0-56.0"}}, {"uniqueid": "MTK0588:3IAS3U3I0GNCW1R0M107Z093OLF2BO", "current_trial": 75, "dateTime": 1511556657318, "trialdata": {"rt": [3016, 4107, 10314, 19668, 28899, 36442, 44213, 49544, 58508], "recwords": ["monster", "puddle", "bubble", "citrus", "monster", "antler", "peach", "belly", "patrol"], "type": "FREE_RECALL", "conditions": [18, 1200, "a", 18000], "trial": 1, "trial_type": "free-recall", "trial_index": 75, "time_elapsed": 515970, "internal_node_id": "0.0-57.0-0.0"}}, {"uniqueid": "MTK0588:3IAS3U3I0GNCW1R0M107Z093OLF2BO", "current_trial": 76, "dateTime": 1511556701688, "trialdata": {"rt": 42366, "key_press": 68, "type": "INSTRUCTIONS", "trial_type": "text", "trial_index": 76, "time_elapsed": 560339, "internal_node_id": "0.0-58.0"}}, {"uniqueid": "MTK0588:3IAS3U3I0GNCW1R0M107Z093OLF2BO", "current_trial": 77, "dateTime": 1511556726690, "trialdata": {"rt": [3279, 5811, 8077, 10049, 11974, 15323, 16921, 19047, 23162], "responses": ["22", "15", "17", "9", "8", "25", "13", "17", "14"], "num1": [6, 3, 4, 1, 5, 9, 8, 5, 7, 9], "num2": [8, 8, 5, 1, 1, 8, 3, 4, 1, 4], "num3": [8, 4, 8, 7, 2, 8, 2, 8, 6, 6], "type": "DISTRACTOR", "conditions": [12, 1600, "a", 24000], "trial": 2, "trial_type": "math-distractor", "trial_index": 77, "time_elapsed": 585343, "internal_node_id": "0.0-59.0"}}, {"uniqueid": "MTK0588:3IAS3U3I0GNCW1R0M107Z093OLF2BO", "current_trial": 78, "dateTime": 1511556729690, "trialdata": {"rt": -1, "stimulus": "<p id=\"stim\">10</p>", "key_press": -1, "trial_type": "single-stim", "trial_index": 78, "time_elapsed": 588343, "internal_node_id": "0.0-60.0-0.0"}}, {"uniqueid": "MTK0588:3IAS3U3I0GNCW1R0M107Z093OLF2BO", "current_trial": 79, "dateTime": 1511556730692, "trialdata": {"rt": -1, "stimulus": "<p id=\"stim\">9</p>", "key_press": -1, "trial_type": "single-stim", "trial_index": 79, "time_elapsed": 589345, "internal_node_id": "0.0-60.0-1.0"}}, {"uniqueid": "MTK0588:3IAS3U3I0GNCW1R0M107Z093OLF2BO", "current_trial": 80, "dateTime": 1511556731693, "trialdata": {"rt": -1, "stimulus": "<p id=\"stim\">8</p>", "key_press": -1, "trial_type": "single-stim", "trial_index": 80, "time_elapsed": 590346, "internal_node_id": "0.0-60.0-2.0"}}, {"uniqueid": "MTK0588:3IAS3U3I0GNCW1R0M107Z093OLF2BO", "current_trial": 81, "dateTime": 1511556732694, "trialdata": {"rt": -1, "stimulus": "<p id=\"stim\">7</p>", "key_press": -1, "trial_type": "single-stim", "trial_index": 81, "time_elapsed": 591347, "internal_node_id": "0.0-60.0-3.0"}}, {"uniqueid": "MTK0588:3IAS3U3I0GNCW1R0M107Z093OLF2BO", "current_trial": 82, "dateTime": 1511556733695, "trialdata": {"rt": -1, "stimulus": "<p id=\"stim\">6</p>", "key_press": -1, "trial_type": "single-stim", "trial_index": 82, "time_elapsed": 592348, "internal_node_id": "0.0-60.0-4.0"}}, {"uniqueid": "MTK0588:3IAS3U3I0GNCW1R0M107Z093OLF2BO", "current_trial": 83, "dateTime": 1511556734695, "trialdata": {"rt": -1, "stimulus": "<p id=\"stim\">5</p>", "key_press": -1, "trial_type": "single-stim", "trial_index": 83, "time_elapsed": 593348, "internal_node_id": "0.0-60.0-5.0"}}, {"uniqueid": "MTK0588:3IAS3U3I0GNCW1R0M107Z093OLF2BO", "current_trial": 84, "dateTime": 1511556735696, "trialdata": {"rt": -1, "stimulus": "<p id=\"stim\">4</p>", "key_press": -1, "trial_type": "single-stim", "trial_index": 84, "time_elapsed": 594349, "internal_node_id": "0.0-60.0-6.0"}}, {"uniqueid": "MTK0588:3IAS3U3I0GNCW1R0M107Z093OLF2BO", "current_trial": 85, "dateTime": 1511556736697, "trialdata": {"rt": -1, "stimulus": "<p id=\"stim\">3</p>", "key_press": -1, "trial_type": "single-stim", "trial_index": 85, "time_elapsed": 595350, "internal_node_id": "0.0-60.0-7.0"}}, {"uniqueid": "MTK0588:3IAS3U3I0GNCW1R0M107Z093OLF2BO", "current_trial": 86, "dateTime": 1511556737697, "trialdata": {"rt": -1, "stimulus": "<p id=\"stim\">2</p>", "key_press": -1, "trial_type": "single-stim", "trial_index": 86, "time_elapsed": 596350, "internal_node_id": "0.0-60.0-8.0"}}, {"uniqueid": "MTK0588:3IAS3U3I0GNCW1R0M107Z093OLF2BO", "current_trial": 87, "dateTime": 1511556738698, "trialdata": {"rt": -1, "stimulus": "<p id=\"stim\">1</p>", "key_press": -1, "trial_type": "single-stim", "trial_index": 87, "time_elapsed": 597351, "internal_node_id": "0.0-60.0-9.0"}}, {"uniqueid": "MTK0588:3IAS3U3I0GNCW1R0M107Z093OLF2BO", "current_trial": 88, "dateTime": 1511556740199, "trialdata": {"rt": -1, "stimulus": "<p id=\"stim\">+</p>", "key_press": -1, "type": "FIXATION", "trial_type": "single-stim", "trial_index": 88, "time_elapsed": 598852, "internal_node_id": "0.0-61.0-0.0"}}, {"uniqueid": "MTK0588:3IAS3U3I0GNCW1R0M107Z093OLF2BO", "current_trial": 89, "dateTime": 1511556742902, "trialdata": {"rt": -1000, "stimulus": "/static/audio/wordpool/VENUS.wav", "key_press": -1, "type": "PRES_AUD", "word": "venus", "wordID": 1556, "conditions": [12, 1600, "a", 24000], "trial": 2, "serialpos": 0, "trial_type": "single-audio", "trial_index": 89, "time_elapsed": 601555, "internal_node_id": "0.0-62.0"}}, {"uniqueid": "MTK0588:3IAS3U3I0GNCW1R0M107Z093OLF2BO", "current_trial": 90, "dateTime": 1511556745416, "trialdata": {"rt": -1000, "stimulus": "/static/audio/wordpool/THREAD.wav", "key_press": -1, "type": "PRES_AUD", "word": "thread", "wordID": 1459, "conditions": [12, 1600, "a", 24000], "trial": 2, "serialpos": 1, "trial_type": "single-audio", "trial_index": 90, "time_elapsed": 604069, "internal_node_id": "0.0-63.0"}}, {"uniqueid": "MTK0588:3IAS3U3I0GNCW1R0M107Z093OLF2BO", "current_trial": 91, "dateTime": 1511556748019, "trialdata": {"rt": -1000, "stimulus": "/static/audio/wordpool/TWIG.wav", "key_press": -1, "type": "PRES_AUD", "word": "twig", "wordID": 1526, "conditions": [12, 1600, "a", 24000], "trial": 2, "serialpos": 2, "trial_type": "single-audio", "trial_index": 91, "time_elapsed": 606672, "internal_node_id": "0.0-64.0"}}, {"uniqueid": "MTK0588:3IAS3U3I0GNCW1R0M107Z093OLF2BO", "current_trial": 92, "dateTime": 1511556750616, "trialdata": {"rt": -1000, "stimulus": "/static/audio/wordpool/COSTUME.wav", "key_press": -1, "type": "PRES_AUD", "word": "costume", "wordID": 382, "conditions": [12, 1600, "a", 24000], "trial": 2, "serialpos": 3, "trial_type": "single-audio", "trial_index": 92, "time_elapsed": 609269, "internal_node_id": "0.0-65.0"}}, {"uniqueid": "MTK0588:3IAS3U3I0GNCW1R0M107Z093OLF2BO", "current_trial": 93, "dateTime": 1511556753030, "trialdata": {"rt": -1000, "stimulus": "/static/audio/wordpool/TUTU.wav", "key_press": -1, "type": "PRES_AUD", "word": "tutu", "wordID": 1523, "conditions": [12, 1600, "a", 24000], "trial": 2, "serialpos": 4, "trial_type": "single-audio", "trial_index": 93, "time_elapsed": 611683, "internal_node_id": "0.0-66.0"}}, {"uniqueid": "MTK0588:3IAS3U3I0GNCW1R0M107Z093OLF2BO", "current_trial": 94, "dateTime": 1511556755552, "trialdata": {"rt": -1000, "stimulus": "/static/audio/wordpool/RABBIT.wav", "key_press": -1, "type": "PRES_AUD", "word": "rabbit", "wordID": 1151, "conditions": [12, 1600, "a", 24000], "trial": 2, "serialpos": 5, "trial_type": "single-audio", "trial_index": 94, "time_elapsed": 614205, "internal_node_id": "0.0-67.0"}}, {"uniqueid": "MTK0588:3IAS3U3I0GNCW1R0M107Z093OLF2BO", "current_trial": 95, "dateTime": 1511556758317, "trialdata": {"rt": -1000, "stimulus": "/static/audio/wordpool/ROBBER.wav", "key_press": -1, "type": "PRES_AUD", "word": "robber", "wordID": 1196, "conditions": [12, 1600, "a", 24000], "trial": 2, "serialpos": 6, "trial_type": "single-audio", "trial_index": 95, "time_elapsed": 616970, "internal_node_id": "0.0-68.0"}}, {"uniqueid": "MTK0588:3IAS3U3I0GNCW1R0M107Z093OLF2BO", "current_trial": 96, "dateTime": 1511556760899, "trialdata": {"rt": -1000, "stimulus": "/static/audio/wordpool/SLOPE.wav", "key_press": -1, "type": "PRES_AUD", "word": "slope", "wordID": 1327, "conditions": [12, 1600, "a", 24000], "trial": 2, "serialpos": 7, "trial_type": "single-audio", "trial_index": 96, "time_elapsed": 619551, "internal_node_id": "0.0-69.0"}}, {"uniqueid": "MTK0588:3IAS3U3I0GNCW1R0M107Z093OLF2BO", "current_trial": 97, "dateTime": 1511556763438, "trialdata": {"rt": -1000, "stimulus": "/static/audio/wordpool/ICEBERG.wav", "key_press": -1, "type": "PRES_AUD", "word": "iceberg", "wordID": 730, "conditions": [12, 1600, "a", 24000], "trial": 2, "serialpos": 8, "trial_type": "single-audio", "trial_index": 97, "time_elapsed": 622090, "internal_node_id": "0.0-70.0"}}, {"uniqueid": "MTK0588:3IAS3U3I0GNCW1R0M107Z093OLF2BO", "current_trial": 98, "dateTime": 1511556766177, "trialdata": {"rt": -1000, "stimulus": "/static/audio/wordpool/COMET.wav", "key_press": -1, "type": "PRES_AUD", "word": "comet", "wordID": 352, "conditions": [12, 1600, "a", 24000], "trial": 2, "serialpos": 9, "trial_type": "single-audio", "trial_index": 98, "time_elapsed": 624830, "internal_node_id": "0.0-71.0"}}, {"uniqueid": "MTK0588:3IAS3U3I0GNCW1R0M107Z093OLF2BO", "current_trial": 99, "dateTime": 1511556768929, "trialdata": {"rt": -1000, "stimulus": "/static/audio/wordpool/BUNNY.wav", "key_press": -1, "type": "PRES_AUD", "word": "bunny", "wordID": 197, "conditions": [12, 1600, "a", 24000], "trial": 2, "serialpos": 10, "trial_type": "single-audio", "trial_index": 99, "time_elapsed": 627582, "internal_node_id": "0.0-72.0"}}, {"uniqueid": "MTK0588:3IAS3U3I0GNCW1R0M107Z093OLF2BO", "current_trial": 100, "dateTime": 1511556771604, "trialdata": {"rt": -1000, "stimulus": "/static/audio/wordpool/SMOG.wav", "key_press": -1, "type": "PRES_AUD", "word": "smog", "wordID": 1329, "conditions": [12, 1600, "a", 24000], "trial": 2, "serialpos": 11, "trial_type": "single-audio", "trial_index": 100, "time_elapsed": 630257, "internal_node_id": "0.0-73.0"}}, {"uniqueid": "MTK0588:3IAS3U3I0GNCW1R0M107Z093OLF2BO", "current_trial": 101, "dateTime": 1511556772875, "trialdata": {"rt": -1, "stimulus": "", "key_press": -1, "type": "PRE_RECALL_DELAY", "trial_type": "single-stim", "trial_index": 101, "time_elapsed": 631528, "internal_node_id": "0.0-74.0-0.0"}}, {"uniqueid": "MTK0588:3IAS3U3I0GNCW1R0M107Z093OLF2BO", "current_trial": 102, "dateTime": 1511556773376, "trialdata": {"rt": -1000, "stimulus": "/static/audio/400Hz.wav", "key_press": -1, "type": "PRE_RECALL_ALERT", "trial_type": "single-audio", "trial_index": 102, "time_elapsed": 632029, "internal_node_id": "0.0-75.0"}}, {"uniqueid": "MTK0588:3IAS3U3I0GNCW1R0M107Z093OLF2BO", "current_trial": 103, "dateTime": 1511556833381, "trialdata": {"rt": [1948, 3953, 9014, 11897, 12885, 19587, 22150, 25605, 59470, 59679, 59876], "recwords": ["smog", "bunny", "venus", "robber", "smog", "slope", "iceburg", "tutu", "", "", ""], "type": "FREE_RECALL", "conditions": [12, 1600, "a", 24000], "trial": 2, "trial_type": "free-recall", "trial_index": 103, "time_elapsed": 692032, "internal_node_id": "0.0-76.0-0.0"}}, {"uniqueid": "MTK0588:3IAS3U3I0GNCW1R0M107Z093OLF2BO", "current_trial": 104, "dateTime": 1511556854149, "trialdata": {"rt": 18768, "key_press": 68, "type": "INSTRUCTIONS", "trial_type": "text", "trial_index": 104, "time_elapsed": 712802, "internal_node_id": "0.0-77.0"}}, {"uniqueid": "MTK0588:3IAS3U3I0GNCW1R0M107Z093OLF2BO", "current_trial": 105, "dateTime": 1511556868151, "trialdata": {"rt": [2829, 4345, 6573, 8092, 9719, 11075], "responses": ["14", "6", "10", "10", "17", "7"], "num1": [3, 2, 2, 5, 8, 3, 1], "num2": [6, 1, 3, 2, 2, 3, 2], "num3": [5, 3, 5, 3, 7, 1, 2], "type": "DISTRACTOR", "conditions": [12, 1600, "v", 12000], "trial": 3, "trial_type": "math-distractor", "trial_index": 105, "time_elapsed": 726804, "internal_node_id": "0.0-78.0"}}, {"uniqueid": "MTK0588:3IAS3U3I0GNCW1R0M107Z093OLF2BO", "current_trial": 106, "dateTime": 1511556871152, "trialdata": {"rt": -1, "stimulus": "<p id=\"stim\">10</p>", "key_press": -1, "trial_type": "single-stim", "trial_index": 106, "time_elapsed": 729804, "internal_node_id": "0.0-79.0-0.0"}}, {"uniqueid": "MTK0588:3IAS3U3I0GNCW1R0M107Z093OLF2BO", "current_trial": 107, "dateTime": 1511556872153, "trialdata": {"rt": -1, "stimulus": "<p id=\"stim\">9</p>", "key_press": -1, "trial_type": "single-stim", "trial_index": 107, "time_elapsed": 730806, "internal_node_id": "0.0-79.0-1.0"}}, {"uniqueid": "MTK0588:3IAS3U3I0GNCW1R0M107Z093OLF2BO", "current_trial": 108, "dateTime": 1511556873156, "trialdata": {"rt": -1, "stimulus": "<p id=\"stim\">8</p>", "key_press": -1, "trial_type": "single-stim", "trial_index": 108, "time_elapsed": 731808, "internal_node_id": "0.0-79.0-2.0"}}, {"uniqueid": "MTK0588:3IAS3U3I0GNCW1R0M107Z093OLF2BO", "current_trial": 109, "dateTime": 1511556874156, "trialdata": {"rt": -1, "stimulus": "<p id=\"stim\">7</p>", "key_press": -1, "trial_type": "single-stim", "trial_index": 109, "time_elapsed": 732809, "internal_node_id": "0.0-79.0-3.0"}}, {"uniqueid": "MTK0588:3IAS3U3I0GNCW1R0M107Z093OLF2BO", "current_trial": 110, "dateTime": 1511556875156, "trialdata": {"rt": -1, "stimulus": "<p id=\"stim\">6</p>", "key_press": -1, "trial_type": "single-stim", "trial_index": 110, "time_elapsed": 733809, "internal_node_id": "0.0-79.0-4.0"}}, {"uniqueid": "MTK0588:3IAS3U3I0GNCW1R0M107Z093OLF2BO", "current_trial": 111, "dateTime": 1511556876157, "trialdata": {"rt": -1, "stimulus": "<p id=\"stim\">5</p>", "key_press": -1, "trial_type": "single-stim", "trial_index": 111, "time_elapsed": 734810, "internal_node_id": "0.0-79.0-5.0"}}, {"uniqueid": "MTK0588:3IAS3U3I0GNCW1R0M107Z093OLF2BO", "current_trial": 112, "dateTime": 1511556877157, "trialdata": {"rt": -1, "stimulus": "<p id=\"stim\">4</p>", "key_press": -1, "trial_type": "single-stim", "trial_index": 112, "time_elapsed": 735810, "internal_node_id": "0.0-79.0-6.0"}}, {"uniqueid": "MTK0588:3IAS3U3I0GNCW1R0M107Z093OLF2BO", "current_trial": 113, "dateTime": 1511556878158, "trialdata": {"rt": -1, "stimulus": "<p id=\"stim\">3</p>", "key_press": -1, "trial_type": "single-stim", "trial_index": 113, "time_elapsed": 736811, "internal_node_id": "0.0-79.0-7.0"}}, {"uniqueid": "MTK0588:3IAS3U3I0GNCW1R0M107Z093OLF2BO", "current_trial": 114, "dateTime": 1511556879158, "trialdata": {"rt": -1, "stimulus": "<p id=\"stim\">2</p>", "key_press": -1, "trial_type": "single-stim", "trial_index": 114, "time_elapsed": 737811, "internal_node_id": "0.0-79.0-8.0"}}, {"uniqueid": "MTK0588:3IAS3U3I0GNCW1R0M107Z093OLF2BO", "current_trial": 115, "dateTime": 1511556880158, "trialdata": {"rt": -1, "stimulus": "<p id=\"stim\">1</p>", "key_press": -1, "trial_type": "single-stim", "trial_index": 115, "time_elapsed": 738811, "internal_node_id": "0.0-79.0-9.0"}}, {"uniqueid": "MTK0588:3IAS3U3I0GNCW1R0M107Z093OLF2BO", "current_trial": 116, "dateTime": 1511556881662, "trialdata": {"rt": -1, "stimulus": "<p id=\"stim\">+</p>", "key_press": -1, "type": "FIXATION", "trial_type": "single-stim", "trial_index": 116, "time_elapsed": 740312, "internal_node_id": "0.0-80.0-0.0"}}, {"uniqueid": "MTK0588:3IAS3U3I0GNCW1R0M107Z093OLF2BO", "current_trial": 117, "dateTime": 1511556883262, "trialdata": {"rt": -1, "stimulus": "<p id=\"stim\">PLAYGROUND</p>", "key_press": -1, "type": "PRES_VIS", "word": "playground", "wordID": 1086, "conditions": [12, 1600, "v", 12000], "trial": 3, "serialpos": 0, "trial_type": "single-stim", "trial_index": 117, "time_elapsed": 741915, "internal_node_id": "0.0-81.0"}}, {"uniqueid": "MTK0588:3IAS3U3I0GNCW1R0M107Z093OLF2BO", "current_trial": 118, "dateTime": 1511556886044, "trialdata": {"rt": -1, "stimulus": "<p id=\"stim\">CHAUFFEUR</p>", "key_press": -1, "type": "PRES_VIS", "word": "chauffeur", "wordID": 282, "conditions": [12, 1600, "v", 12000], "trial": 3, "serialpos": 1, "trial_type": "single-stim", "trial_index": 118, "time_elapsed": 744697, "internal_node_id": "0.0-82.0"}}, {"uniqueid": "MTK0588:3IAS3U3I0GNCW1R0M107Z093OLF2BO", "current_trial": 119, "dateTime": 1511556888614, "trialdata": {"rt": -1, "stimulus": "<p id=\"stim\">LACE</p>", "key_press": -1, "type": "PRES_VIS", "word": "lace", "wordID": 791, "conditions": [12, 1600, "v", 12000], "trial": 3, "serialpos": 2, "trial_type": "single-stim", "trial_index": 119, "time_elapsed": 747267, "internal_node_id": "0.0-83.0"}}, {"uniqueid": "MTK0588:3IAS3U3I0GNCW1R0M107Z093OLF2BO", "current_trial": 120, "dateTime": 1511556891279, "trialdata": {"rt": -1, "stimulus": "<p id=\"stim\">POSSUM</p>", "key_press": -1, "type": "PRES_VIS", "word": "possum", "wordID": 1111, "conditions": [12, 1600, "v", 12000], "trial": 3, "serialpos": 3, "trial_type": "single-stim", "trial_index": 120, "time_elapsed": 749932, "internal_node_id": "0.0-84.0"}}, {"uniqueid": "MTK0588:3IAS3U3I0GNCW1R0M107Z093OLF2BO", "current_trial": 121, "dateTime": 1511556893706, "trialdata": {"rt": -1, "stimulus": "<p id=\"stim\">LABEL</p>", "key_press": -1, "type": "PRES_VIS", "word": "label", "wordID": 789, "conditions": [12, 1600, "v", 12000], "trial": 3, "serialpos": 4, "trial_type": "single-stim", "trial_index": 121, "time_elapsed": 752359, "internal_node_id": "0.0-85.0"}}, {"uniqueid": "MTK0588:3IAS3U3I0GNCW1R0M107Z093OLF2BO", "current_trial": 122, "dateTime": 1511556896500, "trialdata": {"rt": -1, "stimulus": "<p id=\"stim\">BULLET</p>", "key_press": -1, "type": "PRES_VIS", "word": "bullet", "wordID": 193, "conditions": [12, 1600, "v", 12000], "trial": 3, "serialpos": 5, "trial_type": "single-stim", "trial_index": 122, "time_elapsed": 755153, "internal_node_id": "0.0-86.0"}}, {"uniqueid": "MTK0588:3IAS3U3I0GNCW1R0M107Z093OLF2BO", "current_trial": 123, "dateTime": 1511556898988, "trialdata": {"rt": -1, "stimulus": "<p id=\"stim\">BLENDER</p>", "key_press": -1, "type": "PRES_VIS", "word": "blender", "wordID": 135, "conditions": [12, 1600, "v", 12000], "trial": 3, "serialpos": 6, "trial_type": "single-stim", "trial_index": 123, "time_elapsed": 757641, "internal_node_id": "0.0-87.0"}}, {"uniqueid": "MTK0588:3IAS3U3I0GNCW1R0M107Z093OLF2BO", "current_trial": 124, "dateTime": 1511556901561, "trialdata": {"rt": -1, "stimulus": "<p id=\"stim\">SPOOL</p>", "key_press": -1, "type": "PRES_VIS", "word": "spool", "wordID": 1355, "conditions": [12, 1600, "v", 12000], "trial": 3, "serialpos": 7, "trial_type": "single-stim", "trial_index": 124, "time_elapsed": 760214, "internal_node_id": "0.0-88.0"}}, {"uniqueid": "MTK0588:3IAS3U3I0GNCW1R0M107Z093OLF2BO", "current_trial": 125, "dateTime": 1511556904130, "trialdata": {"rt": -1, "stimulus": "<p id=\"stim\">DOUGHNUT</p>", "key_press": -1, "type": "PRES_VIS", "word": "doughnut", "wordID": 489, "conditions": [12, 1600, "v", 12000], "trial": 3, "serialpos": 8, "trial_type": "single-stim", "trial_index": 125, "time_elapsed": 762783, "internal_node_id": "0.0-89.0"}}, {"uniqueid": "MTK0588:3IAS3U3I0GNCW1R0M107Z093OLF2BO", "current_trial": 126, "dateTime": 1511556906838, "trialdata": {"rt": -1, "stimulus": "<p id=\"stim\">SANDWICH</p>", "key_press": -1, "type": "PRES_VIS", "word": "sandwich", "wordID": 1231, "conditions": [12, 1600, "v", 12000], "trial": 3, "serialpos": 9, "trial_type": "single-stim", "trial_index": 126, "time_elapsed": 765491, "internal_node_id": "0.0-90.0"}}, {"uniqueid": "MTK0588:3IAS3U3I0GNCW1R0M107Z093OLF2BO", "current_trial": 127, "dateTime": 1511556909440, "trialdata": {"rt": -1, "stimulus": "<p id=\"stim\">SILK</p>", "key_press": -1, "type": "PRES_VIS", "word": "silk", "wordID": 1306, "conditions": [12, 1600, "v", 12000], "trial": 3, "serialpos": 10, "trial_type": "single-stim", "trial_index": 127, "time_elapsed": 768093, "internal_node_id": "0.0-91.0"}}, {"uniqueid": "MTK0588:3IAS3U3I0GNCW1R0M107Z093OLF2BO", "current_trial": 128, "dateTime": 1511556911881, "trialdata": {"rt": -1, "stimulus": "<p id=\"stim\">SUBWAY</p>", "key_press": -1, "type": "PRES_VIS", "word": "subway", "wordID": 1399, "conditions": [12, 1600, "v", 12000], "trial": 3, "serialpos": 11, "trial_type": "single-stim", "trial_index": 128, "time_elapsed": 770534, "internal_node_id": "0.0-92.0"}}, {"uniqueid": "MTK0588:3IAS3U3I0GNCW1R0M107Z093OLF2BO", "current_trial": 129, "dateTime": 1511556914379, "trialdata": {"rt": -1, "stimulus": "", "key_press": -1, "type": "PRE_RECALL_DELAY", "trial_type": "single-stim", "trial_index": 129, "time_elapsed": 773032, "internal_node_id": "0.0-93.0-0.0"}}, {"uniqueid": "MTK0588:3IAS3U3I0GNCW1R0M107Z093OLF2BO", "current_trial": 130, "dateTime": 1511556914880, "trialdata": {"rt": -1000, "stimulus": "/static/audio/400Hz.wav", "key_press": -1, "type": "PRE_RECALL_ALERT", "trial_type": "single-audio", "trial_index": 130, "time_elapsed": 773533, "internal_node_id": "0.0-94.0"}}, {"uniqueid": "MTK0588:3IAS3U3I0GNCW1R0M107Z093OLF2BO", "current_trial": 131, "dateTime": 1511556974888, "trialdata": {"rt": [2791, 6629, 9498, 15224, 25549, 33126, 41660, 41839, 42006], "recwords": ["subway", "sandwich", "label", "donut", "choufur", "playground", "", "", ""], "type": "FREE_RECALL", "conditions": [12, 1600, "v", 12000], "trial": 3, "trial_type": "free-recall", "trial_index": 131, "time_elapsed": 833536, "internal_node_id": "0.0-95.0-0.0"}}, {"uniqueid": "MTK0588:3IAS3U3I0GNCW1R0M107Z093OLF2BO", "current_trial": 132, "dateTime": 1511557069087, "trialdata": {"rt": 92199, "key_press": 74, "type": "INSTRUCTIONS", "trial_type": "text", "trial_index": 132, "time_elapsed": 927740, "internal_node_id": "0.0-96.0"}}, {"uniqueid": "MTK0588:3IAS3U3I0GNCW1R0M107Z093OLF2BO", "current_trial": 133, "dateTime": 1511557083088, "trialdata": {"rt": [3018, 5883, 7412, 8860, 10014], "responses": ["21", "14", "9", "15", "11"], "num1": [5, 1, 6, 2, 1, 7], "num2": [7, 4, 1, 5, 3, 7], "num3": [9, 9, 2, 8, 7, 6], "type": "DISTRACTOR", "conditions": [12, 800, "a", 12000], "trial": 4, "trial_type": "math-distractor", "trial_index": 133, "time_elapsed": 941741, "internal_node_id": "0.0-97.0"}}, {"uniqueid": "MTK0588:3IAS3U3I0GNCW1R0M107Z093OLF2BO", "current_trial": 134, "dateTime": 1511557086090, "trialdata": {"rt": -1, "stimulus": "<p id=\"stim\">10</p>", "key_press": -1, "trial_type": "single-stim", "trial_index": 134, "time_elapsed": 944742, "internal_node_id": "0.0-98.0-0.0"}}, {"uniqueid": "MTK0588:3IAS3U3I0GNCW1R0M107Z093OLF2BO", "current_trial": 135, "dateTime": 1511557087091, "trialdata": {"rt": -1, "stimulus": "<p id=\"stim\">9</p>", "key_press": -1, "trial_type": "single-stim", "trial_index": 135, "time_elapsed": 945743, "internal_node_id": "0.0-98.0-1.0"}}, {"uniqueid": "MTK0588:3IAS3U3I0GNCW1R0M107Z093OLF2BO", "current_trial": 136, "dateTime": 1511557088091, "trialdata": {"rt": -1, "stimulus": "<p id=\"stim\">8</p>", "key_press": -1, "trial_type": "single-stim", "trial_index": 136, "time_elapsed": 946744, "internal_node_id": "0.0-98.0-2.0"}}, {"uniqueid": "MTK0588:3IAS3U3I0GNCW1R0M107Z093OLF2BO", "current_trial": 137, "dateTime": 1511557089091, "trialdata": {"rt": -1, "stimulus": "<p id=\"stim\">7</p>", "key_press": -1, "trial_type": "single-stim", "trial_index": 137, "time_elapsed": 947744, "internal_node_id": "0.0-98.0-3.0"}}, {"uniqueid": "MTK0588:3IAS3U3I0GNCW1R0M107Z093OLF2BO", "current_trial": 138, "dateTime": 1511557090092, "trialdata": {"rt": -1, "stimulus": "<p id=\"stim\">6</p>", "key_press": -1, "trial_type": "single-stim", "trial_index": 138, "time_elapsed": 948745, "internal_node_id": "0.0-98.0-4.0"}}, {"uniqueid": "MTK0588:3IAS3U3I0GNCW1R0M107Z093OLF2BO", "current_trial": 139, "dateTime": 1511557091092, "trialdata": {"rt": -1, "stimulus": "<p id=\"stim\">5</p>", "key_press": -1, "trial_type": "single-stim", "trial_index": 139, "time_elapsed": 949745, "internal_node_id": "0.0-98.0-5.0"}}, {"uniqueid": "MTK0588:3IAS3U3I0GNCW1R0M107Z093OLF2BO", "current_trial": 140, "dateTime": 1511557092093, "trialdata": {"rt": -1, "stimulus": "<p id=\"stim\">4</p>", "key_press": -1, "trial_type": "single-stim", "trial_index": 140, "time_elapsed": 950746, "internal_node_id": "0.0-98.0-6.0"}}, {"uniqueid": "MTK0588:3IAS3U3I0GNCW1R0M107Z093OLF2BO", "current_trial": 141, "dateTime": 1511557093094, "trialdata": {"rt": -1, "stimulus": "<p id=\"stim\">3</p>", "key_press": -1, "trial_type": "single-stim", "trial_index": 141, "time_elapsed": 951747, "internal_node_id": "0.0-98.0-7.0"}}, {"uniqueid": "MTK0588:3IAS3U3I0GNCW1R0M107Z093OLF2BO", "current_trial": 142, "dateTime": 1511557094096, "trialdata": {"rt": -1, "stimulus": "<p id=\"stim\">2</p>", "key_press": -1, "trial_type": "single-stim", "trial_index": 142, "time_elapsed": 952748, "internal_node_id": "0.0-98.0-8.0"}}, {"uniqueid": "MTK0588:3IAS3U3I0GNCW1R0M107Z093OLF2BO", "current_trial": 143, "dateTime": 1511557095096, "trialdata": {"rt": -1, "stimulus": "<p id=\"stim\">1</p>", "key_press": -1, "trial_type": "single-stim", "trial_index": 143, "time_elapsed": 953749, "internal_node_id": "0.0-98.0-9.0"}}, {"uniqueid": "MTK0588:3IAS3U3I0GNCW1R0M107Z093OLF2BO", "current_trial": 144, "dateTime": 1511557096597, "trialdata": {"rt": -1, "stimulus": "<p id=\"stim\">+</p>", "key_press": -1, "type": "FIXATION", "trial_type": "single-stim", "trial_index": 144, "time_elapsed": 955250, "internal_node_id": "0.0-99.0-0.0"}}, {"uniqueid": "MTK0588:3IAS3U3I0GNCW1R0M107Z093OLF2BO", "current_trial": 145, "dateTime": 1511557098441, "trialdata": {"rt": -1000, "stimulus": "/static/audio/wordpool/CELLAR.wav", "key_press": -1, "type": "PRES_AUD", "word": "cellar", "wordID": 266, "conditions": [12, 800, "a", 12000], "trial": 4, "serialpos": 0, "trial_type": "single-audio", "trial_index": 145, "time_elapsed": 957094, "internal_node_id": "0.0-100.0"}}, {"uniqueid": "MTK0588:3IAS3U3I0GNCW1R0M107Z093OLF2BO", "current_trial": 146, "dateTime": 1511557100408, "trialdata": {"rt": -1000, "stimulus": "/static/audio/wordpool/CABBAGE.wav", "key_press": -1, "type": "PRES_AUD", "word": "cabbage", "wordID": 209, "conditions": [12, 800, "a", 12000], "trial": 4, "serialpos": 1, "trial_type": "single-audio", "trial_index": 146, "time_elapsed": 959059, "internal_node_id": "0.0-101.0"}}, {"uniqueid": "MTK0588:3IAS3U3I0GNCW1R0M107Z093OLF2BO", "current_trial": 147, "dateTime": 1511557102059, "trialdata": {"rt": -1000, "stimulus": "/static/audio/wordpool/TILE.wav", "key_press": -1, "type": "PRES_AUD", "word": "tile", "wordID": 1467, "conditions": [12, 800, "a", 12000], "trial": 4, "serialpos": 2, "trial_type": "single-audio", "trial_index": 147, "time_elapsed": 960712, "internal_node_id": "0.0-102.0"}}, {"uniqueid": "MTK0588:3IAS3U3I0GNCW1R0M107Z093OLF2BO", "current_trial": 148, "dateTime": 1511557103748, "trialdata": {"rt": -1000, "stimulus": "/static/audio/wordpool/ROBOT.wav", "key_press": -1, "type": "PRES_AUD", "word": "robot", "wordID": 1199, "conditions": [12, 800, "a", 12000], "trial": 4, "serialpos": 3, "trial_type": "single-audio", "trial_index": 148, "time_elapsed": 962401, "internal_node_id": "0.0-103.0"}}, {"uniqueid": "MTK0588:3IAS3U3I0GNCW1R0M107Z093OLF2BO", "current_trial": 149, "dateTime": 1511557105611, "trialdata": {"rt": -1000, "stimulus": "/static/audio/wordpool/PERFUME.wav", "key_press": -1, "type": "PRES_AUD", "word": "perfume", "wordID": 1048, "conditions": [12, 800, "a", 12000], "trial": 4, "serialpos": 4, "trial_type": "single-audio", "trial_index": 149, "time_elapsed": 964263, "internal_node_id": "0.0-104.0"}}, {"uniqueid": "MTK0588:3IAS3U3I0GNCW1R0M107Z093OLF2BO", "current_trial": 150, "dateTime": 1511557107482, "trialdata": {"rt": -1000, "stimulus": "/static/audio/wordpool/WITNESS.wav", "key_press": -1, "type": "PRES_AUD", "word": "witness", "wordID": 1617, "conditions": [12, 800, "a", 12000], "trial": 4, "serialpos": 5, "trial_type": "single-audio", "trial_index": 150, "time_elapsed": 966135, "internal_node_id": "0.0-105.0"}}, {"uniqueid": "MTK0588:3IAS3U3I0GNCW1R0M107Z093OLF2BO", "current_trial": 151, "dateTime": 1511557109096, "trialdata": {"rt": -1000, "stimulus": "/static/audio/wordpool/FRIEND.wav", "key_press": -1, "type": "PRES_AUD", "word": "friend", "wordID": 605, "conditions": [12, 800, "a", 12000], "trial": 4, "serialpos": 6, "trial_type": "single-audio", "trial_index": 151, "time_elapsed": 967748, "internal_node_id": "0.0-106.0"}}, {"uniqueid": "MTK0588:3IAS3U3I0GNCW1R0M107Z093OLF2BO", "current_trial": 152, "dateTime": 1511557111035, "trialdata": {"rt": -1000, "stimulus": "/static/audio/wordpool/STOMACH.wav", "key_press": -1, "type": "PRES_AUD", "word": "stomach", "wordID": 1383, "conditions": [12, 800, "a", 12000], "trial": 4, "serialpos": 7, "trial_type": "single-audio", "trial_index": 152, "time_elapsed": 969687, "internal_node_id": "0.0-107.0"}}, {"uniqueid": "MTK0588:3IAS3U3I0GNCW1R0M107Z093OLF2BO", "current_trial": 153, "dateTime": 1511557112663, "trialdata": {"rt": -1000, "stimulus": "/static/audio/wordpool/CHEST.wav", "key_press": -1, "type": "PRES_AUD", "word": "chest", "wordID": 294, "conditions": [12, 800, "a", 12000], "trial": 4, "serialpos": 8, "trial_type": "single-audio", "trial_index": 153, "time_elapsed": 971316, "internal_node_id": "0.0-108.0"}}, {"uniqueid": "MTK0588:3IAS3U3I0GNCW1R0M107Z093OLF2BO", "current_trial": 154, "dateTime": 1511557114651, "trialdata": {"rt": -1000, "stimulus": "/static/audio/wordpool/GHETTO.wav", "key_press": -1, "type": "PRES_AUD", "word": "ghetto", "wordID": 632, "conditions": [12, 800, "a", 12000], "trial": 4, "serialpos": 9, "trial_type": "single-audio", "trial_index": 154, "time_elapsed": 973304, "internal_node_id": "0.0-109.0"}}, {"uniqueid": "MTK0588:3IAS3U3I0GNCW1R0M107Z093OLF2BO", "current_trial": 155, "dateTime": 1511557116408, "trialdata": {"rt": -1000, "stimulus": "/static/audio/wordpool/FRAGRANCE.wav", "key_press": -1, "type": "PRES_AUD", "word": "fragrance", "wordID": 598, "conditions": [12, 800, "a", 12000], "trial": 4, "serialpos": 10, "trial_type": "single-audio", "trial_index": 155, "time_elapsed": 975060, "internal_node_id": "0.0-110.0"}}, {"uniqueid": "MTK0588:3IAS3U3I0GNCW1R0M107Z093OLF2BO", "current_trial": 156, "dateTime": 1511557118384, "trialdata": {"rt": -1000, "stimulus": "/static/audio/wordpool/ELBOW.wav", "key_press": -1, "type": "PRES_AUD", "word": "elbow", "wordID": 519, "conditions": [12, 800, "a", 12000], "trial": 4, "serialpos": 11, "trial_type": "single-audio", "trial_index": 156, "time_elapsed": 977037, "internal_node_id": "0.0-111.0"}}, {"uniqueid": "MTK0588:3IAS3U3I0GNCW1R0M107Z093OLF2BO", "current_trial": 157, "dateTime": 1511557119753, "trialdata": {"rt": -1, "stimulus": "", "key_press": -1, "type": "PRE_RECALL_DELAY", "trial_type": "single-stim", "trial_index": 157, "time_elapsed": 978406, "internal_node_id": "0.0-112.0-0.0"}}, {"uniqueid": "MTK0588:3IAS3U3I0GNCW1R0M107Z093OLF2BO", "current_trial": 158, "dateTime": 1511557120253, "trialdata": {"rt": -1000, "stimulus": "/static/audio/400Hz.wav", "key_press": -1, "type": "PRE_RECALL_ALERT", "trial_type": "single-audio", "trial_index": 158, "time_elapsed": 978906, "internal_node_id": "0.0-113.0"}}, {"uniqueid": "MTK0588:3IAS3U3I0GNCW1R0M107Z093OLF2BO", "current_trial": 159, "dateTime": 1511557180258, "trialdata": {"rt": [4031, 6700, 9464, 12715, 18887, 21963, 29049, 37557, 45365], "recwords": ["elbow", "stomach", "fragrence", "perfume", "ghetto", "friend", "machine", "chest", "celler"], "type": "FREE_RECALL", "conditions": [12, 800, "a", 12000], "trial": 4, "trial_type": "free-recall", "trial_index": 159, "time_elapsed": 1038909, "internal_node_id": "0.0-114.0-0.0"}}, {"uniqueid": "MTK0588:3IAS3U3I0GNCW1R0M107Z093OLF2BO", "current_trial": 160, "dateTime": 1511557309202, "trialdata": {"rt": 126943, "key_press": 65, "type": "INSTRUCTIONS", "trial_type": "text", "trial_index": 160, "time_elapsed": 1167855, "internal_node_id": "0.0-115.0"}}, {"uniqueid": "MTK0588:3IAS3U3I0GNCW1R0M107Z093OLF2BO", "current_trial": 161, "dateTime": 1511557323205, "trialdata": {"rt": [3790, 5170, 7120, 8485, 10445, 11551], "responses": ["24", "14", "16", "11", "15", "7"], "num1": [7, 4, 3, 2, 3, 5, 1], "num2": [9, 6, 8, 8, 6, 1, 6], "num3": [8, 4, 5, 1, 6, 1, 9], "type": "DISTRACTOR", "conditions": [12, 1600, "a", 12000], "trial": 5, "trial_type": "math-distractor", "trial_index": 161, "time_elapsed": 1181858, "internal_node_id": "0.0-116.0"}}, {"uniqueid": "MTK0588:3IAS3U3I0GNCW1R0M107Z093OLF2BO", "current_trial": 162, "dateTime": 1511557326205, "trialdata": {"rt": -1, "stimulus": "<p id=\"stim\">10</p>", "key_press": -1, "trial_type": "single-stim", "trial_index": 162, "time_elapsed": 1184858, "internal_node_id": "0.0-117.0-0.0"}}, {"uniqueid": "MTK0588:3IAS3U3I0GNCW1R0M107Z093OLF2BO", "current_trial": 163, "dateTime": 1511557327206, "trialdata": {"rt": -1, "stimulus": "<p id=\"stim\">9</p>", "key_press": -1, "trial_type": "single-stim", "trial_index": 163, "time_elapsed": 1185859, "internal_node_id": "0.0-117.0-1.0"}}, {"uniqueid": "MTK0588:3IAS3U3I0GNCW1R0M107Z093OLF2BO", "current_trial": 164, "dateTime": 1511557328206, "trialdata": {"rt": -1, "stimulus": "<p id=\"stim\">8</p>", "key_press": -1, "trial_type": "single-stim", "trial_index": 164, "time_elapsed": 1186859, "internal_node_id": "0.0-117.0-2.0"}}, {"uniqueid": "MTK0588:3IAS3U3I0GNCW1R0M107Z093OLF2BO", "current_trial": 165, "dateTime": 1511557329206, "trialdata": {"rt": -1, "stimulus": "<p id=\"stim\">7</p>", "key_press": -1, "trial_type": "single-stim", "trial_index": 165, "time_elapsed": 1187859, "internal_node_id": "0.0-117.0-3.0"}}, {"uniqueid": "MTK0588:3IAS3U3I0GNCW1R0M107Z093OLF2BO", "current_trial": 166, "dateTime": 1511557330206, "trialdata": {"rt": -1, "stimulus": "<p id=\"stim\">6</p>", "key_press": -1, "trial_type": "single-stim", "trial_index": 166, "time_elapsed": 1188859, "internal_node_id": "0.0-117.0-4.0"}}, {"uniqueid": "MTK0588:3IAS3U3I0GNCW1R0M107Z093OLF2BO", "current_trial": 167, "dateTime": 1511557331206, "trialdata": {"rt": -1, "stimulus": "<p id=\"stim\">5</p>", "key_press": -1, "trial_type": "single-stim", "trial_index": 167, "time_elapsed": 1189859, "internal_node_id": "0.0-117.0-5.0"}}, {"uniqueid": "MTK0588:3IAS3U3I0GNCW1R0M107Z093OLF2BO", "current_trial": 168, "dateTime": 1511557332207, "trialdata": {"rt": -1, "stimulus": "<p id=\"stim\">4</p>", "key_press": -1, "trial_type": "single-stim", "trial_index": 168, "time_elapsed": 1190860, "internal_node_id": "0.0-117.0-6.0"}}, {"uniqueid": "MTK0588:3IAS3U3I0GNCW1R0M107Z093OLF2BO", "current_trial": 169, "dateTime": 1511557333208, "trialdata": {"rt": -1, "stimulus": "<p id=\"stim\">3</p>", "key_press": -1, "trial_type": "single-stim", "trial_index": 169, "time_elapsed": 1191861, "internal_node_id": "0.0-117.0-7.0"}}, {"uniqueid": "MTK0588:3IAS3U3I0GNCW1R0M107Z093OLF2BO", "current_trial": 170, "dateTime": 1511557334208, "trialdata": {"rt": -1, "stimulus": "<p id=\"stim\">2</p>", "key_press": -1, "trial_type": "single-stim", "trial_index": 170, "time_elapsed": 1192861, "internal_node_id": "0.0-117.0-8.0"}}, {"uniqueid": "MTK0588:3IAS3U3I0GNCW1R0M107Z093OLF2BO", "current_trial": 171, "dateTime": 1511557335209, "trialdata": {"rt": -1, "stimulus": "<p id=\"stim\">1</p>", "key_press": -1, "trial_type": "single-stim", "trial_index": 171, "time_elapsed": 1193862, "internal_node_id": "0.0-117.0-9.0"}}, {"uniqueid": "MTK0588:3IAS3U3I0GNCW1R0M107Z093OLF2BO", "current_trial": 172, "dateTime": 1511557336710, "trialdata": {"rt": -1, "stimulus": "<p id=\"stim\">+</p>", "key_press": -1, "type": "FIXATION", "trial_type": "single-stim", "trial_index": 172, "time_elapsed": 1195362, "internal_node_id": "0.0-118.0-0.0"}}, {"uniqueid": "MTK0588:3IAS3U3I0GNCW1R0M107Z093OLF2BO", "current_trial": 173, "dateTime": 1511557339305, "trialdata": {"rt": -1000, "stimulus": "/static/audio/wordpool/CANYON.wav", "key_press": -1, "type": "PRES_AUD", "word": "canyon", "wordID": 234, "conditions": [12, 1600, "a", 12000], "trial": 5, "serialpos": 0, "trial_type": "single-audio", "trial_index": 173, "time_elapsed": 1197958, "internal_node_id": "0.0-119.0"}}, {"uniqueid": "MTK0588:3IAS3U3I0GNCW1R0M107Z093OLF2BO", "current_trial": 174, "dateTime": 1511557341934, "trialdata": {"rt": -1000, "stimulus": "/static/audio/wordpool/VALLEY.wav", "key_press": -1, "type": "PRES_AUD", "word": "valley", "wordID": 1544, "conditions": [12, 1600, "a", 12000], "trial": 5, "serialpos": 1, "trial_type": "single-audio", "trial_index": 174, "time_elapsed": 1200587, "internal_node_id": "0.0-120.0"}}, {"uniqueid": "MTK0588:3IAS3U3I0GNCW1R0M107Z093OLF2BO", "current_trial": 175, "dateTime": 1511557344593, "trialdata": {"rt": -1000, "stimulus": "/static/audio/wordpool/FOREHEAD.wav", "key_press": -1, "type": "PRES_AUD", "word": "forehead", "wordID": 591, "conditions": [12, 1600, "a", 12000], "trial": 5, "serialpos": 2, "trial_type": "single-audio", "trial_index": 175, "time_elapsed": 1203246, "internal_node_id": "0.0-121.0"}}, {"uniqueid": "MTK0588:3IAS3U3I0GNCW1R0M107Z093OLF2BO", "current_trial": 176, "dateTime": 1511557347215, "trialdata": {"rt": -1000, "stimulus": "/static/audio/wordpool/BRIEFCASE.wav", "key_press": -1, "type": "PRES_AUD", "word": "briefcase", "wordID": 174, "conditions": [12, 1600, "a", 12000], "trial": 5, "serialpos": 3, "trial_type": "single-audio", "trial_index": 176, "time_elapsed": 1205868, "internal_node_id": "0.0-122.0"}}, {"uniqueid": "MTK0588:3IAS3U3I0GNCW1R0M107Z093OLF2BO", "current_trial": 177, "dateTime": 1511557349635, "trialdata": {"rt": -1000, "stimulus": "/static/audio/wordpool/PICNIC.wav", "key_press": -1, "type": "PRES_AUD", "word": "picnic", "wordID": 1059, "conditions": [12, 1600, "a", 12000], "trial": 5, "serialpos": 4, "trial_type": "single-audio", "trial_index": 177, "time_elapsed": 1208288, "internal_node_id": "0.0-123.0"}}, {"uniqueid": "MTK0588:3IAS3U3I0GNCW1R0M107Z093OLF2BO", "current_trial": 178, "dateTime": 1511557352087, "trialdata": {"rt": -1000, "stimulus": "/static/audio/wordpool/GLOBE.wav", "key_press": -1, "type": "PRES_AUD", "word": "globe", "wordID": 640, "conditions": [12, 1600, "a", 12000], "trial": 5, "serialpos": 5, "trial_type": "single-audio", "trial_index": 178, "time_elapsed": 1210740, "internal_node_id": "0.0-124.0"}}, {"uniqueid": "MTK0588:3IAS3U3I0GNCW1R0M107Z093OLF2BO", "current_trial": 179, "dateTime": 1511557354533, "trialdata": {"rt": -1000, "stimulus": "/static/audio/wordpool/PERMIT.wav", "key_press": -1, "type": "PRES_AUD", "word": "permit", "wordID": 1050, "conditions": [12, 1600, "a", 12000], "trial": 5, "serialpos": 6, "trial_type": "single-audio", "trial_index": 179, "time_elapsed": 1213185, "internal_node_id": "0.0-125.0"}}, {"uniqueid": "MTK0588:3IAS3U3I0GNCW1R0M107Z093OLF2BO", "current_trial": 180, "dateTime": 1511557356986, "trialdata": {"rt": -1000, "stimulus": "/static/audio/wordpool/ZEBRA.wav", "key_press": -1, "type": "PRES_AUD", "word": "zebra", "wordID": 1634, "conditions": [12, 1600, "a", 12000], "trial": 5, "serialpos": 7, "trial_type": "single-audio", "trial_index": 180, "time_elapsed": 1215639, "internal_node_id": "0.0-126.0"}}, {"uniqueid": "MTK0588:3IAS3U3I0GNCW1R0M107Z093OLF2BO", "current_trial": 181, "dateTime": 1511557359672, "trialdata": {"rt": -1000, "stimulus": "/static/audio/wordpool/LAVA.wav", "key_press": -1, "type": "PRES_AUD", "word": "lava", "wordID": 803, "conditions": [12, 1600, "a", 12000], "trial": 5, "serialpos": 8, "trial_type": "single-audio", "trial_index": 181, "time_elapsed": 1218324, "internal_node_id": "0.0-127.0"}}, {"uniqueid": "MTK0588:3IAS3U3I0GNCW1R0M107Z093OLF2BO", "current_trial": 182, "dateTime": 1511557362467, "trialdata": {"rt": -1000, "stimulus": "/static/audio/wordpool/SUITCASE.wav", "key_press": -1, "type": "PRES_AUD", "word": "suitcase", "wordID": 1402, "conditions": [12, 1600, "a", 12000], "trial": 5, "serialpos": 9, "trial_type": "single-audio", "trial_index": 182, "time_elapsed": 1221120, "internal_node_id": "0.0-128.0"}}, {"uniqueid": "MTK0588:3IAS3U3I0GNCW1R0M107Z093OLF2BO", "current_trial": 183, "dateTime": 1511557365037, "trialdata": {"rt": -1000, "stimulus": "/static/audio/wordpool/KNIFE.wav", "key_press": -1, "type": "PRES_AUD", "word": "knife", "wordID": 784, "conditions": [12, 1600, "a", 12000], "trial": 5, "serialpos": 10, "trial_type": "single-audio", "trial_index": 183, "time_elapsed": 1223689, "internal_node_id": "0.0-129.0"}}, {"uniqueid": "MTK0588:3IAS3U3I0GNCW1R0M107Z093OLF2BO", "current_trial": 184, "dateTime": 1511557367712, "trialdata": {"rt": -1000, "stimulus": "/static/audio/wordpool/MOP.wav", "key_press": -1, "type": "PRES_AUD", "word": "mop", "wordID": 915, "conditions": [12, 1600, "a", 12000], "trial": 5, "serialpos": 11, "trial_type": "single-audio", "trial_index": 184, "time_elapsed": 1226365, "internal_node_id": "0.0-130.0"}}, {"uniqueid": "MTK0588:3IAS3U3I0GNCW1R0M107Z093OLF2BO", "current_trial": 185, "dateTime": 1511557369005, "trialdata": {"rt": -1, "stimulus": "", "key_press": -1, "type": "PRE_RECALL_DELAY", "trial_type": "single-stim", "trial_index": 185, "time_elapsed": 1227658, "internal_node_id": "0.0-131.0-0.0"}}, {"uniqueid": "MTK0588:3IAS3U3I0GNCW1R0M107Z093OLF2BO", "current_trial": 186, "dateTime": 1511557369505, "trialdata": {"rt": -1000, "stimulus": "/static/audio/400Hz.wav", "key_press": -1, "type": "PRE_RECALL_ALERT", "trial_type": "single-audio", "trial_index": 186, "time_elapsed": 1228158, "internal_node_id": "0.0-132.0"}}, {"uniqueid": "MTK0588:3IAS3U3I0GNCW1R0M107Z093OLF2BO", "current_trial": 187, "dateTime": 1511557429511, "trialdata": {"rt": [3232, 5954, 8402, 14339, 19213, 23382, 27646, 35738, 41361], "recwords": ["canyon", "valley", "forehead", "briefcase", "picnic", "globe", "lava", "zebra", "mop"], "type": "FREE_RECALL", "conditions": [12, 1600, "a", 12000], "trial": 5, "trial_type": "free-recall", "trial_index": 187, "time_elapsed": 1288161, "internal_node_id": "0.0-133.0-0.0"}}, {"uniqueid": "MTK0588:3IAS3U3I0GNCW1R0M107Z093OLF2BO", "current_trial": 188, "dateTime": 1511557432576, "trialdata": {"rt": 1064, "key_press": 90, "type": "INSTRUCTIONS", "trial_type": "text", "trial_index": 188, "time_elapsed": 1291229, "internal_node_id": "0.0-134.0"}}, {"uniqueid": "MTK0588:3IAS3U3I0GNCW1R0M107Z093OLF2BO", "current_trial": 189, "dateTime": 1511557458579, "trialdata": {"rt": [1826, 4380, 6046, 8359, 12508, 17896, 21858], "responses": ["11", "10", "14", "20", "15", "13", "20"], "num1": [1, 4, 3, 4, 4, 4, 6, 9], "num2": [3, 2, 4, 8, 4, 5, 7, 7], "num3": [7, 4, 7, 8, 7, 4, 7, 2], "type": "DISTRACTOR", "conditions": [24, 800, "a", 24000], "trial": 6, "trial_type": "math-distractor", "trial_index": 189, "time_elapsed": 1317232, "internal_node_id": "0.0-135.0"}}, {"uniqueid": "MTK0588:3IAS3U3I0GNCW1R0M107Z093OLF2BO", "current_trial": 190, "dateTime": 1511557461580, "trialdata": {"rt": -1, "stimulus": "<p id=\"stim\">10</p>", "key_press": -1, "trial_type": "single-stim", "trial_index": 190, "time_elapsed": 1320232, "internal_node_id": "0.0-136.0-0.0"}}, {"uniqueid": "MTK0588:3IAS3U3I0GNCW1R0M107Z093OLF2BO", "current_trial": 191, "dateTime": 1511557462581, "trialdata": {"rt": -1, "stimulus": "<p id=\"stim\">9</p>", "key_press": -1, "trial_type": "single-stim", "trial_index": 191, "time_elapsed": 1321234, "internal_node_id": "0.0-136.0-1.0"}}, {"uniqueid": "MTK0588:3IAS3U3I0GNCW1R0M107Z093OLF2BO", "current_trial": 192, "dateTime": 1511557463581, "trialdata": {"rt": -1, "stimulus": "<p id=\"stim\">8</p>", "key_press": -1, "trial_type": "single-stim", "trial_index": 192, "time_elapsed": 1322234, "internal_node_id": "0.0-136.0-2.0"}}, {"uniqueid": "MTK0588:3IAS3U3I0GNCW1R0M107Z093OLF2BO", "current_trial": 193, "dateTime": 1511557464581, "trialdata": {"rt": -1, "stimulus": "<p id=\"stim\">7</p>", "key_press": -1, "trial_type": "single-stim", "trial_index": 193, "time_elapsed": 1323234, "internal_node_id": "0.0-136.0-3.0"}}, {"uniqueid": "MTK0588:3IAS3U3I0GNCW1R0M107Z093OLF2BO", "current_trial": 194, "dateTime": 1511557465582, "trialdata": {"rt": -1, "stimulus": "<p id=\"stim\">6</p>", "key_press": -1, "trial_type": "single-stim", "trial_index": 194, "time_elapsed": 1324235, "internal_node_id": "0.0-136.0-4.0"}}, {"uniqueid": "MTK0588:3IAS3U3I0GNCW1R0M107Z093OLF2BO", "current_trial": 195, "dateTime": 1511557466584, "trialdata": {"rt": -1, "stimulus": "<p id=\"stim\">5</p>", "key_press": -1, "trial_type": "single-stim", "trial_index": 195, "time_elapsed": 1325237, "internal_node_id": "0.0-136.0-5.0"}}, {"uniqueid": "MTK0588:3IAS3U3I0GNCW1R0M107Z093OLF2BO", "current_trial": 196, "dateTime": 1511557467584, "trialdata": {"rt": -1, "stimulus": "<p id=\"stim\">4</p>", "key_press": -1, "trial_type": "single-stim", "trial_index": 196, "time_elapsed": 1326237, "internal_node_id": "0.0-136.0-6.0"}}, {"uniqueid": "MTK0588:3IAS3U3I0GNCW1R0M107Z093OLF2BO", "current_trial": 197, "dateTime": 1511557468585, "trialdata": {"rt": -1, "stimulus": "<p id=\"stim\">3</p>", "key_press": -1, "trial_type": "single-stim", "trial_index": 197, "time_elapsed": 1327238, "internal_node_id": "0.0-136.0-7.0"}}, {"uniqueid": "MTK0588:3IAS3U3I0GNCW1R0M107Z093OLF2BO", "current_trial": 198, "dateTime": 1511557469586, "trialdata": {"rt": -1, "stimulus": "<p id=\"stim\">2</p>", "key_press": -1, "trial_type": "single-stim", "trial_index": 198, "time_elapsed": 1328239, "internal_node_id": "0.0-136.0-8.0"}}, {"uniqueid": "MTK0588:3IAS3U3I0GNCW1R0M107Z093OLF2BO", "current_trial": 199, "dateTime": 1511557470587, "trialdata": {"rt": -1, "stimulus": "<p id=\"stim\">1</p>", "key_press": -1, "trial_type": "single-stim", "trial_index": 199, "time_elapsed": 1329240, "internal_node_id": "0.0-136.0-9.0"}}, {"uniqueid": "MTK0588:3IAS3U3I0GNCW1R0M107Z093OLF2BO", "current_trial": 200, "dateTime": 1511557472088, "trialdata": {"rt": -1, "stimulus": "<p id=\"stim\">+</p>", "key_press": -1, "type": "FIXATION", "trial_type": "single-stim", "trial_index": 200, "time_elapsed": 1330741, "internal_node_id": "0.0-137.0-0.0"}}, {"uniqueid": "MTK0588:3IAS3U3I0GNCW1R0M107Z093OLF2BO", "current_trial": 201, "dateTime": 1511557473741, "trialdata": {"rt": -1000, "stimulus": "/static/audio/wordpool/ASIA.wav", "key_press": -1, "type": "PRES_AUD", "word": "asia", "wordID": 45, "conditions": [24, 800, "a", 24000], "trial": 6, "serialpos": 0, "trial_type": "single-audio", "trial_index": 201, "time_elapsed": 1332394, "internal_node_id": "0.0-138.0"}}, {"uniqueid": "MTK0588:3IAS3U3I0GNCW1R0M107Z093OLF2BO", "current_trial": 202, "dateTime": 1511557475468, "trialdata": {"rt": -1000, "stimulus": "/static/audio/wordpool/DRAWING.wav", "key_press": -1, "type": "PRES_AUD", "word": "drawing", "wordID": 493, "conditions": [24, 800, "a", 24000], "trial": 6, "serialpos": 1, "trial_type": "single-audio", "trial_index": 202, "time_elapsed": 1334120, "internal_node_id": "0.0-139.0"}}, {"uniqueid": "MTK0588:3IAS3U3I0GNCW1R0M107Z093OLF2BO", "current_trial": 203, "dateTime": 1511557477410, "trialdata": {"rt": -1000, "stimulus": "/static/audio/wordpool/KITCHEN.wav", "key_press": -1, "type": "PRES_AUD", "word": "kitchen", "wordID": 777, "conditions": [24, 800, "a", 24000], "trial": 6, "serialpos": 2, "trial_type": "single-audio", "trial_index": 203, "time_elapsed": 1336063, "internal_node_id": "0.0-140.0"}}, {"uniqueid": "MTK0588:3IAS3U3I0GNCW1R0M107Z093OLF2BO", "current_trial": 204, "dateTime": 1511557479251, "trialdata": {"rt": -1000, "stimulus": "/static/audio/wordpool/STREAM.wav", "key_press": -1, "type": "PRES_AUD", "word": "stream", "wordID": 1391, "conditions": [24, 800, "a", 24000], "trial": 6, "serialpos": 3, "trial_type": "single-audio", "trial_index": 204, "time_elapsed": 1337904, "internal_node_id": "0.0-141.0"}}, {"uniqueid": "MTK0588:3IAS3U3I0GNCW1R0M107Z093OLF2BO", "current_trial": 205, "dateTime": 1511557481146, "trialdata": {"rt": -1000, "stimulus": "/static/audio/wordpool/WASHER.wav", "key_press": -1, "type": "PRES_AUD", "word": "washer", "wordID": 1591, "conditions": [24, 800, "a", 24000], "trial": 6, "serialpos": 4, "trial_type": "single-audio", "trial_index": 205, "time_elapsed": 1339799, "internal_node_id": "0.0-142.0"}}, {"uniqueid": "MTK0588:3IAS3U3I0GNCW1R0M107Z093OLF2BO", "current_trial": 206, "dateTime": 1511557482993, "trialdata": {"rt": -1000, "stimulus": "/static/audio/wordpool/SHOULDER.wav", "key_press": -1, "type": "PRES_AUD", "word": "shoulder", "wordID": 1293, "conditions": [24, 800, "a", 24000], "trial": 6, "serialpos": 5, "trial_type": "single-audio", "trial_index": 206, "time_elapsed": 1341646, "internal_node_id": "0.0-143.0"}}, {"uniqueid": "MTK0588:3IAS3U3I0GNCW1R0M107Z093OLF2BO", "current_trial": 207, "dateTime": 1511557484827, "trialdata": {"rt": -1000, "stimulus": "/static/audio/wordpool/ANKLE.wav", "key_press": -1, "type": "PRES_AUD", "word": "ankle", "wordID": 23, "conditions": [24, 800, "a", 24000], "trial": 6, "serialpos": 6, "trial_type": "single-audio", "trial_index": 207, "time_elapsed": 1343479, "internal_node_id": "0.0-144.0"}}, {"uniqueid": "MTK0588:3IAS3U3I0GNCW1R0M107Z093OLF2BO", "current_trial": 208, "dateTime": 1511557486632, "trialdata": {"rt": -1000, "stimulus": "/static/audio/wordpool/BASEMENT.wav", "key_press": -1, "type": "PRES_AUD", "word": "basement", "wordID": 93, "conditions": [24, 800, "a", 24000], "trial": 6, "serialpos": 7, "trial_type": "single-audio", "trial_index": 208, "time_elapsed": 1345285, "internal_node_id": "0.0-145.0"}}, {"uniqueid": "MTK0588:3IAS3U3I0GNCW1R0M107Z093OLF2BO", "current_trial": 209, "dateTime": 1511557488553, "trialdata": {"rt": -1000, "stimulus": "/static/audio/wordpool/POCKET.wav", "key_press": -1, "type": "PRES_AUD", "word": "pocket", "wordID": 1092, "conditions": [24, 800, "a", 24000], "trial": 6, "serialpos": 8, "trial_type": "single-audio", "trial_index": 209, "time_elapsed": 1347206, "internal_node_id": "0.0-146.0"}}, {"uniqueid": "MTK0588:3IAS3U3I0GNCW1R0M107Z093OLF2BO", "current_trial": 210, "dateTime": 1511557490216, "trialdata": {"rt": -1000, "stimulus": "/static/audio/wordpool/PLIERS.wav", "key_press": -1, "type": "PRES_AUD", "word": "pliers", "wordID": 1088, "conditions": [24, 800, "a", 24000], "trial": 6, "serialpos": 9, "trial_type": "single-audio", "trial_index": 210, "time_elapsed": 1348869, "internal_node_id": "0.0-147.0"}}, {"uniqueid": "MTK0588:3IAS3U3I0GNCW1R0M107Z093OLF2BO", "current_trial": 211, "dateTime": 1511557492089, "trialdata": {"rt": -1000, "stimulus": "/static/audio/wordpool/COWBOY.wav", "key_press": -1, "type": "PRES_AUD", "word": "cowboy", "wordID": 394, "conditions": [24, 800, "a", 24000], "trial": 6, "serialpos": 10, "trial_type": "single-audio", "trial_index": 211, "time_elapsed": 1350742, "internal_node_id": "0.0-148.0"}}, {"uniqueid": "MTK0588:3IAS3U3I0GNCW1R0M107Z093OLF2BO", "current_trial": 212, "dateTime": 1511557493847, "trialdata": {"rt": -1000, "stimulus": "/static/audio/wordpool/SCRIBBLE.wav", "key_press": -1, "type": "PRES_AUD", "word": "scribble", "wordID": 1255, "conditions": [24, 800, "a", 24000], "trial": 6, "serialpos": 11, "trial_type": "single-audio", "trial_index": 212, "time_elapsed": 1352500, "internal_node_id": "0.0-149.0"}}, {"uniqueid": "MTK0588:3IAS3U3I0GNCW1R0M107Z093OLF2BO", "current_trial": 213, "dateTime": 1511557495497, "trialdata": {"rt": -1000, "stimulus": "/static/audio/wordpool/JUGGLER.wav", "key_press": -1, "type": "PRES_AUD", "word": "juggler", "wordID": 762, "conditions": [24, 800, "a", 24000], "trial": 6, "serialpos": 12, "trial_type": "single-audio", "trial_index": 213, "time_elapsed": 1354150, "internal_node_id": "0.0-150.0"}}, {"uniqueid": "MTK0588:3IAS3U3I0GNCW1R0M107Z093OLF2BO", "current_trial": 214, "dateTime": 1511557497107, "trialdata": {"rt": -1000, "stimulus": "/static/audio/wordpool/CHAMPAGNE.wav", "key_press": -1, "type": "PRES_AUD", "word": "champagne", "wordID": 277, "conditions": [24, 800, "a", 24000], "trial": 6, "serialpos": 13, "trial_type": "single-audio", "trial_index": 214, "time_elapsed": 1355760, "internal_node_id": "0.0-151.0"}}, {"uniqueid": "MTK0588:3IAS3U3I0GNCW1R0M107Z093OLF2BO", "current_trial": 215, "dateTime": 1511557498900, "trialdata": {"rt": -1000, "stimulus": "/static/audio/wordpool/PORK.wav", "key_press": -1, "type": "PRES_AUD", "word": "pork", "wordID": 1107, "conditions": [24, 800, "a", 24000], "trial": 6, "serialpos": 14, "trial_type": "single-audio", "trial_index": 215, "time_elapsed": 1357553, "internal_node_id": "0.0-152.0"}}, {"uniqueid": "MTK0588:3IAS3U3I0GNCW1R0M107Z093OLF2BO", "current_trial": 216, "dateTime": 1511557500820, "trialdata": {"rt": -1000, "stimulus": "/static/audio/wordpool/BODY.wav", "key_press": -1, "type": "PRES_AUD", "word": "body", "wordID": 144, "conditions": [24, 800, "a", 24000], "trial": 6, "serialpos": 15, "trial_type": "single-audio", "trial_index": 216, "time_elapsed": 1359473, "internal_node_id": "0.0-153.0"}}, {"uniqueid": "MTK0588:3IAS3U3I0GNCW1R0M107Z093OLF2BO", "current_trial": 217, "dateTime": 1511557502777, "trialdata": {"rt": -1000, "stimulus": "/static/audio/wordpool/CHAPEL.wav", "key_press": -1, "type": "PRES_AUD", "word": "chapel", "wordID": 279, "conditions": [24, 800, "a", 24000], "trial": 6, "serialpos": 16, "trial_type": "single-audio", "trial_index": 217, "time_elapsed": 1361430, "internal_node_id": "0.0-154.0"}}, {"uniqueid": "MTK0588:3IAS3U3I0GNCW1R0M107Z093OLF2BO", "current_trial": 218, "dateTime": 1511557504772, "trialdata": {"rt": -1000, "stimulus": "/static/audio/wordpool/DONKEY.wav", "key_press": -1, "type": "PRES_AUD", "word": "donkey", "wordID": 483, "conditions": [24, 800, "a", 24000], "trial": 6, "serialpos": 17, "trial_type": "single-audio", "trial_index": 218, "time_elapsed": 1363425, "internal_node_id": "0.0-155.0"}}, {"uniqueid": "MTK0588:3IAS3U3I0GNCW1R0M107Z093OLF2BO", "current_trial": 219, "dateTime": 1511557506693, "trialdata": {"rt": -1000, "stimulus": "/static/audio/wordpool/BROTHER.wav", "key_press": -1, "type": "PRES_AUD", "word": "brother", "wordID": 178, "conditions": [24, 800, "a", 24000], "trial": 6, "serialpos": 18, "trial_type": "single-audio", "trial_index": 219, "time_elapsed": 1365346, "internal_node_id": "0.0-156.0"}}, {"uniqueid": "MTK0588:3IAS3U3I0GNCW1R0M107Z093OLF2BO", "current_trial": 220, "dateTime": 1511557508588, "trialdata": {"rt": -1000, "stimulus": "/static/audio/wordpool/SEAFOOD.wav", "key_press": -1, "type": "PRES_AUD", "word": "seafood", "wordID": 1259, "conditions": [24, 800, "a", 24000], "trial": 6, "serialpos": 19, "trial_type": "single-audio", "trial_index": 220, "time_elapsed": 1367241, "internal_node_id": "0.0-157.0"}}, {"uniqueid": "MTK0588:3IAS3U3I0GNCW1R0M107Z093OLF2BO", "current_trial": 221, "dateTime": 1511557510493, "trialdata": {"rt": -1000, "stimulus": "/static/audio/wordpool/GYMNAST.wav", "key_press": -1, "type": "PRES_AUD", "word": "gymnast", "wordID": 674, "conditions": [24, 800, "a", 24000], "trial": 6, "serialpos": 20, "trial_type": "single-audio", "trial_index": 221, "time_elapsed": 1369146, "internal_node_id": "0.0-158.0"}}, {"uniqueid": "MTK0588:3IAS3U3I0GNCW1R0M107Z093OLF2BO", "current_trial": 222, "dateTime": 1511557512296, "trialdata": {"rt": -1000, "stimulus": "/static/audio/wordpool/GIRL.wav", "key_press": -1, "type": "PRES_AUD", "word": "girl", "wordID": 636, "conditions": [24, 800, "a", 24000], "trial": 6, "serialpos": 21, "trial_type": "single-audio", "trial_index": 222, "time_elapsed": 1370948, "internal_node_id": "0.0-159.0"}}, {"uniqueid": "MTK0588:3IAS3U3I0GNCW1R0M107Z093OLF2BO", "current_trial": 223, "dateTime": 1511557514259, "trialdata": {"rt": -1000, "stimulus": "/static/audio/wordpool/SHRUB.wav", "key_press": -1, "type": "PRES_AUD", "word": "shrub", "wordID": 1298, "conditions": [24, 800, "a", 24000], "trial": 6, "serialpos": 22, "trial_type": "single-audio", "trial_index": 223, "time_elapsed": 1372912, "internal_node_id": "0.0-160.0"}}, {"uniqueid": "MTK0588:3IAS3U3I0GNCW1R0M107Z093OLF2BO", "current_trial": 224, "dateTime": 1511557516115, "trialdata": {"rt": -1000, "stimulus": "/static/audio/wordpool/ORCHID.wav", "key_press": -1, "type": "PRES_AUD", "word": "orchid", "wordID": 981, "conditions": [24, 800, "a", 24000], "trial": 6, "serialpos": 23, "trial_type": "single-audio", "trial_index": 224, "time_elapsed": 1374768, "internal_node_id": "0.0-161.0"}}, {"uniqueid": "MTK0588:3IAS3U3I0GNCW1R0M107Z093OLF2BO", "current_trial": 225, "dateTime": 1511557517350, "trialdata": {"rt": -1, "stimulus": "", "key_press": -1, "type": "PRE_RECALL_DELAY", "trial_type": "single-stim", "trial_index": 225, "time_elapsed": 1376002, "internal_node_id": "0.0-162.0-0.0"}}, {"uniqueid": "MTK0588:3IAS3U3I0GNCW1R0M107Z093OLF2BO", "current_trial": 226, "dateTime": 1511557517850, "trialdata": {"rt": -1000, "stimulus": "/static/audio/400Hz.wav", "key_press": -1, "type": "PRE_RECALL_ALERT", "trial_type": "single-audio", "trial_index": 226, "time_elapsed": 1376503, "internal_node_id": "0.0-163.0"}}, {"uniqueid": "MTK0588:3IAS3U3I0GNCW1R0M107Z093OLF2BO", "current_trial": 227, "dateTime": 1511557577855, "trialdata": {"rt": [4238, 6691, 8943, 11308, 20313, 27059, 36479, 39027, 40976, 47345, 52964, 55148], "recwords": ["shrub", "orchid", "asian", "stream", "seafood", "stomach", "kitchen", "drawing", "scribble", "ankle", "brother", "donkey"], "type": "FREE_RECALL", "conditions": [24, 800, "a", 24000], "trial": 6, "trial_type": "free-recall", "trial_index": 227, "time_elapsed": 1436505, "internal_node_id": "0.0-164.0-0.0"}}, {"uniqueid": "MTK0588:3IAS3U3I0GNCW1R0M107Z093OLF2BO", "current_trial": 228, "dateTime": 1511557580649, "trialdata": {"rt": 794, "key_press": 65, "type": "INSTRUCTIONS", "trial_type": "text", "trial_index": 228, "time_elapsed": 1439302, "internal_node_id": "0.0-165.0"}}, {"uniqueid": "MTK0588:3IAS3U3I0GNCW1R0M107Z093OLF2BO", "current_trial": 229, "dateTime": 1511557594651, "trialdata": {"rt": [1713, 3487, 5078, 7098, 9432, 11479], "responses": ["6", "14", "19", "13", "10", "17"], "num1": [3, 9, 6, 7, 3, 5, 6], "num2": [2, 2, 4, 4, 4, 6, 2], "num3": [1, 3, 9, 2, 3, 6, 7], "type": "DISTRACTOR", "conditions": [24, 800, "a", 12000], "trial": 7, "trial_type": "math-distractor", "trial_index": 229, "time_elapsed": 1453304, "internal_node_id": "0.0-166.0"}}, {"uniqueid": "MTK0588:3IAS3U3I0GNCW1R0M107Z093OLF2BO", "current_trial": 230, "dateTime": 1511557597651, "trialdata": {"rt": -1, "stimulus": "<p id=\"stim\">10</p>", "key_press": -1, "trial_type": "single-stim", "trial_index": 230, "time_elapsed": 1456304, "internal_node_id": "0.0-167.0-0.0"}}, {"uniqueid": "MTK0588:3IAS3U3I0GNCW1R0M107Z093OLF2BO", "current_trial": 231, "dateTime": 1511557598651, "trialdata": {"rt": -1, "stimulus": "<p id=\"stim\">9</p>", "key_press": -1, "trial_type": "single-stim", "trial_index": 231, "time_elapsed": 1457304, "internal_node_id": "0.0-167.0-1.0"}}, {"uniqueid": "MTK0588:3IAS3U3I0GNCW1R0M107Z093OLF2BO", "current_trial": 232, "dateTime": 1511557599652, "trialdata": {"rt": -1, "stimulus": "<p id=\"stim\">8</p>", "key_press": -1, "trial_type": "single-stim", "trial_index": 232, "time_elapsed": 1458305, "internal_node_id": "0.0-167.0-2.0"}}, {"uniqueid": "MTK0588:3IAS3U3I0GNCW1R0M107Z093OLF2BO", "current_trial": 233, "dateTime": 1511557600653, "trialdata": {"rt": -1, "stimulus": "<p id=\"stim\">7</p>", "key_press": -1, "trial_type": "single-stim", "trial_index": 233, "time_elapsed": 1459306, "internal_node_id": "0.0-167.0-3.0"}}, {"uniqueid": "MTK0588:3IAS3U3I0GNCW1R0M107Z093OLF2BO", "current_trial": 234, "dateTime": 1511557601654, "trialdata": {"rt": -1, "stimulus": "<p id=\"stim\">6</p>", "key_press": -1, "trial_type": "single-stim", "trial_index": 234, "time_elapsed": 1460307, "internal_node_id": "0.0-167.0-4.0"}}, {"uniqueid": "MTK0588:3IAS3U3I0GNCW1R0M107Z093OLF2BO", "current_trial": 235, "dateTime": 1511557602655, "trialdata": {"rt": -1, "stimulus": "<p id=\"stim\">5</p>", "key_press": -1, "trial_type": "single-stim", "trial_index": 235, "time_elapsed": 1461307, "internal_node_id": "0.0-167.0-5.0"}}, {"uniqueid": "MTK0588:3IAS3U3I0GNCW1R0M107Z093OLF2BO", "current_trial": 236, "dateTime": 1511557603656, "trialdata": {"rt": -1, "stimulus": "<p id=\"stim\">4</p>", "key_press": -1, "trial_type": "single-stim", "trial_index": 236, "time_elapsed": 1462309, "internal_node_id": "0.0-167.0-6.0"}}, {"uniqueid": "MTK0588:3IAS3U3I0GNCW1R0M107Z093OLF2BO", "current_trial": 237, "dateTime": 1511557604657, "trialdata": {"rt": -1, "stimulus": "<p id=\"stim\">3</p>", "key_press": -1, "trial_type": "single-stim", "trial_index": 237, "time_elapsed": 1463310, "internal_node_id": "0.0-167.0-7.0"}}, {"uniqueid": "MTK0588:3IAS3U3I0GNCW1R0M107Z093OLF2BO", "current_trial": 238, "dateTime": 1511557605657, "trialdata": {"rt": -1, "stimulus": "<p id=\"stim\">2</p>", "key_press": -1, "trial_type": "single-stim", "trial_index": 238, "time_elapsed": 1464310, "internal_node_id": "0.0-167.0-8.0"}}, {"uniqueid": "MTK0588:3IAS3U3I0GNCW1R0M107Z093OLF2BO", "current_trial": 239, "dateTime": 1511557606658, "trialdata": {"rt": -1, "stimulus": "<p id=\"stim\">1</p>", "key_press": -1, "trial_type": "single-stim", "trial_index": 239, "time_elapsed": 1465311, "internal_node_id": "0.0-167.0-9.0"}}, {"uniqueid": "MTK0588:3IAS3U3I0GNCW1R0M107Z093OLF2BO", "current_trial": 240, "dateTime": 1511557608159, "trialdata": {"rt": -1, "stimulus": "<p id=\"stim\">+</p>", "key_press": -1, "type": "FIXATION", "trial_type": "single-stim", "trial_index": 240, "time_elapsed": 1466811, "internal_node_id": "0.0-168.0-0.0"}}, {"uniqueid": "MTK0588:3IAS3U3I0GNCW1R0M107Z093OLF2BO", "current_trial": 241, "dateTime": 1511557610149, "trialdata": {"rt": -1000, "stimulus": "/static/audio/wordpool/TEACHER.wav", "key_press": -1, "type": "PRES_AUD", "word": "teacher", "wordID": 1439, "conditions": [24, 800, "a", 12000], "trial": 7, "serialpos": 0, "trial_type": "single-audio", "trial_index": 241, "time_elapsed": 1468801, "internal_node_id": "0.0-169.0"}}, {"uniqueid": "MTK0588:3IAS3U3I0GNCW1R0M107Z093OLF2BO", "current_trial": 242, "dateTime": 1511557612001, "trialdata": {"rt": -1000, "stimulus": "/static/audio/wordpool/STUDENT.wav", "key_press": -1, "type": "PRES_AUD", "word": "student", "wordID": 1394, "conditions": [24, 800, "a", 12000], "trial": 7, "serialpos": 1, "trial_type": "single-audio", "trial_index": 242, "time_elapsed": 1470653, "internal_node_id": "0.0-170.0"}}, {"uniqueid": "MTK0588:3IAS3U3I0GNCW1R0M107Z093OLF2BO", "current_trial": 243, "dateTime": 1511557613865, "trialdata": {"rt": -1000, "stimulus": "/static/audio/wordpool/LADY.wav", "key_press": -1, "type": "PRES_AUD", "word": "lady", "wordID": 793, "conditions": [24, 800, "a", 12000], "trial": 7, "serialpos": 2, "trial_type": "single-audio", "trial_index": 243, "time_elapsed": 1472518, "internal_node_id": "0.0-171.0"}}, {"uniqueid": "MTK0588:3IAS3U3I0GNCW1R0M107Z093OLF2BO", "current_trial": 244, "dateTime": 1511557615668, "trialdata": {"rt": -1000, "stimulus": "/static/audio/wordpool/HEADBAND.wav", "key_press": -1, "type": "PRES_AUD", "word": "headband", "wordID": 695, "conditions": [24, 800, "a", 12000], "trial": 7, "serialpos": 3, "trial_type": "single-audio", "trial_index": 244, "time_elapsed": 1474321, "internal_node_id": "0.0-172.0"}}, {"uniqueid": "MTK0588:3IAS3U3I0GNCW1R0M107Z093OLF2BO", "current_trial": 245, "dateTime": 1511557617390, "trialdata": {"rt": -1000, "stimulus": "/static/audio/wordpool/DRESS.wav", "key_press": -1, "type": "PRES_AUD", "word": "dress", "wordID": 494, "conditions": [24, 800, "a", 12000], "trial": 7, "serialpos": 4, "trial_type": "single-audio", "trial_index": 245, "time_elapsed": 1476043, "internal_node_id": "0.0-173.0"}}, {"uniqueid": "MTK0588:3IAS3U3I0GNCW1R0M107Z093OLF2BO", "current_trial": 246, "dateTime": 1511557619318, "trialdata": {"rt": -1000, "stimulus": "/static/audio/wordpool/LIPSTICK.wav", "key_press": -1, "type": "PRES_AUD", "word": "lipstick", "wordID": 828, "conditions": [24, 800, "a", 12000], "trial": 7, "serialpos": 5, "trial_type": "single-audio", "trial_index": 246, "time_elapsed": 1477971, "internal_node_id": "0.0-174.0"}}, {"uniqueid": "MTK0588:3IAS3U3I0GNCW1R0M107Z093OLF2BO", "current_trial": 247, "dateTime": 1511557620987, "trialdata": {"rt": -1000, "stimulus": "/static/audio/wordpool/SODA.wav", "key_press": -1, "type": "PRES_AUD", "word": "soda", "wordID": 1340, "conditions": [24, 800, "a", 12000], "trial": 7, "serialpos": 6, "trial_type": "single-audio", "trial_index": 247, "time_elapsed": 1479639, "internal_node_id": "0.0-175.0"}}, {"uniqueid": "MTK0588:3IAS3U3I0GNCW1R0M107Z093OLF2BO", "current_trial": 248, "dateTime": 1511557622607, "trialdata": {"rt": -1000, "stimulus": "/static/audio/wordpool/MILDEW.wav", "key_press": -1, "type": "PRES_AUD", "word": "mildew", "wordID": 892, "conditions": [24, 800, "a", 12000], "trial": 7, "serialpos": 7, "trial_type": "single-audio", "trial_index": 248, "time_elapsed": 1481259, "internal_node_id": "0.0-176.0"}}, {"uniqueid": "MTK0588:3IAS3U3I0GNCW1R0M107Z093OLF2BO", "current_trial": 249, "dateTime": 1511557624280, "trialdata": {"rt": -1000, "stimulus": "/static/audio/wordpool/DANCER.wav", "key_press": -1, "type": "PRES_AUD", "word": "dancer", "wordID": 436, "conditions": [24, 800, "a", 12000], "trial": 7, "serialpos": 8, "trial_type": "single-audio", "trial_index": 249, "time_elapsed": 1482933, "internal_node_id": "0.0-177.0"}}, {"uniqueid": "MTK0588:3IAS3U3I0GNCW1R0M107Z093OLF2BO", "current_trial": 250, "dateTime": 1511557626248, "trialdata": {"rt": -1000, "stimulus": "/static/audio/wordpool/CLAM.wav", "key_press": -1, "type": "PRES_AUD", "word": "clam", "wordID": 314, "conditions": [24, 800, "a", 12000], "trial": 7, "serialpos": 9, "trial_type": "single-audio", "trial_index": 250, "time_elapsed": 1484900, "internal_node_id": "0.0-178.0"}}, {"uniqueid": "MTK0588:3IAS3U3I0GNCW1R0M107Z093OLF2BO", "current_trial": 251, "dateTime": 1511557628227, "trialdata": {"rt": -1000, "stimulus": "/static/audio/wordpool/SIBLING.wav", "key_press": -1, "type": "PRES_AUD", "word": "sibling", "wordID": 1300, "conditions": [24, 800, "a", 12000], "trial": 7, "serialpos": 10, "trial_type": "single-audio", "trial_index": 251, "time_elapsed": 1486879, "internal_node_id": "0.0-179.0"}}, {"uniqueid": "MTK0588:3IAS3U3I0GNCW1R0M107Z093OLF2BO", "current_trial": 252, "dateTime": 1511557630040, "trialdata": {"rt": -1000, "stimulus": "/static/audio/wordpool/WOMAN.wav", "key_press": -1, "type": "PRES_AUD", "word": "woman", "wordID": 1619, "conditions": [24, 800, "a", 12000], "trial": 7, "serialpos": 11, "trial_type": "single-audio", "trial_index": 252, "time_elapsed": 1488693, "internal_node_id": "0.0-180.0"}}, {"uniqueid": "MTK0588:3IAS3U3I0GNCW1R0M107Z093OLF2BO", "current_trial": 253, "dateTime": 1511557632004, "trialdata": {"rt": -1000, "stimulus": "/static/audio/wordpool/FRANCE.wav", "key_press": -1, "type": "PRES_AUD", "word": "france", "wordID": 600, "conditions": [24, 800, "a", 12000], "trial": 7, "serialpos": 12, "trial_type": "single-audio", "trial_index": 253, "time_elapsed": 1490657, "internal_node_id": "0.0-181.0"}}, {"uniqueid": "MTK0588:3IAS3U3I0GNCW1R0M107Z093OLF2BO", "current_trial": 254, "dateTime": 1511557633926, "trialdata": {"rt": -1000, "stimulus": "/static/audio/wordpool/JAPAN.wav", "key_press": -1, "type": "PRES_AUD", "word": "japan", "wordID": 748, "conditions": [24, 800, "a", 12000], "trial": 7, "serialpos": 13, "trial_type": "single-audio", "trial_index": 254, "time_elapsed": 1492578, "internal_node_id": "0.0-182.0"}}, {"uniqueid": "MTK0588:3IAS3U3I0GNCW1R0M107Z093OLF2BO", "current_trial": 255, "dateTime": 1511557635614, "trialdata": {"rt": -1000, "stimulus": "/static/audio/wordpool/AGENT.wav", "key_press": -1, "type": "PRES_AUD", "word": "agent", "wordID": 9, "conditions": [24, 800, "a", 12000], "trial": 7, "serialpos": 14, "trial_type": "single-audio", "trial_index": 255, "time_elapsed": 1494267, "internal_node_id": "0.0-183.0"}}, {"uniqueid": "MTK0588:3IAS3U3I0GNCW1R0M107Z093OLF2BO", "current_trial": 256, "dateTime": 1511557637574, "trialdata": {"rt": -1000, "stimulus": "/static/audio/wordpool/BISON.wav", "key_press": -1, "type": "PRES_AUD", "word": "bison", "wordID": 130, "conditions": [24, 800, "a", 12000], "trial": 7, "serialpos": 15, "trial_type": "single-audio", "trial_index": 256, "time_elapsed": 1496227, "internal_node_id": "0.0-184.0"}}, {"uniqueid": "MTK0588:3IAS3U3I0GNCW1R0M107Z093OLF2BO", "current_trial": 257, "dateTime": 1511557639423, "trialdata": {"rt": -1000, "stimulus": "/static/audio/wordpool/COUNTRY.wav", "key_press": -1, "type": "PRES_AUD", "word": "country", "wordID": 387, "conditions": [24, 800, "a", 12000], "trial": 7, "serialpos": 16, "trial_type": "single-audio", "trial_index": 257, "time_elapsed": 1498076, "internal_node_id": "0.0-185.0"}}, {"uniqueid": "MTK0588:3IAS3U3I0GNCW1R0M107Z093OLF2BO", "current_trial": 258, "dateTime": 1511557641164, "trialdata": {"rt": -1000, "stimulus": "/static/audio/wordpool/TURTLE.wav", "key_press": -1, "type": "PRES_AUD", "word": "turtle", "wordID": 1521, "conditions": [24, 800, "a", 12000], "trial": 7, "serialpos": 17, "trial_type": "single-audio", "trial_index": 258, "time_elapsed": 1499817, "internal_node_id": "0.0-186.0"}}, {"uniqueid": "MTK0588:3IAS3U3I0GNCW1R0M107Z093OLF2BO", "current_trial": 259, "dateTime": 1511557643004, "trialdata": {"rt": -1000, "stimulus": "/static/audio/wordpool/CATTLE.wav", "key_press": -1, "type": "PRES_AUD", "word": "cattle", "wordID": 260, "conditions": [24, 800, "a", 12000], "trial": 7, "serialpos": 18, "trial_type": "single-audio", "trial_index": 259, "time_elapsed": 1501657, "internal_node_id": "0.0-187.0"}}, {"uniqueid": "MTK0588:3IAS3U3I0GNCW1R0M107Z093OLF2BO", "current_trial": 260, "dateTime": 1511557644958, "trialdata": {"rt": -1000, "stimulus": "/static/audio/wordpool/ORANGE.wav", "key_press": -1, "type": "PRES_AUD", "word": "orange", "wordID": 979, "conditions": [24, 800, "a", 12000], "trial": 7, "serialpos": 19, "trial_type": "single-audio", "trial_index": 260, "time_elapsed": 1503611, "internal_node_id": "0.0-188.0"}}, {"uniqueid": "MTK0588:3IAS3U3I0GNCW1R0M107Z093OLF2BO", "current_trial": 261, "dateTime": 1511557646859, "trialdata": {"rt": -1000, "stimulus": "/static/audio/wordpool/EUROPE.wav", "key_press": -1, "type": "PRES_AUD", "word": "europe", "wordID": 540, "conditions": [24, 800, "a", 12000], "trial": 7, "serialpos": 20, "trial_type": "single-audio", "trial_index": 261, "time_elapsed": 1505512, "internal_node_id": "0.0-189.0"}}, {"uniqueid": "MTK0588:3IAS3U3I0GNCW1R0M107Z093OLF2BO", "current_trial": 262, "dateTime": 1511557648580, "trialdata": {"rt": -1000, "stimulus": "/static/audio/wordpool/NECKLACE.wav", "key_press": -1, "type": "PRES_AUD", "word": "necklace", "wordID": 939, "conditions": [24, 800, "a", 12000], "trial": 7, "serialpos": 21, "trial_type": "single-audio", "trial_index": 262, "time_elapsed": 1507233, "internal_node_id": "0.0-190.0"}}, {"uniqueid": "MTK0588:3IAS3U3I0GNCW1R0M107Z093OLF2BO", "current_trial": 263, "dateTime": 1511557650272, "trialdata": {"rt": -1000, "stimulus": "/static/audio/wordpool/STICKER.wav", "key_press": -1, "type": "PRES_AUD", "word": "sticker", "wordID": 1381, "conditions": [24, 800, "a", 12000], "trial": 7, "serialpos": 22, "trial_type": "single-audio", "trial_index": 263, "time_elapsed": 1508925, "internal_node_id": "0.0-191.0"}}, {"uniqueid": "MTK0588:3IAS3U3I0GNCW1R0M107Z093OLF2BO", "current_trial": 264, "dateTime": 1511557651954, "trialdata": {"rt": -1000, "stimulus": "/static/audio/wordpool/PEPPER.wav", "key_press": -1, "type": "PRES_AUD", "word": "pepper", "wordID": 1046, "conditions": [24, 800, "a", 12000], "trial": 7, "serialpos": 23, "trial_type": "single-audio", "trial_index": 264, "time_elapsed": 1510607, "internal_node_id": "0.0-192.0"}}, {"uniqueid": "MTK0588:3IAS3U3I0GNCW1R0M107Z093OLF2BO", "current_trial": 265, "dateTime": 1511557653288, "trialdata": {"rt": -1, "stimulus": "", "key_press": -1, "type": "PRE_RECALL_DELAY", "trial_type": "single-stim", "trial_index": 265, "time_elapsed": 1511941, "internal_node_id": "0.0-193.0-0.0"}}, {"uniqueid": "MTK0588:3IAS3U3I0GNCW1R0M107Z093OLF2BO", "current_trial": 266, "dateTime": 1511557653790, "trialdata": {"rt": -1000, "stimulus": "/static/audio/400Hz.wav", "key_press": -1, "type": "PRE_RECALL_ALERT", "trial_type": "single-audio", "trial_index": 266, "time_elapsed": 1512443, "internal_node_id": "0.0-194.0"}}, {"uniqueid": "MTK0588:3IAS3U3I0GNCW1R0M107Z093OLF2BO", "current_trial": 267, "dateTime": 1511557713794, "trialdata": {"rt": [1471, 2700, 4144, 9570, 20919, 22516, 23692, 32467, 35479, 44250, 46466], "recwords": ["teacher", "student", "asia", "sibling", "country", "france", "japan", "soda", "mildew", "headband", "dress"], "type": "FREE_RECALL", "conditions": [24, 800, "a", 12000], "trial": 7, "trial_type": "free-recall", "trial_index": 267, "time_elapsed": 1572445, "internal_node_id": "0.0-195.0-0.0"}}, {"uniqueid": "MTK0588:3IAS3U3I0GNCW1R0M107Z093OLF2BO", "current_trial": 268, "dateTime": 1511557716884, "trialdata": {"rt": 1089, "key_press": 74, "type": "INSTRUCTIONS", "trial_type": "text", "trial_index": 268, "time_elapsed": 1575537, "internal_node_id": "0.0-196.0"}}, {"uniqueid": "MTK0588:3IAS3U3I0GNCW1R0M107Z093OLF2BO", "current_trial": 269, "dateTime": 1511557742887, "trialdata": {"rt": [1722, 3290, 7313, 10190, 13441, 14961, 18276, 21228, 23915], "responses": ["9", "10", "17", "20", "17", "12", "25", "18", "16"], "num1": [3, 6, 9, 6, 8, 4, 9, 8, 7, 8], "num2": [3, 3, 7, 6, 1, 4, 8, 2, 1, 3], "num3": [3, 1, 1, 8, 8, 4, 8, 8, 8, 5], "type": "DISTRACTOR", "conditions": [24, 1600, "a", 24000], "trial": 8, "trial_type": "math-distractor", "trial_index": 269, "time_elapsed": 1601540, "internal_node_id": "0.0-197.0"}}, {"uniqueid": "MTK0588:3IAS3U3I0GNCW1R0M107Z093OLF2BO", "current_trial": 270, "dateTime": 1511557745887, "trialdata": {"rt": -1, "stimulus": "<p id=\"stim\">10</p>", "key_press": -1, "trial_type"