{"condition": 0, "counterbalance": 602, "assignmentId": "3STRJBFXOXY793P7BTXWZQ1JB8BTKX", "workerId": "MTK0457", "hitId": "3L55D8AUFA4JK7EJ3KYVU4K6758CYZ", "currenttrial": 626, "bonus": 0, "data": [{"uniqueid": "MTK0457:3STRJBFXOXY793P7BTXWZQ1JB8BTKX", "current_trial": 0, "dateTime": 1510931674638, "trialdata": {"rt": 4007, "key_press": 32, "type": "INSTRUCTIONS", "trial_type": "text", "trial_index": 0, "time_elapsed": 4009, "internal_node_id": "0.0-0.0"}}, {"uniqueid": "MTK0457:3STRJBFXOXY793P7BTXWZQ1JB8BTKX", "current_trial": 1, "dateTime": 1510931679407, "trialdata": {"rt": 4767, "key_press": 175, "type": "INSTRUCTIONS", "trial_type": "text", "trial_index": 1, "time_elapsed": 8779, "internal_node_id": "0.0-1.0"}}, {"uniqueid": "MTK0457:3STRJBFXOXY793P7BTXWZQ1JB8BTKX", "current_trial": 2, "dateTime": 1510931696557, "trialdata": {"rt": [17090], "responses": ["ocean"], "type": "AUDIO_TEST", "trial_type": "audio-test", "trial_index": 2, "time_elapsed": 25929, "internal_node_id": "0.0-2.0"}}, {"uniqueid": "MTK0457:3STRJBFXOXY793P7BTXWZQ1JB8BTKX", "current_trial": 3, "dateTime": 1510931705765, "trialdata": {"rt": [9201], "responses": ["crystal"], "type": "AUDIO_TEST", "trial_type": "audio-test", "trial_index": 3, "time_elapsed": 35137, "internal_node_id": "0.0-3.0"}}, {"uniqueid": "MTK0457:3STRJBFXOXY793P7BTXWZQ1JB8BTKX", "current_trial": 4, "dateTime": 1510931711352, "trialdata": {"rt": [5583], "responses": ["spice"], "type": "AUDIO_TEST", "trial_type": "audio-test", "trial_index": 4, "time_elapsed": 40724, "internal_node_id": "0.0-4.0"}}, {"uniqueid": "MTK0457:3STRJBFXOXY793P7BTXWZQ1JB8BTKX", "current_trial": 5, "dateTime": 1510931780288, "trialdata": {"rt": 68183, "responses": "{\"Q0\":\"12:00\",\"Q1\":\"7:00\",\"Q2\":\"4\"}", "type": "SLEEP_SURVEY", "trial_type": "survey-text", "trial_index": 5, "time_elapsed": 109660, "internal_node_id": "0.0-5.0"}}, {"uniqueid": "MTK0457:3STRJBFXOXY793P7BTXWZQ1JB8BTKX", "current_trial": 6, "dateTime": 1510931849468, "trialdata": {"rt": 68178, "key_press": 32, "type": "INSTRUCTIONS", "trial_type": "text", "trial_index": 6, "time_elapsed": 178840, "internal_node_id": "0.0-6.0"}}, {"uniqueid": "MTK0457:3STRJBFXOXY793P7BTXWZQ1JB8BTKX", "current_trial": 7, "dateTime": 1510931863714, "trialdata": {"rt": 13742, "key_press": 32, "type": "INSTRUCTIONS", "trial_type": "text", "trial_index": 7, "time_elapsed": 193086, "internal_node_id": "0.0-7.0"}}, {"uniqueid": "MTK0457:3STRJBFXOXY793P7BTXWZQ1JB8BTKX", "current_trial": 8, "dateTime": 1510931878752, "trialdata": {"rt": 14536, "key_press": 32, "type": "INSTRUCTIONS", "trial_type": "text", "trial_index": 8, "time_elapsed": 208124, "internal_node_id": "0.0-8.0"}}, {"uniqueid": "MTK0457:3STRJBFXOXY793P7BTXWZQ1JB8BTKX", "current_trial": 9, "dateTime": 1510931897759, "trialdata": {"rt": [4150, 8289, 10937, 12995, 16710], "responses": ["20", "17", "7", "6", "19"], "num1": [9, 8, 4, 3, 4, 9], "num2": [2, 7, 2, 2, 8, 8], "num3": [9, 2, 1, 1, 7, 1], "type": "DISTRACTOR", "conditions": [18, 1200, "a", 18000], "trial": 0, "trial_type": "math-distractor", "trial_index": 9, "time_elapsed": 227130, "internal_node_id": "0.0-9.0"}}, {"uniqueid": "MTK0457:3STRJBFXOXY793P7BTXWZQ1JB8BTKX", "current_trial": 10, "dateTime": 1510931900762, "trialdata": {"rt": -1, "stimulus": "<p id=\"stim\">10</p>", "key_press": -1, "trial_type": "single-stim", "trial_index": 10, "time_elapsed": 230134, "internal_node_id": "0.0-10.0-0.0"}}, {"uniqueid": "MTK0457:3STRJBFXOXY793P7BTXWZQ1JB8BTKX", "current_trial": 11, "dateTime": 1510931901763, "trialdata": {"rt": -1, "stimulus": "<p id=\"stim\">9</p>", "key_press": -1, "trial_type": "single-stim", "trial_index": 11, "time_elapsed": 231135, "internal_node_id": "0.0-10.0-1.0"}}, {"uniqueid": "MTK0457:3STRJBFXOXY793P7BTXWZQ1JB8BTKX", "current_trial": 12, "dateTime": 1510931902765, "trialdata": {"rt": -1, "stimulus": "<p id=\"stim\">8</p>", "key_press": -1, "trial_type": "single-stim", "trial_index": 12, "time_elapsed": 232137, "internal_node_id": "0.0-10.0-2.0"}}, {"uniqueid": "MTK0457:3STRJBFXOXY793P7BTXWZQ1JB8BTKX", "current_trial": 13, "dateTime": 1510931903766, "trialdata": {"rt": -1, "stimulus": "<p id=\"stim\">7</p>", "key_press": -1, "trial_type": "single-stim", "trial_index": 13, "time_elapsed": 233138, "internal_node_id": "0.0-10.0-3.0"}}, {"uniqueid": "MTK0457:3STRJBFXOXY793P7BTXWZQ1JB8BTKX", "current_trial": 14, "dateTime": 1510931904767, "trialdata": {"rt": -1, "stimulus": "<p id=\"stim\">6</p>", "key_press": -1, "trial_type": "single-stim", "trial_index": 14, "time_elapsed": 234139, "internal_node_id": "0.0-10.0-4.0"}}, {"uniqueid": "MTK0457:3STRJBFXOXY793P7BTXWZQ1JB8BTKX", "current_trial": 15, "dateTime": 1510931905769, "trialdata": {"rt": -1, "stimulus": "<p id=\"stim\">5</p>", "key_press": -1, "trial_type": "single-stim", "trial_index": 15, "time_elapsed": 235141, "internal_node_id": "0.0-10.0-5.0"}}, {"uniqueid": "MTK0457:3STRJBFXOXY793P7BTXWZQ1JB8BTKX", "current_trial": 16, "dateTime": 1510931906770, "trialdata": {"rt": -1, "stimulus": "<p id=\"stim\">4</p>", "key_press": -1, "trial_type": "single-stim", "trial_index": 16, "time_elapsed": 236142, "internal_node_id": "0.0-10.0-6.0"}}, {"uniqueid": "MTK0457:3STRJBFXOXY793P7BTXWZQ1JB8BTKX", "current_trial": 17, "dateTime": 1510931907771, "trialdata": {"rt": -1, "stimulus": "<p id=\"stim\">3</p>", "key_press": -1, "trial_type": "single-stim", "trial_index": 17, "time_elapsed": 237143, "internal_node_id": "0.0-10.0-7.0"}}, {"uniqueid": "MTK0457:3STRJBFXOXY793P7BTXWZQ1JB8BTKX", "current_trial": 18, "dateTime": 1510931908773, "trialdata": {"rt": -1, "stimulus": "<p id=\"stim\">2</p>", "key_press": -1, "trial_type": "single-stim", "trial_index": 18, "time_elapsed": 238145, "internal_node_id": "0.0-10.0-8.0"}}, {"uniqueid": "MTK0457:3STRJBFXOXY793P7BTXWZQ1JB8BTKX", "current_trial": 19, "dateTime": 1510931909776, "trialdata": {"rt": -1, "stimulus": "<p id=\"stim\">1</p>", "key_press": -1, "trial_type": "single-stim", "trial_index": 19, "time_elapsed": 239148, "internal_node_id": "0.0-10.0-9.0"}}, {"uniqueid": "MTK0457:3STRJBFXOXY793P7BTXWZQ1JB8BTKX", "current_trial": 20, "dateTime": 1510931911277, "trialdata": {"rt": -1, "stimulus": "<p id=\"stim\">+</p>", "key_press": -1, "type": "FIXATION", "trial_type": "single-stim", "trial_index": 20, "time_elapsed": 240649, "internal_node_id": "0.0-11.0-0.0"}}, {"uniqueid": "MTK0457:3STRJBFXOXY793P7BTXWZQ1JB8BTKX", "current_trial": 21, "dateTime": 1510931913567, "trialdata": {"rt": -1000, "stimulus": "/static/audio/wordpool/ACTOR.wav", "key_press": -1, "type": "PRES_AUD", "word": "actor", "wordID": 4, "conditions": [18, 1200, "a", 18000], "trial": 0, "serialpos": 0, "trial_type": "single-audio", "trial_index": 21, "time_elapsed": 242939, "internal_node_id": "0.0-12.0"}}, {"uniqueid": "MTK0457:3STRJBFXOXY793P7BTXWZQ1JB8BTKX", "current_trial": 22, "dateTime": 1510931915744, "trialdata": {"rt": -1000, "stimulus": "/static/audio/wordpool/FRIEND.wav", "key_press": -1, "type": "PRES_AUD", "word": "friend", "wordID": 605, "conditions": [18, 1200, "a", 18000], "trial": 0, "serialpos": 1, "trial_type": "single-audio", "trial_index": 22, "time_elapsed": 245116, "internal_node_id": "0.0-13.0"}}, {"uniqueid": "MTK0457:3STRJBFXOXY793P7BTXWZQ1JB8BTKX", "current_trial": 23, "dateTime": 1510931918091, "trialdata": {"rt": -1000, "stimulus": "/static/audio/wordpool/COOK.wav", "key_press": -1, "type": "PRES_AUD", "word": "cook", "wordID": 371, "conditions": [18, 1200, "a", 18000], "trial": 0, "serialpos": 2, "trial_type": "single-audio", "trial_index": 23, "time_elapsed": 247463, "internal_node_id": "0.0-14.0"}}, {"uniqueid": "MTK0457:3STRJBFXOXY793P7BTXWZQ1JB8BTKX", "current_trial": 24, "dateTime": 1510931920487, "trialdata": {"rt": -1000, "stimulus": "/static/audio/wordpool/HORNET.wav", "key_press": -1, "type": "PRES_AUD", "word": "hornet", "wordID": 717, "conditions": [18, 1200, "a", 18000], "trial": 0, "serialpos": 3, "trial_type": "single-audio", "trial_index": 24, "time_elapsed": 249859, "internal_node_id": "0.0-15.0"}}, {"uniqueid": "MTK0457:3STRJBFXOXY793P7BTXWZQ1JB8BTKX", "current_trial": 25, "dateTime": 1510931922643, "trialdata": {"rt": -1000, "stimulus": "/static/audio/wordpool/LETTUCE.wav", "key_press": -1, "type": "PRES_AUD", "word": "lettuce", "wordID": 813, "conditions": [18, 1200, "a", 18000], "trial": 0, "serialpos": 4, "trial_type": "single-audio", "trial_index": 25, "time_elapsed": 252015, "internal_node_id": "0.0-16.0"}}, {"uniqueid": "MTK0457:3STRJBFXOXY793P7BTXWZQ1JB8BTKX", "current_trial": 26, "dateTime": 1510931924987, "trialdata": {"rt": -1000, "stimulus": "/static/audio/wordpool/BARREL.wav", "key_press": -1, "type": "PRES_AUD", "word": "barrel", "wordID": 90, "conditions": [18, 1200, "a", 18000], "trial": 0, "serialpos": 5, "trial_type": "single-audio", "trial_index": 26, "time_elapsed": 254359, "internal_node_id": "0.0-17.0"}}, {"uniqueid": "MTK0457:3STRJBFXOXY793P7BTXWZQ1JB8BTKX", "current_trial": 27, "dateTime": 1510931927337, "trialdata": {"rt": -1000, "stimulus": "/static/audio/wordpool/SHIRT.wav", "key_press": -1, "type": "PRES_AUD", "word": "shirt", "wordID": 1286, "conditions": [18, 1200, "a", 18000], "trial": 0, "serialpos": 6, "trial_type": "single-audio", "trial_index": 27, "time_elapsed": 256709, "internal_node_id": "0.0-18.0"}}, {"uniqueid": "MTK0457:3STRJBFXOXY793P7BTXWZQ1JB8BTKX", "current_trial": 28, "dateTime": 1510931929672, "trialdata": {"rt": -1000, "stimulus": "/static/audio/wordpool/DANCER.wav", "key_press": -1, "type": "PRES_AUD", "word": "dancer", "wordID": 436, "conditions": [18, 1200, "a", 18000], "trial": 0, "serialpos": 7, "trial_type": "single-audio", "trial_index": 28, "time_elapsed": 259044, "internal_node_id": "0.0-19.0"}}, {"uniqueid": "MTK0457:3STRJBFXOXY793P7BTXWZQ1JB8BTKX", "current_trial": 29, "dateTime": 1510931931678, "trialdata": {"rt": -1000, "stimulus": "/static/audio/wordpool/BULLET.wav", "key_press": -1, "type": "PRES_AUD", "word": "bullet", "wordID": 193, "conditions": [18, 1200, "a", 18000], "trial": 0, "serialpos": 8, "trial_type": "single-audio", "trial_index": 29, "time_elapsed": 261050, "internal_node_id": "0.0-20.0"}}, {"uniqueid": "MTK0457:3STRJBFXOXY793P7BTXWZQ1JB8BTKX", "current_trial": 30, "dateTime": 1510931933904, "trialdata": {"rt": -1000, "stimulus": "/static/audio/wordpool/DIVER.wav", "key_press": -1, "type": "PRES_AUD", "word": "diver", "wordID": 475, "conditions": [18, 1200, "a", 18000], "trial": 0, "serialpos": 9, "trial_type": "single-audio", "trial_index": 30, "time_elapsed": 263276, "internal_node_id": "0.0-21.0"}}, {"uniqueid": "MTK0457:3STRJBFXOXY793P7BTXWZQ1JB8BTKX", "current_trial": 31, "dateTime": 1510931935971, "trialdata": {"rt": -1000, "stimulus": "/static/audio/wordpool/SHELTER.wav", "key_press": -1, "type": "PRES_AUD", "word": "shelter", "wordID": 1281, "conditions": [18, 1200, "a", 18000], "trial": 0, "serialpos": 10, "trial_type": "single-audio", "trial_index": 31, "time_elapsed": 265343, "internal_node_id": "0.0-22.0"}}, {"uniqueid": "MTK0457:3STRJBFXOXY793P7BTXWZQ1JB8BTKX", "current_trial": 32, "dateTime": 1510931938125, "trialdata": {"rt": -1000, "stimulus": "/static/audio/wordpool/HIGHWAY.wav", "key_press": -1, "type": "PRES_AUD", "word": "highway", "wordID": 706, "conditions": [18, 1200, "a", 18000], "trial": 0, "serialpos": 11, "trial_type": "single-audio", "trial_index": 32, "time_elapsed": 267497, "internal_node_id": "0.0-23.0"}}, {"uniqueid": "MTK0457:3STRJBFXOXY793P7BTXWZQ1JB8BTKX", "current_trial": 33, "dateTime": 1510931940166, "trialdata": {"rt": -1000, "stimulus": "/static/audio/wordpool/FLEET.wav", "key_press": -1, "type": "PRES_AUD", "word": "fleet", "wordID": 577, "conditions": [18, 1200, "a", 18000], "trial": 0, "serialpos": 12, "trial_type": "single-audio", "trial_index": 33, "time_elapsed": 269538, "internal_node_id": "0.0-24.0"}}, {"uniqueid": "MTK0457:3STRJBFXOXY793P7BTXWZQ1JB8BTKX", "current_trial": 34, "dateTime": 1510931942540, "trialdata": {"rt": -1000, "stimulus": "/static/audio/wordpool/ROBOT.wav", "key_press": -1, "type": "PRES_AUD", "word": "robot", "wordID": 1199, "conditions": [18, 1200, "a", 18000], "trial": 0, "serialpos": 13, "trial_type": "single-audio", "trial_index": 34, "time_elapsed": 271912, "internal_node_id": "0.0-25.0"}}, {"uniqueid": "MTK0457:3STRJBFXOXY793P7BTXWZQ1JB8BTKX", "current_trial": 35, "dateTime": 1510931944810, "trialdata": {"rt": -1000, "stimulus": "/static/audio/wordpool/SIBLING.wav", "key_press": -1, "type": "PRES_AUD", "word": "sibling", "wordID": 1300, "conditions": [18, 1200, "a", 18000], "trial": 0, "serialpos": 14, "trial_type": "single-audio", "trial_index": 35, "time_elapsed": 274182, "internal_node_id": "0.0-26.0"}}, {"uniqueid": "MTK0457:3STRJBFXOXY793P7BTXWZQ1JB8BTKX", "current_trial": 36, "dateTime": 1510931946913, "trialdata": {"rt": -1000, "stimulus": "/static/audio/wordpool/DRILL.wav", "key_press": -1, "type": "PRES_AUD", "word": "drill", "wordID": 496, "conditions": [18, 1200, "a", 18000], "trial": 0, "serialpos": 15, "trial_type": "single-audio", "trial_index": 36, "time_elapsed": 276285, "internal_node_id": "0.0-27.0"}}, {"uniqueid": "MTK0457:3STRJBFXOXY793P7BTXWZQ1JB8BTKX", "current_trial": 37, "dateTime": 1510931949224, "trialdata": {"rt": -1000, "stimulus": "/static/audio/wordpool/TORTOISE.wav", "key_press": -1, "type": "PRES_AUD", "word": "tortoise", "wordID": 1485, "conditions": [18, 1200, "a", 18000], "trial": 0, "serialpos": 16, "trial_type": "single-audio", "trial_index": 37, "time_elapsed": 278596, "internal_node_id": "0.0-28.0"}}, {"uniqueid": "MTK0457:3STRJBFXOXY793P7BTXWZQ1JB8BTKX", "current_trial": 38, "dateTime": 1510931951472, "trialdata": {"rt": -1000, "stimulus": "/static/audio/wordpool/HUSBAND.wav", "key_press": -1, "type": "PRES_AUD", "word": "husband", "wordID": 727, "conditions": [18, 1200, "a", 18000], "trial": 0, "serialpos": 17, "trial_type": "single-audio", "trial_index": 38, "time_elapsed": 280844, "internal_node_id": "0.0-29.0"}}, {"uniqueid": "MTK0457:3STRJBFXOXY793P7BTXWZQ1JB8BTKX", "current_trial": 39, "dateTime": 1510931952786, "trialdata": {"rt": -1, "stimulus": "", "key_press": -1, "type": "PRE_RECALL_DELAY", "trial_type": "single-stim", "trial_index": 39, "time_elapsed": 282158, "internal_node_id": "0.0-30.0-0.0"}}, {"uniqueid": "MTK0457:3STRJBFXOXY793P7BTXWZQ1JB8BTKX", "current_trial": 40, "dateTime": 1510931953288, "trialdata": {"rt": -1000, "stimulus": "/static/audio/400Hz.wav", "key_press": -1, "type": "PRE_RECALL_ALERT", "trial_type": "single-audio", "trial_index": 40, "time_elapsed": 282660, "internal_node_id": "0.0-31.0"}}, {"uniqueid": "MTK0457:3STRJBFXOXY793P7BTXWZQ1JB8BTKX", "current_trial": 41, "dateTime": 1510932013297, "trialdata": {"rt": [2598, 4323, 5869, 8545, 11750, 17875], "recwords": ["husband", "tortise", "drill", "sibling", "lettuce", "barrel"], "type": "FREE_RECALL", "conditions": [18, 1200, "a", 18000], "trial": 0, "trial_type": "free-recall", "trial_index": 41, "time_elapsed": 342665, "internal_node_id": "0.0-32.0-0.0"}}, {"uniqueid": "MTK0457:3STRJBFXOXY793P7BTXWZQ1JB8BTKX", "current_trial": 42, "dateTime": 1510932018307, "trialdata": {"rt": 3007, "key_press": 32, "type": "INSTRUCTIONS", "trial_type": "text", "trial_index": 42, "time_elapsed": 347679, "internal_node_id": "0.0-33.0"}}, {"uniqueid": "MTK0457:3STRJBFXOXY793P7BTXWZQ1JB8BTKX", "current_trial": 43, "dateTime": 1510932038312, "trialdata": {"rt": [4289, 7514, 11370, 13821, 16965], "responses": ["22", "14", "8", "19", "16"], "num1": [8, 5, 2, 8, 5, 9], "num2": [7, 2, 1, 2, 3, 2], "num3": [7, 7, 5, 9, 8, 1], "type": "DISTRACTOR", "conditions": [18, 1200, "v", 18000], "trial": 1, "trial_type": "math-distractor", "trial_index": 43, "time_elapsed": 367683, "internal_node_id": "0.0-34.0"}}, {"uniqueid": "MTK0457:3STRJBFXOXY793P7BTXWZQ1JB8BTKX", "current_trial": 44, "dateTime": 1510932041313, "trialdata": {"rt": -1, "stimulus": "<p id=\"stim\">10</p>", "key_press": -1, "trial_type": "single-stim", "trial_index": 44, "time_elapsed": 370685, "internal_node_id": "0.0-35.0-0.0"}}, {"uniqueid": "MTK0457:3STRJBFXOXY793P7BTXWZQ1JB8BTKX", "current_trial": 45, "dateTime": 1510932042314, "trialdata": {"rt": -1, "stimulus": "<p id=\"stim\">9</p>", "key_press": -1, "trial_type": "single-stim", "trial_index": 45, "time_elapsed": 371686, "internal_node_id": "0.0-35.0-1.0"}}, {"uniqueid": "MTK0457:3STRJBFXOXY793P7BTXWZQ1JB8BTKX", "current_trial": 46, "dateTime": 1510932043315, "trialdata": {"rt": -1, "stimulus": "<p id=\"stim\">8</p>", "key_press": -1, "trial_type": "single-stim", "trial_index": 46, "time_elapsed": 372687, "internal_node_id": "0.0-35.0-2.0"}}, {"uniqueid": "MTK0457:3STRJBFXOXY793P7BTXWZQ1JB8BTKX", "current_trial": 47, "dateTime": 1510932044317, "trialdata": {"rt": -1, "stimulus": "<p id=\"stim\">7</p>", "key_press": -1, "trial_type": "single-stim", "trial_index": 47, "time_elapsed": 373689, "internal_node_id": "0.0-35.0-3.0"}}, {"uniqueid": "MTK0457:3STRJBFXOXY793P7BTXWZQ1JB8BTKX", "current_trial": 48, "dateTime": 1510932045318, "trialdata": {"rt": -1, "stimulus": "<p id=\"stim\">6</p>", "key_press": -1, "trial_type": "single-stim", "trial_index": 48, "time_elapsed": 374690, "internal_node_id": "0.0-35.0-4.0"}}, {"uniqueid": "MTK0457:3STRJBFXOXY793P7BTXWZQ1JB8BTKX", "current_trial": 49, "dateTime": 1510932046319, "trialdata": {"rt": -1, "stimulus": "<p id=\"stim\">5</p>", "key_press": -1, "trial_type": "single-stim", "trial_index": 49, "time_elapsed": 375691, "internal_node_id": "0.0-35.0-5.0"}}, {"uniqueid": "MTK0457:3STRJBFXOXY793P7BTXWZQ1JB8BTKX", "current_trial": 50, "dateTime": 1510932047320, "trialdata": {"rt": -1, "stimulus": "<p id=\"stim\">4</p>", "key_press": -1, "trial_type": "single-stim", "trial_index": 50, "time_elapsed": 376692, "internal_node_id": "0.0-35.0-6.0"}}, {"uniqueid": "MTK0457:3STRJBFXOXY793P7BTXWZQ1JB8BTKX", "current_trial": 51, "dateTime": 1510932048321, "trialdata": {"rt": -1, "stimulus": "<p id=\"stim\">3</p>", "key_press": -1, "trial_type": "single-stim", "trial_index": 51, "time_elapsed": 377693, "internal_node_id": "0.0-35.0-7.0"}}, {"uniqueid": "MTK0457:3STRJBFXOXY793P7BTXWZQ1JB8BTKX", "current_trial": 52, "dateTime": 1510932049322, "trialdata": {"rt": -1, "stimulus": "<p id=\"stim\">2</p>", "key_press": -1, "trial_type": "single-stim", "trial_index": 52, "time_elapsed": 378694, "internal_node_id": "0.0-35.0-8.0"}}, {"uniqueid": "MTK0457:3STRJBFXOXY793P7BTXWZQ1JB8BTKX", "current_trial": 53, "dateTime": 1510932050323, "trialdata": {"rt": -1, "stimulus": "<p id=\"stim\">1</p>", "key_press": -1, "trial_type": "single-stim", "trial_index": 53, "time_elapsed": 379695, "internal_node_id": "0.0-35.0-9.0"}}, {"uniqueid": "MTK0457:3STRJBFXOXY793P7BTXWZQ1JB8BTKX", "current_trial": 54, "dateTime": 1510932051825, "trialdata": {"rt": -1, "stimulus": "<p id=\"stim\">+</p>", "key_press": -1, "type": "FIXATION", "trial_type": "single-stim", "trial_index": 54, "time_elapsed": 381197, "internal_node_id": "0.0-36.0-0.0"}}, {"uniqueid": "MTK0457:3STRJBFXOXY793P7BTXWZQ1JB8BTKX", "current_trial": 55, "dateTime": 1510932053026, "trialdata": {"rt": -1, "stimulus": "<p id=\"stim\">BREAST</p>", "key_press": -1, "type": "PRES_VIS", "word": "breast", "wordID": 170, "conditions": [18, 1200, "v", 18000], "trial": 1, "serialpos": 0, "trial_type": "single-stim", "trial_index": 55, "time_elapsed": 382398, "internal_node_id": "0.0-37.0"}}, {"uniqueid": "MTK0457:3STRJBFXOXY793P7BTXWZQ1JB8BTKX", "current_trial": 56, "dateTime": 1510932055143, "trialdata": {"rt": -1, "stimulus": "<p id=\"stim\">MISTER</p>", "key_press": -1, "type": "PRES_VIS", "word": "mister", "wordID": 900, "conditions": [18, 1200, "v", 18000], "trial": 1, "serialpos": 1, "trial_type": "single-stim", "trial_index": 56, "time_elapsed": 384515, "internal_node_id": "0.0-38.0"}}, {"uniqueid": "MTK0457:3STRJBFXOXY793P7BTXWZQ1JB8BTKX", "current_trial": 57, "dateTime": 1510932057474, "trialdata": {"rt": -1, "stimulus": "<p id=\"stim\">ONION</p>", "key_press": -1, "type": "PRES_VIS", "word": "onion", "wordID": 976, "conditions": [18, 1200, "v", 18000], "trial": 1, "serialpos": 2, "trial_type": "single-stim", "trial_index": 57, "time_elapsed": 386846, "internal_node_id": "0.0-39.0"}}, {"uniqueid": "MTK0457:3STRJBFXOXY793P7BTXWZQ1JB8BTKX", "current_trial": 58, "dateTime": 1510932059821, "trialdata": {"rt": -1, "stimulus": "<p id=\"stim\">NAPKIN</p>", "key_press": -1, "type": "PRES_VIS", "word": "napkin", "wordID": 936, "conditions": [18, 1200, "v", 18000], "trial": 1, "serialpos": 3, "trial_type": "single-stim", "trial_index": 58, "time_elapsed": 389193, "internal_node_id": "0.0-40.0"}}, {"uniqueid": "MTK0457:3STRJBFXOXY793P7BTXWZQ1JB8BTKX", "current_trial": 59, "dateTime": 1510932062182, "trialdata": {"rt": -1, "stimulus": "<p id=\"stim\">ITEM</p>", "key_press": -1, "type": "PRES_VIS", "word": "item", "wordID": 745, "conditions": [18, 1200, "v", 18000], "trial": 1, "serialpos": 4, "trial_type": "single-stim", "trial_index": 59, "time_elapsed": 391554, "internal_node_id": "0.0-41.0"}}, {"uniqueid": "MTK0457:3STRJBFXOXY793P7BTXWZQ1JB8BTKX", "current_trial": 60, "dateTime": 1510932064308, "trialdata": {"rt": -1, "stimulus": "<p id=\"stim\">SUNRISE</p>", "key_press": -1, "type": "PRES_VIS", "word": "sunrise", "wordID": 1406, "conditions": [18, 1200, "v", 18000], "trial": 1, "serialpos": 5, "trial_type": "single-stim", "trial_index": 60, "time_elapsed": 393680, "internal_node_id": "0.0-42.0"}}, {"uniqueid": "MTK0457:3STRJBFXOXY793P7BTXWZQ1JB8BTKX", "current_trial": 61, "dateTime": 1510932066546, "trialdata": {"rt": -1, "stimulus": "<p id=\"stim\">COUCH</p>", "key_press": -1, "type": "PRES_VIS", "word": "couch", "wordID": 385, "conditions": [18, 1200, "v", 18000], "trial": 1, "serialpos": 6, "trial_type": "single-stim", "trial_index": 61, "time_elapsed": 395918, "internal_node_id": "0.0-43.0"}}, {"uniqueid": "MTK0457:3STRJBFXOXY793P7BTXWZQ1JB8BTKX", "current_trial": 62, "dateTime": 1510932068788, "trialdata": {"rt": -1, "stimulus": "<p id=\"stim\">STOVE</p>", "key_press": -1, "type": "PRES_VIS", "word": "stove", "wordID": 1387, "conditions": [18, 1200, "v", 18000], "trial": 1, "serialpos": 7, "trial_type": "single-stim", "trial_index": 62, "time_elapsed": 398160, "internal_node_id": "0.0-44.0"}}, {"uniqueid": "MTK0457:3STRJBFXOXY793P7BTXWZQ1JB8BTKX", "current_trial": 63, "dateTime": 1510932070829, "trialdata": {"rt": -1, "stimulus": "<p id=\"stim\">STATUE</p>", "key_press": -1, "type": "PRES_VIS", "word": "statue", "wordID": 1373, "conditions": [18, 1200, "v", 18000], "trial": 1, "serialpos": 8, "trial_type": "single-stim", "trial_index": 63, "time_elapsed": 400201, "internal_node_id": "0.0-45.0"}}, {"uniqueid": "MTK0457:3STRJBFXOXY793P7BTXWZQ1JB8BTKX", "current_trial": 64, "dateTime": 1510932072895, "trialdata": {"rt": -1, "stimulus": "<p id=\"stim\">SCALPEL</p>", "key_press": -1, "type": "PRES_VIS", "word": "scalpel", "wordID": 1242, "conditions": [18, 1200, "v", 18000], "trial": 1, "serialpos": 9, "trial_type": "single-stim", "trial_index": 64, "time_elapsed": 402267, "internal_node_id": "0.0-46.0"}}, {"uniqueid": "MTK0457:3STRJBFXOXY793P7BTXWZQ1JB8BTKX", "current_trial": 65, "dateTime": 1510932075058, "trialdata": {"rt": -1, "stimulus": "<p id=\"stim\">CATTLE</p>", "key_press": -1, "type": "PRES_VIS", "word": "cattle", "wordID": 260, "conditions": [18, 1200, "v", 18000], "trial": 1, "serialpos": 10, "trial_type": "single-stim", "trial_index": 65, "time_elapsed": 404430, "internal_node_id": "0.0-47.0"}}, {"uniqueid": "MTK0457:3STRJBFXOXY793P7BTXWZQ1JB8BTKX", "current_trial": 66, "dateTime": 1510932077381, "trialdata": {"rt": -1, "stimulus": "<p id=\"stim\">CABIN</p>", "key_press": -1, "type": "PRES_VIS", "word": "cabin", "wordID": 210, "conditions": [18, 1200, "v", 18000], "trial": 1, "serialpos": 11, "trial_type": "single-stim", "trial_index": 66, "time_elapsed": 406753, "internal_node_id": "0.0-48.0"}}, {"uniqueid": "MTK0457:3STRJBFXOXY793P7BTXWZQ1JB8BTKX", "current_trial": 67, "dateTime": 1510932079386, "trialdata": {"rt": -1, "stimulus": "<p id=\"stim\">TWEEZERS</p>", "key_press": -1, "type": "PRES_VIS", "word": "tweezers", "wordID": 1525, "conditions": [18, 1200, "v", 18000], "trial": 1, "serialpos": 12, "trial_type": "single-stim", "trial_index": 67, "time_elapsed": 408758, "internal_node_id": "0.0-49.0"}}, {"uniqueid": "MTK0457:3STRJBFXOXY793P7BTXWZQ1JB8BTKX", "current_trial": 68, "dateTime": 1510932081428, "trialdata": {"rt": -1, "stimulus": "<p id=\"stim\">SHORTS</p>", "key_press": -1, "type": "PRES_VIS", "word": "shorts", "wordID": 1292, "conditions": [18, 1200, "v", 18000], "trial": 1, "serialpos": 13, "trial_type": "single-stim", "trial_index": 68, "time_elapsed": 410798, "internal_node_id": "0.0-50.0"}}, {"uniqueid": "MTK0457:3STRJBFXOXY793P7BTXWZQ1JB8BTKX", "current_trial": 69, "dateTime": 1510932083666, "trialdata": {"rt": -1, "stimulus": "<p id=\"stim\">YARN</p>", "key_press": -1, "type": "PRES_VIS", "word": "yarn", "wordID": 1630, "conditions": [18, 1200, "v", 18000], "trial": 1, "serialpos": 14, "trial_type": "single-stim", "trial_index": 69, "time_elapsed": 413038, "internal_node_id": "0.0-51.0"}}, {"uniqueid": "MTK0457:3STRJBFXOXY793P7BTXWZQ1JB8BTKX", "current_trial": 70, "dateTime": 1510932085746, "trialdata": {"rt": -1, "stimulus": "<p id=\"stim\">SPARROW</p>", "key_press": -1, "type": "PRES_VIS", "word": "sparrow", "wordID": 1346, "conditions": [18, 1200, "v", 18000], "trial": 1, "serialpos": 15, "trial_type": "single-stim", "trial_index": 70, "time_elapsed": 415118, "internal_node_id": "0.0-52.0"}}, {"uniqueid": "MTK0457:3STRJBFXOXY793P7BTXWZQ1JB8BTKX", "current_trial": 71, "dateTime": 1510932088104, "trialdata": {"rt": -1, "stimulus": "<p id=\"stim\">BURGLAR</p>", "key_press": -1, "type": "PRES_VIS", "word": "burglar", "wordID": 199, "conditions": [18, 1200, "v", 18000], "trial": 1, "serialpos": 16, "trial_type": "single-stim", "trial_index": 71, "time_elapsed": 417476, "internal_node_id": "0.0-53.0"}}, {"uniqueid": "MTK0457:3STRJBFXOXY793P7BTXWZQ1JB8BTKX", "current_trial": 72, "dateTime": 1510932090217, "trialdata": {"rt": -1, "stimulus": "<p id=\"stim\">JAPAN</p>", "key_press": -1, "type": "PRES_VIS", "word": "japan", "wordID": 748, "conditions": [18, 1200, "v", 18000], "trial": 1, "serialpos": 17, "trial_type": "single-stim", "trial_index": 72, "time_elapsed": 419588, "internal_node_id": "0.0-54.0"}}, {"uniqueid": "MTK0457:3STRJBFXOXY793P7BTXWZQ1JB8BTKX", "current_trial": 73, "dateTime": 1510932092319, "trialdata": {"rt": -1, "stimulus": "", "key_press": -1, "type": "PRE_RECALL_DELAY", "trial_type": "single-stim", "trial_index": 73, "time_elapsed": 421691, "internal_node_id": "0.0-55.0-0.0"}}, {"uniqueid": "MTK0457:3STRJBFXOXY793P7BTXWZQ1JB8BTKX", "current_trial": 74, "dateTime": 1510932092820, "trialdata": {"rt": -1000, "stimulus": "/static/audio/400Hz.wav", "key_press": -1, "type": "PRE_RECALL_ALERT", "trial_type": "single-audio", "trial_index": 74, "time_elapsed": 422192, "internal_node_id": "0.0-56.0"}}, {"uniqueid": "MTK0457:3STRJBFXOXY793P7BTXWZQ1JB8BTKX", "current_trial": 75, "dateTime": 1510932152829, "trialdata": {"rt": [2291, 4840, 6516, 10908, 14239, 17277, 20242], "recwords": ["japan", "yarn", "stove", "mister", "breast", "onion", "burglar"], "type": "FREE_RECALL", "conditions": [18, 1200, "v", 18000], "trial": 1, "trial_type": "free-recall", "trial_index": 75, "time_elapsed": 482198, "internal_node_id": "0.0-57.0-0.0"}}, {"uniqueid": "MTK0457:3STRJBFXOXY793P7BTXWZQ1JB8BTKX", "current_trial": 76, "dateTime": 1510932158250, "trialdata": {"rt": 3416, "key_press": 32, "type": "INSTRUCTIONS", "trial_type": "text", "trial_index": 76, "time_elapsed": 487618, "internal_node_id": "0.0-58.0"}}, {"uniqueid": "MTK0457:3STRJBFXOXY793P7BTXWZQ1JB8BTKX", "current_trial": 77, "dateTime": 1510932171253, "trialdata": {"rt": [3611, 7645, 11025], "responses": ["13", "13", "18"], "num1": [2, 1, 6, 4], "num2": [4, 4, 5, 2], "num3": [7, 8, 7, 4], "type": "DISTRACTOR", "conditions": [24, 1600, "a", 12000], "trial": 2, "trial_type": "math-distractor", "trial_index": 77, "time_elapsed": 500625, "internal_node_id": "0.0-59.0"}}, {"uniqueid": "MTK0457:3STRJBFXOXY793P7BTXWZQ1JB8BTKX", "current_trial": 78, "dateTime": 1510932174256, "trialdata": {"rt": -1, "stimulus": "<p id=\"stim\">10</p>", "key_press": -1, "trial_type": "single-stim", "trial_index": 78, "time_elapsed": 503628, "internal_node_id": "0.0-60.0-0.0"}}, {"uniqueid": "MTK0457:3STRJBFXOXY793P7BTXWZQ1JB8BTKX", "current_trial": 79, "dateTime": 1510932175257, "trialdata": {"rt": -1, "stimulus": "<p id=\"stim\">9</p>", "key_press": -1, "trial_type": "single-stim", "trial_index": 79, "time_elapsed": 504629, "internal_node_id": "0.0-60.0-1.0"}}, {"uniqueid": "MTK0457:3STRJBFXOXY793P7BTXWZQ1JB8BTKX", "current_trial": 80, "dateTime": 1510932176258, "trialdata": {"rt": -1, "stimulus": "<p id=\"stim\">8</p>", "key_press": -1, "trial_type": "single-stim", "trial_index": 80, "time_elapsed": 505630, "internal_node_id": "0.0-60.0-2.0"}}, {"uniqueid": "MTK0457:3STRJBFXOXY793P7BTXWZQ1JB8BTKX", "current_trial": 81, "dateTime": 1510932177259, "trialdata": {"rt": -1, "stimulus": "<p id=\"stim\">7</p>", "key_press": -1, "trial_type": "single-stim", "trial_index": 81, "time_elapsed": 506631, "internal_node_id": "0.0-60.0-3.0"}}, {"uniqueid": "MTK0457:3STRJBFXOXY793P7BTXWZQ1JB8BTKX", "current_trial": 82, "dateTime": 1510932178260, "trialdata": {"rt": -1, "stimulus": "<p id=\"stim\">6</p>", "key_press": -1, "trial_type": "single-stim", "trial_index": 82, "time_elapsed": 507632, "internal_node_id": "0.0-60.0-4.0"}}, {"uniqueid": "MTK0457:3STRJBFXOXY793P7BTXWZQ1JB8BTKX", "current_trial": 83, "dateTime": 1510932179261, "trialdata": {"rt": -1, "stimulus": "<p id=\"stim\">5</p>", "key_press": -1, "trial_type": "single-stim", "trial_index": 83, "time_elapsed": 508633, "internal_node_id": "0.0-60.0-5.0"}}, {"uniqueid": "MTK0457:3STRJBFXOXY793P7BTXWZQ1JB8BTKX", "current_trial": 84, "dateTime": 1510932180262, "trialdata": {"rt": -1, "stimulus": "<p id=\"stim\">4</p>", "key_press": -1, "trial_type": "single-stim", "trial_index": 84, "time_elapsed": 509634, "internal_node_id": "0.0-60.0-6.0"}}, {"uniqueid": "MTK0457:3STRJBFXOXY793P7BTXWZQ1JB8BTKX", "current_trial": 85, "dateTime": 1510932181263, "trialdata": {"rt": -1, "stimulus": "<p id=\"stim\">3</p>", "key_press": -1, "trial_type": "single-stim", "trial_index": 85, "time_elapsed": 510635, "internal_node_id": "0.0-60.0-7.0"}}, {"uniqueid": "MTK0457:3STRJBFXOXY793P7BTXWZQ1JB8BTKX", "current_trial": 86, "dateTime": 1510932182264, "trialdata": {"rt": -1, "stimulus": "<p id=\"stim\">2</p>", "key_press": -1, "trial_type": "single-stim", "trial_index": 86, "time_elapsed": 511636, "internal_node_id": "0.0-60.0-8.0"}}, {"uniqueid": "MTK0457:3STRJBFXOXY793P7BTXWZQ1JB8BTKX", "current_trial": 87, "dateTime": 1510932183265, "trialdata": {"rt": -1, "stimulus": "<p id=\"stim\">1</p>", "key_press": -1, "trial_type": "single-stim", "trial_index": 87, "time_elapsed": 512637, "internal_node_id": "0.0-60.0-9.0"}}, {"uniqueid": "MTK0457:3STRJBFXOXY793P7BTXWZQ1JB8BTKX", "current_trial": 88, "dateTime": 1510932184766, "trialdata": {"rt": -1, "stimulus": "<p id=\"stim\">+</p>", "key_press": -1, "type": "FIXATION", "trial_type": "single-stim", "trial_index": 88, "time_elapsed": 514138, "internal_node_id": "0.0-61.0-0.0"}}, {"uniqueid": "MTK0457:3STRJBFXOXY793P7BTXWZQ1JB8BTKX", "current_trial": 89, "dateTime": 1510932187474, "trialdata": {"rt": -1000, "stimulus": "/static/audio/wordpool/POISON.wav", "key_press": -1, "type": "PRES_AUD", "word": "poison", "wordID": 1095, "conditions": [24, 1600, "a", 12000], "trial": 2, "serialpos": 0, "trial_type": "single-audio", "trial_index": 89, "time_elapsed": 516846, "internal_node_id": "0.0-62.0"}}, {"uniqueid": "MTK0457:3STRJBFXOXY793P7BTXWZQ1JB8BTKX", "current_trial": 90, "dateTime": 1510932190215, "trialdata": {"rt": -1000, "stimulus": "/static/audio/wordpool/ELBOW.wav", "key_press": -1, "type": "PRES_AUD", "word": "elbow", "wordID": 519, "conditions": [24, 1600, "a", 12000], "trial": 2, "serialpos": 1, "trial_type": "single-audio", "trial_index": 90, "time_elapsed": 519587, "internal_node_id": "0.0-63.0"}}, {"uniqueid": "MTK0457:3STRJBFXOXY793P7BTXWZQ1JB8BTKX", "current_trial": 91, "dateTime": 1510932192837, "trialdata": {"rt": -1000, "stimulus": "/static/audio/wordpool/BANKER.wav", "key_press": -1, "type": "PRES_AUD", "word": "banker", "wordID": 83, "conditions": [24, 1600, "a", 12000], "trial": 2, "serialpos": 2, "trial_type": "single-audio", "trial_index": 91, "time_elapsed": 522209, "internal_node_id": "0.0-64.0"}}, {"uniqueid": "MTK0457:3STRJBFXOXY793P7BTXWZQ1JB8BTKX", "current_trial": 92, "dateTime": 1510932195341, "trialdata": {"rt": -1000, "stimulus": "/static/audio/wordpool/TABLET.wav", "key_press": -1, "type": "PRES_AUD", "word": "tablet", "wordID": 1426, "conditions": [24, 1600, "a", 12000], "trial": 2, "serialpos": 3, "trial_type": "single-audio", "trial_index": 92, "time_elapsed": 524713, "internal_node_id": "0.0-65.0"}}, {"uniqueid": "MTK0457:3STRJBFXOXY793P7BTXWZQ1JB8BTKX", "current_trial": 93, "dateTime": 1510932197991, "trialdata": {"rt": -1000, "stimulus": "/static/audio/wordpool/LIPSTICK.wav", "key_press": -1, "type": "PRES_AUD", "word": "lipstick", "wordID": 828, "conditions": [24, 1600, "a", 12000], "trial": 2, "serialpos": 4, "trial_type": "single-audio", "trial_index": 93, "time_elapsed": 527363, "internal_node_id": "0.0-66.0"}}, {"uniqueid": "MTK0457:3STRJBFXOXY793P7BTXWZQ1JB8BTKX", "current_trial": 94, "dateTime": 1510932200500, "trialdata": {"rt": -1000, "stimulus": "/static/audio/wordpool/CHIPMUNK.wav", "key_press": -1, "type": "PRES_AUD", "word": "chipmunk", "wordID": 303, "conditions": [24, 1600, "a", 12000], "trial": 2, "serialpos": 5, "trial_type": "single-audio", "trial_index": 94, "time_elapsed": 529872, "internal_node_id": "0.0-67.0"}}, {"uniqueid": "MTK0457:3STRJBFXOXY793P7BTXWZQ1JB8BTKX", "current_trial": 95, "dateTime": 1510932203083, "trialdata": {"rt": -1000, "stimulus": "/static/audio/wordpool/BUNNY.wav", "key_press": -1, "type": "PRES_AUD", "word": "bunny", "wordID": 197, "conditions": [24, 1600, "a", 12000], "trial": 2, "serialpos": 6, "trial_type": "single-audio", "trial_index": 95, "time_elapsed": 532455, "internal_node_id": "0.0-68.0"}}, {"uniqueid": "MTK0457:3STRJBFXOXY793P7BTXWZQ1JB8BTKX", "current_trial": 96, "dateTime": 1510932205709, "trialdata": {"rt": -1000, "stimulus": "/static/audio/wordpool/LEG.wav", "key_press": -1, "type": "PRES_AUD", "word": "leg", "wordID": 808, "conditions": [24, 1600, "a", 12000], "trial": 2, "serialpos": 7, "trial_type": "single-audio", "trial_index": 96, "time_elapsed": 535081, "internal_node_id": "0.0-69.0"}}, {"uniqueid": "MTK0457:3STRJBFXOXY793P7BTXWZQ1JB8BTKX", "current_trial": 97, "dateTime": 1510932208455, "trialdata": {"rt": -1000, "stimulus": "/static/audio/wordpool/COCKTAIL.wav", "key_press": -1, "type": "PRES_AUD", "word": "cocktail", "wordID": 337, "conditions": [24, 1600, "a", 12000], "trial": 2, "serialpos": 8, "trial_type": "single-audio", "trial_index": 97, "time_elapsed": 537827, "internal_node_id": "0.0-70.0"}}, {"uniqueid": "MTK0457:3STRJBFXOXY793P7BTXWZQ1JB8BTKX", "current_trial": 98, "dateTime": 1510932211214, "trialdata": {"rt": -1000, "stimulus": "/static/audio/wordpool/KLEENEX.wav", "key_press": -1, "type": "PRES_AUD", "word": "kleenex", "wordID": 781, "conditions": [24, 1600, "a", 12000], "trial": 2, "serialpos": 9, "trial_type": "single-audio", "trial_index": 98, "time_elapsed": 540586, "internal_node_id": "0.0-71.0"}}, {"uniqueid": "MTK0457:3STRJBFXOXY793P7BTXWZQ1JB8BTKX", "current_trial": 99, "dateTime": 1510932213729, "trialdata": {"rt": -1000, "stimulus": "/static/audio/wordpool/DUST.wav", "key_press": -1, "type": "PRES_AUD", "word": "dust", "wordID": 507, "conditions": [24, 1600, "a", 12000], "trial": 2, "serialpos": 10, "trial_type": "single-audio", "trial_index": 99, "time_elapsed": 543101, "internal_node_id": "0.0-72.0"}}, {"uniqueid": "MTK0457:3STRJBFXOXY793P7BTXWZQ1JB8BTKX", "current_trial": 100, "dateTime": 1510932216436, "trialdata": {"rt": -1000, "stimulus": "/static/audio/wordpool/CONVICT.wav", "key_press": -1, "type": "PRES_AUD", "word": "convict", "wordID": 370, "conditions": [24, 1600, "a", 12000], "trial": 2, "serialpos": 11, "trial_type": "single-audio", "trial_index": 100, "time_elapsed": 545808, "internal_node_id": "0.0-73.0"}}, {"uniqueid": "MTK0457:3STRJBFXOXY793P7BTXWZQ1JB8BTKX", "current_trial": 101, "dateTime": 1510932219165, "trialdata": {"rt": -1000, "stimulus": "/static/audio/wordpool/WAITRESS.wav", "key_press": -1, "type": "PRES_AUD", "word": "waitress", "wordID": 1580, "conditions": [24, 1600, "a", 12000], "trial": 2, "serialpos": 12, "trial_type": "single-audio", "trial_index": 101, "time_elapsed": 548537, "internal_node_id": "0.0-74.0"}}, {"uniqueid": "MTK0457:3STRJBFXOXY793P7BTXWZQ1JB8BTKX", "current_trial": 102, "dateTime": 1510932221784, "trialdata": {"rt": -1000, "stimulus": "/static/audio/wordpool/NOMAD.wav", "key_press": -1, "type": "PRES_AUD", "word": "nomad", "wordID": 954, "conditions": [24, 1600, "a", 12000], "trial": 2, "serialpos": 13, "trial_type": "single-audio", "trial_index": 102, "time_elapsed": 551156, "internal_node_id": "0.0-75.0"}}, {"uniqueid": "MTK0457:3STRJBFXOXY793P7BTXWZQ1JB8BTKX", "current_trial": 103, "dateTime": 1510932224186, "trialdata": {"rt": -1000, "stimulus": "/static/audio/wordpool/TRUCK.wav", "key_press": -1, "type": "PRES_AUD", "word": "truck", "wordID": 1511, "conditions": [24, 1600, "a", 12000], "trial": 2, "serialpos": 14, "trial_type": "single-audio", "trial_index": 103, "time_elapsed": 553558, "internal_node_id": "0.0-76.0"}}, {"uniqueid": "MTK0457:3STRJBFXOXY793P7BTXWZQ1JB8BTKX", "current_trial": 104, "dateTime": 1510932226716, "trialdata": {"rt": -1000, "stimulus": "/static/audio/wordpool/PECAN.wav", "key_press": -1, "type": "PRES_AUD", "word": "pecan", "wordID": 1035, "conditions": [24, 1600, "a", 12000], "trial": 2, "serialpos": 15, "trial_type": "single-audio", "trial_index": 104, "time_elapsed": 556088, "internal_node_id": "0.0-77.0"}}, {"uniqueid": "MTK0457:3STRJBFXOXY793P7BTXWZQ1JB8BTKX", "current_trial": 105, "dateTime": 1510932229346, "trialdata": {"rt": -1000, "stimulus": "/static/audio/wordpool/PEACH.wav", "key_press": -1, "type": "PRES_AUD", "word": "peach", "wordID": 1030, "conditions": [24, 1600, "a", 12000], "trial": 2, "serialpos": 16, "trial_type": "single-audio", "trial_index": 105, "time_elapsed": 558718, "internal_node_id": "0.0-78.0"}}, {"uniqueid": "MTK0457:3STRJBFXOXY793P7BTXWZQ1JB8BTKX", "current_trial": 106, "dateTime": 1510932231781, "trialdata": {"rt": -1000, "stimulus": "/static/audio/wordpool/THIEF.wav", "key_press": -1, "type": "PRES_AUD", "word": "thief", "wordID": 1455, "conditions": [24, 1600, "a", 12000], "trial": 2, "serialpos": 17, "trial_type": "single-audio", "trial_index": 106, "time_elapsed": 561153, "internal_node_id": "0.0-79.0"}}, {"uniqueid": "MTK0457:3STRJBFXOXY793P7BTXWZQ1JB8BTKX", "current_trial": 107, "dateTime": 1510932234462, "trialdata": {"rt": -1000, "stimulus": "/static/audio/wordpool/GIRL.wav", "key_press": -1, "type": "PRES_AUD", "word": "girl", "wordID": 636, "conditions": [24, 1600, "a", 12000], "trial": 2, "serialpos": 18, "trial_type": "single-audio", "trial_index": 107, "time_elapsed": 563834, "internal_node_id": "0.0-80.0"}}, {"uniqueid": "MTK0457:3STRJBFXOXY793P7BTXWZQ1JB8BTKX", "current_trial": 108, "dateTime": 1510932236991, "trialdata": {"rt": -1000, "stimulus": "/static/audio/wordpool/WAITER.wav", "key_press": -1, "type": "PRES_AUD", "word": "waiter", "wordID": 1579, "conditions": [24, 1600, "a", 12000], "trial": 2, "serialpos": 19, "trial_type": "single-audio", "trial_index": 108, "time_elapsed": 566363, "internal_node_id": "0.0-81.0"}}, {"uniqueid": "MTK0457:3STRJBFXOXY793P7BTXWZQ1JB8BTKX", "current_trial": 109, "dateTime": 1510932239464, "trialdata": {"rt": -1000, "stimulus": "/static/audio/wordpool/LUMBER.wav", "key_press": -1, "type": "PRES_AUD", "word": "lumber", "wordID": 847, "conditions": [24, 1600, "a", 12000], "trial": 2, "serialpos": 20, "trial_type": "single-audio", "trial_index": 109, "time_elapsed": 568836, "internal_node_id": "0.0-82.0"}}, {"uniqueid": "MTK0457:3STRJBFXOXY793P7BTXWZQ1JB8BTKX", "current_trial": 110, "dateTime": 1510932241989, "trialdata": {"rt": -1000, "stimulus": "/static/audio/wordpool/MOTOR.wav", "key_press": -1, "type": "PRES_AUD", "word": "motor", "wordID": 921, "conditions": [24, 1600, "a", 12000], "trial": 2, "serialpos": 21, "trial_type": "single-audio", "trial_index": 110, "time_elapsed": 571361, "internal_node_id": "0.0-83.0"}}, {"uniqueid": "MTK0457:3STRJBFXOXY793P7BTXWZQ1JB8BTKX", "current_trial": 111, "dateTime": 1510932244454, "trialdata": {"rt": -1000, "stimulus": "/static/audio/wordpool/CASKET.wav", "key_press": -1, "type": "PRES_AUD", "word": "casket", "wordID": 254, "conditions": [24, 1600, "a", 12000], "trial": 2, "serialpos": 22, "trial_type": "single-audio", "trial_index": 111, "time_elapsed": 573826, "internal_node_id": "0.0-84.0"}}, {"uniqueid": "MTK0457:3STRJBFXOXY793P7BTXWZQ1JB8BTKX", "current_trial": 112, "dateTime": 1510932247088, "trialdata": {"rt": -1000, "stimulus": "/static/audio/wordpool/BEAST.wav", "key_press": -1, "type": "PRES_AUD", "word": "beast", "wordID": 107, "conditions": [24, 1600, "a", 12000], "trial": 2, "serialpos": 23, "trial_type": "single-audio", "trial_index": 112, "time_elapsed": 576460, "internal_node_id": "0.0-85.0"}}, {"uniqueid": "MTK0457:3STRJBFXOXY793P7BTXWZQ1JB8BTKX", "current_trial": 113, "dateTime": 1510932248365, "trialdata": {"rt": -1, "stimulus": "", "key_press": -1, "type": "PRE_RECALL_DELAY", "trial_type": "single-stim", "trial_index": 113, "time_elapsed": 577737, "internal_node_id": "0.0-86.0-0.0"}}, {"uniqueid": "MTK0457:3STRJBFXOXY793P7BTXWZQ1JB8BTKX", "current_trial": 114, "dateTime": 1510932248867, "trialdata": {"rt": -1000, "stimulus": "/static/audio/400Hz.wav", "key_press": -1, "type": "PRE_RECALL_ALERT", "trial_type": "single-audio", "trial_index": 114, "time_elapsed": 578239, "internal_node_id": "0.0-87.0"}}, {"uniqueid": "MTK0457:3STRJBFXOXY793P7BTXWZQ1JB8BTKX", "current_trial": 115, "dateTime": 1510932308882, "trialdata": {"rt": [4355, 6228, 9312, 11726, 27788, 31970, 33702, 36069, 40221, 45303, 47942], "recwords": ["beast", "bunny", "chipmunk", "thief", "cascik", "peach", "pecan", "lumber", "motor", "waiter", "waitress"], "type": "FREE_RECALL", "conditions": [24, 1600, "a", 12000], "trial": 2, "trial_type": "free-recall", "trial_index": 115, "time_elapsed": 638245, "internal_node_id": "0.0-88.0-0.0"}}, {"uniqueid": "MTK0457:3STRJBFXOXY793P7BTXWZQ1JB8BTKX", "current_trial": 116, "dateTime": 1510932313544, "trialdata": {"rt": 2661, "key_press": 32, "type": "INSTRUCTIONS", "trial_type": "text", "trial_index": 116, "time_elapsed": 642916, "internal_node_id": "0.0-89.0"}}, {"uniqueid": "MTK0457:3STRJBFXOXY793P7BTXWZQ1JB8BTKX", "current_trial": 117, "dateTime": 1510932327547, "trialdata": {"rt": [10150], "responses": ["24"], "num1": [9, 5], "num2": [7, 1], "num3": [8, 6], "type": "DISTRACTOR", "conditions": [24, 800, "a", 12000], "trial": 3, "trial_type": "math-distractor", "trial_index": 117, "time_elapsed": 656919, "internal_node_id": "0.0-90.0"}}, {"uniqueid": "MTK0457:3STRJBFXOXY793P7BTXWZQ1JB8BTKX", "current_trial": 118, "dateTime": 1510932330549, "trialdata": {"rt": -1, "stimulus": "<p id=\"stim\">10</p>", "key_press": -1, "trial_type": "single-stim", "trial_index": 118, "time_elapsed": 659921, "internal_node_id": "0.0-91.0-0.0"}}, {"uniqueid": "MTK0457:3STRJBFXOXY793P7BTXWZQ1JB8BTKX", "current_trial": 119, "dateTime": 1510932331551, "trialdata": {"rt": -1, "stimulus": "<p id=\"stim\">9</p>", "key_press": -1, "trial_type": "single-stim", "trial_index": 119, "time_elapsed": 660923, "internal_node_id": "0.0-91.0-1.0"}}, {"uniqueid": "MTK0457:3STRJBFXOXY793P7BTXWZQ1JB8BTKX", "current_trial": 120, "dateTime": 1510932332553, "trialdata": {"rt": -1, "stimulus": "<p id=\"stim\">8</p>", "key_press": -1, "trial_type": "single-stim", "trial_index": 120, "time_elapsed": 661924, "internal_node_id": "0.0-91.0-2.0"}}, {"uniqueid": "MTK0457:3STRJBFXOXY793P7BTXWZQ1JB8BTKX", "current_trial": 121, "dateTime": 1510932333555, "trialdata": {"rt": -1, "stimulus": "<p id=\"stim\">7</p>", "key_press": -1, "trial_type": "single-stim", "trial_index": 121, "time_elapsed": 662927, "internal_node_id": "0.0-91.0-3.0"}}, {"uniqueid": "MTK0457:3STRJBFXOXY793P7BTXWZQ1JB8BTKX", "current_trial": 122, "dateTime": 1510932334556, "trialdata": {"rt": -1, "stimulus": "<p id=\"stim\">6</p>", "key_press": -1, "trial_type": "single-stim", "trial_index": 122, "time_elapsed": 663928, "internal_node_id": "0.0-91.0-4.0"}}, {"uniqueid": "MTK0457:3STRJBFXOXY793P7BTXWZQ1JB8BTKX", "current_trial": 123, "dateTime": 1510932335557, "trialdata": {"rt": -1, "stimulus": "<p id=\"stim\">5</p>", "key_press": -1, "trial_type": "single-stim", "trial_index": 123, "time_elapsed": 664929, "internal_node_id": "0.0-91.0-5.0"}}, {"uniqueid": "MTK0457:3STRJBFXOXY793P7BTXWZQ1JB8BTKX", "current_trial": 124, "dateTime": 1510932336558, "trialdata": {"rt": -1, "stimulus": "<p id=\"stim\">4</p>", "key_press": -1, "trial_type": "single-stim", "trial_index": 124, "time_elapsed": 665930, "internal_node_id": "0.0-91.0-6.0"}}, {"uniqueid": "MTK0457:3STRJBFXOXY793P7BTXWZQ1JB8BTKX", "current_trial": 125, "dateTime": 1510932337558, "trialdata": {"rt": -1, "stimulus": "<p id=\"stim\">3</p>", "key_press": -1, "trial_type": "single-stim", "trial_index": 125, "time_elapsed": 666930, "internal_node_id": "0.0-91.0-7.0"}}, {"uniqueid": "MTK0457:3STRJBFXOXY793P7BTXWZQ1JB8BTKX", "current_trial": 126, "dateTime": 1510932338559, "trialdata": {"rt": -1, "stimulus": "<p id=\"stim\">2</p>", "key_press": -1, "trial_type": "single-stim", "trial_index": 126, "time_elapsed": 667931, "internal_node_id": "0.0-91.0-8.0"}}, {"uniqueid": "MTK0457:3STRJBFXOXY793P7BTXWZQ1JB8BTKX", "current_trial": 127, "dateTime": 1510932339560, "trialdata": {"rt": -1, "stimulus": "<p id=\"stim\">1</p>", "key_press": -1, "trial_type": "single-stim", "trial_index": 127, "time_elapsed": 668932, "internal_node_id": "0.0-91.0-9.0"}}, {"uniqueid": "MTK0457:3STRJBFXOXY793P7BTXWZQ1JB8BTKX", "current_trial": 128, "dateTime": 1510932341061, "trialdata": {"rt": -1, "stimulus": "<p id=\"stim\">+</p>", "key_press": -1, "type": "FIXATION", "trial_type": "single-stim", "trial_index": 128, "time_elapsed": 670433, "internal_node_id": "0.0-92.0-0.0"}}, {"uniqueid": "MTK0457:3STRJBFXOXY793P7BTXWZQ1JB8BTKX", "current_trial": 129, "dateTime": 1510932342979, "trialdata": {"rt": -1000, "stimulus": "/static/audio/wordpool/APRON.wav", "key_press": -1, "type": "PRES_AUD", "word": "apron", "wordID": 34, "conditions": [24, 800, "a", 12000], "trial": 3, "serialpos": 0, "trial_type": "single-audio", "trial_index": 129, "time_elapsed": 672351, "internal_node_id": "0.0-93.0"}}, {"uniqueid": "MTK0457:3STRJBFXOXY793P7BTXWZQ1JB8BTKX", "current_trial": 130, "dateTime": 1510932344840, "trialdata": {"rt": -1000, "stimulus": "/static/audio/wordpool/BOYFRIEND.wav", "key_press": -1, "type": "PRES_AUD", "word": "boyfriend", "wordID": 161, "conditions": [24, 800, "a", 12000], "trial": 3, "serialpos": 1, "trial_type": "single-audio", "trial_index": 130, "time_elapsed": 674212, "internal_node_id": "0.0-94.0"}}, {"uniqueid": "MTK0457:3STRJBFXOXY793P7BTXWZQ1JB8BTKX", "current_trial": 131, "dateTime": 1510932346629, "trialdata": {"rt": -1000, "stimulus": "/static/audio/wordpool/SWIMMER.wav", "key_press": -1, "type": "PRES_AUD", "word": "swimmer", "wordID": 1419, "conditions": [24, 800, "a", 12000], "trial": 3, "serialpos": 2, "trial_type": "single-audio", "trial_index": 131, "time_elapsed": 676001, "internal_node_id": "0.0-95.0"}}, {"uniqueid": "MTK0457:3STRJBFXOXY793P7BTXWZQ1JB8BTKX", "current_trial": 132, "dateTime": 1510932348349, "trialdata": {"rt": -1000, "stimulus": "/static/audio/wordpool/MUSTARD.wav", "key_press": -1, "type": "PRES_AUD", "word": "mustard", "wordID": 934, "conditions": [24, 800, "a", 12000], "trial": 3, "serialpos": 3, "trial_type": "single-audio", "trial_index": 132, "time_elapsed": 677721, "internal_node_id": "0.0-96.0"}}, {"uniqueid": "MTK0457:3STRJBFXOXY793P7BTXWZQ1JB8BTKX", "current_trial": 133, "dateTime": 1510932350051, "trialdata": {"rt": -1000, "stimulus": "/static/audio/wordpool/TOURIST.wav", "key_press": -1, "type": "PRES_AUD", "word": "tourist", "wordID": 1487, "conditions": [24, 800, "a", 12000], "trial": 3, "serialpos": 4, "trial_type": "single-audio", "trial_index": 133, "time_elapsed": 679423, "internal_node_id": "0.0-97.0"}}, {"uniqueid": "MTK0457:3STRJBFXOXY793P7BTXWZQ1JB8BTKX", "current_trial": 134, "dateTime": 1510932351937, "trialdata": {"rt": -1000, "stimulus": "/static/audio/wordpool/PRINCESS.wav", "key_press": -1, "type": "PRES_AUD", "word": "princess", "wordID": 1124, "conditions": [24, 800, "a", 12000], "trial": 3, "serialpos": 5, "trial_type": "single-audio", "trial_index": 134, "time_elapsed": 681309, "internal_node_id": "0.0-98.0"}}, {"uniqueid": "MTK0457:3STRJBFXOXY793P7BTXWZQ1JB8BTKX", "current_trial": 135, "dateTime": 1510932353819, "trialdata": {"rt": -1000, "stimulus": "/static/audio/wordpool/FLIPPER.wav", "key_press": -1, "type": "PRES_AUD", "word": "flipper", "wordID": 579, "conditions": [24, 800, "a", 12000], "trial": 3, "serialpos": 6, "trial_type": "single-audio", "trial_index": 135, "time_elapsed": 683191, "internal_node_id": "0.0-99.0"}}, {"uniqueid": "MTK0457:3STRJBFXOXY793P7BTXWZQ1JB8BTKX", "current_trial": 136, "dateTime": 1510932355503, "trialdata": {"rt": -1000, "stimulus": "/static/audio/wordpool/PLAID.wav", "key_press": -1, "type": "PRES_AUD", "word": "plaid", "wordID": 1079, "conditions": [24, 800, "a", 12000], "trial": 3, "serialpos": 7, "trial_type": "single-audio", "trial_index": 136, "time_elapsed": 684875, "internal_node_id": "0.0-100.0"}}, {"uniqueid": "MTK0457:3STRJBFXOXY793P7BTXWZQ1JB8BTKX", "current_trial": 137, "dateTime": 1510932357434, "trialdata": {"rt": -1000, "stimulus": "/static/audio/wordpool/QUEEN.wav", "key_press": -1, "type": "PRES_AUD", "word": "queen", "wordID": 1148, "conditions": [24, 800, "a", 12000], "trial": 3, "serialpos": 8, "trial_type": "single-audio", "trial_index": 137, "time_elapsed": 686806, "internal_node_id": "0.0-101.0"}}, {"uniqueid": "MTK0457:3STRJBFXOXY793P7BTXWZQ1JB8BTKX", "current_trial": 138, "dateTime": 1510932359219, "trialdata": {"rt": -1000, "stimulus": "/static/audio/wordpool/BANK.wav", "key_press": -1, "type": "PRES_AUD", "word": "bank", "wordID": 82, "conditions": [24, 800, "a", 12000], "trial": 3, "serialpos": 9, "trial_type": "single-audio", "trial_index": 138, "time_elapsed": 688591, "internal_node_id": "0.0-102.0"}}, {"uniqueid": "MTK0457:3STRJBFXOXY793P7BTXWZQ1JB8BTKX", "current_trial": 139, "dateTime": 1510932360855, "trialdata": {"rt": -1000, "stimulus": "/static/audio/wordpool/BRANCH.wav", "key_press": -1, "type": "PRES_AUD", "word": "branch", "wordID": 167, "conditions": [24, 800, "a", 12000], "trial": 3, "serialpos": 10, "trial_type": "single-audio", "trial_index": 139, "time_elapsed": 690227, "internal_node_id": "0.0-103.0"}}, {"uniqueid": "MTK0457:3STRJBFXOXY793P7BTXWZQ1JB8BTKX", "current_trial": 140, "dateTime": 1510932362840, "trialdata": {"rt": -1000, "stimulus": "/static/audio/wordpool/HAWK.wav", "key_press": -1, "type": "PRES_AUD", "word": "hawk", "wordID": 691, "conditions": [24, 800, "a", 12000], "trial": 3, "serialpos": 11, "trial_type": "single-audio", "trial_index": 140, "time_elapsed": 692212, "internal_node_id": "0.0-104.0"}}, {"uniqueid": "MTK0457:3STRJBFXOXY793P7BTXWZQ1JB8BTKX", "current_trial": 141, "dateTime": 1510932364669, "trialdata": {"rt": -1000, "stimulus": "/static/audio/wordpool/SILK.wav", "key_press": -1, "type": "PRES_AUD", "word": "silk", "wordID": 1306, "conditions": [24, 800, "a", 12000], "trial": 3, "serialpos": 12, "trial_type": "single-audio", "trial_index": 141, "time_elapsed": 694041, "internal_node_id": "0.0-105.0"}}, {"uniqueid": "MTK0457:3STRJBFXOXY793P7BTXWZQ1JB8BTKX", "current_trial": 142, "dateTime": 1510932366600, "trialdata": {"rt": -1000, "stimulus": "/static/audio/wordpool/LACE.wav", "key_press": -1, "type": "PRES_AUD", "word": "lace", "wordID": 791, "conditions": [24, 800, "a", 12000], "trial": 3, "serialpos": 13, "trial_type": "single-audio", "trial_index": 142, "time_elapsed": 695972, "internal_node_id": "0.0-106.0"}}, {"uniqueid": "MTK0457:3STRJBFXOXY793P7BTXWZQ1JB8BTKX", "current_trial": 143, "dateTime": 1510932368466, "trialdata": {"rt": -1000, "stimulus": "/static/audio/wordpool/MACHINE.wav", "key_press": -1, "type": "PRES_AUD", "word": "machine", "wordID": 851, "conditions": [24, 800, "a", 12000], "trial": 3, "serialpos": 14, "trial_type": "single-audio", "trial_index": 143, "time_elapsed": 697838, "internal_node_id": "0.0-107.0"}}, {"uniqueid": "MTK0457:3STRJBFXOXY793P7BTXWZQ1JB8BTKX", "current_trial": 144, "dateTime": 1510932370396, "trialdata": {"rt": -1000, "stimulus": "/static/audio/wordpool/DENIM.wav", "key_press": -1, "type": "PRES_AUD", "word": "denim", "wordID": 445, "conditions": [24, 800, "a", 12000], "trial": 3, "serialpos": 15, "trial_type": "single-audio", "trial_index": 144, "time_elapsed": 699768, "internal_node_id": "0.0-108.0"}}, {"uniqueid": "MTK0457:3STRJBFXOXY793P7BTXWZQ1JB8BTKX", "current_trial": 145, "dateTime": 1510932372300, "trialdata": {"rt": -1000, "stimulus": "/static/audio/wordpool/SPACE.wav", "key_press": -1, "type": "PRES_AUD", "word": "space", "wordID": 1344, "conditions": [24, 800, "a", 12000], "trial": 3, "serialpos": 16, "trial_type": "single-audio", "trial_index": 145, "time_elapsed": 701672, "internal_node_id": "0.0-109.0"}}, {"uniqueid": "MTK0457:3STRJBFXOXY793P7BTXWZQ1JB8BTKX", "current_trial": 146, "dateTime": 1510932374198, "trialdata": {"rt": -1000, "stimulus": "/static/audio/wordpool/MONEY.wav", "key_press": -1, "type": "PRES_AUD", "word": "money", "wordID": 907, "conditions": [24, 800, "a", 12000], "trial": 3, "serialpos": 17, "trial_type": "single-audio", "trial_index": 146, "time_elapsed": 703570, "internal_node_id": "0.0-110.0"}}, {"uniqueid": "MTK0457:3STRJBFXOXY793P7BTXWZQ1JB8BTKX", "current_trial": 147, "dateTime": 1510932376105, "trialdata": {"rt": -1000, "stimulus": "/static/audio/wordpool/TYPIST.wav", "key_press": -1, "type": "PRES_AUD", "word": "typist", "wordID": 1531, "conditions": [24, 800, "a", 12000], "trial": 3, "serialpos": 18, "trial_type": "single-audio", "trial_index": 147, "time_elapsed": 705477, "internal_node_id": "0.0-111.0"}}, {"uniqueid": "MTK0457:3STRJBFXOXY793P7BTXWZQ1JB8BTKX", "current_trial": 148, "dateTime": 1510932377804, "trialdata": {"rt": -1000, "stimulus": "/static/audio/wordpool/GHETTO.wav", "key_press": -1, "type": "PRES_AUD", "word": "ghetto", "wordID": 632, "conditions": [24, 800, "a", 12000], "trial": 3, "serialpos": 19, "trial_type": "single-audio", "trial_index": 148, "time_elapsed": 707176, "internal_node_id": "0.0-112.0"}}, {"uniqueid": "MTK0457:3STRJBFXOXY793P7BTXWZQ1JB8BTKX", "current_trial": 149, "dateTime": 1510932379683, "trialdata": {"rt": -1000, "stimulus": "/static/audio/wordpool/CANYON.wav", "key_press": -1, "type": "PRES_AUD", "word": "canyon", "wordID": 234, "conditions": [24, 800, "a", 12000], "trial": 3, "serialpos": 20, "trial_type": "single-audio", "trial_index": 149, "time_elapsed": 709055, "internal_node_id": "0.0-113.0"}}, {"uniqueid": "MTK0457:3STRJBFXOXY793P7BTXWZQ1JB8BTKX", "current_trial": 150, "dateTime": 1510932381399, "trialdata": {"rt": -1000, "stimulus": "/static/audio/wordpool/FILM.wav", "key_press": -1, "type": "PRES_AUD", "word": "film", "wordID": 564, "conditions": [24, 800, "a", 12000], "trial": 3, "serialpos": 21, "trial_type": "single-audio", "trial_index": 150, "time_elapsed": 710771, "internal_node_id": "0.0-114.0"}}, {"uniqueid": "MTK0457:3STRJBFXOXY793P7BTXWZQ1JB8BTKX", "current_trial": 151, "dateTime": 1510932383346, "trialdata": {"rt": -1000, "stimulus": "/static/audio/wordpool/CRITIC.wav", "key_press": -1, "type": "PRES_AUD", "word": "critic", "wordID": 409, "conditions": [24, 800, "a", 12000], "trial": 3, "serialpos": 22, "trial_type": "single-audio", "trial_index": 151, "time_elapsed": 712718, "internal_node_id": "0.0-115.0"}}, {"uniqueid": "MTK0457:3STRJBFXOXY793P7BTXWZQ1JB8BTKX", "current_trial": 152, "dateTime": 1510932385191, "trialdata": {"rt": -1000, "stimulus": "/static/audio/wordpool/VALLEY.wav", "key_press": -1, "type": "PRES_AUD", "word": "valley", "wordID": 1544, "conditions": [24, 800, "a", 12000], "trial": 3, "serialpos": 23, "trial_type": "single-audio", "trial_index": 152, "time_elapsed": 714563, "internal_node_id": "0.0-116.0"}}, {"uniqueid": "MTK0457:3STRJBFXOXY793P7BTXWZQ1JB8BTKX", "current_trial": 153, "dateTime": 1510932386568, "trialdata": {"rt": -1, "stimulus": "", "key_press": -1, "type": "PRE_RECALL_DELAY", "trial_type": "single-stim", "trial_index": 153, "time_elapsed": 715940, "internal_node_id": "0.0-117.0-0.0"}}, {"uniqueid": "MTK0457:3STRJBFXOXY793P7BTXWZQ1JB8BTKX", "current_trial": 154, "dateTime": 1510932387069, "trialdata": {"rt": -1000, "stimulus": "/static/audio/400Hz.wav", "key_press": -1, "type": "PRE_RECALL_ALERT", "trial_type": "single-audio", "trial_index": 154, "time_elapsed": 716441, "internal_node_id": "0.0-118.0"}}, {"uniqueid": "MTK0457:3STRJBFXOXY793P7BTXWZQ1JB8BTKX", "current_trial": 155, "dateTime": 1510932447081, "trialdata": {"rt": [3339, 7397, 9469, 11820, 13479, 14735, 16534, 21389, 23355], "recwords": ["valley", "film", "critic", "typist", "denim", "silk", "lace", "boyfriend", "swimmer"], "type": "FREE_RECALL", "conditions": [24, 800, "a", 12000], "trial": 3, "trial_type": "free-recall", "trial_index": 155, "time_elapsed": 776447, "internal_node_id": "0.0-119.0-0.0"}}, {"uniqueid": "MTK0457:3STRJBFXOXY793P7BTXWZQ1JB8BTKX", "current_trial": 156, "dateTime": 1510932450203, "trialdata": {"rt": 1121, "key_press": 32, "type": "INSTRUCTIONS", "trial_type": "text", "trial_index": 156, "time_elapsed": 779575, "internal_node_id": "0.0-120.0"}}, {"uniqueid": "MTK0457:3STRJBFXOXY793P7BTXWZQ1JB8BTKX", "current_trial": 157, "dateTime": 1510932476206, "trialdata": {"rt": [2760, 4909, 7074, 10382, 13264, 17036, 20166, 23800], "responses": ["10", "19", "12", "15", "16", "16", "14", "17"], "num1": [1, 5, 1, 4, 1, 9, 6, 1, 6], "num2": [7, 5, 9, 2, 6, 3, 1, 8, 1], "num3": [2, 9, 2, 9, 9, 4, 7, 8, 7], "type": "DISTRACTOR", "conditions": [12, 800, "v", 24000], "trial": 4, "trial_type": "math-distractor", "trial_index": 157, "time_elapsed": 805578, "internal_node_id": "0.0-121.0"}}, {"uniqueid": "MTK0457:3STRJBFXOXY793P7BTXWZQ1JB8BTKX", "current_trial": 158, "dateTime": 1510932479208, "trialdata": {"rt": -1, "stimulus": "<p id=\"stim\">10</p>", "key_press": -1, "trial_type": "single-stim", "trial_index": 158, "time_elapsed": 808580, "internal_node_id": "0.0-122.0-0.0"}}, {"uniqueid": "MTK0457:3STRJBFXOXY793P7BTXWZQ1JB8BTKX", "current_trial": 159, "dateTime": 1510932480209, "trialdata": {"rt": -1, "stimulus": "<p id=\"stim\">9</p>", "key_press": -1, "trial_type": "single-stim", "trial_index": 159, "time_elapsed": 809581, "internal_node_id": "0.0-122.0-1.0"}}, {"uniqueid": "MTK0457:3STRJBFXOXY793P7BTXWZQ1JB8BTKX", "current_trial": 160, "dateTime": 1510932481210, "trialdata": {"rt": -1, "stimulus": "<p id=\"stim\">8</p>", "key_press": -1, "trial_type": "single-stim", "trial_index": 160, "time_elapsed": 810582, "internal_node_id": "0.0-122.0-2.0"}}, {"uniqueid": "MTK0457:3STRJBFXOXY793P7BTXWZQ1JB8BTKX", "current_trial": 161, "dateTime": 1510932482211, "trialdata": {"rt": -1, "stimulus": "<p id=\"stim\">7</p>", "key_press": -1, "trial_type": "single-stim", "trial_index": 161, "time_elapsed": 811583, "internal_node_id": "0.0-122.0-3.0"}}, {"uniqueid": "MTK0457:3STRJBFXOXY793P7BTXWZQ1JB8BTKX", "current_trial": 162, "dateTime": 1510932483213, "trialdata": {"rt": -1, "stimulus": "<p id=\"stim\">6</p>", "key_press": -1, "trial_type": "single-stim", "trial_index": 162, "time_elapsed": 812585, "internal_node_id": "0.0-122.0-4.0"}}, {"uniqueid": "MTK0457:3STRJBFXOXY793P7BTXWZQ1JB8BTKX", "current_trial": 163, "dateTime": 1510932484214, "trialdata": {"rt": -1, "stimulus": "<p id=\"stim\">5</p>", "key_press": -1, "trial_type": "single-stim", "trial_index": 163, "time_elapsed": 813586, "internal_node_id": "0.0-122.0-5.0"}}, {"uniqueid": "MTK0457:3STRJBFXOXY793P7BTXWZQ1JB8BTKX", "current_trial": 164, "dateTime": 1510932485215, "trialdata": {"rt": -1, "stimulus": "<p id=\"stim\">4</p>", "key_press": -1, "trial_type": "single-stim", "trial_index": 164, "time_elapsed": 814587, "internal_node_id": "0.0-122.0-6.0"}}, {"uniqueid": "MTK0457:3STRJBFXOXY793P7BTXWZQ1JB8BTKX", "current_trial": 165, "dateTime": 1510932486216, "trialdata": {"rt": -1, "stimulus": "<p id=\"stim\">3</p>", "key_press": -1, "trial_type": "single-stim", "trial_index": 165, "time_elapsed": 815588, "internal_node_id": "0.0-122.0-7.0"}}, {"uniqueid": "MTK0457:3STRJBFXOXY793P7BTXWZQ1JB8BTKX", "current_trial": 166, "dateTime": 1510932487218, "trialdata": {"rt": -1, "stimulus": "<p id=\"stim\">2</p>", "key_press": -1, "trial_type": "single-stim", "trial_index": 166, "time_elapsed": 816590, "internal_node_id": "0.0-122.0-8.0"}}, {"uniqueid": "MTK0457:3STRJBFXOXY793P7BTXWZQ1JB8BTKX", "current_trial": 167, "dateTime": 1510932488219, "trialdata": {"rt": -1, "stimulus": "<p id=\"stim\">1</p>", "key_press": -1, "trial_type": "single-stim", "trial_index": 167, "time_elapsed": 817591, "internal_node_id": "0.0-122.0-9.0"}}, {"uniqueid": "MTK0457:3STRJBFXOXY793P7BTXWZQ1JB8BTKX", "current_trial": 168, "dateTime": 1510932489721, "trialdata": {"rt": -1, "stimulus": "<p id=\"stim\">+</p>", "key_press": -1, "type": "FIXATION", "trial_type": "single-stim", "trial_index": 168, "time_elapsed": 819093, "internal_node_id": "0.0-123.0-0.0"}}, {"uniqueid": "MTK0457:3STRJBFXOXY793P7BTXWZQ1JB8BTKX", "current_trial": 169, "dateTime": 1510932490522, "trialdata": {"rt": -1, "stimulus": "<p id=\"stim\">STREAM</p>", "key_press": -1, "type": "PRES_VIS", "word": "stream", "wordID": 1391, "conditions": [12, 800, "v", 24000], "trial": 4, "serialpos": 0, "trial_type": "single-stim", "trial_index": 169, "time_elapsed": 819894, "internal_node_id": "0.0-124.0"}}, {"uniqueid": "MTK0457:3STRJBFXOXY793P7BTXWZQ1JB8BTKX", "current_trial": 170, "dateTime": 1510932492359, "trialdata": {"rt": -1, "stimulus": "<p id=\"stim\">HELMET</p>", "key_press": -1, "type": "PRES_VIS", "word": "helmet", "wordID": 701, "conditions": [12, 800, "v", 24000], "trial": 4, "serialpos": 1, "trial_type": "single-stim", "trial_index": 170, "time_elapsed": 821731, "internal_node_id": "0.0-125.0"}}, {"uniqueid": "MTK0457:3STRJBFXOXY793P7BTXWZQ1JB8BTKX", "current_trial": 171, "dateTime": 1510932494059, "trialdata": {"rt": -1, "stimulus": "<p id=\"stim\">CANDY</p>", "key_press": -1, "type": "PRES_VIS", "word": "candy", "wordID": 229, "conditions": [12, 800, "v", 24000], "trial": 4, "serialpos": 2, "trial_type": "single-stim", "trial_index": 171, "time_elapsed": 823431, "internal_node_id": "0.0-126.0"}}, {"uniqueid": "MTK0457:3STRJBFXOXY793P7BTXWZQ1JB8BTKX", "current_trial": 172, "dateTime": 1510932495851, "trialdata": {"rt": -1, "stimulus": "<p id=\"stim\">RIVER</p>", "key_press": -1, "type": "PRES_VIS", "word": "river", "wordID": 1193, "conditions": [12, 800, "v", 24000], "trial": 4, "serialpos": 3, "trial_type": "single-stim", "trial_index": 172, "time_elapsed": 825223, "internal_node_id": "0.0-127.0"}}, {"uniqueid": "MTK0457:3STRJBFXOXY793P7BTXWZQ1JB8BTKX", "current_trial": 173, "dateTime": 1510932497485, "trialdata": {"rt": -1, "stimulus": "<p id=\"stim\">FOX</p>", "key_press": -1, "type": "PRES_VIS", "word": "fox", "wordID": 597, "conditions": [12, 800, "v", 24000], "trial": 4, "serialpos": 4, "trial_type": "single-stim", "trial_index": 173, "time_elapsed": 826857, "internal_node_id": "0.0-128.0"}}, {"uniqueid": "MTK0457:3STRJBFXOXY793P7BTXWZQ1JB8BTKX", "current_trial": 174, "dateTime": 1510932499363, "trialdata": {"rt": -1, "stimulus": "<p id=\"stim\">WIDOW</p>", "key_press": -1, "type": "PRES_VIS", "word": "widow", "wordID": 1607, "conditions": [12, 800, "v", 24000], "trial": 4, "serialpos": 5, "trial_type": "single-stim", "trial_index": 174, "time_elapsed": 828735, "internal_node_id": "0.0-129.0"}}, {"uniqueid": "MTK0457:3STRJBFXOXY793P7BTXWZQ1JB8BTKX", "current_trial": 175, "dateTime": 1510932501015, "trialdata": {"rt": -1, "stimulus": "<p id=\"stim\">WORLD</p>", "key_press": -1, "type": "PRES_VIS", "word": "world", "wordID": 1621, "conditions": [12, 800, "v", 24000], "trial": 4, "serialpos": 6, "trial_type": "single-stim", "trial_index": 175, "time_elapsed": 830387, "internal_node_id": "0.0-130.0"}}, {"uniqueid": "MTK0457:3STRJBFXOXY793P7BTXWZQ1JB8BTKX", "current_trial": 176, "dateTime": 1510932502872, "trialdata": {"rt": -1, "stimulus": "<p id=\"stim\">GLOBE</p>", "key_press": -1, "type": "PRES_VIS", "word": "globe", "wordID": 640, "conditions": [12, 800, "v", 24000], "trial": 4, "serialpos": 7, "trial_type": "single-stim", "trial_index": 176, "time_elapsed": 832244, "internal_node_id": "0.0-131.0"}}, {"uniqueid": "MTK0457:3STRJBFXOXY793P7BTXWZQ1JB8BTKX", "current_trial": 177, "dateTime": 1510932504551, "trialdata": {"rt": -1, "stimulus": "<p id=\"stim\">SLUG</p>", "key_press": -1, "type": "PRES_VIS", "word": "slug", "wordID": 1328, "conditions": [12, 800, "v", 24000], "trial": 4, "serialpos": 8, "trial_type": "single-stim", "trial_index": 177, "time_elapsed": 833923, "internal_node_id": "0.0-132.0"}}, {"uniqueid": "MTK0457:3STRJBFXOXY793P7BTXWZQ1JB8BTKX", "current_trial": 178, "dateTime": 1510932506154, "trialdata": {"rt": -1, "stimulus": "<p id=\"stim\">SEAGULL</p>", "key_press": -1, "type": "PRES_VIS", "word": "seagull", "wordID": 1260, "conditions": [12, 800, "v", 24000], "trial": 4, "serialpos": 9, "trial_type": "single-stim", "trial_index": 178, "time_elapsed": 835526, "internal_node_id": "0.0-133.0"}}, {"uniqueid": "MTK0457:3STRJBFXOXY793P7BTXWZQ1JB8BTKX", "current_trial": 179, "dateTime": 1510932507806, "trialdata": {"rt": -1, "stimulus": "<p id=\"stim\">ICEBERG</p>", "key_press": -1, "type": "PRES_VIS", "word": "iceberg", "wordID": 730, "conditions": [12, 800, "v", 24000], "trial": 4, "serialpos": 10, "trial_type": "single-stim", "trial_index": 179, "time_elapsed": 837176, "internal_node_id": "0.0-134.0"}}, {"uniqueid": "MTK0457:3STRJBFXOXY793P7BTXWZQ1JB8BTKX", "current_trial": 180, "dateTime": 1510932509756, "trialdata": {"rt": -1, "stimulus": "<p id=\"stim\">PIGEON</p>", "key_press": -1, "type": "PRES_VIS", "word": "pigeon", "wordID": 1064, "conditions": [12, 800, "v", 24000], "trial": 4, "serialpos": 11, "trial_type": "single-stim", "trial_index": 180, "time_elapsed": 839128, "internal_node_id": "0.0-135.0"}}, {"uniqueid": "MTK0457:3STRJBFXOXY793P7BTXWZQ1JB8BTKX", "current_trial": 181, "dateTime": 1510932512145, "trialdata": {"rt": -1, "stimulus": "", "key_press": -1, "type": "PRE_RECALL_DELAY", "trial_type": "single-stim", "trial_index": 181, "time_elapsed": 841517, "internal_node_id": "0.0-136.0-0.0"}}, {"uniqueid": "MTK0457:3STRJBFXOXY793P7BTXWZQ1JB8BTKX", "current_trial": 182, "dateTime": 1510932512646, "trialdata": {"rt": -1000, "stimulus": "/static/audio/400Hz.wav", "key_press": -1, "type": "PRE_RECALL_ALERT", "trial_type": "single-audio", "trial_index": 182, "time_elapsed": 842018, "internal_node_id": "0.0-137.0"}}, {"uniqueid": "MTK0457:3STRJBFXOXY793P7BTXWZQ1JB8BTKX", "current_trial": 183, "dateTime": 1510932572655, "trialdata": {"rt": [3603, 7429, 9736, 11151, 19473, 29648, 32953], "recwords": ["hawk", "seagull", "pigeon", "widow", "fox", "globe", "world"], "type": "FREE_RECALL", "conditions": [12, 800, "v", 24000], "trial": 4, "trial_type": "free-recall", "trial_index": 183, "time_elapsed": 902024, "internal_node_id": "0.0-138.0-0.0"}}, {"uniqueid": "MTK0457:3STRJBFXOXY793P7BTXWZQ1JB8BTKX", "current_trial": 184, "dateTime": 1510932576270, "trialdata": {"rt": 1614, "key_press": 32, "type": "INSTRUCTIONS", "trial_type": "text", "trial_index": 184, "time_elapsed": 905642, "internal_node_id": "0.0-139.0"}}, {"uniqueid": "MTK0457:3STRJBFXOXY793P7BTXWZQ1JB8BTKX", "current_trial": 185, "dateTime": 1510932590273, "trialdata": {"rt": [4148, 7368, 10702], "responses": ["9", "20", "14"], "num1": [3, 5, 4, 7], "num2": [5, 9, 1, 9], "num3": [1, 6, 9, 2], "type": "DISTRACTOR", "conditions": [24, 800, "v", 12000], "trial": 5, "trial_type": "math-distractor", "trial_index": 185, "time_elapsed": 919645, "internal_node_id": "0.0-140.0"}}, {"uniqueid": "MTK0457:3STRJBFXOXY793P7BTXWZQ1JB8BTKX", "current_trial": 186, "dateTime": 1510932593276, "trialdata": {"rt": -1, "stimulus": "<p id=\"stim\">10</p>", "key_press": -1, "trial_type": "single-stim", "trial_index": 186, "time_elapsed": 922648, "internal_node_id": "0.0-141.0-0.0"}}, {"uniqueid": "MTK0457:3STRJBFXOXY793P7BTXWZQ1JB8BTKX", "current_trial": 187, "dateTime": 1510932594277, "trialdata": {"rt": -1, "stimulus": "<p id=\"stim\">9</p>", "key_press": -1, "trial_type": "single-stim", "trial_index": 187, "time_elapsed": 923649, "internal_node_id": "0.0-141.0-1.0"}}, {"uniqueid": "MTK0457:3STRJBFXOXY793P7BTXWZQ1JB8BTKX", "current_trial": 188, "dateTime": 1510932595278, "trialdata": {"rt": -1, "stimulus": "<p id=\"stim\">8</p>", "key_press": -1, "trial_type": "single-stim", "trial_index": 188, "time_elapsed": 924650, "internal_node_id": "0.0-141.0-2.0"}}, {"uniqueid": "MTK0457:3STRJBFXOXY793P7BTXWZQ1JB8BTKX", "current_trial": 189, "dateTime": 1510932596294, "trialdata": {"rt": -1, "stimulus": "<p id=\"stim\">7</p>", "key_press": -1, "trial_type": "single-stim", "trial_index": 189, "time_elapsed": 925666, "internal_node_id": "0.0-141.0-3.0"}}, {"uniqueid": "MTK0457:3STRJBFXOXY793P7BTXWZQ1JB8BTKX", "current_trial": 190, "dateTime": 1510932597296, "trialdata": {"rt": -1, "stimulus": "<p id=\"stim\">6</p>", "key_press": -1, "trial_type": "single-stim", "trial_index": 190, "time_elapsed": 926668, "internal_node_id": "0.0-141.0-4.0"}}, {"uniqueid": "MTK0457:3STRJBFXOXY793P7BTXWZQ1JB8BTKX", "current_trial": 191, "dateTime": 1510932598297, "trialdata": {"rt": -1, "stimulus": "<p id=\"stim\">5</p>", "key_press": -1, "trial_type": "single-stim", "trial_index": 191, "time_elapsed": 927669, "internal_node_id": "0.0-141.0-5.0"}}, {"uniqueid": "MTK0457:3STRJBFXOXY793P7BTXWZQ1JB8BTKX", "current_trial": 192, "dateTime": 1510932599298, "trialdata": {"rt": -1, "stimulus": "<p id=\"stim\">4</p>", "key_press": -1, "trial_type": "single-stim", "trial_index": 192, "time_elapsed": 928670, "internal_node_id": "0.0-141.0-6.0"}}, {"uniqueid": "MTK0457:3STRJBFXOXY793P7BTXWZQ1JB8BTKX", "current_trial": 193, "dateTime": 1510932600299, "trialdata": {"rt": -1, "stimulus": "<p id=\"stim\">3</p>", "key_press": -1, "trial_type": "single-stim", "trial_index": 193, "time_elapsed": 929671, "internal_node_id": "0.0-141.0-7.0"}}, {"uniqueid": "MTK0457:3STRJBFXOXY793P7BTXWZQ1JB8BTKX", "current_trial": 194, "dateTime": 1510932601320, "trialdata": {"rt": -1, "stimulus": "<p id=\"stim\">2</p>", "key_press": -1, "trial_type": "single-stim", "trial_index": 194, "time_elapsed": 930692, "internal_node_id": "0.0-141.0-8.0"}}, {"uniqueid": "MTK0457:3STRJBFXOXY793P7BTXWZQ1JB8BTKX", "current_trial": 195, "dateTime": 1510932602321, "trialdata": {"rt": -1, "stimulus": "<p id=\"stim\">1</p>", "key_press": -1, "trial_type": "single-stim", "trial_index": 195, "time_elapsed": 931693, "internal_node_id": "0.0-141.0-9.0"}}, {"uniqueid": "MTK0457:3STRJBFXOXY793P7BTXWZQ1JB8BTKX", "current_trial": 196, "dateTime": 1510932603822, "trialdata": {"rt": -1, "stimulus": "<p id=\"stim\">+</p>", "key_press": -1, "type": "FIXATION", "trial_type": "single-stim", "trial_index": 196, "time_elapsed": 933194, "internal_node_id": "0.0-142.0-0.0"}}, {"uniqueid": "MTK0457:3STRJBFXOXY793P7BTXWZQ1JB8BTKX", "current_trial": 197, "dateTime": 1510932604623, "trialdata": {"rt": -1, "stimulus": "<p id=\"stim\">DONOR</p>", "key_press": -1, "type": "PRES_VIS", "word": "donor", "wordID": 484, "conditions": [24, 800, "v", 12000], "trial": 5, "serialpos": 0, "trial_type": "single-stim", "trial_index": 197, "time_elapsed": 933995, "internal_node_id": "0.0-143.0"}}, {"uniqueid": "MTK0457:3STRJBFXOXY793P7BTXWZQ1JB8BTKX", "current_trial": 198, "dateTime": 1510932606330, "trialdata": {"rt": -1, "stimulus": "<p id=\"stim\">SERVER</p>", "key_press": -1, "type": "PRES_VIS", "word": "server", "wordID": 1271, "conditions": [24, 800, "v", 12000], "trial": 5, "serialpos": 1, "trial_type": "single-stim", "trial_index": 198, "time_elapsed": 935702, "internal_node_id": "0.0-144.0"}}, {"uniqueid": "MTK0457:3STRJBFXOXY793P7BTXWZQ1JB8BTKX", "current_trial": 199, "dateTime": 1510932607976, "trialdata": {"rt": -1, "stimulus": "<p id=\"stim\">AUTHOR</p>", "key_press": -1, "type": "PRES_VIS", "word": "author", "wordID": 60, "conditions": [24, 800, "v", 12000], "trial": 5, "serialpos": 2, "trial_type": "single-stim", "trial_index": 199, "time_elapsed": 937348, "internal_node_id": "0.0-145.0"}}, {"uniqueid": "MTK0457:3STRJBFXOXY793P7BTXWZQ1JB8BTKX", "current_trial": 200, "dateTime": 1510932609660, "trialdata": {"rt": -1, "stimulus": "<p id=\"stim\">ASIA</p>", "key_press": -1, "type": "PRES_VIS", "word": "asia", "wordID": 45, "conditions": [24, 800, "v", 12000], "trial": 5, "serialpos": 3, "trial_type": "single-stim", "trial_index": 200, "time_elapsed": 939032, "internal_node_id": "0.0-146.0"}}, {"uniqueid": "MTK0457:3STRJBFXOXY793P7BTXWZQ1JB8BTKX", "current_trial": 201, "dateTime": 1510932611265, "trialdata": {"rt": -1, "stimulus": "<p id=\"stim\">EUROPE</p>", "key_press": -1, "type": "PRES_VIS", "word": "europe", "wordID": 540, "conditions": [24, 800, "v", 12000], "trial": 5, "serialpos": 4, "trial_type": "single-stim", "trial_index": 201, "time_elapsed": 940637, "internal_node_id": "0.0-147.0"}}, {"uniqueid": "MTK0457:3STRJBFXOXY793P7BTXWZQ1JB8BTKX", "current_trial": 202, "dateTime": 1510932613086, "trialdata": {"rt": -1, "stimulus": "<p id=\"stim\">SHRUB</p>", "key_press": -1, "type": "PRES_VIS", "word": "shrub", "wordID": 1298, "conditions": [24, 800, "v", 12000], "trial": 5, "serialpos": 5, "trial_type": "single-stim", "trial_index": 202, "time_elapsed": 942458, "internal_node_id": "0.0-148.0"}}, {"uniqueid": "MTK0457:3STRJBFXOXY793P7BTXWZQ1JB8BTKX", "current_trial": 203, "dateTime": 1510932615045, "trialdata": {"rt": -1, "stimulus": "<p id=\"stim\">LIVER</p>", "key_press": -1, "type": "PRES_VIS", "word": "liver", "wordID": 832, "conditions": [24, 800, "v", 12000], "trial": 5, "serialpos": 6, "trial_type": "single-stim", "trial_index": 203, "time_elapsed": 944417, "internal_node_id": "0.0-149.0"}}, {"uniqueid": "MTK0457:3STRJBFXOXY793P7BTXWZQ1JB8BTKX", "current_trial": 204, "dateTime": 1510932616749, "trialdata": {"rt": -1, "stimulus": "<p id=\"stim\">ROBIN</p>", "key_press": -1, "type": "PRES_VIS", "word": "robin", "wordID": 1198, "conditions": [24, 800, "v", 12000], "trial": 5, "serialpos": 7, "trial_type": "single-stim", "trial_index": 204, "time_elapsed": 946121, "internal_node_id": "0.0-150.0"}}, {"uniqueid": "MTK0457:3STRJBFXOXY793P7BTXWZQ1JB8BTKX", "current_trial": 205, "dateTime": 1510932618739, "trialdata": {"rt": -1, "stimulus": "<p id=\"stim\">BRICK</p>", "key_press": -1, "type": "PRES_VIS", "word": "brick", "wordID": 171, "conditions": [24, 800, "v", 12000], "trial": 5, "serialpos": 8, "trial_type": "single-stim", "trial_index": 205, "time_elapsed": 948111, "internal_node_id": "0.0-151.0"}}, {"uniqueid": "MTK0457:3STRJBFXOXY793P7BTXWZQ1JB8BTKX", "current_trial": 206, "dateTime": 1510932620427, "trialdata": {"rt": -1, "stimulus": "<p id=\"stim\">TRACTOR</p>", "key_press": -1, "type": "PRES_VIS", "word": "tractor", "wordID": 1492, "conditions": [24, 800, "v", 12000], "trial": 5, "serialpos": 9, "trial_type": "single-stim", "trial_index": 206, "time_elapsed": 949799, "internal_node_id": "0.0-152.0"}}, {"uniqueid": "MTK0457:3STRJBFXOXY793P7BTXWZQ1JB8BTKX", "current_trial": 207, "dateTime": 1510932622049, "trialdata": {"rt": -1, "stimulus": "<p id=\"stim\">SPOOL</p>", "key_press": -1, "type": "PRES_VIS", "word": "spool", "wordID": 1355, "conditions": [24, 800, "v", 12000], "trial": 5, "serialpos": 10, "trial_type": "single-stim", "trial_index": 207, "time_elapsed": 951421, "internal_node_id": "0.0-153.0"}}, {"uniqueid": "MTK0457:3STRJBFXOXY793P7BTXWZQ1JB8BTKX", "current_trial": 208, "dateTime": 1510932623688, "trialdata": {"rt": -1, "stimulus": "<p id=\"stim\">MARROW</p>", "key_press": -1, "type": "PRES_VIS", "word": "marrow", "wordID": 871, "conditions": [24, 800, "v", 12000], "trial": 5, "serialpos": 11, "trial_type": "single-stim", "trial_index": 208, "time_elapsed": 953060, "internal_node_id": "0.0-154.0"}}, {"uniqueid": "MTK0457:3STRJBFXOXY793P7BTXWZQ1JB8BTKX", "current_trial": 209, "dateTime": 1510932625450, "trialdata": {"rt": -1, "stimulus": "<p id=\"stim\">COBRA</p>", "key_press": -1, "type": "PRES_VIS", "word": "cobra", "wordID": 335, "conditions": [24, 800, "v", 12000], "trial": 5, "serialpos": 12, "trial_type": "single-stim", "trial_index": 209, "time_elapsed": 954821, "internal_node_id": "0.0-155.0"}}, {"uniqueid": "MTK0457:3STRJBFXOXY793P7BTXWZQ1JB8BTKX", "current_trial": 210, "dateTime": 1510932627244, "trialdata": {"rt": -1, "stimulus": "<p id=\"stim\">CURTAIN</p>", "key_press": -1, "type": "PRES_VIS", "word": "curtain", "wordID": 426, "conditions": [24, 800, "v", 12000], "trial": 5, "serialpos": 13, "trial_type": "single-stim", "trial_index": 210, "time_elapsed": 956616, "internal_node_id": "0.0-156.0"}}, {"uniqueid": "MTK0457:3STRJBFXOXY793P7BTXWZQ1JB8BTKX", "current_trial": 211, "dateTime": 1510932628944, "trialdata": {"rt": -1, "stimulus": "<p id=\"stim\">PARROT</p>", "key_press": -1, "type": "PRES_VIS", "word": "parrot", "wordID": 1014, "conditions": [24, 800, "v", 12000], "trial": 5, "serialpos": 14, "trial_type": "single-stim", "trial_index": 211, "time_elapsed": 958316, "internal_node_id": "0.0-157.0"}}, {"uniqueid": "MTK0457:3STRJBFXOXY793P7BTXWZQ1JB8BTKX", "current_trial": 212, "dateTime": 1510932630598, "trialdata": {"rt": -1, "stimulus": "<p id=\"stim\">SNAKE</p>", "key_press": -1, "type": "PRES_VIS", "word": "snake", "wordID": 1332, "conditions": [24, 800, "v", 12000], "trial": 5, "serialpos": 15, "trial_type": "single-stim", "trial_index": 212, "time_elapsed": 959970, "internal_node_id": "0.0-158.0"}}, {"uniqueid": "MTK0457:3STRJBFXOXY793P7BTXWZQ1JB8BTKX", "current_trial": 213, "dateTime": 1510932632266, "trialdata": {"rt": -1, "stimulus": "<p id=\"stim\">CREATURE</p>", "key_press": -1, "type": "PRES_VIS", "word": "creature", "wordID": 402, "conditions": [24, 800, "v", 12000], "trial": 5, "serialpos": 16, "trial_type": "single-stim", "trial_index": 213, "time_elapsed": 961638, "internal_node_id": "0.0-159.0"}}, {"uniqueid": "MTK0457:3STRJBFXOXY793P7BTXWZQ1JB8BTKX", "current_trial": 214, "dateTime": 1510932633870, "trialdata": {"rt": -1, "stimulus": "<p id=\"stim\">GUITAR</p>", "key_press": -1, "type": "PRES_VIS", "word": "guitar", "wordID": 669, "conditions": [24, 800, "v", 12000], "trial": 5, "serialpos": 17, "trial_type": "single-stim", "trial_index": 214, "time_elapsed": 963242, "internal_node_id": "0.0-160.0"}}, {"uniqueid": "MTK0457:3STRJBFXOXY793P7BTXWZQ1JB8BTKX", "current_trial": 215, "dateTime": 1510932635706, "trialdata": {"rt": -1, "stimulus": "<p id=\"stim\">GIFT</p>", "key_press": -1, "type": "PRES_VIS", "word": "gift", "wordID": 634, "conditions": [24, 800, "v", 12000], "trial": 5, "serialpos": 18, "trial_type": "single-stim", "trial_index": 215, "time_elapsed": 965078, "internal_node_id": "0.0-161.0"}}, {"uniqueid": "MTK0457:3STRJBFXOXY793P7BTXWZQ1JB8BTKX", "current_trial": 216, "dateTime": 1510932637542, "trialdata": {"rt": -1, "stimulus": "<p id=\"stim\">EXPERT</p>", "key_press": -1, "type": "PRES_VIS", "word": "expert", "wordID": 542, "conditions": [24, 800, "v", 12000], "trial": 5, "serialpos": 19, "trial_type": "single-stim", "trial_index": 216, "time_elapsed": 966914, "internal_node_id": "0.0-162.0"}}, {"uniqueid": "MTK0457:3STRJBFXOXY793P7BTXWZQ1JB8BTKX", "current_trial": 217, "dateTime": 1510932639476, "trialdata": {"rt": -1, "stimulus": "<p id=\"stim\">BRIEFCASE</p>", "key_press": -1, "type": "PRES_VIS", "word": "briefcase", "wordID": 174, "conditions": [24, 800, "v", 12000], "trial": 5, "serialpos": 20, "trial_type": "single-stim", "trial_index": 217, "time_elapsed": 968848, "internal_node_id": "0.0-163.0"}}, {"uniqueid": "MTK0457:3STRJBFXOXY793P7BTXWZQ1JB8BTKX", "current_trial": 218, "dateTime": 1510932641355, "trialdata": {"rt": -1, "stimulus": "<p id=\"stim\">LIZARD</p>", "key_press": -1, "type": "PRES_VIS", "word": "lizard", "wordID": 833, "conditions": [24, 800, "v", 12000], "trial": 5, "serialpos": 21, "trial_type": "single-stim", "trial_index": 218, "time_elapsed": 970727, "internal_node_id": "0.0-164.0"}}, {"uniqueid": "MTK0457:3STRJBFXOXY793P7BTXWZQ1JB8BTKX", "current_trial": 219, "dateTime": 1510932643295, "trialdata": {"rt": -1, "stimulus": "<p id=\"stim\">LONDON</p>", "key_press": -1, "type": "PRES_VIS", "word": "london", "wordID": 842, "conditions": [24, 800, "v", 12000], "trial": 5, "serialpos": 22, "trial_type": "single-stim", "trial_index": 219, "time_elapsed": 972667, "internal_node_id": "0.0-165.0"}}, {"uniqueid": "MTK0457:3STRJBFXOXY793P7BTXWZQ1JB8BTKX", "current_trial": 220, "dateTime": 1510932645240, "trialdata": {"rt": -1, "stimulus": "<p id=\"stim\">FRANCE</p>", "key_press": -1, "type": "PRES_VIS", "word": "france", "wordID": 600, "conditions": [24, 800, "v", 12000], "trial": 5, "serialpos": 23, "trial_type": "single-stim", "trial_index": 220, "time_elapsed": 974612, "internal_node_id": "0.0-166.0"}}, {"uniqueid": "MTK0457:3STRJBFXOXY793P7BTXWZQ1JB8BTKX", "current_trial": 221, "dateTime": 1510932647499, "trialdata": {"rt": -1, "stimulus": "", "key_press": -1, "type": "PRE_RECALL_DELAY", "trial_type": "single-stim", "trial_index": 221, "time_elapsed": 976871, "internal_node_id": "0.0-167.0-0.0"}}, {"uniqueid": "MTK0457:3STRJBFXOXY793P7BTXWZQ1JB8BTKX", "current_trial": 222, "dateTime": 1510932648000, "trialdata": {"rt": -1000, "stimulus": "/static/audio/400Hz.wav", "key_press": -1, "type": "PRE_RECALL_ALERT", "trial_type": "single-audio", "trial_index": 222, "time_elapsed": 977372, "internal_node_id": "0.0-168.0"}}, {"uniqueid": "MTK0457:3STRJBFXOXY793P7BTXWZQ1JB8BTKX", "current_trial": 223, "dateTime": 1510932708008, "trialdata": {"rt": [4163, 5665, 9415, 13538, 15873, 17812, 20139, 31274, 56980], "recwords": ["london", "france", "snake", "lizard", "donor", "author", "guitar", "briefcase", "actor"], "type": "FREE_RECALL", "conditions": [24, 800, "v", 12000], "trial": 5, "trial_type": "free-recall", "trial_index": 223, "time_elapsed": 1037376, "internal_node_id": "0.0-169.0-0.0"}}, {"uniqueid": "MTK0457:3STRJBFXOXY793P7BTXWZQ1JB8BTKX", "current_trial": 224, "dateTime": 1510932711773, "trialdata": {"rt": 1764, "key_press": 32, "type": "INSTRUCTIONS", "trial_type": "text", "trial_index": 224, "time_elapsed": 1041145, "internal_node_id": "0.0-170.0"}}, {"uniqueid": "MTK0457:3STRJBFXOXY793P7BTXWZQ1JB8BTKX", "current_trial": 225, "dateTime": 1510932725777, "trialdata": {"rt": [3158, 5613, 8421, 11281], "responses": ["13", "19", "22", "13"], "num1": [2, 8, 8, 8, 3], "num2": [8, 7, 5, 1, 7], "num3": [3, 4, 7, 4, 7], "type": "DISTRACTOR", "conditions": [12, 1600, "a", 12000], "trial": 6, "trial_type": "math-distractor", "trial_index": 225, "time_elapsed": 1055149, "internal_node_id": "0.0-171.0"}}, {"uniqueid": "MTK0457:3STRJBFXOXY793P7BTXWZQ1JB8BTKX", "current_trial": 226, "dateTime": 1510932728797, "trialdata": {"rt": -1, "stimulus": "<p id=\"stim\">10</p>", "key_press": -1, "trial_type": "single-stim", "trial_index": 226, "time_elapsed": 1058168, "internal_node_id": "0.0-172.0-0.0"}}, {"uniqueid": "MTK0457:3STRJBFXOXY793P7BTXWZQ1JB8BTKX", "current_trial": 227, "dateTime": 1510932729798, "trialdata": {"rt": -1, "stimulus": "<p id=\"stim\">9</p>", "key_press": -1, "trial_type": "single-stim", "trial_index": 227, "time_elapsed": 1059170, "internal_node_id": "0.0-172.0-1.0"}}, {"uniqueid": "MTK0457:3STRJBFXOXY793P7BTXWZQ1JB8BTKX", "current_trial": 228, "dateTime": 1510932730799, "trialdata": {"rt": -1, "stimulus": "<p id=\"stim\">8</p>", "key_press": -1, "trial_type": "single-stim", "trial_index": 228, "time_elapsed": 1060171, "internal_node_id": "0.0-172.0-2.0"}}, {"uniqueid": "MTK0457:3STRJBFXOXY793P7BTXWZQ1JB8BTKX", "current_trial": 229, "dateTime": 1510932731800, "trialdata": {"rt": -1, "stimulus": "<p id=\"stim\">7</p>", "key_press": -1, "trial_type": "single-stim", "trial_index": 229, "time_elapsed": 1061172, "internal_node_id": "0.0-172.0-3.0"}}, {"uniqueid": "MTK0457:3STRJBFXOXY793P7BTXWZQ1JB8BTKX", "current_trial": 230, "dateTime": 1510932732801, "trialdata": {"rt": -1, "stimulus": "<p id=\"stim\">6</p>", "key_press": -1, "trial_type": "single-stim", "trial_index": 230, "time_elapsed": 1062173, "internal_node_id": "0.0-172.0-4.0"}}, {"uniqueid": "MTK0457:3STRJBFXOXY793P7BTXWZQ1JB8BTKX", "current_trial": 231, "dateTime": 1510932733803, "trialdata": {"rt": -1, "stimulus": "<p id=\"stim\">5</p>", "key_press": -1, "trial_type": "single-stim", "trial_index": 231, "time_elapsed": 1063175, "internal_node_id": "0.0-172.0-5.0"}}, {"uniqueid": "MTK0457:3STRJBFXOXY793P7BTXWZQ1JB8BTKX", "current_trial": 232, "dateTime": 1510932734804, "trialdata": {"rt": -1, "stimulus": "<p id=\"stim\">4</p>", "key_press": -1, "trial_type": "single-stim", "trial_index": 232, "time_elapsed": 1064176, "internal_node_id": "0.0-172.0-6.0"}}, {"uniqueid": "MTK0457:3STRJBFXOXY793P7BTXWZQ1JB8BTKX", "current_trial": 233, "dateTime": 1510932735805, "trialdata": {"rt": -1, "stimulus": "<p id=\"stim\">3</p>", "key_press": -1, "trial_type": "single-stim", "trial_index": 233, "time_elapsed": 1065177, "internal_node_id": "0.0-172.0-7.0"}}, {"uniqueid": "MTK0457:3STRJBFXOXY793P7BTXWZQ1JB8BTKX", "current_trial": 234, "dateTime": 1510932736806, "trialdata": {"rt": -1, "stimulus": "<p id=\"stim\">2</p>", "key_press": -1, "trial_type": "single-stim", "trial_index": 234, "time_elapsed": 1066178, "internal_node_id": "0.0-172.0-8.0"}}, {"uniqueid": "MTK0457:3STRJBFXOXY793P7BTXWZQ1JB8BTKX", "current_trial": 235, "dateTime": 1510932737807, "trialdata": {"rt": -1, "stimulus": "<p id=\"stim\">1</p>", "key_press": -1, "trial_type": "single-stim", "trial_index": 235, "time_elapsed": 1067179, "internal_node_id": "0.0-172.0-9.0"}}, {"uniqueid": "MTK0457:3STRJBFXOXY793P7BTXWZQ1JB8BTKX", "current_trial": 236, "dateTime": 1510932739308, "trialdata": {"rt": -1, "stimulus": "<p id=\"stim\">+</p>", "key_press": -1, "type": "FIXATION", "trial_type": "single-stim", "trial_index": 236, "time_elapsed": 1068680, "internal_node_id": "0.0-173.0-0.0"}}, {"uniqueid": "MTK0457:3STRJBFXOXY793P7BTXWZQ1JB8BTKX", "current_trial": 237, "dateTime": 1510932741772, "trialdata": {"rt": -1000, "stimulus": "/static/audio/wordpool/TWIG.wav", "key_press": -1, "type": "PRES_AUD", "word": "twig", "wordID": 1526, "conditions": [12, 1600, "a", 12000], "trial": 6, "serialpos": 0, "trial_type": "single-audio", "trial_index": 237, "time_elapsed": 1071144, "internal_node_id": "0.0-174.0"}}, {"uniqueid": "MTK0457:3STRJBFXOXY793P7BTXWZQ1JB8BTKX", "current_trial": 238, "dateTime": 1510932744200, "trialdata": {"rt": -1000, "stimulus": "/static/audio/wordpool/OMELET.wav", "key_press": -1, "type": "PRES_AUD", "word": "omelet", "wordID": 975, "conditions": [12, 1600, "a", 12000], "trial": 6, "serialpos": 1, "trial_type": "single-audio", "trial_index": 238, "time_elapsed": 1073572, "internal_node_id": "0.0-175.0"}}, {"uniqueid": "MTK0457:3STRJBFXOXY793P7BTXWZQ1JB8BTKX", "current_trial": 239, "dateTime": 1510932746819, "trialdata": {"rt": -1000, "stimulus": "/static/audio/wordpool/CRAB.wav", "key_press": -1, "type": "PRES_AUD", "word": "crab", "wordID": 396, "conditions": [12, 1600, "a", 12000], "trial": 6, "serialpos": 2, "trial_type": "single-audio", "trial_index": 239, "time_elapsed": 1076191, "internal_node_id": "0.0-176.0"}}, {"uniqueid": "MTK0457:3STRJBFXOXY793P7BTXWZQ1JB8BTKX", "current_trial": 240, "dateTime": 1510932749544, "trialdata": {"rt": -1000, "stimulus": "/static/audio/wordpool/COD.wav", "key_press": -1, "type": "PRES_AUD", "word": "cod", "wordID": 339, "conditions": [12, 1600, "a", 12000], "trial": 6, "serialpos": 3, "trial_type": "single-audio", "trial_index": 240, "time_elapsed": 1078916, "internal_node_id": "0.0-177.0"}}, {"uniqueid": "MTK0457:3STRJBFXOXY793P7BTXWZQ1JB8BTKX", "current_trial": 241, "dateTime": 1510932752307, "trialdata": {"rt": -1000, "stimulus": "/static/audio/wordpool/ROOSTER.wav", "key_press": -1, "type": "PRES_AUD", "word": "rooster", "wordID": 1208, "conditions": [12, 1600, "a", 12000], "trial": 6, "serialpos": 4, "trial_type": "single-audio", "trial_index": 241, "time_elapsed": 1081679, "internal_node_id": "0.0-178.0"}}, {"uniqueid": "MTK0457:3STRJBFXOXY793P7BTXWZQ1JB8BTKX", "current_trial": 242, "dateTime": 1510932755099, "trialdata": {"rt": -1000, "stimulus": "/static/audio/wordpool/DAUGHTER.wav", "key_press": -1, "type": "PRES_AUD", "word": "daughter", "wordID": 441, "conditions": [12, 1600, "a", 12000], "trial": 6, "serialpos": 5, "trial_type": "single-audio", "trial_index": 242, "time_elapsed": 1084471, "internal_node_id": "0.0-179.0"}}, {"uniqueid": "MTK0457:3STRJBFXOXY793P7BTXWZQ1JB8BTKX", "current_trial": 243, "dateTime": 1510932757820, "trialdata": {"rt": -1000, "stimulus": "/static/audio/wordpool/SALAD.wav", "key_press": -1, "type": "PRES_AUD", "word": "salad", "wordID": 1223, "conditions": [12, 1600, "a", 12000], "trial": 6, "serialpos": 6, "trial_type": "single-audio", "trial_index": 243, "time_elapsed": 1087192, "internal_node_id": "0.0-180.0"}}, {"uniqueid": "MTK0457:3STRJBFXOXY793P7BTXWZQ1JB8BTKX", "current_trial": 244, "dateTime": 1510932760616, "trialdata": {"rt": -1000, "stimulus": "/static/audio/wordpool/TUBA.wav", "key_press": -1, "type": "PRES_AUD", "word": "tuba", "wordID": 1514, "conditions": [12, 1600, "a", 12000], "trial": 6, "serialpos": 7, "trial_type": "single-audio", "trial_index": 244, "time_elapsed": 1089988, "internal_node_id": "0.0-181.0"}}, {"uniqueid": "MTK0457:3STRJBFXOXY793P7BTXWZQ1JB8BTKX", "current_trial": 245, "dateTime": 1510932763241, "trialdata": {"rt": -1000, "stimulus": "/static/audio/wordpool/SUBWAY.wav", "key_press": -1, "type": "PRES_AUD", "word": "subway", "wordID": 1399, "conditions": [12, 1600, "a", 12000], "trial": 6, "serialpos": 8, "trial_type": "single-audio", "trial_index": 245, "time_elapsed": 1092613, "internal_node_id": "0.0-182.0"}}, {"uniqueid": "MTK0457:3STRJBFXOXY793P7BTXWZQ1JB8BTKX", "current_trial": 246, "dateTime": 1510932765837, "trialdata": {"rt": -1000, "stimulus": "/static/audio/wordpool/POET.wav", "key_press": -1, "type": "PRES_AUD", "word": "poet", "wordID": 1094, "conditions": [12, 1600, "a", 12000], "trial": 6, "serialpos": 9, "trial_type": "single-audio", "trial_index": 246, "time_elapsed": 1095209, "internal_node_id": "0.0-183.0"}}, {"uniqueid": "MTK0457:3STRJBFXOXY793P7BTXWZQ1JB8BTKX", "current_trial": 247, "dateTime": 1510932768604, "trialdata": {"rt": -1000, "stimulus": "/static/audio/wordpool/JELLY.wav", "key_press": -1, "type": "PRES_AUD", "word": "jelly", "wordID": 754, "conditions": [12, 1600, "a", 12000], "trial": 6, "serialpos": 10, "trial_type": "single-audio", "trial_index": 247, "time_elapsed": 1097976, "internal_node_id": "0.0-184.0"}}, {"uniqueid": "MTK0457:3STRJBFXOXY793P7BTXWZQ1JB8BTKX", "current_trial": 248, "dateTime": 1510932771102, "trialdata": {"rt": -1000, "stimulus": "/static/audio/wordpool/ROCKET.wav", "key_press": -1, "type": "PRES_AUD", "word": "rocket", "wordID": 1201, "conditions": [12, 1600, "a", 12000], "trial": 6, "serialpos": 11, "trial_type": "single-audio", "trial_index": 248, "time_elapsed": 1100474, "internal_node_id": "0.0-185.0"}}, {"uniqueid": "MTK0457:3STRJBFXOXY793P7BTXWZQ1JB8BTKX", "current_trial": 249, "dateTime": 1510932772478, "trialdata": {"rt": -1, "stimulus": "", "key_press": -1, "type": "PRE_RECALL_DELAY", "trial_type": "single-stim", "trial_index": 249, "time_elapsed": 1101850, "internal_node_id": "0.0-186.0-0.0"}}, {"uniqueid": "MTK0457:3STRJBFXOXY793P7BTXWZQ1JB8BTKX", "current_trial": 250, "dateTime": 1510932772979, "trialdata": {"rt": -1000, "stimulus": "/static/audio/400Hz.wav", "key_press": -1, "type": "PRE_RECALL_ALERT", "trial_type": "single-audio", "trial_index": 250, "time_elapsed": 1102351, "internal_node_id": "0.0-187.0"}}, {"uniqueid": "MTK0457:3STRJBFXOXY793P7BTXWZQ1JB8BTKX", "current_trial": 251, "dateTime": 1510932832989, "trialdata": {"rt": [1998, 5708, 7503, 9364, 10639, 12725, 15118, 23547, 26510, 29683], "recwords": ["rocket", "jelly", "poet", "daughter", "salad", "subway", "rooster", "twig", "om", "omlet"], "type": "FREE_RECALL", "conditions": [12, 1600, "a", 12000], "trial": 6, "trial_type": "free-recall", "trial_index": 251, "time_elapsed": 1162356, "internal_node_id": "0.0-188.0-0.0"}}, {"uniqueid": "MTK0457:3STRJBFXOXY793P7BTXWZQ1JB8BTKX", "current_trial": 252, "dateTime": 1510932836718, "trialdata": {"rt": 1727, "key_press": 32, "type": "INSTRUCTIONS", "trial_type": "text", "trial_index": 252, "time_elapsed": 1166090, "internal_node_id": "0.0-189.0"}}, {"uniqueid": "MTK0457:3STRJBFXOXY793P7BTXWZQ1JB8BTKX", "current_trial": 253, "dateTime": 1510932862737, "trialdata": {"rt": [2247, 4808, 6519, 9429, 11714, 15525, 17735, 19507, 21825], "responses": ["19", "15", "6", "13", "8", "18", "12", "12", "13"], "num1": [5, 5, 2, 2, 2, 4, 6, 1, 9, 9], "num2": [5, 2, 2, 3, 3, 8, 3, 6, 1, 7], "num3": [9, 8, 2, 8, 3, 6, 3, 5, 3, 9], "type": "DISTRACTOR", "conditions": [24, 800, "a", 24000], "trial": 7, "trial_type": "math-distractor", "trial_index": 253, "time_elapsed": 1192109, "internal_node_id": "0.0-190.0"}}, {"uniqueid": "MTK0457:3STRJBFXOXY793P7BTXWZQ1JB8BTKX", "current_trial": 254, "dateTime": 1510932865739, "trialdata": {"rt": -1, "stimulus": "<p id=\"stim\">10</p>", "key_press": -1, "trial_type": "single-stim", "trial_index": 254, "time_elapsed": 1195111, "internal_node_id": "0.0-191.0-0.0"}}, {"uniqueid": "MTK0457:3STRJBFXOXY793P7BTXWZQ1JB8BTKX", "current_trial": 255, "dateTime": 1510932866740, "trialdata": {"rt": -1, "stimulus": "<p id=\"stim\">9</p>", "key_press": -1, "trial_type": "single-stim", "trial_index": 255, "time_elapsed": 1196112, "internal_node_id": "0.0-191.0-1.0"}}, {"uniqueid": "MTK0457:3STRJBFXOXY793P7BTXWZQ1JB8BTKX", "current_trial": 256, "dateTime": 1510932867741, "trialdata": {"rt": -1, "stimulus": "<p id=\"stim\">8</p>", "key_press": -1, "trial_type": "single-stim", "trial_index": 256, "time_elapsed": 1197113, "internal_node_id": "0.0-191.0-2.0"}}, {"uniqueid": "MTK0457:3STRJBFXOXY793P7BTXWZQ1JB8BTKX", "current_trial": 257, "dateTime": 1510932868768, "trialdata": {"rt": -1, "stimulus": "<p id=\"stim\">7</p>", "key_press": -1, "trial_type": "single-stim", "trial_index": 257, "time_elapsed": 1198140, "internal_node_id": "0.0-191.0-3.0"}}, {"uniqueid": "MTK0457:3STRJBFXOXY793P7BTXWZQ1JB8BTKX", "current_trial": 258, "dateTime": 1510932869770, "trialdata": {"rt": -1, "stimulus": "<p id=\"stim\">6</p>", "key_press": -1, "trial_type": "single-stim", "trial_index": 258, "time_elapsed": 1199142, "internal_node_id": "0.0-191.0-4.0"}}, {"uniqueid": "MTK0457:3STRJBFXOXY793P7BTXWZQ1JB8BTKX", "current_trial": 259, "dateTime": 1510932870771, "trialdata": {"rt": -1, "stimulus": "<p id=\"stim\">5</p>", "key_press": -1, "trial_type": "single-stim", "trial_index": 259, "time_elapsed": 1200143, "internal_node_id": "0.0-191.0-5.0"}}, {"uniqueid": "MTK0457:3STRJBFXOXY793P7BTXWZQ1JB8BTKX", "current_trial": 260, "dateTime": 1510932871772, "trialdata": {"rt": -1, "stimulus": "<p id=\"stim\">4</p>", "key_press": -1, "trial_type": "single-stim", "trial_index": 260, "time_elapsed": 1201144, "internal_node_id": "0.0-191.0-6.0"}}, {"uniqueid": "MTK0457:3STRJBFXOXY793P7BTXWZQ1JB8BTKX", "current_trial": 261, "dateTime": 1510932872773, "trialdata": {"rt": -1, "stimulus": "<p id=\"stim\">3</p>", "key_press": -1, "trial_type": "single-stim", "trial_index": 261, "time_elapsed": 1202145, "internal_node_id": "0.0-191.0-7.0"}}, {"uniqueid": "MTK0457:3STRJBFXOXY793P7BTXWZQ1JB8BTKX", "current_trial": 262, "dateTime": 1510932873776, "trialdata": {"rt": -1, "stimulus": "<p id=\"stim\">2</p>", "key_press": -1, "trial_type": "single-stim", "trial_index": 262, "time_elapsed": 1203148, "internal_node_id": "0.0-191.0-8.0"}}, {"uniqueid": "MTK0457:3STRJBFXOXY793P7BTXWZQ1JB8BTKX", "current_trial": 263, "dateTime": 1510932874778, "trialdata": {"rt": -1, "stimulus": "<p id=\"stim\">1</p>", "key_press": -1, "trial_type": "single-stim", "trial_index": 263, "time_elapsed": 1204150, "internal_node_id": "0.0-191.0-9.0"}}, {"uniqueid": "MTK0457:3STRJBFXOXY793P7BTXWZQ1JB8BTKX", "current_trial": 264, "dateTime": 1510932876279, "trialdata": {"rt": -1, "stimulus": "<p id=\"stim\">+</p>", "key_press": -1, "type": "FIXATION", "trial_type": "single-stim", "trial_index": 264, "time_elapsed": 1205651, "internal_node_id": "0.0-192.0-0.0"}}, {"uniqueid": "MTK0457:3STRJBFXOXY793P7BTXWZQ1JB8BTKX", "current_trial": 265, "dateTime": 1510932878135, "trialdata": {"rt": -1000, "stimulus": "/static/audio/wordpool/PIMPLE.wav", "key_press": -1, "type": "PRES_AUD", "word": "pimple", "wordID": 1070, "conditions": [24, 800, "a", 24000], "trial": 7, "serialpos": 0, "trial_type": "single-audio", "trial_index": 265, "time_elapsed": 1207507, "internal_node_id": "0.0-193.0"}}, {"uniqueid": "MTK0457:3STRJBFXOXY793P7BTXWZQ1JB8BTKX", "current_trial": 266, "dateTime": 1510932879979, "trialdata": {"rt": -1000, "stimulus": "/static/audio/wordpool/RATTLE.wav", "key_press": -1, "type": "PRES_AUD", "word": "rattle", "wordID": 1169, "conditions": [24, 800, "a", 24000], "trial": 7, "serialpos": 1, "trial_type": "single-audio", "trial_index": 266, "time_elapsed": 1209351, "internal_node_id": "0.0-194.0"}}, {"uniqueid": "MTK0457:3STRJBFXOXY793P7BTXWZQ1JB8BTKX", "current_trial": 267, "dateTime": 1510932881745, "trialdata": {"rt": -1000, "stimulus": "/static/audio/wordpool/TRENCH.wav", "key_press": -1, "type": "PRES_AUD", "word": "trench", "wordID": 1502, "conditions": [24, 800, "a", 24000], "trial": 7, "serialpos": 2, "trial_type": "single-audio", "trial_index": 267, "time_elapsed": 1211117, "internal_node_id": "0.0-195.0"}}, {"uniqueid": "MTK0457:3STRJBFXOXY793P7BTXWZQ1JB8BTKX", "current_trial": 268, "dateTime": 1510932883470, "trialdata": {"rt": -1000, "stimulus": "/static/audio/wordpool/JUNGLE.wav", "key_press": -1, "type": "PRES_AUD", "word": "jungle", "wordID": 763, "conditions": [24, 800, "a", 24000], "trial": 7, "serialpos": 3, "trial_type": "single-audio", "trial_index": 268, "time_elapsed": 1212842, "internal_node_id": "0.0-196.0"}}, {"uniqueid": "MTK0457:3STRJBFXOXY793P7BTXWZQ1JB8BTKX", "current_trial": 269, "dateTime": 1510932885153, "trialdata": {"rt": -1000, "stimulus": "/static/audio/wordpool/FLUTE.wav", "key_press": -1, "type": "PRES_AUD", "word": "flute", "wordID": 584, "conditions": [24, 800, "a", 24000], "trial": 7, "serialpos": 4, "trial_type": "single-audio", "trial_index": 269, "time_elapsed": 1214525, "internal_node_id": "0.0-197.0"}}, {"uniqueid": "MTK0457:3STRJBFXOXY793P7BTXWZQ1JB8BTKX", "current_trial": 270, "dateTime": 1510932887016, "trialdata": {"rt": -1000, "stimulus": "/static/audio/wordpool/WRIST.wav", "key_press": -1, "type": "PRES_AUD", "word": "wrist", "wordID": 1625, "conditions": [24, 800, "a", 24000], "trial": 7, "serialpos": 5, "trial_type": "single-audio", "trial_index": 270, "time_elapsed": 1216388, "internal_node_id": "0.0-198.0"}}, {"uniqueid": "MTK0457:3STRJBFXOXY793P7BTXWZQ1JB8BTKX", "current_trial": 271, "dateTime": 1510932888953, "trialdata": {"rt": -1000, "stimulus": "/static/audio/wordpool/SALT.wav", "key_press": -1, "type": "PRES_AUD", "word": "salt", "wordID": 1228, "conditions": [24, 800, "a", 24000], "trial": 7, "serialpos": 6, "trial_type": "single-audio", "trial_index": 271, "time_elapsed": 1218325, "internal_node_id": "0.0-199.0"}}, {"uniqueid"