{"condition": 0, "counterbalance": 340, "assignmentId": "39ZSFO5CA93RYWYETDNU37N8F8AJUT", "workerId": "MTK0540", "hitId": "37S0QRNUFBN2TYXO94KWT50LO24881", "currenttrial": 626, "bonus": 0, "data": [{"uniqueid": "MTK0540:39ZSFO5CA93RYWYETDNU37N8F8AJUT", "current_trial": 0, "dateTime": 1511203771226, "trialdata": {"rt": 8560, "key_press": 39, "type": "INSTRUCTIONS", "trial_type": "text", "trial_index": 0, "time_elapsed": 8560, "internal_node_id": "0.0-0.0"}}, {"uniqueid": "MTK0540:39ZSFO5CA93RYWYETDNU37N8F8AJUT", "current_trial": 1, "dateTime": 1511203786153, "trialdata": {"rt": 14927, "key_press": 39, "type": "INSTRUCTIONS", "trial_type": "text", "trial_index": 1, "time_elapsed": 23488, "internal_node_id": "0.0-1.0"}}, {"uniqueid": "MTK0540:39ZSFO5CA93RYWYETDNU37N8F8AJUT", "current_trial": 2, "dateTime": 1511203802129, "trialdata": {"rt": [15973], "responses": ["ocean"], "type": "AUDIO_TEST", "trial_type": "audio-test", "trial_index": 2, "time_elapsed": 39464, "internal_node_id": "0.0-2.0"}}, {"uniqueid": "MTK0540:39ZSFO5CA93RYWYETDNU37N8F8AJUT", "current_trial": 3, "dateTime": 1511203812841, "trialdata": {"rt": [10710], "responses": ["crystal"], "type": "AUDIO_TEST", "trial_type": "audio-test", "trial_index": 3, "time_elapsed": 50176, "internal_node_id": "0.0-3.0"}}, {"uniqueid": "MTK0540:39ZSFO5CA93RYWYETDNU37N8F8AJUT", "current_trial": 4, "dateTime": 1511203817353, "trialdata": {"rt": [4510], "responses": ["spice"], "type": "AUDIO_TEST", "trial_type": "audio-test", "trial_index": 4, "time_elapsed": 54688, "internal_node_id": "0.0-4.0"}}, {"uniqueid": "MTK0540:39ZSFO5CA93RYWYETDNU37N8F8AJUT", "current_trial": 5, "dateTime": 1511203839105, "trialdata": {"rt": 21000, "responses": "{\"Q0\":\"2:30 AM\",\"Q1\":\"10:30 AM\",\"Q2\":\"3\"}", "type": "SLEEP_SURVEY", "trial_type": "survey-text", "trial_index": 5, "time_elapsed": 76439, "internal_node_id": "0.0-5.0"}}, {"uniqueid": "MTK0540:39ZSFO5CA93RYWYETDNU37N8F8AJUT", "current_trial": 6, "dateTime": 1511203912368, "trialdata": {"rt": 72262, "key_press": 39, "type": "INSTRUCTIONS", "trial_type": "text", "trial_index": 6, "time_elapsed": 149703, "internal_node_id": "0.0-6.0"}}, {"uniqueid": "MTK0540:39ZSFO5CA93RYWYETDNU37N8F8AJUT", "current_trial": 7, "dateTime": 1511203929041, "trialdata": {"rt": 16170, "key_press": 39, "type": "INSTRUCTIONS", "trial_type": "text", "trial_index": 7, "time_elapsed": 166376, "internal_node_id": "0.0-7.0"}}, {"uniqueid": "MTK0540:39ZSFO5CA93RYWYETDNU37N8F8AJUT", "current_trial": 8, "dateTime": 1511203935968, "trialdata": {"rt": 6427, "key_press": 39, "type": "INSTRUCTIONS", "trial_type": "text", "trial_index": 8, "time_elapsed": 173303, "internal_node_id": "0.0-8.0"}}, {"uniqueid": "MTK0540:39ZSFO5CA93RYWYETDNU37N8F8AJUT", "current_trial": 9, "dateTime": 1511203954972, "trialdata": {"rt": [3574, 6333, 9902, 12117, 14677, 16693], "responses": ["18", "11", "19", "14", "16", "11"], "num1": [1, 7, 8, 7, 8, 6, 7], "num2": [8, 2, 7, 2, 6, 3, 4], "num3": [9, 2, 4, 5, 2, 2, 5], "type": "DISTRACTOR", "conditions": [18, 1200, "v", 18000], "trial": 0, "trial_type": "math-distractor", "trial_index": 9, "time_elapsed": 192307, "internal_node_id": "0.0-9.0"}}, {"uniqueid": "MTK0540:39ZSFO5CA93RYWYETDNU37N8F8AJUT", "current_trial": 10, "dateTime": 1511203957974, "trialdata": {"rt": -1, "stimulus": "<p id=\"stim\">10</p>", "key_press": -1, "trial_type": "single-stim", "trial_index": 10, "time_elapsed": 195309, "internal_node_id": "0.0-10.0-0.0"}}, {"uniqueid": "MTK0540:39ZSFO5CA93RYWYETDNU37N8F8AJUT", "current_trial": 11, "dateTime": 1511203958976, "trialdata": {"rt": -1, "stimulus": "<p id=\"stim\">9</p>", "key_press": -1, "trial_type": "single-stim", "trial_index": 11, "time_elapsed": 196311, "internal_node_id": "0.0-10.0-1.0"}}, {"uniqueid": "MTK0540:39ZSFO5CA93RYWYETDNU37N8F8AJUT", "current_trial": 12, "dateTime": 1511203959977, "trialdata": {"rt": -1, "stimulus": "<p id=\"stim\">8</p>", "key_press": -1, "trial_type": "single-stim", "trial_index": 12, "time_elapsed": 197312, "internal_node_id": "0.0-10.0-2.0"}}, {"uniqueid": "MTK0540:39ZSFO5CA93RYWYETDNU37N8F8AJUT", "current_trial": 13, "dateTime": 1511203960977, "trialdata": {"rt": -1, "stimulus": "<p id=\"stim\">7</p>", "key_press": -1, "trial_type": "single-stim", "trial_index": 13, "time_elapsed": 198312, "internal_node_id": "0.0-10.0-3.0"}}, {"uniqueid": "MTK0540:39ZSFO5CA93RYWYETDNU37N8F8AJUT", "current_trial": 14, "dateTime": 1511203961979, "trialdata": {"rt": -1, "stimulus": "<p id=\"stim\">6</p>", "key_press": -1, "trial_type": "single-stim", "trial_index": 14, "time_elapsed": 199314, "internal_node_id": "0.0-10.0-4.0"}}, {"uniqueid": "MTK0540:39ZSFO5CA93RYWYETDNU37N8F8AJUT", "current_trial": 15, "dateTime": 1511203962980, "trialdata": {"rt": -1, "stimulus": "<p id=\"stim\">5</p>", "key_press": -1, "trial_type": "single-stim", "trial_index": 15, "time_elapsed": 200315, "internal_node_id": "0.0-10.0-5.0"}}, {"uniqueid": "MTK0540:39ZSFO5CA93RYWYETDNU37N8F8AJUT", "current_trial": 16, "dateTime": 1511203963981, "trialdata": {"rt": -1, "stimulus": "<p id=\"stim\">4</p>", "key_press": -1, "trial_type": "single-stim", "trial_index": 16, "time_elapsed": 201316, "internal_node_id": "0.0-10.0-6.0"}}, {"uniqueid": "MTK0540:39ZSFO5CA93RYWYETDNU37N8F8AJUT", "current_trial": 17, "dateTime": 1511203964981, "trialdata": {"rt": -1, "stimulus": "<p id=\"stim\">3</p>", "key_press": -1, "trial_type": "single-stim", "trial_index": 17, "time_elapsed": 202316, "internal_node_id": "0.0-10.0-7.0"}}, {"uniqueid": "MTK0540:39ZSFO5CA93RYWYETDNU37N8F8AJUT", "current_trial": 18, "dateTime": 1511203965982, "trialdata": {"rt": -1, "stimulus": "<p id=\"stim\">2</p>", "key_press": -1, "trial_type": "single-stim", "trial_index": 18, "time_elapsed": 203317, "internal_node_id": "0.0-10.0-8.0"}}, {"uniqueid": "MTK0540:39ZSFO5CA93RYWYETDNU37N8F8AJUT", "current_trial": 19, "dateTime": 1511203966983, "trialdata": {"rt": -1, "stimulus": "<p id=\"stim\">1</p>", "key_press": -1, "trial_type": "single-stim", "trial_index": 19, "time_elapsed": 204318, "internal_node_id": "0.0-10.0-9.0"}}, {"uniqueid": "MTK0540:39ZSFO5CA93RYWYETDNU37N8F8AJUT", "current_trial": 20, "dateTime": 1511203968484, "trialdata": {"rt": -1, "stimulus": "<p id=\"stim\">+</p>", "key_press": -1, "type": "FIXATION", "trial_type": "single-stim", "trial_index": 20, "time_elapsed": 205819, "internal_node_id": "0.0-11.0-0.0"}}, {"uniqueid": "MTK0540:39ZSFO5CA93RYWYETDNU37N8F8AJUT", "current_trial": 21, "dateTime": 1511203969685, "trialdata": {"rt": -1, "stimulus": "<p id=\"stim\">SLIDE</p>", "key_press": -1, "type": "PRES_VIS", "word": "slide", "wordID": 1325, "conditions": [18, 1200, "v", 18000], "trial": 0, "serialpos": 0, "trial_type": "single-stim", "trial_index": 21, "time_elapsed": 207020, "internal_node_id": "0.0-12.0"}}, {"uniqueid": "MTK0540:39ZSFO5CA93RYWYETDNU37N8F8AJUT", "current_trial": 22, "dateTime": 1511203971879, "trialdata": {"rt": -1, "stimulus": "<p id=\"stim\">AIRPORT</p>", "key_press": -1, "type": "PRES_VIS", "word": "airport", "wordID": 12, "conditions": [18, 1200, "v", 18000], "trial": 0, "serialpos": 1, "trial_type": "single-stim", "trial_index": 22, "time_elapsed": 209214, "internal_node_id": "0.0-13.0"}}, {"uniqueid": "MTK0540:39ZSFO5CA93RYWYETDNU37N8F8AJUT", "current_trial": 23, "dateTime": 1511203973956, "trialdata": {"rt": -1, "stimulus": "<p id=\"stim\">BADGE</p>", "key_press": -1, "type": "PRES_VIS", "word": "badge", "wordID": 67, "conditions": [18, 1200, "v", 18000], "trial": 0, "serialpos": 2, "trial_type": "single-stim", "trial_index": 23, "time_elapsed": 211291, "internal_node_id": "0.0-14.0"}}, {"uniqueid": "MTK0540:39ZSFO5CA93RYWYETDNU37N8F8AJUT", "current_trial": 24, "dateTime": 1511203976293, "trialdata": {"rt": -1, "stimulus": "<p id=\"stim\">TEMPLE</p>", "key_press": -1, "type": "PRES_VIS", "word": "temple", "wordID": 1447, "conditions": [18, 1200, "v", 18000], "trial": 0, "serialpos": 3, "trial_type": "single-stim", "trial_index": 24, "time_elapsed": 213628, "internal_node_id": "0.0-15.0"}}, {"uniqueid": "MTK0540:39ZSFO5CA93RYWYETDNU37N8F8AJUT", "current_trial": 25, "dateTime": 1511203978633, "trialdata": {"rt": -1, "stimulus": "<p id=\"stim\">MUMMY</p>", "key_press": -1, "type": "PRES_VIS", "word": "mummy", "wordID": 931, "conditions": [18, 1200, "v", 18000], "trial": 0, "serialpos": 4, "trial_type": "single-stim", "trial_index": 25, "time_elapsed": 215968, "internal_node_id": "0.0-16.0"}}, {"uniqueid": "MTK0540:39ZSFO5CA93RYWYETDNU37N8F8AJUT", "current_trial": 26, "dateTime": 1511203980699, "trialdata": {"rt": -1, "stimulus": "<p id=\"stim\">SUPPER</p>", "key_press": -1, "type": "PRES_VIS", "word": "supper", "wordID": 1410, "conditions": [18, 1200, "v", 18000], "trial": 0, "serialpos": 5, "trial_type": "single-stim", "trial_index": 26, "time_elapsed": 218034, "internal_node_id": "0.0-17.0"}}, {"uniqueid": "MTK0540:39ZSFO5CA93RYWYETDNU37N8F8AJUT", "current_trial": 27, "dateTime": 1511203982855, "trialdata": {"rt": -1, "stimulus": "<p id=\"stim\">CROSS</p>", "key_press": -1, "type": "PRES_VIS", "word": "cross", "wordID": 412, "conditions": [18, 1200, "v", 18000], "trial": 0, "serialpos": 6, "trial_type": "single-stim", "trial_index": 27, "time_elapsed": 220190, "internal_node_id": "0.0-18.0"}}, {"uniqueid": "MTK0540:39ZSFO5CA93RYWYETDNU37N8F8AJUT", "current_trial": 28, "dateTime": 1511203984856, "trialdata": {"rt": -1, "stimulus": "<p id=\"stim\">HEADBAND</p>", "key_press": -1, "type": "PRES_VIS", "word": "headband", "wordID": 695, "conditions": [18, 1200, "v", 18000], "trial": 0, "serialpos": 7, "trial_type": "single-stim", "trial_index": 28, "time_elapsed": 222191, "internal_node_id": "0.0-19.0"}}, {"uniqueid": "MTK0540:39ZSFO5CA93RYWYETDNU37N8F8AJUT", "current_trial": 29, "dateTime": 1511203986928, "trialdata": {"rt": -1, "stimulus": "<p id=\"stim\">PIANO</p>", "key_press": -1, "type": "PRES_VIS", "word": "piano", "wordID": 1056, "conditions": [18, 1200, "v", 18000], "trial": 0, "serialpos": 8, "trial_type": "single-stim", "trial_index": 29, "time_elapsed": 224263, "internal_node_id": "0.0-20.0"}}, {"uniqueid": "MTK0540:39ZSFO5CA93RYWYETDNU37N8F8AJUT", "current_trial": 30, "dateTime": 1511203989139, "trialdata": {"rt": -1, "stimulus": "<p id=\"stim\">CROWN</p>", "key_press": -1, "type": "PRES_VIS", "word": "crown", "wordID": 414, "conditions": [18, 1200, "v", 18000], "trial": 0, "serialpos": 9, "trial_type": "single-stim", "trial_index": 30, "time_elapsed": 226474, "internal_node_id": "0.0-21.0"}}, {"uniqueid": "MTK0540:39ZSFO5CA93RYWYETDNU37N8F8AJUT", "current_trial": 31, "dateTime": 1511203991399, "trialdata": {"rt": -1, "stimulus": "<p id=\"stim\">JUNGLE</p>", "key_press": -1, "type": "PRES_VIS", "word": "jungle", "wordID": 763, "conditions": [18, 1200, "v", 18000], "trial": 0, "serialpos": 10, "trial_type": "single-stim", "trial_index": 31, "time_elapsed": 228734, "internal_node_id": "0.0-22.0"}}, {"uniqueid": "MTK0540:39ZSFO5CA93RYWYETDNU37N8F8AJUT", "current_trial": 32, "dateTime": 1511203993517, "trialdata": {"rt": -1, "stimulus": "<p id=\"stim\">DRILL</p>", "key_press": -1, "type": "PRES_VIS", "word": "drill", "wordID": 496, "conditions": [18, 1200, "v", 18000], "trial": 0, "serialpos": 11, "trial_type": "single-stim", "trial_index": 32, "time_elapsed": 230852, "internal_node_id": "0.0-23.0"}}, {"uniqueid": "MTK0540:39ZSFO5CA93RYWYETDNU37N8F8AJUT", "current_trial": 33, "dateTime": 1511203995716, "trialdata": {"rt": -1, "stimulus": "<p id=\"stim\">TRIBE</p>", "key_press": -1, "type": "PRES_VIS", "word": "tribe", "wordID": 1504, "conditions": [18, 1200, "v", 18000], "trial": 0, "serialpos": 12, "trial_type": "single-stim", "trial_index": 33, "time_elapsed": 233051, "internal_node_id": "0.0-24.0"}}, {"uniqueid": "MTK0540:39ZSFO5CA93RYWYETDNU37N8F8AJUT", "current_trial": 34, "dateTime": 1511203997987, "trialdata": {"rt": -1, "stimulus": "<p id=\"stim\">MARS</p>", "key_press": -1, "type": "PRES_VIS", "word": "mars", "wordID": 872, "conditions": [18, 1200, "v", 18000], "trial": 0, "serialpos": 13, "trial_type": "single-stim", "trial_index": 34, "time_elapsed": 235322, "internal_node_id": "0.0-25.0"}}, {"uniqueid": "MTK0540:39ZSFO5CA93RYWYETDNU37N8F8AJUT", "current_trial": 35, "dateTime": 1511204000212, "trialdata": {"rt": -1, "stimulus": "<p id=\"stim\">APRON</p>", "key_press": -1, "type": "PRES_VIS", "word": "apron", "wordID": 34, "conditions": [18, 1200, "v", 18000], "trial": 0, "serialpos": 14, "trial_type": "single-stim", "trial_index": 35, "time_elapsed": 237547, "internal_node_id": "0.0-26.0"}}, {"uniqueid": "MTK0540:39ZSFO5CA93RYWYETDNU37N8F8AJUT", "current_trial": 36, "dateTime": 1511204002298, "trialdata": {"rt": -1, "stimulus": "<p id=\"stim\">FARMER</p>", "key_press": -1, "type": "PRES_VIS", "word": "farmer", "wordID": 552, "conditions": [18, 1200, "v", 18000], "trial": 0, "serialpos": 15, "trial_type": "single-stim", "trial_index": 36, "time_elapsed": 239633, "internal_node_id": "0.0-27.0"}}, {"uniqueid": "MTK0540:39ZSFO5CA93RYWYETDNU37N8F8AJUT", "current_trial": 37, "dateTime": 1511204004663, "trialdata": {"rt": -1, "stimulus": "<p id=\"stim\">OYSTER</p>", "key_press": -1, "type": "PRES_VIS", "word": "oyster", "wordID": 994, "conditions": [18, 1200, "v", 18000], "trial": 0, "serialpos": 16, "trial_type": "single-stim", "trial_index": 37, "time_elapsed": 241998, "internal_node_id": "0.0-28.0"}}, {"uniqueid": "MTK0540:39ZSFO5CA93RYWYETDNU37N8F8AJUT", "current_trial": 38, "dateTime": 1511204006863, "trialdata": {"rt": -1, "stimulus": "<p id=\"stim\">SPOOL</p>", "key_press": -1, "type": "PRES_VIS", "word": "spool", "wordID": 1355, "conditions": [18, 1200, "v", 18000], "trial": 0, "serialpos": 17, "trial_type": "single-stim", "trial_index": 38, "time_elapsed": 244198, "internal_node_id": "0.0-29.0"}}, {"uniqueid": "MTK0540:39ZSFO5CA93RYWYETDNU37N8F8AJUT", "current_trial": 39, "dateTime": 1511204009143, "trialdata": {"rt": -1, "stimulus": "", "key_press": -1, "type": "PRE_RECALL_DELAY", "trial_type": "single-stim", "trial_index": 39, "time_elapsed": 246478, "internal_node_id": "0.0-30.0-0.0"}}, {"uniqueid": "MTK0540:39ZSFO5CA93RYWYETDNU37N8F8AJUT", "current_trial": 40, "dateTime": 1511204009644, "trialdata": {"rt": -1000, "stimulus": "/static/audio/400Hz.wav", "key_press": -1, "type": "PRE_RECALL_ALERT", "trial_type": "single-audio", "trial_index": 40, "time_elapsed": 246979, "internal_node_id": "0.0-31.0"}}, {"uniqueid": "MTK0540:39ZSFO5CA93RYWYETDNU37N8F8AJUT", "current_trial": 41, "dateTime": 1511204069646, "trialdata": {"rt": [4572, 7092, 9171, 11483, 15899, 23547], "recwords": ["airplane", "spool", "mummy", "cross", "slide", "plane"], "type": "FREE_RECALL", "conditions": [18, 1200, "v", 18000], "trial": 0, "trial_type": "free-recall", "trial_index": 41, "time_elapsed": 306980, "internal_node_id": "0.0-32.0-0.0"}}, {"uniqueid": "MTK0540:39ZSFO5CA93RYWYETDNU37N8F8AJUT", "current_trial": 42, "dateTime": 1511204073096, "trialdata": {"rt": 1448, "key_press": 32, "type": "INSTRUCTIONS", "trial_type": "text", "trial_index": 42, "time_elapsed": 310431, "internal_node_id": "0.0-33.0"}}, {"uniqueid": "MTK0540:39ZSFO5CA93RYWYETDNU37N8F8AJUT", "current_trial": 43, "dateTime": 1511204093099, "trialdata": {"rt": [3750, 6006, 8646, 10286, 12222, 16782], "responses": ["23", "22", "12", "12", "", "13"], "num1": [5, 5, 1, 4, 1, 6, 6], "num2": [8, 8, 7, 6, 3, 4, 9], "num3": [8, 4, 4, 2, 5, 3, 8], "type": "DISTRACTOR", "conditions": [18, 1200, "a", 18000], "trial": 1, "trial_type": "math-distractor", "trial_index": 43, "time_elapsed": 330434, "internal_node_id": "0.0-34.0"}}, {"uniqueid": "MTK0540:39ZSFO5CA93RYWYETDNU37N8F8AJUT", "current_trial": 44, "dateTime": 1511204096101, "trialdata": {"rt": -1, "stimulus": "<p id=\"stim\">10</p>", "key_press": -1, "trial_type": "single-stim", "trial_index": 44, "time_elapsed": 333436, "internal_node_id": "0.0-35.0-0.0"}}, {"uniqueid": "MTK0540:39ZSFO5CA93RYWYETDNU37N8F8AJUT", "current_trial": 45, "dateTime": 1511204097102, "trialdata": {"rt": -1, "stimulus": "<p id=\"stim\">9</p>", "key_press": -1, "trial_type": "single-stim", "trial_index": 45, "time_elapsed": 334437, "internal_node_id": "0.0-35.0-1.0"}}, {"uniqueid": "MTK0540:39ZSFO5CA93RYWYETDNU37N8F8AJUT", "current_trial": 46, "dateTime": 1511204098102, "trialdata": {"rt": -1, "stimulus": "<p id=\"stim\">8</p>", "key_press": -1, "trial_type": "single-stim", "trial_index": 46, "time_elapsed": 335437, "internal_node_id": "0.0-35.0-2.0"}}, {"uniqueid": "MTK0540:39ZSFO5CA93RYWYETDNU37N8F8AJUT", "current_trial": 47, "dateTime": 1511204099103, "trialdata": {"rt": -1, "stimulus": "<p id=\"stim\">7</p>", "key_press": -1, "trial_type": "single-stim", "trial_index": 47, "time_elapsed": 336438, "internal_node_id": "0.0-35.0-3.0"}}, {"uniqueid": "MTK0540:39ZSFO5CA93RYWYETDNU37N8F8AJUT", "current_trial": 48, "dateTime": 1511204100104, "trialdata": {"rt": -1, "stimulus": "<p id=\"stim\">6</p>", "key_press": -1, "trial_type": "single-stim", "trial_index": 48, "time_elapsed": 337439, "internal_node_id": "0.0-35.0-4.0"}}, {"uniqueid": "MTK0540:39ZSFO5CA93RYWYETDNU37N8F8AJUT", "current_trial": 49, "dateTime": 1511204101104, "trialdata": {"rt": -1, "stimulus": "<p id=\"stim\">5</p>", "key_press": -1, "trial_type": "single-stim", "trial_index": 49, "time_elapsed": 338439, "internal_node_id": "0.0-35.0-5.0"}}, {"uniqueid": "MTK0540:39ZSFO5CA93RYWYETDNU37N8F8AJUT", "current_trial": 50, "dateTime": 1511204102105, "trialdata": {"rt": -1, "stimulus": "<p id=\"stim\">4</p>", "key_press": -1, "trial_type": "single-stim", "trial_index": 50, "time_elapsed": 339440, "internal_node_id": "0.0-35.0-6.0"}}, {"uniqueid": "MTK0540:39ZSFO5CA93RYWYETDNU37N8F8AJUT", "current_trial": 51, "dateTime": 1511204103106, "trialdata": {"rt": -1, "stimulus": "<p id=\"stim\">3</p>", "key_press": -1, "trial_type": "single-stim", "trial_index": 51, "time_elapsed": 340441, "internal_node_id": "0.0-35.0-7.0"}}, {"uniqueid": "MTK0540:39ZSFO5CA93RYWYETDNU37N8F8AJUT", "current_trial": 52, "dateTime": 1511204104106, "trialdata": {"rt": -1, "stimulus": "<p id=\"stim\">2</p>", "key_press": -1, "trial_type": "single-stim", "trial_index": 52, "time_elapsed": 341441, "internal_node_id": "0.0-35.0-8.0"}}, {"uniqueid": "MTK0540:39ZSFO5CA93RYWYETDNU37N8F8AJUT", "current_trial": 53, "dateTime": 1511204105107, "trialdata": {"rt": -1, "stimulus": "<p id=\"stim\">1</p>", "key_press": -1, "trial_type": "single-stim", "trial_index": 53, "time_elapsed": 342442, "internal_node_id": "0.0-35.0-9.0"}}, {"uniqueid": "MTK0540:39ZSFO5CA93RYWYETDNU37N8F8AJUT", "current_trial": 54, "dateTime": 1511204106608, "trialdata": {"rt": -1, "stimulus": "<p id=\"stim\">+</p>", "key_press": -1, "type": "FIXATION", "trial_type": "single-stim", "trial_index": 54, "time_elapsed": 343943, "internal_node_id": "0.0-36.0-0.0"}}, {"uniqueid": "MTK0540:39ZSFO5CA93RYWYETDNU37N8F8AJUT", "current_trial": 55, "dateTime": 1511204108984, "trialdata": {"rt": -1000, "stimulus": "/static/audio/wordpool/POISON.wav", "key_press": -1, "type": "PRES_AUD", "word": "poison", "wordID": 1095, "conditions": [18, 1200, "a", 18000], "trial": 1, "serialpos": 0, "trial_type": "single-audio", "trial_index": 55, "time_elapsed": 346319, "internal_node_id": "0.0-37.0"}}, {"uniqueid": "MTK0540:39ZSFO5CA93RYWYETDNU37N8F8AJUT", "current_trial": 56, "dateTime": 1511204111110, "trialdata": {"rt": -1000, "stimulus": "/static/audio/wordpool/SPIDER.wav", "key_press": -1, "type": "PRES_AUD", "word": "spider", "wordID": 1350, "conditions": [18, 1200, "a", 18000], "trial": 1, "serialpos": 1, "trial_type": "single-audio", "trial_index": 56, "time_elapsed": 348445, "internal_node_id": "0.0-38.0"}}, {"uniqueid": "MTK0540:39ZSFO5CA93RYWYETDNU37N8F8AJUT", "current_trial": 57, "dateTime": 1511204113152, "trialdata": {"rt": -1000, "stimulus": "/static/audio/wordpool/QUARTER.wav", "key_press": -1, "type": "PRES_AUD", "word": "quarter", "wordID": 1147, "conditions": [18, 1200, "a", 18000], "trial": 1, "serialpos": 2, "trial_type": "single-audio", "trial_index": 57, "time_elapsed": 350487, "internal_node_id": "0.0-39.0"}}, {"uniqueid": "MTK0540:39ZSFO5CA93RYWYETDNU37N8F8AJUT", "current_trial": 58, "dateTime": 1511204115377, "trialdata": {"rt": -1000, "stimulus": "/static/audio/wordpool/FRAGRANCE.wav", "key_press": -1, "type": "PRES_AUD", "word": "fragrance", "wordID": 598, "conditions": [18, 1200, "a", 18000], "trial": 1, "serialpos": 3, "trial_type": "single-audio", "trial_index": 58, "time_elapsed": 352712, "internal_node_id": "0.0-40.0"}}, {"uniqueid": "MTK0540:39ZSFO5CA93RYWYETDNU37N8F8AJUT", "current_trial": 59, "dateTime": 1511204117607, "trialdata": {"rt": -1000, "stimulus": "/static/audio/wordpool/FEMALE.wav", "key_press": -1, "type": "PRES_AUD", "word": "female", "wordID": 558, "conditions": [18, 1200, "a", 18000], "trial": 1, "serialpos": 4, "trial_type": "single-audio", "trial_index": 59, "time_elapsed": 354942, "internal_node_id": "0.0-41.0"}}, {"uniqueid": "MTK0540:39ZSFO5CA93RYWYETDNU37N8F8AJUT", "current_trial": 60, "dateTime": 1511204119979, "trialdata": {"rt": -1000, "stimulus": "/static/audio/wordpool/BLOUSE.wav", "key_press": -1, "type": "PRES_AUD", "word": "blouse", "wordID": 138, "conditions": [18, 1200, "a", 18000], "trial": 1, "serialpos": 5, "trial_type": "single-audio", "trial_index": 60, "time_elapsed": 357314, "internal_node_id": "0.0-42.0"}}, {"uniqueid": "MTK0540:39ZSFO5CA93RYWYETDNU37N8F8AJUT", "current_trial": 61, "dateTime": 1511204122249, "trialdata": {"rt": -1000, "stimulus": "/static/audio/wordpool/GARLIC.wav", "key_press": -1, "type": "PRES_AUD", "word": "garlic", "wordID": 623, "conditions": [18, 1200, "a", 18000], "trial": 1, "serialpos": 6, "trial_type": "single-audio", "trial_index": 61, "time_elapsed": 359584, "internal_node_id": "0.0-43.0"}}, {"uniqueid": "MTK0540:39ZSFO5CA93RYWYETDNU37N8F8AJUT", "current_trial": 62, "dateTime": 1511204124288, "trialdata": {"rt": -1000, "stimulus": "/static/audio/wordpool/HIGHWAY.wav", "key_press": -1, "type": "PRES_AUD", "word": "highway", "wordID": 706, "conditions": [18, 1200, "a", 18000], "trial": 1, "serialpos": 7, "trial_type": "single-audio", "trial_index": 62, "time_elapsed": 361623, "internal_node_id": "0.0-44.0"}}, {"uniqueid": "MTK0540:39ZSFO5CA93RYWYETDNU37N8F8AJUT", "current_trial": 63, "dateTime": 1511204126342, "trialdata": {"rt": -1000, "stimulus": "/static/audio/wordpool/BALLOON.wav", "key_press": -1, "type": "PRES_AUD", "word": "balloon", "wordID": 74, "conditions": [18, 1200, "a", 18000], "trial": 1, "serialpos": 8, "trial_type": "single-audio", "trial_index": 63, "time_elapsed": 363677, "internal_node_id": "0.0-45.0"}}, {"uniqueid": "MTK0540:39ZSFO5CA93RYWYETDNU37N8F8AJUT", "current_trial": 64, "dateTime": 1511204128378, "trialdata": {"rt": -1000, "stimulus": "/static/audio/wordpool/VALVE.wav", "key_press": -1, "type": "PRES_AUD", "word": "valve", "wordID": 1545, "conditions": [18, 1200, "a", 18000], "trial": 1, "serialpos": 9, "trial_type": "single-audio", "trial_index": 64, "time_elapsed": 365713, "internal_node_id": "0.0-46.0"}}, {"uniqueid": "MTK0540:39ZSFO5CA93RYWYETDNU37N8F8AJUT", "current_trial": 65, "dateTime": 1511204130628, "trialdata": {"rt": -1000, "stimulus": "/static/audio/wordpool/PLUTO.wav", "key_press": -1, "type": "PRES_AUD", "word": "pluto", "wordID": 1091, "conditions": [18, 1200, "a", 18000], "trial": 1, "serialpos": 10, "trial_type": "single-audio", "trial_index": 65, "time_elapsed": 367963, "internal_node_id": "0.0-47.0"}}, {"uniqueid": "MTK0540:39ZSFO5CA93RYWYETDNU37N8F8AJUT", "current_trial": 66, "dateTime": 1511204132894, "trialdata": {"rt": -1000, "stimulus": "/static/audio/wordpool/SPARROW.wav", "key_press": -1, "type": "PRES_AUD", "word": "sparrow", "wordID": 1346, "conditions": [18, 1200, "a", 18000], "trial": 1, "serialpos": 11, "trial_type": "single-audio", "trial_index": 66, "time_elapsed": 370229, "internal_node_id": "0.0-48.0"}}, {"uniqueid": "MTK0540:39ZSFO5CA93RYWYETDNU37N8F8AJUT", "current_trial": 67, "dateTime": 1511204134916, "trialdata": {"rt": -1000, "stimulus": "/static/audio/wordpool/BOX.wav", "key_press": -1, "type": "PRES_AUD", "word": "box", "wordID": 158, "conditions": [18, 1200, "a", 18000], "trial": 1, "serialpos": 12, "trial_type": "single-audio", "trial_index": 67, "time_elapsed": 372251, "internal_node_id": "0.0-49.0"}}, {"uniqueid": "MTK0540:39ZSFO5CA93RYWYETDNU37N8F8AJUT", "current_trial": 68, "dateTime": 1511204137074, "trialdata": {"rt": -1000, "stimulus": "/static/audio/wordpool/TORTOISE.wav", "key_press": -1, "type": "PRES_AUD", "word": "tortoise", "wordID": 1485, "conditions": [18, 1200, "a", 18000], "trial": 1, "serialpos": 13, "trial_type": "single-audio", "trial_index": 68, "time_elapsed": 374408, "internal_node_id": "0.0-50.0"}}, {"uniqueid": "MTK0540:39ZSFO5CA93RYWYETDNU37N8F8AJUT", "current_trial": 69, "dateTime": 1511204139415, "trialdata": {"rt": -1000, "stimulus": "/static/audio/wordpool/MILDEW.wav", "key_press": -1, "type": "PRES_AUD", "word": "mildew", "wordID": 892, "conditions": [18, 1200, "a", 18000], "trial": 1, "serialpos": 14, "trial_type": "single-audio", "trial_index": 69, "time_elapsed": 376750, "internal_node_id": "0.0-51.0"}}, {"uniqueid": "MTK0540:39ZSFO5CA93RYWYETDNU37N8F8AJUT", "current_trial": 70, "dateTime": 1511204141760, "trialdata": {"rt": -1000, "stimulus": "/static/audio/wordpool/DONKEY.wav", "key_press": -1, "type": "PRES_AUD", "word": "donkey", "wordID": 483, "conditions": [18, 1200, "a", 18000], "trial": 1, "serialpos": 15, "trial_type": "single-audio", "trial_index": 70, "time_elapsed": 379095, "internal_node_id": "0.0-52.0"}}, {"uniqueid": "MTK0540:39ZSFO5CA93RYWYETDNU37N8F8AJUT", "current_trial": 71, "dateTime": 1511204143930, "trialdata": {"rt": -1000, "stimulus": "/static/audio/wordpool/BATHTUB.wav", "key_press": -1, "type": "PRES_AUD", "word": "bathtub", "wordID": 99, "conditions": [18, 1200, "a", 18000], "trial": 1, "serialpos": 16, "trial_type": "single-audio", "trial_index": 71, "time_elapsed": 381265, "internal_node_id": "0.0-53.0"}}, {"uniqueid": "MTK0540:39ZSFO5CA93RYWYETDNU37N8F8AJUT", "current_trial": 72, "dateTime": 1511204146265, "trialdata": {"rt": -1000, "stimulus": "/static/audio/wordpool/THIEF.wav", "key_press": -1, "type": "PRES_AUD", "word": "thief", "wordID": 1455, "conditions": [18, 1200, "a", 18000], "trial": 1, "serialpos": 17, "trial_type": "single-audio", "trial_index": 72, "time_elapsed": 383600, "internal_node_id": "0.0-54.0"}}, {"uniqueid": "MTK0540:39ZSFO5CA93RYWYETDNU37N8F8AJUT", "current_trial": 73, "dateTime": 1511204147478, "trialdata": {"rt": -1, "stimulus": "", "key_press": -1, "type": "PRE_RECALL_DELAY", "trial_type": "single-stim", "trial_index": 73, "time_elapsed": 384813, "internal_node_id": "0.0-55.0-0.0"}}, {"uniqueid": "MTK0540:39ZSFO5CA93RYWYETDNU37N8F8AJUT", "current_trial": 74, "dateTime": 1511204147979, "trialdata": {"rt": -1000, "stimulus": "/static/audio/400Hz.wav", "key_press": -1, "type": "PRE_RECALL_ALERT", "trial_type": "single-audio", "trial_index": 74, "time_elapsed": 385314, "internal_node_id": "0.0-56.0"}}, {"uniqueid": "MTK0540:39ZSFO5CA93RYWYETDNU37N8F8AJUT", "current_trial": 75, "dateTime": 1511204207981, "trialdata": {"rt": [2956, 5852, 7436, 8812, 10348, 14348, 20068, 24412, 31668, 34060], "recwords": ["thief", "mildew", "poison", "spider", "female", "blouse", "tortise", "garlic", "donkey", "pluto"], "type": "FREE_RECALL", "conditions": [18, 1200, "a", 18000], "trial": 1, "trial_type": "free-recall", "trial_index": 75, "time_elapsed": 445315, "internal_node_id": "0.0-57.0-0.0"}}, {"uniqueid": "MTK0540:39ZSFO5CA93RYWYETDNU37N8F8AJUT", "current_trial": 76, "dateTime": 1511204215682, "trialdata": {"rt": 5698, "key_press": 39, "type": "INSTRUCTIONS", "trial_type": "text", "trial_index": 76, "time_elapsed": 453015, "internal_node_id": "0.0-58.0"}}, {"uniqueid": "MTK0540:39ZSFO5CA93RYWYETDNU37N8F8AJUT", "current_trial": 77, "dateTime": 1511204228683, "trialdata": {"rt": [3165, 5628, 7789, 9317, 11061], "responses": ["14", "18", "19", "7", "15"], "num1": [7, 5, 4, 3, 6, 3], "num2": [3, 7, 6, 1, 6, 9], "num3": [4, 6, 9, 3, 3, 9], "type": "DISTRACTOR", "conditions": [12, 1600, "a", 12000], "trial": 2, "trial_type": "math-distractor", "trial_index": 77, "time_elapsed": 466018, "internal_node_id": "0.0-59.0"}}, {"uniqueid": "MTK0540:39ZSFO5CA93RYWYETDNU37N8F8AJUT", "current_trial": 78, "dateTime": 1511204231685, "trialdata": {"rt": -1, "stimulus": "<p id=\"stim\">10</p>", "key_press": -1, "trial_type": "single-stim", "trial_index": 78, "time_elapsed": 469020, "internal_node_id": "0.0-60.0-0.0"}}, {"uniqueid": "MTK0540:39ZSFO5CA93RYWYETDNU37N8F8AJUT", "current_trial": 79, "dateTime": 1511204232686, "trialdata": {"rt": -1, "stimulus": "<p id=\"stim\">9</p>", "key_press": -1, "trial_type": "single-stim", "trial_index": 79, "time_elapsed": 470021, "internal_node_id": "0.0-60.0-1.0"}}, {"uniqueid": "MTK0540:39ZSFO5CA93RYWYETDNU37N8F8AJUT", "current_trial": 80, "dateTime": 1511204233687, "trialdata": {"rt": -1, "stimulus": "<p id=\"stim\">8</p>", "key_press": -1, "trial_type": "single-stim", "trial_index": 80, "time_elapsed": 471022, "internal_node_id": "0.0-60.0-2.0"}}, {"uniqueid": "MTK0540:39ZSFO5CA93RYWYETDNU37N8F8AJUT", "current_trial": 81, "dateTime": 1511204234687, "trialdata": {"rt": -1, "stimulus": "<p id=\"stim\">7</p>", "key_press": -1, "trial_type": "single-stim", "trial_index": 81, "time_elapsed": 472022, "internal_node_id": "0.0-60.0-3.0"}}, {"uniqueid": "MTK0540:39ZSFO5CA93RYWYETDNU37N8F8AJUT", "current_trial": 82, "dateTime": 1511204235688, "trialdata": {"rt": -1, "stimulus": "<p id=\"stim\">6</p>", "key_press": -1, "trial_type": "single-stim", "trial_index": 82, "time_elapsed": 473023, "internal_node_id": "0.0-60.0-4.0"}}, {"uniqueid": "MTK0540:39ZSFO5CA93RYWYETDNU37N8F8AJUT", "current_trial": 83, "dateTime": 1511204236689, "trialdata": {"rt": -1, "stimulus": "<p id=\"stim\">5</p>", "key_press": -1, "trial_type": "single-stim", "trial_index": 83, "time_elapsed": 474024, "internal_node_id": "0.0-60.0-5.0"}}, {"uniqueid": "MTK0540:39ZSFO5CA93RYWYETDNU37N8F8AJUT", "current_trial": 84, "dateTime": 1511204237689, "trialdata": {"rt": -1, "stimulus": "<p id=\"stim\">4</p>", "key_press": -1, "trial_type": "single-stim", "trial_index": 84, "time_elapsed": 475024, "internal_node_id": "0.0-60.0-6.0"}}, {"uniqueid": "MTK0540:39ZSFO5CA93RYWYETDNU37N8F8AJUT", "current_trial": 85, "dateTime": 1511204238690, "trialdata": {"rt": -1, "stimulus": "<p id=\"stim\">3</p>", "key_press": -1, "trial_type": "single-stim", "trial_index": 85, "time_elapsed": 476025, "internal_node_id": "0.0-60.0-7.0"}}, {"uniqueid": "MTK0540:39ZSFO5CA93RYWYETDNU37N8F8AJUT", "current_trial": 86, "dateTime": 1511204239691, "trialdata": {"rt": -1, "stimulus": "<p id=\"stim\">2</p>", "key_press": -1, "trial_type": "single-stim", "trial_index": 86, "time_elapsed": 477026, "internal_node_id": "0.0-60.0-8.0"}}, {"uniqueid": "MTK0540:39ZSFO5CA93RYWYETDNU37N8F8AJUT", "current_trial": 87, "dateTime": 1511204240692, "trialdata": {"rt": -1, "stimulus": "<p id=\"stim\">1</p>", "key_press": -1, "trial_type": "single-stim", "trial_index": 87, "time_elapsed": 478027, "internal_node_id": "0.0-60.0-9.0"}}, {"uniqueid": "MTK0540:39ZSFO5CA93RYWYETDNU37N8F8AJUT", "current_trial": 88, "dateTime": 1511204242193, "trialdata": {"rt": -1, "stimulus": "<p id=\"stim\">+</p>", "key_press": -1, "type": "FIXATION", "trial_type": "single-stim", "trial_index": 88, "time_elapsed": 479528, "internal_node_id": "0.0-61.0-0.0"}}, {"uniqueid": "MTK0540:39ZSFO5CA93RYWYETDNU37N8F8AJUT", "current_trial": 89, "dateTime": 1511204244697, "trialdata": {"rt": -1000, "stimulus": "/static/audio/wordpool/PATIENT.wav", "key_press": -1, "type": "PRES_AUD", "word": "patient", "wordID": 1023, "conditions": [12, 1600, "a", 12000], "trial": 2, "serialpos": 0, "trial_type": "single-audio", "trial_index": 89, "time_elapsed": 482032, "internal_node_id": "0.0-62.0"}}, {"uniqueid": "MTK0540:39ZSFO5CA93RYWYETDNU37N8F8AJUT", "current_trial": 90, "dateTime": 1511204247279, "trialdata": {"rt": -1000, "stimulus": "/static/audio/wordpool/FLOWER.wav", "key_press": -1, "type": "PRES_AUD", "word": "flower", "wordID": 583, "conditions": [12, 1600, "a", 12000], "trial": 2, "serialpos": 1, "trial_type": "single-audio", "trial_index": 90, "time_elapsed": 484614, "internal_node_id": "0.0-63.0"}}, {"uniqueid": "MTK0540:39ZSFO5CA93RYWYETDNU37N8F8AJUT", "current_trial": 91, "dateTime": 1511204249906, "trialdata": {"rt": -1000, "stimulus": "/static/audio/wordpool/FRUIT.wav", "key_press": -1, "type": "PRES_AUD", "word": "fruit", "wordID": 609, "conditions": [12, 1600, "a", 12000], "trial": 2, "serialpos": 2, "trial_type": "single-audio", "trial_index": 91, "time_elapsed": 487241, "internal_node_id": "0.0-64.0"}}, {"uniqueid": "MTK0540:39ZSFO5CA93RYWYETDNU37N8F8AJUT", "current_trial": 92, "dateTime": 1511204252560, "trialdata": {"rt": -1000, "stimulus": "/static/audio/wordpool/SCARECROW.wav", "key_press": -1, "type": "PRES_AUD", "word": "scarecrow", "wordID": 1244, "conditions": [12, 1600, "a", 12000], "trial": 2, "serialpos": 3, "trial_type": "single-audio", "trial_index": 92, "time_elapsed": 489895, "internal_node_id": "0.0-65.0"}}, {"uniqueid": "MTK0540:39ZSFO5CA93RYWYETDNU37N8F8AJUT", "current_trial": 93, "dateTime": 1511204255210, "trialdata": {"rt": -1000, "stimulus": "/static/audio/wordpool/PLAZA.wav", "key_press": -1, "type": "PRES_AUD", "word": "plaza", "wordID": 1087, "conditions": [12, 1600, "a", 12000], "trial": 2, "serialpos": 4, "trial_type": "single-audio", "trial_index": 93, "time_elapsed": 492545, "internal_node_id": "0.0-66.0"}}, {"uniqueid": "MTK0540:39ZSFO5CA93RYWYETDNU37N8F8AJUT", "current_trial": 94, "dateTime": 1511204257657, "trialdata": {"rt": -1000, "stimulus": "/static/audio/wordpool/ACTRESS.wav", "key_press": -1, "type": "PRES_AUD", "word": "actress", "wordID": 5, "conditions": [12, 1600, "a", 12000], "trial": 2, "serialpos": 5, "trial_type": "single-audio", "trial_index": 94, "time_elapsed": 494992, "internal_node_id": "0.0-67.0"}}, {"uniqueid": "MTK0540:39ZSFO5CA93RYWYETDNU37N8F8AJUT", "current_trial": 95, "dateTime": 1511204260109, "trialdata": {"rt": -1000, "stimulus": "/static/audio/wordpool/MAILMAN.wav", "key_press": -1, "type": "PRES_AUD", "word": "mailman", "wordID": 857, "conditions": [12, 1600, "a", 12000], "trial": 2, "serialpos": 6, "trial_type": "single-audio", "trial_index": 95, "time_elapsed": 497444, "internal_node_id": "0.0-68.0"}}, {"uniqueid": "MTK0540:39ZSFO5CA93RYWYETDNU37N8F8AJUT", "current_trial": 96, "dateTime": 1511204262754, "trialdata": {"rt": -1000, "stimulus": "/static/audio/wordpool/VIKING.wav", "key_press": -1, "type": "PRES_AUD", "word": "viking", "wordID": 1564, "conditions": [12, 1600, "a", 12000], "trial": 2, "serialpos": 7, "trial_type": "single-audio", "trial_index": 96, "time_elapsed": 500089, "internal_node_id": "0.0-69.0"}}, {"uniqueid": "MTK0540:39ZSFO5CA93RYWYETDNU37N8F8AJUT", "current_trial": 97, "dateTime": 1511204265433, "trialdata": {"rt": -1000, "stimulus": "/static/audio/wordpool/MONSTER.wav", "key_press": -1, "type": "PRES_AUD", "word": "monster", "wordID": 911, "conditions": [12, 1600, "a", 12000], "trial": 2, "serialpos": 8, "trial_type": "single-audio", "trial_index": 97, "time_elapsed": 502768, "internal_node_id": "0.0-70.0"}}, {"uniqueid": "MTK0540:39ZSFO5CA93RYWYETDNU37N8F8AJUT", "current_trial": 98, "dateTime": 1511204267855, "trialdata": {"rt": -1000, "stimulus": "/static/audio/wordpool/PADDLE.wav", "key_press": -1, "type": "PRES_AUD", "word": "paddle", "wordID": 999, "conditions": [12, 1600, "a", 12000], "trial": 2, "serialpos": 9, "trial_type": "single-audio", "trial_index": 98, "time_elapsed": 505190, "internal_node_id": "0.0-71.0"}}, {"uniqueid": "MTK0540:39ZSFO5CA93RYWYETDNU37N8F8AJUT", "current_trial": 99, "dateTime": 1511204270632, "trialdata": {"rt": -1000, "stimulus": "/static/audio/wordpool/CHEST.wav", "key_press": -1, "type": "PRES_AUD", "word": "chest", "wordID": 294, "conditions": [12, 1600, "a", 12000], "trial": 2, "serialpos": 10, "trial_type": "single-audio", "trial_index": 99, "time_elapsed": 507967, "internal_node_id": "0.0-72.0"}}, {"uniqueid": "MTK0540:39ZSFO5CA93RYWYETDNU37N8F8AJUT", "current_trial": 100, "dateTime": 1511204273268, "trialdata": {"rt": -1000, "stimulus": "/static/audio/wordpool/SIDEWALK.wav", "key_press": -1, "type": "PRES_AUD", "word": "sidewalk", "wordID": 1302, "conditions": [12, 1600, "a", 12000], "trial": 2, "serialpos": 11, "trial_type": "single-audio", "trial_index": 100, "time_elapsed": 510603, "internal_node_id": "0.0-73.0"}}, {"uniqueid": "MTK0540:39ZSFO5CA93RYWYETDNU37N8F8AJUT", "current_trial": 101, "dateTime": 1511204274643, "trialdata": {"rt": -1, "stimulus": "", "key_press": -1, "type": "PRE_RECALL_DELAY", "trial_type": "single-stim", "trial_index": 101, "time_elapsed": 511978, "internal_node_id": "0.0-74.0-0.0"}}, {"uniqueid": "MTK0540:39ZSFO5CA93RYWYETDNU37N8F8AJUT", "current_trial": 102, "dateTime": 1511204275144, "trialdata": {"rt": -1000, "stimulus": "/static/audio/400Hz.wav", "key_press": -1, "type": "PRE_RECALL_ALERT", "trial_type": "single-audio", "trial_index": 102, "time_elapsed": 512479, "internal_node_id": "0.0-75.0"}}, {"uniqueid": "MTK0540:39ZSFO5CA93RYWYETDNU37N8F8AJUT", "current_trial": 103, "dateTime": 1511204335146, "trialdata": {"rt": [2239, 4767, 6679, 8615, 11047, 13015, 14735, 19183, 25087], "recwords": ["chest", "sidewalk", "monster", "patient", "flower", "mailman", "actress", "sidewalk", "chest"], "type": "FREE_RECALL", "conditions": [12, 1600, "a", 12000], "trial": 2, "trial_type": "free-recall", "trial_index": 103, "time_elapsed": 572480, "internal_node_id": "0.0-76.0-0.0"}}, {"uniqueid": "MTK0540:39ZSFO5CA93RYWYETDNU37N8F8AJUT", "current_trial": 104, "dateTime": 1511204339576, "trialdata": {"rt": 2429, "key_press": 39, "type": "INSTRUCTIONS", "trial_type": "text", "trial_index": 104, "time_elapsed": 576911, "internal_node_id": "0.0-77.0"}}, {"uniqueid": "MTK0540:39ZSFO5CA93RYWYETDNU37N8F8AJUT", "current_trial": 105, "dateTime": 1511204365578, "trialdata": {"rt": [2320, 5720, 7384, 10224, 12040, 14992, 17159, 20135, 22904], "responses": ["17", "13", "21", "14", "14", "17", "14", "19", "16"], "num1": [8, 8, 9, 8, 5, 7, 9, 8, 7, 9], "num2": [2, 1, 9, 1, 4, 4, 4, 7, 4, 3], "num3": [7, 4, 3, 5, 5, 6, 1, 4, 5, 4], "type": "DISTRACTOR", "conditions": [24, 1600, "v", 24000], "trial": 3, "trial_type": "math-distractor", "trial_index": 105, "time_elapsed": 602913, "internal_node_id": "0.0-78.0"}}, {"uniqueid": "MTK0540:39ZSFO5CA93RYWYETDNU37N8F8AJUT", "current_trial": 106, "dateTime": 1511204368580, "trialdata": {"rt": -1, "stimulus": "<p id=\"stim\">10</p>", "key_press": -1, "trial_type": "single-stim", "trial_index": 106, "time_elapsed": 605915, "internal_node_id": "0.0-79.0-0.0"}}, {"uniqueid": "MTK0540:39ZSFO5CA93RYWYETDNU37N8F8AJUT", "current_trial": 107, "dateTime": 1511204369580, "trialdata": {"rt": -1, "stimulus": "<p id=\"stim\">9</p>", "key_press": -1, "trial_type": "single-stim", "trial_index": 107, "time_elapsed": 606915, "internal_node_id": "0.0-79.0-1.0"}}, {"uniqueid": "MTK0540:39ZSFO5CA93RYWYETDNU37N8F8AJUT", "current_trial": 108, "dateTime": 1511204370581, "trialdata": {"rt": -1, "stimulus": "<p id=\"stim\">8</p>", "key_press": -1, "trial_type": "single-stim", "trial_index": 108, "time_elapsed": 607916, "internal_node_id": "0.0-79.0-2.0"}}, {"uniqueid": "MTK0540:39ZSFO5CA93RYWYETDNU37N8F8AJUT", "current_trial": 109, "dateTime": 1511204371582, "trialdata": {"rt": -1, "stimulus": "<p id=\"stim\">7</p>", "key_press": -1, "trial_type": "single-stim", "trial_index": 109, "time_elapsed": 608917, "internal_node_id": "0.0-79.0-3.0"}}, {"uniqueid": "MTK0540:39ZSFO5CA93RYWYETDNU37N8F8AJUT", "current_trial": 110, "dateTime": 1511204372582, "trialdata": {"rt": -1, "stimulus": "<p id=\"stim\">6</p>", "key_press": -1, "trial_type": "single-stim", "trial_index": 110, "time_elapsed": 609917, "internal_node_id": "0.0-79.0-4.0"}}, {"uniqueid": "MTK0540:39ZSFO5CA93RYWYETDNU37N8F8AJUT", "current_trial": 111, "dateTime": 1511204373583, "trialdata": {"rt": -1, "stimulus": "<p id=\"stim\">5</p>", "key_press": -1, "trial_type": "single-stim", "trial_index": 111, "time_elapsed": 610918, "internal_node_id": "0.0-79.0-5.0"}}, {"uniqueid": "MTK0540:39ZSFO5CA93RYWYETDNU37N8F8AJUT", "current_trial": 112, "dateTime": 1511204374584, "trialdata": {"rt": -1, "stimulus": "<p id=\"stim\">4</p>", "key_press": -1, "trial_type": "single-stim", "trial_index": 112, "time_elapsed": 611919, "internal_node_id": "0.0-79.0-6.0"}}, {"uniqueid": "MTK0540:39ZSFO5CA93RYWYETDNU37N8F8AJUT", "current_trial": 113, "dateTime": 1511204375584, "trialdata": {"rt": -1, "stimulus": "<p id=\"stim\">3</p>", "key_press": -1, "trial_type": "single-stim", "trial_index": 113, "time_elapsed": 612919, "internal_node_id": "0.0-79.0-7.0"}}, {"uniqueid": "MTK0540:39ZSFO5CA93RYWYETDNU37N8F8AJUT", "current_trial": 114, "dateTime": 1511204376585, "trialdata": {"rt": -1, "stimulus": "<p id=\"stim\">2</p>", "key_press": -1, "trial_type": "single-stim", "trial_index": 114, "time_elapsed": 613920, "internal_node_id": "0.0-79.0-8.0"}}, {"uniqueid": "MTK0540:39ZSFO5CA93RYWYETDNU37N8F8AJUT", "current_trial": 115, "dateTime": 1511204377586, "trialdata": {"rt": -1, "stimulus": "<p id=\"stim\">1</p>", "key_press": -1, "trial_type": "single-stim", "trial_index": 115, "time_elapsed": 614921, "internal_node_id": "0.0-79.0-9.0"}}, {"uniqueid": "MTK0540:39ZSFO5CA93RYWYETDNU37N8F8AJUT", "current_trial": 116, "dateTime": 1511204379087, "trialdata": {"rt": -1, "stimulus": "<p id=\"stim\">+</p>", "key_press": -1, "type": "FIXATION", "trial_type": "single-stim", "trial_index": 116, "time_elapsed": 616422, "internal_node_id": "0.0-80.0-0.0"}}, {"uniqueid": "MTK0540:39ZSFO5CA93RYWYETDNU37N8F8AJUT", "current_trial": 117, "dateTime": 1511204380688, "trialdata": {"rt": -1, "stimulus": "<p id=\"stim\">UMPIRE</p>", "key_press": -1, "type": "PRES_VIS", "word": "umpire", "wordID": 1534, "conditions": [24, 1600, "v", 24000], "trial": 3, "serialpos": 0, "trial_type": "single-stim", "trial_index": 117, "time_elapsed": 618023, "internal_node_id": "0.0-81.0"}}, {"uniqueid": "MTK0540:39ZSFO5CA93RYWYETDNU37N8F8AJUT", "current_trial": 118, "dateTime": 1511204383354, "trialdata": {"rt": -1, "stimulus": "<p id=\"stim\">TWEEZERS</p>", "key_press": -1, "type": "PRES_VIS", "word": "tweezers", "wordID": 1525, "conditions": [24, 1600, "v", 24000], "trial": 3, "serialpos": 1, "trial_type": "single-stim", "trial_index": 118, "time_elapsed": 620689, "internal_node_id": "0.0-82.0"}}, {"uniqueid": "MTK0540:39ZSFO5CA93RYWYETDNU37N8F8AJUT", "current_trial": 119, "dateTime": 1511204385774, "trialdata": {"rt": -1, "stimulus": "<p id=\"stim\">STUDENT</p>", "key_press": -1, "type": "PRES_VIS", "word": "student", "wordID": 1394, "conditions": [24, 1600, "v", 24000], "trial": 3, "serialpos": 2, "trial_type": "single-stim", "trial_index": 119, "time_elapsed": 623109, "internal_node_id": "0.0-83.0"}}, {"uniqueid": "MTK0540:39ZSFO5CA93RYWYETDNU37N8F8AJUT", "current_trial": 120, "dateTime": 1511204388531, "trialdata": {"rt": -1, "stimulus": "<p id=\"stim\">PIZZA</p>", "key_press": -1, "type": "PRES_VIS", "word": "pizza", "wordID": 1078, "conditions": [24, 1600, "v", 24000], "trial": 3, "serialpos": 3, "trial_type": "single-stim", "trial_index": 120, "time_elapsed": 625866, "internal_node_id": "0.0-84.0"}}, {"uniqueid": "MTK0540:39ZSFO5CA93RYWYETDNU37N8F8AJUT", "current_trial": 121, "dateTime": 1511204391130, "trialdata": {"rt": -1, "stimulus": "<p id=\"stim\">PIGEON</p>", "key_press": -1, "type": "PRES_VIS", "word": "pigeon", "wordID": 1064, "conditions": [24, 1600, "v", 24000], "trial": 3, "serialpos": 4, "trial_type": "single-stim", "trial_index": 121, "time_elapsed": 628465, "internal_node_id": "0.0-85.0"}}, {"uniqueid": "MTK0540:39ZSFO5CA93RYWYETDNU37N8F8AJUT", "current_trial": 122, "dateTime": 1511204393700, "trialdata": {"rt": -1, "stimulus": "<p id=\"stim\">RADISH</p>", "key_press": -1, "type": "PRES_VIS", "word": "radish", "wordID": 1157, "conditions": [24, 1600, "v", 24000], "trial": 3, "serialpos": 5, "trial_type": "single-stim", "trial_index": 122, "time_elapsed": 631035, "internal_node_id": "0.0-86.0"}}, {"uniqueid": "MTK0540:39ZSFO5CA93RYWYETDNU37N8F8AJUT", "current_trial": 123, "dateTime": 1511204396132, "trialdata": {"rt": -1, "stimulus": "<p id=\"stim\">TRANSPLANT</p>", "key_press": -1, "type": "PRES_VIS", "word": "transplant", "wordID": 1495, "conditions": [24, 1600, "v", 24000], "trial": 3, "serialpos": 6, "trial_type": "single-stim", "trial_index": 123, "time_elapsed": 633467, "internal_node_id": "0.0-87.0"}}, {"uniqueid": "MTK0540:39ZSFO5CA93RYWYETDNU37N8F8AJUT", "current_trial": 124, "dateTime": 1511204398624, "trialdata": {"rt": -1, "stimulus": "<p id=\"stim\">CHURCH</p>", "key_press": -1, "type": "PRES_VIS", "word": "church", "wordID": 306, "conditions": [24, 1600, "v", 24000], "trial": 3, "serialpos": 7, "trial_type": "single-stim", "trial_index": 124, "time_elapsed": 635959, "internal_node_id": "0.0-88.0"}}, {"uniqueid": "MTK0540:39ZSFO5CA93RYWYETDNU37N8F8AJUT", "current_trial": 125, "dateTime": 1511204401309, "trialdata": {"rt": -1, "stimulus": "<p id=\"stim\">DRESSER</p>", "key_press": -1, "type": "PRES_VIS", "word": "dresser", "wordID": 495, "conditions": [24, 1600, "v", 24000], "trial": 3, "serialpos": 8, "trial_type": "single-stim", "trial_index": 125, "time_elapsed": 638644, "internal_node_id": "0.0-89.0"}}, {"uniqueid": "MTK0540:39ZSFO5CA93RYWYETDNU37N8F8AJUT", "current_trial": 126, "dateTime": 1511204404047, "trialdata": {"rt": -1, "stimulus": "<p id=\"stim\">CUPBOARD</p>", "key_press": -1, "type": "PRES_VIS", "word": "cupboard", "wordID": 424, "conditions": [24, 1600, "v", 24000], "trial": 3, "serialpos": 9, "trial_type": "single-stim", "trial_index": 126, "time_elapsed": 641382, "internal_node_id": "0.0-90.0"}}, {"uniqueid": "MTK0540:39ZSFO5CA93RYWYETDNU37N8F8AJUT", "current_trial": 127, "dateTime": 1511204406528, "trialdata": {"rt": -1, "stimulus": "<p id=\"stim\">WASP</p>", "key_press": -1, "type": "PRES_VIS", "word": "wasp", "wordID": 1592, "conditions": [24, 1600, "v", 24000], "trial": 3, "serialpos": 10, "trial_type": "single-stim", "trial_index": 127, "time_elapsed": 643863, "internal_node_id": "0.0-91.0"}}, {"uniqueid": "MTK0540:39ZSFO5CA93RYWYETDNU37N8F8AJUT", "current_trial": 128, "dateTime": 1511204409185, "trialdata": {"rt": -1, "stimulus": "<p id=\"stim\">PLIERS</p>", "key_press": -1, "type": "PRES_VIS", "word": "pliers", "wordID": 1088, "conditions": [24, 1600, "v", 24000], "trial": 3, "serialpos": 11, "trial_type": "single-stim", "trial_index": 128, "time_elapsed": 646520, "internal_node_id": "0.0-92.0"}}, {"uniqueid": "MTK0540:39ZSFO5CA93RYWYETDNU37N8F8AJUT", "current_trial": 129, "dateTime": 1511204411937, "trialdata": {"rt": -1, "stimulus": "<p id=\"stim\">TOASTER</p>", "key_press": -1, "type": "PRES_VIS", "word": "toaster", "wordID": 1471, "conditions": [24, 1600, "v", 24000], "trial": 3, "serialpos": 12, "trial_type": "single-stim", "trial_index": 129, "time_elapsed": 649272, "internal_node_id": "0.0-93.0"}}, {"uniqueid": "MTK0540:39ZSFO5CA93RYWYETDNU37N8F8AJUT", "current_trial": 130, "dateTime": 1511204414436, "trialdata": {"rt": -1, "stimulus": "<p id=\"stim\">FILM</p>", "key_press": -1, "type": "PRES_VIS", "word": "film", "wordID": 564, "conditions": [24, 1600, "v", 24000], "trial": 3, "serialpos": 13, "trial_type": "single-stim", "trial_index": 130, "time_elapsed": 651771, "internal_node_id": "0.0-94.0"}}, {"uniqueid": "MTK0540:39ZSFO5CA93RYWYETDNU37N8F8AJUT", "current_trial": 131, "dateTime": 1511204417014, "trialdata": {"rt": -1, "stimulus": "<p id=\"stim\">LETTUCE</p>", "key_press": -1, "type": "PRES_VIS", "word": "lettuce", "wordID": 813, "conditions": [24, 1600, "v", 24000], "trial": 3, "serialpos": 14, "trial_type": "single-stim", "trial_index": 131, "time_elapsed": 654349, "internal_node_id": "0.0-95.0"}}, {"uniqueid": "MTK0540:39ZSFO5CA93RYWYETDNU37N8F8AJUT", "current_trial": 132, "dateTime": 1511204419757, "trialdata": {"rt": -1, "stimulus": "<p id=\"stim\">SERVANT</p>", "key_press": -1, "type": "PRES_VIS", "word": "servant", "wordID": 1270, "conditions": [24, 1600, "v", 24000], "trial": 3, "serialpos": 15, "trial_type": "single-stim", "trial_index": 132, "time_elapsed": 657092, "internal_node_id": "0.0-96.0"}}, {"uniqueid": "MTK0540:39ZSFO5CA93RYWYETDNU37N8F8AJUT", "current_trial": 133, "dateTime": 1511204422303, "trialdata": {"rt": -1, "stimulus": "<p id=\"stim\">WORKER</p>", "key_press": -1, "type": "PRES_VIS", "word": "worker", "wordID": 1620, "conditions": [24, 1600, "v", 24000], "trial": 3, "serialpos": 16, "trial_type": "single-stim", "trial_index": 133, "time_elapsed": 659638, "internal_node_id": "0.0-97.0"}}, {"uniqueid": "MTK0540:39ZSFO5CA93RYWYETDNU37N8F8AJUT", "current_trial": 134, "dateTime": 1511204424799, "trialdata": {"rt": -1, "stimulus": "<p id=\"stim\">ELBOW</p>", "key_press": -1, "type": "PRES_VIS", "word": "elbow", "wordID": 519, "conditions": [24, 1600, "v", 24000], "trial": 3, "serialpos": 17, "trial_type": "single-stim", "trial_index": 134, "time_elapsed": 662134, "internal_node_id": "0.0-98.0"}}, {"uniqueid": "MTK0540:39ZSFO5CA93RYWYETDNU37N8F8AJUT", "current_trial": 135, "dateTime": 1511204427503, "trialdata": {"rt": -1, "stimulus": "<p id=\"stim\">CREATURE</p>", "key_press": -1, "type": "PRES_VIS", "word": "creature", "wordID": 402, "conditions": [24, 1600, "v", 24000], "trial": 3, "serialpos": 18, "trial_type": "single-stim", "trial_index": 135, "time_elapsed": 664838, "internal_node_id": "0.0-99.0"}}, {"uniqueid": "MTK0540:39ZSFO5CA93RYWYETDNU37N8F8AJUT", "current_trial": 136, "dateTime": 1511204429914, "trialdata": {"rt": -1, "stimulus": "<p id=\"stim\">ROBBER</p>", "key_press": -1, "type": "PRES_VIS", "word": "robber", "wordID": 1196, "conditions": [24, 1600, "v", 24000], "trial": 3, "serialpos": 19, "trial_type": "single-stim", "trial_index": 136, "time_elapsed": 667249, "internal_node_id": "0.0-100.0"}}, {"uniqueid": "MTK0540:39ZSFO5CA93RYWYETDNU37N8F8AJUT", "current_trial": 137, "dateTime": 1511204432481, "trialdata": {"rt": -1, "stimulus": "<p id=\"stim\">COMPASS</p>", "key_press": -1, "type": "PRES_VIS", "word": "compass", "wordID": 357, "conditions": [24, 1600, "v", 24000], "trial": 3, "serialpos": 20, "trial_type": "single-stim", "trial_index": 137, "time_elapsed": 669816, "internal_node_id": "0.0-101.0"}}, {"uniqueid": "MTK0540:39ZSFO5CA93RYWYETDNU37N8F8AJUT", "current_trial": 138, "dateTime": 1511204435033, "trialdata": {"rt": -1, "stimulus": "<p id=\"stim\">SNACK</p>", "key_press": -1, "type": "PRES_VIS", "word": "snack", "wordID": 1330, "conditions": [24, 1600, "v", 24000], "trial": 3, "serialpos": 21, "trial_type": "single-stim", "trial_index": 138, "time_elapsed": 672368, "internal_node_id": "0.0-102.0"}}, {"uniqueid": "MTK0540:39ZSFO5CA93RYWYETDNU37N8F8AJUT", "current_trial": 139, "dateTime": 1511204437451, "trialdata": {"rt": -1, "stimulus": "<p id=\"stim\">SALAD</p>", "key_press": -1, "type": "PRES_VIS", "word": "salad", "wordID": 1223, "conditions": [24, 1600, "v", 24000], "trial": 3, "serialpos": 22, "trial_type": "single-stim", "trial_index": 139, "time_elapsed": 674786, "internal_node_id": "0.0-103.0"}}, {"uniqueid": "MTK0540:39ZSFO5CA93RYWYETDNU37N8F8AJUT", "current_trial": 140, "dateTime": 1511204440171, "trialdata": {"rt": -1, "stimulus": "<p id=\"stim\">CABBAGE</p>", "key_press": -1, "type": "PRES_VIS", "word": "cabbage", "wordID": 209, "conditions": [24, 1600, "v", 24000], "trial": 3, "serialpos": 23, "trial_type": "single-stim", "trial_index": 140, "time_elapsed": 677506, "internal_node_id": "0.0-104.0"}}, {"uniqueid": "MTK0540:39ZSFO5CA93RYWYETDNU37N8F8AJUT", "current_trial": 141, "dateTime": 1511204442375, "trialdata": {"rt": -1, "stimulus": "", "key_press": -1, "type": "PRE_RECALL_DELAY", "trial_type": "single-stim", "trial_index": 141, "time_elapsed": 679710, "internal_node_id": "0.0-105.0-0.0"}}, {"uniqueid": "MTK0540:39ZSFO5CA93RYWYETDNU37N8F8AJUT", "current_trial": 142, "dateTime": 1511204442876, "trialdata": {"rt": -1000, "stimulus": "/static/audio/400Hz.wav", "key_press": -1, "type": "PRE_RECALL_ALERT", "trial_type": "single-audio", "trial_index": 142, "time_elapsed": 680211, "internal_node_id": "0.0-106.0"}}, {"uniqueid": "MTK0540:39ZSFO5CA93RYWYETDNU37N8F8AJUT", "current_trial": 143, "dateTime": 1511204502878, "trialdata": {"rt": [2418, 4747, 6987, 8691, 10251, 11595, 15099, 18315, 23179, 25083], "recwords": ["cabbage", "lettuce", "salad", "creature", "robber", "student", "tweezers", "pliers", "pizza", "church"], "type": "FREE_RECALL", "conditions": [24, 1600, "v", 24000], "trial": 3, "trial_type": "free-recall", "trial_index": 143, "time_elapsed": 740212, "internal_node_id": "0.0-107.0-0.0"}}, {"uniqueid": "MTK0540:39ZSFO5CA93RYWYETDNU37N8F8AJUT", "current_trial": 144, "dateTime": 1511204507232, "trialdata": {"rt": 2354, "key_press": 39, "type": "INSTRUCTIONS", "trial_type": "text", "trial_index": 144, "time_elapsed": 744567, "internal_node_id": "0.0-108.0"}}, {"uniqueid": "MTK0540:39ZSFO5CA93RYWYETDNU37N8F8AJUT", "current_trial": 145, "dateTime": 1511204521234, "trialdata": {"rt": [2302, 4542, 8127], "responses": ["15", "12", "24"], "num1": [1, 6, 6, 6], "num2": [7, 3, 8, 9], "num3": [7, 3, 8, 3], "type": "DISTRACTOR", "conditions": [24, 800, "v", 12000], "trial": 4, "trial_type": "math-distractor", "trial_index": 145, "time_elapsed": 758569, "internal_node_id": "0.0-109.0"}}, {"uniqueid": "MTK0540:39ZSFO5CA93RYWYETDNU37N8F8AJUT", "current_trial": 146, "dateTime": 1511204524236, "trialdata": {"rt": -1, "stimulus": "<p id=\"stim\">10</p>", "key_press": -1, "trial_type": "single-stim", "trial_index": 146, "time_elapsed": 761571, "internal_node_id": "0.0-110.0-0.0"}}, {"uniqueid": "MTK0540:39ZSFO5CA93RYWYETDNU37N8F8AJUT", "current_trial": 147, "dateTime": 1511204525237, "trialdata": {"rt": -1, "stimulus": "<p id=\"stim\">9</p>", "key_press": -1, "trial_type": "single-stim", "trial_index": 147, "time_elapsed": 762572, "internal_node_id": "0.0-110.0-1.0"}}, {"uniqueid": "MTK0540:39ZSFO5CA93RYWYETDNU37N8F8AJUT", "current_trial": 148, "dateTime": 1511204526237, "trialdata": {"rt": -1, "stimulus": "<p id=\"stim\">8</p>", "key_press": -1, "trial_type": "single-stim", "trial_index": 148, "time_elapsed": 763572, "internal_node_id": "0.0-110.0-2.0"}}, {"uniqueid": "MTK0540:39ZSFO5CA93RYWYETDNU37N8F8AJUT", "current_trial": 149, "dateTime": 1511204527238, "trialdata": {"rt": -1, "stimulus": "<p id=\"stim\">7</p>", "key_press": -1, "trial_type": "single-stim", "trial_index": 149, "time_elapsed": 764573, "internal_node_id": "0.0-110.0-3.0"}}, {"uniqueid": "MTK0540:39ZSFO5CA93RYWYETDNU37N8F8AJUT", "current_trial": 150, "dateTime": 1511204528239, "trialdata": {"rt": -1, "stimulus": "<p id=\"stim\">6</p>", "key_press": -1, "trial_type": "single-stim", "trial_index": 150, "time_elapsed": 765574, "internal_node_id": "0.0-110.0-4.0"}}, {"uniqueid": "MTK0540:39ZSFO5CA93RYWYETDNU37N8F8AJUT", "current_trial": 151, "dateTime": 1511204529240, "trialdata": {"rt": -1, "stimulus": "<p id=\"stim\">5</p>", "key_press": -1, "trial_type": "single-stim", "trial_index": 151, "time_elapsed": 766575, "internal_node_id": "0.0-110.0-5.0"}}, {"uniqueid": "MTK0540:39ZSFO5CA93RYWYETDNU37N8F8AJUT", "current_trial": 152, "dateTime": 1511204530240, "trialdata": {"rt": -1, "stimulus": "<p id=\"stim\">4</p>", "key_press": -1, "trial_type": "single-stim", "trial_index": 152, "time_elapsed": 767575, "internal_node_id": "0.0-110.0-6.0"}}, {"uniqueid": "MTK0540:39ZSFO5CA93RYWYETDNU37N8F8AJUT", "current_trial": 153, "dateTime": 1511204531241, "trialdata": {"rt": -1, "stimulus": "<p id=\"stim\">3</p>", "key_press": -1, "trial_type": "single-stim", "trial_index": 153, "time_elapsed": 768576, "internal_node_id": "0.0-110.0-7.0"}}, {"uniqueid": "MTK0540:39ZSFO5CA93RYWYETDNU37N8F8AJUT", "current_trial": 154, "dateTime": 1511204532242, "trialdata": {"rt": -1, "stimulus": "<p id=\"stim\">2</p>", "key_press": -1, "trial_type": "single-stim", "trial_index": 154, "time_elapsed": 769577, "internal_node_id": "0.0-110.0-8.0"}}, {"uniqueid": "MTK0540:39ZSFO5CA93RYWYETDNU37N8F8AJUT", "current_trial": 155, "dateTime": 1511204533242, "trialdata": {"rt": -1, "stimulus": "<p id=\"stim\">1</p>", "key_press": -1, "trial_type": "single-stim", "trial_index": 155, "time_elapsed": 770577, "internal_node_id": "0.0-110.0-9.0"}}, {"uniqueid": "MTK0540:39ZSFO5CA93RYWYETDNU37N8F8AJUT", "current_trial": 156, "dateTime": 1511204534743, "trialdata": {"rt": -1, "stimulus": "<p id=\"stim\">+</p>", "key_press": -1, "type": "FIXATION", "trial_type": "single-stim", "trial_index": 156, "time_elapsed": 772078, "internal_node_id": "0.0-111.0-0.0"}}, {"uniqueid": "MTK0540:39ZSFO5CA93RYWYETDNU37N8F8AJUT", "current_trial": 157, "dateTime": 1511204535544, "trialdata": {"rt": -1, "stimulus": "<p id=\"stim\">SPHINX</p>", "key_press": -1, "type": "PRES_VIS", "word": "sphinx", "wordID": 1348, "conditions": [24, 800, "v", 12000], "trial": 4, "serialpos": 0, "trial_type": "single-stim", "trial_index": 157, "time_elapsed": 772879, "internal_node_id": "0.0-112.0"}}, {"uniqueid": "MTK0540:39ZSFO5CA93RYWYETDNU37N8F8AJUT", "current_trial": 158, "dateTime": 1511204537271, "trialdata": {"rt": -1, "stimulus": "<p id=\"stim\">AGENT</p>", "key_press": -1, "type": "PRES_VIS", "word": "agent", "wordID": 9, "conditions": [24, 800, "v", 12000], "trial": 4, "serialpos": 1, "trial_type": "single-stim", "trial_index": 158, "time_elapsed": 774606, "internal_node_id": "0.0-113.0"}}, {"uniqueid": "MTK0540:39ZSFO5CA93RYWYETDNU37N8F8AJUT", "current_trial": 159, "dateTime": 1511204539264, "trialdata": {"rt": -1, "stimulus": "<p id=\"stim\">BLADE</p>", "key_press": -1, "type": "PRES_VIS", "word": "blade", "wordID": 133, "conditions": [24, 800, "v", 12000], "trial": 4, "serialpos": 2, "trial_type": "single-stim", "trial_index": 159, "time_elapsed": 776599, "internal_node_id": "0.0-114.0"}}, {"uniqueid": "MTK0540:39ZSFO5CA93RYWYETDNU37N8F8AJUT", "current_trial": 160, "dateTime": 1511204540940, "trialdata": {"rt": -1, "stimulus": "<p id=\"stim\">HONEY</p>", "key_press": -1, "type": "PRES_VIS", "word": "honey", "wordID": 712, "conditions": [24, 800, "v", 12000], "trial": 4, "serialpos": 3, "trial_type": "single-stim", "trial_index": 160, "time_elapsed": 778275, "internal_node_id": "0.0-115.0"}}, {"uniqueid": "MTK0540:39ZSFO5CA93RYWYETDNU37N8F8AJUT", "current_trial": 161, "dateTime": 1511204542720, "trialdata": {"rt": -1, "stimulus": "<p id=\"stim\">WARDROBE</p>", "key_press": -1, "type": "PRES_VIS", "word": "wardrobe", "wordID": 1586, "conditions": [24, 800, "v", 12000], "trial": 4, "serialpos": 4, "trial_type": "single-stim", "trial_index": 161, "time_elapsed": 780055, "internal_node_id": "0.0-116.0"}}, {"uniqueid": "MTK0540:39ZSFO5CA93RYWYETDNU37N8F8AJUT", "current_trial": 162, "dateTime": 1511204544692, "trialdata": {"rt": -1, "stimulus": "<p id=\"stim\">CUSTARD</p>", "key_press": -1, "type": "PRES_VIS", "word": "custard", "wordID": 428, "conditions": [24, 800, "v", 12000], "trial": 4, "serialpos": 5, "trial_type": "single-stim", "trial_index": 162, "time_elapsed": 782027, "internal_node_id": "0.0-117.0"}}, {"uniqueid": "MTK0540:39ZSFO5CA93RYWYETDNU37N8F8AJUT", "current_trial": 163, "dateTime": 1511204546602, "trialdata": {"rt": -1, "stimulus": "<p id=\"stim\">PUDDING</p>", "key_press": -1, "type": "PRES_VIS", "word": "pudding", "wordID": 1138, "conditions": [24, 800, "v", 12000], "trial": 4, "serialpos": 6, "trial_type": "single-stim", "trial_index": 163, "time_elapsed": 783937, "internal_node_id": "0.0-118.0"}}, {"uniqueid": "MTK0540:39ZSFO5CA93RYWYETDNU37N8F8AJUT", "current_trial": 164, "dateTime": 1511204548563, "trialdata": {"rt": -1, "stimulus": "<p id=\"stim\">COSTUME</p>", "key_press": -1, "type": "PRES_VIS", "word": "costume", "wordID": 382, "conditions": [24, 800, "v", 12000], "trial": 4, "serialpos": 7, "trial_type": "single-stim", "trial_index": 164, "time_elapsed": 785898, "internal_node_id": "0.0-119.0"}}, {"uniqueid": "MTK0540:39ZSFO5CA93RYWYETDNU37N8F8AJUT", "current_trial": 165, "dateTime": 1511204550228, "trialdata": {"rt": -1, "stimulus": "<p id=\"stim\">FRANCE</p>", "key_press": -1, "type": "PRES_VIS", "word": "france", "wordID": 600, "conditions": [24, 800, "v", 12000], "trial": 4, "serialpos": 8, "trial_type": "single-stim", "trial_index": 165, "time_elapsed": 787563, "internal_node_id": "0.0-120.0"}}, {"uniqueid": "MTK0540:39ZSFO5CA93RYWYETDNU37N8F8AJUT", "current_trial": 166, "dateTime": 1511204551903, "trialdata": {"rt": -1, "stimulus": "<p id=\"stim\">NOTEBOOK</p>", "key_press": -1, "type": "PRES_VIS", "word": "notebook", "wordID": 958, "conditions": [24, 800, "v", 12000], "trial": 4, "serialpos": 9, "trial_type": "single-stim", "trial_index": 166, "time_elapsed": 789238, "internal_node_id": "0.0-121.0"}}, {"uniqueid": "MTK0540:39ZSFO5CA93RYWYETDNU37N8F8AJUT", "current_trial": 167, "dateTime": 1511204553569, "trialdata": {"rt": -1, "stimulus": "<p id=\"stim\">HOSTESS</p>", "key_press": -1, "type": "PRES_VIS", "word": "hostess", "wordID": 722, "conditions": [24, 800, "v", 12000], "trial": 4, "serialpos": 10, "trial_type": "single-stim", "trial_index": 167, "time_elapsed": 790904, "internal_node_id": "0.0-122.0"}}, {"uniqueid": "MTK0540:39ZSFO5CA93RYWYETDNU37N8F8AJUT", "current_trial": 168, "dateTime": 1511204555339, "trialdata": {"rt": -1, "stimulus": "<p id=\"stim\">WOMAN</p>", "key_press": -1, "type": "PRES_VIS", "word": "woman", "wordID": 1619, "conditions": [24, 800, "v", 12000], "trial": 4, "serialpos": 11, "trial_type": "single-stim", "trial_index": 168, "time_elapsed": 792674, "internal_node_id": "0.0-123.0"}}, {"uniqueid": "MTK0540:39ZSFO5CA93RYWYETDNU37N8F8AJUT", "current_trial": 169, "dateTime": 1511204557176, "trialdata": {"rt": -1, "stimulus": "<p id=\"stim\">SNAKE</p>", "key_press": -1, "type": "PRES_VIS", "word": "snake", "wordID": 1332, "conditions": [24, 800, "v", 12000], "trial": 4, "serialpos": 12, "trial_type": "single-stim", "trial_index": 169, "time_elapsed": 794511, "internal_node_id": "0.0-124.0"}}, {"uniqueid": "MTK0540:39ZSFO5CA93RYWYETDNU37N8F8AJUT", "current_trial": 170, "dateTime": 1511204558984, "trialdata": {"rt": -1, "stimulus": "<p id=\"stim\">ROBIN</p>", "key_press": -1, "type": "PRES_VIS", "word": "robin", "wordID": 1198, "conditions": [24, 800, "v", 12000], "trial": 4, "serialpos": 13, "trial_type": "single-stim", "trial_index": 170, "time_elapsed": 796319, "internal_node_id": "0.0-125.0"}}, {"uniqueid": "MTK0540:39ZSFO5CA93RYWYETDNU37N8F8AJUT", "current_trial": 171, "dateTime": 1511204560769, "trialdata": {"rt": -1, "stimulus": "<p id=\"stim\">SLOPE</p>", "key_press": -1, "type": "PRES_VIS", "word": "slope", "wordID": 1327, "conditions": [24, 800, "v", 12000], "trial": 4, "serialpos": 14, "trial_type": "single-stim", "trial_index": 171, "time_elapsed": 798104, "internal_node_id": "0.0-126.0"}}, {"uniqueid": "MTK0540:39ZSFO5CA93RYWYETDNU37N8F8AJUT", "current_trial": 172, "dateTime": 1511204562545, "trialdata": {"rt": -1, "stimulus": "<p id=\"stim\">SPONGE</p>", "key_press": -1, "type": "PRES_VIS", "word": "sponge", "wordID": 1354, "conditions": [24, 800, "v", 12000], "trial": 4, "serialpos": 15, "trial_type": "single-stim", "trial_index": 172, "time_elapsed": 799880, "internal_node_id": "0.0-127.0"}}, {"uniqueid": "MTK0540:39ZSFO5CA93RYWYETDNU37N8F8AJUT", "current_trial": 173, "dateTime": 1511204564382, "trialdata": {"rt": -1, "stimulus": "<p id=\"stim\">DENIM</p>", "key_press": -1, "type": "PRES_VIS", "word": "denim", "wordID": 445, "conditions": [24, 800, "v", 12000], "trial": 4, "serialpos": 16, "trial_type": "single-stim", "trial_index": 173, "time_elapsed": 801717, "internal_node_id": "0.0-128.0"}}, {"uniqueid": "MTK0540:39ZSFO5CA93RYWYETDNU37N8F8AJUT", "current_trial": 174, "dateTime": 1511204566021, "trialdata": {"rt": -1, "stimulus": "<p id=\"stim\">WAGON</p>", "key_press": -1, "type": "PRES_VIS", "word": "wagon", "wordID": 1577, "conditions": [24, 800, "v", 12000], "trial": 4, "serialpos": 17, "trial_type": "single-stim", "trial_index": 174, "time_elapsed": 803356, "internal_node_id": "0.0-129.0"}}, {"uniqueid": "MTK0540:39ZSFO5CA93RYWYETDNU37N8F8AJUT", "current_trial": 175, "dateTime": 1511204567893, "trialdata": {"rt": -1, "stimulus": "<p id=\"stim\">TRACTOR</p>", "key_press": -1, "type": "PRES_VIS", "word": "tractor", "wordID": 1492, "conditions": [24, 800, "v", 12000], "trial": 4, "serialpos": 18, "trial_type": "single-stim", "trial_index": 175, "time_elapsed": 805228, "internal_node_id": "0.0-130.0"}}, {"uniqueid": "MTK0540:39ZSFO5CA93RYWYETDNU37N8F8AJUT", "current_trial": 176, "dateTime": 1511204569593, "trialdata": {"rt": -1, "stimulus": "<p id=\"stim\">CRATER</p>", "key_press": -1, "type": "PRES_VIS", "word": "crater", "wordID": 399, "conditions": [24, 800, "v", 12000], "trial": 4, "serialpos": 19, "trial_type": "single-stim", "trial_index": 176, "time_elapsed": 806928, "internal_node_id": "0.0-131.0"}}, {"uniqueid": "MTK0540:39ZSFO5CA93RYWYETDNU37N8F8AJUT", "current_trial": 177, "dateTime": 1511204571472, "trialdata": {"rt": -1, "stimulus": "<p id=\"stim\">DORM</p>", "key_press": -1, "type": "PRES_VIS", "word": "dorm", "wordID": 487, "conditions": [24, 800, "v", 12000], "trial": 4, "serialpos": 20, "trial_type": "single-stim", "trial_index": 177, "time_elapsed": 808807, "internal_node_id": "0.0-132.0"}}, {"uniqueid": "MTK0540:39ZSFO5CA93RYWYETDNU37N8F8AJUT", "current_trial": 178, "dateTime": 1511204573381, "trialdata": {"rt": -1, "stimulus": "<p id=\"stim\">LOVER</p>", "key_press": -1, "type": "PRES_VIS", "word": "lover", "wordID": 845, "conditions": [24, 800, "v", 12000], "trial": 4, "serialpos": 21, "trial_type": "single-stim", "trial_index": 178, "time_elapsed": 810716, "internal_node_id": "0.0-133.0"}}, {"uniqueid": "MTK0540:39ZSFO5CA93RYWYETDNU37N8F8AJUT", "current_trial": 179, "dateTime": 1511204575165, "trialdata": {"rt": -1, "stimulus": "<p id=\"stim\">CABIN</p>", "key_press": -1, "type": "PRES_VIS", "word": "cabin", "wordID": 210, "conditions": [24, 800, "v", 12000], "trial": 4, "serialpos": 22, "trial_type": "single-stim", "trial_index": 179, "time_elapsed": 812500, "internal_node_id": "0.0-134.0"}}, {"uniqueid": "MTK0540:39ZSFO5CA93RYWYETDNU37N8F8AJUT", "current_trial": 180, "dateTime": 1511204576898, "trialdata": {"rt": -1, "stimulus": "<p id=\"stim\">DRESS</p>", "key_press": -1, "type": "PRES_VIS", "word": "dress", "wordID": 494, "conditions": [24, 800, "v", 12000], "trial": 4, "serialpos": 23, "trial_type": "single-stim", "trial_index": 180, "time_elapsed": 814233, "internal_node_id": "0.0-135.0"}}, {"uniqueid": "MTK0540:39ZSFO5CA93RYWYETDNU37N8F8AJUT", "current_trial": 181, "dateTime": 1511204578946, "trialdata": {"rt": -1, "stimulus": "", "key_press": -1, "type": "PRE_RECALL_DELAY", "trial_type": "single-stim", "trial_index": 181, "time_elapsed": 816281, "internal_node_id": "0.0-136.0-0.0"}}, {"uniqueid": "MTK0540:39ZSFO5CA93RYWYETDNU37N8F8AJUT", "current_trial": 182, "dateTime": 1511204579447, "trialdata": {"rt": -1000, "stimulus": "/static/audio/400Hz.wav", "key_press": -1, "type": "PRE_RECALL_ALERT", "trial_type": "single-audio", "trial_index": 182, "time_elapsed": 816782, "internal_node_id": "0.0-137.0"}}, {"uniqueid": "MTK0540:39ZSFO5CA93RYWYETDNU37N8F8AJUT", "current_trial": 183, "dateTime": 1511204639448, "trialdata": {"rt": [1536, 3889, 6456, 10504, 12128, 14840, 18120], "recwords": ["dorm", "lover", "dress", "hostess", "blade", "honey", "cabin"], "type": "FREE_RECALL", "conditions": [24, 800, "v", 12000], "trial": 4, "trial_type": "free-recall", "trial_index": 183, "time_elapsed": 876782, "internal_node_id": "0.0-138.0-0.0"}}, {"uniqueid": "MTK0540:39ZSFO5CA93RYWYETDNU37N8F8AJUT", "current_trial": 184, "dateTime": 1511204643815, "trialdata": {"rt": 2366, "key_press": 40, "type": "INSTRUCTIONS", "trial_type": "text", "trial_index": 184, "time_elapsed": 881150, "internal_node_id": "0.0-139.0"}}, {"uniqueid": "MTK0540:39ZSFO5CA93RYWYETDNU37N8F8AJUT", "current_trial": 185, "dateTime": 1511204669817, "trialdata": {"rt": [2959, 4959, 6871, 8663, 10879, 13447, 15647, 18046, 22215], "responses": ["12", "13", "18", "6", "19", "8", "14", "13", "21"], "num1": [5, 9, 7, 1, 7, 1, 4, 3, 7, 5], "num2": [5, 2, 5, 3, 3, 4, 3, 1, 7, 8], "num3": [2, 2, 6, 2, 9, 3, 7, 9, 8, 5], "type": "DISTRACTOR", "conditions": [12, 1600, "v", 24000], "trial": 5, "trial_type": "math-distractor", "trial_index": 185, "time_elapsed": 907152, "internal_node_id": "0.0-140.0"}}, {"uniqueid": "MTK0540:39ZSFO5CA93RYWYETDNU37N8F8AJUT", "current_trial": 186, "dateTime": 1511204672819, "trialdata": {"rt": -1, "stimulus": "<p id=\"stim\">10</p>", "key_press": -1, "trial_type": "single-stim", "trial_index": 186, "time_elapsed": 910154, "internal_node_id": "0.0-141.0-0.0"}}, {"uniqueid": "MTK0540:39ZSFO5CA93RYWYETDNU37N8F8AJUT", "current_trial": 187, "dateTime": 1511204673820, "trialdata": {"rt": -1, "stimulus": "<p id=\"stim\">9</p>", "key_press": -1, "trial_type": "single-stim", "trial_index": 187, "time_elapsed": 911155, "internal_node_id": "0.0-141.0-1.0"}}, {"uniqueid": "MTK0540:39ZSFO5CA93RYWYETDNU37N8F8AJUT", "current_trial": 188, "dateTime": 1511204674821, "trialdata": {"rt": -1, "stimulus": "<p id=\"stim\">8</p>", "key_press": -1, "trial_type": "single-stim", "trial_index": 188, "time_elapsed": 912156, "internal_node_id": "0.0-141.0-2.0"}}, {"uniqueid": "MTK0540:39ZSFO5CA93RYWYETDNU37N8F8AJUT", "current_trial": 189, "dateTime": 1511204675821, "trialdata": {"rt": -1, "stimulus": "<p id=\"stim\">7</p>", "key_press": -1, "trial_type": "single-stim", "trial_index": 189, "time_elapsed": 913156, "internal_node_id": "0.0-141.0-3.0"}}, {"uniqueid": "MTK0540:39ZSFO5CA93RYWYETDNU37N8F8AJUT", "current_trial": 190, "dateTime": 1511204676822, "trialdata": {"rt": -1, "stimulus": "<p id=\"stim\">6</p>", "key_press": -1, "trial_type": "single-stim", "trial_index": 190, "time_elapsed": 914157, "internal_node_id": "0.0-141.0-4.0"}}, {"uniqueid": "MTK0540:39ZSFO5CA93RYWYETDNU37N8F8AJUT", "current_trial": 191, "dateTime": 1511204677823, "trialdata": {"rt": -1, "stimulus": "<p id=\"stim\">5</p>", "key_press": -1, "trial_type": "single-stim", "trial_index": 191, "time_elapsed": 915158, "internal_node_id": "0.0-141.0-5.0"}}, {"uniqueid": "MTK0540:39ZSFO5CA93RYWYETDNU37N8F8AJUT", "current_trial": 192, "dateTime": 1511204678824, "trialdata": {"rt": -1, "stimulus": "<p id=\"stim\">4</p>", "key_press": -1, "trial_type": "single-stim", "trial_index": 192, "time_elapsed": 916159, "internal_node_id": "0.0-141.0-6.0"}}, {"uniqueid": "MTK0540:39ZSFO5CA93RYWYETDNU37N8F8AJUT", "current_trial": 193, "dateTime": 1511204679825, "trialdata": {"rt": -1, "stimulus": "<p id=\"stim\">3</p>", "key_press": -1, "trial_type": "single-stim", "trial_index": 193, "time_elapsed": 917160, "internal_node_id": "0.0-141.0-7.0"}}, {"uniqueid": "MTK0540:39ZSFO5CA93RYWYETDNU37N8F8AJUT", "current_trial": 194, "dateTime": 1511204680826, "trialdata": {"rt": -1, "stimulus": "<p id=\"stim\">2</p>", "key_press": -1, "trial_type": "single-stim", "trial_index": 194, "time_elapsed": 918161, "internal_node_id": "0.0-141.0-8.0"}}, {"uniqueid": "MTK0540:39ZSFO5CA93RYWYETDNU37N8F8AJUT", "current_trial": 195, "dateTime": 1511204681827, "trialdata": {"rt": -1, "stimulus": "<p id=\"stim\">1</p>", "key_press": -1, "trial_type": "single-stim", "trial_index": 195, "time_elapsed": 919162, "internal_node_id": "0.0-141.0-9.0"}}, {"uniqueid": "MTK0540:39ZSFO5CA93RYWYETDNU37N8F8AJUT", "current_trial": 196, "dateTime": 1511204683328, "trialdata": {"rt": -1, "stimulus": "<p id=\"stim\">+</p>", "key_press": -1, "type": "FIXATION", "trial_type": "single-stim", "trial_index": 196, "time_elapsed": 920663, "internal_node_id": "0.0-142.0-0.0"}}, {"uniqueid": "MTK0540:39ZSFO5CA93RYWYETDNU37N8F8AJUT", "current_trial": 197, "dateTime": 1511204684929, "trialdata": {"rt": -1, "stimulus": "<p id=\"stim\">TWIG</p>", "key_press": -1, "type": "PRES_VIS", "word": "twig", "wordID": 1526, "conditions": [12, 1600, "v", 24000], "trial": 5, "serialpos": 0, "trial_type": "single-stim", "trial_index": 197, "time_elapsed": 922264, "internal_node_id": "0.0-143.0"}}, {"uniqueid": "MTK0540:39ZSFO5CA93RYWYETDNU37N8F8AJUT", "current_trial": 198, "dateTime": 1511204687655, "trialdata": {"rt": -1, "stimulus": "<p id=\"stim\">GYMNAST</p>", "key_press": -1, "type": "PRES_VIS", "word": "gymnast", "wordID": 674, "conditions": [12, 1600, "v", 24000], "trial": 5, "serialpos": 1, "trial_type": "single-stim", "trial_index": 198, "time_elapsed": 924990, "internal_node_id": "0.0-144.0"}}, {"uniqueid": "MTK0540:39ZSFO5CA93RYWYETDNU37N8F8AJUT", "current_trial": 199, "dateTime": 1511204690097, "trialdata": {"rt": -1, "stimulus": "<p id=\"stim\">TROUT</p>", "key_press": -1, "type": "PRES_VIS", "word": "trout", "wordID": 1510, "conditions": [12, 1600, "v", 24000], "trial": 5, "serialpos": 2, "trial_type": "single-stim", "trial_index": 199, "time_elapsed": 927432, "internal_node_id": "0.0-145.0"}}, {"uniqueid": "MTK0540:39ZSFO5CA93RYWYETDNU37N8F8AJUT", "current_trial": 200, "dateTime": 1511204692772, "trialdata": {"rt": -1, "stimulus": "<p id=\"stim\">SALMON</p>", "key_press": -1, "type": "PRES_VIS", "word": "salmon", "wordID": 1226, "conditions": [12, 1600, "v", 24000], "trial": 5, "serialpos": 3, "trial_type": "single-stim", "trial_index": 200, "time_elapsed": 930107, "internal_node_id": "0.0-146.0"}}, {"uniqueid": "MTK0540:39ZSFO5CA93RYWYETDNU37N8F8AJUT", "current_trial": 201, "dateTime": 1511204695304, "trialdata": {"rt": -1, "stimulus": "<p id=\"stim\">MAMMAL</p>", "key_press": -1, "type": "PRES_VIS", "word": "mammal", "wordID": 860, "conditions": [12, 1600, "v", 24000], "trial": 5, "serialpos": 4, "trial_type": "single-stim", "trial_index": 201, "time_elapsed": 932639, "internal_node_id": "0.0-147.0"}}, {"uniqueid": "MTK0540:39ZSFO5CA93RYWYETDNU37N8F8AJUT", "current_trial": 202, "dateTime": 1511204697819, "trialdata": {"rt": -1, "stimulus": "<p id=\"stim\">SUNRISE</p>", "key_press": -1, "type": "PRES_VIS", "word": "sunrise", "wordID": 1406, "conditions": [12, 1600, "v", 24000], "trial": 5, "serialpos": 5, "trial_type": "single-stim", "trial_index": 202, "time_elapsed": 935154, "internal_node_id": "0.0-148.0"}}, {"uniqueid": "MTK0540:39ZSFO5CA93RYWYETDNU37N8F8AJUT", "current_trial": 203, "dateTime": 1511204700333, "trialdata": {"rt": -1, "stimulus": "<p id=\"stim\">FLAG</p>", "key_press": -1, "type": "PRES_VIS", "word": "flag", "wordID": 572, "conditions": [12, 1600, "v", 24000], "trial": 5, "serialpos": 6, "trial_type": "single-stim", "trial_index": 203, "time_elapsed": 937668, "internal_node_id": "0.0-149.0"}}, {"uniqueid": "MTK0540:39ZSFO5CA93RYWYETDNU37N8F8AJUT", "current_trial": 204, "dateTime": 1511204702879, "trialdata": {"rt": -1, "stimulus": "<p id=\"stim\">DOUGHNUT</p>", "key_press": -1, "type": "PRES_VIS", "word": "doughnut", "wordID": 489, "conditions": [12, 1600, "v", 24000], "trial": 5, "serialpos": 7, "trial_type": "single-stim", "trial_index": 204, "time_elapsed": 940214, "internal_node_id": "0.0-150.0"}}, {"uniqueid": "MTK0540:39ZSFO5CA93RYWYETDNU37N8F8AJUT", "current_trial": 205, "dateTime": 1511204705461, "trialdata": {"rt": -1, "stimulus": "<p id=\"stim\">DIME</p>", "key_press": -1, "type": "PRES_VIS", "word": "dime", "wordID": 465, "conditions": [12, 1600, "v", 24000], "trial": 5, "serialpos": 8, "trial_type": "single-stim", "trial_index": 205, "time_elapsed": 942796, "internal_node_id": "0.0-151.0"}}, {"uniqueid": "MTK0540:39ZSFO5CA93RYWYETDNU37N8F8AJUT", "current_trial": 206, "dateTime": 1511204708020, "trialdata": {"rt": -1, "stimulus": "<p id=\"stim\">TURTLE</p>", "key_press": -1, "type": "PRES_VIS", "word": "turtle", "wordID": 1521, "conditions": [12, 1600, "v", 24000], "trial": 5, "serialpos": 9, "trial_type": "single-stim", "trial_index": 206, "time_elapsed": 945355, "internal_node_id": "0.0-152.0"}}, {"uniqueid": "MTK0540:39ZSFO5CA93RYWYETDNU37N8F8AJUT", "current_trial": 207, "dateTime": 1511204710518, "trialdata": {"rt": -1, "stimulus": "<p id=\"stim\">PASTA</p>", "key_press": -1, "type": "PRES_VIS", "word": "pasta", "wordID": 1020, "conditions": [12, 1600, "v", 24000], "trial": 5, "serialpos": 10, "trial_type": "single-stim", "trial_index": 207, "time_elapsed": 947853, "internal_node_id": "0.0-153.0"}}, {"uniqueid": "MTK0540:39ZSFO5CA93RYWYETDNU37N8F8AJUT", "current_trial": 208, "dateTime": 1511204713187, "trialdata": {"rt": -1, "stimulus": "<p id=\"stim\">CANYON</p>", "key_press": -1, "type": "PRES_VIS", "word": "canyon", "wordID": 234, "conditions": [12, 1600, "v", 24000], "trial": 5, "serialpos": 11, "trial_type": "single-stim", "trial_index": 208, "time_elapsed": 950522, "internal_node_id": "0.0-154.0"}}, {"uniqueid": "MTK0540:39ZSFO5CA93RYWYETDNU37N8F8AJUT", "current_trial": 209, "dateTime": 1511204715636, "trialdata": {"rt": -1, "stimulus": "", "key_press": -1, "type": "PRE_RECALL_DELAY", "trial_type": "single-stim", "trial_index": 209, "time_elapsed": 952971, "internal_node_id": "0.0-155.0-0.0"}}, {"uniqueid": "MTK0540:39ZSFO5CA93RYWYETDNU37N8F8AJUT", "current_trial": 210, "dateTime": 1511204716137, "trialdata": {"rt": -1000, "stimulus": "/static/audio/400Hz.wav", "key_press": -1, "type": "PRE_RECALL_ALERT", "trial_type": "single-audio", "trial_index": 210, "time_elapsed": 953472, "internal_node_id": "0.0-156.0"}}, {"uniqueid": "MTK0540:39ZSFO5CA93RYWYETDNU37N8F8AJUT", "current_trial": 211, "dateTime": 1511204776139, "trialdata": {"rt": [3734, 5134, 7142, 8694, 11054, 12718, 17006], "recwords": ["canyon", "pasta", "salmon", "trout", "mammal", "flag", "twig"], "type": "FREE_RECALL", "conditions": [12, 1600, "v", 24000], "trial": 5, "trial_type": "free-recall", "trial_index": 211, "time_elapsed": 1013473, "internal_node_id": "0.0-157.0-0.0"}}, {"uniqueid": "MTK0540:39ZSFO5CA93RYWYETDNU37N8F8AJUT", "current_trial": 212, "dateTime": 1511204781775, "trialdata": {"rt": 3635, "key_press": 39, "type": "INSTRUCTIONS", "trial_type": "text", "trial_index": 212, "time_elapsed": 1019110, "internal_node_id": "0.0-158.0"}}, {"uniqueid": "MTK0540:39ZSFO5CA93RYWYETDNU37N8F8AJUT", "current_trial": 213, "dateTime": 1511204807778, "trialdata": {"rt": [5206, 7462, 9982, 11998, 14198], "responses": ["13", "12", "15", "10", "17"], "num1": [2, 5, 1, 2, 5, 5], "num2": [5, 3, 9, 6, 6, 9], "num3": [6, 4, 5, 2, 6, 7], "type": "DISTRACTOR", "conditions": [24, 1600, "a", 24000], "trial": 6, "trial_type": "math-distractor", "trial_index": 213, "time_elapsed": 1045113, "internal_node_id": "0.0-159.0"}}, {"uniqueid": "MTK0540:39ZSFO5CA93RYWYETDNU37N8F8AJUT", "current_trial": 214, "dateTime": 1511204810780, "trialdata": {"rt": -1, "stimulus": "<p id=\"stim\">10</p>", "key_press": -1, "trial_type": "single-stim", "trial_index": 214, "time_elapsed": 1048115, "internal_node_id": "0.0-160.0-0.0"}}, {"uniqueid": "MTK0540:39ZSFO5CA93RYWYETDNU37N8F8AJUT", "current_trial": 215, "dateTime": 1511204811781, "trialdata": {"rt": -1, "stimulus": "<p id=\"stim\">9</p>", "key_press": -1, "trial_type": "single-stim", "trial_index": 215, "time_elapsed": 1049116, "internal_node_id": "0.0-160.0-1.0"}}, {"uniqueid": "MTK0540:39ZSFO5CA93RYWYETDNU37N8F8AJUT", "current_trial": 216, "dateTime": 1511204812782, "trialdata": {"rt": -1, "stimulus": "<p id=\"stim\">8</p>", "key_press": -1, "trial_type": "single-stim", "trial_index": 216, "time_elapsed": 1050117, "internal_node_id": "0.0-160.0-2.0"}}, {"uniqueid": "MTK0540:39ZSFO5CA93RYWYETDNU37N8F8AJUT", "current_trial": 217, "dateTime": 1511204813782, "trialdata": {"rt": -1, "stimulus": "<p id=\"stim\">7</p>", "key_press": -1, "trial_type": "single-stim", "trial_index": 217, "time_elapsed": 1051117, "internal_node_id": "0.0-160.0-3.0"}}, {"uniqueid": "MTK0540:39ZSFO5CA93RYWYETDNU37N8F8AJUT", "current_trial": 218, "dateTime": 1511204814783, "trialdata": {"rt": -1, "stimulus": "<p id=\"stim\">6</p>", "key_press": -1, "trial_type": "single-stim", "trial_index": 218, "time_elapsed": 1052118, "internal_node_id": "0.0-160.0-4.0"}}, {"uniqueid": "MTK0540:39ZSFO5CA93RYWYETDNU37N8F8AJUT", "current_trial": 219, "dateTime": 1511204815784, "trialdata": {"rt": -1, "stimulus": "<p id=\"stim\">5</p>", "key_press": -1, "trial_type": "single-stim", "trial_index": 219, "time_elapsed": 1053119, "internal_node_id": "0.0-160.0-5.0"}}, {"uniqueid": "MTK0540:39ZSFO5CA93RYWYETDNU37N8F8AJUT", "current_trial": 220, "dateTime": 1511204816784, "trialdata": {"rt": -1, "stimulus": "<p id=\"stim\">4</p>", "key_press": -1, "trial_type": "single-stim", "trial_index": 220, "time_elapsed": 1054119, "internal_node_id": "0.0-160.0-6.0"}}, {"uniqueid": "MTK0540:39ZSFO5CA93RYWYETDNU37N8F8AJUT", "current_trial": 221, "dateTime": 1511204817785, "trialdata": {"rt": -1, "stimulus": "<p id=\"stim\">3</p>", "key_press": -1, "trial_type": "single-stim", "trial_index": 221, "time_elapsed": 1055120, "internal_node_id": "0.0-160.0-7.0"}}, {"uniqueid": "MTK0540:39ZSFO5CA93RYWYETDNU37N8F8AJUT", "current_trial": 222, "dateTime": 1511204818786, "trialdata": {"rt": -1, "stimulus": "<p id=\"stim\">2</p>", "key_press": -1, "trial_type": "single-stim", "trial_index": 222, "time_elapsed": 1056121, "internal_node_id": "0.0-160.0-8.0"}}, {"uniqueid": "MTK0540:39ZSFO5CA93RYWYETDNU37N8F8AJUT", "current_trial": 223, "dateTime": 1511204819786, "trialdata": {"rt": -1, "stimulus": "<p id=\"stim\">1</p>", "key_press": -1, "trial_type": "single-stim", "trial_index": 223, "time_elapsed": 1057121, "internal_node_id": "0.0-160.0-9.0"}}, {"uniqueid": "MTK0540:39ZSFO5CA93RYWYETDNU37N8F8AJUT", "current_trial": 224, "dateTime": 1511204821287, "trialdata": {"rt": -1, "stimulus": "<p id=\"stim\">+</p>", "key_press": -1, "type": "FIXATION", "trial_type": "single-stim", "trial_index": 224, "time_elapsed": 1058622, "internal_node_id": "0.0-161.0-0.0"}}, {"uniqueid": "MTK0540:39ZSFO5CA93RYWYETDNU37N8F8AJUT", "current_trial": 225, "dateTime": 1511204824014, "trialdata": {"rt": -1000, "stimulus": "/static/audio/wordpool/CELLAR.wav", "key_press": -1, "type": "PRES_AUD", "word": "cellar", "wordID": 266, "conditions": [24, 1600, "a", 24000], "trial": 6, "serialpos": 0, "trial_type": "single-audio", "trial_index": 225, "time_elapsed": 1061349, "internal_node_id": "0.0-162.0"}}, {"uniqueid": "MTK0540:39ZSFO5CA93RYWYETDNU37N8F8AJUT", "current_trial": 226, "dateTime": 1511204826591, "trialdata": {"rt": -1000, "stimulus": "/static/audio/wordpool/EXPERT.wav", "key_press": -1, "type": "PRES_AUD", "word": "expert", "wordID": 542, "conditions": [24, 1600, "a", 24000], "trial": 6, "serialpos": 1, "trial_type": "single-audio", "trial_index": 226, "time_elapsed": 1063926, "internal_node_id": "0.0-163.0"}}, {"uniqueid": "MTK0540:39ZSFO5CA93RYWYETDNU37N8F8AJUT", "current_trial": 227, "dateTime": 1511204829370, "trialdata": {"rt": -1000, "stimulus": "/static/audio/wordpool/ATLAS.wav", "key_press": -1, "type": "PRES_AUD", "word": "atlas", "wordID": 52, "conditions": [24, 1600, "a", 24000], "trial": 6, "serialpos": 2, "trial_type": "single-audio", "trial_index": 227, "time_elapsed": 1066705, "internal_node_id": "0.0-164.0"}}, {"uniqueid": "MTK0540:39ZSFO5CA93RYWYETDNU37N8F8AJUT", "current_trial": 228, "dateTime": 1511204832074, "trialdata": {"rt": -1000, "stimulus": "/static/audio/wordpool/RABBIT.wav", "key_press": -1, "type": "PRES_AUD", "word": "rabbit", "wordID": 1151, "conditions": [24, 1600, "a", 24000], "trial": 6, "serialpos": 3, "trial_type": "single-audio", "trial_index": 228, "time_elapsed": 1069409, "internal_node_id": "0.0-165.0"}}, {"uniqueid": "MTK0540:39ZSFO5CA93RYWYETDNU37N8F8AJUT", "current_trial": 229, "dateTime": 1511204834691, "trialdata": {"rt": -1000, "stimulus": "/static/audio/wordpool/CHIPMUNK.wav", "key_press": -1, "type": "PRES_AUD", "word": "chipmunk", "wordID": 303, "conditions": [24, 1600, "a", 24000], "trial": 6, "serialpos": 4, "trial_type": "single-audio", "trial_index": 229, "time_elapsed": 1072026, "internal_node_id": "0.0-166.0"}}, {"uniqueid": "MTK0540:39ZSFO5CA93RYWYETDNU37N8F8AJUT", "current_trial": 230, "dateTime": 1511204837282, "trialdata": {"rt": -1000, "stimulus": "/static/audio/wordpool/WAITER.wav", "key_press": -1, "type": "PRES_AUD", "word": "waiter", "wordID": 1579, "conditions": [24, 1600, "a", 24000], "trial": 6, "serialpos": 5, "trial_type": "single-audio", "trial_index": 230, "time_elapsed": 1074617, "internal_node_id": "0.0-167.0"}}, {"uniqueid": "MTK0540:39ZSFO5CA93RYWYETDNU37N8F8AJUT", "current_trial": 231, "dateTime": 1511204840042, "trialdata": {"rt": -1000, "stimulus": "/static/audio/wordpool/SADDLE.wav", "key_press": -1, "type": "PRES_AUD", "word": "saddle", "wordID": 1220, "conditions": [24, 1600, "a", 24000], "trial": 6, "serialpos": 6, "trial_type": "single-audio", "trial_index": 231, "time_elapsed": 1077377, "internal_node_id": "0.0-168.0"}}, {"uniqueid": "MTK0540:39ZSFO5CA93RYWYETDNU37N8F8AJUT", "current_trial": 232, "dateTime": 1511204842731, "trialdata": {"rt": -1000, "stimulus": "/static/audio/wordpool/BASEMENT.wav", "key_press": -1, "type": "PRES_AUD", "word": "basement", "wordID": 93, "conditions": [24, 1600, "a", 24000], "trial": 6, "serialpos": 7, "trial_type": "single-audio", "trial_index": 232, "time_elapsed": 1080066, "internal_node_id": "0.0-169.0"}}, {"uniqueid": "MTK0540:39ZSFO5CA93RYWYETDNU37N8F8AJUT", "current_trial": 233, "dateTime": 1511204845138, "trialdata": {"rt": -1000, "stimulus": "/static/audio/wordpool/SNAIL.wav", "key_press": -1, "type": "PRES_AUD", "word": "snail", "wordID": 1331, "conditions": [24, 1600, "a", 24000], "trial": 6, "serialpos": 8, "trial_type": "single-audio", "trial_index": 233, "time_elapsed": 1082473, "internal_node_id": "0.0-170.0"}}, {"uniqueid": "MTK0540:39ZSFO5CA93RYWYETDNU37N8F8AJUT", "current_trial": 234, "dateTime": 1511204847818, "trialdata": {"rt": -1000, "stimulus": "/static/audio/wordpool/FLEET.wav", "key_press": -1, "type": "PRES_AUD", "word": "fleet", "wordID": 577, "conditions": [24, 1600, "a", 24000], "trial": 6, "serialpos": 9, "trial_type": "single-audio", "trial_index": 234, "time_elapsed": 1085153, "internal_node_id": "0.0-171.0"}}, {"uniqueid": "MTK0540:39ZSFO5CA93RYWYETDNU37N8F8AJUT", "current_trial": 235, "dateTime": 1511204850378, "trialdata": {"rt": -1000, "stimulus": "/static/audio/wordpool/HOOK.wav", "key_press": -1, "type": "PRES_AUD", "word": "hook", "wordID": 714, "conditions": [24, 1600, "a", 24000], "trial": 6, "serialpos": 10, "trial_type": "single-audio", "trial_index": 235, "time_elapsed": 1087713, "internal_node_id": "0.0-172.0"}}, {"uniqueid": "MTK0540:39ZSFO5CA93RYWYETDNU37N8F8AJUT", "current_trial": 236, "dateTime": 1511204852959, "trialdata": {"rt": -1000, "stimulus": "/static/audio/wordpool/PARROT.wav", "key_press": -1, "type": "PRES_AUD", "word": "parrot", "wordID": 1014, "conditions": [24, 1600, "a", 24000], "trial": 6, "serialpos": 11, "trial_type": "single-audio", "trial_index": 236, "time_elapsed": 1090294, "internal_node_id": "0.0-173.0"}}, {"uniqueid": "MTK0540:39ZSFO5CA93RYWYETDNU37N8F8AJUT", "current_trial": 237, "dateTime": 1511204855555, "trialdata": {"rt": -1000, "stimulus": "/static/audio/wordpool/SHORTS.wav", "key_press": -1, "type": "PRES_AUD", "word": "shorts", "wordID": 1292, "conditions": [24, 1600, "a", 24000], "trial": 6, "serialpos": 12, "trial_type": "single-audio", "trial_index": 237, "time_elapsed": 1092890, "internal_node_id": "0.0-174.0"}}, {"uniqueid": "MTK0540:39ZSFO5CA93RYWYETDNU37N8F8AJUT", "current_trial": 238, "dateTime": 1511204858005, "trialdata": {"rt": -1000, "stimulus": "/static/audio/wordpool/COUNTRY.wav", "key_press": -1, "type": "PRES_AUD", "word": "country", "wordID": 387, "conditions": [24, 1600, "a", 24000], "trial": 6, "serialpos": 13, "trial_type": "single-audio", "trial_index": 238, "time_elapsed": 1095340, "internal_node_id": "0.0-175.0"}}, {"uniqueid": "MTK0540:39ZSFO5CA93RYWYETDNU37N8F8AJUT", "current_trial": 239, "dateTime": 1511204860618, "trialdata": {"rt": -1000, "stimulus": "/static/audio/wordpool/WORLD.wav", "key_press": -1, "type": "PRES_AUD", "word": "world", "wordID": 1621, "conditions": [24, 1600, "a", 24000], "trial": 6, "serialpos": 14, "trial_type": "single-audio", "trial_index": 239, "time_elapsed": 1097953, "internal_node_id": "0.0-176.0"}}, {"uniqueid": "MTK0540:39ZSFO5CA93RYWYETDNU37N8F8AJUT", "current_trial": 240, "dateTime": 1511204863271, "trialdata": {"rt": -1000, "stimulus": "/static/audio/wordpool/PATROL.wav", "key_press": -1, "type": "PRES_AUD", "word": "patrol", "wordID": 1026, "conditions": [24, 1600, "a", 24000], "trial": 6, "serialpos": 15, "trial_type": "single-audio", "trial_index": 240, "time_elapsed": 1100606, "internal_node_id": "0.0-177.0"}}, {"uniqueid": "MTK0540:39ZSFO5CA93RYWYETDNU37N8F8AJUT", "current_trial": 241, "dateTime": 1511204865764, "trialdata": {"rt": -1000, "stimulus": "/static/audio/wordpool/CONTRACT.wav", "key_press": -1, "type": "PRES_AUD", "word": "contract", "wordID": 367, "conditions": [24, 1600, "a", 24000], "trial": 6, "serialpos": 16, "trial_type": "single-audio", "trial_index": 241, "time_elapsed": 1103099, "internal_node_id": "0.0-178.0"}}, {"uniqueid": "MTK0540:39ZSFO5CA93RYWYETDNU37N8F8AJUT", "current_trial": 242, "dateTime": 1511204868379, "trialdata": {"rt": -1000, "stimulus": "/static/audio/wordpool/CRAB.wav", "key_press": -1, "type": "PRES_AUD", "word": "crab", "wordID": 396, "conditions": [24, 1600, "a", 24000], "trial": 6, "serialpos": 17, "trial_type": "single-audio", "trial_index": 242, "time_elapsed": 1105714, "internal_node_id": "0.0-179.0"}}, {"uniqueid": "MTK0540:39ZSFO5CA93RYWYETDNU37N8F8AJUT", "current_trial": 243, "dateTime": 1511204870893, "trialdata": {"rt": -1000, "stimulus": "/static/audio/wordpool/LIVER.wav", "key_press": -1, "type": "PRES_AUD", "word": "liver", "wordID": 832, "conditions": [24, 1600, "a", 24000], "trial": 6, "serialpos": 18, "trial_type": "single-audio", "trial_index": 243, "time_elapsed": 1108228, "internal_node_id": "0.0-180.0"}}, {"uniqueid": "MTK0540:39ZSFO5CA93RYWYETDNU37N8F8AJUT", "current_trial": 244, "dateTime": 1511204873473, "trialdata": {"rt": -1000, "stimulus": "/static/audio/wordpool/PEPPER.wav", "key_press": -1, "type": "PRES_AUD", "word": "pepper", "wordID": 1046, "conditions": [24, 1600, "a", 24000], "trial": 6, "serialpos": 19, "trial_type": "single-audio", "trial_index": 244, "time_elapsed": 1110808, "internal_node_id": "0.0-181.0"}}, {"uniqueid": "MTK0540:39ZSFO5CA93RYWYETDNU37N8F8AJUT", "current_trial": 245, "dateTime": 1511204876137, "trialdata": {"rt": -1000, "stimulus": "/static/audio/wordpool/FOREHEAD.wav", "key_press": -1, "type": "PRES_AUD", "word": "forehead", "wordID": 591, "conditions": [24, 1600, "a", 24000], "trial": 6, "serialpos": 20, "trial_type": "single-audio", "trial_index": 245, "time_elapsed": 1113472, "internal_node_id": "0.0-182.0"}}, {"uniqueid": "MTK0540:39ZSFO5CA93RYWYETDNU37N8F8AJUT", "current_trial": 246, "dateTime": 1511204878558, "trialdata": {"rt": -1000, "stimulus": "/static/audio/wordpool/GROUND.wav", "key_press": -1, "type": "PRES_AUD", "word": "ground", "wordID": 665, "conditions": [24, 1600, "a", 24000], "trial": 6, "serialpos": 21, "trial_type": "single-audio", "trial_index": 246, "time_elapsed": 1115893, "internal_node_id": "0.0-183.0"}}, {"uniqueid": "MTK0540:39ZSFO5CA93RYWYETDNU37N8F8AJUT", "current_trial": 247, "dateTime": 1511204881046, "trialdata": {"rt": -1000, "stimulus": "/static/audio/wordpool/MARROW.wav", "key_press": -1, "type": "PRES_AUD", "word": "marrow", "wordID": 871, "conditions": [24, 1600, "a", 24000], "trial": 6, "serialpos": 22, "trial_type": "single-audio", "trial_index": 247, "time_elapsed": 1118381, "internal_node_id": "0.0-184.0"}}, {"uniqueid": "MTK0540:39ZSFO5CA93RYWYETDNU37N8F8AJUT", "current_trial": 248, "dateTime": 1511204883719, "trialdata": {"rt": -1000, "stimulus": "/static/audio/wordpool/GRAPE.wav", "key_press": -1, "type": "PRES_AUD", "word": "grape", "wordID": 653, "conditions": [24, 1600, "a", 24000], "trial": 6, "serialpos": 23, "trial_type": "single-audio", "trial_index": 248, "time_elapsed": 1121054, "internal_node_id": "0.0-185.0"}}, {"uniqueid": "MTK0540:39ZSFO5CA93RYWYETDNU37N8F8AJUT", "current_trial": 249, "dateTime": 1511204884937, "trialdata": {"rt": -1, "stimulus": "", "key_press": -1, "type": "PRE_RECALL_DELAY", "trial_type": "single-stim", "trial_index": 249, "time_elapsed": 1122272, "internal_node_id": "0.0-186.0-0.0"}}, {"uniqueid": "MTK0540:39ZSFO5CA93RYWYETDNU37N8F8AJUT", "current_trial": 250, "dateTime": 1511204885438, "trialdata": {"rt": -1000, "stimulus": "/static/audio/400Hz.wav", "key_press": -1, "type": "PRE_RECALL_ALERT", "trial_type": "single-audio", "trial_index": 250, "time_elapsed": 1122773, "internal_node_id": "0.0-187.0"}}, {"uniqueid": "MTK0540:39ZSFO5CA93RYWYETDNU37N8F8AJUT", "current_trial": 251, "dateTime": 1511204945441, "trialdata": {"rt": [2952, 5520, 7000, 9208, 11488, 15128], "recwords": ["crepe", "world", "ground", "fleet", "marrow", "parrot"], "type": "FREE_RECALL", "conditions": [24, 1600, "a", 24000], "trial": 6, "trial_type": "free-recall", "trial_index": 251, "time_elapsed": 1182775, "internal_node_id": "0.0-188.0-0.0"}}, {"uniqueid": "MTK0540:39ZSFO5CA93RYWYETDNU37N8F8AJUT", "current_trial": 252, "dateTime": 1511204950654, "trialdata": {"rt": 3212, "key_press": 39, "type": "INSTRUCTIONS", "trial_type": "text", "trial_index": 252, "time_elapsed": 1187989, "internal_node_id": "0.0-189.0"}}, {"uniqueid": "MTK0540:39ZSFO5CA93RYWYETDNU37N8F8AJUT", "current_trial": 253, "dateTime": 1511204976657, "trialdata": {"rt": [3806, 6550, 8806, 12559, 15478, 17246, 19415], "responses": ["13", "13", "13", "12", "14", "7", "17"], "num1": [3, 2, 6, 1, 5, 2, 8, 4], "num2": [5, 3, 3, 3, 4, 2, 4, 9], "num3": [6, 8, 4, 8, 5, 3, 5, 3], "type": "DISTRACTOR", "conditions": [12, 1600, "a", 24000], "trial": 7, "trial_type": "math-distractor", "trial_index": 253, "time_elapsed": 1213992, "internal_node_id": "0.0-190.0"}}, {"uniqueid": "MTK0540:39ZSFO5CA93RYWYETDNU37N8F8AJUT", "current_trial": 254, "dateTime": 1511204979659, "trialdata": {"rt": -1, "stimulus": "<p id=\"stim\">10</p>", "key_press": -1, "trial_type": "single-stim", "trial_index": 254, "time_elapsed": 1216994, "internal_node_id": "0.0-191.0-0.0"}}, {"uniqueid": "MTK0540:39ZSFO5CA93RYWYETDNU37N8F8AJUT", "current_trial": 255, "dateTime": 1511204980659, "trialdata": {"rt": -1, "stimulus": "<p id=\"stim\">9</p>", "key_press": -1, "trial_type": "single-stim", "trial_index": 255, "time_elapsed": 1217994, "internal_node_id": "0.0-191.0-1.0"}}, {"uniqueid": "MTK0540:39ZSFO5CA93RYWYETDNU37N8F8AJUT", "current_trial": 256, "dateTime": 1511204981660, "trialdata": {"rt": -1, "stimulus": "<p id=\"stim\">8</p>", "key_press": -1, "trial_type": "single-stim", "trial_index": 256, "time_elapsed": 1218995, "internal_node_id": "0.0-191.0-2.0"}}, {"uniqueid": "MTK0540:39ZSFO5CA93RYWYETDNU37N8F8AJUT", "current_trial": 257, "dateTime": 1511204982661, "trialdata": {"rt": -1, "stimulus": "<p id=\"stim\">7</p>", "key_press": -1, "trial_type": "single-stim", "trial_index": 257, "time_elapsed": 1219996, "internal_node_id": "0.0-191.0-3.0"}}, {"uniqueid": "MTK0540:39ZSFO5CA93RYWYETDNU37N8F8AJUT", "current_trial": 258, "dateTime": 1511204983661, "trialdata": {"rt": -1, "stimulus": "<p id=\"stim\">6</p>", "key_press": -1, "trial_type": "single-stim", "trial_index": 258, "time_elapsed": 1220996, "internal_node_id": "0.0-191.0-4.0"}}, {"uniqueid": "MTK0540:39ZSFO5CA93RYWYETDNU37N8F8AJUT", "current_trial": 259, "dateTime": 1511204984662, "trialdata": {"rt": -1, "stimulus": "<p id=\"stim\">5</p>", "key_press": -1, "trial_type": "single-stim", "trial_index": 259, "time_elapsed": 1221997, "internal_node_id": "0.0-191.0-5.0"}}, {"uniqueid": "MTK0540:39ZSFO5CA93RYWYETDNU37N8F8AJUT", "current_trial": 260, "dateTime": 1511204985663, "trialdata": {"rt": -1, "stimulus": "<p id=\"stim\">4</p>", "key_press": -1, "trial_type": "single-stim", "trial_index": 260, "time_elapsed": 1222998, "internal_node_id": "0.0-191.0-6.0"}}, {"uniqueid": "MTK0540:39ZSFO5CA93RYWYETDNU37N8F8AJUT", "current_trial": 261, "dateTime": 1511204986663, "trialdata": {"rt": -1, "stimulus": "<p id=\"stim\">3</p>", "key_press": -1, "trial_type": "single-stim", "trial_index": 261, "time_elapsed": 1223998, "internal_node_id": "0.0-191.0-7.0"}}, {"uniqueid": "MTK0540:39ZSFO5CA93RYWYETDNU37N8F8AJUT", "current_trial": 262, "dateTime": 1511204987664, "trialdata": {"rt": -1, "stimulus": "<p id=\"stim\">2</p>", "key_press": -1, "trial_type": "single-stim", "trial_index": 262, "time_elapsed": 1224999, "internal_node_id": "0.0-191.0-8.0"}}, {"uniqueid": "MTK0540:39ZSFO5CA93RYWYETDNU37N8F8AJUT", "current_trial": 263, "dateTime": 1511204988665, "trialdata": {"rt": -1, "stimulus": "<p id=\"stim\">1</p>", "key_press": -1, "trial_type": "single-stim", "trial_index": 263, "time_elapsed": 1226000, "internal_node_id": "0.0-191.0-9.0"}}, {"uniqueid": "MTK0540:39ZSFO5CA93RYWYETDNU37N8F8AJUT", "current_trial": 264, "dateTime": 1511204990166, "trialdata": {"rt": -1, "stimulus": "<p id=\"stim\">+</p>", "key_press": -1, "type": "FIXATION", "trial_type": "single-stim", "trial_index": 264, "time_elapsed": 1227501, "internal_node_id": "0.0-192.0-0.0"}}, {"uniqueid": "MTK0540:39ZSFO5CA93RYWYETDNU37N8F8AJUT", "current_trial": 265, "dateTime": 1511204992650, "trialdata": {"rt": -1000, "stimulus": "/static/audio/wordpool/MONEY.wav", "key_press": -1, "type": "PRES_AUD", "word": "money", "wordID": 907, "conditions": [12, 1600, "a", 24000], "trial": 7, "serialpos": 0, "trial_type": "single-audio", "trial_index": 265, "time_elapsed": 1229985, "internal_node_id": "0.0-193.0"}}, {"uniqueid": "MTK0540:39ZSFO5CA93RYWYETDNU37N8F8AJUT", "current_trial": 266, "dateTime": 1511204995146, "trialdata": {"rt": -1000, "stimulus": "/static/audio/wordpool/SPOON.wav", "key_press": -1, "type": "PRES_AUD", "word": "spoon", "wordID": 1356, "conditions": [12, 1600, "a", 24000], "trial": 7, "serialpos": 1, "trial_type": "single-audio", "trial_index": 266, "time_elapsed": 1232481, "internal_node_id": "0.0-194.0"}}, {"uniqueid": "MTK0540:39ZSFO5CA93RYWYETDNU37N8F8AJUT", "current_trial": 267, "dateTime": 1511204997589, "trialdata": {"rt": -1000, "stimulus": "/static/audio/wordpool/MESSAGE.wav", "key_press": -1, "type": "PRES_AUD", "word": "message", "wordID": 887, "conditions": [12, 1600, "a", 24000], "trial": 7, "serialpos": 2, "trial_type": "single-audio", "trial_index": 267, "time_elapsed": 1234924, "internal_node_id": "0.0-195.0"}}, {"uniqueid": "MTK0540:39ZSFO5CA93RYWYETDNU37N8F8AJUT", "current_trial": 268, "dateTime": 1511205000198, "trialdata": {"rt": -1000, "stimulus": "/static/audio/wordpool/POSTAGE.wav", "key_press": -1, "type": "PRES_AUD", "word": "postage", "wordID": 1112, "conditions": [12, 1600, "a", 24000], "trial": 7, "serialpos": 3, "trial_type": "single-audio", "trial_index": 268, "time_elapsed": 1237533, "internal_node_id": "0.0-196.0"}}, {"uniqueid": "MTK0540:39ZSFO5CA93RYWYETDNU37N8F8AJUT", "current_trial": 269, "dateTime": 1511205002685, "trialdata": {"rt": -1000, "stimulus": "/static/audio/wordpool/APPLE.wav", "key_press": -1, "type": "PRES_AUD", "word": "apple", "wordID": 32, "conditions": [12, 1600, "a", 24000], "trial": 7, "serialpos": 4, "trial_type": "single-audio", "trial_index": 269, "time_elapsed": 1240020, "internal_node_id": "0.0-197.0"}}, {"uniqueid": "MTK0540:39ZSFO5CA93RYWYETDNU37N8F8AJUT", "current_trial": 270, "dateTime": 1511205005281, "trialdata": {"rt": -1000, "stimulus": "/static/audio/wordpool/PEACH.wav", "key_press": -1, "type": "PRES_AUD", "word": "peach", "wordID": 1030, "conditions": [12, 1600, "a", 24000], "trial": 7, "serialpos": 5, "trial_type": "single-audio", "trial_index": 270, "time_elapsed": 1242616, "internal_node_id": "0.0-198.0"}}, {"uniqueid": "MTK0540:39ZSFO5CA93RYWYETDNU37N8F8AJUT", "current_trial": 271, "dateTime": 1511205008015, "trialdata": {"rt": -1000, "stimulus": "/static/audio/wordpool/PLAYGROUND.wav", "key_press": -1, "type": "PRES_AUD", "word": "playground", "wordID": 1086, "conditions": [12, 1600, "a", 24000], "trial": 7, "serialpos": 6, "trial_type": "single-audio", "trial_index": 271, "t