{"condition": 0, "counterbalance": 547, "assignmentId": "3BC8WZX3V43GGSPAXO1Y0NMFHZJRRP", "workerId": "MTK0269", "hitId": "3ZG552ORAMBPIVRC1GM5BS7QDTPV2O", "currenttrial": 626, "bonus": 0, "data": [{"uniqueid": "MTK0269:3BC8WZX3V43GGSPAXO1Y0NMFHZJRRP", "current_trial": 0, "dateTime": 1510690942815, "trialdata": {"rt": 3639, "key_press": 32, "type": "INSTRUCTIONS", "trial_type": "text", "trial_index": 0, "time_elapsed": 3641, "internal_node_id": "0.0-0.0"}}, {"uniqueid": "MTK0269:3BC8WZX3V43GGSPAXO1Y0NMFHZJRRP", "current_trial": 1, "dateTime": 1510690965249, "trialdata": {"rt": 22433, "key_press": 32, "type": "INSTRUCTIONS", "trial_type": "text", "trial_index": 1, "time_elapsed": 26076, "internal_node_id": "0.0-1.0"}}, {"uniqueid": "MTK0269:3BC8WZX3V43GGSPAXO1Y0NMFHZJRRP", "current_trial": 2, "dateTime": 1510690982450, "trialdata": {"rt": [17198], "responses": ["ocean"], "type": "AUDIO_TEST", "trial_type": "audio-test", "trial_index": 2, "time_elapsed": 43277, "internal_node_id": "0.0-2.0"}}, {"uniqueid": "MTK0269:3BC8WZX3V43GGSPAXO1Y0NMFHZJRRP", "current_trial": 3, "dateTime": 1510690995227, "trialdata": {"rt": [12774], "responses": ["crystal"], "type": "AUDIO_TEST", "trial_type": "audio-test", "trial_index": 3, "time_elapsed": 56053, "internal_node_id": "0.0-3.0"}}, {"uniqueid": "MTK0269:3BC8WZX3V43GGSPAXO1Y0NMFHZJRRP", "current_trial": 4, "dateTime": 1510691159568, "trialdata": {"rt": [25490, 36414, 43546, 72614, 102462, 164339], "responses": ["bite", "bike", "fight", "fife", "spife", "spice"], "type": "AUDIO_TEST", "trial_type": "audio-test", "trial_index": 4, "time_elapsed": 220395, "internal_node_id": "0.0-4.0"}}, {"uniqueid": "MTK0269:3BC8WZX3V43GGSPAXO1Y0NMFHZJRRP", "current_trial": 5, "dateTime": 1510691193865, "trialdata": {"rt": 33546, "responses": "{\"Q0\":\"9\",\"Q1\":\"5:30\",\"Q2\":\"5\"}", "type": "SLEEP_SURVEY", "trial_type": "survey-text", "trial_index": 5, "time_elapsed": 254692, "internal_node_id": "0.0-5.0"}}, {"uniqueid": "MTK0269:3BC8WZX3V43GGSPAXO1Y0NMFHZJRRP", "current_trial": 6, "dateTime": 1510691257812, "trialdata": {"rt": 62945, "key_press": 32, "type": "INSTRUCTIONS", "trial_type": "text", "trial_index": 6, "time_elapsed": 318639, "internal_node_id": "0.0-6.0"}}, {"uniqueid": "MTK0269:3BC8WZX3V43GGSPAXO1Y0NMFHZJRRP", "current_trial": 7, "dateTime": 1510691293504, "trialdata": {"rt": 35192, "key_press": 32, "type": "INSTRUCTIONS", "trial_type": "text", "trial_index": 7, "time_elapsed": 354331, "internal_node_id": "0.0-7.0"}}, {"uniqueid": "MTK0269:3BC8WZX3V43GGSPAXO1Y0NMFHZJRRP", "current_trial": 8, "dateTime": 1510691313347, "trialdata": {"rt": 19341, "key_press": 32, "type": "INSTRUCTIONS", "trial_type": "text", "trial_index": 8, "time_elapsed": 374174, "internal_node_id": "0.0-8.0"}}, {"uniqueid": "MTK0269:3BC8WZX3V43GGSPAXO1Y0NMFHZJRRP", "current_trial": 9, "dateTime": 1510691332351, "trialdata": {"rt": [5272, 9259, 12934, 17755], "responses": ["12", "19", "13", "9"], "num1": [2, 8, 4, 1, 4], "num2": [8, 8, 2, 5, 2], "num3": [2, 3, 7, 3, 6], "type": "DISTRACTOR", "conditions": [18, 1200, "a", 18000], "trial": 0, "trial_type": "math-distractor", "trial_index": 9, "time_elapsed": 393178, "internal_node_id": "0.0-9.0"}}, {"uniqueid": "MTK0269:3BC8WZX3V43GGSPAXO1Y0NMFHZJRRP", "current_trial": 10, "dateTime": 1510691335353, "trialdata": {"rt": -1, "stimulus": "<p id=\"stim\">10</p>", "key_press": -1, "trial_type": "single-stim", "trial_index": 10, "time_elapsed": 396180, "internal_node_id": "0.0-10.0-0.0"}}, {"uniqueid": "MTK0269:3BC8WZX3V43GGSPAXO1Y0NMFHZJRRP", "current_trial": 11, "dateTime": 1510691336354, "trialdata": {"rt": -1, "stimulus": "<p id=\"stim\">9</p>", "key_press": -1, "trial_type": "single-stim", "trial_index": 11, "time_elapsed": 397181, "internal_node_id": "0.0-10.0-1.0"}}, {"uniqueid": "MTK0269:3BC8WZX3V43GGSPAXO1Y0NMFHZJRRP", "current_trial": 12, "dateTime": 1510691337356, "trialdata": {"rt": -1, "stimulus": "<p id=\"stim\">8</p>", "key_press": -1, "trial_type": "single-stim", "trial_index": 12, "time_elapsed": 398183, "internal_node_id": "0.0-10.0-2.0"}}, {"uniqueid": "MTK0269:3BC8WZX3V43GGSPAXO1Y0NMFHZJRRP", "current_trial": 13, "dateTime": 1510691338358, "trialdata": {"rt": -1, "stimulus": "<p id=\"stim\">7</p>", "key_press": -1, "trial_type": "single-stim", "trial_index": 13, "time_elapsed": 399185, "internal_node_id": "0.0-10.0-3.0"}}, {"uniqueid": "MTK0269:3BC8WZX3V43GGSPAXO1Y0NMFHZJRRP", "current_trial": 14, "dateTime": 1510691339359, "trialdata": {"rt": -1, "stimulus": "<p id=\"stim\">6</p>", "key_press": -1, "trial_type": "single-stim", "trial_index": 14, "time_elapsed": 400186, "internal_node_id": "0.0-10.0-4.0"}}, {"uniqueid": "MTK0269:3BC8WZX3V43GGSPAXO1Y0NMFHZJRRP", "current_trial": 15, "dateTime": 1510691340360, "trialdata": {"rt": -1, "stimulus": "<p id=\"stim\">5</p>", "key_press": -1, "trial_type": "single-stim", "trial_index": 15, "time_elapsed": 401187, "internal_node_id": "0.0-10.0-5.0"}}, {"uniqueid": "MTK0269:3BC8WZX3V43GGSPAXO1Y0NMFHZJRRP", "current_trial": 16, "dateTime": 1510691341361, "trialdata": {"rt": -1, "stimulus": "<p id=\"stim\">4</p>", "key_press": -1, "trial_type": "single-stim", "trial_index": 16, "time_elapsed": 402188, "internal_node_id": "0.0-10.0-6.0"}}, {"uniqueid": "MTK0269:3BC8WZX3V43GGSPAXO1Y0NMFHZJRRP", "current_trial": 17, "dateTime": 1510691342363, "trialdata": {"rt": -1, "stimulus": "<p id=\"stim\">3</p>", "key_press": -1, "trial_type": "single-stim", "trial_index": 17, "time_elapsed": 403190, "internal_node_id": "0.0-10.0-7.0"}}, {"uniqueid": "MTK0269:3BC8WZX3V43GGSPAXO1Y0NMFHZJRRP", "current_trial": 18, "dateTime": 1510691343364, "trialdata": {"rt": -1, "stimulus": "<p id=\"stim\">2</p>", "key_press": -1, "trial_type": "single-stim", "trial_index": 18, "time_elapsed": 404191, "internal_node_id": "0.0-10.0-8.0"}}, {"uniqueid": "MTK0269:3BC8WZX3V43GGSPAXO1Y0NMFHZJRRP", "current_trial": 19, "dateTime": 1510691344367, "trialdata": {"rt": -1, "stimulus": "<p id=\"stim\">1</p>", "key_press": -1, "trial_type": "single-stim", "trial_index": 19, "time_elapsed": 405194, "internal_node_id": "0.0-10.0-9.0"}}, {"uniqueid": "MTK0269:3BC8WZX3V43GGSPAXO1Y0NMFHZJRRP", "current_trial": 20, "dateTime": 1510691345869, "trialdata": {"rt": -1, "stimulus": "<p id=\"stim\">+</p>", "key_press": -1, "type": "FIXATION", "trial_type": "single-stim", "trial_index": 20, "time_elapsed": 406696, "internal_node_id": "0.0-11.0-0.0"}}, {"uniqueid": "MTK0269:3BC8WZX3V43GGSPAXO1Y0NMFHZJRRP", "current_trial": 21, "dateTime": 1510691348106, "trialdata": {"rt": -1000, "stimulus": "/static/audio/wordpool/FLIPPER.wav", "key_press": -1, "type": "PRES_AUD", "word": "flipper", "wordID": 579, "conditions": [18, 1200, "a", 18000], "trial": 0, "serialpos": 0, "trial_type": "single-audio", "trial_index": 21, "time_elapsed": 408933, "internal_node_id": "0.0-12.0"}}, {"uniqueid": "MTK0269:3BC8WZX3V43GGSPAXO1Y0NMFHZJRRP", "current_trial": 22, "dateTime": 1510691350504, "trialdata": {"rt": -1000, "stimulus": "/static/audio/wordpool/HEART.wav", "key_press": -1, "type": "PRES_AUD", "word": "heart", "wordID": 696, "conditions": [18, 1200, "a", 18000], "trial": 0, "serialpos": 1, "trial_type": "single-audio", "trial_index": 22, "time_elapsed": 411331, "internal_node_id": "0.0-13.0"}}, {"uniqueid": "MTK0269:3BC8WZX3V43GGSPAXO1Y0NMFHZJRRP", "current_trial": 23, "dateTime": 1510691352889, "trialdata": {"rt": -1000, "stimulus": "/static/audio/wordpool/NOTEBOOK.wav", "key_press": -1, "type": "PRES_AUD", "word": "notebook", "wordID": 958, "conditions": [18, 1200, "a", 18000], "trial": 0, "serialpos": 2, "trial_type": "single-audio", "trial_index": 23, "time_elapsed": 413716, "internal_node_id": "0.0-14.0"}}, {"uniqueid": "MTK0269:3BC8WZX3V43GGSPAXO1Y0NMFHZJRRP", "current_trial": 24, "dateTime": 1510691354987, "trialdata": {"rt": -1000, "stimulus": "/static/audio/wordpool/POWDER.wav", "key_press": -1, "type": "PRES_AUD", "word": "powder", "wordID": 1116, "conditions": [18, 1200, "a", 18000], "trial": 0, "serialpos": 3, "trial_type": "single-audio", "trial_index": 24, "time_elapsed": 415814, "internal_node_id": "0.0-15.0"}}, {"uniqueid": "MTK0269:3BC8WZX3V43GGSPAXO1Y0NMFHZJRRP", "current_trial": 25, "dateTime": 1510691357032, "trialdata": {"rt": -1000, "stimulus": "/static/audio/wordpool/BROOK.wav", "key_press": -1, "type": "PRES_AUD", "word": "brook", "wordID": 176, "conditions": [18, 1200, "a", 18000], "trial": 0, "serialpos": 4, "trial_type": "single-audio", "trial_index": 25, "time_elapsed": 417859, "internal_node_id": "0.0-16.0"}}, {"uniqueid": "MTK0269:3BC8WZX3V43GGSPAXO1Y0NMFHZJRRP", "current_trial": 26, "dateTime": 1510691359223, "trialdata": {"rt": -1000, "stimulus": "/static/audio/wordpool/GALLON.wav", "key_press": -1, "type": "PRES_AUD", "word": "gallon", "wordID": 617, "conditions": [18, 1200, "a", 18000], "trial": 0, "serialpos": 5, "trial_type": "single-audio", "trial_index": 26, "time_elapsed": 420050, "internal_node_id": "0.0-17.0"}}, {"uniqueid": "MTK0269:3BC8WZX3V43GGSPAXO1Y0NMFHZJRRP", "current_trial": 27, "dateTime": 1510691361305, "trialdata": {"rt": -1000, "stimulus": "/static/audio/wordpool/DENTIST.wav", "key_press": -1, "type": "PRES_AUD", "word": "dentist", "wordID": 446, "conditions": [18, 1200, "a", 18000], "trial": 0, "serialpos": 6, "trial_type": "single-audio", "trial_index": 27, "time_elapsed": 422132, "internal_node_id": "0.0-18.0"}}, {"uniqueid": "MTK0269:3BC8WZX3V43GGSPAXO1Y0NMFHZJRRP", "current_trial": 28, "dateTime": 1510691363674, "trialdata": {"rt": -1000, "stimulus": "/static/audio/wordpool/BREAST.wav", "key_press": -1, "type": "PRES_AUD", "word": "breast", "wordID": 170, "conditions": [18, 1200, "a", 18000], "trial": 0, "serialpos": 7, "trial_type": "single-audio", "trial_index": 28, "time_elapsed": 424501, "internal_node_id": "0.0-19.0"}}, {"uniqueid": "MTK0269:3BC8WZX3V43GGSPAXO1Y0NMFHZJRRP", "current_trial": 29, "dateTime": 1510691365770, "trialdata": {"rt": -1000, "stimulus": "/static/audio/wordpool/DINER.wav", "key_press": -1, "type": "PRES_AUD", "word": "diner", "wordID": 466, "conditions": [18, 1200, "a", 18000], "trial": 0, "serialpos": 8, "trial_type": "single-audio", "trial_index": 29, "time_elapsed": 426597, "internal_node_id": "0.0-20.0"}}, {"uniqueid": "MTK0269:3BC8WZX3V43GGSPAXO1Y0NMFHZJRRP", "current_trial": 30, "dateTime": 1510691367976, "trialdata": {"rt": -1000, "stimulus": "/static/audio/wordpool/CONTRACT.wav", "key_press": -1, "type": "PRES_AUD", "word": "contract", "wordID": 367, "conditions": [18, 1200, "a", 18000], "trial": 0, "serialpos": 9, "trial_type": "single-audio", "trial_index": 30, "time_elapsed": 428803, "internal_node_id": "0.0-21.0"}}, {"uniqueid": "MTK0269:3BC8WZX3V43GGSPAXO1Y0NMFHZJRRP", "current_trial": 31, "dateTime": 1510691370327, "trialdata": {"rt": -1000, "stimulus": "/static/audio/wordpool/FOOT.wav", "key_press": -1, "type": "PRES_AUD", "word": "foot", "wordID": 589, "conditions": [18, 1200, "a", 18000], "trial": 0, "serialpos": 10, "trial_type": "single-audio", "trial_index": 31, "time_elapsed": 431154, "internal_node_id": "0.0-22.0"}}, {"uniqueid": "MTK0269:3BC8WZX3V43GGSPAXO1Y0NMFHZJRRP", "current_trial": 32, "dateTime": 1510691372458, "trialdata": {"rt": -1000, "stimulus": "/static/audio/wordpool/WINDOW.wav", "key_press": -1, "type": "PRES_AUD", "word": "window", "wordID": 1610, "conditions": [18, 1200, "a", 18000], "trial": 0, "serialpos": 11, "trial_type": "single-audio", "trial_index": 32, "time_elapsed": 433285, "internal_node_id": "0.0-23.0"}}, {"uniqueid": "MTK0269:3BC8WZX3V43GGSPAXO1Y0NMFHZJRRP", "current_trial": 33, "dateTime": 1510691374709, "trialdata": {"rt": -1000, "stimulus": "/static/audio/wordpool/BUBBLE.wav", "key_press": -1, "type": "PRES_AUD", "word": "bubble", "wordID": 182, "conditions": [18, 1200, "a", 18000], "trial": 0, "serialpos": 12, "trial_type": "single-audio", "trial_index": 33, "time_elapsed": 435536, "internal_node_id": "0.0-24.0"}}, {"uniqueid": "MTK0269:3BC8WZX3V43GGSPAXO1Y0NMFHZJRRP", "current_trial": 34, "dateTime": 1510691376753, "trialdata": {"rt": -1000, "stimulus": "/static/audio/wordpool/BEAVER.wav", "key_press": -1, "type": "PRES_AUD", "word": "beaver", "wordID": 108, "conditions": [18, 1200, "a", 18000], "trial": 0, "serialpos": 13, "trial_type": "single-audio", "trial_index": 34, "time_elapsed": 437580, "internal_node_id": "0.0-25.0"}}, {"uniqueid": "MTK0269:3BC8WZX3V43GGSPAXO1Y0NMFHZJRRP", "current_trial": 35, "dateTime": 1510691378865, "trialdata": {"rt": -1000, "stimulus": "/static/audio/wordpool/LONDON.wav", "key_press": -1, "type": "PRES_AUD", "word": "london", "wordID": 842, "conditions": [18, 1200, "a", 18000], "trial": 0, "serialpos": 14, "trial_type": "single-audio", "trial_index": 35, "time_elapsed": 439692, "internal_node_id": "0.0-26.0"}}, {"uniqueid": "MTK0269:3BC8WZX3V43GGSPAXO1Y0NMFHZJRRP", "current_trial": 36, "dateTime": 1510691381135, "trialdata": {"rt": -1000, "stimulus": "/static/audio/wordpool/PERMIT.wav", "key_press": -1, "type": "PRES_AUD", "word": "permit", "wordID": 1050, "conditions": [18, 1200, "a", 18000], "trial": 0, "serialpos": 15, "trial_type": "single-audio", "trial_index": 36, "time_elapsed": 441962, "internal_node_id": "0.0-27.0"}}, {"uniqueid": "MTK0269:3BC8WZX3V43GGSPAXO1Y0NMFHZJRRP", "current_trial": 37, "dateTime": 1510691383212, "trialdata": {"rt": -1000, "stimulus": "/static/audio/wordpool/AGENT.wav", "key_press": -1, "type": "PRES_AUD", "word": "agent", "wordID": 9, "conditions": [18, 1200, "a", 18000], "trial": 0, "serialpos": 16, "trial_type": "single-audio", "trial_index": 37, "time_elapsed": 444039, "internal_node_id": "0.0-28.0"}}, {"uniqueid": "MTK0269:3BC8WZX3V43GGSPAXO1Y0NMFHZJRRP", "current_trial": 38, "dateTime": 1510691385586, "trialdata": {"rt": -1000, "stimulus": "/static/audio/wordpool/ASIA.wav", "key_press": -1, "type": "PRES_AUD", "word": "asia", "wordID": 45, "conditions": [18, 1200, "a", 18000], "trial": 0, "serialpos": 17, "trial_type": "single-audio", "trial_index": 38, "time_elapsed": 446413, "internal_node_id": "0.0-29.0"}}, {"uniqueid": "MTK0269:3BC8WZX3V43GGSPAXO1Y0NMFHZJRRP", "current_trial": 39, "dateTime": 1510691386913, "trialdata": {"rt": -1, "stimulus": "", "key_press": -1, "type": "PRE_RECALL_DELAY", "trial_type": "single-stim", "trial_index": 39, "time_elapsed": 447740, "internal_node_id": "0.0-30.0-0.0"}}, {"uniqueid": "MTK0269:3BC8WZX3V43GGSPAXO1Y0NMFHZJRRP", "current_trial": 40, "dateTime": 1510691387418, "trialdata": {"rt": -1000, "stimulus": "/static/audio/400Hz.wav", "key_press": -1, "type": "PRE_RECALL_ALERT", "trial_type": "single-audio", "trial_index": 40, "time_elapsed": 448245, "internal_node_id": "0.0-31.0"}}, {"uniqueid": "MTK0269:3BC8WZX3V43GGSPAXO1Y0NMFHZJRRP", "current_trial": 41, "dateTime": 1510691447422, "trialdata": {"rt": [8341, 11030, 13690, 16562, 18732, 22379, 25053, 28994, 32383, 36626, 41569, 48129, 52218, 58689], "recwords": ["gallon", "asia", "heart", "beaver", "brook", "dentist", "breath", "contract", "window", "london", "notebook", "powder", "garden", "agent"], "type": "FREE_RECALL", "conditions": [18, 1200, "a", 18000], "trial": 0, "trial_type": "free-recall", "trial_index": 41, "time_elapsed": 508247, "internal_node_id": "0.0-32.0-0.0"}}, {"uniqueid": "MTK0269:3BC8WZX3V43GGSPAXO1Y0NMFHZJRRP", "current_trial": 42, "dateTime": 1510691454058, "trialdata": {"rt": 4635, "key_press": 32, "type": "INSTRUCTIONS", "trial_type": "text", "trial_index": 42, "time_elapsed": 514885, "internal_node_id": "0.0-33.0"}}, {"uniqueid": "MTK0269:3BC8WZX3V43GGSPAXO1Y0NMFHZJRRP", "current_trial": 43, "dateTime": 1510691474060, "trialdata": {"rt": [5151, 8904, 12429, 16251], "responses": ["22", "15", "10", "17"], "num1": [4, 4, 4, 9, 8], "num2": [9, 4, 5, 7, 9], "num3": [9, 7, 1, 1, 9], "type": "DISTRACTOR", "conditions": [18, 1200, "v", 18000], "trial": 1, "trial_type": "math-distractor", "trial_index": 43, "time_elapsed": 534887, "internal_node_id": "0.0-34.0"}}, {"uniqueid": "MTK0269:3BC8WZX3V43GGSPAXO1Y0NMFHZJRRP", "current_trial": 44, "dateTime": 1510691477061, "trialdata": {"rt": -1, "stimulus": "<p id=\"stim\">10</p>", "key_press": -1, "trial_type": "single-stim", "trial_index": 44, "time_elapsed": 537888, "internal_node_id": "0.0-35.0-0.0"}}, {"uniqueid": "MTK0269:3BC8WZX3V43GGSPAXO1Y0NMFHZJRRP", "current_trial": 45, "dateTime": 1510691478063, "trialdata": {"rt": -1, "stimulus": "<p id=\"stim\">9</p>", "key_press": -1, "trial_type": "single-stim", "trial_index": 45, "time_elapsed": 538890, "internal_node_id": "0.0-35.0-1.0"}}, {"uniqueid": "MTK0269:3BC8WZX3V43GGSPAXO1Y0NMFHZJRRP", "current_trial": 46, "dateTime": 1510691479065, "trialdata": {"rt": -1, "stimulus": "<p id=\"stim\">8</p>", "key_press": -1, "trial_type": "single-stim", "trial_index": 46, "time_elapsed": 539892, "internal_node_id": "0.0-35.0-2.0"}}, {"uniqueid": "MTK0269:3BC8WZX3V43GGSPAXO1Y0NMFHZJRRP", "current_trial": 47, "dateTime": 1510691480066, "trialdata": {"rt": -1, "stimulus": "<p id=\"stim\">7</p>", "key_press": -1, "trial_type": "single-stim", "trial_index": 47, "time_elapsed": 540893, "internal_node_id": "0.0-35.0-3.0"}}, {"uniqueid": "MTK0269:3BC8WZX3V43GGSPAXO1Y0NMFHZJRRP", "current_trial": 48, "dateTime": 1510691481067, "trialdata": {"rt": -1, "stimulus": "<p id=\"stim\">6</p>", "key_press": -1, "trial_type": "single-stim", "trial_index": 48, "time_elapsed": 541894, "internal_node_id": "0.0-35.0-4.0"}}, {"uniqueid": "MTK0269:3BC8WZX3V43GGSPAXO1Y0NMFHZJRRP", "current_trial": 49, "dateTime": 1510691482067, "trialdata": {"rt": -1, "stimulus": "<p id=\"stim\">5</p>", "key_press": -1, "trial_type": "single-stim", "trial_index": 49, "time_elapsed": 542894, "internal_node_id": "0.0-35.0-5.0"}}, {"uniqueid": "MTK0269:3BC8WZX3V43GGSPAXO1Y0NMFHZJRRP", "current_trial": 50, "dateTime": 1510691483069, "trialdata": {"rt": -1, "stimulus": "<p id=\"stim\">4</p>", "key_press": -1, "trial_type": "single-stim", "trial_index": 50, "time_elapsed": 543896, "internal_node_id": "0.0-35.0-6.0"}}, {"uniqueid": "MTK0269:3BC8WZX3V43GGSPAXO1Y0NMFHZJRRP", "current_trial": 51, "dateTime": 1510691484070, "trialdata": {"rt": -1, "stimulus": "<p id=\"stim\">3</p>", "key_press": -1, "trial_type": "single-stim", "trial_index": 51, "time_elapsed": 544897, "internal_node_id": "0.0-35.0-7.0"}}, {"uniqueid": "MTK0269:3BC8WZX3V43GGSPAXO1Y0NMFHZJRRP", "current_trial": 52, "dateTime": 1510691485073, "trialdata": {"rt": -1, "stimulus": "<p id=\"stim\">2</p>", "key_press": -1, "trial_type": "single-stim", "trial_index": 52, "time_elapsed": 545900, "internal_node_id": "0.0-35.0-8.0"}}, {"uniqueid": "MTK0269:3BC8WZX3V43GGSPAXO1Y0NMFHZJRRP", "current_trial": 53, "dateTime": 1510691486074, "trialdata": {"rt": -1, "stimulus": "<p id=\"stim\">1</p>", "key_press": -1, "trial_type": "single-stim", "trial_index": 53, "time_elapsed": 546901, "internal_node_id": "0.0-35.0-9.0"}}, {"uniqueid": "MTK0269:3BC8WZX3V43GGSPAXO1Y0NMFHZJRRP", "current_trial": 54, "dateTime": 1510691487574, "trialdata": {"rt": -1, "stimulus": "<p id=\"stim\">+</p>", "key_press": -1, "type": "FIXATION", "trial_type": "single-stim", "trial_index": 54, "time_elapsed": 548401, "internal_node_id": "0.0-36.0-0.0"}}, {"uniqueid": "MTK0269:3BC8WZX3V43GGSPAXO1Y0NMFHZJRRP", "current_trial": 55, "dateTime": 1510691488775, "trialdata": {"rt": -1, "stimulus": "<p id=\"stim\">BADGE</p>", "key_press": -1, "type": "PRES_VIS", "word": "badge", "wordID": 67, "conditions": [18, 1200, "v", 18000], "trial": 1, "serialpos": 0, "trial_type": "single-stim", "trial_index": 55, "time_elapsed": 549602, "internal_node_id": "0.0-37.0"}}, {"uniqueid": "MTK0269:3BC8WZX3V43GGSPAXO1Y0NMFHZJRRP", "current_trial": 56, "dateTime": 1510691490824, "trialdata": {"rt": -1, "stimulus": "<p id=\"stim\">GRAPE</p>", "key_press": -1, "type": "PRES_VIS", "word": "grape", "wordID": 653, "conditions": [18, 1200, "v", 18000], "trial": 1, "serialpos": 1, "trial_type": "single-stim", "trial_index": 56, "time_elapsed": 551651, "internal_node_id": "0.0-38.0"}}, {"uniqueid": "MTK0269:3BC8WZX3V43GGSPAXO1Y0NMFHZJRRP", "current_trial": 57, "dateTime": 1510691493181, "trialdata": {"rt": -1, "stimulus": "<p id=\"stim\">GRAVEL</p>", "key_press": -1, "type": "PRES_VIS", "word": "gravel", "wordID": 658, "conditions": [18, 1200, "v", 18000], "trial": 1, "serialpos": 2, "trial_type": "single-stim", "trial_index": 57, "time_elapsed": 554008, "internal_node_id": "0.0-39.0"}}, {"uniqueid": "MTK0269:3BC8WZX3V43GGSPAXO1Y0NMFHZJRRP", "current_trial": 58, "dateTime": 1510691495293, "trialdata": {"rt": -1, "stimulus": "<p id=\"stim\">VALLEY</p>", "key_press": -1, "type": "PRES_VIS", "word": "valley", "wordID": 1544, "conditions": [18, 1200, "v", 18000], "trial": 1, "serialpos": 3, "trial_type": "single-stim", "trial_index": 58, "time_elapsed": 556120, "internal_node_id": "0.0-40.0"}}, {"uniqueid": "MTK0269:3BC8WZX3V43GGSPAXO1Y0NMFHZJRRP", "current_trial": 59, "dateTime": 1510691497586, "trialdata": {"rt": -1, "stimulus": "<p id=\"stim\">LION</p>", "key_press": -1, "type": "PRES_VIS", "word": "lion", "wordID": 826, "conditions": [18, 1200, "v", 18000], "trial": 1, "serialpos": 4, "trial_type": "single-stim", "trial_index": 59, "time_elapsed": 558413, "internal_node_id": "0.0-41.0"}}, {"uniqueid": "MTK0269:3BC8WZX3V43GGSPAXO1Y0NMFHZJRRP", "current_trial": 60, "dateTime": 1510691499603, "trialdata": {"rt": -1, "stimulus": "<p id=\"stim\">LAPEL</p>", "key_press": -1, "type": "PRES_VIS", "word": "lapel", "wordID": 799, "conditions": [18, 1200, "v", 18000], "trial": 1, "serialpos": 5, "trial_type": "single-stim", "trial_index": 60, "time_elapsed": 560430, "internal_node_id": "0.0-42.0"}}, {"uniqueid": "MTK0269:3BC8WZX3V43GGSPAXO1Y0NMFHZJRRP", "current_trial": 61, "dateTime": 1510691501730, "trialdata": {"rt": -1, "stimulus": "<p id=\"stim\">NEUTRON</p>", "key_press": -1, "type": "PRES_VIS", "word": "neutron", "wordID": 946, "conditions": [18, 1200, "v", 18000], "trial": 1, "serialpos": 6, "trial_type": "single-stim", "trial_index": 61, "time_elapsed": 562557, "internal_node_id": "0.0-43.0"}}, {"uniqueid": "MTK0269:3BC8WZX3V43GGSPAXO1Y0NMFHZJRRP", "current_trial": 62, "dateTime": 1510691503841, "trialdata": {"rt": -1, "stimulus": "<p id=\"stim\">LUMBER</p>", "key_press": -1, "type": "PRES_VIS", "word": "lumber", "wordID": 847, "conditions": [18, 1200, "v", 18000], "trial": 1, "serialpos": 7, "trial_type": "single-stim", "trial_index": 62, "time_elapsed": 564668, "internal_node_id": "0.0-44.0"}}, {"uniqueid": "MTK0269:3BC8WZX3V43GGSPAXO1Y0NMFHZJRRP", "current_trial": 63, "dateTime": 1510691505860, "trialdata": {"rt": -1, "stimulus": "<p id=\"stim\">PORTRAIT</p>", "key_press": -1, "type": "PRES_VIS", "word": "portrait", "wordID": 1110, "conditions": [18, 1200, "v", 18000], "trial": 1, "serialpos": 8, "trial_type": "single-stim", "trial_index": 63, "time_elapsed": 566687, "internal_node_id": "0.0-45.0"}}, {"uniqueid": "MTK0269:3BC8WZX3V43GGSPAXO1Y0NMFHZJRRP", "current_trial": 64, "dateTime": 1510691508232, "trialdata": {"rt": -1, "stimulus": "<p id=\"stim\">OUTDOORS</p>", "key_press": -1, "type": "PRES_VIS", "word": "outdoors", "wordID": 986, "conditions": [18, 1200, "v", 18000], "trial": 1, "serialpos": 9, "trial_type": "single-stim", "trial_index": 64, "time_elapsed": 569059, "internal_node_id": "0.0-46.0"}}, {"uniqueid": "MTK0269:3BC8WZX3V43GGSPAXO1Y0NMFHZJRRP", "current_trial": 65, "dateTime": 1510691510236, "trialdata": {"rt": -1, "stimulus": "<p id=\"stim\">THREAD</p>", "key_press": -1, "type": "PRES_VIS", "word": "thread", "wordID": 1459, "conditions": [18, 1200, "v", 18000], "trial": 1, "serialpos": 10, "trial_type": "single-stim", "trial_index": 65, "time_elapsed": 571063, "internal_node_id": "0.0-47.0"}}, {"uniqueid": "MTK0269:3BC8WZX3V43GGSPAXO1Y0NMFHZJRRP", "current_trial": 66, "dateTime": 1510691512331, "trialdata": {"rt": -1, "stimulus": "<p id=\"stim\">VIRUS</p>", "key_press": -1, "type": "PRES_VIS", "word": "virus", "wordID": 1571, "conditions": [18, 1200, "v", 18000], "trial": 1, "serialpos": 11, "trial_type": "single-stim", "trial_index": 66, "time_elapsed": 573158, "internal_node_id": "0.0-48.0"}}, {"uniqueid": "MTK0269:3BC8WZX3V43GGSPAXO1Y0NMFHZJRRP", "current_trial": 67, "dateTime": 1510691514344, "trialdata": {"rt": -1, "stimulus": "<p id=\"stim\">CYCLONE</p>", "key_press": -1, "type": "PRES_VIS", "word": "cyclone", "wordID": 430, "conditions": [18, 1200, "v", 18000], "trial": 1, "serialpos": 12, "trial_type": "single-stim", "trial_index": 67, "time_elapsed": 575171, "internal_node_id": "0.0-49.0"}}, {"uniqueid": "MTK0269:3BC8WZX3V43GGSPAXO1Y0NMFHZJRRP", "current_trial": 68, "dateTime": 1510691516559, "trialdata": {"rt": -1, "stimulus": "<p id=\"stim\">MAPLE</p>", "key_press": -1, "type": "PRES_VIS", "word": "maple", "wordID": 865, "conditions": [18, 1200, "v", 18000], "trial": 1, "serialpos": 13, "trial_type": "single-stim", "trial_index": 68, "time_elapsed": 577385, "internal_node_id": "0.0-50.0"}}, {"uniqueid": "MTK0269:3BC8WZX3V43GGSPAXO1Y0NMFHZJRRP", "current_trial": 69, "dateTime": 1510691518588, "trialdata": {"rt": -1, "stimulus": "<p id=\"stim\">MOTEL</p>", "key_press": -1, "type": "PRES_VIS", "word": "motel", "wordID": 918, "conditions": [18, 1200, "v", 18000], "trial": 1, "serialpos": 14, "trial_type": "single-stim", "trial_index": 69, "time_elapsed": 579415, "internal_node_id": "0.0-51.0"}}, {"uniqueid": "MTK0269:3BC8WZX3V43GGSPAXO1Y0NMFHZJRRP", "current_trial": 70, "dateTime": 1510691520774, "trialdata": {"rt": -1, "stimulus": "<p id=\"stim\">CANAL</p>", "key_press": -1, "type": "PRES_VIS", "word": "canal", "wordID": 225, "conditions": [18, 1200, "v", 18000], "trial": 1, "serialpos": 15, "trial_type": "single-stim", "trial_index": 70, "time_elapsed": 581601, "internal_node_id": "0.0-52.0"}}, {"uniqueid": "MTK0269:3BC8WZX3V43GGSPAXO1Y0NMFHZJRRP", "current_trial": 71, "dateTime": 1510691522851, "trialdata": {"rt": -1, "stimulus": "<p id=\"stim\">PLAID</p>", "key_press": -1, "type": "PRES_VIS", "word": "plaid", "wordID": 1079, "conditions": [18, 1200, "v", 18000], "trial": 1, "serialpos": 16, "trial_type": "single-stim", "trial_index": 71, "time_elapsed": 583678, "internal_node_id": "0.0-53.0"}}, {"uniqueid": "MTK0269:3BC8WZX3V43GGSPAXO1Y0NMFHZJRRP", "current_trial": 72, "dateTime": 1510691525050, "trialdata": {"rt": -1, "stimulus": "<p id=\"stim\">FLASHLIGHT</p>", "key_press": -1, "type": "PRES_VIS", "word": "flashlight", "wordID": 574, "conditions": [18, 1200, "v", 18000], "trial": 1, "serialpos": 17, "trial_type": "single-stim", "trial_index": 72, "time_elapsed": 585877, "internal_node_id": "0.0-54.0"}}, {"uniqueid": "MTK0269:3BC8WZX3V43GGSPAXO1Y0NMFHZJRRP", "current_trial": 73, "dateTime": 1510691527184, "trialdata": {"rt": -1, "stimulus": "", "key_press": -1, "type": "PRE_RECALL_DELAY", "trial_type": "single-stim", "trial_index": 73, "time_elapsed": 588011, "internal_node_id": "0.0-55.0-0.0"}}, {"uniqueid": "MTK0269:3BC8WZX3V43GGSPAXO1Y0NMFHZJRRP", "current_trial": 74, "dateTime": 1510691527692, "trialdata": {"rt": -1000, "stimulus": "/static/audio/400Hz.wav", "key_press": -1, "type": "PRE_RECALL_ALERT", "trial_type": "single-audio", "trial_index": 74, "time_elapsed": 588519, "internal_node_id": "0.0-56.0"}}, {"uniqueid": "MTK0269:3BC8WZX3V43GGSPAXO1Y0NMFHZJRRP", "current_trial": 75, "dateTime": 1510691587696, "trialdata": {"rt": [6407, 9929, 13487, 20578, 25094, 33035, 41398], "recwords": ["grape", "lion", "badge", "valley", "flashlight", "motel", "lapel"], "type": "FREE_RECALL", "conditions": [18, 1200, "v", 18000], "trial": 1, "trial_type": "free-recall", "trial_index": 75, "time_elapsed": 648521, "internal_node_id": "0.0-57.0-0.0"}}, {"uniqueid": "MTK0269:3BC8WZX3V43GGSPAXO1Y0NMFHZJRRP", "current_trial": 76, "dateTime": 1510691599070, "trialdata": {"rt": 9370, "key_press": 32, "type": "INSTRUCTIONS", "trial_type": "text", "trial_index": 76, "time_elapsed": 659895, "internal_node_id": "0.0-58.0"}}, {"uniqueid": "MTK0269:3BC8WZX3V43GGSPAXO1Y0NMFHZJRRP", "current_trial": 77, "dateTime": 1510691624072, "trialdata": {"rt": [3822, 6737, 10727, 13331, 16471, 20686], "responses": ["14", "9", "22", "22", "21", "13"], "num1": [6, 4, 5, 5, 5, 2, 6], "num2": [3, 3, 8, 7, 8, 7, 6], "num3": [5, 2, 9, 2, 8, 4, 8], "type": "DISTRACTOR", "conditions": [12, 1600, "a", 24000], "trial": 2, "trial_type": "math-distractor", "trial_index": 77, "time_elapsed": 684899, "internal_node_id": "0.0-59.0"}}, {"uniqueid": "MTK0269:3BC8WZX3V43GGSPAXO1Y0NMFHZJRRP", "current_trial": 78, "dateTime": 1510691627074, "trialdata": {"rt": -1, "stimulus": "<p id=\"stim\">10</p>", "key_press": -1, "trial_type": "single-stim", "trial_index": 78, "time_elapsed": 687901, "internal_node_id": "0.0-60.0-0.0"}}, {"uniqueid": "MTK0269:3BC8WZX3V43GGSPAXO1Y0NMFHZJRRP", "current_trial": 79, "dateTime": 1510691628075, "trialdata": {"rt": -1, "stimulus": "<p id=\"stim\">9</p>", "key_press": -1, "trial_type": "single-stim", "trial_index": 79, "time_elapsed": 688902, "internal_node_id": "0.0-60.0-1.0"}}, {"uniqueid": "MTK0269:3BC8WZX3V43GGSPAXO1Y0NMFHZJRRP", "current_trial": 80, "dateTime": 1510691629076, "trialdata": {"rt": -1, "stimulus": "<p id=\"stim\">8</p>", "key_press": -1, "trial_type": "single-stim", "trial_index": 80, "time_elapsed": 689903, "internal_node_id": "0.0-60.0-2.0"}}, {"uniqueid": "MTK0269:3BC8WZX3V43GGSPAXO1Y0NMFHZJRRP", "current_trial": 81, "dateTime": 1510691630078, "trialdata": {"rt": -1, "stimulus": "<p id=\"stim\">7</p>", "key_press": -1, "trial_type": "single-stim", "trial_index": 81, "time_elapsed": 690905, "internal_node_id": "0.0-60.0-3.0"}}, {"uniqueid": "MTK0269:3BC8WZX3V43GGSPAXO1Y0NMFHZJRRP", "current_trial": 82, "dateTime": 1510691631080, "trialdata": {"rt": -1, "stimulus": "<p id=\"stim\">6</p>", "key_press": -1, "trial_type": "single-stim", "trial_index": 82, "time_elapsed": 691907, "internal_node_id": "0.0-60.0-4.0"}}, {"uniqueid": "MTK0269:3BC8WZX3V43GGSPAXO1Y0NMFHZJRRP", "current_trial": 83, "dateTime": 1510691632080, "trialdata": {"rt": -1, "stimulus": "<p id=\"stim\">5</p>", "key_press": -1, "trial_type": "single-stim", "trial_index": 83, "time_elapsed": 692907, "internal_node_id": "0.0-60.0-5.0"}}, {"uniqueid": "MTK0269:3BC8WZX3V43GGSPAXO1Y0NMFHZJRRP", "current_trial": 84, "dateTime": 1510691633082, "trialdata": {"rt": -1, "stimulus": "<p id=\"stim\">4</p>", "key_press": -1, "trial_type": "single-stim", "trial_index": 84, "time_elapsed": 693909, "internal_node_id": "0.0-60.0-6.0"}}, {"uniqueid": "MTK0269:3BC8WZX3V43GGSPAXO1Y0NMFHZJRRP", "current_trial": 85, "dateTime": 1510691634083, "trialdata": {"rt": -1, "stimulus": "<p id=\"stim\">3</p>", "key_press": -1, "trial_type": "single-stim", "trial_index": 85, "time_elapsed": 694910, "internal_node_id": "0.0-60.0-7.0"}}, {"uniqueid": "MTK0269:3BC8WZX3V43GGSPAXO1Y0NMFHZJRRP", "current_trial": 86, "dateTime": 1510691635084, "trialdata": {"rt": -1, "stimulus": "<p id=\"stim\">2</p>", "key_press": -1, "trial_type": "single-stim", "trial_index": 86, "time_elapsed": 695911, "internal_node_id": "0.0-60.0-8.0"}}, {"uniqueid": "MTK0269:3BC8WZX3V43GGSPAXO1Y0NMFHZJRRP", "current_trial": 87, "dateTime": 1510691636085, "trialdata": {"rt": -1, "stimulus": "<p id=\"stim\">1</p>", "key_press": -1, "trial_type": "single-stim", "trial_index": 87, "time_elapsed": 696912, "internal_node_id": "0.0-60.0-9.0"}}, {"uniqueid": "MTK0269:3BC8WZX3V43GGSPAXO1Y0NMFHZJRRP", "current_trial": 88, "dateTime": 1510691637587, "trialdata": {"rt": -1, "stimulus": "<p id=\"stim\">+</p>", "key_press": -1, "type": "FIXATION", "trial_type": "single-stim", "trial_index": 88, "time_elapsed": 698414, "internal_node_id": "0.0-61.0-0.0"}}, {"uniqueid": "MTK0269:3BC8WZX3V43GGSPAXO1Y0NMFHZJRRP", "current_trial": 89, "dateTime": 1510691640136, "trialdata": {"rt": -1000, "stimulus": "/static/audio/wordpool/MARKER.wav", "key_press": -1, "type": "PRES_AUD", "word": "marker", "wordID": 869, "conditions": [12, 1600, "a", 24000], "trial": 2, "serialpos": 0, "trial_type": "single-audio", "trial_index": 89, "time_elapsed": 700963, "internal_node_id": "0.0-62.0"}}, {"uniqueid": "MTK0269:3BC8WZX3V43GGSPAXO1Y0NMFHZJRRP", "current_trial": 90, "dateTime": 1510691642685, "trialdata": {"rt": -1000, "stimulus": "/static/audio/wordpool/SALMON.wav", "key_press": -1, "type": "PRES_AUD", "word": "salmon", "wordID": 1226, "conditions": [12, 1600, "a", 24000], "trial": 2, "serialpos": 1, "trial_type": "single-audio", "trial_index": 90, "time_elapsed": 703512, "internal_node_id": "0.0-63.0"}}, {"uniqueid": "MTK0269:3BC8WZX3V43GGSPAXO1Y0NMFHZJRRP", "current_trial": 91, "dateTime": 1510691645246, "trialdata": {"rt": -1000, "stimulus": "/static/audio/wordpool/WAGON.wav", "key_press": -1, "type": "PRES_AUD", "word": "wagon", "wordID": 1577, "conditions": [12, 1600, "a", 24000], "trial": 2, "serialpos": 2, "trial_type": "single-audio", "trial_index": 91, "time_elapsed": 706073, "internal_node_id": "0.0-64.0"}}, {"uniqueid": "MTK0269:3BC8WZX3V43GGSPAXO1Y0NMFHZJRRP", "current_trial": 92, "dateTime": 1510691647761, "trialdata": {"rt": -1000, "stimulus": "/static/audio/wordpool/TRACTOR.wav", "key_press": -1, "type": "PRES_AUD", "word": "tractor", "wordID": 1492, "conditions": [12, 1600, "a", 24000], "trial": 2, "serialpos": 3, "trial_type": "single-audio", "trial_index": 92, "time_elapsed": 708588, "internal_node_id": "0.0-65.0"}}, {"uniqueid": "MTK0269:3BC8WZX3V43GGSPAXO1Y0NMFHZJRRP", "current_trial": 93, "dateTime": 1510691650302, "trialdata": {"rt": -1000, "stimulus": "/static/audio/wordpool/PLASTER.wav", "key_press": -1, "type": "PRES_AUD", "word": "plaster", "wordID": 1084, "conditions": [12, 1600, "a", 24000], "trial": 2, "serialpos": 4, "trial_type": "single-audio", "trial_index": 93, "time_elapsed": 711129, "internal_node_id": "0.0-66.0"}}, {"uniqueid": "MTK0269:3BC8WZX3V43GGSPAXO1Y0NMFHZJRRP", "current_trial": 94, "dateTime": 1510691652765, "trialdata": {"rt": -1000, "stimulus": "/static/audio/wordpool/PREACHER.wav", "key_press": -1, "type": "PRES_AUD", "word": "preacher", "wordID": 1118, "conditions": [12, 1600, "a", 24000], "trial": 2, "serialpos": 5, "trial_type": "single-audio", "trial_index": 94, "time_elapsed": 713592, "internal_node_id": "0.0-67.0"}}, {"uniqueid": "MTK0269:3BC8WZX3V43GGSPAXO1Y0NMFHZJRRP", "current_trial": 95, "dateTime": 1510691655446, "trialdata": {"rt": -1000, "stimulus": "/static/audio/wordpool/CHEMIST.wav", "key_press": -1, "type": "PRES_AUD", "word": "chemist", "wordID": 291, "conditions": [12, 1600, "a", 24000], "trial": 2, "serialpos": 6, "trial_type": "single-audio", "trial_index": 95, "time_elapsed": 716273, "internal_node_id": "0.0-68.0"}}, {"uniqueid": "MTK0269:3BC8WZX3V43GGSPAXO1Y0NMFHZJRRP", "current_trial": 96, "dateTime": 1510691657978, "trialdata": {"rt": -1000, "stimulus": "/static/audio/wordpool/SEAFOOD.wav", "key_press": -1, "type": "PRES_AUD", "word": "seafood", "wordID": 1259, "conditions": [12, 1600, "a", 24000], "trial": 2, "serialpos": 7, "trial_type": "single-audio", "trial_index": 96, "time_elapsed": 718805, "internal_node_id": "0.0-69.0"}}, {"uniqueid": "MTK0269:3BC8WZX3V43GGSPAXO1Y0NMFHZJRRP", "current_trial": 97, "dateTime": 1510691660458, "trialdata": {"rt": -1000, "stimulus": "/static/audio/wordpool/BEEF.wav", "key_press": -1, "type": "PRES_AUD", "word": "beef", "wordID": 112, "conditions": [12, 1600, "a", 24000], "trial": 2, "serialpos": 8, "trial_type": "single-audio", "trial_index": 97, "time_elapsed": 721285, "internal_node_id": "0.0-70.0"}}, {"uniqueid": "MTK0269:3BC8WZX3V43GGSPAXO1Y0NMFHZJRRP", "current_trial": 98, "dateTime": 1510691663237, "trialdata": {"rt": -1000, "stimulus": "/static/audio/wordpool/CHAMPAGNE.wav", "key_press": -1, "type": "PRES_AUD", "word": "champagne", "wordID": 277, "conditions": [12, 1600, "a", 24000], "trial": 2, "serialpos": 9, "trial_type": "single-audio", "trial_index": 98, "time_elapsed": 724064, "internal_node_id": "0.0-71.0"}}, {"uniqueid": "MTK0269:3BC8WZX3V43GGSPAXO1Y0NMFHZJRRP", "current_trial": 99, "dateTime": 1510691666012, "trialdata": {"rt": -1000, "stimulus": "/static/audio/wordpool/SOFTBALL.wav", "key_press": -1, "type": "PRES_AUD", "word": "softball", "wordID": 1342, "conditions": [12, 1600, "a", 24000], "trial": 2, "serialpos": 10, "trial_type": "single-audio", "trial_index": 99, "time_elapsed": 726839, "internal_node_id": "0.0-72.0"}}, {"uniqueid": "MTK0269:3BC8WZX3V43GGSPAXO1Y0NMFHZJRRP", "current_trial": 100, "dateTime": 1510691668622, "trialdata": {"rt": -1000, "stimulus": "/static/audio/wordpool/CLOTHES.wav", "key_press": -1, "type": "PRES_AUD", "word": "clothes", "wordID": 326, "conditions": [12, 1600, "a", 24000], "trial": 2, "serialpos": 11, "trial_type": "single-audio", "trial_index": 100, "time_elapsed": 729449, "internal_node_id": "0.0-73.0"}}, {"uniqueid": "MTK0269:3BC8WZX3V43GGSPAXO1Y0NMFHZJRRP", "current_trial": 101, "dateTime": 1510691669874, "trialdata": {"rt": -1, "stimulus": "", "key_press": -1, "type": "PRE_RECALL_DELAY", "trial_type": "single-stim", "trial_index": 101, "time_elapsed": 730701, "internal_node_id": "0.0-74.0-0.0"}}, {"uniqueid": "MTK0269:3BC8WZX3V43GGSPAXO1Y0NMFHZJRRP", "current_trial": 102, "dateTime": 1510691670383, "trialdata": {"rt": -1000, "stimulus": "/static/audio/400Hz.wav", "key_press": -1, "type": "PRE_RECALL_ALERT", "trial_type": "single-audio", "trial_index": 102, "time_elapsed": 731210, "internal_node_id": "0.0-75.0"}}, {"uniqueid": "MTK0269:3BC8WZX3V43GGSPAXO1Y0NMFHZJRRP", "current_trial": 103, "dateTime": 1510691730384, "trialdata": {"rt": [6252, 10268, 13497, 17130, 21654, 25821, 47650], "recwords": ["seafood", "chemist", "beef", "softball", "creature", "tractor", "chemist"], "type": "FREE_RECALL", "conditions": [12, 1600, "a", 24000], "trial": 2, "trial_type": "free-recall", "trial_index": 103, "time_elapsed": 791210, "internal_node_id": "0.0-76.0-0.0"}}, {"uniqueid": "MTK0269:3BC8WZX3V43GGSPAXO1Y0NMFHZJRRP", "current_trial": 104, "dateTime": 1510691737451, "trialdata": {"rt": 5064, "key_press": 32, "type": "INSTRUCTIONS", "trial_type": "text", "trial_index": 104, "time_elapsed": 798278, "internal_node_id": "0.0-77.0"}}, {"uniqueid": "MTK0269:3BC8WZX3V43GGSPAXO1Y0NMFHZJRRP", "current_trial": 105, "dateTime": 1510691763453, "trialdata": {"rt": [2613, 6378, 9315, 11955, 14678, 19777, 22355], "responses": ["12", "18", "17", "11", "129", "13", "11"], "num1": [3, 4, 8, 4, 4, 2, 2, 3], "num2": [8, 9, 5, 5, 7, 7, 2, 3], "num3": [1, 5, 4, 2, 7, 4, 7, 2], "type": "DISTRACTOR", "conditions": [24, 800, "a", 24000], "trial": 3, "trial_type": "math-distractor", "trial_index": 105, "time_elapsed": 824280, "internal_node_id": "0.0-78.0"}}, {"uniqueid": "MTK0269:3BC8WZX3V43GGSPAXO1Y0NMFHZJRRP", "current_trial": 106, "dateTime": 1510691766455, "trialdata": {"rt": -1, "stimulus": "<p id=\"stim\">10</p>", "key_press": -1, "trial_type": "single-stim", "trial_index": 106, "time_elapsed": 827282, "internal_node_id": "0.0-79.0-0.0"}}, {"uniqueid": "MTK0269:3BC8WZX3V43GGSPAXO1Y0NMFHZJRRP", "current_trial": 107, "dateTime": 1510691767457, "trialdata": {"rt": -1, "stimulus": "<p id=\"stim\">9</p>", "key_press": -1, "trial_type": "single-stim", "trial_index": 107, "time_elapsed": 828284, "internal_node_id": "0.0-79.0-1.0"}}, {"uniqueid": "MTK0269:3BC8WZX3V43GGSPAXO1Y0NMFHZJRRP", "current_trial": 108, "dateTime": 1510691768458, "trialdata": {"rt": -1, "stimulus": "<p id=\"stim\">8</p>", "key_press": -1, "trial_type": "single-stim", "trial_index": 108, "time_elapsed": 829285, "internal_node_id": "0.0-79.0-2.0"}}, {"uniqueid": "MTK0269:3BC8WZX3V43GGSPAXO1Y0NMFHZJRRP", "current_trial": 109, "dateTime": 1510691769459, "trialdata": {"rt": -1, "stimulus": "<p id=\"stim\">7</p>", "key_press": -1, "trial_type": "single-stim", "trial_index": 109, "time_elapsed": 830286, "internal_node_id": "0.0-79.0-3.0"}}, {"uniqueid": "MTK0269:3BC8WZX3V43GGSPAXO1Y0NMFHZJRRP", "current_trial": 110, "dateTime": 1510691770460, "trialdata": {"rt": -1, "stimulus": "<p id=\"stim\">6</p>", "key_press": -1, "trial_type": "single-stim", "trial_index": 110, "time_elapsed": 831287, "internal_node_id": "0.0-79.0-4.0"}}, {"uniqueid": "MTK0269:3BC8WZX3V43GGSPAXO1Y0NMFHZJRRP", "current_trial": 111, "dateTime": 1510691771461, "trialdata": {"rt": -1, "stimulus": "<p id=\"stim\">5</p>", "key_press": -1, "trial_type": "single-stim", "trial_index": 111, "time_elapsed": 832288, "internal_node_id": "0.0-79.0-5.0"}}, {"uniqueid": "MTK0269:3BC8WZX3V43GGSPAXO1Y0NMFHZJRRP", "current_trial": 112, "dateTime": 1510691772463, "trialdata": {"rt": -1, "stimulus": "<p id=\"stim\">4</p>", "key_press": -1, "trial_type": "single-stim", "trial_index": 112, "time_elapsed": 833290, "internal_node_id": "0.0-79.0-6.0"}}, {"uniqueid": "MTK0269:3BC8WZX3V43GGSPAXO1Y0NMFHZJRRP", "current_trial": 113, "dateTime": 1510691773465, "trialdata": {"rt": -1, "stimulus": "<p id=\"stim\">3</p>", "key_press": -1, "trial_type": "single-stim", "trial_index": 113, "time_elapsed": 834292, "internal_node_id": "0.0-79.0-7.0"}}, {"uniqueid": "MTK0269:3BC8WZX3V43GGSPAXO1Y0NMFHZJRRP", "current_trial": 114, "dateTime": 1510691774466, "trialdata": {"rt": -1, "stimulus": "<p id=\"stim\">2</p>", "key_press": -1, "trial_type": "single-stim", "trial_index": 114, "time_elapsed": 835293, "internal_node_id": "0.0-79.0-8.0"}}, {"uniqueid": "MTK0269:3BC8WZX3V43GGSPAXO1Y0NMFHZJRRP", "current_trial": 115, "dateTime": 1510691775467, "trialdata": {"rt": -1, "stimulus": "<p id=\"stim\">1</p>", "key_press": -1, "trial_type": "single-stim", "trial_index": 115, "time_elapsed": 836294, "internal_node_id": "0.0-79.0-9.0"}}, {"uniqueid": "MTK0269:3BC8WZX3V43GGSPAXO1Y0NMFHZJRRP", "current_trial": 116, "dateTime": 1510691776969, "trialdata": {"rt": -1, "stimulus": "<p id=\"stim\">+</p>", "key_press": -1, "type": "FIXATION", "trial_type": "single-stim", "trial_index": 116, "time_elapsed": 837796, "internal_node_id": "0.0-80.0-0.0"}}, {"uniqueid": "MTK0269:3BC8WZX3V43GGSPAXO1Y0NMFHZJRRP", "current_trial": 117, "dateTime": 1510691778735, "trialdata": {"rt": -1000, "stimulus": "/static/audio/wordpool/CRIB.wav", "key_press": -1, "type": "PRES_AUD", "word": "crib", "wordID": 406, "conditions": [24, 800, "a", 24000], "trial": 3, "serialpos": 0, "trial_type": "single-audio", "trial_index": 117, "time_elapsed": 839562, "internal_node_id": "0.0-81.0"}}, {"uniqueid": "MTK0269:3BC8WZX3V43GGSPAXO1Y0NMFHZJRRP", "current_trial": 118, "dateTime": 1510691780536, "trialdata": {"rt": -1000, "stimulus": "/static/audio/wordpool/SPOUSE.wav", "key_press": -1, "type": "PRES_AUD", "word": "spouse", "wordID": 1357, "conditions": [24, 800, "a", 24000], "trial": 3, "serialpos": 1, "trial_type": "single-audio", "trial_index": 118, "time_elapsed": 841363, "internal_node_id": "0.0-82.0"}}, {"uniqueid": "MTK0269:3BC8WZX3V43GGSPAXO1Y0NMFHZJRRP", "current_trial": 119, "dateTime": 1510691782214, "trialdata": {"rt": -1000, "stimulus": "/static/audio/wordpool/OFFICE.wav", "key_press": -1, "type": "PRES_AUD", "word": "office", "wordID": 971, "conditions": [24, 800, "a", 24000], "trial": 3, "serialpos": 2, "trial_type": "single-audio", "trial_index": 119, "time_elapsed": 843041, "internal_node_id": "0.0-83.0"}}, {"uniqueid": "MTK0269:3BC8WZX3V43GGSPAXO1Y0NMFHZJRRP", "current_trial": 120, "dateTime": 1510691784079, "trialdata": {"rt": -1000, "stimulus": "/static/audio/wordpool/MAMMAL.wav", "key_press": -1, "type": "PRES_AUD", "word": "mammal", "wordID": 860, "conditions": [24, 800, "a", 24000], "trial": 3, "serialpos": 3, "trial_type": "single-audio", "trial_index": 120, "time_elapsed": 844906, "internal_node_id": "0.0-84.0"}}, {"uniqueid": "MTK0269:3BC8WZX3V43GGSPAXO1Y0NMFHZJRRP", "current_trial": 121, "dateTime": 1510691785915, "trialdata": {"rt": -1000, "stimulus": "/static/audio/wordpool/CELLAR.wav", "key_press": -1, "type": "PRES_AUD", "word": "cellar", "wordID": 266, "conditions": [24, 800, "a", 24000], "trial": 3, "serialpos": 4, "trial_type": "single-audio", "trial_index": 121, "time_elapsed": 846742, "internal_node_id": "0.0-85.0"}}, {"uniqueid": "MTK0269:3BC8WZX3V43GGSPAXO1Y0NMFHZJRRP", "current_trial": 122, "dateTime": 1510691787632, "trialdata": {"rt": -1000, "stimulus": "/static/audio/wordpool/BASEMENT.wav", "key_press": -1, "type": "PRES_AUD", "word": "basement", "wordID": 93, "conditions": [24, 800, "a", 24000], "trial": 3, "serialpos": 5, "trial_type": "single-audio", "trial_index": 122, "time_elapsed": 848458, "internal_node_id": "0.0-86.0"}}, {"uniqueid": "MTK0269:3BC8WZX3V43GGSPAXO1Y0NMFHZJRRP", "current_trial": 123, "dateTime": 1510691789400, "trialdata": {"rt": -1000, "stimulus": "/static/audio/wordpool/HUSBAND.wav", "key_press": -1, "type": "PRES_AUD", "word": "husband", "wordID": 727, "conditions": [24, 800, "a", 24000], "trial": 3, "serialpos": 6, "trial_type": "single-audio", "trial_index": 123, "time_elapsed": 850227, "internal_node_id": "0.0-87.0"}}, {"uniqueid": "MTK0269:3BC8WZX3V43GGSPAXO1Y0NMFHZJRRP", "current_trial": 124, "dateTime": 1510691791024, "trialdata": {"rt": -1000, "stimulus": "/static/audio/wordpool/BRIEFCASE.wav", "key_press": -1, "type": "PRES_AUD", "word": "briefcase", "wordID": 174, "conditions": [24, 800, "a", 24000], "trial": 3, "serialpos": 7, "trial_type": "single-audio", "trial_index": 124, "time_elapsed": 851851, "internal_node_id": "0.0-88.0"}}, {"uniqueid": "MTK0269:3BC8WZX3V43GGSPAXO1Y0NMFHZJRRP", "current_trial": 125, "dateTime": 1510691793000, "trialdata": {"rt": -1000, "stimulus": "/static/audio/wordpool/GIRL.wav", "key_press": -1, "type": "PRES_AUD", "word": "girl", "wordID": 636, "conditions": [24, 800, "a", 24000], "trial": 3, "serialpos": 8, "trial_type": "single-audio", "trial_index": 125, "time_elapsed": 853827, "internal_node_id": "0.0-89.0"}}, {"uniqueid": "MTK0269:3BC8WZX3V43GGSPAXO1Y0NMFHZJRRP", "current_trial": 126, "dateTime": 1510691794626, "trialdata": {"rt": -1000, "stimulus": "/static/audio/wordpool/GUITAR.wav", "key_press": -1, "type": "PRES_AUD", "word": "guitar", "wordID": 669, "conditions": [24, 800, "a", 24000], "trial": 3, "serialpos": 9, "trial_type": "single-audio", "trial_index": 126, "time_elapsed": 855453, "internal_node_id": "0.0-90.0"}}, {"uniqueid": "MTK0269:3BC8WZX3V43GGSPAXO1Y0NMFHZJRRP", "current_trial": 127, "dateTime": 1510691796605, "trialdata": {"rt": -1000, "stimulus": "/static/audio/wordpool/DRUG.wav", "key_press": -1, "type": "PRES_AUD", "word": "drug", "wordID": 500, "conditions": [24, 800, "a", 24000], "trial": 3, "serialpos": 10, "trial_type": "single-audio", "trial_index": 127, "time_elapsed": 857432, "internal_node_id": "0.0-91.0"}}, {"uniqueid": "MTK0269:3BC8WZX3V43GGSPAXO1Y0NMFHZJRRP", "current_trial": 128, "dateTime": 1510691798233, "trialdata": {"rt": -1000, "stimulus": "/static/audio/wordpool/SHERIFF.wav", "key_press": -1, "type": "PRES_AUD", "word": "sheriff", "wordID": 1283, "conditions": [24, 800, "a", 24000], "trial": 3, "serialpos": 11, "trial_type": "single-audio", "trial_index": 128, "time_elapsed": 859060, "internal_node_id": "0.0-92.0"}}, {"uniqueid": "MTK0269:3BC8WZX3V43GGSPAXO1Y0NMFHZJRRP", "current_trial": 129, "dateTime": 1510691800122, "trialdata": {"rt": -1000, "stimulus": "/static/audio/wordpool/PEACH.wav", "key_press": -1, "type": "PRES_AUD", "word": "peach", "wordID": 1030, "conditions": [24, 800, "a", 24000], "trial": 3, "serialpos": 12, "trial_type": "single-audio", "trial_index": 129, "time_elapsed": 860949, "internal_node_id": "0.0-93.0"}}, {"uniqueid": "MTK0269:3BC8WZX3V43GGSPAXO1Y0NMFHZJRRP", "current_trial": 130, "dateTime": 1510691802014, "trialdata": {"rt": -1000, "stimulus": "/static/audio/wordpool/PLIERS.wav", "key_press": -1, "type": "PRES_AUD", "word": "pliers", "wordID": 1088, "conditions": [24, 800, "a", 24000], "trial": 3, "serialpos": 13, "trial_type": "single-audio", "trial_index": 130, "time_elapsed": 862841, "internal_node_id": "0.0-94.0"}}, {"uniqueid": "MTK0269:3BC8WZX3V43GGSPAXO1Y0NMFHZJRRP", "current_trial": 131, "dateTime": 1510691803781, "trialdata": {"rt": -1000, "stimulus": "/static/audio/wordpool/JUGGLER.wav", "key_press": -1, "type": "PRES_AUD", "word": "juggler", "wordID": 762, "conditions": [24, 800, "a", 24000], "trial": 3, "serialpos": 14, "trial_type": "single-audio", "trial_index": 131, "time_elapsed": 864608, "internal_node_id": "0.0-95.0"}}, {"uniqueid": "MTK0269:3BC8WZX3V43GGSPAXO1Y0NMFHZJRRP", "current_trial": 132, "dateTime": 1510691805467, "trialdata": {"rt": -1000, "stimulus": "/static/audio/wordpool/BUGGY.wav", "key_press": -1, "type": "PRES_AUD", "word": "buggy", "wordID": 187, "conditions": [24, 800, "a", 24000], "trial": 3, "serialpos": 15, "trial_type": "single-audio", "trial_index": 132, "time_elapsed": 866294, "internal_node_id": "0.0-96.0"}}, {"uniqueid": "MTK0269:3BC8WZX3V43GGSPAXO1Y0NMFHZJRRP", "current_trial": 133, "dateTime": 1510691807332, "trialdata": {"rt": -1000, "stimulus": "/static/audio/wordpool/TURTLE.wav", "key_press": -1, "type": "PRES_AUD", "word": "turtle", "wordID": 1521, "conditions": [24, 800, "a", 24000], "trial": 3, "serialpos": 16, "trial_type": "single-audio", "trial_index": 133, "time_elapsed": 868159, "internal_node_id": "0.0-97.0"}}, {"uniqueid": "MTK0269:3BC8WZX3V43GGSPAXO1Y0NMFHZJRRP", "current_trial": 134, "dateTime": 1510691809245, "trialdata": {"rt": -1000, "stimulus": "/static/audio/wordpool/FLOWER.wav", "key_press": -1, "type": "PRES_AUD", "word": "flower", "wordID": 583, "conditions": [24, 800, "a", 24000], "trial": 3, "serialpos": 17, "trial_type": "single-audio", "trial_index": 134, "time_elapsed": 870072, "internal_node_id": "0.0-98.0"}}, {"uniqueid": "MTK0269:3BC8WZX3V43GGSPAXO1Y0NMFHZJRRP", "current_trial": 135, "dateTime": 1510691810913, "trialdata": {"rt": -1000, "stimulus": "/static/audio/wordpool/RIFLE.wav", "key_press": -1, "type": "PRES_AUD", "word": "rifle", "wordID": 1191, "conditions": [24, 800, "a", 24000], "trial": 3, "serialpos": 18, "trial_type": "single-audio", "trial_index": 135, "time_elapsed": 871740, "internal_node_id": "0.0-99.0"}}, {"uniqueid": "MTK0269:3BC8WZX3V43GGSPAXO1Y0NMFHZJRRP", "current_trial": 136, "dateTime": 1510691812790, "trialdata": {"rt": -1000, "stimulus": "/static/audio/wordpool/SODA.wav", "key_press": -1, "type": "PRES_AUD", "word": "soda", "wordID": 1340, "conditions": [24, 800, "a", 24000], "trial": 3, "serialpos": 19, "trial_type": "single-audio", "trial_index": 136, "time_elapsed": 873617, "internal_node_id": "0.0-100.0"}}, {"uniqueid": "MTK0269:3BC8WZX3V43GGSPAXO1Y0NMFHZJRRP", "current_trial": 137, "dateTime": 1510691814694, "trialdata": {"rt": -1000, "stimulus": "/static/audio/wordpool/SPARROW.wav", "key_press": -1, "type": "PRES_AUD", "word": "sparrow", "wordID": 1346, "conditions": [24, 800, "a", 24000], "trial": 3, "serialpos": 20, "trial_type": "single-audio", "trial_index": 137, "time_elapsed": 875521, "internal_node_id": "0.0-101.0"}}, {"uniqueid": "MTK0269:3BC8WZX3V43GGSPAXO1Y0NMFHZJRRP", "current_trial": 138, "dateTime": 1510691816333, "trialdata": {"rt": -1000, "stimulus": "/static/audio/wordpool/ROBIN.wav", "key_press": -1, "type": "PRES_AUD", "word": "robin", "wordID": 1198, "conditions": [24, 800, "a", 24000], "trial": 3, "serialpos": 21, "trial_type": "single-audio", "trial_index": 138, "time_elapsed": 877159, "internal_node_id": "0.0-102.0"}}, {"uniqueid": "MTK0269:3BC8WZX3V43GGSPAXO1Y0NMFHZJRRP", "current_trial": 139, "dateTime": 1510691818052, "trialdata": {"rt": -1000, "stimulus": "/static/audio/wordpool/TRANSPLANT.wav", "key_press": -1, "type": "PRES_AUD", "word": "transplant", "wordID": 1495, "conditions": [24, 800, "a", 24000], "trial": 3, "serialpos": 22, "trial_type": "single-audio", "trial_index": 139, "time_elapsed": 878879, "internal_node_id": "0.0-103.0"}}, {"uniqueid": "MTK0269:3BC8WZX3V43GGSPAXO1Y0NMFHZJRRP", "current_trial": 140, "dateTime": 1510691819820, "trialdata": {"rt": -1000, "stimulus": "/static/audio/wordpool/SNACK.wav", "key_press": -1, "type": "PRES_AUD", "word": "snack", "wordID": 1330, "conditions": [24, 800, "a", 24000], "trial": 3, "serialpos": 23, "trial_type": "single-audio", "trial_index": 140, "time_elapsed": 880647, "internal_node_id": "0.0-104.0"}}, {"uniqueid": "MTK0269:3BC8WZX3V43GGSPAXO1Y0NMFHZJRRP", "current_trial": 141, "dateTime": 1510691821087, "trialdata": {"rt": -1, "stimulus": "", "key_press": -1, "type": "PRE_RECALL_DELAY", "trial_type": "single-stim", "trial_index": 141, "time_elapsed": 881914, "internal_node_id": "0.0-105.0-0.0"}}, {"uniqueid": "MTK0269:3BC8WZX3V43GGSPAXO1Y0NMFHZJRRP", "current_trial": 142, "dateTime": 1510691821594, "trialdata": {"rt": -1000, "stimulus": "/static/audio/400Hz.wav", "key_press": -1, "type": "PRE_RECALL_ALERT", "trial_type": "single-audio", "trial_index": 142, "time_elapsed": 882421, "internal_node_id": "0.0-106.0"}}, {"uniqueid": "MTK0269:3BC8WZX3V43GGSPAXO1Y0NMFHZJRRP", "current_trial": 143, "dateTime": 1510691881595, "trialdata": {"rt": [7970, 13565, 19123, 22134, 25970, 36301, 43666, 49231, 52992, 57309], "recwords": ["snacks", "office", "sherrif", "celler", "basement", "pliers", "buggy", "guitar", "turtle", "flower"], "type": "FREE_RECALL", "conditions": [24, 800, "a", 24000], "trial": 3, "trial_type": "free-recall", "trial_index": 143, "time_elapsed": 942421, "internal_node_id": "0.0-107.0-0.0"}}, {"uniqueid": "MTK0269:3BC8WZX3V43GGSPAXO1Y0NMFHZJRRP", "current_trial": 144, "dateTime": 1510691903292, "trialdata": {"rt": 19695, "key_press": 32, "type": "INSTRUCTIONS", "trial_type": "text", "trial_index": 144, "time_elapsed": 964119, "internal_node_id": "0.0-108.0"}}, {"uniqueid": "MTK0269:3BC8WZX3V43GGSPAXO1Y0NMFHZJRRP", "current_trial": 145, "dateTime": 1510691917294, "trialdata": {"rt": [2899, 5459, 8049], "responses": ["16", "14", "23"], "num1": [7, 4, 5, 5], "num2": [7, 8, 9, 8], "num3": [2, 2, 9, 9], "type": "DISTRACTOR", "conditions": [24, 1600, "a", 12000], "trial": 4, "trial_type": "math-distractor", "trial_index": 145, "time_elapsed": 978121, "internal_node_id": "0.0-109.0"}}, {"uniqueid": "MTK0269:3BC8WZX3V43GGSPAXO1Y0NMFHZJRRP", "current_trial": 146, "dateTime": 1510691920297, "trialdata": {"rt": -1, "stimulus": "<p id=\"stim\">10</p>", "key_press": -1, "trial_type": "single-stim", "trial_index": 146, "time_elapsed": 981124, "internal_node_id": "0.0-110.0-0.0"}}, {"uniqueid": "MTK0269:3BC8WZX3V43GGSPAXO1Y0NMFHZJRRP", "current_trial": 147, "dateTime": 1510691921298, "trialdata": {"rt": -1, "stimulus": "<p id=\"stim\">9</p>", "key_press": -1, "trial_type": "single-stim", "trial_index": 147, "time_elapsed": 982125, "internal_node_id": "0.0-110.0-1.0"}}, {"uniqueid": "MTK0269:3BC8WZX3V43GGSPAXO1Y0NMFHZJRRP", "current_trial": 148, "dateTime": 1510691922300, "trialdata": {"rt": -1, "stimulus": "<p id=\"stim\">8</p>", "key_press": -1, "trial_type": "single-stim", "trial_index": 148, "time_elapsed": 983127, "internal_node_id": "0.0-110.0-2.0"}}, {"uniqueid": "MTK0269:3BC8WZX3V43GGSPAXO1Y0NMFHZJRRP", "current_trial": 149, "dateTime": 1510691923301, "trialdata": {"rt": -1, "stimulus": "<p id=\"stim\">7</p>", "key_press": -1, "trial_type": "single-stim", "trial_index": 149, "time_elapsed": 984128, "internal_node_id": "0.0-110.0-3.0"}}, {"uniqueid": "MTK0269:3BC8WZX3V43GGSPAXO1Y0NMFHZJRRP", "current_trial": 150, "dateTime": 1510691924302, "trialdata": {"rt": -1, "stimulus": "<p id=\"stim\">6</p>", "key_press": -1, "trial_type": "single-stim", "trial_index": 150, "time_elapsed": 985129, "internal_node_id": "0.0-110.0-4.0"}}, {"uniqueid": "MTK0269:3BC8WZX3V43GGSPAXO1Y0NMFHZJRRP", "current_trial": 151, "dateTime": 1510691925304, "trialdata": {"rt": -1, "stimulus": "<p id=\"stim\">5</p>", "key_press": -1, "trial_type": "single-stim", "trial_index": 151, "time_elapsed": 986131, "internal_node_id": "0.0-110.0-5.0"}}, {"uniqueid": "MTK0269:3BC8WZX3V43GGSPAXO1Y0NMFHZJRRP", "current_trial": 152, "dateTime": 1510691926306, "trialdata": {"rt": -1, "stimulus": "<p id=\"stim\">4</p>", "key_press": -1, "trial_type": "single-stim", "trial_index": 152, "time_elapsed": 987133, "internal_node_id": "0.0-110.0-6.0"}}, {"uniqueid": "MTK0269:3BC8WZX3V43GGSPAXO1Y0NMFHZJRRP", "current_trial": 153, "dateTime": 1510691927307, "trialdata": {"rt": -1, "stimulus": "<p id=\"stim\">3</p>", "key_press": -1, "trial_type": "single-stim", "trial_index": 153, "time_elapsed": 988134, "internal_node_id": "0.0-110.0-7.0"}}, {"uniqueid": "MTK0269:3BC8WZX3V43GGSPAXO1Y0NMFHZJRRP", "current_trial": 154, "dateTime": 1510691928308, "trialdata": {"rt": -1, "stimulus": "<p id=\"stim\">2</p>", "key_press": -1, "trial_type": "single-stim", "trial_index": 154, "time_elapsed": 989135, "internal_node_id": "0.0-110.0-8.0"}}, {"uniqueid": "MTK0269:3BC8WZX3V43GGSPAXO1Y0NMFHZJRRP", "current_trial": 155, "dateTime": 1510691929310, "trialdata": {"rt": -1, "stimulus": "<p id=\"stim\">1</p>", "key_press": -1, "trial_type": "single-stim", "trial_index": 155, "time_elapsed": 990137, "internal_node_id": "0.0-110.0-9.0"}}, {"uniqueid": "MTK0269:3BC8WZX3V43GGSPAXO1Y0NMFHZJRRP", "current_trial": 156, "dateTime": 1510691930811, "trialdata": {"rt": -1, "stimulus": "<p id=\"stim\">+</p>", "key_press": -1, "type": "FIXATION", "trial_type": "single-stim", "trial_index": 156, "time_elapsed": 991638, "internal_node_id": "0.0-111.0-0.0"}}, {"uniqueid": "MTK0269:3BC8WZX3V43GGSPAXO1Y0NMFHZJRRP", "current_trial": 157, "dateTime": 1510691933513, "trialdata": {"rt": -1000, "stimulus": "/static/audio/wordpool/EUROPE.wav", "key_press": -1, "type": "PRES_AUD", "word": "europe", "wordID": 540, "conditions": [24, 1600, "a", 12000], "trial": 4, "serialpos": 0, "trial_type": "single-audio", "trial_index": 157, "time_elapsed": 994340, "internal_node_id": "0.0-112.0"}}, {"uniqueid": "MTK0269:3BC8WZX3V43GGSPAXO1Y0NMFHZJRRP", "current_trial": 158, "dateTime": 1510691936297, "trialdata": {"rt": -1000, "stimulus": "/static/audio/wordpool/EYELASH.wav", "key_press": -1, "type": "PRES_AUD", "word": "eyelash", "wordID": 545, "conditions": [24, 1600, "a", 12000], "trial": 4, "serialpos": 1, "trial_type": "single-audio", "trial_index": 158, "time_elapsed": 997124, "internal_node_id": "0.0-113.0"}}, {"uniqueid": "MTK0269:3BC8WZX3V43GGSPAXO1Y0NMFHZJRRP", "current_trial": 159, "dateTime": 1510691939087, "trialdata": {"rt": -1000, "stimulus": "/static/audio/wordpool/AUTHOR.wav", "key_press": -1, "type": "PRES_AUD", "word": "author", "wordID": 60, "conditions": [24, 1600, "a", 12000], "trial": 4, "serialpos": 2, "trial_type": "single-audio", "trial_index": 159, "time_elapsed": 999914, "internal_node_id": "0.0-114.0"}}, {"uniqueid": "MTK0269:3BC8WZX3V43GGSPAXO1Y0NMFHZJRRP", "current_trial": 160, "dateTime": 1510691941670, "trialdata": {"rt": -1000, "stimulus": "/static/audio/wordpool/EGYPT.wav", "key_press": -1, "type": "PRES_AUD", "word": "egypt", "wordID": 518, "conditions": [24, 1600, "a", 12000], "trial": 4, "serialpos": 3, "trial_type": "single-audio", "trial_index": 160, "time_elapsed": 1002497, "internal_node_id": "0.0-115.0"}}, {"uniqueid": "MTK0269:3BC8WZX3V43GGSPAXO1Y0NMFHZJRRP", "current_trial": 161, "dateTime": 1510691944351, "trialdata": {"rt": -1000, "stimulus": "/static/audio/wordpool/HELMET.wav", "key_press": -1, "type": "PRES_AUD", "word": "helmet", "wordID": 701, "conditions": [24, 1600, "a", 12000], "trial": 4, "serialpos": 4, "trial_type": "single-audio", "trial_index": 161, "time_elapsed": 1005178, "internal_node_id": "0.0-116.0"}}, {"uniqueid": "MTK0269:3BC8WZX3V43GGSPAXO1Y0NMFHZJRRP", "current_trial": 162, "dateTime": 1510691946823, "trialdata": {"rt": -1000, "stimulus": "/static/audio/wordpool/MARINE.wav", "key_press": -1, "type": "PRES_AUD", "word": "marine", "wordID": 868, "conditions": [24, 1600, "a", 12000], "trial": 4, "serialpos": 5, "trial_type": "single-audio", "trial_index": 162, "time_elapsed": 1007650, "internal_node_id": "0.0-117.0"}}, {"uniqueid": "MTK0269:3BC8WZX3V43GGSPAXO1Y0NMFHZJRRP", "current_trial": 163, "dateTime": 1510691949278, "trialdata": {"rt": -1000, "stimulus": "/static/audio/wordpool/OZONE.wav", "key_press": -1, "type": "PRES_AUD", "word": "ozone", "wordID": 995, "conditions": [24, 1600, "a", 12000], "trial": 4, "serialpos": 6, "trial_type": "single-audio", "trial_index": 163, "time_elapsed": 1010105, "internal_node_id": "0.0-118.0"}}, {"uniqueid": "MTK0269:3BC8WZX3V43GGSPAXO1Y0NMFHZJRRP", "current_trial": 164, "dateTime": 1510691951961, "trialdata": {"rt": -1000, "stimulus": "/static/audio/wordpool/DUST.wav", "key_press": -1, "type": "PRES_AUD", "word": "dust", "wordID": 507, "conditions": [24, 1600, "a", 12000], "trial": 4, "serialpos": 7, "trial_type": "single-audio", "trial_index": 164, "time_elapsed": 1012788, "internal_node_id": "0.0-119.0"}}, {"uniqueid": "MTK0269:3BC8WZX3V43GGSPAXO1Y0NMFHZJRRP", "current_trial": 165, "dateTime": 1510691954676, "trialdata": {"rt": -1000, "stimulus": "/static/audio/wordpool/FRIEND.wav", "key_press": -1, "type": "PRES_AUD", "word": "friend", "wordID": 605, "conditions": [24, 1600, "a", 12000], "trial": 4, "serialpos": 8, "trial_type": "single-audio", "trial_index": 165, "time_elapsed": 1015503, "internal_node_id": "0.0-120.0"}}, {"uniqueid": "MTK0269:3BC8WZX3V43GGSPAXO1Y0NMFHZJRRP", "current_trial": 166, "dateTime": 1510691957150, "trialdata": {"rt": -1000, "stimulus": "/static/audio/wordpool/APPLE.wav", "key_press": -1, "type": "PRES_AUD", "word": "apple", "wordID": 32, "conditions": [24, 1600, "a", 12000], "trial": 4, "serialpos": 9, "trial_type": "single-audio", "trial_index": 166, "time_elapsed": 1017977, "internal_node_id": "0.0-121.0"}}, {"uniqueid": "MTK0269:3BC8WZX3V43GGSPAXO1Y0NMFHZJRRP", "current_trial": 167, "dateTime": 1510691959730, "trialdata": {"rt": -1000, "stimulus": "/static/audio/wordpool/FRUIT.wav", "key_press": -1, "type": "PRES_AUD", "word": "fruit", "wordID": 609, "conditions": [24, 1600, "a", 12000], "trial": 4, "serialpos": 10, "trial_type": "single-audio", "trial_index": 167, "time_elapsed": 1020557, "internal_node_id": "0.0-122.0"}}, {"uniqueid": "MTK0269:3BC8WZX3V43GGSPAXO1Y0NMFHZJRRP", "current_trial": 168, "dateTime": 1510691962540, "trialdata": {"rt": -1000, "stimulus": "/static/audio/wordpool/FEMALE.wav", "key_press": -1, "type": "PRES_AUD", "word": "female", "wordID": 558, "conditions": [24, 1600, "a", 12000], "trial": 4, "serialpos": 11, "trial_type": "single-audio", "trial_index": 168, "time_elapsed": 1023367, "internal_node_id": "0.0-123.0"}}, {"uniqueid": "MTK0269:3BC8WZX3V43GGSPAXO1Y0NMFHZJRRP", "current_trial": 169, "dateTime": 1510691964945, "trialdata": {"rt": -1000, "stimulus": "/static/audio/wordpool/SPIDER.wav", "key_press": -1, "type": "PRES_AUD", "word": "spider", "wordID": 1350, "conditions": [24, 1600, "a", 12000], "trial": 4, "serialpos": 12, "trial_type": "single-audio", "trial_index": 169, "time_elapsed": 1025772, "internal_node_id": "0.0-124.0"}}, {"uniqueid": "MTK0269:3BC8WZX3V43GGSPAXO1Y0NMFHZJRRP", "current_trial": 170, "dateTime": 1510691967624, "trialdata": {"rt": -1000, "stimulus": "/static/audio/wordpool/MUSTARD.wav", "key_press": -1, "type": "PRES_AUD", "word": "mustard", "wordID": 934, "conditions": [24, 1600, "a", 12000], "trial": 4, "serialpos": 13, "trial_type": "single-audio", "trial_index": 170, "time_elapsed": 1028451, "internal_node_id": "0.0-125.0"}}, {"uniqueid": "MTK0269:3BC8WZX3V43GGSPAXO1Y0NMFHZJRRP", "current_trial": 171, "dateTime": 1510691970062, "trialdata": {"rt": -1000, "stimulus": "/static/audio/wordpool/MARROW.wav", "key_press": -1, "type": "PRES_AUD", "word": "marrow", "wordID": 871, "conditions": [24, 1600, "a", 12000], "trial": 4, "serialpos": 14, "trial_type": "single-audio", "trial_index": 171, "time_elapsed": 1030889, "internal_node_id": "0.0-126.0"}}, {"uniqueid": "MTK0269:3BC8WZX3V43GGSPAXO1Y0NMFHZJRRP", "current_trial": 172, "dateTime": 1510691972679, "trialdata": {"rt": -1000, "stimulus": "/static/audio/wordpool/SKETCH.wav", "key_press": -1, "type": "PRES_AUD", "word": "sketch", "wordID": 1314, "conditions": [24, 1600, "a", 12000], "trial": 4, "serialpos": 15, "trial_type": "single-audio", "trial_index": 172, "time_elapsed": 1033506, "internal_node_id": "0.0-127.0"}}, {"uniqueid": "MTK0269:3BC8WZX3V43GGSPAXO1Y0NMFHZJRRP", "current_trial": 173, "dateTime": 1510691975182, "trialdata": {"rt": -1000, "stimulus": "/static/audio/wordpool/SCULPTURE.wav", "key_press": -1, "type": "PRES_AUD", "word": "sculpture", "wordID": 1257, "conditions": [24, 1600, "a", 12000], "trial": 4, "serialpos": 16, "trial_type": "single-audio", "trial_index": 173, "time_elapsed": 1036009, "internal_node_id": "0.0-128.0"}}, {"uniqueid": "MTK0269:3BC8WZX3V43GGSPAXO1Y0NMFHZJRRP", "current_trial": 174, "dateTime": 1510691977702, "trialdata": {"rt": -1000, "stimulus": "/static/audio/wordpool/JUDGE.wav", "key_press": -1, "type": "PRES_AUD", "word": "judge", "wordID": 760, "conditions": [24, 1600, "a", 12000], "trial": 4, "serialpos": 17, "trial_type": "single-audio", "trial_index": 174, "time_elapsed": 1038529, "internal_node_id": "0.0-129.0"}}, {"uniqueid": "MTK0269:3BC8WZX3V43GGSPAXO1Y0NMFHZJRRP", "current_trial": 175, "dateTime": 1510691980433, "trialdata": {"rt": -1000, "stimulus": "/static/audio/wordpool/JURY.wav", "key_press": -1, "type": "PRES_AUD", "word": "jury", "wordID": 765, "conditions": [24, 1600, "a", 12000], "trial": 4, "serialpos": 18, "trial_type": "single-audio", "trial_index": 175, "time_elapsed": 1041260, "internal_node_id": "0.0-130.0"}}, {"uniqueid": "MTK0269:3BC8WZX3V43GGSPAXO1Y0NMFHZJRRP", "current_trial": 176, "dateTime": 1510691983221, "trialdata": {"rt": -1000, "stimulus": "/static/audio/wordpool/STATUE.wav", "key_press": -1, "type": "PRES_AUD", "word": "statue", "wordID": 1373, "conditions": [24, 1600, "a", 12000], "trial": 4, "serialpos": 19, "trial_type": "single-audio", "trial_index": 176, "time_elapsed": 1044047, "internal_node_id": "0.0-131.0"}}, {"uniqueid": "MTK0269:3BC8WZX3V43GGSPAXO1Y0NMFHZJRRP", "current_trial": 177, "dateTime": 1510691985667, "trialdata": {"rt": -1000, "stimulus": "/static/audio/wordpool/DRAWING.wav", "key_press": -1, "type": "PRES_AUD", "word": "drawing", "wordID": 493, "conditions": [24, 1600, "a", 12000], "trial": 4, "serialpos": 20, "trial_type": "single-audio", "trial_index": 177, "time_elapsed": 1046494, "internal_node_id": "0.0-132.0"}}, {"uniqueid": "MTK0269:3BC8WZX3V43GGSPAXO1Y0NMFHZJRRP", "current_trial": 178, "dateTime": 1510691988158, "trialdata": {"rt": -1000, "stimulus": "/static/audio/wordpool/LIPSTICK.wav", "key_press": -1, "type": "PRES_AUD", "word": "lipstick", "wordID": 828, "conditions": [24, 1600, "a", 12000], "trial": 4, "serialpos": 21, "trial_type": "single-audio", "trial_index": 178, "time_elapsed": 1048985, "internal_node_id": "0.0-133.0"}}, {"uniqueid": "MTK0269:3BC8WZX3V43GGSPAXO1Y0NMFHZJRRP", "current_trial": 179, "dateTime": 1510691990599, "trialdata": {"rt": -1000, "stimulus": "/static/audio/wordpool/LABEL.wav", "key_press": -1, "type": "PRES_AUD", "word": "label", "wordID": 789, "conditions": [24, 1600, "a", 12000], "trial": 4, "serialpos": 22, "trial_type": "single-audio", "trial_index": 179, "time_elapsed": 1051426, "internal_node_id": "0.0-134.0"}}, {"uniqueid": "MTK0269:3BC8WZX3V43GGSPAXO1Y0NMFHZJRRP", "current_trial": 180, "dateTime": 1510691993201, "trialdata": {"rt": -1000, "stimulus": "/static/audio/wordpool/SLIDE.wav", "key_press": -1, "type": "PRES_AUD", "word": "slide", "wordID": 1325, "conditions": [24, 1600, "a", 12000], "trial": 4, "serialpos": 23, "trial_type": "single-audio", "trial_index": 180, "time_elapsed": 1054028, "internal_node_id": "0.0-135.0"}}, {"uniqueid": "MTK0269:3BC8WZX3V43GGSPAXO1Y0NMFHZJRRP", "current_trial": 181, "dateTime": 1510691994521, "trialdata": {"rt": -1, "stimulus": "", "key_press": -1, "type": "PRE_RECALL_DELAY", "trial_type": "single-stim", "trial_index": 181, "time_elapsed": 1055348, "internal_node_id": "0.0-136.0-0.0"}}, {"uniqueid": "MTK0269:3BC8WZX3V43GGSPAXO1Y0NMFHZJRRP", "current_trial": 182, "dateTime": 1510691995022, "trialdata": {"rt": -1000, "stimulus": "/static/audio/400Hz.wav", "key_press": -1, "type": "PRE_RECALL_ALERT", "trial_type": "single-audio", "trial_index": 182, "time_elapsed": 1055849, "internal_node_id": "0.0-137.0"}}, {"uniqueid": "MTK0269:3BC8WZX3V43GGSPAXO1Y0NMFHZJRRP", "current_trial": 183, "dateTime": 1510692055026, "trialdata": {"rt": [5825, 11380, 13434, 18837, 22300, 32337, 35505, 40769, 45524, 48018, 52334, 57058], "recwords": ["slide", "lipstick", "marine", "europe", "ozone", "friend", "label", "sculpture", "jury", "judge", "statue", "eyelash"], "type": "FREE_RECALL", "conditions": [24, 1600, "a", 12000], "trial": 4, "trial_type": "free-recall", "trial_index": 183, "time_elapsed": 1115851, "internal_node_id": "0.0-138.0-0.0"}}, {"uniqueid": "MTK0269:3BC8WZX3V43GGSPAXO1Y0NMFHZJRRP", "current_trial": 184, "dateTime": 1510692063260, "trialdata": {"rt": 6232, "key_press": 32, "type": "INSTRUCTIONS", "trial_type": "text", "trial_index": 184, "time_elapsed": 1124086, "internal_node_id": "0.0-139.0"}}, {"uniqueid": "MTK0269:3BC8WZX3V43GGSPAXO1Y0NMFHZJRRP", "current_trial": 185, "dateTime": 1510692089262, "trialdata": {"rt": [3677, 6503, 9694, 12467, 14851, 17107, 19323, 23380], "responses": ["13", "18", "14", "12", "11", "7", "11", "20"], "num1": [7, 9, 2, 1, 2, 1, 4, 5, 2], "num2": [2, 8, 8, 7, 2, 3, 5, 6, 7], "num3": [4, 1, 4, 4, 7, 3, 2, 9, 1], "type": "DISTRACTOR", "conditions": [12, 800, "v", 24000], "trial": 5, "trial_type": "math-distractor", "trial_index": 185, "time_elapsed": 1150089, "internal_node_id": "0.0-140.0"}}, {"uniqueid": "MTK0269:3BC8WZX3V43GGSPAXO1Y0NMFHZJRRP", "current_trial": 186, "dateTime": 1510692092264, "trialdata": {"rt": -1, "stimulus": "<p id=\"stim\">10</p>", "key_press": -1, "trial_type": "single-stim", "trial_index": 186, "time_elapsed": 1153091, "internal_node_id": "0.0-141.0-0.0"}}, {"uniqueid": "MTK0269:3BC8WZX3V43GGSPAXO1Y0NMFHZJRRP", "current_trial": 187, "dateTime": 1510692093265, "trialdata": {"rt": -1, "stimulus": "<p id=\"stim\">9</p>", "key_press": -1, "trial_type": "single-stim", "trial_index": 187, "time_elapsed": 1154092, "internal_node_id": "0.0-141.0-1.0"}}, {"uniqueid": "MTK0269:3BC8WZX3V43GGSPAXO1Y0NMFHZJRRP", "current_trial": 188, "dateTime": 1510692094266, "trialdata": {"rt": -1, "stimulus": "<p id=\"stim\">8</p>", "key_press": -1, "trial_type": "single-stim", "trial_index": 188, "time_elapsed": 1155093, "internal_node_id": "0.0-141.0-2.0"}}, {"uniqueid": "MTK0269:3BC8WZX3V43GGSPAXO1Y0NMFHZJRRP", "current_trial": 189, "dateTime": 1510692095267, "trialdata": {"rt": -1, "stimulus": "<p id=\"stim\">7</p>", "key_press": -1, "trial_type": "single-stim", "trial_index": 189, "time_elapsed": 1156094, "internal_node_id": "0.0-141.0-3.0"}}, {"uniqueid": "MTK0269:3BC8WZX3V43GGSPAXO1Y0NMFHZJRRP", "current_trial": 190, "dateTime": 1510692096268, "trialdata": {"rt": -1, "stimulus": "<p id=\"stim\">6</p>", "key_press": -1, "trial_type": "single-stim", "trial_index": 190, "time_elapsed": 1157095, "internal_node_id": "0.0-141.0-4.0"}}, {"uniqueid": "MTK0269:3BC8WZX3V43GGSPAXO1Y0NMFHZJRRP", "current_trial": 191, "dateTime": 1510692097269, "trialdata": {"rt": -1, "stimulus": "<p id=\"stim\">5</p>", "key_press": -1, "trial_type": "single-stim", "trial_index": 191, "time_elapsed": 1158096, "internal_node_id": "0.0-141.0-5.0"}}, {"uniqueid": "MTK0269:3BC8WZX3V43GGSPAXO1Y0NMFHZJRRP", "current_trial": 192, "dateTime": 1510692098271, "trialdata": {"rt": -1, "stimulus": "<p id=\"stim\">4</p>", "key_press": -1, "trial_type": "single-stim", "trial_index": 192, "time_elapsed": 1159098, "internal_node_id": "0.0-141.0-6.0"}}, {"uniqueid": "MTK0269:3BC8WZX3V43GGSPAXO1Y0NMFHZJRRP", "current_trial": 193, "dateTime": 1510692099273, "trialdata": {"rt": -1, "stimulus": "<p id=\"stim\">3</p>", "key_press": -1, "trial_type": "single-stim", "trial_index": 193, "time_elapsed": 1160100, "internal_node_id": "0.0-141.0-7.0"}}, {"uniqueid": "MTK0269:3BC8WZX3V43GGSPAXO1Y0NMFHZJRRP", "current_trial": 194, "dateTime": 1510692100274, "trialdata": {"rt": -1, "stimulus": "<p id=\"stim\">2</p>", "key_press": -1, "trial_type": "single-stim", "trial_index": 194, "time_elapsed": 1161101, "internal_node_id": "0.0-141.0-8.0"}}, {"uniqueid": "MTK0269:3BC8WZX3V43GGSPAXO1Y0NMFHZJRRP", "current_trial": 195, "dateTime": 1510692101276, "trialdata": {"rt": -1, "stimulus": "<p id=\"stim\">1</p>", "key_press": -1, "trial_type": "single-stim", "trial_index": 195, "time_elapsed": 1162103, "internal_node_id": "0.0-141.0-9.0"}}, {"uniqueid": "MTK0269:3BC8WZX3V43GGSPAXO1Y0NMFHZJRRP", "current_trial": 196, "dateTime": 1510692102777, "trialdata": {"rt": -1, "stimulus": "<p id=\"stim\">+</p>", "key_press": -1, "type": "FIXATION", "trial_type": "single-stim", "trial_index": 196, "time_elapsed": 1163604, "internal_node_id": "0.0-142.0-0.0"}}, {"uniqueid": "MTK0269:3BC8WZX3V43GGSPAXO1Y0NMFHZJRRP", "current_trial": 197, "dateTime": 1510692103578, "trialdata": {"rt": -1, "stimulus": "<p id=\"stim\">CROWN</p>", "key_press": -1, "type": "PRES_VIS", "word": "crown", "wordID": 414, "conditions": [12, 800, "v", 24000], "trial": 5, "serialpos": 0, "trial_type": "single-stim", "trial_index": 197, "time_elapsed": 1164405, "internal_node_id": "0.0-143.0"}}, {"uniqueid": "MTK0269:3BC8WZX3V43GGSPAXO1Y0NMFHZJRRP", "current_trial": 198, "dateTime": 1510692105567, "trialdata": {"rt": -1, "stimulus": "<p id=\"stim\">SNAKE</p>", "key_press": -1, "type": "PRES_VIS", "word": "snake", "wordID": 1332, "conditions": [12, 800, "v", 24000], "trial": 5, "serialpos": 1, "trial_type": "single-stim", "trial_index": 198, "time_elapsed": 1166394, "internal_node_id": "0.0-144.0"}}, {"uniqueid": "MTK0269:3BC8WZX3V43GGSPAXO1Y0NMFHZJRRP", "current_trial": 199, "dateTime": 1510692107347, "trialdata": {"rt": -1, "stimulus": "<p id=\"stim\">RADISH</p>", "key_press": -1, "type": "PRES_VIS", "word": "radish", "wordID": 1157, "conditions": [12, 800, "v", 24000], "trial": 5, "serialpos": 2, "trial_type": "single-stim", "trial_index": 199, "time_elapsed": 1168174, "internal_node_id": "0.0-145.0"}}, {"uniqueid": "MTK0269:3BC8WZX3V43GGSPAXO1Y0NMFHZJRRP", "current_trial": 200, "dateTime": 1510692109080, "trialdata": {"rt": -1, "stimulus": "<p id=\"stim\">PIGEON</p>", "key_press": -1, "type": "PRES_VIS", "word": "pigeon", "wordID": 1064, "conditions": [12, 800, "v", 24000], "trial": 5, "serialpos": 3, "trial_type": "single-stim", "trial_index": 200, "time_elapsed": 1169907, "internal_node_id": "0.0-146.0"}}, {"uniqueid": "MTK0269:3BC8WZX3V43GGSPAXO1Y0NMFHZJRRP", "current_trial": 201, "dateTime": 1510692110696, "trialdata": {"rt": -1, "stimulus": "<p id=\"stim\">POLICE</p>", "key_press": -1, "type": "PRES_VIS", "word": "police", "wordID": 1097, "conditions": [12, 800, "v", 24000], "trial": 5, "serialpos": 4, "trial_type": "single-stim", "trial_index": 201, "time_elapsed": 1171523, "internal_node_id": "0.0-147.0"}}, {"uniqueid": "MTK0269:3BC8WZX3V43GGSPAXO1Y0NMFHZJRRP", "current_trial": 202, "dateTime": 1510692112428, "trialdata": {"rt": -1, "stimulus": "<p id=\"stim\">HIGHWAY</p>", "key_press": -1, "type": "PRES_VIS", "word": "highway", "wordID": 706, "conditions": [12, 800, "v", 24000], "trial": 5, "serialpos": 5, "trial_type": "single-stim", "trial_index": 202, "time_elapsed": 1173255, "internal_node_id": "0.0-148.0"}}, {"uniqueid": "MTK0269:3BC8WZX3V43GGSPAXO1Y0NMFHZJRRP", "current_trial": 203, "dateTime": 1510692114351, "trialdata": {"rt": -1, "stimulus": "<p id=\"stim\">SWAMP</p>", "key_press": -1, "type": "PRES_VIS", "word": "swamp", "wordID": 1415, "conditions": [12, 800, "v", 24000], "trial": 5, "serialpos": 6, "trial_type": "single-stim", "trial_index": 203, "time_elapsed": 1175178, "internal_node_id": "0.0-149.0"}}, {"uniqueid": "MTK0269:3BC8WZX3V43GGSPAXO1Y0NMFHZJRRP", "current_trial": 204, "dateTime": 1510692116106, "trialdata": {"rt": -1, "stimulus": "<p id=\"stim\">WARDROBE</p>", "key_press": -1, "type": "PRES_VIS", "word": "wardrobe", "wordID": 1586, "conditions": [12, 800, "v", 24000], "trial": 5, "serialpos": 7, "trial_type": "single-stim", "trial_index": 204, "time_elapsed": 1176933, "internal_node_id": "0.0-150.0"}}, {"uniqueid": "MTK0269:3BC8WZX3V43GGSPAXO1Y0NMFHZJRRP", "current_trial": 205, "dateTime": 1510692117743, "trialdata": {"rt": -1, "stimulus": "<p id=\"stim\">BLOUSE</p>", "key_press": -1, "type": "PRES_VIS", "word": "blouse", "wordID": 138, "conditions": [12, 800, "v", 24000], "trial": 5, "serialpos": 8, "trial_type": "single-stim", "trial_index": 205, "time_elapsed": 1178570, "internal_node_id": "0.0-151.0"}}, {"uniqueid": "MTK0269:3BC8WZX3V43GGSPAXO1Y0NMFHZJRRP", "current_trial": 206, "dateTime": 1510692119515, "trialdata": {"rt": -1, "stimulus": "<p id=\"stim\">BISON</p>", "key_press": -1, "type": "PRES_VIS", "word": "bison", "wordID": 130, "conditions": [12, 800, "v", 24000], "trial": 5, "serialpos": 9, "trial_type": "single-stim", "trial_index": 206, "time_elapsed": 1180342, "internal_node_id": "0.0-152.0"}}, {"uniqueid": "MTK0269:3BC8WZX3V43GGSPAXO1Y0NMFHZJRRP", "current_trial": 207, "dateTime": 1510692121156, "trialdata": {"rt": -1, "stimulus": "<p id=\"stim\">TRIBE</p>", "key_press": -1, "type": "PRES_VIS", "word": "tribe", "wordID": 1504, "conditions": [12, 800, "v", 24000], "trial": 5, "serialpos": 10, "trial_type": "single-stim", "trial_index": 207, "time_elapsed": 1181983, "internal_node_id": "0.0-153.0"}}, {"uniqueid": "MTK0269:3BC8WZX3V43GGSPAXO1Y0NMFHZJRRP", "current_trial": 208, "dateTime": 1510692123041, "trialdata": {"rt": -1, "stimulus": "<p id=\"stim\">TURNIP</p>", "key_press": -1, "type": "PRES_VIS", "word": "turnip", "wordID": 1520, "conditions": [12, 800, "v", 24000], "trial": 5, "serialpos": 11, "trial_type": "single-stim", "trial_index": 208, "time_elapsed": 1183868, "internal_node_id": "0.0-154.0"}}, {"uniqueid": "MTK0269:3BC8WZX3V43GGSPAXO1Y0NMFHZJRRP", "current_trial": 209, "dateTime": 1510692125182, "trialdata": {"rt": -1, "stimulus": "", "key_press": -1, "type": "PRE_RECALL_DELAY", "trial_type": "single-stim", "trial_index": 209, "time_elapsed": 1186009, "internal_node_id": "0.0-155.0-0.0"}}, {"uniqueid": "MTK0269:3BC8WZX3V43GGSPAXO1Y0NMFHZJRRP", "current_trial": 210, "dateTime": 1510692125695, "trialdata": {"rt": -1000, "stimulus": "/static/audio/400Hz.wav", "key_press": -1, "type": "PRE_RECALL_ALERT", "trial_type": "single-audio", "trial_index": 210, "time_elapsed": 1186522, "internal_node_id": "0.0-156.0"}}, {"uniqueid": "MTK0269:3BC8WZX3V43GGSPAXO1Y0NMFHZJRRP", "current_trial": 211, "dateTime": 1510692185699, "trialdata": {"rt": [7810, 10873, 15118, 20263, 24318], "recwords": ["turnip", "crown", "police", "highway", "bison"], "type": "FREE_RECALL", "conditions": [12, 800, "v", 24000], "trial": 5, "trial_type": "free-recall", "trial_index": 211, "time_elapsed": 1246525, "internal_node_id": "0.0-157.0-0.0"}}, {"uniqueid": "MTK0269:3BC8WZX3V43GGSPAXO1Y0NMFHZJRRP", "current_trial": 212, "dateTime": 1510692189173, "trialdata": {"rt": 1472, "key_press": 32, "type": "INSTRUCTIONS", "trial_type": "text", "trial_index": 212, "time_elapsed": 1250000, "internal_node_id": "0.0-158.0"}}, {"uniqueid": "MTK0269:3BC8WZX3V43GGSPAXO1Y0NMFHZJRRP", "current_trial": 213, "dateTime": 1510692215175, "trialdata": {"rt": [2861, 6795, 9816, 11702, 15104, 17632, 21079, 23416], "responses": ["14", "16", "14", "12", "22", "21", "16", "14"], "num1": [3, 5, 3, 2, 9, 6, 5, 6, 3], "num2": [7, 8, 2, 5, 6, 7, 9, 1, 8], "num3": [4, 4, 9, 5, 6, 8, 2, 7, 2], "type": "DISTRACTOR", "conditions": [24, 1600, "v", 24000], "trial": 6, "trial_type": "math-distractor", "trial_index": 213, "time_elapsed": 1276002, "internal_node_id": "0.0-159.0"}}, {"uniqueid": "MTK0269:3BC8WZX3V43GGSPAXO1Y0NMFHZJRRP", "current_trial": 214, "dateTime": 1510692218177, "trialdata": {"rt": -1, "stimulus": "<p id=\"stim\">10</p>", "key_press": -1, "trial_type": "single-stim", "trial_index": 214, "time_elapsed": 1279004, "internal_node_id": "0.0-160.0-0.0"}}, {"uniqueid": "MTK0269:3BC8WZX3V43GGSPAXO1Y0NMFHZJRRP", "current_trial": 215, "dateTime": 1510692219179, "trialdata": {"rt": -1, "stimulus": "<p id=\"stim\">9</p>", "key_press": -1, "trial_type": "single-stim", "trial_index": 215, "time_elapsed": 1280006, "internal_node_id": "0.0-160.0-1.0"}}, {"uniqueid": "MTK0269:3BC8WZX3V43GGSPAXO1Y0NMFHZJRRP", "current_trial": 216, "dateTime": 1510692220180, "trialdata": {"rt": -1, "stimulus": "<p id=\"stim\">8</p>", "key_press": -1, "trial_type": "single-stim", "trial_index": 216, "time_elapsed": 1281007, "internal_node_id": "0.0-160.0-2.0"}}, {"uniqueid": "MTK0269:3BC8WZX3V43GGSPAXO1Y0NMFHZJRRP", "current_trial": 217, "dateTime": 1510692221182, "trialdata": {"rt": -1, "stimulus": "<p id=\"stim\">7</p>", "key_press": -1, "trial_type": "single-stim", "trial_index": 217, "time_elapsed": 1282009, "internal_node_id": "0.0-160.0-3.0"}}, {"uniqueid": "MTK0269:3BC8WZX3V43GGSPAXO1Y0NMFHZJRRP", "current_trial": 218, "dateTime": 1510692222183, "trialdata": {"rt": -1, "stimulus": "<p id=\"stim\">6</p>", "key_press": -1, "trial_type": "single-stim", "trial_index": 218, "time_elapsed": 1283010, "internal_node_id": "0.0-160.0-4.0"}}, {"uniqueid": "MTK0269:3BC8WZX3V43GGSPAXO1Y0NMFHZJRRP", "current_trial": 219, "dateTime": 1510692223184, "trialdata": {"rt": -1, "stimulus": "<p id=\"stim\">5</p>", "key_press": -1, "trial_type": "single-stim", "trial_index": 219, "time_elapsed": 1284011, "internal_node_id": "0.0-160.0-5.0"}}, {"uniqueid": "MTK0269:3BC8WZX3V43GGSPAXO1Y0NMFHZJRRP", "current_trial": 220, "dateTime": 1510692224186, "trialdata": {"rt": -1, "stimulus": "<p id=\"stim\">4</p>", "key_press": -1, "trial_type": "single-stim", "trial_index": 220, "time_elapsed": 1285013, "internal_node_id": "0.0-160.0-6.0"}}, {"uniqueid": "MTK0269:3BC8WZX3V43GGSPAXO1Y0NMFHZJRRP", "current_trial": 221, "dateTime": 1510692225187, "trialdata": {"rt": -1, "stimulus": "<p id=\"stim\">3</p>", "key_press": -1, "trial_type": "single-stim", "trial_index": 221, "time_elapsed": 1286014, "internal_node_id": "0.0-160.0-7.0"}}, {"uniqueid": "MTK0269:3BC8WZX3V43GGSPAXO1Y0NMFHZJRRP", "current_trial": 222, "dateTime": 1510692226188, "trialdata": {"rt": -1, "stimulus": "<p id=\"stim\">2</p>", "key_press": -1, "trial_type": "single-stim", "trial_index": 222, "time_elapsed": 1287015, "internal_node_id": "0.0-160.0-8.0"}}, {"uniqueid": "MTK0269:3BC8WZX3V43GGSPAXO1Y0NMFHZJRRP", "current_trial": 223, "dateTime": 1510692227189, "trialdata": {"rt": -1, "stimulus": "<p id=\"stim\">1</p>", "key_press": -1, "trial_type": "single-stim", "trial_index": 223, "time_elapsed": 1288016, "internal_node_id": "0.0-160.0-9.0"}}, {"uniqueid": "MTK0269:3BC8WZX3V43GGSPAXO1Y0NMFHZJRRP", "current_trial": 224, "dateTime": 1510692228691, "trialdata": {"rt": -1, "stimulus": "<p id=\"stim\">+</p>", "key_press": -1, "type": "FIXATION", "trial_type": "single-stim", "trial_index": 224, "time_elapsed": 1289518, "internal_node_id": "0.0-161.0-0.0"}}, {"uniqueid": "MTK0269:3BC8WZX3V43GGSPAXO1Y0NMFHZJRRP", "current_trial": 225, "dateTime": 1510692230292, "trialdata": {"rt": -1, "stimulus": "<p id=\"stim\">ORCHID</p>", "key_press": -1, "type": "PRES_VIS", "word": "orchid", "wordID": 981, "conditions": [24, 1600, "v", 24000], "trial": 6, "serialpos": 0, "trial_type": "single-stim", "trial_index": 225, "time_elapsed": 1291119, "internal_node_id": "0.0-162.0"}}, {"uniqueid": "MTK0269:3BC8WZX3V43GGSPAXO1Y0NMFHZJRRP", "current_trial": 226, "dateTime": 1510692232804, "trialdata": {"rt": -1, "stimulus": "<p id=\"stim\">NECKLACE</p>", "key_press": -1, "type": "PRES_VIS", "word": "necklace", "wordID": 939, "conditions": [24, 1600, "v", 24000], "trial": 6, "serialpos": 1, "trial_type": "single-stim", "trial_index": 226, "time_elapsed": 1293631, "internal_node_id": "0.0-163.0"}}, {"uniqueid": "MTK0269:3BC8WZX3V43GGSPAXO1Y0NMFHZJRRP", "current_trial": 227, "dateTime": 1510692235553, "trialdata": {"rt": -1, "stimulus": "<p id=\"stim\">GUARD</p>", "key_press": -1, "type": "PRES_VIS", "word": "guard", "wordID": 666, "conditions": [24, 1600, "v", 24000], "trial": 6, "serialpos": 2, "trial_type": "single-stim", "trial_index": 227, "time_elapsed": 1296380, "internal_node_id": "0.0-164.0"}}, {"uniqueid": "MTK0269:3BC8WZX3V43GGSPAXO1Y0NMFHZJRRP", "current_trial": 228, "dateTime": 1510692238071, "trialdata": {"rt": -1, "stimulus": "<p id=\"stim\">NURSE</p>", "key_press": -1, "type": "PRES_VIS", "word": "nurse", "wordID": 962, "conditions": [24, 1600, "v", 24000], "trial": 6, "serialpos": 3, "trial_type": "single-stim", "trial_index": 228, "time_elapsed": 1298898, "internal_node_id": "0.0-165.0"}}, {"uniqueid": "MTK0269:3BC8WZX3V43GGSPAXO1Y0NMFHZJRRP", "current_trial": 229, "dateTime": 1510692240620, "trialdata": {"rt": -1, "stimulus": "<p id=\"stim\">MAILMAN</p>", "key_press": -1, "type": "PRES_VIS", "word": "mailman", "wordID": 857, "conditions": [24, 1600, "v", 24000], "trial": 6, "serialpos": 4, "trial_type": "single-stim", "trial_index": 229, "time_elapsed": 1301447, "internal_node_id": "0.0-166.0"}}, {"uniqueid": "MTK0269:3BC8WZX3V43GGSPAXO1Y0NMFHZJRRP", "current_trial": 230, "dateTime": 1510692243359, "trialdata": {"rt": -1, "stimulus": "<p id=\"stim\">EXPERT</p>", "key_press": -1, "type": "PRES_VIS", "word": "expert", "wordID": 542, "conditions": [24, 1600, "v", 24000], "trial": 6, "serialpos": 5, "trial_type": "single-stim", "trial_index": 230, "time_elapsed": 1304186, "internal_node_id": "0.0-167.0"}}, {"uniqueid": "MTK0269:3BC8WZX3V43GGSPAXO1Y0NMFHZJRRP", "current_trial": 231, "dateTime": 1510692246094, "trialdata": {"rt": -1, "stimulus": "<p id=\"stim\">SIDEWALK</p>", "key_press": -1, "type": "PRES_VIS", "word": "sidewalk", "wordID": 1302, "conditions": [24, 1600, "v", 24000], "trial": 6, "serialpos": 6, "trial_type": "single-stim", "trial_index": 231, "time_elapsed": 1306921, "internal_node_id": "0.0-168.0"}}, {"uniqueid": "MTK0269:3BC8WZX3V43GGSPAXO1Y0NMFHZJRRP", "current_trial": 232, "dateTime": 1510692248501, "trialdata": {"rt": -1, "stimulus": "<p id=\"stim\">PATROL</p>", "key_press": -1, "type": "PRES_VIS", "word": "patrol", "wordID": 1026, "conditions": [24, 1600, "v", 24000], "trial": 6, "serialpos": 7, "trial_type": "single-stim", "trial_index": 232, "time_elapsed": 1309328, "internal_node_id": "0.0-169.0"}}, {"uniqueid": "MTK0269:3BC8WZX3V43GGSPAXO1Y0NMFHZJRRP", "current_trial": 233, "dateTime": 1510692251218, "trialdata": {"rt": -1, "stimulus": "<p id=\"stim\">SHRUB</p>", "key_press": -1, "type": "PRES_VIS", "word": "shrub", "wordID": 1298, "conditions": [24, 1600, "v", 24000], "trial": 6, "serialpos": 8, "trial_type": "single-stim", "trial_index": 233, "time_elapsed": 1312045, "internal_node_id": "0.0-170.0"}}, {"uniqueid": "MTK0269:3BC8WZX3V43GGSPAXO1Y0NMFHZJRRP", "current_trial": 234, "dateTime": 1510692253979, "trialdata": {"rt": -1, "stimulus": "<p id=\"stim\">ROD</p>", "key_press": -1, "type": "PRES_VIS", "word": "rod", "wordID": 1202, "conditions": [24, 1600, "v", 24000], "trial": 6, "serialpos": 9, "trial_type": "single-stim", "trial_index": 234, "time_elapsed": 1314806, "internal_node_id": "0.0-171.0"}}, {"uniqueid": "MTK0269:3BC8WZX3V43GGSPAXO1Y0NMFHZJRRP", "current_trial": 235, "dateTime": 1510692256445, "trialdata": {"rt": -1, "stimulus": "<p id=\"stim\">SPOOL</p>", "key_press": -1, "type": "PRES_VIS", "word": "spool", "wordID": 1355, "conditions": [24, 1600, "v", 24000], "trial": 6, "serialpos": 10, "trial_type": "single-stim", "trial_index": 235, "time_elapsed": 1317272, "internal_node_id": "0.0-172.0"}}, {"uniqueid": "MTK0269:3BC8WZX3V43GGSPAXO1Y0NMFHZJRRP", "current_trial": 236, "dateTime": 1510692259150, "trialdata": {"rt": -1, "stimulus": "<p id=\"stim\">TRUCK</p>", "key_press": -1, "type": "PRES_VIS", "word": "truck", "wordID": 1511, "conditions": [24, 1600, "v", 24000], "trial": 6, "serialpos": 11, "trial_type": "single-stim", "trial_index": 236, "time_elapsed": 1319977, "internal_node_id": "0.0-173.0"}}, {"uniqueid": "MTK0269:3BC8WZX3V43GGSPAXO1Y0NMFHZJRRP", "current_trial": 237, "dateTime": 1510692261858, "trialdata": {"rt": -1, "stimulus": "<p id=\"stim\">SWIMMER</p>", "key_press": -1, "type": "PRES_VIS", "word": "swimmer", "wordID": 1419, "conditions": [24, 1600, "v", 24000], "trial": 6, "serialpos": 12, "trial_type": "single-stim", "trial_index": 237, "time_elapsed": 1322685, "internal_node_id": "0.0-174.0"}}, {"uniqueid": "MTK0269:3BC8WZX3V43GGSPAXO1Y0NMFHZJRRP", "current_trial": 238, "dateTime": 1510692264625, "trialdata": {"rt": -1, "stimulus": "<p id=\"stim\">BUG</p>", "key_press": -1, "type": "PRES_VIS", "word": "bug", "wordID": 186, "conditions": [24, 1600, "v", 24000], "trial": 6, "serialpos": 13, "trial_type": "single-stim", "trial_index": 238, "time_elapsed": 1325452, "internal_node_id": "0.0-175.0"}}, {"uniqueid": "MTK0269:3BC8WZX3V43GGSPAXO1Y0NMFHZJRRP", "current_trial": 239, "dateTime": 1510692267069, "trialdata": {"rt": -1, "stimulus": "<p id=\"stim\">FOX</p>", "key_press": -1, "type": "PRES_VIS", "word": "fox", "wordID": 597, "conditions": [24, 1600, "v", 24000], "trial": 6, "serialpos": 14, "trial_type": "single-stim", "trial_index": 239, "time_elapsed": 1327896, "internal_node_id": "0.0-176.0"}}, {"uniqueid": "MTK0269:3BC8WZX3V43GGSPAXO1Y0NMFHZJRRP", "current_trial": 240, "dateTime": 1510692269522, "trialdata": {"rt": -1, "stimulus": "<p id=\"stim\">PECAN</p>", "key_press": -1, "type": "PRES_VIS", "word": "pecan", "wordID": 1035, "conditions": [24, 1600, "v", 24000], "trial": 6, "serialpos": 15, "trial_type": "single-stim", "trial_index": 240, "time_elapsed": 1330349, "internal_node_id": "0.0-177.0"}}, {"uniqueid": "MTK0269:3BC8WZX3V43GGSPAXO1Y0NMFHZJRRP", "current_trial": 241, "dateTime": 1510692272226, "trialdata": {"rt": -1, "stimulus": "<p id=\"stim\">PORK</p>", "key_press": -1, "type": "PRES_VIS", "word": "pork", "wordID": 1107, "conditions": [24, 1600, "v", 24000], "trial": 6, "serialpos": 16, "trial_type": "single-stim", "trial_index": 241, "time_elapsed": 1333053, "internal_node_id": "0.0-178.0"}}, {"uniqueid": "MTK0269:3BC8WZX3V43GGSPAXO1Y0NMFHZJRRP", "current_trial": 242, "dateTime": 1510692274736, "trialdata": {"rt": -1, "stimulus": "<p id=\"stim\">DRESSER</p>", "key_press": -1, "type": "PRES_VIS", "word": "dresser", "wordID": 495, "conditions": [24, 1600, "v", 24000], "trial": 6, "serialpos": 17, "trial_type": "single-stim", "trial_index": 242, "time_elapsed": 1335563, "internal_node_id": "0.0-179.0"}}, {"uniqueid": "MTK0269:3BC8WZX3V43GGSPAXO1Y0NMFHZJRRP", "current_trial": 243, "dateTime": 1510692277370, "trialdata": {"rt": -1, "stimulus": "<p id=\"stim\">SCRIBBLE</p>", "key_press": -1, "type": "PRES_VIS", "word": "scribble", "wordID": 1255, "conditions": [24, 1600, "v", 24000], "trial": 6, "serialpos": 18, "trial_type": "single-stim", "trial_index": 243, "time_elapsed": 1338197, "internal_node_id": "0.0-180.0"}}, {"uniqueid": "MTK0269:3BC8WZX3V43GGSPAXO1Y0NMFHZJRRP", "current_trial": 244, "dateTime": 1510692279991, "trialdata": {"rt": -1, "stimulus": "<p id=\"stim\">CITRUS</p>", "key_press": -1, "type": "PRES_VIS", "word": "citrus", "wordID": 312, "conditions": [24, 1600, "v", 24000], "trial": 6, "serialpos": 19, "trial_type": "single-stim", "trial_index": 244, "time_elapsed": 1340818, "internal_node_id": "0.0-181.0"}}, {"uniqueid": "MTK0269:3BC8WZX3V43GGSPAXO1Y0NMFHZJRRP", "current_trial": 245, "dateTime": 1510692282617, "trialdata": {"rt": -1, "stimulus": "<p id=\"stim\">ITEM</p>", "key_press": -1, "type": "PRES_VIS", "word": "item", "wordID": 745, "conditions": [24, 1600, "v", 24000], "trial": 6, "serialpos": 20, "trial_type": "single-stim", "trial_index": 245, "time_elapsed": 1343444, "internal_node_id": "0.0-182.0"}}, {"uniqueid": "MTK0269:3BC8WZX3V43GGSPAXO1Y0NMFHZJRRP", "current_trial": 246, "dateTime": 1510692285144, "trialdata": {"rt": -1, "stimulus": "<p id=\"stim\">BUNNY</p>", "key_press": -1, "type": "PRES_VIS", "word": "bunny", "wordID": 197, "conditions": [24, 1600, "v", 24000], "trial": 6, "serialpos": 21, "trial_type": "single-stim", "trial_index": 246, "time_elapsed": 1345971, "internal_node_id": "0.0-183.0"}}, {"uniqueid": "MTK0269:3BC8WZX3V43GGSPAXO1Y0NMFHZJRRP", "current_trial": 247, "dateTime": 1510692287734, "trialdata": {"rt": -1, "stimulus": "<p id=\"stim\">CHIPMUNK</p>", "key_press": -1, "type": "PRES_VIS", "word": "chipmunk", "wordID": 303, "conditions": [24, 1600, "v", 24000], "trial": 6, "serialpos": 22, "trial_type": "single-stim", "trial_index": 247, "time_elapsed": 1348561, "internal_node_id": "0.0-184.0"}}, {"uniqueid": "MTK0269:3BC8WZX3V43GGSPAXO1Y0NMFHZJRRP", "current_trial": 248, "dateTime": 1510692290491, "trialdata": {"rt": -1, "stimulus": "<p id=\"stim\">PAPER</p>", "key_press": -1, "type": "PRES_VIS", "word": "paper", "wordID": 1010, "conditions": [24, 1600, "v", 24000], "trial": 6, "serialpos": 23, "trial_type": "single-stim", "trial_index": 248, "time_elapsed": 1351318, "internal_node_id": "0.0-185.0"}}, {"uniqueid": "MTK0269:3BC8WZX3V43GGSPAXO1Y0NMFHZJRRP", "current_trial": 249, "dateTime": 1510692292783, "trialdata": {"rt": -1, "stimulus": "", "key_press": -1, "type": "PRE_RECALL_DELAY", "trial_type": "single-stim", "trial_index": 249, "time_elapsed": 1353610, "internal_node_id": "0.0-186.0-0.0"}}, {"uniqueid": "MTK0269:3BC8WZX3V43GGSPAXO1Y0NMFHZJRRP", "current_trial": 250, "dateTime": 1510692293290, "trialdata": {"rt": -1000, "stimulus": "/static/audio/400Hz.wav", "key_press": -1, "type": "PRE_RECALL_ALERT", "trial_type": "single-audio", "trial_index": 250, "time_elapsed": 1354117, "internal_node_id": "0.0-187.0"}}, {"uniqueid": "MTK0269:3BC8WZX3V43GGSPAXO1Y0NMFHZJRRP", "current_trial": 251, "dateTime": 1510692353295, "trialdata": {"rt": [5163, 9442, 15577, 19214, 21949, 25416, 31094, 34799, 39136, 47532, 53207], "recwords": ["paper", "chipmonk", "orchid", "necklace", "bug", "swing", "dresser", "pecan", "mailman", "patrol", "sidewalk"], "type": "FREE_RECALL", "conditions": [24, 1600, "v", 24000], "trial": 6, "trial_type": "free-recall", "trial_index": 251, "time_elapsed": 1414120, "internal_node_id": "0.0-188.0-0.0"}}, {"uniqueid": "MTK0269:3BC8WZX3V43GGSPAXO1Y0NMFHZJRRP", "current_trial": 252, "dateTime": 1510692361205, "trialdata": {"rt": 5909, "key_press": 32, "type": "INSTRUCTIONS", "trial_type": "text", "trial_index": 252, "time_elapsed": 1422032, "internal_node_id": "0.0-189.0"}}, {"uniqueid": "MTK0269:3BC8WZX3V43GGSPAXO1Y0NMFHZJRRP", "current_trial": 253, "dateTime": 1510692375208, "trialdata": {"rt": [2433, 5486, 9359, 11248], "responses": ["12", "22", "18", "12"], "num1": [3, 5, 8, 5, 7], "num2": [8, 9, 5, 6, 5], "num3": [1, 8, 6, 1, 7], "type": "DISTRACTOR", "conditions": [24, 800, "v", 12000], "trial": 7, "trial_type": "math-distractor", "trial_index": 253, "time_elapsed": 1436035, "internal_node_id": "0.0-190.0"}}, {"uniqueid": "MTK0269:3BC8WZX3V43GGSPAXO1Y0NMFHZJRRP", "current_trial": 254, "dateTime": 1510692378212, "trialdata": {"rt": -1, "stimulus": "<p id=\"stim\">10</p>", "key_press": -1, "trial_type": "single-stim", "trial_index": 254, "time_elapsed": 1439039, "internal_node_id": "0.0-191.0-0.0"}}, {"uniqueid": "MTK0269:3BC8WZX3V43GGSPAXO1Y0NMFHZJRRP", "current_trial": 255, "dateTime": 1510692379213, "trialdata": {"rt": -1, "stimulus": "<p id=\"stim\">9</p>", "key_press": -1, "trial_type": "single-stim", "trial_index": 255, "time_elapsed": 1440040, "internal_node_id": "0.0-191.0-1.0"}}, {"uniqueid": "MTK0269:3BC8WZX3V43GGSPAXO1Y0NMFHZJRRP", "current_trial": 256, "dateTime": 1510692380215, "trialdata": {"rt": -1, "stimulus": "<p id=\"stim\">8</p>", "key_press": -1, "trial_type": "single-stim", "trial_index": 256, "time_elapsed": 1441042, "internal_node_id": "0.0-191.0-2.0"}}, {"uniqueid": "MTK0269:3BC8WZX3V43GGSPAXO1Y0NMFHZJRRP", "current_trial": 257, "dateTime": 1510692381216, "trialdata": {"rt": -1, "stimulus": "<p id=\"stim\">7</p>", "key_press": -1, "trial_type": "single-stim", "trial_index": 257, "time_elapsed": 1442043, "internal_node_id": "0.0-191.0-3.0"}}, {"uniqueid": "MTK0269:3BC8WZX3V43GGSPAXO1Y0NMFHZJRRP", "current_trial": 258, "dateTime": 1510692382218, "trialdata": {"rt": -1, "stimulus": "<p id=\"stim\">6</p>", "key_press": -1, "trial_type": "single-stim", "trial_index": 258, "time_elapsed": 1443045, "internal_node_id": "0.0-191.0-4.0"}}, {"uniqueid": "MTK0269:3BC8WZX3V43GGSPAXO1Y0NMFHZJRRP", "current_trial": 259, "dateTime": 1510692383219, "trialdata": {"rt": -1, "stimulus": "<p id=\"stim\">5</p>", "key_press": -1, "trial_type": "single-stim", "trial_index": 259, "time_elapsed": 1444046, "internal_node_id": "0.0-191.0-5.0"}}, {"uniqueid": "MTK0269:3BC8WZX3V43GGSPAXO1Y0NMFHZJRRP", "current_trial": 260, "dateTime": 1510692384221, "trialdata": {"rt": -1, "stimulus": "<p id=\"stim\">4</p>", "key_press": -1, "trial_type": "single-stim", "trial_index": 260, "time_elapsed": 1445048, "internal_node_id": "0.0-191.0-6.0"}}, {"uniqueid": "MTK0269:3BC8WZX3V43GGSPAXO1Y0NMFHZJRRP", "current_trial": 261, "dateTime": 1510692385223, "trialdata": {"rt": -1, "stimulus": "<p id=\"stim\">3</p>", "key_press": -1, "trial_type": "single-stim", "trial_index": 261, "time_elapsed": 1446050, "internal_node_id": "0.0-191.0-7.0"}}, {"uniqueid": "MTK0269:3BC8WZX3V43GGSPAXO1Y0NMFHZJRRP", "current_trial": 262, "dateTime": 1510692386224, "trialdata": {"rt": -1, "stimulus": "<p id=\"stim\">2</p>", "key_press": -1, "trial_type": "single-stim", "trial_index": 262, "time_elapsed": 1447051, "internal_node_id": "0.0-191.0-8.0"}}, {"uniqueid": "MTK0269:3BC8WZX3V43GGSPAXO1Y0NMFHZJRRP", "current_trial": 263, "dateTime": 1510692387225, "trialdata": {"rt": -1, "stimulus": "<p id=\"stim\">1</p>", "key_press": -1, "trial_type": "single-stim", "trial_index": 263, "time_elapsed": 1448052, "internal_node_id": "0.0-191.0-9.0"}}, {"uniqueid": "MTK0269:3BC8WZX3V43GGSPAXO1Y0NMFHZJRRP", "current_trial": 264, "dateTime": 1510692388726, "trialdata": {"rt": -1, "stimulus": "<p id=\"stim\">+</p>", "key_press": -1, "type": "FIXATION", "trial_type": "single-stim", "trial_index": 264, "time_elapsed": 1449553, "internal_node_id": "0.0-192.0-0.0"}}, {"uniqueid": "MTK0269:3BC8WZX3V43GGSPAXO1Y0NMFHZJRRP", "current_trial": 265, "dateTime": 1510692389527, "trialdata": {"rt": -1, "stimulus": "<p id=\"stim\">BEAKER</p>", "key_press": -1, "type": "PRES_VIS", "word": "beaker", "wordID": 103, "conditions": [24, 800, "v", 12000], "trial": 7, "serialpos": 0, "trial_type": "single-stim", "trial_index": 265, "time_elapsed": 1450354, "internal_node_id": "0.0-193.0"}}, {"uniqueid": "MTK0269:3BC8WZX3V43GGSPAXO1Y0NMFHZJRRP", "current_trial": 266, "dateTime": 1510692391182, "trialdata": {"rt": -1, "stimulus": "<p id=\"stim\">FLASK</p>", "key_press": -1, "type": "PRES_VIS", "word": "flask", "wordID": 575, "conditions": [24, 800, "v", 12000], "trial": 7, "serialpos": 1, "trial_type": "single-stim", "trial_index": 266, "time_elapsed": 1452009, "internal_node_id": "0.0-194.0"}}, {"uniqueid": "MTK0269:3BC8WZX3V43GGSPAXO1Y0NMFHZJRRP", "current_trial": 267, "dateTime": 1510692393064, "trialdata": {"rt": -1, "stimulus": "<p id=\"stim\">CANDY</p>", "key_press": -1, "type": "PRES_VIS", "word": "candy", "wordID": 229, "conditions": [24, 800, "v", 12000], "trial": 7, "serialpos": 2, "trial_type": "single-stim", "trial_index": 267, "time_elapsed": 1453891, "internal_node_id": "0.0-195.0"}}, {"uniqueid": "MTK0269:3BC8WZX3V43GGSPAXO1Y0NMFHZJRRP", "current_trial": 268, "dateTime": 1510692394737, "trialdata": {"rt": -1, "stimulus": "<p id=\"stim\">BRACES</p>", "key_press": -1, "type": "PRES_VIS", "word": "braces", "wordID": 163, "conditions": [24, 800, "v", 12000], "trial": 7, "serialpos": 3, "trial_type": "single-stim", "trial_index": 268, "time_elapsed": 1455564, "internal_node_id": "0.0-196.0"}}, {"uniqueid": "MTK0269:3BC8WZX3V43GGSPAXO1Y0NMFHZJRRP", "current_trial": 269, "dateTime": 1510692396727, "trialdata": {"rt": -1, "stimulus": "<p id=\"stim\">COUSIN</p>", "key_press": -1, "type": "PRES_VIS", "word": "cousin", "wordID": 391, "conditions": [24, 800, "v", 12000], "trial": 7, "serialpos": 4, "trial_type": "single-stim", "trial_index": 269, "time_elapsed": 1457554, "internal_node_id": "0.0-197.0"}}, {"uniqueid": "MTK0269:3BC8WZX3V43GGSPAXO1Y0NMFHZJRRP", "current_trial": 270, "dateTime": 1510692398501, "trialdata": {"rt": -1, "stimulus": "<p id=\"stim\">FARMER</p>", "key_press": -1, "type": "PRES_VIS", "word": "farmer", "wordID": 552, "conditions": [24, 800, "v", 12000], "trial": 7, "serialpos": 5, "trial_type": "single-stim", "trial_index": 270, "time_elapsed": 1459328, "internal_node_id":