{"condition": 0, "counterbalance": 363, "assignmentId": "34Q075JO1YK4NT6U5H34A03F53S01R", "workerId": "MTK0573", "hitId": "3R868ACW4SJW694T1SWXY2ENBU5GZB", "currenttrial": 626, "bonus": 0, "data": [{"uniqueid": "MTK0573:34Q075JO1YK4NT6U5H34A03F53S01R", "current_trial": 0, "dateTime": 1511213683815, "trialdata": {"rt": 2902, "key_press": 13, "type": "INSTRUCTIONS", "trial_type": "text", "trial_index": 0, "time_elapsed": 2907, "internal_node_id": "0.0-0.0"}}, {"uniqueid": "MTK0573:34Q075JO1YK4NT6U5H34A03F53S01R", "current_trial": 1, "dateTime": 1511213701367, "trialdata": {"rt": 17549, "key_press": 13, "type": "INSTRUCTIONS", "trial_type": "text", "trial_index": 1, "time_elapsed": 20462, "internal_node_id": "0.0-1.0"}}, {"uniqueid": "MTK0573:34Q075JO1YK4NT6U5H34A03F53S01R", "current_trial": 2, "dateTime": 1511213715249, "trialdata": {"rt": [13861], "responses": ["ocean"], "type": "AUDIO_TEST", "trial_type": "audio-test", "trial_index": 2, "time_elapsed": 34344, "internal_node_id": "0.0-2.0"}}, {"uniqueid": "MTK0573:34Q075JO1YK4NT6U5H34A03F53S01R", "current_trial": 3, "dateTime": 1511213723543, "trialdata": {"rt": [8284], "responses": ["crystal"], "type": "AUDIO_TEST", "trial_type": "audio-test", "trial_index": 3, "time_elapsed": 42638, "internal_node_id": "0.0-3.0"}}, {"uniqueid": "MTK0573:34Q075JO1YK4NT6U5H34A03F53S01R", "current_trial": 4, "dateTime": 1511213732622, "trialdata": {"rt": [9070], "responses": ["spice"], "type": "AUDIO_TEST", "trial_type": "audio-test", "trial_index": 4, "time_elapsed": 51717, "internal_node_id": "0.0-4.0"}}, {"uniqueid": "MTK0573:34Q075JO1YK4NT6U5H34A03F53S01R", "current_trial": 5, "dateTime": 1511213760287, "trialdata": {"rt": 26909, "responses": "{\"Q0\":\"10:00 PM\",\"Q1\":\"6:00 PM\",\"Q2\":\"4\"}", "type": "SLEEP_SURVEY", "trial_type": "survey-text", "trial_index": 5, "time_elapsed": 79382, "internal_node_id": "0.0-5.0"}}, {"uniqueid": "MTK0573:34Q075JO1YK4NT6U5H34A03F53S01R", "current_trial": 6, "dateTime": 1511213764888, "trialdata": {"rt": 3599, "key_press": 122, "type": "INSTRUCTIONS", "trial_type": "text", "trial_index": 6, "time_elapsed": 83983, "internal_node_id": "0.0-6.0"}}, {"uniqueid": "MTK0573:34Q075JO1YK4NT6U5H34A03F53S01R", "current_trial": 7, "dateTime": 1511213783090, "trialdata": {"rt": 17699, "key_press": 13, "type": "INSTRUCTIONS", "trial_type": "text", "trial_index": 7, "time_elapsed": 102185, "internal_node_id": "0.0-7.0"}}, {"uniqueid": "MTK0573:34Q075JO1YK4NT6U5H34A03F53S01R", "current_trial": 8, "dateTime": 1511213798769, "trialdata": {"rt": 15176, "key_press": 13, "type": "INSTRUCTIONS", "trial_type": "text", "trial_index": 8, "time_elapsed": 117863, "internal_node_id": "0.0-8.0"}}, {"uniqueid": "MTK0573:34Q075JO1YK4NT6U5H34A03F53S01R", "current_trial": 9, "dateTime": 1511213817779, "trialdata": {"rt": [3837, 8124, 10545, 13931, 17815], "responses": ["17", "14", "8", "25", "13"], "num1": [1, 4, 5, 5, 4, 4], "num2": [8, 9, 2, 7, 3, 6], "num3": [8, 1, 1, 9, 6, 2], "type": "DISTRACTOR", "conditions": [18, 1200, "a", 18000], "trial": 0, "trial_type": "math-distractor", "trial_index": 9, "time_elapsed": 136873, "internal_node_id": "0.0-9.0"}}, {"uniqueid": "MTK0573:34Q075JO1YK4NT6U5H34A03F53S01R", "current_trial": 10, "dateTime": 1511213820786, "trialdata": {"rt": -1, "stimulus": "<p id=\"stim\">10</p>", "key_press": -1, "trial_type": "single-stim", "trial_index": 10, "time_elapsed": 139880, "internal_node_id": "0.0-10.0-0.0"}}, {"uniqueid": "MTK0573:34Q075JO1YK4NT6U5H34A03F53S01R", "current_trial": 11, "dateTime": 1511213821789, "trialdata": {"rt": -1, "stimulus": "<p id=\"stim\">9</p>", "key_press": -1, "trial_type": "single-stim", "trial_index": 11, "time_elapsed": 140884, "internal_node_id": "0.0-10.0-1.0"}}, {"uniqueid": "MTK0573:34Q075JO1YK4NT6U5H34A03F53S01R", "current_trial": 12, "dateTime": 1511213822792, "trialdata": {"rt": -1, "stimulus": "<p id=\"stim\">8</p>", "key_press": -1, "trial_type": "single-stim", "trial_index": 12, "time_elapsed": 141887, "internal_node_id": "0.0-10.0-2.0"}}, {"uniqueid": "MTK0573:34Q075JO1YK4NT6U5H34A03F53S01R", "current_trial": 13, "dateTime": 1511213823794, "trialdata": {"rt": -1, "stimulus": "<p id=\"stim\">7</p>", "key_press": -1, "trial_type": "single-stim", "trial_index": 13, "time_elapsed": 142889, "internal_node_id": "0.0-10.0-3.0"}}, {"uniqueid": "MTK0573:34Q075JO1YK4NT6U5H34A03F53S01R", "current_trial": 14, "dateTime": 1511213824797, "trialdata": {"rt": -1, "stimulus": "<p id=\"stim\">6</p>", "key_press": -1, "trial_type": "single-stim", "trial_index": 14, "time_elapsed": 143892, "internal_node_id": "0.0-10.0-4.0"}}, {"uniqueid": "MTK0573:34Q075JO1YK4NT6U5H34A03F53S01R", "current_trial": 15, "dateTime": 1511213825799, "trialdata": {"rt": -1, "stimulus": "<p id=\"stim\">5</p>", "key_press": -1, "trial_type": "single-stim", "trial_index": 15, "time_elapsed": 144894, "internal_node_id": "0.0-10.0-5.0"}}, {"uniqueid": "MTK0573:34Q075JO1YK4NT6U5H34A03F53S01R", "current_trial": 16, "dateTime": 1511213826802, "trialdata": {"rt": -1, "stimulus": "<p id=\"stim\">4</p>", "key_press": -1, "trial_type": "single-stim", "trial_index": 16, "time_elapsed": 145897, "internal_node_id": "0.0-10.0-6.0"}}, {"uniqueid": "MTK0573:34Q075JO1YK4NT6U5H34A03F53S01R", "current_trial": 17, "dateTime": 1511213827805, "trialdata": {"rt": -1, "stimulus": "<p id=\"stim\">3</p>", "key_press": -1, "trial_type": "single-stim", "trial_index": 17, "time_elapsed": 146900, "internal_node_id": "0.0-10.0-7.0"}}, {"uniqueid": "MTK0573:34Q075JO1YK4NT6U5H34A03F53S01R", "current_trial": 18, "dateTime": 1511213828808, "trialdata": {"rt": -1, "stimulus": "<p id=\"stim\">2</p>", "key_press": -1, "trial_type": "single-stim", "trial_index": 18, "time_elapsed": 147903, "internal_node_id": "0.0-10.0-8.0"}}, {"uniqueid": "MTK0573:34Q075JO1YK4NT6U5H34A03F53S01R", "current_trial": 19, "dateTime": 1511213829811, "trialdata": {"rt": -1, "stimulus": "<p id=\"stim\">1</p>", "key_press": -1, "trial_type": "single-stim", "trial_index": 19, "time_elapsed": 148906, "internal_node_id": "0.0-10.0-9.0"}}, {"uniqueid": "MTK0573:34Q075JO1YK4NT6U5H34A03F53S01R", "current_trial": 20, "dateTime": 1511213831314, "trialdata": {"rt": -1, "stimulus": "<p id=\"stim\">+</p>", "key_press": -1, "type": "FIXATION", "trial_type": "single-stim", "trial_index": 20, "time_elapsed": 150409, "internal_node_id": "0.0-11.0-0.0"}}, {"uniqueid": "MTK0573:34Q075JO1YK4NT6U5H34A03F53S01R", "current_trial": 21, "dateTime": 1511213833597, "trialdata": {"rt": -1000, "stimulus": "/static/audio/wordpool/BLADE.wav", "key_press": -1, "type": "PRES_AUD", "word": "blade", "wordID": 133, "conditions": [18, 1200, "a", 18000], "trial": 0, "serialpos": 0, "trial_type": "single-audio", "trial_index": 21, "time_elapsed": 152691, "internal_node_id": "0.0-12.0"}}, {"uniqueid": "MTK0573:34Q075JO1YK4NT6U5H34A03F53S01R", "current_trial": 22, "dateTime": 1511213835954, "trialdata": {"rt": -1000, "stimulus": "/static/audio/wordpool/OYSTER.wav", "key_press": -1, "type": "PRES_AUD", "word": "oyster", "wordID": 994, "conditions": [18, 1200, "a", 18000], "trial": 0, "serialpos": 1, "trial_type": "single-audio", "trial_index": 22, "time_elapsed": 155049, "internal_node_id": "0.0-13.0"}}, {"uniqueid": "MTK0573:34Q075JO1YK4NT6U5H34A03F53S01R", "current_trial": 23, "dateTime": 1511213838050, "trialdata": {"rt": -1000, "stimulus": "/static/audio/wordpool/EXPERT.wav", "key_press": -1, "type": "PRES_AUD", "word": "expert", "wordID": 542, "conditions": [18, 1200, "a", 18000], "trial": 0, "serialpos": 2, "trial_type": "single-audio", "trial_index": 23, "time_elapsed": 157145, "internal_node_id": "0.0-14.0"}}, {"uniqueid": "MTK0573:34Q075JO1YK4NT6U5H34A03F53S01R", "current_trial": 24, "dateTime": 1511213840265, "trialdata": {"rt": -1000, "stimulus": "/static/audio/wordpool/INMATE.wav", "key_press": -1, "type": "PRES_AUD", "word": "inmate", "wordID": 737, "conditions": [18, 1200, "a", 18000], "trial": 0, "serialpos": 3, "trial_type": "single-audio", "trial_index": 24, "time_elapsed": 159360, "internal_node_id": "0.0-15.0"}}, {"uniqueid": "MTK0573:34Q075JO1YK4NT6U5H34A03F53S01R", "current_trial": 25, "dateTime": 1511213842323, "trialdata": {"rt": -1000, "stimulus": "/static/audio/wordpool/SKILLET.wav", "key_press": -1, "type": "PRES_AUD", "word": "skillet", "wordID": 1316, "conditions": [18, 1200, "a", 18000], "trial": 0, "serialpos": 4, "trial_type": "single-audio", "trial_index": 25, "time_elapsed": 161417, "internal_node_id": "0.0-16.0"}}, {"uniqueid": "MTK0573:34Q075JO1YK4NT6U5H34A03F53S01R", "current_trial": 26, "dateTime": 1511213844702, "trialdata": {"rt": -1000, "stimulus": "/static/audio/wordpool/WORLD.wav", "key_press": -1, "type": "PRES_AUD", "word": "world", "wordID": 1621, "conditions": [18, 1200, "a", 18000], "trial": 0, "serialpos": 5, "trial_type": "single-audio", "trial_index": 26, "time_elapsed": 163796, "internal_node_id": "0.0-17.0"}}, {"uniqueid": "MTK0573:34Q075JO1YK4NT6U5H34A03F53S01R", "current_trial": 27, "dateTime": 1511213847097, "trialdata": {"rt": -1000, "stimulus": "/static/audio/wordpool/YARN.wav", "key_press": -1, "type": "PRES_AUD", "word": "yarn", "wordID": 1630, "conditions": [18, 1200, "a", 18000], "trial": 0, "serialpos": 6, "trial_type": "single-audio", "trial_index": 27, "time_elapsed": 166192, "internal_node_id": "0.0-18.0"}}, {"uniqueid": "MTK0573:34Q075JO1YK4NT6U5H34A03F53S01R", "current_trial": 28, "dateTime": 1511213849373, "trialdata": {"rt": -1000, "stimulus": "/static/audio/wordpool/CYCLONE.wav", "key_press": -1, "type": "PRES_AUD", "word": "cyclone", "wordID": 430, "conditions": [18, 1200, "a", 18000], "trial": 0, "serialpos": 7, "trial_type": "single-audio", "trial_index": 28, "time_elapsed": 168468, "internal_node_id": "0.0-19.0"}}, {"uniqueid": "MTK0573:34Q075JO1YK4NT6U5H34A03F53S01R", "current_trial": 29, "dateTime": 1511213851619, "trialdata": {"rt": -1000, "stimulus": "/static/audio/wordpool/HOOK.wav", "key_press": -1, "type": "PRES_AUD", "word": "hook", "wordID": 714, "conditions": [18, 1200, "a", 18000], "trial": 0, "serialpos": 8, "trial_type": "single-audio", "trial_index": 29, "time_elapsed": 170714, "internal_node_id": "0.0-20.0"}}, {"uniqueid": "MTK0573:34Q075JO1YK4NT6U5H34A03F53S01R", "current_trial": 30, "dateTime": 1511213853966, "trialdata": {"rt": -1000, "stimulus": "/static/audio/wordpool/COBRA.wav", "key_press": -1, "type": "PRES_AUD", "word": "cobra", "wordID": 335, "conditions": [18, 1200, "a", 18000], "trial": 0, "serialpos": 9, "trial_type": "single-audio", "trial_index": 30, "time_elapsed": 173061, "internal_node_id": "0.0-21.0"}}, {"uniqueid": "MTK0573:34Q075JO1YK4NT6U5H34A03F53S01R", "current_trial": 31, "dateTime": 1511213856345, "trialdata": {"rt": -1000, "stimulus": "/static/audio/wordpool/CRICKET.wav", "key_press": -1, "type": "PRES_AUD", "word": "cricket", "wordID": 407, "conditions": [18, 1200, "a", 18000], "trial": 0, "serialpos": 10, "trial_type": "single-audio", "trial_index": 31, "time_elapsed": 175440, "internal_node_id": "0.0-22.0"}}, {"uniqueid": "MTK0573:34Q075JO1YK4NT6U5H34A03F53S01R", "current_trial": 32, "dateTime": 1511213858619, "trialdata": {"rt": -1000, "stimulus": "/static/audio/wordpool/BUG.wav", "key_press": -1, "type": "PRES_AUD", "word": "bug", "wordID": 186, "conditions": [18, 1200, "a", 18000], "trial": 0, "serialpos": 11, "trial_type": "single-audio", "trial_index": 32, "time_elapsed": 177714, "internal_node_id": "0.0-23.0"}}, {"uniqueid": "MTK0573:34Q075JO1YK4NT6U5H34A03F53S01R", "current_trial": 33, "dateTime": 1511213860703, "trialdata": {"rt": -1000, "stimulus": "/static/audio/wordpool/JAPAN.wav", "key_press": -1, "type": "PRES_AUD", "word": "japan", "wordID": 748, "conditions": [18, 1200, "a", 18000], "trial": 0, "serialpos": 12, "trial_type": "single-audio", "trial_index": 33, "time_elapsed": 179798, "internal_node_id": "0.0-24.0"}}, {"uniqueid": "MTK0573:34Q075JO1YK4NT6U5H34A03F53S01R", "current_trial": 34, "dateTime": 1511213862928, "trialdata": {"rt": -1000, "stimulus": "/static/audio/wordpool/LADY.wav", "key_press": -1, "type": "PRES_AUD", "word": "lady", "wordID": 793, "conditions": [18, 1200, "a", 18000], "trial": 0, "serialpos": 13, "trial_type": "single-audio", "trial_index": 34, "time_elapsed": 182023, "internal_node_id": "0.0-25.0"}}, {"uniqueid": "MTK0573:34Q075JO1YK4NT6U5H34A03F53S01R", "current_trial": 35, "dateTime": 1511213865102, "trialdata": {"rt": -1000, "stimulus": "/static/audio/wordpool/LAKE.wav", "key_press": -1, "type": "PRES_AUD", "word": "lake", "wordID": 795, "conditions": [18, 1200, "a", 18000], "trial": 0, "serialpos": 14, "trial_type": "single-audio", "trial_index": 35, "time_elapsed": 184197, "internal_node_id": "0.0-26.0"}}, {"uniqueid": "MTK0573:34Q075JO1YK4NT6U5H34A03F53S01R", "current_trial": 36, "dateTime": 1511213867300, "trialdata": {"rt": -1000, "stimulus": "/static/audio/wordpool/TUBA.wav", "key_press": -1, "type": "PRES_AUD", "word": "tuba", "wordID": 1514, "conditions": [18, 1200, "a", 18000], "trial": 0, "serialpos": 15, "trial_type": "single-audio", "trial_index": 36, "time_elapsed": 186395, "internal_node_id": "0.0-27.0"}}, {"uniqueid": "MTK0573:34Q075JO1YK4NT6U5H34A03F53S01R", "current_trial": 37, "dateTime": 1511213869683, "trialdata": {"rt": -1000, "stimulus": "/static/audio/wordpool/SPONGE.wav", "key_press": -1, "type": "PRES_AUD", "word": "sponge", "wordID": 1354, "conditions": [18, 1200, "a", 18000], "trial": 0, "serialpos": 16, "trial_type": "single-audio", "trial_index": 37, "time_elapsed": 188778, "internal_node_id": "0.0-28.0"}}, {"uniqueid": "MTK0573:34Q075JO1YK4NT6U5H34A03F53S01R", "current_trial": 38, "dateTime": 1511213872009, "trialdata": {"rt": -1000, "stimulus": "/static/audio/wordpool/POPCORN.wav", "key_press": -1, "type": "PRES_AUD", "word": "popcorn", "wordID": 1103, "conditions": [18, 1200, "a", 18000], "trial": 0, "serialpos": 17, "trial_type": "single-audio", "trial_index": 38, "time_elapsed": 191104, "internal_node_id": "0.0-29.0"}}, {"uniqueid": "MTK0573:34Q075JO1YK4NT6U5H34A03F53S01R", "current_trial": 39, "dateTime": 1511213873212, "trialdata": {"rt": -1, "stimulus": "", "key_press": -1, "type": "PRE_RECALL_DELAY", "trial_type": "single-stim", "trial_index": 39, "time_elapsed": 192307, "internal_node_id": "0.0-30.0-0.0"}}, {"uniqueid": "MTK0573:34Q075JO1YK4NT6U5H34A03F53S01R", "current_trial": 40, "dateTime": 1511213873720, "trialdata": {"rt": -1000, "stimulus": "/static/audio/400Hz.wav", "key_press": -1, "type": "PRE_RECALL_ALERT", "trial_type": "single-audio", "trial_index": 40, "time_elapsed": 192814, "internal_node_id": "0.0-31.0"}}, {"uniqueid": "MTK0573:34Q075JO1YK4NT6U5H34A03F53S01R", "current_trial": 41, "dateTime": 1511213933729, "trialdata": {"rt": [6870, 10742, 12951, 16904, 22527, 26595, 30775, 34357, 52691, 59340], "recwords": ["blade", "oyster", "yarn", "japan", "tuba", "prison", "skillet", "world", "", "sponge"], "type": "FREE_RECALL", "conditions": [18, 1200, "a", 18000], "trial": 0, "trial_type": "free-recall", "trial_index": 41, "time_elapsed": 252820, "internal_node_id": "0.0-32.0-0.0"}}, {"uniqueid": "MTK0573:34Q075JO1YK4NT6U5H34A03F53S01R", "current_trial": 42, "dateTime": 1511213938219, "trialdata": {"rt": 2488, "key_press": 13, "type": "INSTRUCTIONS", "trial_type": "text", "trial_index": 42, "time_elapsed": 257314, "internal_node_id": "0.0-33.0"}}, {"uniqueid": "MTK0573:34Q075JO1YK4NT6U5H34A03F53S01R", "current_trial": 43, "dateTime": 1511213958224, "trialdata": {"rt": [4202, 6400, 8963, 11235, 14197, 16563], "responses": ["17", "6", "11", "15", "18", "14"], "num1": [9, 3, 2, 9, 9, 9, 2], "num2": [3, 2, 6, 1, 7, 3, 7], "num3": [5, 1, 3, 5, 2, 2, 2], "type": "DISTRACTOR", "conditions": [18, 1200, "v", 18000], "trial": 1, "trial_type": "math-distractor", "trial_index": 43, "time_elapsed": 277319, "internal_node_id": "0.0-34.0"}}, {"uniqueid": "MTK0573:34Q075JO1YK4NT6U5H34A03F53S01R", "current_trial": 44, "dateTime": 1511213961227, "trialdata": {"rt": -1, "stimulus": "<p id=\"stim\">10</p>", "key_press": -1, "trial_type": "single-stim", "trial_index": 44, "time_elapsed": 280321, "internal_node_id": "0.0-35.0-0.0"}}, {"uniqueid": "MTK0573:34Q075JO1YK4NT6U5H34A03F53S01R", "current_trial": 45, "dateTime": 1511213962229, "trialdata": {"rt": -1, "stimulus": "<p id=\"stim\">9</p>", "key_press": -1, "trial_type": "single-stim", "trial_index": 45, "time_elapsed": 281324, "internal_node_id": "0.0-35.0-1.0"}}, {"uniqueid": "MTK0573:34Q075JO1YK4NT6U5H34A03F53S01R", "current_trial": 46, "dateTime": 1511213963231, "trialdata": {"rt": -1, "stimulus": "<p id=\"stim\">8</p>", "key_press": -1, "trial_type": "single-stim", "trial_index": 46, "time_elapsed": 282326, "internal_node_id": "0.0-35.0-2.0"}}, {"uniqueid": "MTK0573:34Q075JO1YK4NT6U5H34A03F53S01R", "current_trial": 47, "dateTime": 1511213964231, "trialdata": {"rt": -1, "stimulus": "<p id=\"stim\">7</p>", "key_press": -1, "trial_type": "single-stim", "trial_index": 47, "time_elapsed": 283326, "internal_node_id": "0.0-35.0-3.0"}}, {"uniqueid": "MTK0573:34Q075JO1YK4NT6U5H34A03F53S01R", "current_trial": 48, "dateTime": 1511213965233, "trialdata": {"rt": -1, "stimulus": "<p id=\"stim\">6</p>", "key_press": -1, "trial_type": "single-stim", "trial_index": 48, "time_elapsed": 284328, "internal_node_id": "0.0-35.0-4.0"}}, {"uniqueid": "MTK0573:34Q075JO1YK4NT6U5H34A03F53S01R", "current_trial": 49, "dateTime": 1511213966236, "trialdata": {"rt": -1, "stimulus": "<p id=\"stim\">5</p>", "key_press": -1, "trial_type": "single-stim", "trial_index": 49, "time_elapsed": 285331, "internal_node_id": "0.0-35.0-5.0"}}, {"uniqueid": "MTK0573:34Q075JO1YK4NT6U5H34A03F53S01R", "current_trial": 50, "dateTime": 1511213967239, "trialdata": {"rt": -1, "stimulus": "<p id=\"stim\">4</p>", "key_press": -1, "trial_type": "single-stim", "trial_index": 50, "time_elapsed": 286334, "internal_node_id": "0.0-35.0-6.0"}}, {"uniqueid": "MTK0573:34Q075JO1YK4NT6U5H34A03F53S01R", "current_trial": 51, "dateTime": 1511213968242, "trialdata": {"rt": -1, "stimulus": "<p id=\"stim\">3</p>", "key_press": -1, "trial_type": "single-stim", "trial_index": 51, "time_elapsed": 287337, "internal_node_id": "0.0-35.0-7.0"}}, {"uniqueid": "MTK0573:34Q075JO1YK4NT6U5H34A03F53S01R", "current_trial": 52, "dateTime": 1511213969244, "trialdata": {"rt": -1, "stimulus": "<p id=\"stim\">2</p>", "key_press": -1, "trial_type": "single-stim", "trial_index": 52, "time_elapsed": 288339, "internal_node_id": "0.0-35.0-8.0"}}, {"uniqueid": "MTK0573:34Q075JO1YK4NT6U5H34A03F53S01R", "current_trial": 53, "dateTime": 1511213970248, "trialdata": {"rt": -1, "stimulus": "<p id=\"stim\">1</p>", "key_press": -1, "trial_type": "single-stim", "trial_index": 53, "time_elapsed": 289343, "internal_node_id": "0.0-35.0-9.0"}}, {"uniqueid": "MTK0573:34Q075JO1YK4NT6U5H34A03F53S01R", "current_trial": 54, "dateTime": 1511213971750, "trialdata": {"rt": -1, "stimulus": "<p id=\"stim\">+</p>", "key_press": -1, "type": "FIXATION", "trial_type": "single-stim", "trial_index": 54, "time_elapsed": 290845, "internal_node_id": "0.0-36.0-0.0"}}, {"uniqueid": "MTK0573:34Q075JO1YK4NT6U5H34A03F53S01R", "current_trial": 55, "dateTime": 1511213972952, "trialdata": {"rt": -1, "stimulus": "<p id=\"stim\">DRAGON</p>", "key_press": -1, "type": "PRES_VIS", "word": "dragon", "wordID": 491, "conditions": [18, 1200, "v", 18000], "trial": 1, "serialpos": 0, "trial_type": "single-stim", "trial_index": 55, "time_elapsed": 292046, "internal_node_id": "0.0-37.0"}}, {"uniqueid": "MTK0573:34Q075JO1YK4NT6U5H34A03F53S01R", "current_trial": 56, "dateTime": 1511213974984, "trialdata": {"rt": -1, "stimulus": "<p id=\"stim\">FRUIT</p>", "key_press": -1, "type": "PRES_VIS", "word": "fruit", "wordID": 609, "conditions": [18, 1200, "v", 18000], "trial": 1, "serialpos": 1, "trial_type": "single-stim", "trial_index": 56, "time_elapsed": 294079, "internal_node_id": "0.0-38.0"}}, {"uniqueid": "MTK0573:34Q075JO1YK4NT6U5H34A03F53S01R", "current_trial": 57, "dateTime": 1511213977214, "trialdata": {"rt": -1, "stimulus": "<p id=\"stim\">SUNSET</p>", "key_press": -1, "type": "PRES_VIS", "word": "sunset", "wordID": 1407, "conditions": [18, 1200, "v", 18000], "trial": 1, "serialpos": 2, "trial_type": "single-stim", "trial_index": 57, "time_elapsed": 296309, "internal_node_id": "0.0-39.0"}}, {"uniqueid": "MTK0573:34Q075JO1YK4NT6U5H34A03F53S01R", "current_trial": 58, "dateTime": 1511213979579, "trialdata": {"rt": -1, "stimulus": "<p id=\"stim\">PROTON</p>", "key_press": -1, "type": "PRES_VIS", "word": "proton", "wordID": 1131, "conditions": [18, 1200, "v", 18000], "trial": 1, "serialpos": 3, "trial_type": "single-stim", "trial_index": 58, "time_elapsed": 298674, "internal_node_id": "0.0-40.0"}}, {"uniqueid": "MTK0573:34Q075JO1YK4NT6U5H34A03F53S01R", "current_trial": 59, "dateTime": 1511213981751, "trialdata": {"rt": -1, "stimulus": "<p id=\"stim\">NEUTRON</p>", "key_press": -1, "type": "PRES_VIS", "word": "neutron", "wordID": 946, "conditions": [18, 1200, "v", 18000], "trial": 1, "serialpos": 4, "trial_type": "single-stim", "trial_index": 59, "time_elapsed": 300846, "internal_node_id": "0.0-41.0"}}, {"uniqueid": "MTK0573:34Q075JO1YK4NT6U5H34A03F53S01R", "current_trial": 60, "dateTime": 1511213984103, "trialdata": {"rt": -1, "stimulus": "<p id=\"stim\">PRINCESS</p>", "key_press": -1, "type": "PRES_VIS", "word": "princess", "wordID": 1124, "conditions": [18, 1200, "v", 18000], "trial": 1, "serialpos": 5, "trial_type": "single-stim", "trial_index": 60, "time_elapsed": 303198, "internal_node_id": "0.0-42.0"}}, {"uniqueid": "MTK0573:34Q075JO1YK4NT6U5H34A03F53S01R", "current_trial": 61, "dateTime": 1511213986465, "trialdata": {"rt": -1, "stimulus": "<p id=\"stim\">EMPIRE</p>", "key_press": -1, "type": "PRES_VIS", "word": "empire", "wordID": 529, "conditions": [18, 1200, "v", 18000], "trial": 1, "serialpos": 6, "trial_type": "single-stim", "trial_index": 61, "time_elapsed": 305560, "internal_node_id": "0.0-43.0"}}, {"uniqueid": "MTK0573:34Q075JO1YK4NT6U5H34A03F53S01R", "current_trial": 62, "dateTime": 1511213988677, "trialdata": {"rt": -1, "stimulus": "<p id=\"stim\">SLUG</p>", "key_press": -1, "type": "PRES_VIS", "word": "slug", "wordID": 1328, "conditions": [18, 1200, "v", 18000], "trial": 1, "serialpos": 7, "trial_type": "single-stim", "trial_index": 62, "time_elapsed": 307771, "internal_node_id": "0.0-44.0"}}, {"uniqueid": "MTK0573:34Q075JO1YK4NT6U5H34A03F53S01R", "current_trial": 63, "dateTime": 1511213991003, "trialdata": {"rt": -1, "stimulus": "<p id=\"stim\">NOMAD</p>", "key_press": -1, "type": "PRES_VIS", "word": "nomad", "wordID": 954, "conditions": [18, 1200, "v", 18000], "trial": 1, "serialpos": 8, "trial_type": "single-stim", "trial_index": 63, "time_elapsed": 310098, "internal_node_id": "0.0-45.0"}}, {"uniqueid": "MTK0573:34Q075JO1YK4NT6U5H34A03F53S01R", "current_trial": 64, "dateTime": 1511213993087, "trialdata": {"rt": -1, "stimulus": "<p id=\"stim\">THREAD</p>", "key_press": -1, "type": "PRES_VIS", "word": "thread", "wordID": 1459, "conditions": [18, 1200, "v", 18000], "trial": 1, "serialpos": 9, "trial_type": "single-stim", "trial_index": 64, "time_elapsed": 312182, "internal_node_id": "0.0-46.0"}}, {"uniqueid": "MTK0573:34Q075JO1YK4NT6U5H34A03F53S01R", "current_trial": 65, "dateTime": 1511213995184, "trialdata": {"rt": -1, "stimulus": "<p id=\"stim\">EGYPT</p>", "key_press": -1, "type": "PRES_VIS", "word": "egypt", "wordID": 518, "conditions": [18, 1200, "v", 18000], "trial": 1, "serialpos": 10, "trial_type": "single-stim", "trial_index": 65, "time_elapsed": 314279, "internal_node_id": "0.0-47.0"}}, {"uniqueid": "MTK0573:34Q075JO1YK4NT6U5H34A03F53S01R", "current_trial": 66, "dateTime": 1511213997526, "trialdata": {"rt": -1, "stimulus": "<p id=\"stim\">BANKER</p>", "key_press": -1, "type": "PRES_VIS", "word": "banker", "wordID": 83, "conditions": [18, 1200, "v", 18000], "trial": 1, "serialpos": 11, "trial_type": "single-stim", "trial_index": 66, "time_elapsed": 316620, "internal_node_id": "0.0-48.0"}}, {"uniqueid": "MTK0573:34Q075JO1YK4NT6U5H34A03F53S01R", "current_trial": 67, "dateTime": 1511213999637, "trialdata": {"rt": -1, "stimulus": "<p id=\"stim\">LODGE</p>", "key_press": -1, "type": "PRES_VIS", "word": "lodge", "wordID": 838, "conditions": [18, 1200, "v", 18000], "trial": 1, "serialpos": 12, "trial_type": "single-stim", "trial_index": 67, "time_elapsed": 318731, "internal_node_id": "0.0-49.0"}}, {"uniqueid": "MTK0573:34Q075JO1YK4NT6U5H34A03F53S01R", "current_trial": 68, "dateTime": 1511214001844, "trialdata": {"rt": -1, "stimulus": "<p id=\"stim\">DRIVER</p>", "key_press": -1, "type": "PRES_VIS", "word": "driver", "wordID": 498, "conditions": [18, 1200, "v", 18000], "trial": 1, "serialpos": 13, "trial_type": "single-stim", "trial_index": 68, "time_elapsed": 320935, "internal_node_id": "0.0-50.0"}}, {"uniqueid": "MTK0573:34Q075JO1YK4NT6U5H34A03F53S01R", "current_trial": 69, "dateTime": 1511214004119, "trialdata": {"rt": -1, "stimulus": "<p id=\"stim\">MATTRESS</p>", "key_press": -1, "type": "PRES_VIS", "word": "mattress", "wordID": 878, "conditions": [18, 1200, "v", 18000], "trial": 1, "serialpos": 14, "trial_type": "single-stim", "trial_index": 69, "time_elapsed": 323214, "internal_node_id": "0.0-51.0"}}, {"uniqueid": "MTK0573:34Q075JO1YK4NT6U5H34A03F53S01R", "current_trial": 70, "dateTime": 1511214006138, "trialdata": {"rt": -1, "stimulus": "<p id=\"stim\">ZIPPER</p>", "key_press": -1, "type": "PRES_VIS", "word": "zipper", "wordID": 1635, "conditions": [18, 1200, "v", 18000], "trial": 1, "serialpos": 15, "trial_type": "single-stim", "trial_index": 70, "time_elapsed": 325233, "internal_node_id": "0.0-52.0"}}, {"uniqueid": "MTK0573:34Q075JO1YK4NT6U5H34A03F53S01R", "current_trial": 71, "dateTime": 1511214008386, "trialdata": {"rt": -1, "stimulus": "<p id=\"stim\">COUNTRY</p>", "key_press": -1, "type": "PRES_VIS", "word": "country", "wordID": 387, "conditions": [18, 1200, "v", 18000], "trial": 1, "serialpos": 16, "trial_type": "single-stim", "trial_index": 71, "time_elapsed": 327481, "internal_node_id": "0.0-53.0"}}, {"uniqueid": "MTK0573:34Q075JO1YK4NT6U5H34A03F53S01R", "current_trial": 72, "dateTime": 1511214010602, "trialdata": {"rt": -1, "stimulus": "<p id=\"stim\">SEAFOOD</p>", "key_press": -1, "type": "PRES_VIS", "word": "seafood", "wordID": 1259, "conditions": [18, 1200, "v", 18000], "trial": 1, "serialpos": 17, "trial_type": "single-stim", "trial_index": 72, "time_elapsed": 329697, "internal_node_id": "0.0-54.0"}}, {"uniqueid": "MTK0573:34Q075JO1YK4NT6U5H34A03F53S01R", "current_trial": 73, "dateTime": 1511214012713, "trialdata": {"rt": -1, "stimulus": "", "key_press": -1, "type": "PRE_RECALL_DELAY", "trial_type": "single-stim", "trial_index": 73, "time_elapsed": 331808, "internal_node_id": "0.0-55.0-0.0"}}, {"uniqueid": "MTK0573:34Q075JO1YK4NT6U5H34A03F53S01R", "current_trial": 74, "dateTime": 1511214013220, "trialdata": {"rt": -1000, "stimulus": "/static/audio/400Hz.wav", "key_press": -1, "type": "PRE_RECALL_ALERT", "trial_type": "single-audio", "trial_index": 74, "time_elapsed": 332315, "internal_node_id": "0.0-56.0"}}, {"uniqueid": "MTK0573:34Q075JO1YK4NT6U5H34A03F53S01R", "current_trial": 75, "dateTime": 1511214073230, "trialdata": {"rt": [5300, 10496, 13568, 21835, 25490, 30000, 48823, 55223], "recwords": ["dragon", "princess", "thread", "country", "egypt", "snake", "python", "banker"], "type": "FREE_RECALL", "conditions": [18, 1200, "v", 18000], "trial": 1, "trial_type": "free-recall", "trial_index": 75, "time_elapsed": 392321, "internal_node_id": "0.0-57.0-0.0"}}, {"uniqueid": "MTK0573:34Q075JO1YK4NT6U5H34A03F53S01R", "current_trial": 76, "dateTime": 1511214078195, "trialdata": {"rt": 2956, "key_press": 13, "type": "INSTRUCTIONS", "trial_type": "text", "trial_index": 76, "time_elapsed": 397283, "internal_node_id": "0.0-58.0"}}, {"uniqueid": "MTK0573:34Q075JO1YK4NT6U5H34A03F53S01R", "current_trial": 77, "dateTime": 1511214103201, "trialdata": {"rt": [3611, 6013, 8674, 11418, 13791, 16486, 19667, 22321], "responses": ["17", "10", "22", "18", "13", "16", "12", "12"], "num1": [8, 3, 8, 7, 2, 7, 1, 3, 2], "num2": [5, 5, 9, 3, 3, 1, 4, 2, 8], "num3": [4, 2, 5, 8, 5, 8, 7, 7, 5], "type": "DISTRACTOR", "conditions": [24, 800, "v", 24000], "trial": 2, "trial_type": "math-distractor", "trial_index": 77, "time_elapsed": 422296, "internal_node_id": "0.0-59.0"}}, {"uniqueid": "MTK0573:34Q075JO1YK4NT6U5H34A03F53S01R", "current_trial": 78, "dateTime": 1511214106203, "trialdata": {"rt": -1, "stimulus": "<p id=\"stim\">10</p>", "key_press": -1, "trial_type": "single-stim", "trial_index": 78, "time_elapsed": 425298, "internal_node_id": "0.0-60.0-0.0"}}, {"uniqueid": "MTK0573:34Q075JO1YK4NT6U5H34A03F53S01R", "current_trial": 79, "dateTime": 1511214107206, "trialdata": {"rt": -1, "stimulus": "<p id=\"stim\">9</p>", "key_press": -1, "trial_type": "single-stim", "trial_index": 79, "time_elapsed": 426301, "internal_node_id": "0.0-60.0-1.0"}}, {"uniqueid": "MTK0573:34Q075JO1YK4NT6U5H34A03F53S01R", "current_trial": 80, "dateTime": 1511214108208, "trialdata": {"rt": -1, "stimulus": "<p id=\"stim\">8</p>", "key_press": -1, "trial_type": "single-stim", "trial_index": 80, "time_elapsed": 427303, "internal_node_id": "0.0-60.0-2.0"}}, {"uniqueid": "MTK0573:34Q075JO1YK4NT6U5H34A03F53S01R", "current_trial": 81, "dateTime": 1511214109210, "trialdata": {"rt": -1, "stimulus": "<p id=\"stim\">7</p>", "key_press": -1, "trial_type": "single-stim", "trial_index": 81, "time_elapsed": 428305, "internal_node_id": "0.0-60.0-3.0"}}, {"uniqueid": "MTK0573:34Q075JO1YK4NT6U5H34A03F53S01R", "current_trial": 82, "dateTime": 1511214110212, "trialdata": {"rt": -1, "stimulus": "<p id=\"stim\">6</p>", "key_press": -1, "trial_type": "single-stim", "trial_index": 82, "time_elapsed": 429307, "internal_node_id": "0.0-60.0-4.0"}}, {"uniqueid": "MTK0573:34Q075JO1YK4NT6U5H34A03F53S01R", "current_trial": 83, "dateTime": 1511214111214, "trialdata": {"rt": -1, "stimulus": "<p id=\"stim\">5</p>", "key_press": -1, "trial_type": "single-stim", "trial_index": 83, "time_elapsed": 430309, "internal_node_id": "0.0-60.0-5.0"}}, {"uniqueid": "MTK0573:34Q075JO1YK4NT6U5H34A03F53S01R", "current_trial": 84, "dateTime": 1511214112216, "trialdata": {"rt": -1, "stimulus": "<p id=\"stim\">4</p>", "key_press": -1, "trial_type": "single-stim", "trial_index": 84, "time_elapsed": 431311, "internal_node_id": "0.0-60.0-6.0"}}, {"uniqueid": "MTK0573:34Q075JO1YK4NT6U5H34A03F53S01R", "current_trial": 85, "dateTime": 1511214113219, "trialdata": {"rt": -1, "stimulus": "<p id=\"stim\">3</p>", "key_press": -1, "trial_type": "single-stim", "trial_index": 85, "time_elapsed": 432314, "internal_node_id": "0.0-60.0-7.0"}}, {"uniqueid": "MTK0573:34Q075JO1YK4NT6U5H34A03F53S01R", "current_trial": 86, "dateTime": 1511214114221, "trialdata": {"rt": -1, "stimulus": "<p id=\"stim\">2</p>", "key_press": -1, "trial_type": "single-stim", "trial_index": 86, "time_elapsed": 433316, "internal_node_id": "0.0-60.0-8.0"}}, {"uniqueid": "MTK0573:34Q075JO1YK4NT6U5H34A03F53S01R", "current_trial": 87, "dateTime": 1511214115224, "trialdata": {"rt": -1, "stimulus": "<p id=\"stim\">1</p>", "key_press": -1, "trial_type": "single-stim", "trial_index": 87, "time_elapsed": 434319, "internal_node_id": "0.0-60.0-9.0"}}, {"uniqueid": "MTK0573:34Q075JO1YK4NT6U5H34A03F53S01R", "current_trial": 88, "dateTime": 1511214116727, "trialdata": {"rt": -1, "stimulus": "<p id=\"stim\">+</p>", "key_press": -1, "type": "FIXATION", "trial_type": "single-stim", "trial_index": 88, "time_elapsed": 435822, "internal_node_id": "0.0-61.0-0.0"}}, {"uniqueid": "MTK0573:34Q075JO1YK4NT6U5H34A03F53S01R", "current_trial": 89, "dateTime": 1511214117528, "trialdata": {"rt": -1, "stimulus": "<p id=\"stim\">SUBWAY</p>", "key_press": -1, "type": "PRES_VIS", "word": "subway", "wordID": 1399, "conditions": [24, 800, "v", 24000], "trial": 2, "serialpos": 0, "trial_type": "single-stim", "trial_index": 89, "time_elapsed": 436623, "internal_node_id": "0.0-62.0"}}, {"uniqueid": "MTK0573:34Q075JO1YK4NT6U5H34A03F53S01R", "current_trial": 90, "dateTime": 1511214119269, "trialdata": {"rt": -1, "stimulus": "<p id=\"stim\">PUDDLE</p>", "key_press": -1, "type": "PRES_VIS", "word": "puddle", "wordID": 1139, "conditions": [24, 800, "v", 24000], "trial": 2, "serialpos": 1, "trial_type": "single-stim", "trial_index": 90, "time_elapsed": 438363, "internal_node_id": "0.0-63.0"}}, {"uniqueid": "MTK0573:34Q075JO1YK4NT6U5H34A03F53S01R", "current_trial": 91, "dateTime": 1511214121068, "trialdata": {"rt": -1, "stimulus": "<p id=\"stim\">PIGEON</p>", "key_press": -1, "type": "PRES_VIS", "word": "pigeon", "wordID": 1064, "conditions": [24, 800, "v", 24000], "trial": 2, "serialpos": 2, "trial_type": "single-stim", "trial_index": 91, "time_elapsed": 440163, "internal_node_id": "0.0-64.0"}}, {"uniqueid": "MTK0573:34Q075JO1YK4NT6U5H34A03F53S01R", "current_trial": 92, "dateTime": 1511214122909, "trialdata": {"rt": -1, "stimulus": "<p id=\"stim\">TRACTOR</p>", "key_press": -1, "type": "PRES_VIS", "word": "tractor", "wordID": 1492, "conditions": [24, 800, "v", 24000], "trial": 2, "serialpos": 3, "trial_type": "single-stim", "trial_index": 92, "time_elapsed": 442004, "internal_node_id": "0.0-65.0"}}, {"uniqueid": "MTK0573:34Q075JO1YK4NT6U5H34A03F53S01R", "current_trial": 93, "dateTime": 1511214124525, "trialdata": {"rt": -1, "stimulus": "<p id=\"stim\">WAGON</p>", "key_press": -1, "type": "PRES_VIS", "word": "wagon", "wordID": 1577, "conditions": [24, 800, "v", 24000], "trial": 2, "serialpos": 4, "trial_type": "single-stim", "trial_index": 93, "time_elapsed": 443620, "internal_node_id": "0.0-66.0"}}, {"uniqueid": "MTK0573:34Q075JO1YK4NT6U5H34A03F53S01R", "current_trial": 94, "dateTime": 1511214126510, "trialdata": {"rt": -1, "stimulus": "<p id=\"stim\">AIRPORT</p>", "key_press": -1, "type": "PRES_VIS", "word": "airport", "wordID": 12, "conditions": [24, 800, "v", 24000], "trial": 2, "serialpos": 5, "trial_type": "single-stim", "trial_index": 94, "time_elapsed": 445605, "internal_node_id": "0.0-67.0"}}, {"uniqueid": "MTK0573:34Q075JO1YK4NT6U5H34A03F53S01R", "current_trial": 95, "dateTime": 1511214128455, "trialdata": {"rt": -1, "stimulus": "<p id=\"stim\">RIVER</p>", "key_press": -1, "type": "PRES_VIS", "word": "river", "wordID": 1193, "conditions": [24, 800, "v", 24000], "trial": 2, "serialpos": 6, "trial_type": "single-stim", "trial_index": 95, "time_elapsed": 447550, "internal_node_id": "0.0-68.0"}}, {"uniqueid": "MTK0573:34Q075JO1YK4NT6U5H34A03F53S01R", "current_trial": 96, "dateTime": 1511214130302, "trialdata": {"rt": -1, "stimulus": "<p id=\"stim\">DANCER</p>", "key_press": -1, "type": "PRES_VIS", "word": "dancer", "wordID": 436, "conditions": [24, 800, "v", 24000], "trial": 2, "serialpos": 7, "trial_type": "single-stim", "trial_index": 96, "time_elapsed": 449397, "internal_node_id": "0.0-69.0"}}, {"uniqueid": "MTK0573:34Q075JO1YK4NT6U5H34A03F53S01R", "current_trial": 97, "dateTime": 1511214132239, "trialdata": {"rt": -1, "stimulus": "<p id=\"stim\">SPOUSE</p>", "key_press": -1, "type": "PRES_VIS", "word": "spouse", "wordID": 1357, "conditions": [24, 800, "v", 24000], "trial": 2, "serialpos": 8, "trial_type": "single-stim", "trial_index": 97, "time_elapsed": 451334, "internal_node_id": "0.0-70.0"}}, {"uniqueid": "MTK0573:34Q075JO1YK4NT6U5H34A03F53S01R", "current_trial": 98, "dateTime": 1511214134155, "trialdata": {"rt": -1, "stimulus": "<p id=\"stim\">BULLET</p>", "key_press": -1, "type": "PRES_VIS", "word": "bullet", "wordID": 193, "conditions": [24, 800, "v", 24000], "trial": 2, "serialpos": 9, "trial_type": "single-stim", "trial_index": 98, "time_elapsed": 453250, "internal_node_id": "0.0-71.0"}}, {"uniqueid": "MTK0573:34Q075JO1YK4NT6U5H34A03F53S01R", "current_trial": 99, "dateTime": 1511214136072, "trialdata": {"rt": -1, "stimulus": "<p id=\"stim\">SCALPEL</p>", "key_press": -1, "type": "PRES_VIS", "word": "scalpel", "wordID": 1242, "conditions": [24, 800, "v", 24000], "trial": 2, "serialpos": 10, "trial_type": "single-stim", "trial_index": 99, "time_elapsed": 455167, "internal_node_id": "0.0-72.0"}}, {"uniqueid": "MTK0573:34Q075JO1YK4NT6U5H34A03F53S01R", "current_trial": 100, "dateTime": 1511214138012, "trialdata": {"rt": -1, "stimulus": "<p id=\"stim\">WIFE</p>", "key_press": -1, "type": "PRES_VIS", "word": "wife", "wordID": 1608, "conditions": [24, 800, "v", 24000], "trial": 2, "serialpos": 11, "trial_type": "single-stim", "trial_index": 100, "time_elapsed": 457103, "internal_node_id": "0.0-73.0"}}, {"uniqueid": "MTK0573:34Q075JO1YK4NT6U5H34A03F53S01R", "current_trial": 101, "dateTime": 1511214139883, "trialdata": {"rt": -1, "stimulus": "<p id=\"stim\">GAZELLE</p>", "key_press": -1, "type": "PRES_VIS", "word": "gazelle", "wordID": 627, "conditions": [24, 800, "v", 24000], "trial": 2, "serialpos": 12, "trial_type": "single-stim", "trial_index": 101, "time_elapsed": 458977, "internal_node_id": "0.0-74.0"}}, {"uniqueid": "MTK0573:34Q075JO1YK4NT6U5H34A03F53S01R", "current_trial": 102, "dateTime": 1511214141884, "trialdata": {"rt": -1, "stimulus": "<p id=\"stim\">UMPIRE</p>", "key_press": -1, "type": "PRES_VIS", "word": "umpire", "wordID": 1534, "conditions": [24, 800, "v", 24000], "trial": 2, "serialpos": 13, "trial_type": "single-stim", "trial_index": 102, "time_elapsed": 460979, "internal_node_id": "0.0-75.0"}}, {"uniqueid": "MTK0573:34Q075JO1YK4NT6U5H34A03F53S01R", "current_trial": 103, "dateTime": 1511214143759, "trialdata": {"rt": -1, "stimulus": "<p id=\"stim\">CRATER</p>", "key_press": -1, "type": "PRES_VIS", "word": "crater", "wordID": 399, "conditions": [24, 800, "v", 24000], "trial": 2, "serialpos": 14, "trial_type": "single-stim", "trial_index": 103, "time_elapsed": 462854, "internal_node_id": "0.0-76.0"}}, {"uniqueid": "MTK0573:34Q075JO1YK4NT6U5H34A03F53S01R", "current_trial": 104, "dateTime": 1511214145541, "trialdata": {"rt": -1, "stimulus": "<p id=\"stim\">PATIENT</p>", "key_press": -1, "type": "PRES_VIS", "word": "patient", "wordID": 1023, "conditions": [24, 800, "v", 24000], "trial": 2, "serialpos": 15, "trial_type": "single-stim", "trial_index": 104, "time_elapsed": 464636, "internal_node_id": "0.0-77.0"}}, {"uniqueid": "MTK0573:34Q075JO1YK4NT6U5H34A03F53S01R", "current_trial": 105, "dateTime": 1511214147444, "trialdata": {"rt": -1, "stimulus": "<p id=\"stim\">NURSE</p>", "key_press": -1, "type": "PRES_VIS", "word": "nurse", "wordID": 962, "conditions": [24, 800, "v", 24000], "trial": 2, "serialpos": 16, "trial_type": "single-stim", "trial_index": 105, "time_elapsed": 466539, "internal_node_id": "0.0-78.0"}}, {"uniqueid": "MTK0573:34Q075JO1YK4NT6U5H34A03F53S01R", "current_trial": 106, "dateTime": 1511214149100, "trialdata": {"rt": -1, "stimulus": "<p id=\"stim\">LAVA</p>", "key_press": -1, "type": "PRES_VIS", "word": "lava", "wordID": 803, "conditions": [24, 800, "v", 24000], "trial": 2, "serialpos": 17, "trial_type": "single-stim", "trial_index": 106, "time_elapsed": 468195, "internal_node_id": "0.0-79.0"}}, {"uniqueid": "MTK0573:34Q075JO1YK4NT6U5H34A03F53S01R", "current_trial": 107, "dateTime": 1511214150909, "trialdata": {"rt": -1, "stimulus": "<p id=\"stim\">KEEPER</p>", "key_press": -1, "type": "PRES_VIS", "word": "keeper", "wordID": 768, "conditions": [24, 800, "v", 24000], "trial": 2, "serialpos": 18, "trial_type": "single-stim", "trial_index": 107, "time_elapsed": 470004, "internal_node_id": "0.0-80.0"}}, {"uniqueid": "MTK0573:34Q075JO1YK4NT6U5H34A03F53S01R", "current_trial": 108, "dateTime": 1511214152809, "trialdata": {"rt": -1, "stimulus": "<p id=\"stim\">CANDY</p>", "key_press": -1, "type": "PRES_VIS", "word": "candy", "wordID": 229, "conditions": [24, 800, "v", 24000], "trial": 2, "serialpos": 19, "trial_type": "single-stim", "trial_index": 108, "time_elapsed": 471904, "internal_node_id": "0.0-81.0"}}, {"uniqueid": "MTK0573:34Q075JO1YK4NT6U5H34A03F53S01R", "current_trial": 109, "dateTime": 1511214154749, "trialdata": {"rt": -1, "stimulus": "<p id=\"stim\">POSSUM</p>", "key_press": -1, "type": "PRES_VIS", "word": "possum", "wordID": 1111, "conditions": [24, 800, "v", 24000], "trial": 2, "serialpos": 20, "trial_type": "single-stim", "trial_index": 109, "time_elapsed": 473844, "internal_node_id": "0.0-82.0"}}, {"uniqueid": "MTK0573:34Q075JO1YK4NT6U5H34A03F53S01R", "current_trial": 110, "dateTime": 1511214156587, "trialdata": {"rt": -1, "stimulus": "<p id=\"stim\">BUBBLE</p>", "key_press": -1, "type": "PRES_VIS", "word": "bubble", "wordID": 182, "conditions": [24, 800, "v", 24000], "trial": 2, "serialpos": 21, "trial_type": "single-stim", "trial_index": 110, "time_elapsed": 475681, "internal_node_id": "0.0-83.0"}}, {"uniqueid": "MTK0573:34Q075JO1YK4NT6U5H34A03F53S01R", "current_trial": 111, "dateTime": 1511214158492, "trialdata": {"rt": -1, "stimulus": "<p id=\"stim\">DAUGHTER</p>", "key_press": -1, "type": "PRES_VIS", "word": "daughter", "wordID": 441, "conditions": [24, 800, "v", 24000], "trial": 2, "serialpos": 22, "trial_type": "single-stim", "trial_index": 111, "time_elapsed": 477587, "internal_node_id": "0.0-84.0"}}, {"uniqueid": "MTK0573:34Q075JO1YK4NT6U5H34A03F53S01R", "current_trial": 112, "dateTime": 1511214160420, "trialdata": {"rt": -1, "stimulus": "<p id=\"stim\">PALACE</p>", "key_press": -1, "type": "PRES_VIS", "word": "palace", "wordID": 1005, "conditions": [24, 800, "v", 24000], "trial": 2, "serialpos": 23, "trial_type": "single-stim", "trial_index": 112, "time_elapsed": 479515, "internal_node_id": "0.0-85.0"}}, {"uniqueid": "MTK0573:34Q075JO1YK4NT6U5H34A03F53S01R", "current_trial": 113, "dateTime": 1511214162524, "trialdata": {"rt": -1, "stimulus": "", "key_press": -1, "type": "PRE_RECALL_DELAY", "trial_type": "single-stim", "trial_index": 113, "time_elapsed": 481619, "internal_node_id": "0.0-86.0-0.0"}}, {"uniqueid": "MTK0573:34Q075JO1YK4NT6U5H34A03F53S01R", "current_trial": 114, "dateTime": 1511214163031, "trialdata": {"rt": -1000, "stimulus": "/static/audio/400Hz.wav", "key_press": -1, "type": "PRE_RECALL_ALERT", "trial_type": "single-audio", "trial_index": 114, "time_elapsed": 482126, "internal_node_id": "0.0-87.0"}}, {"uniqueid": "MTK0573:34Q075JO1YK4NT6U5H34A03F53S01R", "current_trial": 115, "dateTime": 1511214223039, "trialdata": {"rt": [4729, 10043, 13279, 16117, 18845, 24069, 26772, 34979, 42002], "recwords": ["subway", "puddle", "river", "umpire", "nurse", "empire", "airportt", "dancer", "bullet"], "type": "FREE_RECALL", "conditions": [24, 800, "v", 24000], "trial": 2, "trial_type": "free-recall", "trial_index": 115, "time_elapsed": 542128, "internal_node_id": "0.0-88.0-0.0"}}, {"uniqueid": "MTK0573:34Q075JO1YK4NT6U5H34A03F53S01R", "current_trial": 116, "dateTime": 1511214227101, "trialdata": {"rt": 2060, "key_press": 13, "type": "INSTRUCTIONS", "trial_type": "text", "trial_index": 116, "time_elapsed": 546196, "internal_node_id": "0.0-89.0"}}, {"uniqueid": "MTK0573:34Q075JO1YK4NT6U5H34A03F53S01R", "current_trial": 117, "dateTime": 1511214253106, "trialdata": {"rt": [3564, 6379, 9286, 11850, 15275, 17366, 19912, 22236], "responses": ["19", "16", "16", "21", "8", "14", "15", "14"], "num1": [8, 8, 1, 7, 4, 7, 3, 4, 2], "num2": [4, 5, 8, 9, 1, 3, 4, 6, 4], "num3": [7, 3, 7, 5, 3, 4, 8, 4, 4], "type": "DISTRACTOR", "conditions": [12, 1600, "a", 24000], "trial": 3, "trial_type": "math-distractor", "trial_index": 117, "time_elapsed": 572201, "internal_node_id": "0.0-90.0"}}, {"uniqueid": "MTK0573:34Q075JO1YK4NT6U5H34A03F53S01R", "current_trial": 118, "dateTime": 1511214256110, "trialdata": {"rt": -1, "stimulus": "<p id=\"stim\">10</p>", "key_press": -1, "trial_type": "single-stim", "trial_index": 118, "time_elapsed": 575205, "internal_node_id": "0.0-91.0-0.0"}}, {"uniqueid": "MTK0573:34Q075JO1YK4NT6U5H34A03F53S01R", "current_trial": 119, "dateTime": 1511214257112, "trialdata": {"rt": -1, "stimulus": "<p id=\"stim\">9</p>", "key_press": -1, "trial_type": "single-stim", "trial_index": 119, "time_elapsed": 576206, "internal_node_id": "0.0-91.0-1.0"}}, {"uniqueid": "MTK0573:34Q075JO1YK4NT6U5H34A03F53S01R", "current_trial": 120, "dateTime": 1511214258113, "trialdata": {"rt": -1, "stimulus": "<p id=\"stim\">8</p>", "key_press": -1, "trial_type": "single-stim", "trial_index": 120, "time_elapsed": 577208, "internal_node_id": "0.0-91.0-2.0"}}, {"uniqueid": "MTK0573:34Q075JO1YK4NT6U5H34A03F53S01R", "current_trial": 121, "dateTime": 1511214259116, "trialdata": {"rt": -1, "stimulus": "<p id=\"stim\">7</p>", "key_press": -1, "trial_type": "single-stim", "trial_index": 121, "time_elapsed": 578211, "internal_node_id": "0.0-91.0-3.0"}}, {"uniqueid": "MTK0573:34Q075JO1YK4NT6U5H34A03F53S01R", "current_trial": 122, "dateTime": 1511214260118, "trialdata": {"rt": -1, "stimulus": "<p id=\"stim\">6</p>", "key_press": -1, "trial_type": "single-stim", "trial_index": 122, "time_elapsed": 579213, "internal_node_id": "0.0-91.0-4.0"}}, {"uniqueid": "MTK0573:34Q075JO1YK4NT6U5H34A03F53S01R", "current_trial": 123, "dateTime": 1511214261120, "trialdata": {"rt": -1, "stimulus": "<p id=\"stim\">5</p>", "key_press": -1, "trial_type": "single-stim", "trial_index": 123, "time_elapsed": 580215, "internal_node_id": "0.0-91.0-5.0"}}, {"uniqueid": "MTK0573:34Q075JO1YK4NT6U5H34A03F53S01R", "current_trial": 124, "dateTime": 1511214262123, "trialdata": {"rt": -1, "stimulus": "<p id=\"stim\">4</p>", "key_press": -1, "trial_type": "single-stim", "trial_index": 124, "time_elapsed": 581218, "internal_node_id": "0.0-91.0-6.0"}}, {"uniqueid": "MTK0573:34Q075JO1YK4NT6U5H34A03F53S01R", "current_trial": 125, "dateTime": 1511214263125, "trialdata": {"rt": -1, "stimulus": "<p id=\"stim\">3</p>", "key_press": -1, "trial_type": "single-stim", "trial_index": 125, "time_elapsed": 582220, "internal_node_id": "0.0-91.0-7.0"}}, {"uniqueid": "MTK0573:34Q075JO1YK4NT6U5H34A03F53S01R", "current_trial": 126, "dateTime": 1511214264127, "trialdata": {"rt": -1, "stimulus": "<p id=\"stim\">2</p>", "key_press": -1, "trial_type": "single-stim", "trial_index": 126, "time_elapsed": 583222, "internal_node_id": "0.0-91.0-8.0"}}, {"uniqueid": "MTK0573:34Q075JO1YK4NT6U5H34A03F53S01R", "current_trial": 127, "dateTime": 1511214265128, "trialdata": {"rt": -1, "stimulus": "<p id=\"stim\">1</p>", "key_press": -1, "trial_type": "single-stim", "trial_index": 127, "time_elapsed": 584223, "internal_node_id": "0.0-91.0-9.0"}}, {"uniqueid": "MTK0573:34Q075JO1YK4NT6U5H34A03F53S01R", "current_trial": 128, "dateTime": 1511214266630, "trialdata": {"rt": -1, "stimulus": "<p id=\"stim\">+</p>", "key_press": -1, "type": "FIXATION", "trial_type": "single-stim", "trial_index": 128, "time_elapsed": 585725, "internal_node_id": "0.0-92.0-0.0"}}, {"uniqueid": "MTK0573:34Q075JO1YK4NT6U5H34A03F53S01R", "current_trial": 129, "dateTime": 1511214269337, "trialdata": {"rt": -1000, "stimulus": "/static/audio/wordpool/DINER.wav", "key_press": -1, "type": "PRES_AUD", "word": "diner", "wordID": 466, "conditions": [12, 1600, "a", 24000], "trial": 3, "serialpos": 0, "trial_type": "single-audio", "trial_index": 129, "time_elapsed": 588432, "internal_node_id": "0.0-93.0"}}, {"uniqueid": "MTK0573:34Q075JO1YK4NT6U5H34A03F53S01R", "current_trial": 130, "dateTime": 1511214272047, "trialdata": {"rt": -1000, "stimulus": "/static/audio/wordpool/SHARK.wav", "key_press": -1, "type": "PRES_AUD", "word": "shark", "wordID": 1274, "conditions": [12, 1600, "a", 24000], "trial": 3, "serialpos": 1, "trial_type": "single-audio", "trial_index": 130, "time_elapsed": 591142, "internal_node_id": "0.0-94.0"}}, {"uniqueid": "MTK0573:34Q075JO1YK4NT6U5H34A03F53S01R", "current_trial": 131, "dateTime": 1511214274772, "trialdata": {"rt": -1000, "stimulus": "/static/audio/wordpool/PENGUIN.wav", "key_press": -1, "type": "PRES_AUD", "word": "penguin", "wordID": 1043, "conditions": [12, 1600, "a", 24000], "trial": 3, "serialpos": 2, "trial_type": "single-audio", "trial_index": 131, "time_elapsed": 593867, "internal_node_id": "0.0-95.0"}}, {"uniqueid": "MTK0573:34Q075JO1YK4NT6U5H34A03F53S01R", "current_trial": 132, "dateTime": 1511214277325, "trialdata": {"rt": -1000, "stimulus": "/static/audio/wordpool/HUMAN.wav", "key_press": -1, "type": "PRES_AUD", "word": "human", "wordID": 725, "conditions": [12, 1600, "a", 24000], "trial": 3, "serialpos": 3, "trial_type": "single-audio", "trial_index": 132, "time_elapsed": 596420, "internal_node_id": "0.0-96.0"}}, {"uniqueid": "MTK0573:34Q075JO1YK4NT6U5H34A03F53S01R", "current_trial": 133, "dateTime": 1511214279875, "trialdata": {"rt": -1000, "stimulus": "/static/audio/wordpool/NIGHTGOWN.wav", "key_press": -1, "type": "PRES_AUD", "word": "nightgown", "wordID": 952, "conditions": [12, 1600, "a", 24000], "trial": 3, "serialpos": 4, "trial_type": "single-audio", "trial_index": 133, "time_elapsed": 598970, "internal_node_id": "0.0-97.0"}}, {"uniqueid": "MTK0573:34Q075JO1YK4NT6U5H34A03F53S01R", "current_trial": 134, "dateTime": 1511214282361, "trialdata": {"rt": -1000, "stimulus": "/static/audio/wordpool/FLUTE.wav", "key_press": -1, "type": "PRES_AUD", "word": "flute", "wordID": 584, "conditions": [12, 1600, "a", 24000], "trial": 3, "serialpos": 5, "trial_type": "single-audio", "trial_index": 134, "time_elapsed": 601455, "internal_node_id": "0.0-98.0"}}, {"uniqueid": "MTK0573:34Q075JO1YK4NT6U5H34A03F53S01R", "current_trial": 135, "dateTime": 1511214285155, "trialdata": {"rt": -1000, "stimulus": "/static/audio/wordpool/GUITAR.wav", "key_press": -1, "type": "PRES_AUD", "word": "guitar", "wordID": 669, "conditions": [12, 1600, "a", 24000], "trial": 3, "serialpos": 6, "trial_type": "single-audio", "trial_index": 135, "time_elapsed": 604250, "internal_node_id": "0.0-99.0"}}, {"uniqueid": "MTK0573:34Q075JO1YK4NT6U5H34A03F53S01R", "current_trial": 136, "dateTime": 1511214287651, "trialdata": {"rt": -1000, "stimulus": "/static/audio/wordpool/SMOG.wav", "key_press": -1, "type": "PRES_AUD", "word": "smog", "wordID": 1329, "conditions": [12, 1600, "a", 24000], "trial": 3, "serialpos": 7, "trial_type": "single-audio", "trial_index": 136, "time_elapsed": 606746, "internal_node_id": "0.0-100.0"}}, {"uniqueid": "MTK0573:34Q075JO1YK4NT6U5H34A03F53S01R", "current_trial": 137, "dateTime": 1511214290115, "trialdata": {"rt": -1000, "stimulus": "/static/audio/wordpool/DRILL.wav", "key_press": -1, "type": "PRES_AUD", "word": "drill", "wordID": 496, "conditions": [12, 1600, "a", 24000], "trial": 3, "serialpos": 8, "trial_type": "single-audio", "trial_index": 137, "time_elapsed": 609209, "internal_node_id": "0.0-101.0"}}, {"uniqueid": "MTK0573:34Q075JO1YK4NT6U5H34A03F53S01R", "current_trial": 138, "dateTime": 1511214292709, "trialdata": {"rt": -1000, "stimulus": "/static/audio/wordpool/STAPLE.wav", "key_press": -1, "type": "PRES_AUD", "word": "staple", "wordID": 1370, "conditions": [12, 1600, "a", 24000], "trial": 3, "serialpos": 9, "trial_type": "single-audio", "trial_index": 138, "time_elapsed": 611803, "internal_node_id": "0.0-102.0"}}, {"uniqueid": "MTK0573:34Q075JO1YK4NT6U5H34A03F53S01R", "current_trial": 139, "dateTime": 1511214295396, "trialdata": {"rt": -1000, "stimulus": "/static/audio/wordpool/FOX.wav", "key_press": -1, "type": "PRES_AUD", "word": "fox", "wordID": 597, "conditions": [12, 1600, "a", 24000], "trial": 3, "serialpos": 10, "trial_type": "single-audio", "trial_index": 139, "time_elapsed": 614490, "internal_node_id": "0.0-103.0"}}, {"uniqueid": "MTK0573:34Q075JO1YK4NT6U5H34A03F53S01R", "current_trial": 140, "dateTime": 1511214297893, "trialdata": {"rt": -1000, "stimulus": "/static/audio/wordpool/OZONE.wav", "key_press": -1, "type": "PRES_AUD", "word": "ozone", "wordID": 995, "conditions": [12, 1600, "a", 24000], "trial": 3, "serialpos": 11, "trial_type": "single-audio", "trial_index": 140, "time_elapsed": 616988, "internal_node_id": "0.0-104.0"}}, {"uniqueid": "MTK0573:34Q075JO1YK4NT6U5H34A03F53S01R", "current_trial": 141, "dateTime": 1511214299226, "trialdata": {"rt": -1, "stimulus": "", "key_press": -1, "type": "PRE_RECALL_DELAY", "trial_type": "single-stim", "trial_index": 141, "time_elapsed": 618321, "internal_node_id": "0.0-105.0-0.0"}}, {"uniqueid": "MTK0573:34Q075JO1YK4NT6U5H34A03F53S01R", "current_trial": 142, "dateTime": 1511214299728, "trialdata": {"rt": -1000, "stimulus": "/static/audio/400Hz.wav", "key_press": -1, "type": "PRE_RECALL_ALERT", "trial_type": "single-audio", "trial_index": 142, "time_elapsed": 618823, "internal_node_id": "0.0-106.0"}}, {"uniqueid": "MTK0573:34Q075JO1YK4NT6U5H34A03F53S01R", "current_trial": 143, "dateTime": 1511214359738, "trialdata": {"rt": [5157, 7307, 10469, 15083, 22243, 26320, 28586], "recwords": ["ozone", "fox", "human", "penguin", "nightgown", "smog", "diner"], "type": "FREE_RECALL", "conditions": [12, 1600, "a", 24000], "trial": 3, "trial_type": "free-recall", "trial_index": 143, "time_elapsed": 678829, "internal_node_id": "0.0-107.0-0.0"}}, {"uniqueid": "MTK0573:34Q075JO1YK4NT6U5H34A03F53S01R", "current_trial": 144, "dateTime": 1511214363106, "trialdata": {"rt": 1365, "key_press": 13, "type": "INSTRUCTIONS", "trial_type": "text", "trial_index": 144, "time_elapsed": 682201, "internal_node_id": "0.0-108.0"}}, {"uniqueid": "MTK0573:34Q075JO1YK4NT6U5H34A03F53S01R", "current_trial": 145, "dateTime": 1511214377111, "trialdata": {"rt": [3242, 6099, 8560, 10954], "responses": ["17", "18", "16", "14"], "num1": [3, 2, 2, 1, 6], "num2": [8, 7, 5, 6, 5], "num3": [6, 9, 9, 7, 7], "type": "DISTRACTOR", "conditions": [12, 800, "a", 12000], "trial": 4, "trial_type": "math-distractor", "trial_index": 145, "time_elapsed": 696206, "internal_node_id": "0.0-109.0"}}, {"uniqueid": "MTK0573:34Q075JO1YK4NT6U5H34A03F53S01R", "current_trial": 146, "dateTime": 1511214380116, "trialdata": {"rt": -1, "stimulus": "<p id=\"stim\">10</p>", "key_press": -1, "trial_type": "single-stim", "trial_index": 146, "time_elapsed": 699211, "internal_node_id": "0.0-110.0-0.0"}}, {"uniqueid": "MTK0573:34Q075JO1YK4NT6U5H34A03F53S01R", "current_trial": 147, "dateTime": 1511214381119, "trialdata": {"rt": -1, "stimulus": "<p id=\"stim\">9</p>", "key_press": -1, "trial_type": "single-stim", "trial_index": 147, "time_elapsed": 700214, "internal_node_id": "0.0-110.0-1.0"}}, {"uniqueid": "MTK0573:34Q075JO1YK4NT6U5H34A03F53S01R", "current_trial": 148, "dateTime": 1511214382121, "trialdata": {"rt": -1, "stimulus": "<p id=\"stim\">8</p>", "key_press": -1, "trial_type": "single-stim", "trial_index": 148, "time_elapsed": 701216, "internal_node_id": "0.0-110.0-2.0"}}, {"uniqueid": "MTK0573:34Q075JO1YK4NT6U5H34A03F53S01R", "current_trial": 149, "dateTime": 1511214383124, "trialdata": {"rt": -1, "stimulus": "<p id=\"stim\">7</p>", "key_press": -1, "trial_type": "single-stim", "trial_index": 149, "time_elapsed": 702219, "internal_node_id": "0.0-110.0-3.0"}}, {"uniqueid": "MTK0573:34Q075JO1YK4NT6U5H34A03F53S01R", "current_trial": 150, "dateTime": 1511214384127, "trialdata": {"rt": -1, "stimulus": "<p id=\"stim\">6</p>", "key_press": -1, "trial_type": "single-stim", "trial_index": 150, "time_elapsed": 703222, "internal_node_id": "0.0-110.0-4.0"}}, {"uniqueid": "MTK0573:34Q075JO1YK4NT6U5H34A03F53S01R", "current_trial": 151, "dateTime": 1511214385129, "trialdata": {"rt": -1, "stimulus": "<p id=\"stim\">5</p>", "key_press": -1, "trial_type": "single-stim", "trial_index": 151, "time_elapsed": 704224, "internal_node_id": "0.0-110.0-5.0"}}, {"uniqueid": "MTK0573:34Q075JO1YK4NT6U5H34A03F53S01R", "current_trial": 152, "dateTime": 1511214386131, "trialdata": {"rt": -1, "stimulus": "<p id=\"stim\">4</p>", "key_press": -1, "trial_type": "single-stim", "trial_index": 152, "time_elapsed": 705226, "internal_node_id": "0.0-110.0-6.0"}}, {"uniqueid": "MTK0573:34Q075JO1YK4NT6U5H34A03F53S01R", "current_trial": 153, "dateTime": 1511214387133, "trialdata": {"rt": -1, "stimulus": "<p id=\"stim\">3</p>", "key_press": -1, "trial_type": "single-stim", "trial_index": 153, "time_elapsed": 706228, "internal_node_id": "0.0-110.0-7.0"}}, {"uniqueid": "MTK0573:34Q075JO1YK4NT6U5H34A03F53S01R", "current_trial": 154, "dateTime": 1511214388136, "trialdata": {"rt": -1, "stimulus": "<p id=\"stim\">2</p>", "key_press": -1, "trial_type": "single-stim", "trial_index": 154, "time_elapsed": 707231, "internal_node_id": "0.0-110.0-8.0"}}, {"uniqueid": "MTK0573:34Q075JO1YK4NT6U5H34A03F53S01R", "current_trial": 155, "dateTime": 1511214389139, "trialdata": {"rt": -1, "stimulus": "<p id=\"stim\">1</p>", "key_press": -1, "trial_type": "single-stim", "trial_index": 155, "time_elapsed": 708234, "internal_node_id": "0.0-110.0-9.0"}}, {"uniqueid": "MTK0573:34Q075JO1YK4NT6U5H34A03F53S01R", "current_trial": 156, "dateTime": 1511214390641, "trialdata": {"rt": -1, "stimulus": "<p id=\"stim\">+</p>", "key_press": -1, "type": "FIXATION", "trial_type": "single-stim", "trial_index": 156, "time_elapsed": 709736, "internal_node_id": "0.0-111.0-0.0"}}, {"uniqueid": "MTK0573:34Q075JO1YK4NT6U5H34A03F53S01R", "current_trial": 157, "dateTime": 1511214392644, "trialdata": {"rt": -1000, "stimulus": "/static/audio/wordpool/SPIDER.wav", "key_press": -1, "type": "PRES_AUD", "word": "spider", "wordID": 1350, "conditions": [12, 800, "a", 12000], "trial": 4, "serialpos": 0, "trial_type": "single-audio", "trial_index": 157, "time_elapsed": 711739, "internal_node_id": "0.0-112.0"}}, {"uniqueid": "MTK0573:34Q075JO1YK4NT6U5H34A03F53S01R", "current_trial": 158, "dateTime": 1511214394419, "trialdata": {"rt": -1000, "stimulus": "/static/audio/wordpool/CREATURE.wav", "key_press": -1, "type": "PRES_AUD", "word": "creature", "wordID": 402, "conditions": [12, 800, "a", 12000], "trial": 4, "serialpos": 1, "trial_type": "single-audio", "trial_index": 158, "time_elapsed": 713514, "internal_node_id": "0.0-113.0"}}, {"uniqueid": "MTK0573:34Q075JO1YK4NT6U5H34A03F53S01R", "current_trial": 159, "dateTime": 1511214396146, "trialdata": {"rt": -1000, "stimulus": "/static/audio/wordpool/CATCHER.wav", "key_press": -1, "type": "PRES_AUD", "word": "catcher", "wordID": 257, "conditions": [12, 800, "a", 12000], "trial": 4, "serialpos": 2, "trial_type": "single-audio", "trial_index": 159, "time_elapsed": 715241, "internal_node_id": "0.0-114.0"}}, {"uniqueid": "MTK0573:34Q075JO1YK4NT6U5H34A03F53S01R", "current_trial": 160, "dateTime": 1511214398138, "trialdata": {"rt": -1000, "stimulus": "/static/audio/wordpool/MILDEW.wav", "key_press": -1, "type": "PRES_AUD", "word": "mildew", "wordID": 892, "conditions": [12, 800, "a", 12000], "trial": 4, "serialpos": 3, "trial_type": "single-audio", "trial_index": 160, "time_elapsed": 717232, "internal_node_id": "0.0-115.0"}}, {"uniqueid": "MTK0573:34Q075JO1YK4NT6U5H34A03F53S01R", "current_trial": 161, "dateTime": 1511214400041, "trialdata": {"rt": -1000, "stimulus": "/static/audio/wordpool/FUNGUS.wav", "key_press": -1, "type": "PRES_AUD", "word": "fungus", "wordID": 613, "conditions": [12, 800, "a", 12000], "trial": 4, "serialpos": 4, "trial_type": "single-audio", "trial_index": 161, "time_elapsed": 719136, "internal_node_id": "0.0-116.0"}}, {"uniqueid": "MTK0573:34Q075JO1YK4NT6U5H34A03F53S01R", "current_trial": 162, "dateTime": 1511214401993, "trialdata": {"rt": -1000, "stimulus": "/static/audio/wordpool/PERCH.wav", "key_press": -1, "type": "PRES_AUD", "word": "perch", "wordID": 1047, "conditions": [12, 800, "a", 12000], "trial": 4, "serialpos": 5, "trial_type": "single-audio", "trial_index": 162, "time_elapsed": 721088, "internal_node_id": "0.0-117.0"}}, {"uniqueid": "MTK0573:34Q075JO1YK4NT6U5H34A03F53S01R", "current_trial": 163, "dateTime": 1511214403645, "trialdata": {"rt": -1000, "stimulus": "/static/audio/wordpool/MONSTER.wav", "key_press": -1, "type": "PRES_AUD", "word": "monster", "wordID": 911, "conditions": [12, 800, "a", 12000], "trial": 4, "serialpos": 6, "trial_type": "single-audio", "trial_index": 163, "time_elapsed": 722739, "internal_node_id": "0.0-118.0"}}, {"uniqueid": "MTK0573:34Q075JO1YK4NT6U5H34A03F53S01R", "current_trial": 164, "dateTime": 1511214405548, "trialdata": {"rt": -1000, "stimulus": "/static/audio/wordpool/BEAVER.wav", "key_press": -1, "type": "PRES_AUD", "word": "beaver", "wordID": 108, "conditions": [12, 800, "a", 12000], "trial": 4, "serialpos": 7, "trial_type": "single-audio", "trial_index": 164, "time_elapsed": 724643, "internal_node_id": "0.0-119.0"}}, {"uniqueid": "MTK0573:34Q075JO1YK4NT6U5H34A03F53S01R", "current_trial": 165, "dateTime": 1511214407178, "trialdata": {"rt": -1000, "stimulus": "/static/audio/wordpool/BUTCHER.wav", "key_press": -1, "type": "PRES_AUD", "word": "butcher", "wordID": 202, "conditions": [12, 800, "a", 12000], "trial": 4, "serialpos": 8, "trial_type": "single-audio", "trial_index": 165, "time_elapsed": 726273, "internal_node_id": "0.0-120.0"}}, {"uniqueid": "MTK0573:34Q075JO1YK4NT6U5H34A03F53S01R", "current_trial": 166, "dateTime": 1511214409082, "trialdata": {"rt": -1000, "stimulus": "/static/audio/wordpool/ARMY.wav", "key_press": -1, "type": "PRES_AUD", "word": "army", "wordID": 38, "conditions": [12, 800, "a", 12000], "trial": 4, "serialpos": 9, "trial_type": "single-audio", "trial_index": 166, "time_elapsed": 728177, "internal_node_id": "0.0-121.0"}}, {"uniqueid": "MTK0573:34Q075JO1YK4NT6U5H34A03F53S01R", "current_trial": 167, "dateTime": 1511214410889, "trialdata": {"rt": -1000, "stimulus": "/static/audio/wordpool/FOREHEAD.wav", "key_press": -1, "type": "PRES_AUD", "word": "forehead", "wordID": 591, "conditions": [12, 800, "a", 12000], "trial": 4, "serialpos": 10, "trial_type": "single-audio", "trial_index": 167, "time_elapsed": 729984, "internal_node_id": "0.0-122.0"}}, {"uniqueid": "MTK0573:34Q075JO1YK4NT6U5H34A03F53S01R", "current_trial": 168, "dateTime": 1511214412767, "trialdata": {"rt": -1000, "stimulus": "/static/audio/wordpool/PILOT.wav", "key_press": -1, "type": "PRES_AUD", "word": "pilot", "wordID": 1069, "conditions": [12, 800, "a", 12000], "trial": 4, "serialpos": 11, "trial_type": "single-audio", "trial_index": 168, "time_elapsed": 731862, "internal_node_id": "0.0-123.0"}}, {"uniqueid": "MTK0573:34Q075JO1YK4NT6U5H34A03F53S01R", "current_trial": 169, "dateTime": 1511214414067, "trialdata": {"rt": -1, "stimulus": "", "key_press": -1, "type": "PRE_RECALL_DELAY", "trial_type": "single-stim", "trial_index": 169, "time_elapsed": 733162, "internal_node_id": "0.0-124.0-0.0"}}, {"uniqueid": "MTK0573:34Q075JO1YK4NT6U5H34A03F53S01R", "current_trial": 170, "dateTime": 1511214414572, "trialdata": {"rt": -1000, "stimulus": "/static/audio/400Hz.wav", "key_press": -1, "type": "PRE_RECALL_ALERT", "trial_type": "single-audio", "trial_index": 170, "time_elapsed": 733667, "internal_node_id": "0.0-125.0"}}, {"uniqueid": "MTK0573:34Q075JO1YK4NT6U5H34A03F53S01R", "current_trial": 171, "dateTime": 1511214474585, "trialdata": {"rt": [4103, 6911, 9902, 12897, 58028], "recwords": ["pilot", "catcher", "forehead", "spider", "butcher"], "type": "FREE_RECALL", "conditions": [12, 800, "a", 12000], "trial": 4, "trial_type": "free-recall", "trial_index": 171, "time_elapsed": 793674, "internal_node_id": "0.0-126.0-0.0"}}, {"uniqueid": "MTK0573:34Q075JO1YK4NT6U5H34A03F53S01R", "current_trial": 172, "dateTime": 1511214478242, "trialdata": {"rt": 1653, "key_press": 13, "type": "INSTRUCTIONS", "trial_type": "text", "trial_index": 172, "time_elapsed": 797337, "internal_node_id": "0.0-127.0"}}, {"uniqueid": "MTK0573:34Q075JO1YK4NT6U5H34A03F53S01R", "current_trial": 173, "dateTime": 1511214492247, "trialdata": {"rt": [2931, 5123, 7848, 10624], "responses": ["18", "6", "19", "16"], "num1": [1, 2, 1, 5, 1], "num2": [8, 3, 9, 8, 9], "num3": [9, 1, 9, 3, 3], "type": "DISTRACTOR", "conditions": [24, 1600, "a", 12000], "trial": 5, "trial_type": "math-distractor", "trial_index": 173, "time_elapsed": 811342, "internal_node_id": "0.0-128.0"}}, {"uniqueid": "MTK0573:34Q075JO1YK4NT6U5H34A03F53S01R", "current_trial": 174, "dateTime": 1511214495250, "trialdata": {"rt": -1, "stimulus": "<p id=\"stim\">10</p>", "key_press": -1, "trial_type": "single-stim", "trial_index": 174, "time_elapsed": 814345, "internal_node_id": "0.0-129.0-0.0"}}, {"uniqueid": "MTK0573:34Q075JO1YK4NT6U5H34A03F53S01R", "current_trial": 175, "dateTime": 1511214496253, "trialdata": {"rt": -1, "stimulus": "<p id=\"stim\">9</p>", "key_press": -1, "trial_type": "single-stim", "trial_index": 175, "time_elapsed": 815348, "internal_node_id": "0.0-129.0-1.0"}}, {"uniqueid": "MTK0573:34Q075JO1YK4NT6U5H34A03F53S01R", "current_trial": 176, "dateTime": 1511214497255, "trialdata": {"rt": -1, "stimulus": "<p id=\"stim\">8</p>", "key_press": -1, "trial_type": "single-stim", "trial_index": 176, "time_elapsed": 816350, "internal_node_id": "0.0-129.0-2.0"}}, {"uniqueid": "MTK0573:34Q075JO1YK4NT6U5H34A03F53S01R", "current_trial": 177, "dateTime": 1511214498257, "trialdata": {"rt": -1, "stimulus": "<p id=\"stim\">7</p>", "key_press": -1, "trial_type": "single-stim", "trial_index": 177, "time_elapsed": 817352, "internal_node_id": "0.0-129.0-3.0"}}, {"uniqueid": "MTK0573:34Q075JO1YK4NT6U5H34A03F53S01R", "current_trial": 178, "dateTime": 1511214499261, "trialdata": {"rt": -1, "stimulus": "<p id=\"stim\">6</p>", "key_press": -1, "trial_type": "single-stim", "trial_index": 178, "time_elapsed": 818356, "internal_node_id": "0.0-129.0-4.0"}}, {"uniqueid": "MTK0573:34Q075JO1YK4NT6U5H34A03F53S01R", "current_trial": 179, "dateTime": 1511214500263, "trialdata": {"rt": -1, "stimulus": "<p id=\"stim\">5</p>", "key_press": -1, "trial_type": "single-stim", "trial_index": 179, "time_elapsed": 819358, "internal_node_id": "0.0-129.0-5.0"}}, {"uniqueid": "MTK0573:34Q075JO1YK4NT6U5H34A03F53S01R", "current_trial": 180, "dateTime": 1511214501264, "trialdata": {"rt": -1, "stimulus": "<p id=\"stim\">4</p>", "key_press": -1, "trial_type": "single-stim", "trial_index": 180, "time_elapsed": 820359, "internal_node_id": "0.0-129.0-6.0"}}, {"uniqueid": "MTK0573:34Q075JO1YK4NT6U5H34A03F53S01R", "current_trial": 181, "dateTime": 1511214502267, "trialdata": {"rt": -1, "stimulus": "<p id=\"stim\">3</p>", "key_press": -1, "trial_type": "single-stim", "trial_index": 181, "time_elapsed": 821362, "internal_node_id": "0.0-129.0-7.0"}}, {"uniqueid": "MTK0573:34Q075JO1YK4NT6U5H34A03F53S01R", "current_trial": 182, "dateTime": 1511214503269, "trialdata": {"rt": -1, "stimulus": "<p id=\"stim\">2</p>", "key_press": -1, "trial_type": "single-stim", "trial_index": 182, "time_elapsed": 822364, "internal_node_id": "0.0-129.0-8.0"}}, {"uniqueid": "MTK0573:34Q075JO1YK4NT6U5H34A03F53S01R", "current_trial": 183, "dateTime": 1511214504271, "trialdata": {"rt": -1, "stimulus": "<p id=\"stim\">1</p>", "key_press": -1, "trial_type": "single-stim", "trial_index": 183, "time_elapsed": 823365, "internal_node_id": "0.0-129.0-9.0"}}, {"uniqueid": "MTK0573:34Q075JO1YK4NT6U5H34A03F53S01R", "current_trial": 184, "dateTime": 1511214505772, "trialdata": {"rt": -1, "stimulus": "<p id=\"stim\">+</p>", "key_press": -1, "type": "FIXATION", "trial_type": "single-stim", "trial_index": 184, "time_elapsed": 824867, "internal_node_id": "0.0-130.0-0.0"}}, {"uniqueid": "MTK0573:34Q075JO1YK4NT6U5H34A03F53S01R", "current_trial": 185, "dateTime": 1511214508555, "trialdata": {"rt": -1000, "stimulus": "/static/audio/wordpool/DENIM.wav", "key_press": -1, "type": "PRES_AUD", "word": "denim", "wordID": 445, "conditions": [24, 1600, "a", 12000], "trial": 5, "serialpos": 0, "trial_type": "single-audio", "trial_index": 185, "time_elapsed": 827650, "internal_node_id": "0.0-131.0"}}, {"uniqueid": "MTK0573:34Q075JO1YK4NT6U5H34A03F53S01R", "current_trial": 186, "dateTime": 1511214511066, "trialdata": {"rt": -1000, "stimulus": "/static/audio/wordpool/CRAB.wav", "key_press": -1, "type": "PRES_AUD", "word": "crab", "wordID": 396, "conditions": [24, 1600, "a", 12000], "trial": 5, "serialpos": 1, "trial_type": "single-audio", "trial_index": 186, "time_elapsed": 830161, "internal_node_id": "0.0-132.0"}}, {"uniqueid": "MTK0573:34Q075JO1YK4NT6U5H34A03F53S01R", "current_trial": 187, "dateTime": 1511214513830, "trialdata": {"rt": -1000, "stimulus": "/static/audio/wordpool/MOTOR.wav", "key_press": -1, "type": "PRES_AUD", "word": "motor", "wordID": 921, "conditions": [24, 1600, "a", 12000], "trial": 5, "serialpos": 2, "trial_type": "single-audio", "trial_index": 187, "time_elapsed": 832925, "internal_node_id": "0.0-133.0"}}, {"uniqueid": "MTK0573:34Q075JO1YK4NT6U5H34A03F53S01R", "current_trial": 188, "dateTime": 1511214516429, "trialdata": {"rt": -1000, "stimulus": "/static/audio/wordpool/BOUQUET.wav", "key_press": -1, "type": "PRES_AUD", "word": "bouquet", "wordID": 156, "conditions": [24, 1600, "a", 12000], "trial": 5, "serialpos": 3, "trial_type": "single-audio", "trial_index": 188, "time_elapsed": 835524, "internal_node_id": "0.0-134.0"}}, {"uniqueid": "MTK0573:34Q075JO1YK4NT6U5H34A03F53S01R", "current_trial": 189, "dateTime": 1511214518834, "trialdata": {"rt": -1000, "stimulus": "/static/audio/wordpool/LILY.wav", "key_press": -1, "type": "PRES_AUD", "word": "lily", "wordID": 820, "conditions": [24, 1600, "a", 12000], "trial": 5, "serialpos": 4, "trial_type": "single-audio", "trial_index": 189, "time_elapsed": 837929, "internal_node_id": "0.0-135.0"}}, {"uniqueid": "MTK0573:34Q075JO1YK4NT6U5H34A03F53S01R", "current_trial": 190, "dateTime": 1511214521622, "trialdata": {"rt": -1000, "stimulus": "/static/audio/wordpool/WASHER.wav", "key_press": -1, "type": "PRES_AUD", "word": "washer", "wordID": 1591, "conditions": [24, 1600, "a", 12000], "trial": 5, "serialpos": 5, "trial_type": "single-audio", "trial_index": 190, "time_elapsed": 840717, "internal_node_id": "0.0-136.0"}}, {"uniqueid": "MTK0573:34Q075JO1YK4NT6U5H34A03F53S01R", "current_trial": 191, "dateTime": 1511214524286, "trialdata": {"rt": -1000, "stimulus": "/static/audio/wordpool/CLOTHES.wav", "key_press": -1, "type": "PRES_AUD", "word": "clothes", "wordID": 326, "conditions": [24, 1600, "a", 12000], "trial": 5, "serialpos": 6, "trial_type": "single-audio", "trial_index": 191, "time_elapsed": 843380, "internal_node_id": "0.0-137.0"}}, {"uniqueid": "MTK0573:34Q075JO1YK4NT6U5H34A03F53S01R", "current_trial": 192, "dateTime": 1511214526760, "trialdata": {"rt": -1000, "stimulus": "/static/audio/wordpool/OX.wav", "key_press": -1, "type": "PRES_AUD", "word": "ox", "wordID": 993, "conditions": [24, 1600, "a", 12000], "trial": 5, "serialpos": 7, "trial_type": "single-audio", "trial_index": 192, "time_elapsed": 845853, "internal_node_id": "0.0-138.0"}}, {"uniqueid": "MTK0573:34Q075JO1YK4NT6U5H34A03F53S01R", "current_trial": 193, "dateTime": 1511214529212, "trialdata": {"rt": -1000, "stimulus": "/static/audio/wordpool/GANGSTER.wav", "key_press": -1, "type": "PRES_AUD", "word": "gangster", "wordID": 619, "conditions": [24, 1600, "a", 12000], "trial": 5, "serialpos": 8, "trial_type": "single-audio", "trial_index": 193, "time_elapsed": 848307, "internal_node_id": "0.0-139.0"}}, {"uniqueid": "MTK0573:34Q075JO1YK4NT6U5H34A03F53S01R", "current_trial": 194, "dateTime": 1511214531800, "trialdata": {"rt": -1000, "stimulus": "/static/audio/wordpool/CRITIC.wav", "key_press": -1, "type": "PRES_AUD", "word": "critic", "wordID": 409, "conditions": [24, 1600, "a", 12000], "trial": 5, "serialpos": 9, "trial_type": "single-audio", "trial_index": 194, "time_elapsed": 850895, "internal_node_id": "0.0-140.0"}}, {"uniqueid": "MTK0573:34Q075JO1YK4NT6U5H34A03F53S01R", "current_trial": 195, "dateTime": 1511214534243, "trialdata": {"rt": -1000, "stimulus": "/static/audio/wordpool/BASEMENT.wav", "key_press": -1, "type": "PRES_AUD", "word": "basement", "wordID": 93, "conditions": [24, 1600, "a", 12000], "trial": 5, "serialpos": 10, "trial_type": "single-audio", "trial_index": 195, "time_elapsed": 853338, "internal_node_id": "0.0-141.0"}}, {"uniqueid": "MTK0573:34Q075JO1YK4NT6U5H34A03F53S01R", "current_trial": 196, "dateTime": 1511214536706, "trialdata": {"rt": -1000, "stimulus": "/static/audio/wordpool/KITCHEN.wav", "key_press": -1, "type": "PRES_AUD", "word": "kitchen", "wordID": 777, "conditions": [24, 1600, "a", 12000], "trial": 5, "serialpos": 11, "trial_type": "single-audio", "trial_index": 196, "time_elapsed": 855801, "internal_node_id": "0.0-142.0"}}, {"uniqueid": "MTK0573:34Q075JO1YK4NT6U5H34A03F53S01R", "current_trial": 197, "dateTime": 1511214539130, "trialdata": {"rt": -1000, "stimulus": "/static/audio/wordpool/DAISY.wav", "key_press": -1, "type": "PRES_AUD", "word": "daisy", "wordID": 434, "conditions": [24, 1600, "a", 12000], "trial": 5, "serialpos": 12, "trial_type": "single-audio", "trial_index": 197, "time_elapsed": 858225, "internal_node_id": "0.0-143.0"}}, {"uniqueid": "MTK0573:34Q075JO1YK4NT6U5H34A03F53S01R", "current_trial": 198, "dateTime": 1511214541877, "trialdata": {"rt": -1000, "stimulus": "/static/audio/wordpool/FLOWER.wav", "key_press": -1, "type": "PRES_AUD", "word": "flower", "wordID": 583, "conditions": [24, 1600, "a", 12000], "trial": 5, "serialpos": 13, "trial_type": "single-audio", "trial_index": 198, "time_elapsed": 860972, "internal_node_id": "0.0-144.0"}}, {"uniqueid": "MTK0573:34Q075JO1YK4NT6U5H34A03F53S01R", "current_trial": 199, "dateTime": 1511214544286, "trialdata": {"rt": -1000, "stimulus": "/static/audio/wordpool/LEADER.wav", "key_press": -1, "type": "PRES_AUD", "word": "leader", "wordID": 806, "conditions": [24, 1600, "a", 12000], "trial": 5, "serialpos": 14, "trial_type": "single-audio", "trial_index": 199, "time_elapsed": 863380, "internal_node_id": "0.0-145.0"}}, {"uniqueid": "MTK0573:34Q075JO1YK4NT6U5H34A03F53S01R", "current_trial": 200, "dateTime": 1511214546697, "trialdata": {"rt": -1000, "stimulus": "/static/audio/wordpool/HEDGE.wav", "key_press": -1, "type": "PRES_AUD", "word": "hedge", "wordID": 698, "conditions": [24, 1600, "a", 12000], "trial": 5, "serialpos": 15, "trial_type": "single-audio", "trial_index": 200, "time_elapsed": 865792, "internal_node_id": "0.0-146.0"}}, {"uniqueid": "MTK0573:34Q075JO1YK4NT6U5H34A03F53S01R", "current_trial": 201, "dateTime": 1511214549149, "trialdata": {"rt": -1000, "stimulus": "/static/audio/wordpool/CLAMP.wav", "key_press": -1, "type": "PRES_AUD", "word": "clamp", "wordID": 315, "conditions": [24, 1600, "a", 12000], "trial": 5, "serialpos": 16, "trial_type": "single-audio", "trial_index": 201, "time_elapsed": 868244, "internal_node_id": "0.0-147.0"}}, {"uniqueid": "MTK0573:34Q075JO1YK4NT6U5H34A03F53S01R", "current_trial": 202, "dateTime": 1511214551725, "trialdata": {"rt": -1000, "stimulus": "/static/audio/wordpool/ACTRESS.wav", "key_press": -1, "type": "PRES_AUD", "word": "actress", "wordID": 5, "conditions": [24, 1600, "a", 12000], "trial": 5, "serialpos": 17, "trial_type": "single-audio", "trial_index": 202, "time_elapsed": 870820, "internal_node_id": "0.0-148.0"}}, {"uniqueid": "MTK0573:34Q075JO1YK4NT6U5H34A03F53S01R", "current_trial": 203, "dateTime": 1511214554267, "trialdata": {"rt": -1000, "stimulus": "/static/audio/wordpool/BUREAU.wav", "key_press": -1, "type": "PRES_AUD", "word": "bureau", "wordID": 198, "conditions": [24, 1600, "a", 12000], "trial": 5, "serialpos": 18, "trial_type": "single-audio", "trial_index": 203, "time_elapsed": 873362, "internal_node_id": "0.0-149.0"}}, {"uniqueid": "MTK0573:34Q075JO1YK4NT6U5H34A03F53S01R", "current_trial": 204, "dateTime": 1511214557039, "trialdata": {"rt": -1000, "stimulus": "/static/audio/wordpool/ROD.wav", "key_press": -1, "type": "PRES_AUD", "word": "rod", "wordID": 1202, "conditions": [24, 1600, "a", 12000], "trial": 5, "serialpos": 19, "trial_type": "single-audio", "trial_index": 204, "time_elapsed": 876134, "internal_node_id": "0.0-150.0"}}, {"uniqueid": "MTK0573:34Q075JO1YK4NT6U5H34A03F53S01R", "current_trial": 205, "dateTime": 1511214559447, "trialdata": {"rt": -1000, "stimulus": "/static/audio/wordpool/VICTIM.wav", "key_press": -1, "type": "PRES_AUD", "word": "victim", "wordID": 1561, "conditions": [24, 1600, "a", 12000], "trial": 5, "serialpos": 20, "trial_type": "single-audio", "trial_index": 205, "time_elapsed": 878542, "internal_node_id": "0.0-151.0"}}, {"uniqueid": "MTK0573:34Q075JO1YK4NT6U5H34A03F53S01R", "current_trial": 206, "dateTime": 1511214562047, "trialdata": {"rt": -1000, "stimulus": "/static/audio/wordpool/DORM.wav", "key_press": -1, "type": "PRES_AUD", "word": "dorm", "wordID": 487, "conditions": [24, 1600, "a", 12000], "trial": 5, "serialpos": 21, "trial_type": "single-audio", "trial_index": 206, "time_elapsed": 881142, "internal_node_id": "0.0-152.0"}}, {"uniqueid": "MTK0573:34Q075JO1YK4NT6U5H34A03F53S01R", "current_trial": 207, "dateTime": 1511214564820, "trialdata": {"rt": -1000, "stimulus": "/static/audio/wordpool/ACTOR.wav", "key_press": -1, "type": "PRES_AUD", "word": "actor", "wordID": 4, "conditions": [24, 1600, "a", 12000], "trial": 5, "serialpos": 22, "trial_type": "single-audio", "trial_index": 207, "time_elapsed": 883914, "internal_node_id": "0.0-153.0"}}, {"uniqueid": "MTK0573:34Q075JO1YK4NT6U5H34A03F53S01R", "current_trial": 208, "dateTime": 1511214567400, "trialdata": {"rt": -1000, "stimulus": "/static/audio/wordpool/TWEEZERS.wav", "key_press": -1, "type": "PRES_AUD", "word": "tweezers", "wordID": 1525, "conditions": [24, 1600, "a", 12000], "trial": 5, "serialpos": 23, "trial_type": "single-audio", "trial_index": 208, "time_elapsed": 886494, "internal_node_id": "0.0-154.0"}}, {"uniqueid": "MTK0573:34Q075JO1YK4NT6U5H34A03F53S01R", "current_trial": 209, "dateTime": 1511214568787, "trialdata": {"rt": -1, "stimulus": "", "key_press": -1, "type": "PRE_RECALL_DELAY", "trial_type": "single-stim", "trial_index": 209, "time_elapsed": 887882, "internal_node_id": "0.0-155.0-0.0"}}, {"uniqueid": "MTK0573:34Q075JO1YK4NT6U5H34A03F53S01R", "current_trial": 210, "dateTime": 1511214569295, "trialdata": {"rt": -1000, "stimulus": "/static/audio/400Hz.wav", "key_press": -1, "type": "PRE_RECALL_ALERT", "trial_type": "single-audio", "trial_index": 210, "time_elapsed": 888390, "internal_node_id": "0.0-156.0"}}, {"uniqueid": "MTK0573:34Q075JO1YK4NT6U5H34A03F53S01R", "current_trial": 211, "dateTime": 1511214629305, "trialdata": {"rt": [7177, 11537, 14189, 16857, 19640, 27482, 29760, 32793, 42936, 50365, 55818], "recwords": ["washer", "tweezers", "dorm", "denim", "crab", "hedge", "lily", "flower", "bureau", "actress", "gangster"], "type": "FREE_RECALL", "conditions": [24, 1600, "a", 12000], "trial": 5, "trial_type": "free-recall", "trial_index": 211, "time_elapsed": 948395, "internal_node_id": "0.0-157.0-0.0"}}, {"uniqueid": "MTK0573:34Q075JO1YK4NT6U5H34A03F53S01R", "current_trial": 212, "dateTime": 1511214632898, "trialdata": {"rt": 1591, "key_press": 13, "type": "INSTRUCTIONS", "trial_type": "text", "trial_index": 212, "time_elapsed": 951993, "internal_node_id": "0.0-158.0"}}, {"uniqueid": "MTK0573:34Q075JO1YK4NT6U5H34A03F53S01R", "current_trial": 213, "dateTime": 1511214646905, "trialdata": {"rt": [2635, 5460, 8411, 10752], "responses": ["12", "10", "15", "14"], "num1": [2, 3, 9, 8, 6], "num2": [3, 4, 4, 3, 6], "num3": [7, 3, 2, 3, 7], "type": "DISTRACTOR", "conditions": [24, 800, "a", 12000], "trial": 6, "trial_type": "math-distractor", "trial_index": 213, "time_elapsed": 965999, "internal_node_id": "0.0-159.0"}}, {"uniqueid": "MTK0573:34Q075JO1YK4NT6U5H34A03F53S01R", "current_trial": 214, "dateTime": 1511214649910, "trialdata": {"rt": -1, "stimulus": "<p id=\"stim\">10</p>", "key_press": -1, "trial_type": "single-stim", "trial_index": 214, "time_elapsed": 969003, "internal_node_id": "0.0-160.0-0.0"}}, {"uniqueid": "MTK0573:34Q075JO1YK4NT6U5H34A03F53S01R", "current_trial": 215, "dateTime": 1511214650912, "trialdata": {"rt": -1, "stimulus": "<p id=\"stim\">9</p>", "key_press": -1, "trial_type": "single-stim", "trial_index": 215, "time_elapsed": 970007, "internal_node_id": "0.0-160.0-1.0"}}, {"uniqueid": "MTK0573:34Q075JO1YK4NT6U5H34A03F53S01R", "current_trial": 216, "dateTime": 1511214651915, "trialdata": {"rt": -1, "stimulus": "<p id=\"stim\">8</p>", "key_press": -1, "trial_type": "single-stim", "trial_index": 216, "time_elapsed": 971010, "internal_node_id": "0.0-160.0-2.0"}}, {"uniqueid": "MTK0573:34Q075JO1YK4NT6U5H34A03F53S01R", "current_trial": 217, "dateTime": 1511214652917, "trialdata": {"rt": -1, "stimulus": "<p id=\"stim\">7</p>", "key_press": -1, "trial_type": "single-stim", "trial_index": 217, "time_elapsed": 972012, "internal_node_id": "0.0-160.0-3.0"}}, {"uniqueid": "MTK0573:34Q075JO1YK4NT6U5H34A03F53S01R", "current_trial": 218, "dateTime": 1511214653922, "trialdata": {"rt": -1, "stimulus": "<p id=\"stim\">6</p>", "key_press": -1, "trial_type": "single-stim", "trial_index": 218, "time_elapsed": 973017, "internal_node_id": "0.0-160.0-4.0"}}, {"uniqueid": "MTK0573:34Q075JO1YK4NT6U5H34A03F53S01R", "current_trial": 219, "dateTime": 1511214654923, "trialdata": {"rt": -1, "stimulus": "<p id=\"stim\">5</p>", "key_press": -1, "trial_type": "single-stim", "trial_index": 219, "time_elapsed": 974018, "internal_node_id": "0.0-160.0-5.0"}}, {"uniqueid": "MTK0573:34Q075JO1YK4NT6U5H34A03F53S01R", "current_trial": 220, "dateTime": 1511214655926, "trialdata": {"rt": -1, "stimulus": "<p id=\"stim\">4</p>", "key_press": -1, "trial_type": "single-stim", "trial_index": 220, "time_elapsed": 975021, "internal_node_id": "0.0-160.0-6.0"}}, {"uniqueid": "MTK0573:34Q075JO1YK4NT6U5H34A03F53S01R", "current_trial": 221, "dateTime": 1511214656929, "trialdata": {"rt": -1, "stimulus": "<p id=\"stim\">3</p>", "key_press": -1, "trial_type": "single-stim", "trial_index": 221, "time_elapsed": 976024, "internal_node_id": "0.0-160.0-7.0"}}, {"uniqueid": "MTK0573:34Q075JO1YK4NT6U5H34A03F53S01R", "current_trial": 222, "dateTime": 1511214657932, "trialdata": {"rt": -1, "stimulus": "<p id=\"stim\">2</p>", "key_press": -1, "trial_type": "single-stim", "trial_index": 222, "time_elapsed": 977027, "internal_node_id": "0.0-160.0-8.0"}}, {"uniqueid": "MTK0573:34Q075JO1YK4NT6U5H34A03F53S01R", "current_trial": 223, "dateTime": 1511214658934, "trialdata": {"rt": -1, "stimulus": "<p id=\"stim\">1</p>", "key_press": -1, "trial_type": "single-stim", "trial_index": 223, "time_elapsed": 978029, "internal_node_id": "0.0-160.0-9.0"}}, {"uniqueid": "MTK0573:34Q075JO1YK4NT6U5H34A03F53S01R", "current_trial": 224, "dateTime": 1511214660436, "trialdata": {"rt": -1, "stimulus": "<p id=\"stim\">+</p>", "key_press": -1, "type": "FIXATION", "trial_type": "single-stim", "trial_index": 224, "time_elapsed": 979531, "internal_node_id": "0.0-161.0-0.0"}}, {"uniqueid": "MTK0573:34Q075JO1YK4NT6U5H34A03F53S01R", "current_trial": 225, "dateTime": 1511214662318, "trialdata": {"rt": -1000, "stimulus": "/static/audio/wordpool/SUITCASE.wav", "key_press": -1, "type": "PRES_AUD", "word": "suitcase", "wordID": 1402, "conditions": [24, 800, "a", 12000], "trial": 6, "serialpos": 0, "trial_type": "single-audio", "trial_index": 225, "time_elapsed": 981412, "internal_node_id": "0.0-162.0"}}, {"uniqueid": "MTK0573:34Q075JO1YK4NT6U5H34A03F53S01R", "current_trial": 226, "dateTime": 1511214664222, "trialdata": {"rt": -1000, "stimulus": "/static/audio/wordpool/AUTHOR.wav", "key_press": -1, "type": "PRES_AUD", "word": "author", "wordID": 60, "conditions": [24, 800, "a", 12000], "trial": 6, "serialpos": 1, "trial_type": "single-audio", "trial_index": 226, "time_elapsed": 983317, "internal_node_id": "0.0-163.0"}}, {"uniqueid": "MTK0573:34Q075JO1YK4NT6U5H34A03F53S01R", "current_trial": 227, "dateTime": 1511214665988, "trialdata": {"rt": -1000, "stimulus": "/static/audio/wordpool/NOVEL.wav", "key_press": -1, "type": "PRES_AUD", "word": "novel", "wordID": 959, "conditions": [24, 800, "a", 12000], "trial": 6, "serialpos": 2, "trial_type": "single-audio", "trial_index": 227, "time_elapsed": 985082, "internal_node_id": "0.0-164.0"}}, {"uniqueid": "MTK0573:34Q075JO1YK4NT6U5H34A03F53S01R", "current_trial": 228, "dateTime": 1511214667655, "trialdata": {"rt": -1000, "stimulus": "/static/audio/wordpool/NAPKIN.wav", "key_press": -1, "type": "PRES_AUD", "word": "napkin", "wordID": 936, "conditions": [24, 800, "a", 12000], "trial": 6, "serialpos": 3, "trial_type": "single-audio", "trial_index": 228, "time_elapsed": 986748, "internal_node_id": "0.0-165.0"}}, {"uniqueid": "MTK0573:34Q075JO1YK4NT6U5H34A03F53S01R", "current_trial": 229, "dateTime": 1511214669435, "trialdata": {"rt": -1000, "stimulus": "/static/audio/wordpool/PERMIT.wav", "key_press": -1, "type": "PRES_AUD", "word": "permit", "wordID": 1050, "conditions": [24, 800, "a", 12000], "trial": 6, "serialpos": 4, "trial_type": "single-audio", "trial_index": 229, "time_elapsed": 988530, "internal_node_id": "0.0-166.0"}}, {"uniqueid": "MTK0573:34Q075JO1YK4NT6U5H34A03F53S01R", "current_trial": 230, "dateTime": 1511214671436, "trialdata": {"rt": -1000, "stimulus": "/static/audio/wordpool/PLASTER.wav", "key_press": -1, "type": "PRES_AUD", "word": "plaster", "wordID": 1084, "conditions": [24, 800, "a", 12000], "trial": 6, "serialpos": 5, "trial_type": "single-audio", "trial_index": 230, "time_elapsed": 990531, "internal_node_id": "0.0-167.0"}}, {"uniqueid": "MTK0573:34Q075JO1YK4NT6U5H34A03F53S01R", "current_trial": 231, "dateTime": 1511214673129, "trialdata": {"rt": -1000, "stimulus": "/static/audio/wordpool/CATTLE.wav", "key_press": -1, "type": "PRES_AUD", "word": "cattle", "wordID": 260, "conditions": [24, 800, "a", 12000], "trial": 6, "serialpos": 6, "trial_type": "single-audio", "trial_index": 231, "time_elapsed": 992223, "internal_node_id": "0.0-168.0"}}, {"uniqueid": "MTK0573:34Q075JO1YK4NT6U5H34A03F53S01R", "current_trial": 232, "dateTime": 1511214675090, "trialdata": {"rt": -1000, "stimulus": "/static/audio/wordpool/RAFT.wav", "key_press": -1, "type": "PRES_AUD", "word": "raft", "wordID": 1158, "conditions": [24, 800, "a", 12000], "trial": 6, "serialpos": 7, "trial_type": "single-audio", "trial_index": 232, "time_elapsed": 994185, "internal_node_id": "0.0-169.0"}}, {"uniqueid": "MTK0573:34Q075JO1YK4NT6U5H34A03F53S01R", "current_trial": 233, "dateTime": 1511214676855, "trialdata": {"rt": -1000, "stimulus": "/static/audio/wordpool/SODA.wav", "key_press": -1, "type": "PRES_AUD", "word": "soda", "wordID": 1340, "conditions": [24, 800, "a", 12000], "trial": 6, "serialpos": 8, "trial_type": "single-audio", "trial_index": 233, "time_elapsed": 995949, "internal_node_id": "0.0-170.0"}}, {"uniqueid": "MTK0573:34Q075JO1YK4NT6U5H34A03F53S01R", "current_trial": 234, "dateTime": 1511214678652, "trialdata": {"rt": -1000, "stimulus": "/static/audio/wordpool/COFFEE.wav", "key_press": -1, "type": "PRES_AUD", "word": "coffee", "wordID": 340, "conditions": [24, 800, "a", 12000], "trial": 6, "serialpos": 9, "trial_type": "single-audio", "trial_index": 234, "time_elapsed": 997747, "internal_node_id": "0.0-171.0"}}, {"uniqueid": "MTK0573:34Q075JO1YK4NT6U5H34A03F53S01R", "current_trial": 235, "dateTime": 1511214680516, "trialdata": {"rt": -1000, "stimulus": "/static/audio/wordpool/PIMPLE.wav", "key_press": -1, "type": "PRES_AUD", "word": "pimple", "wordID": 1070, "conditions": [24, 800, "a", 12000], "trial": 6, "serialpos": 10, "trial_type": "single-audio", "trial_index": 235, "time_elapsed": 999611, "internal_node_id": "0.0-172.0"}}, {"uniqueid": "MTK0573:34Q075JO1YK4NT6U5H34A03F53S01R", "current_trial": 236, "dateTime": 1511214682272, "trialdata": {"rt": -1000, "stimulus": "/static/audio/wordpool/BEEF.wav", "key_press": -1, "type": "PRES_AUD", "word": "beef", "wordID": 112, "conditions": [24, 800, "a", 12000], "trial": 6, "serialpos": 11, "trial_type": "single-audio", "trial_index": 236, "time_elapsed": 1001366, "internal_node_id": "0.0-173.0"}}, {"uniqueid": "MTK0573:34Q075JO1YK4NT6U5H34A03F53S01R", "current_trial": 237, "dateTime": 1511214684211, "trialdata": {"rt": -1000, "stimulus": "/static/audio/wordpool/RADISH.wav", "key_press": -1, "type": "PRES_AUD", "word": "radish", "wordID": 1157, "conditions": [24, 800, "a", 12000], "trial": 6, "serialpos": 12, "trial_type": "single-audio", "trial_index": 237, "time_elapsed": 1003306, "internal_node_id": "0.0-174.0"}}, {"uniqueid": "MTK0573:34Q075JO1YK4NT6U5H34A03F53S01R", "current_trial": 238, "dateTime": 1511214685839, "trialdata": {"rt": -1000, "stimulus": "/static/audio/wordpool/BADGE.wav", "key_press": -1, "type": "PRES_AUD", "word": "badge", "wordID": 67, "conditions": [24, 800, "a", 12000], "trial": 6, "serialpos": 13, "trial_type": "single-audio", "trial_index": 238, "time_elapsed": 1004933, "internal_node_id": "0.0-175.0"}}, {"uniqueid": "MTK0573:34Q075JO1YK4NT6U5H34A03F53S01R", "current_trial": 239, "dateTime": 1511214687621, "trialdata": {"rt": -1000, "stimulus": "/static/audio/wordpool/ROBOT.wav", "key_press": -1, "type": "PRES_AUD", "word": "robot", "wordID": 1199, "conditions": [24, 800, "a", 12000], "trial": 6, "serialpos": 14, "trial_type": "single-audio", "trial_index": 239, "time_elapsed": 1006713, "internal_node_id": "0.0-176.0"}}, {"uniqueid": "MTK0573:34Q075JO1YK4NT6U5H34A03F53S01R", "current_trial": 240, "dateTime": 1511214689335, "trialdata": {"rt": -1000, "stimulus": "/static/audio/wordpool/REPORT.wav", "key_press": -1, "type": "PRES_AUD", "word": "report", "wordID": 1183, "conditions": [24, 800, "a", 12000], "trial": 6, "serialpos": 15, "trial_type": "single-audio", "trial_index": 240, "time_elapsed": 1008430, "internal_node_id": "0.0-177.0"}}, {"uniqueid": "MTK0573:34Q075JO1YK4NT6U5H34A03F53S01R", "current_trial": 241, "dateTime": 1511214691037, "trialdata": {"rt": -1000, "stimulus": "/static/audio/wordpool/JUDGE.wav", "key_press": -1, "type": "PRES_AUD", "word": "judge", "wordID": 760, "conditions": [24, 800, "a", 12000], "trial": 6, "serialpos": 16, "trial_type": "single-audio", "trial_index": 241, "time_elapsed": 1010131, "internal_node_id": "0.0-178.0"}}, {"uniqueid": "MTK0573:34Q075JO1YK4NT6U5H34A03F53S01R", "current_trial": 242, "dateTime": 1511214692767, "trialdata": {"rt": -1000, "stimulus": "/static/audio/wordpool/CANAL.wav", "key_press": -1, "type": "PRES_AUD", "word": "canal", "wordID": 225, "conditions": [24, 800, "a", 12000], "trial": 6, "serialpos": 17, "trial_type": "single-audio", "trial_index": 242, "time_elapsed": 1011862, "internal_node_id": "0.0-179.0"}}, {"uniqueid": "MTK0573:34Q075JO1YK4NT6U5H34A03F53S01R", "current_trial": 243, "dateTime": 1511214694477, "trialdata": {"rt": -1000, "stimulus": "/static/audio/wordpool/DOLPHIN.wav", "key_press": -1, "type": "PRES_AUD", "word": "dolphin", "wordID": 482, "conditions": [24, 800, "a", 12000], "trial": 6, "serialpos": 18, "trial_type": "single-audio", "trial_index": 243, "time_elapsed": 1013571, "internal_node_id": "0.0-180.0"}}, {"uniqueid": "MTK0573:34Q075JO1YK4NT6U5H34A03F53S01R", "current_trial": 244, "dateTime": 1511214696294, "trialdata": {"rt": -1000, "stimulus": "/static/audio/wordpool/JURY.wav", "key_press": -1, "type": "PRES_AUD", "word": "jury", "wordID": 765, "conditions": [24, 800, "a", 12000], "trial": 6, "serialpos": 19, "trial_type": "single-audio", "trial_index": 244, "time_elapsed": 1015388, "internal_node_id": "0.0-181.0"}}, {"uniqueid": "MTK0573:34Q075JO1YK4NT6U5H34A03F53S01R", "current_trial": 245, "dateTime": 1511214697927, "trialdata": {"rt": -1000, "stimulus": "/static/audio/wordpool/STREAM.wav", "key_press": -1, "type": "PRES_AUD", "word": "stream", "wordID": 1391, "conditions": [24, 800, "a", 12000], "trial": 6, "serialpos": 20, "trial_type": "single-audio", "trial_index": 245, "time_elapsed": 1017022, "internal_node_id": "0.0-182.0"}}, {"uniqueid": "MTK0573:34Q075JO1YK4NT6U5H34A03F53S01R", "current_trial": 246, "dateTime": 1511214699741, "trialdata": {"rt": -1000, "stimulus": "/static/audio/wordpool/JOURNAL.wav", "key_press": -1, "type": "PRES_AUD", "word": "journal", "wordID": 759, "conditions": [24, 800, "a", 12000], "trial": 6, "serialpos": 21, "trial_type": "single-audio", "trial_index": 246, "time_elapsed": 1018836, "internal_node_id": "0.0-183.0"}}, {"uniqueid": "MTK0573:34Q075JO1YK4NT6U5H34A03F53S01R", "current_trial": 247, "dateTime": 1511214701599, "trialdata": {"rt": -1000, "stimulus": "/static/audio/wordpool/WASP.wav", "key_press": -1, "type": "PRES_AUD", "word": "wasp", "wordID": 1592, "conditions": [24, 800, "a", 12000], "trial": 6, "serialpos": 22, "trial_type": "single-audio", "trial_index": 247, "time_elapsed": 1020694, "internal_node_id": "0.0-184.0"}}, {"uniqueid": "MTK0573:34Q075JO1YK4NT6U5H34A03F53S01R", "current_trial": 248, "dateTime": 1511214703310, "trialdata": {"rt": -1000, "stimulus": "/static/audio/wordpool/HORNET.wav", "key_press": -1, "type": "PRES_AUD", "word": "hornet", "wordID": 717, "conditions": [24, 800, "a", 12000], "trial": 6, "serialpos": 23, "trial_type": "single-audio", "trial_index": 248, "time_elapsed": 1022405, "internal_node_id": "0.0-185.0"}}, {"uniqueid": "MTK0573:34Q075JO1YK4NT6U5H34A03F53S01R", "current_trial": 249, "dateTime": 1511214704612, "trialdata": {"rt": -1, "stimulus": "", "key_press": -1, "type": "PRE_RECALL_DELAY", "trial_type": "single-stim", "trial_index": 249, "time_elapsed": 1023706, "internal_node_id": "0.0-186.0-0.0"}}, {"uniqueid": "MTK0573:34Q075JO1YK4NT6U5H34A03F53S01R", "current_trial": 250, "dateTime": 1511214705118, "trialdata": {"rt": -1000, "stimulus": "/static/audio/400Hz.wav", "key_press": -1, "type": "PRE_RECALL_ALERT", "trial_type": "single-audio", "trial_index": 250, "time_elapsed": 1024213, "internal_node_id": "0.0-187.0"}}, {"uniqueid": "MTK0573:34Q075JO1YK4NT6U5H34A03F53S01R", "current_trial": 251, "dateTime": 1511214765129, "trialdata": {"rt": [2667, 6413, 9273, 14638, 17105, 37198, 48070], "recwords": ["wasp", "hornet", "journal", "author", "stream", "wasp", "critic"], "type": "FREE_RECALL", "conditions": [24, 800, "a", 12000], "trial": 6, "trial_type": "free-recall", "trial_index": 251, "time_elapsed": 1084218, "internal_node_id": "0.0-188.0-0.0"}}, {"uniqueid": "MTK0573:34Q075JO1YK4NT6U5H34A03F53S01R", "current_trial": 252, "dateTime": 1511214768576, "trialdata": {"rt": 1444, "key_press": 13, "type": "INSTRUCTIONS", "trial_type": "text", "trial_index": 252, "time_elapsed": 1087670, "internal_node_id": "0.0-189.0"}}, {"uniqueid": "MTK0573:34Q075JO1YK4NT6U5H34A03F53S01R", "current_trial": 253, "dateTime": 1511214794581, "trialdata": {"rt": [2916, 5178, 7325, 9708, 12745, 17601, 20185, 23015], "responses": ["23", "14", "14", "20", "15", "24", "12", "20"], "num1": [9, 4, 3, 8, 9, 7, 2, 6, 5], "num2": [8, 1, 9, 8, 4, 9, 4, 5, 7], "num3": [6, 9, 2, 4, 2, 8, 6, 9, 7], "type": "DISTRACTOR", "conditions": [12, 800, "v", 24000], "trial": 7, "trial_type": "math-distractor", "trial_index": 253, "time_elapsed": 1113676, "internal_node_id": "0.0-190.0"}}, {"uniqueid": "MTK0573:34Q075JO1YK4NT6U5H34A03F53S01R", "current_trial": 254, "dateTime": 1511214797584, "trialdata": {"rt": -1, "stimulus": "<p id=\"stim\">10</p>", "key_press": -1, "trial_type": "single-stim", "trial_index": 254, "time_elapsed": 1116679, "internal_node_id": "0.0-191.0-0.0"}}, {"uniqueid": "MTK0573:34Q075JO1YK4NT6U5H34A03F53S01R", "current_trial": 255, "dateTime": 1511214798588, "trialdata": {"rt": -1, "stimulus": "<p id=\"stim\">9</p>", "key_press": -1, "trial_type": "single-stim", "trial_index": 255, "time_elapsed": 1117681, "internal_node_id": "0.0-191.0-1.0"}}, {"uniqueid": "MTK0573:34Q075JO1YK4NT6U5H34A03F53S01R", "current_trial": 256, "dateTime": 1511214799591, "trialdata": {"rt": -1, "stimulus": "<p id=\"stim\">8</p>", "key_press": -1, "trial_type": "single-stim", "trial_index": 256, "time_elapsed": 1118686, "internal_node_id": "0.0-191.0-2.0"}}, {"uniqueid": "MTK0573:34Q075JO1YK4NT6U5H34A03F53S01R", "current_trial": 257, "dateTime": 1511214800593, "trialdata": {"rt": -1, "stimulus": "<p id=\"stim\">7</p>", "key_press": -1, "trial_type": "single-stim", "trial_index": 257, "time_elapsed": 1119688, "internal_node_id": "0.0-191.0-3.0"}}, {"uniqueid": "MTK0573:34Q075JO1YK4NT6U5H34A03F53S01R", "current_trial": 258, "dateTime": 1511214801596, "trialdata": {"rt": -1, "stimulus": "<p id=\"stim\">6</p>", "key_press": -1, "trial_type": "single-stim", "trial_index": 258, "time_elapsed": 1120691, "internal_node_id": "0.0-191.0-4.0"}}, {"uniqueid": "MTK0573:34Q075JO1YK4NT6U5H34A03F53S01R", "current_trial": 259, "dateTime": 1511214802598, "trialdata": {"rt": -1, "stimulus": "<p id=\"stim\">5</p>", "key_press": -1, "trial_type": "single-stim", "trial_index": 259, "time_elapsed": 1121693, "internal_node_id": "0.0-191.0-5.0"}}, {"uniqueid": "MTK0573:34Q075JO1YK4NT6U5H34A03F53S01R", "current_trial": 260, "dateTime": 1511214803601, "trialdata": {"rt": -1, "stimulus": "<p id=\"stim\">4</p>", "key_press": -1, "trial_type": "single-stim", "trial_index": 260, "time_elapsed": 1122696, "internal_node_id": "0.0-191.0-6.0"}}, {"uniqueid": "MTK0573:34Q075JO1YK4NT6U5H34A03F53S01R", "current_trial": 261, "dateTime": 1511214804605, "trialdata": {"rt": -1, "stimulus": "<p id=\"stim\">3</p>", "key_press": -1, "trial_type": "single-stim", "trial_index": 261, "time_elapsed": 1123700, "internal_node_id": "0.0-191.0-7.0"}}, {"uniqueid": "MTK0573:34Q075JO1YK4NT6U5H34A03F53S01R", "current_trial": 262, "dateTime": 1511214805607, "trialdata": {"rt": -1, "stimulus": "<p id=\"stim\">2</p>", "key_press": -1, "trial_type": "single-stim", "trial_index": 262, "time_elapsed": 1124702, "internal_node_id": "0.0-191.0-8.0"}}, {"uniqueid": "MTK0573:34Q075JO1YK4NT6U5H34A03F53S01R", "current_trial": 263, "dateTime": 1511214806610, "trialdata": {"rt": -1, "stimulus": "<p id=\"stim\">1</p>", "key_press": -1, "trial_type": "single-stim", "trial_index": 263, "time_elapsed": 1125705, "internal_node_id": "0.0-191.0-9.0"}}, {"uniqueid": "MTK0573:34Q075JO1YK4NT6U5H34A03F53S01R", "current_trial": 264, "dateTime": 1511214808113, "trialdata": {"rt": -1, "stimulus": "<p id=\"stim\">+</p>", "key_press": -1, "type": "FIXATION", "trial_type": "single-stim", "trial_index": 264, "time_elapsed": 1127208, "internal_node_id": "0.0-192.0-0.0"}}, {"uniqueid": "MTK0573:34Q075JO1YK4NT6U5H34A03F53S01R", "current_trial": 265, "dateTime": 1511214808916, "trialdata": {"rt": -1, "stimulus": "<p id=\"stim\">SANDWICH</p>", "key_press": -1, "type": "PRES_VIS", "word": "sandwich", "wordID": 1231, "conditions": [12, 800, "v", 24000], "trial": 7, "serialpos": 0, "trial_type": "single-stim", "trial_index": 265, "time_elapsed": 1128011, "internal_node_id": "0.0-193.0"}}, {"uniqueid": "MTK0573:34Q075JO1YK4NT6U5H34A03F53S01R", "current_trial": 266, "dateTime": 1511214810681, "trialdata": {"rt": -1, "stimulus": "<p id=\"stim\">BANQUET</p>", "key_press": -1, "type": "PRES_VIS", "word": "banquet", "wordID": 85, "conditions": [12, 800, "v", 24000], "trial": 7, "serialpos": 1, "trial_type": "single-stim", "trial_index": 266, "time_elapsed": 1129776, "internal_node_id": "0.0-194.0"}}, {"uniqueid": "MTK0573:34Q075JO1YK4NT6U5H34A03F53S01R", "current_trial": 267, "dateTime": 1511214812525, "trialdata": {"rt": -1, "stimulus": "<p id=\"stim\">SUPPER</p>", "key_press": -1, "type": "PRES_VIS", "word": "supper", "wordID": 1410, "conditions": [12, 800, "v", 24000], "trial": 7, "serialpos": 2, "trial_type": "single-stim", "trial_index": 267, "time_elapsed": 1131620, "internal_node_id": "0.0-195.0"}}, {"uniqueid": "MTK0573:34Q075JO1YK4NT6U5H34A03F53S01R", "current_trial": 268, "dateTime": 1511214814205, "trialdata": {"rt": -1, "stimulus": "<p id=\"stim\">BIKE</p>", "key_press": -1, "type": "PRES_VIS", "word": "bike", "wordID": 124, "conditions": [12, 800, "v", 24000], "trial": 7, "serialpos": 3, "trial_type": "single-stim", "trial_index": 268, "time_elapsed": 1133300, "internal_node_id": "0.0-196.0"}}, {"uniqueid": "MTK0573:34Q075JO1YK4NT6U5H34A03F53S01R", "current_trial": 269, "dateTime": 1511214816146, "trialdata": {"rt": -1, "stimulus": "<p id=\"stim\">HELMET</p>", "key_press": -1, "type": "PRES_VIS", "word": "helmet", "wordID": 701, "conditions": [12, 800, "v", 24000], "trial": 7, "serialpos": 4, "trial_type": "single-stim", "trial_index": 269, "time_elapsed": 1135239, "internal_node_id": "0.0-197.0"}}, {"uniqueid": "MTK0573:34Q075JO1YK4NT6U5H34A03F53S01R", "current_trial": 270, "dateTime": 1511214817809, "trialdata": {"rt": -1, "stimulus": "<p id=\"stim\">TERMITE</p>", "key_press": -1, "type": "PRES_VIS", "word": "termite", "wordID": 1450, "conditions": [12, 800, "v", 24000], "trial": 7, "serialpos": 5, "trial_type": "single-stim", "trial_index": 270, "time_elapsed": 1136904, "internal_node_id": "0.0-198.0"}}, {"uniqueid": "MTK0573:34Q075JO1YK4NT6U5H34A03F53S01R", "current_trial": 271, "dateTime": 1511214819781, "trialdata": {"rt": -1, "stimulus": "<p id=\"stim\">CUPBOARD</p>", "key_press": -1, 