{"condition": 0, "counterbalance": 714, "assignmentId": "3AQF3RZ559PQRJMHE5Y683H0JPK6F4", "workerId": "MTK0613", "hitId": "3M67TQBQQHVGQR9DBUAOPS1RYZHA9X", "currenttrial": 627, "bonus": 0, "data": [{"uniqueid": "MTK0613:3AQF3RZ559PQRJMHE5Y683H0JPK6F4", "current_trial": 0, "dateTime": 1511572326869, "trialdata": {"rt": 11225, "key_press": 32, "type": "INSTRUCTIONS", "trial_type": "text", "trial_index": 0, "time_elapsed": 11226, "internal_node_id": "0.0-0.0"}}, {"uniqueid": "MTK0613:3AQF3RZ559PQRJMHE5Y683H0JPK6F4", "current_trial": 1, "dateTime": 1511572416325, "trialdata": {"rt": 89455, "key_press": 32, "type": "INSTRUCTIONS", "trial_type": "text", "trial_index": 1, "time_elapsed": 100683, "internal_node_id": "0.0-1.0"}}, {"uniqueid": "MTK0613:3AQF3RZ559PQRJMHE5Y683H0JPK6F4", "current_trial": 2, "dateTime": 1511572426813, "trialdata": {"rt": [10478], "responses": ["ocean"], "type": "AUDIO_TEST", "trial_type": "audio-test", "trial_index": 2, "time_elapsed": 111171, "internal_node_id": "0.0-2.0"}}, {"uniqueid": "MTK0613:3AQF3RZ559PQRJMHE5Y683H0JPK6F4", "current_trial": 3, "dateTime": 1511572437381, "trialdata": {"rt": [10563], "responses": ["crystal"], "type": "AUDIO_TEST", "trial_type": "audio-test", "trial_index": 3, "time_elapsed": 121739, "internal_node_id": "0.0-3.0"}}, {"uniqueid": "MTK0613:3AQF3RZ559PQRJMHE5Y683H0JPK6F4", "current_trial": 4, "dateTime": 1511572446340, "trialdata": {"rt": [8954], "responses": ["spice"], "type": "AUDIO_TEST", "trial_type": "audio-test", "trial_index": 4, "time_elapsed": 130698, "internal_node_id": "0.0-4.0"}}, {"uniqueid": "MTK0613:3AQF3RZ559PQRJMHE5Y683H0JPK6F4", "current_trial": 5, "dateTime": 1511572476100, "trialdata": {"rt": 29008, "responses": "{\"Q0\":\"10:30 pm\",\"Q1\":\"5:00 am\",\"Q2\":\"5\"}", "type": "SLEEP_SURVEY", "trial_type": "survey-text", "trial_index": 5, "time_elapsed": 160458, "internal_node_id": "0.0-5.0"}}, {"uniqueid": "MTK0613:3AQF3RZ559PQRJMHE5Y683H0JPK6F4", "current_trial": 6, "dateTime": 1511572598492, "trialdata": {"rt": 121392, "key_press": 32, "type": "INSTRUCTIONS", "trial_type": "text", "trial_index": 6, "time_elapsed": 282850, "internal_node_id": "0.0-6.0"}}, {"uniqueid": "MTK0613:3AQF3RZ559PQRJMHE5Y683H0JPK6F4", "current_trial": 7, "dateTime": 1511572617796, "trialdata": {"rt": 18803, "key_press": 32, "type": "INSTRUCTIONS", "trial_type": "text", "trial_index": 7, "time_elapsed": 302154, "internal_node_id": "0.0-7.0"}}, {"uniqueid": "MTK0613:3AQF3RZ559PQRJMHE5Y683H0JPK6F4", "current_trial": 8, "dateTime": 1511572633236, "trialdata": {"rt": 14940, "key_press": 32, "type": "INSTRUCTIONS", "trial_type": "text", "trial_index": 8, "time_elapsed": 317594, "internal_node_id": "0.0-8.0"}}, {"uniqueid": "MTK0613:3AQF3RZ559PQRJMHE5Y683H0JPK6F4", "current_trial": 9, "dateTime": 1511572652242, "trialdata": {"rt": [9588, 14091, 17740], "responses": ["11 ", "16", "18"], "num1": [7, 8, 1, 1], "num2": [1, 4, 9, 8], "num3": [3, 4, 8, 9], "type": "DISTRACTOR", "conditions": [18, 1200, "a", 18000], "trial": 0, "trial_type": "math-distractor", "trial_index": 9, "time_elapsed": 336600, "internal_node_id": "0.0-9.0"}}, {"uniqueid": "MTK0613:3AQF3RZ559PQRJMHE5Y683H0JPK6F4", "current_trial": 10, "dateTime": 1511572655242, "trialdata": {"rt": -1, "stimulus": "<p id=\"stim\">10</p>", "key_press": -1, "trial_type": "single-stim", "trial_index": 10, "time_elapsed": 339600, "internal_node_id": "0.0-10.0-0.0"}}, {"uniqueid": "MTK0613:3AQF3RZ559PQRJMHE5Y683H0JPK6F4", "current_trial": 11, "dateTime": 1511572656244, "trialdata": {"rt": -1, "stimulus": "<p id=\"stim\">9</p>", "key_press": -1, "trial_type": "single-stim", "trial_index": 11, "time_elapsed": 340602, "internal_node_id": "0.0-10.0-1.0"}}, {"uniqueid": "MTK0613:3AQF3RZ559PQRJMHE5Y683H0JPK6F4", "current_trial": 12, "dateTime": 1511572657245, "trialdata": {"rt": -1, "stimulus": "<p id=\"stim\">8</p>", "key_press": -1, "trial_type": "single-stim", "trial_index": 12, "time_elapsed": 341603, "internal_node_id": "0.0-10.0-2.0"}}, {"uniqueid": "MTK0613:3AQF3RZ559PQRJMHE5Y683H0JPK6F4", "current_trial": 13, "dateTime": 1511572658245, "trialdata": {"rt": -1, "stimulus": "<p id=\"stim\">7</p>", "key_press": -1, "trial_type": "single-stim", "trial_index": 13, "time_elapsed": 342603, "internal_node_id": "0.0-10.0-3.0"}}, {"uniqueid": "MTK0613:3AQF3RZ559PQRJMHE5Y683H0JPK6F4", "current_trial": 14, "dateTime": 1511572659245, "trialdata": {"rt": -1, "stimulus": "<p id=\"stim\">6</p>", "key_press": -1, "trial_type": "single-stim", "trial_index": 14, "time_elapsed": 343603, "internal_node_id": "0.0-10.0-4.0"}}, {"uniqueid": "MTK0613:3AQF3RZ559PQRJMHE5Y683H0JPK6F4", "current_trial": 15, "dateTime": 1511572660245, "trialdata": {"rt": -1, "stimulus": "<p id=\"stim\">5</p>", "key_press": -1, "trial_type": "single-stim", "trial_index": 15, "time_elapsed": 344603, "internal_node_id": "0.0-10.0-5.0"}}, {"uniqueid": "MTK0613:3AQF3RZ559PQRJMHE5Y683H0JPK6F4", "current_trial": 16, "dateTime": 1511572661246, "trialdata": {"rt": -1, "stimulus": "<p id=\"stim\">4</p>", "key_press": -1, "trial_type": "single-stim", "trial_index": 16, "time_elapsed": 345604, "internal_node_id": "0.0-10.0-6.0"}}, {"uniqueid": "MTK0613:3AQF3RZ559PQRJMHE5Y683H0JPK6F4", "current_trial": 17, "dateTime": 1511572662246, "trialdata": {"rt": -1, "stimulus": "<p id=\"stim\">3</p>", "key_press": -1, "trial_type": "single-stim", "trial_index": 17, "time_elapsed": 346604, "internal_node_id": "0.0-10.0-7.0"}}, {"uniqueid": "MTK0613:3AQF3RZ559PQRJMHE5Y683H0JPK6F4", "current_trial": 18, "dateTime": 1511572663246, "trialdata": {"rt": -1, "stimulus": "<p id=\"stim\">2</p>", "key_press": -1, "trial_type": "single-stim", "trial_index": 18, "time_elapsed": 347604, "internal_node_id": "0.0-10.0-8.0"}}, {"uniqueid": "MTK0613:3AQF3RZ559PQRJMHE5Y683H0JPK6F4", "current_trial": 19, "dateTime": 1511572664246, "trialdata": {"rt": -1, "stimulus": "<p id=\"stim\">1</p>", "key_press": -1, "trial_type": "single-stim", "trial_index": 19, "time_elapsed": 348604, "internal_node_id": "0.0-10.0-9.0"}}, {"uniqueid": "MTK0613:3AQF3RZ559PQRJMHE5Y683H0JPK6F4", "current_trial": 20, "dateTime": 1511572665746, "trialdata": {"rt": -1, "stimulus": "<p id=\"stim\">+</p>", "key_press": -1, "type": "FIXATION", "trial_type": "single-stim", "trial_index": 20, "time_elapsed": 350104, "internal_node_id": "0.0-11.0-0.0"}}, {"uniqueid": "MTK0613:3AQF3RZ559PQRJMHE5Y683H0JPK6F4", "current_trial": 21, "dateTime": 1511572667941, "trialdata": {"rt": -1000, "stimulus": "/static/audio/wordpool/CRITIC.wav", "key_press": -1, "type": "PRES_AUD", "word": "critic", "wordID": 409, "conditions": [18, 1200, "a", 18000], "trial": 0, "serialpos": 0, "trial_type": "single-audio", "trial_index": 21, "time_elapsed": 352299, "internal_node_id": "0.0-12.0"}}, {"uniqueid": "MTK0613:3AQF3RZ559PQRJMHE5Y683H0JPK6F4", "current_trial": 22, "dateTime": 1511572669998, "trialdata": {"rt": -1000, "stimulus": "/static/audio/wordpool/GALLON.wav", "key_press": -1, "type": "PRES_AUD", "word": "gallon", "wordID": 617, "conditions": [18, 1200, "a", 18000], "trial": 0, "serialpos": 1, "trial_type": "single-audio", "trial_index": 22, "time_elapsed": 354356, "internal_node_id": "0.0-13.0"}}, {"uniqueid": "MTK0613:3AQF3RZ559PQRJMHE5Y683H0JPK6F4", "current_trial": 23, "dateTime": 1511572672009, "trialdata": {"rt": -1000, "stimulus": "/static/audio/wordpool/ANTLER.wav", "key_press": -1, "type": "PRES_AUD", "word": "antler", "wordID": 28, "conditions": [18, 1200, "a", 18000], "trial": 0, "serialpos": 2, "trial_type": "single-audio", "trial_index": 23, "time_elapsed": 356367, "internal_node_id": "0.0-14.0"}}, {"uniqueid": "MTK0613:3AQF3RZ559PQRJMHE5Y683H0JPK6F4", "current_trial": 24, "dateTime": 1511572674387, "trialdata": {"rt": -1000, "stimulus": "/static/audio/wordpool/FOX.wav", "key_press": -1, "type": "PRES_AUD", "word": "fox", "wordID": 597, "conditions": [18, 1200, "a", 18000], "trial": 0, "serialpos": 3, "trial_type": "single-audio", "trial_index": 24, "time_elapsed": 358745, "internal_node_id": "0.0-15.0"}}, {"uniqueid": "MTK0613:3AQF3RZ559PQRJMHE5Y683H0JPK6F4", "current_trial": 25, "dateTime": 1511572676603, "trialdata": {"rt": -1000, "stimulus": "/static/audio/wordpool/WIFE.wav", "key_press": -1, "type": "PRES_AUD", "word": "wife", "wordID": 1608, "conditions": [18, 1200, "a", 18000], "trial": 0, "serialpos": 4, "trial_type": "single-audio", "trial_index": 25, "time_elapsed": 360961, "internal_node_id": "0.0-16.0"}}, {"uniqueid": "MTK0613:3AQF3RZ559PQRJMHE5Y683H0JPK6F4", "current_trial": 26, "dateTime": 1511572678740, "trialdata": {"rt": -1000, "stimulus": "/static/audio/wordpool/PADDLE.wav", "key_press": -1, "type": "PRES_AUD", "word": "paddle", "wordID": 999, "conditions": [18, 1200, "a", 18000], "trial": 0, "serialpos": 5, "trial_type": "single-audio", "trial_index": 26, "time_elapsed": 363098, "internal_node_id": "0.0-17.0"}}, {"uniqueid": "MTK0613:3AQF3RZ559PQRJMHE5Y683H0JPK6F4", "current_trial": 27, "dateTime": 1511572680890, "trialdata": {"rt": -1000, "stimulus": "/static/audio/wordpool/BARREL.wav", "key_press": -1, "type": "PRES_AUD", "word": "barrel", "wordID": 90, "conditions": [18, 1200, "a", 18000], "trial": 0, "serialpos": 6, "trial_type": "single-audio", "trial_index": 27, "time_elapsed": 365248, "internal_node_id": "0.0-18.0"}}, {"uniqueid": "MTK0613:3AQF3RZ559PQRJMHE5Y683H0JPK6F4", "current_trial": 28, "dateTime": 1511572683261, "trialdata": {"rt": -1000, "stimulus": "/static/audio/wordpool/GHETTO.wav", "key_press": -1, "type": "PRES_AUD", "word": "ghetto", "wordID": 632, "conditions": [18, 1200, "a", 18000], "trial": 0, "serialpos": 7, "trial_type": "single-audio", "trial_index": 28, "time_elapsed": 367619, "internal_node_id": "0.0-19.0"}}, {"uniqueid": "MTK0613:3AQF3RZ559PQRJMHE5Y683H0JPK6F4", "current_trial": 29, "dateTime": 1511572685326, "trialdata": {"rt": -1000, "stimulus": "/static/audio/wordpool/DAISY.wav", "key_press": -1, "type": "PRES_AUD", "word": "daisy", "wordID": 434, "conditions": [18, 1200, "a", 18000], "trial": 0, "serialpos": 8, "trial_type": "single-audio", "trial_index": 29, "time_elapsed": 369684, "internal_node_id": "0.0-20.0"}}, {"uniqueid": "MTK0613:3AQF3RZ559PQRJMHE5Y683H0JPK6F4", "current_trial": 30, "dateTime": 1511572687348, "trialdata": {"rt": -1000, "stimulus": "/static/audio/wordpool/SIDEWALK.wav", "key_press": -1, "type": "PRES_AUD", "word": "sidewalk", "wordID": 1302, "conditions": [18, 1200, "a", 18000], "trial": 0, "serialpos": 9, "trial_type": "single-audio", "trial_index": 30, "time_elapsed": 371706, "internal_node_id": "0.0-21.0"}}, {"uniqueid": "MTK0613:3AQF3RZ559PQRJMHE5Y683H0JPK6F4", "current_trial": 31, "dateTime": 1511572689373, "trialdata": {"rt": -1000, "stimulus": "/static/audio/wordpool/YACHT.wav", "key_press": -1, "type": "PRES_AUD", "word": "yacht", "wordID": 1628, "conditions": [18, 1200, "a", 18000], "trial": 0, "serialpos": 10, "trial_type": "single-audio", "trial_index": 31, "time_elapsed": 373731, "internal_node_id": "0.0-22.0"}}, {"uniqueid": "MTK0613:3AQF3RZ559PQRJMHE5Y683H0JPK6F4", "current_trial": 32, "dateTime": 1511572691383, "trialdata": {"rt": -1000, "stimulus": "/static/audio/wordpool/HERO.wav", "key_press": -1, "type": "PRES_AUD", "word": "hero", "wordID": 705, "conditions": [18, 1200, "a", 18000], "trial": 0, "serialpos": 11, "trial_type": "single-audio", "trial_index": 32, "time_elapsed": 375741, "internal_node_id": "0.0-23.0"}}, {"uniqueid": "MTK0613:3AQF3RZ559PQRJMHE5Y683H0JPK6F4", "current_trial": 33, "dateTime": 1511572693422, "trialdata": {"rt": -1000, "stimulus": "/static/audio/wordpool/QUAIL.wav", "key_press": -1, "type": "PRES_AUD", "word": "quail", "wordID": 1146, "conditions": [18, 1200, "a", 18000], "trial": 0, "serialpos": 12, "trial_type": "single-audio", "trial_index": 33, "time_elapsed": 377780, "internal_node_id": "0.0-24.0"}}, {"uniqueid": "MTK0613:3AQF3RZ559PQRJMHE5Y683H0JPK6F4", "current_trial": 34, "dateTime": 1511572695726, "trialdata": {"rt": -1000, "stimulus": "/static/audio/wordpool/COCKTAIL.wav", "key_press": -1, "type": "PRES_AUD", "word": "cocktail", "wordID": 337, "conditions": [18, 1200, "a", 18000], "trial": 0, "serialpos": 13, "trial_type": "single-audio", "trial_index": 34, "time_elapsed": 380084, "internal_node_id": "0.0-25.0"}}, {"uniqueid": "MTK0613:3AQF3RZ559PQRJMHE5Y683H0JPK6F4", "current_trial": 35, "dateTime": 1511572697806, "trialdata": {"rt": -1000, "stimulus": "/static/audio/wordpool/LOVER.wav", "key_press": -1, "type": "PRES_AUD", "word": "lover", "wordID": 845, "conditions": [18, 1200, "a", 18000], "trial": 0, "serialpos": 14, "trial_type": "single-audio", "trial_index": 35, "time_elapsed": 382164, "internal_node_id": "0.0-26.0"}}, {"uniqueid": "MTK0613:3AQF3RZ559PQRJMHE5Y683H0JPK6F4", "current_trial": 36, "dateTime": 1511572700148, "trialdata": {"rt": -1000, "stimulus": "/static/audio/wordpool/HOOK.wav", "key_press": -1, "type": "PRES_AUD", "word": "hook", "wordID": 714, "conditions": [18, 1200, "a", 18000], "trial": 0, "serialpos": 15, "trial_type": "single-audio", "trial_index": 36, "time_elapsed": 384506, "internal_node_id": "0.0-27.0"}}, {"uniqueid": "MTK0613:3AQF3RZ559PQRJMHE5Y683H0JPK6F4", "current_trial": 37, "dateTime": 1511572702388, "trialdata": {"rt": -1000, "stimulus": "/static/audio/wordpool/MISSILE.wav", "key_press": -1, "type": "PRES_AUD", "word": "missile", "wordID": 899, "conditions": [18, 1200, "a", 18000], "trial": 0, "serialpos": 16, "trial_type": "single-audio", "trial_index": 37, "time_elapsed": 386746, "internal_node_id": "0.0-28.0"}}, {"uniqueid": "MTK0613:3AQF3RZ559PQRJMHE5Y683H0JPK6F4", "current_trial": 38, "dateTime": 1511572704469, "trialdata": {"rt": -1000, "stimulus": "/static/audio/wordpool/SHARK.wav", "key_press": -1, "type": "PRES_AUD", "word": "shark", "wordID": 1274, "conditions": [18, 1200, "a", 18000], "trial": 0, "serialpos": 17, "trial_type": "single-audio", "trial_index": 38, "time_elapsed": 388827, "internal_node_id": "0.0-29.0"}}, {"uniqueid": "MTK0613:3AQF3RZ559PQRJMHE5Y683H0JPK6F4", "current_trial": 39, "dateTime": 1511572705680, "trialdata": {"rt": -1, "stimulus": "", "key_press": -1, "type": "PRE_RECALL_DELAY", "trial_type": "single-stim", "trial_index": 39, "time_elapsed": 390038, "internal_node_id": "0.0-30.0-0.0"}}, {"uniqueid": "MTK0613:3AQF3RZ559PQRJMHE5Y683H0JPK6F4", "current_trial": 40, "dateTime": 1511572706182, "trialdata": {"rt": -1000, "stimulus": "/static/audio/400Hz.wav", "key_press": -1, "type": "PRE_RECALL_ALERT", "trial_type": "single-audio", "trial_index": 40, "time_elapsed": 390540, "internal_node_id": "0.0-31.0"}}, {"uniqueid": "MTK0613:3AQF3RZ559PQRJMHE5Y683H0JPK6F4", "current_trial": 41, "dateTime": 1511572766186, "trialdata": {"rt": [8220, 14176, 16908, 19638, 21789, 28030, 31053, 32885, 35101, 36101, 40702, 44822, 54581], "recwords": ["shark", "missile", "lover", "cook", "hero", "daisy", "gallow", "barrel", "wife", "fox", "antler", "gallon", "cocktail"], "type": "FREE_RECALL", "conditions": [18, 1200, "a", 18000], "trial": 0, "trial_type": "free-recall", "trial_index": 41, "time_elapsed": 450542, "internal_node_id": "0.0-32.0-0.0"}}, {"uniqueid": "MTK0613:3AQF3RZ559PQRJMHE5Y683H0JPK6F4", "current_trial": 42, "dateTime": 1511572771812, "trialdata": {"rt": 3626, "key_press": 32, "type": "INSTRUCTIONS", "trial_type": "text", "trial_index": 42, "time_elapsed": 456170, "internal_node_id": "0.0-33.0"}}, {"uniqueid": "MTK0613:3AQF3RZ559PQRJMHE5Y683H0JPK6F4", "current_trial": 43, "dateTime": 1511572791813, "trialdata": {"rt": [4174, 8807, 11199, 12870, 15014], "responses": ["21", "10", "16", "5", "15"], "num1": [4, 2, 8, 2, 7, 5], "num2": [9, 1, 2, 2, 6, 3], "num3": [8, 7, 6, 1, 2, 9], "type": "DISTRACTOR", "conditions": [18, 1200, "v", 18000], "trial": 1, "trial_type": "math-distractor", "trial_index": 43, "time_elapsed": 476171, "internal_node_id": "0.0-34.0"}}, {"uniqueid": "MTK0613:3AQF3RZ559PQRJMHE5Y683H0JPK6F4", "current_trial": 44, "dateTime": 1511572794814, "trialdata": {"rt": -1, "stimulus": "<p id=\"stim\">10</p>", "key_press": -1, "trial_type": "single-stim", "trial_index": 44, "time_elapsed": 479172, "internal_node_id": "0.0-35.0-0.0"}}, {"uniqueid": "MTK0613:3AQF3RZ559PQRJMHE5Y683H0JPK6F4", "current_trial": 45, "dateTime": 1511572795814, "trialdata": {"rt": -1, "stimulus": "<p id=\"stim\">9</p>", "key_press": -1, "trial_type": "single-stim", "trial_index": 45, "time_elapsed": 480172, "internal_node_id": "0.0-35.0-1.0"}}, {"uniqueid": "MTK0613:3AQF3RZ559PQRJMHE5Y683H0JPK6F4", "current_trial": 46, "dateTime": 1511572796814, "trialdata": {"rt": -1, "stimulus": "<p id=\"stim\">8</p>", "key_press": -1, "trial_type": "single-stim", "trial_index": 46, "time_elapsed": 481172, "internal_node_id": "0.0-35.0-2.0"}}, {"uniqueid": "MTK0613:3AQF3RZ559PQRJMHE5Y683H0JPK6F4", "current_trial": 47, "dateTime": 1511572797814, "trialdata": {"rt": -1, "stimulus": "<p id=\"stim\">7</p>", "key_press": -1, "trial_type": "single-stim", "trial_index": 47, "time_elapsed": 482172, "internal_node_id": "0.0-35.0-3.0"}}, {"uniqueid": "MTK0613:3AQF3RZ559PQRJMHE5Y683H0JPK6F4", "current_trial": 48, "dateTime": 1511572798814, "trialdata": {"rt": -1, "stimulus": "<p id=\"stim\">6</p>", "key_press": -1, "trial_type": "single-stim", "trial_index": 48, "time_elapsed": 483172, "internal_node_id": "0.0-35.0-4.0"}}, {"uniqueid": "MTK0613:3AQF3RZ559PQRJMHE5Y683H0JPK6F4", "current_trial": 49, "dateTime": 1511572799814, "trialdata": {"rt": -1, "stimulus": "<p id=\"stim\">5</p>", "key_press": -1, "trial_type": "single-stim", "trial_index": 49, "time_elapsed": 484172, "internal_node_id": "0.0-35.0-5.0"}}, {"uniqueid": "MTK0613:3AQF3RZ559PQRJMHE5Y683H0JPK6F4", "current_trial": 50, "dateTime": 1511572800814, "trialdata": {"rt": -1, "stimulus": "<p id=\"stim\">4</p>", "key_press": -1, "trial_type": "single-stim", "trial_index": 50, "time_elapsed": 485172, "internal_node_id": "0.0-35.0-6.0"}}, {"uniqueid": "MTK0613:3AQF3RZ559PQRJMHE5Y683H0JPK6F4", "current_trial": 51, "dateTime": 1511572801814, "trialdata": {"rt": -1, "stimulus": "<p id=\"stim\">3</p>", "key_press": -1, "trial_type": "single-stim", "trial_index": 51, "time_elapsed": 486172, "internal_node_id": "0.0-35.0-7.0"}}, {"uniqueid": "MTK0613:3AQF3RZ559PQRJMHE5Y683H0JPK6F4", "current_trial": 52, "dateTime": 1511572802815, "trialdata": {"rt": -1, "stimulus": "<p id=\"stim\">2</p>", "key_press": -1, "trial_type": "single-stim", "trial_index": 52, "time_elapsed": 487172, "internal_node_id": "0.0-35.0-8.0"}}, {"uniqueid": "MTK0613:3AQF3RZ559PQRJMHE5Y683H0JPK6F4", "current_trial": 53, "dateTime": 1511572803815, "trialdata": {"rt": -1, "stimulus": "<p id=\"stim\">1</p>", "key_press": -1, "trial_type": "single-stim", "trial_index": 53, "time_elapsed": 488173, "internal_node_id": "0.0-35.0-9.0"}}, {"uniqueid": "MTK0613:3AQF3RZ559PQRJMHE5Y683H0JPK6F4", "current_trial": 54, "dateTime": 1511572805315, "trialdata": {"rt": -1, "stimulus": "<p id=\"stim\">+</p>", "key_press": -1, "type": "FIXATION", "trial_type": "single-stim", "trial_index": 54, "time_elapsed": 489673, "internal_node_id": "0.0-36.0-0.0"}}, {"uniqueid": "MTK0613:3AQF3RZ559PQRJMHE5Y683H0JPK6F4", "current_trial": 55, "dateTime": 1511572806515, "trialdata": {"rt": -1, "stimulus": "<p id=\"stim\">STATUE</p>", "key_press": -1, "type": "PRES_VIS", "word": "statue", "wordID": 1373, "conditions": [18, 1200, "v", 18000], "trial": 1, "serialpos": 0, "trial_type": "single-stim", "trial_index": 55, "time_elapsed": 490873, "internal_node_id": "0.0-37.0"}}, {"uniqueid": "MTK0613:3AQF3RZ559PQRJMHE5Y683H0JPK6F4", "current_trial": 56, "dateTime": 1511572808588, "trialdata": {"rt": -1, "stimulus": "<p id=\"stim\">POSTAGE</p>", "key_press": -1, "type": "PRES_VIS", "word": "postage", "wordID": 1112, "conditions": [18, 1200, "v", 18000], "trial": 1, "serialpos": 1, "trial_type": "single-stim", "trial_index": 56, "time_elapsed": 492946, "internal_node_id": "0.0-38.0"}}, {"uniqueid": "MTK0613:3AQF3RZ559PQRJMHE5Y683H0JPK6F4", "current_trial": 57, "dateTime": 1511572810652, "trialdata": {"rt": -1, "stimulus": "<p id=\"stim\">WOMAN</p>", "key_press": -1, "type": "PRES_VIS", "word": "woman", "wordID": 1619, "conditions": [18, 1200, "v", 18000], "trial": 1, "serialpos": 2, "trial_type": "single-stim", "trial_index": 57, "time_elapsed": 495010, "internal_node_id": "0.0-39.0"}}, {"uniqueid": "MTK0613:3AQF3RZ559PQRJMHE5Y683H0JPK6F4", "current_trial": 58, "dateTime": 1511572813027, "trialdata": {"rt": -1, "stimulus": "<p id=\"stim\">TUBA</p>", "key_press": -1, "type": "PRES_VIS", "word": "tuba", "wordID": 1514, "conditions": [18, 1200, "v", 18000], "trial": 1, "serialpos": 3, "trial_type": "single-stim", "trial_index": 58, "time_elapsed": 497385, "internal_node_id": "0.0-40.0"}}, {"uniqueid": "MTK0613:3AQF3RZ559PQRJMHE5Y683H0JPK6F4", "current_trial": 59, "dateTime": 1511572815229, "trialdata": {"rt": -1, "stimulus": "<p id=\"stim\">CANYON</p>", "key_press": -1, "type": "PRES_VIS", "word": "canyon", "wordID": 234, "conditions": [18, 1200, "v", 18000], "trial": 1, "serialpos": 4, "trial_type": "single-stim", "trial_index": 59, "time_elapsed": 499587, "internal_node_id": "0.0-41.0"}}, {"uniqueid": "MTK0613:3AQF3RZ559PQRJMHE5Y683H0JPK6F4", "current_trial": 60, "dateTime": 1511572817354, "trialdata": {"rt": -1, "stimulus": "<p id=\"stim\">WRENCH</p>", "key_press": -1, "type": "PRES_VIS", "word": "wrench", "wordID": 1624, "conditions": [18, 1200, "v", 18000], "trial": 1, "serialpos": 5, "trial_type": "single-stim", "trial_index": 60, "time_elapsed": 501712, "internal_node_id": "0.0-42.0"}}, {"uniqueid": "MTK0613:3AQF3RZ559PQRJMHE5Y683H0JPK6F4", "current_trial": 61, "dateTime": 1511572819731, "trialdata": {"rt": -1, "stimulus": "<p id=\"stim\">SHORTCAKE</p>", "key_press": -1, "type": "PRES_VIS", "word": "shortcake", "wordID": 1291, "conditions": [18, 1200, "v", 18000], "trial": 1, "serialpos": 6, "trial_type": "single-stim", "trial_index": 61, "time_elapsed": 504089, "internal_node_id": "0.0-43.0"}}, {"uniqueid": "MTK0613:3AQF3RZ559PQRJMHE5Y683H0JPK6F4", "current_trial": 62, "dateTime": 1511572822000, "trialdata": {"rt": -1, "stimulus": "<p id=\"stim\">DANCER</p>", "key_press": -1, "type": "PRES_VIS", "word": "dancer", "wordID": 436, "conditions": [18, 1200, "v", 18000], "trial": 1, "serialpos": 7, "trial_type": "single-stim", "trial_index": 62, "time_elapsed": 506358, "internal_node_id": "0.0-44.0"}}, {"uniqueid": "MTK0613:3AQF3RZ559PQRJMHE5Y683H0JPK6F4", "current_trial": 63, "dateTime": 1511572824277, "trialdata": {"rt": -1, "stimulus": "<p id=\"stim\">FLESH</p>", "key_press": -1, "type": "PRES_VIS", "word": "flesh", "wordID": 578, "conditions": [18, 1200, "v", 18000], "trial": 1, "serialpos": 8, "trial_type": "single-stim", "trial_index": 63, "time_elapsed": 508635, "internal_node_id": "0.0-45.0"}}, {"uniqueid": "MTK0613:3AQF3RZ559PQRJMHE5Y683H0JPK6F4", "current_trial": 64, "dateTime": 1511572826463, "trialdata": {"rt": -1, "stimulus": "<p id=\"stim\">LUGGAGE</p>", "key_press": -1, "type": "PRES_VIS", "word": "luggage", "wordID": 846, "conditions": [18, 1200, "v", 18000], "trial": 1, "serialpos": 9, "trial_type": "single-stim", "trial_index": 64, "time_elapsed": 510821, "internal_node_id": "0.0-46.0"}}, {"uniqueid": "MTK0613:3AQF3RZ559PQRJMHE5Y683H0JPK6F4", "current_trial": 65, "dateTime": 1511572828730, "trialdata": {"rt": -1, "stimulus": "<p id=\"stim\">PERFUME</p>", "key_press": -1, "type": "PRES_VIS", "word": "perfume", "wordID": 1048, "conditions": [18, 1200, "v", 18000], "trial": 1, "serialpos": 10, "trial_type": "single-stim", "trial_index": 65, "time_elapsed": 513088, "internal_node_id": "0.0-47.0"}}, {"uniqueid": "MTK0613:3AQF3RZ559PQRJMHE5Y683H0JPK6F4", "current_trial": 66, "dateTime": 1511572830832, "trialdata": {"rt": -1, "stimulus": "<p id=\"stim\">CASHEW</p>", "key_press": -1, "type": "PRES_VIS", "word": "cashew", "wordID": 252, "conditions": [18, 1200, "v", 18000], "trial": 1, "serialpos": 11, "trial_type": "single-stim", "trial_index": 66, "time_elapsed": 515190, "internal_node_id": "0.0-48.0"}}, {"uniqueid": "MTK0613:3AQF3RZ559PQRJMHE5Y683H0JPK6F4", "current_trial": 67, "dateTime": 1511572832867, "trialdata": {"rt": -1, "stimulus": "<p id=\"stim\">MOP</p>", "key_press": -1, "type": "PRES_VIS", "word": "mop", "wordID": 915, "conditions": [18, 1200, "v", 18000], "trial": 1, "serialpos": 12, "trial_type": "single-stim", "trial_index": 67, "time_elapsed": 517225, "internal_node_id": "0.0-49.0"}}, {"uniqueid": "MTK0613:3AQF3RZ559PQRJMHE5Y683H0JPK6F4", "current_trial": 68, "dateTime": 1511572835136, "trialdata": {"rt": -1, "stimulus": "<p id=\"stim\">TURNIP</p>", "key_press": -1, "type": "PRES_VIS", "word": "turnip", "wordID": 1520, "conditions": [18, 1200, "v", 18000], "trial": 1, "serialpos": 13, "trial_type": "single-stim", "trial_index": 68, "time_elapsed": 519492, "internal_node_id": "0.0-50.0"}}, {"uniqueid": "MTK0613:3AQF3RZ559PQRJMHE5Y683H0JPK6F4", "current_trial": 69, "dateTime": 1511572837530, "trialdata": {"rt": -1, "stimulus": "<p id=\"stim\">ORANGE</p>", "key_press": -1, "type": "PRES_VIS", "word": "orange", "wordID": 979, "conditions": [18, 1200, "v", 18000], "trial": 1, "serialpos": 14, "trial_type": "single-stim", "trial_index": 69, "time_elapsed": 521888, "internal_node_id": "0.0-51.0"}}, {"uniqueid": "MTK0613:3AQF3RZ559PQRJMHE5Y683H0JPK6F4", "current_trial": 70, "dateTime": 1511572839664, "trialdata": {"rt": -1, "stimulus": "<p id=\"stim\">ICING</p>", "key_press": -1, "type": "PRES_VIS", "word": "icing", "wordID": 731, "conditions": [18, 1200, "v", 18000], "trial": 1, "serialpos": 15, "trial_type": "single-stim", "trial_index": 70, "time_elapsed": 524022, "internal_node_id": "0.0-52.0"}}, {"uniqueid": "MTK0613:3AQF3RZ559PQRJMHE5Y683H0JPK6F4", "current_trial": 71, "dateTime": 1511572842021, "trialdata": {"rt": -1, "stimulus": "<p id=\"stim\">TWEEZERS</p>", "key_press": -1, "type": "PRES_VIS", "word": "tweezers", "wordID": 1525, "conditions": [18, 1200, "v", 18000], "trial": 1, "serialpos": 16, "trial_type": "single-stim", "trial_index": 71, "time_elapsed": 526379, "internal_node_id": "0.0-53.0"}}, {"uniqueid": "MTK0613:3AQF3RZ559PQRJMHE5Y683H0JPK6F4", "current_trial": 72, "dateTime": 1511572844326, "trialdata": {"rt": -1, "stimulus": "<p id=\"stim\">REBEL</p>", "key_press": -1, "type": "PRES_VIS", "word": "rebel", "wordID": 1171, "conditions": [18, 1200, "v", 18000], "trial": 1, "serialpos": 17, "trial_type": "single-stim", "trial_index": 72, "time_elapsed": 528684, "internal_node_id": "0.0-54.0"}}, {"uniqueid": "MTK0613:3AQF3RZ559PQRJMHE5Y683H0JPK6F4", "current_trial": 73, "dateTime": 1511572846856, "trialdata": {"rt": -1, "stimulus": "", "key_press": -1, "type": "PRE_RECALL_DELAY", "trial_type": "single-stim", "trial_index": 73, "time_elapsed": 531214, "internal_node_id": "0.0-55.0-0.0"}}, {"uniqueid": "MTK0613:3AQF3RZ559PQRJMHE5Y683H0JPK6F4", "current_trial": 74, "dateTime": 1511572847356, "trialdata": {"rt": -1000, "stimulus": "/static/audio/400Hz.wav", "key_press": -1, "type": "PRE_RECALL_ALERT", "trial_type": "single-audio", "trial_index": 74, "time_elapsed": 531714, "internal_node_id": "0.0-56.0"}}, {"uniqueid": "MTK0613:3AQF3RZ559PQRJMHE5Y683H0JPK6F4", "current_trial": 75, "dateTime": 1511572907358, "trialdata": {"rt": [5418, 7724, 13830, 16540, 20726, 23703, 26308, 28904, 32736, 38000, 41231, 44103, 46087, 55528], "recwords": ["rebel", "tweezers", "icing", "orange", "mop", "cashew", "perfume", "luggage", "dancer", "shortcake", "canyon", "woman", "postage", "wrench"], "type": "FREE_RECALL", "conditions": [18, 1200, "v", 18000], "trial": 1, "trial_type": "free-recall", "trial_index": 75, "time_elapsed": 591714, "internal_node_id": "0.0-57.0-0.0"}}, {"uniqueid": "MTK0613:3AQF3RZ559PQRJMHE5Y683H0JPK6F4", "current_trial": 76, "dateTime": 1511572919255, "trialdata": {"rt": 9893, "key_press": 32, "type": "INSTRUCTIONS", "trial_type": "text", "trial_index": 76, "time_elapsed": 603609, "internal_node_id": "0.0-58.0"}}, {"uniqueid": "MTK0613:3AQF3RZ559PQRJMHE5Y683H0JPK6F4", "current_trial": 77, "dateTime": 1511572932256, "trialdata": {"rt": [2666, 5898, 8467, 10539], "responses": ["21", "8", "18", "12"], "num1": [9, 1, 9, 1, 5], "num2": [4, 5, 5, 3, 6], "num3": [8, 2, 4, 8, 3], "type": "DISTRACTOR", "conditions": [24, 1600, "v", 12000], "trial": 2, "trial_type": "math-distractor", "trial_index": 77, "time_elapsed": 616614, "internal_node_id": "0.0-59.0"}}, {"uniqueid": "MTK0613:3AQF3RZ559PQRJMHE5Y683H0JPK6F4", "current_trial": 78, "dateTime": 1511572935256, "trialdata": {"rt": -1, "stimulus": "<p id=\"stim\">10</p>", "key_press": -1, "trial_type": "single-stim", "trial_index": 78, "time_elapsed": 619614, "internal_node_id": "0.0-60.0-0.0"}}, {"uniqueid": "MTK0613:3AQF3RZ559PQRJMHE5Y683H0JPK6F4", "current_trial": 79, "dateTime": 1511572936256, "trialdata": {"rt": -1, "stimulus": "<p id=\"stim\">9</p>", "key_press": -1, "trial_type": "single-stim", "trial_index": 79, "time_elapsed": 620614, "internal_node_id": "0.0-60.0-1.0"}}, {"uniqueid": "MTK0613:3AQF3RZ559PQRJMHE5Y683H0JPK6F4", "current_trial": 80, "dateTime": 1511572937256, "trialdata": {"rt": -1, "stimulus": "<p id=\"stim\">8</p>", "key_press": -1, "trial_type": "single-stim", "trial_index": 80, "time_elapsed": 621614, "internal_node_id": "0.0-60.0-2.0"}}, {"uniqueid": "MTK0613:3AQF3RZ559PQRJMHE5Y683H0JPK6F4", "current_trial": 81, "dateTime": 1511572938256, "trialdata": {"rt": -1, "stimulus": "<p id=\"stim\">7</p>", "key_press": -1, "trial_type": "single-stim", "trial_index": 81, "time_elapsed": 622614, "internal_node_id": "0.0-60.0-3.0"}}, {"uniqueid": "MTK0613:3AQF3RZ559PQRJMHE5Y683H0JPK6F4", "current_trial": 82, "dateTime": 1511572939256, "trialdata": {"rt": -1, "stimulus": "<p id=\"stim\">6</p>", "key_press": -1, "trial_type": "single-stim", "trial_index": 82, "time_elapsed": 623614, "internal_node_id": "0.0-60.0-4.0"}}, {"uniqueid": "MTK0613:3AQF3RZ559PQRJMHE5Y683H0JPK6F4", "current_trial": 83, "dateTime": 1511572940256, "trialdata": {"rt": -1, "stimulus": "<p id=\"stim\">5</p>", "key_press": -1, "trial_type": "single-stim", "trial_index": 83, "time_elapsed": 624614, "internal_node_id": "0.0-60.0-5.0"}}, {"uniqueid": "MTK0613:3AQF3RZ559PQRJMHE5Y683H0JPK6F4", "current_trial": 84, "dateTime": 1511572941256, "trialdata": {"rt": -1, "stimulus": "<p id=\"stim\">4</p>", "key_press": -1, "trial_type": "single-stim", "trial_index": 84, "time_elapsed": 625614, "internal_node_id": "0.0-60.0-6.0"}}, {"uniqueid": "MTK0613:3AQF3RZ559PQRJMHE5Y683H0JPK6F4", "current_trial": 85, "dateTime": 1511572942256, "trialdata": {"rt": -1, "stimulus": "<p id=\"stim\">3</p>", "key_press": -1, "trial_type": "single-stim", "trial_index": 85, "time_elapsed": 626614, "internal_node_id": "0.0-60.0-7.0"}}, {"uniqueid": "MTK0613:3AQF3RZ559PQRJMHE5Y683H0JPK6F4", "current_trial": 86, "dateTime": 1511572943256, "trialdata": {"rt": -1, "stimulus": "<p id=\"stim\">2</p>", "key_press": -1, "trial_type": "single-stim", "trial_index": 86, "time_elapsed": 627614, "internal_node_id": "0.0-60.0-8.0"}}, {"uniqueid": "MTK0613:3AQF3RZ559PQRJMHE5Y683H0JPK6F4", "current_trial": 87, "dateTime": 1511572944256, "trialdata": {"rt": -1, "stimulus": "<p id=\"stim\">1</p>", "key_press": -1, "trial_type": "single-stim", "trial_index": 87, "time_elapsed": 628614, "internal_node_id": "0.0-60.0-9.0"}}, {"uniqueid": "MTK0613:3AQF3RZ559PQRJMHE5Y683H0JPK6F4", "current_trial": 88, "dateTime": 1511572945756, "trialdata": {"rt": -1, "stimulus": "<p id=\"stim\">+</p>", "key_press": -1, "type": "FIXATION", "trial_type": "single-stim", "trial_index": 88, "time_elapsed": 630114, "internal_node_id": "0.0-61.0-0.0"}}, {"uniqueid": "MTK0613:3AQF3RZ559PQRJMHE5Y683H0JPK6F4", "current_trial": 89, "dateTime": 1511572947356, "trialdata": {"rt": -1, "stimulus": "<p id=\"stim\">JURY</p>", "key_press": -1, "type": "PRES_VIS", "word": "jury", "wordID": 765, "conditions": [24, 1600, "v", 12000], "trial": 2, "serialpos": 0, "trial_type": "single-stim", "trial_index": 89, "time_elapsed": 631714, "internal_node_id": "0.0-62.0"}}, {"uniqueid": "MTK0613:3AQF3RZ559PQRJMHE5Y683H0JPK6F4", "current_trial": 90, "dateTime": 1511572950058, "trialdata": {"rt": -1, "stimulus": "<p id=\"stim\">GYMNAST</p>", "key_press": -1, "type": "PRES_VIS", "word": "gymnast", "wordID": 674, "conditions": [24, 1600, "v", 12000], "trial": 2, "serialpos": 1, "trial_type": "single-stim", "trial_index": 90, "time_elapsed": 634416, "internal_node_id": "0.0-63.0"}}, {"uniqueid": "MTK0613:3AQF3RZ559PQRJMHE5Y683H0JPK6F4", "current_trial": 91, "dateTime": 1511572952526, "trialdata": {"rt": -1, "stimulus": "<p id=\"stim\">VAGRANT</p>", "key_press": -1, "type": "PRES_VIS", "word": "vagrant", "wordID": 1543, "conditions": [24, 1600, "v", 12000], "trial": 2, "serialpos": 2, "trial_type": "single-stim", "trial_index": 91, "time_elapsed": 636884, "internal_node_id": "0.0-64.0"}}, {"uniqueid": "MTK0613:3AQF3RZ559PQRJMHE5Y683H0JPK6F4", "current_trial": 92, "dateTime": 1511572954942, "trialdata": {"rt": -1, "stimulus": "<p id=\"stim\">NURSE</p>", "key_press": -1, "type": "PRES_VIS", "word": "nurse", "wordID": 962, "conditions": [24, 1600, "v", 12000], "trial": 2, "serialpos": 3, "trial_type": "single-stim", "trial_index": 92, "time_elapsed": 639300, "internal_node_id": "0.0-65.0"}}, {"uniqueid": "MTK0613:3AQF3RZ559PQRJMHE5Y683H0JPK6F4", "current_trial": 93, "dateTime": 1511572957553, "trialdata": {"rt": -1, "stimulus": "<p id=\"stim\">FEMALE</p>", "key_press": -1, "type": "PRES_VIS", "word": "female", "wordID": 558, "conditions": [24, 1600, "v", 12000], "trial": 2, "serialpos": 4, "trial_type": "single-stim", "trial_index": 93, "time_elapsed": 641911, "internal_node_id": "0.0-66.0"}}, {"uniqueid": "MTK0613:3AQF3RZ559PQRJMHE5Y683H0JPK6F4", "current_trial": 94, "dateTime": 1511572960068, "trialdata": {"rt": -1, "stimulus": "<p id=\"stim\">SODA</p>", "key_press": -1, "type": "PRES_VIS", "word": "soda", "wordID": 1340, "conditions": [24, 1600, "v", 12000], "trial": 2, "serialpos": 5, "trial_type": "single-stim", "trial_index": 94, "time_elapsed": 644426, "internal_node_id": "0.0-67.0"}}, {"uniqueid": "MTK0613:3AQF3RZ559PQRJMHE5Y683H0JPK6F4", "current_trial": 95, "dateTime": 1511572962828, "trialdata": {"rt": -1, "stimulus": "<p id=\"stim\">ZEBRA</p>", "key_press": -1, "type": "PRES_VIS", "word": "zebra", "wordID": 1634, "conditions": [24, 1600, "v", 12000], "trial": 2, "serialpos": 6, "trial_type": "single-stim", "trial_index": 95, "time_elapsed": 647186, "internal_node_id": "0.0-68.0"}}, {"uniqueid": "MTK0613:3AQF3RZ559PQRJMHE5Y683H0JPK6F4", "current_trial": 96, "dateTime": 1511572965296, "trialdata": {"rt": -1, "stimulus": "<p id=\"stim\">LEOPARD</p>", "key_press": -1, "type": "PRES_VIS", "word": "leopard", "wordID": 811, "conditions": [24, 1600, "v", 12000], "trial": 2, "serialpos": 7, "trial_type": "single-stim", "trial_index": 96, "time_elapsed": 649654, "internal_node_id": "0.0-69.0"}}, {"uniqueid": "MTK0613:3AQF3RZ559PQRJMHE5Y683H0JPK6F4", "current_trial": 97, "dateTime": 1511572967856, "trialdata": {"rt": -1, "stimulus": "<p id=\"stim\">DRINK</p>", "key_press": -1, "type": "PRES_VIS", "word": "drink", "wordID": 497, "conditions": [24, 1600, "v", 12000], "trial": 2, "serialpos": 8, "trial_type": "single-stim", "trial_index": 97, "time_elapsed": 652214, "internal_node_id": "0.0-70.0"}}, {"uniqueid": "MTK0613:3AQF3RZ559PQRJMHE5Y683H0JPK6F4", "current_trial": 98, "dateTime": 1511572970612, "trialdata": {"rt": -1, "stimulus": "<p id=\"stim\">RATTLE</p>", "key_press": -1, "type": "PRES_VIS", "word": "rattle", "wordID": 1169, "conditions": [24, 1600, "v", 12000], "trial": 2, "serialpos": 9, "trial_type": "single-stim", "trial_index": 98, "time_elapsed": 654970, "internal_node_id": "0.0-71.0"}}, {"uniqueid": "MTK0613:3AQF3RZ559PQRJMHE5Y683H0JPK6F4", "current_trial": 99, "dateTime": 1511572973306, "trialdata": {"rt": -1, "stimulus": "<p id=\"stim\">PICNIC</p>", "key_press": -1, "type": "PRES_VIS", "word": "picnic", "wordID": 1059, "conditions": [24, 1600, "v", 12000], "trial": 2, "serialpos": 10, "trial_type": "single-stim", "trial_index": 99, "time_elapsed": 657664, "internal_node_id": "0.0-72.0"}}, {"uniqueid": "MTK0613:3AQF3RZ559PQRJMHE5Y683H0JPK6F4", "current_trial": 100, "dateTime": 1511572975787, "trialdata": {"rt": -1, "stimulus": "<p id=\"stim\">VALLEY</p>", "key_press": -1, "type": "PRES_VIS", "word": "valley", "wordID": 1544, "conditions": [24, 1600, "v", 12000], "trial": 2, "serialpos": 11, "trial_type": "single-stim", "trial_index": 100, "time_elapsed": 660145, "internal_node_id": "0.0-73.0"}}, {"uniqueid": "MTK0613:3AQF3RZ559PQRJMHE5Y683H0JPK6F4", "current_trial": 101, "dateTime": 1511572978260, "trialdata": {"rt": -1, "stimulus": "<p id=\"stim\">WORLD</p>", "key_press": -1, "type": "PRES_VIS", "word": "world", "wordID": 1621, "conditions": [24, 1600, "v", 12000], "trial": 2, "serialpos": 12, "trial_type": "single-stim", "trial_index": 101, "time_elapsed": 662618, "internal_node_id": "0.0-74.0"}}, {"uniqueid": "MTK0613:3AQF3RZ559PQRJMHE5Y683H0JPK6F4", "current_trial": 102, "dateTime": 1511572980679, "trialdata": {"rt": -1, "stimulus": "<p id=\"stim\">TOMBSTONE</p>", "key_press": -1, "type": "PRES_VIS", "word": "tombstone", "wordID": 1477, "conditions": [24, 1600, "v", 12000], "trial": 2, "serialpos": 13, "trial_type": "single-stim", "trial_index": 102, "time_elapsed": 665037, "internal_node_id": "0.0-75.0"}}, {"uniqueid": "MTK0613:3AQF3RZ559PQRJMHE5Y683H0JPK6F4", "current_trial": 103, "dateTime": 1511572983258, "trialdata": {"rt": -1, "stimulus": "<p id=\"stim\">SPIDER</p>", "key_press": -1, "type": "PRES_VIS", "word": "spider", "wordID": 1350, "conditions": [24, 1600, "v", 12000], "trial": 2, "serialpos": 14, "trial_type": "single-stim", "trial_index": 103, "time_elapsed": 667616, "internal_node_id": "0.0-76.0"}}, {"uniqueid": "MTK0613:3AQF3RZ559PQRJMHE5Y683H0JPK6F4", "current_trial": 104, "dateTime": 1511572985979, "trialdata": {"rt": -1, "stimulus": "<p id=\"stim\">CLIMBER</p>", "key_press": -1, "type": "PRES_VIS", "word": "climber", "wordID": 322, "conditions": [24, 1600, "v", 12000], "trial": 2, "serialpos": 15, "trial_type": "single-stim", "trial_index": 104, "time_elapsed": 670337, "internal_node_id": "0.0-77.0"}}, {"uniqueid": "MTK0613:3AQF3RZ559PQRJMHE5Y683H0JPK6F4", "current_trial": 105, "dateTime": 1511572988466, "trialdata": {"rt": -1, "stimulus": "<p id=\"stim\">VIRUS</p>", "key_press": -1, "type": "PRES_VIS", "word": "virus", "wordID": 1571, "conditions": [24, 1600, "v", 12000], "trial": 2, "serialpos": 16, "trial_type": "single-stim", "trial_index": 105, "time_elapsed": 672824, "internal_node_id": "0.0-78.0"}}, {"uniqueid": "MTK0613:3AQF3RZ559PQRJMHE5Y683H0JPK6F4", "current_trial": 106, "dateTime": 1511572991134, "trialdata": {"rt": -1, "stimulus": "<p id=\"stim\">LAVA</p>", "key_press": -1, "type": "PRES_VIS", "word": "lava", "wordID": 803, "conditions": [24, 1600, "v", 12000], "trial": 2, "serialpos": 17, "trial_type": "single-stim", "trial_index": 106, "time_elapsed": 675492, "internal_node_id": "0.0-79.0"}}, {"uniqueid": "MTK0613:3AQF3RZ559PQRJMHE5Y683H0JPK6F4", "current_trial": 107, "dateTime": 1511572993922, "trialdata": {"rt": -1, "stimulus": "<p id=\"stim\">COFFEE</p>", "key_press": -1, "type": "PRES_VIS", "word": "coffee", "wordID": 340, "conditions": [24, 1600, "v", 12000], "trial": 2, "serialpos": 18, "trial_type": "single-stim", "trial_index": 107, "time_elapsed": 678280, "internal_node_id": "0.0-80.0"}}, {"uniqueid": "MTK0613:3AQF3RZ559PQRJMHE5Y683H0JPK6F4", "current_trial": 108, "dateTime": 1511572996525, "trialdata": {"rt": -1, "stimulus": "<p id=\"stim\">FOREHEAD</p>", "key_press": -1, "type": "PRES_VIS", "word": "forehead", "wordID": 591, "conditions": [24, 1600, "v", 12000], "trial": 2, "serialpos": 19, "trial_type": "single-stim", "trial_index": 108, "time_elapsed": 680883, "internal_node_id": "0.0-81.0"}}, {"uniqueid": "MTK0613:3AQF3RZ559PQRJMHE5Y683H0JPK6F4", "current_trial": 109, "dateTime": 1511572999068, "trialdata": {"rt": -1, "stimulus": "<p id=\"stim\">CHEST</p>", "key_press": -1, "type": "PRES_VIS", "word": "chest", "wordID": 294, "conditions": [24, 1600, "v", 12000], "trial": 2, "serialpos": 20, "trial_type": "single-stim", "trial_index": 109, "time_elapsed": 683426, "internal_node_id": "0.0-82.0"}}, {"uniqueid": "MTK0613:3AQF3RZ559PQRJMHE5Y683H0JPK6F4", "current_trial": 110, "dateTime": 1511573001809, "trialdata": {"rt": -1, "stimulus": "<p id=\"stim\">APPLE</p>", "key_press": -1, "type": "PRES_VIS", "word": "apple", "wordID": 32, "conditions": [24, 1600, "v", 12000], "trial": 2, "serialpos": 21, "trial_type": "single-stim", "trial_index": 110, "time_elapsed": 686167, "internal_node_id": "0.0-83.0"}}, {"uniqueid": "MTK0613:3AQF3RZ559PQRJMHE5Y683H0JPK6F4", "current_trial": 111, "dateTime": 1511573004478, "trialdata": {"rt": -1, "stimulus": "<p id=\"stim\">PECAN</p>", "key_press": -1, "type": "PRES_VIS", "word": "pecan", "wordID": 1035, "conditions": [24, 1600, "v", 12000], "trial": 2, "serialpos": 22, "trial_type": "single-stim", "trial_index": 111, "time_elapsed": 688836, "internal_node_id": "0.0-84.0"}}, {"uniqueid": "MTK0613:3AQF3RZ559PQRJMHE5Y683H0JPK6F4", "current_trial": 112, "dateTime": 1511573007155, "trialdata": {"rt": -1, "stimulus": "<p id=\"stim\">CASKET</p>", "key_press": -1, "type": "PRES_VIS", "word": "casket", "wordID": 254, "conditions": [24, 1600, "v", 12000], "trial": 2, "serialpos": 23, "trial_type": "single-stim", "trial_index": 112, "time_elapsed": 691513, "internal_node_id": "0.0-85.0"}}, {"uniqueid": "MTK0613:3AQF3RZ559PQRJMHE5Y683H0JPK6F4", "current_trial": 113, "dateTime": 1511573009345, "trialdata": {"rt": -1, "stimulus": "", "key_press": -1, "type": "PRE_RECALL_DELAY", "trial_type": "single-stim", "trial_index": 113, "time_elapsed": 693703, "internal_node_id": "0.0-86.0-0.0"}}, {"uniqueid": "MTK0613:3AQF3RZ559PQRJMHE5Y683H0JPK6F4", "current_trial": 114, "dateTime": 1511573009851, "trialdata": {"rt": -1000, "stimulus": "/static/audio/400Hz.wav", "key_press": -1, "type": "PRE_RECALL_ALERT", "trial_type": "single-audio", "trial_index": 114, "time_elapsed": 694209, "internal_node_id": "0.0-87.0"}}, {"uniqueid": "MTK0613:3AQF3RZ559PQRJMHE5Y683H0JPK6F4", "current_trial": 115, "dateTime": 1511573069855, "trialdata": {"rt": [6581, 11065, 13081, 15169, 16960, 19455, 22838, 24681, 28228, 34160, 36881, 39049, 40537, 42681, 44881, 48872, 52120, 55409], "recwords": ["casket", "apple", "chest", "coffee", "lave", "climber", "tombstone", "world", "picnic", "valley", "leopard", "zebra", "soda", "nurse", "jury", "gymnast", "vagrant", "drink"], "type": "FREE_RECALL", "conditions": [24, 1600, "v", 12000], "trial": 2, "trial_type": "free-recall", "trial_index": 115, "time_elapsed": 754209, "internal_node_id": "0.0-88.0-0.0"}}, {"uniqueid": "MTK0613:3AQF3RZ559PQRJMHE5Y683H0JPK6F4", "current_trial": 116, "dateTime": 1511573075532, "trialdata": {"rt": 3677, "key_press": 32, "type": "INSTRUCTIONS", "trial_type": "text", "trial_index": 116, "time_elapsed": 759890, "internal_node_id": "0.0-89.0"}}, {"uniqueid": "MTK0613:3AQF3RZ559PQRJMHE5Y683H0JPK6F4", "current_trial": 117, "dateTime": 1511573101533, "trialdata": {"rt": [3023, 5167, 7127, 9095, 10807, 14046, 15822, 17910, 20802, 23367], "responses": ["18", "21", "17", "18", "7", "16", "10", "14", "156", "12"], "num1": [5, 7, 4, 5, 3, 6, 3, 2, 3, 5, 3], "num2": [5, 9, 8, 6, 1, 1, 3, 3, 4, 4, 4], "num3": [8, 5, 5, 7, 3, 9, 4, 9, 8, 3, 3], "type": "DISTRACTOR", "conditions": [24, 1600, "v", 24000], "trial": 3, "trial_type": "math-distractor", "trial_index": 117, "time_elapsed": 785891, "internal_node_id": "0.0-90.0"}}, {"uniqueid": "MTK0613:3AQF3RZ559PQRJMHE5Y683H0JPK6F4", "current_trial": 118, "dateTime": 1511573104533, "trialdata": {"rt": -1, "stimulus": "<p id=\"stim\">10</p>", "key_press": -1, "trial_type": "single-stim", "trial_index": 118, "time_elapsed": 788891, "internal_node_id": "0.0-91.0-0.0"}}, {"uniqueid": "MTK0613:3AQF3RZ559PQRJMHE5Y683H0JPK6F4", "current_trial": 119, "dateTime": 1511573105533, "trialdata": {"rt": -1, "stimulus": "<p id=\"stim\">9</p>", "key_press": -1, "trial_type": "single-stim", "trial_index": 119, "time_elapsed": 789891, "internal_node_id": "0.0-91.0-1.0"}}, {"uniqueid": "MTK0613:3AQF3RZ559PQRJMHE5Y683H0JPK6F4", "current_trial": 120, "dateTime": 1511573106533, "trialdata": {"rt": -1, "stimulus": "<p id=\"stim\">8</p>", "key_press": -1, "trial_type": "single-stim", "trial_index": 120, "time_elapsed": 790891, "internal_node_id": "0.0-91.0-2.0"}}, {"uniqueid": "MTK0613:3AQF3RZ559PQRJMHE5Y683H0JPK6F4", "current_trial": 121, "dateTime": 1511573107533, "trialdata": {"rt": -1, "stimulus": "<p id=\"stim\">7</p>", "key_press": -1, "trial_type": "single-stim", "trial_index": 121, "time_elapsed": 791891, "internal_node_id": "0.0-91.0-3.0"}}, {"uniqueid": "MTK0613:3AQF3RZ559PQRJMHE5Y683H0JPK6F4", "current_trial": 122, "dateTime": 1511573108533, "trialdata": {"rt": -1, "stimulus": "<p id=\"stim\">6</p>", "key_press": -1, "trial_type": "single-stim", "trial_index": 122, "time_elapsed": 792891, "internal_node_id": "0.0-91.0-4.0"}}, {"uniqueid": "MTK0613:3AQF3RZ559PQRJMHE5Y683H0JPK6F4", "current_trial": 123, "dateTime": 1511573109533, "trialdata": {"rt": -1, "stimulus": "<p id=\"stim\">5</p>", "key_press": -1, "trial_type": "single-stim", "trial_index": 123, "time_elapsed": 793891, "internal_node_id": "0.0-91.0-5.0"}}, {"uniqueid": "MTK0613:3AQF3RZ559PQRJMHE5Y683H0JPK6F4", "current_trial": 124, "dateTime": 1511573110533, "trialdata": {"rt": -1, "stimulus": "<p id=\"stim\">4</p>", "key_press": -1, "trial_type": "single-stim", "trial_index": 124, "time_elapsed": 794891, "internal_node_id": "0.0-91.0-6.0"}}, {"uniqueid": "MTK0613:3AQF3RZ559PQRJMHE5Y683H0JPK6F4", "current_trial": 125, "dateTime": 1511573111533, "trialdata": {"rt": -1, "stimulus": "<p id=\"stim\">3</p>", "key_press": -1, "trial_type": "single-stim", "trial_index": 125, "time_elapsed": 795891, "internal_node_id": "0.0-91.0-7.0"}}, {"uniqueid": "MTK0613:3AQF3RZ559PQRJMHE5Y683H0JPK6F4", "current_trial": 126, "dateTime": 1511573112533, "trialdata": {"rt": -1, "stimulus": "<p id=\"stim\">2</p>", "key_press": -1, "trial_type": "single-stim", "trial_index": 126, "time_elapsed": 796891, "internal_node_id": "0.0-91.0-8.0"}}, {"uniqueid": "MTK0613:3AQF3RZ559PQRJMHE5Y683H0JPK6F4", "current_trial": 127, "dateTime": 1511573113533, "trialdata": {"rt": -1, "stimulus": "<p id=\"stim\">1</p>", "key_press": -1, "trial_type": "single-stim", "trial_index": 127, "time_elapsed": 797891, "internal_node_id": "0.0-91.0-9.0"}}, {"uniqueid": "MTK0613:3AQF3RZ559PQRJMHE5Y683H0JPK6F4", "current_trial": 128, "dateTime": 1511573115033, "trialdata": {"rt": -1, "stimulus": "<p id=\"stim\">+</p>", "key_press": -1, "type": "FIXATION", "trial_type": "single-stim", "trial_index": 128, "time_elapsed": 799391, "internal_node_id": "0.0-92.0-0.0"}}, {"uniqueid": "MTK0613:3AQF3RZ559PQRJMHE5Y683H0JPK6F4", "current_trial": 129, "dateTime": 1511573116633, "trialdata": {"rt": -1, "stimulus": "<p id=\"stim\">MAMMAL</p>", "key_press": -1, "type": "PRES_VIS", "word": "mammal", "wordID": 860, "conditions": [24, 1600, "v", 24000], "trial": 3, "serialpos": 0, "trial_type": "single-stim", "trial_index": 129, "time_elapsed": 800991, "internal_node_id": "0.0-93.0"}}, {"uniqueid": "MTK0613:3AQF3RZ559PQRJMHE5Y683H0JPK6F4", "current_trial": 130, "dateTime": 1511573119431, "trialdata": {"rt": -1, "stimulus": "<p id=\"stim\">TURTLE</p>", "key_press": -1, "type": "PRES_VIS", "word": "turtle", "wordID": 1521, "conditions": [24, 1600, "v", 24000], "trial": 3, "serialpos": 1, "trial_type": "single-stim", "trial_index": 130, "time_elapsed": 803789, "internal_node_id": "0.0-94.0"}}, {"uniqueid": "MTK0613:3AQF3RZ559PQRJMHE5Y683H0JPK6F4", "current_trial": 131, "dateTime": 1511573122088, "trialdata": {"rt": -1, "stimulus": "<p id=\"stim\">PUDDING</p>", "key_press": -1, "type": "PRES_VIS", "word": "pudding", "wordID": 1138, "conditions": [24, 1600, "v", 24000], "trial": 3, "serialpos": 2, "trial_type": "single-stim", "trial_index": 131, "time_elapsed": 806446, "internal_node_id": "0.0-95.0"}}, {"uniqueid": "MTK0613:3AQF3RZ559PQRJMHE5Y683H0JPK6F4", "current_trial": 132, "dateTime": 1511573124773, "trialdata": {"rt": -1, "stimulus": "<p id=\"stim\">PIANO</p>", "key_press": -1, "type": "PRES_VIS", "word": "piano", "wordID": 1056, "conditions": [24, 1600, "v", 24000], "trial": 3, "serialpos": 3, "trial_type": "single-stim", "trial_index": 132, "time_elapsed": 809131, "internal_node_id": "0.0-96.0"}}, {"uniqueid": "MTK0613:3AQF3RZ559PQRJMHE5Y683H0JPK6F4", "current_trial": 133, "dateTime": 1511573127178, "trialdata": {"rt": -1, "stimulus": "<p id=\"stim\">JAPAN</p>", "key_press": -1, "type": "PRES_VIS", "word": "japan", "wordID": 748, "conditions": [24, 1600, "v", 24000], "trial": 3, "serialpos": 4, "trial_type": "single-stim", "trial_index": 133, "time_elapsed": 811536, "internal_node_id": "0.0-97.0"}}, {"uniqueid": "MTK0613:3AQF3RZ559PQRJMHE5Y683H0JPK6F4", "current_trial": 134, "dateTime": 1511573129946, "trialdata": {"rt": -1, "stimulus": "<p id=\"stim\">FRUIT</p>", "key_press": -1, "type": "PRES_VIS", "word": "fruit", "wordID": 609, "conditions": [24, 1600, "v", 24000], "trial": 3, "serialpos": 5, "trial_type": "single-stim", "trial_index": 134, "time_elapsed": 814304, "internal_node_id": "0.0-98.0"}}, {"uniqueid": "MTK0613:3AQF3RZ559PQRJMHE5Y683H0JPK6F4", "current_trial": 135, "dateTime": 1511573132571, "trialdata": {"rt": -1, "stimulus": "<p id=\"stim\">DRAGON</p>", "key_press": -1, "type": "PRES_VIS", "word": "dragon", "wordID": 491, "conditions": [24, 1600, "v", 24000], "trial": 3, "serialpos": 6, "trial_type": "single-stim", "trial_index": 135, "time_elapsed": 816929, "internal_node_id": "0.0-99.0"}}, {"uniqueid": "MTK0613:3AQF3RZ559PQRJMHE5Y683H0JPK6F4", "current_trial": 136, "dateTime": 1511573135054, "trialdata": {"rt": -1, "stimulus": "<p id=\"stim\">RADISH</p>", "key_press": -1, "type": "PRES_VIS", "word": "radish", "wordID": 1157, "conditions": [24, 1600, "v", 24000], "trial": 3, "serialpos": 7, "trial_type": "single-stim", "trial_index": 136, "time_elapsed": 819412, "internal_node_id": "0.0-100.0"}}, {"uniqueid": "MTK0613:3AQF3RZ559PQRJMHE5Y683H0JPK6F4", "current_trial": 137, "dateTime": 1511573137750, "trialdata": {"rt": -1, "stimulus": "<p id=\"stim\">PASTRY</p>", "key_press": -1, "type": "PRES_VIS", "word": "pastry", "wordID": 1021, "conditions": [24, 1600, "v", 24000], "trial": 3, "serialpos": 8, "trial_type": "single-stim", "trial_index": 137, "time_elapsed": 822108, "internal_node_id": "0.0-101.0"}}, {"uniqueid": "MTK0613:3AQF3RZ559PQRJMHE5Y683H0JPK6F4", "current_trial": 138, "dateTime": 1511573140285, "trialdata": {"rt": -1, "stimulus": "<p id=\"stim\">BANJO</p>", "key_press": -1, "type": "PRES_VIS", "word": "banjo", "wordID": 81, "conditions": [24, 1600, "v", 24000], "trial": 3, "serialpos": 9, "trial_type": "single-stim", "trial_index": 138, "time_elapsed": 824643, "internal_node_id": "0.0-102.0"}}, {"uniqueid": "MTK0613:3AQF3RZ559PQRJMHE5Y683H0JPK6F4", "current_trial": 139, "dateTime": 1511573142980, "trialdata": {"rt": -1, "stimulus": "<p id=\"stim\">MOTOR</p>", "key_press": -1, "type": "PRES_VIS", "word": "motor", "wordID": 921, "conditions": [24, 1600, "v", 24000], "trial": 3, "serialpos": 10, "trial_type": "single-stim", "trial_index": 139, "time_elapsed": 827338, "internal_node_id": "0.0-103.0"}}, {"uniqueid": "MTK0613:3AQF3RZ559PQRJMHE5Y683H0JPK6F4", "current_trial": 140, "dateTime": 1511573145491, "trialdata": {"rt": -1, "stimulus": "<p id=\"stim\">SWAMP</p>", "key_press": -1, "type": "PRES_VIS", "word": "swamp", "wordID": 1415, "conditions": [24, 1600, "v", 24000], "trial": 3, "serialpos": 11, "trial_type": "single-stim", "trial_index": 140, "time_elapsed": 829849, "internal_node_id": "0.0-104.0"}}, {"uniqueid": "MTK0613:3AQF3RZ559PQRJMHE5Y683H0JPK6F4", "current_trial": 141, "dateTime": 1511573147986, "trialdata": {"rt": -1, "stimulus": "<p id=\"stim\">MAILBOX</p>", "key_press": -1, "type": "PRES_VIS", "word": "mailbox", "wordID": 856, "conditions": [24, 1600, "v", 24000], "trial": 3, "serialpos": 12, "trial_type": "single-stim", "trial_index": 141, "time_elapsed": 832344, "internal_node_id": "0.0-105.0"}}, {"uniqueid": "MTK0613:3AQF3RZ559PQRJMHE5Y683H0JPK6F4", "current_trial": 142, "dateTime": 1511573150455, "trialdata": {"rt": -1, "stimulus": "<p id=\"stim\">SPONGE</p>", "key_press": -1, "type": "PRES_VIS", "word": "sponge", "wordID": 1354, "conditions": [24, 1600, "v", 24000], "trial": 3, "serialpos": 13, "trial_type": "single-stim", "trial_index": 142, "time_elapsed": 834813, "internal_node_id": "0.0-106.0"}}, {"uniqueid": "MTK0613:3AQF3RZ559PQRJMHE5Y683H0JPK6F4", "current_trial": 143, "dateTime": 1511573153012, "trialdata": {"rt": -1, "stimulus": "<p id=\"stim\">GLOBE</p>", "key_press": -1, "type": "PRES_VIS", "word": "globe", "wordID": 640, "conditions": [24, 1600, "v", 24000], "trial": 3, "serialpos": 14, "trial_type": "single-stim", "trial_index": 143, "time_elapsed": 837370, "internal_node_id": "0.0-107.0"}}, {"uniqueid": "MTK0613:3AQF3RZ559PQRJMHE5Y683H0JPK6F4", "current_trial": 144, "dateTime": 1511573155704, "trialdata": {"rt": -1, "stimulus": "<p id=\"stim\">PLAYGROUND</p>", "key_press": -1, "type": "PRES_VIS", "word": "playground", "wordID": 1086, "conditions": [24, 1600, "v", 24000], "trial": 3, "serialpos": 15, "trial_type": "single-stim", "trial_index": 144, "time_elapsed": 840062, "internal_node_id": "0.0-108.0"}}, {"uniqueid": "MTK0613:3AQF3RZ559PQRJMHE5Y683H0JPK6F4", "current_trial": 145, "dateTime": 1511573158378, "trialdata": {"rt": -1, "stimulus": "<p id=\"stim\">BEAVER</p>", "key_press": -1, "type": "PRES_VIS", "word": "beaver", "wordID": 108, "conditions": [24, 1600, "v", 24000], "trial": 3, "serialpos": 16, "trial_type": "single-stim", "trial_index": 145, "time_elapsed": 842736, "internal_node_id": "0.0-109.0"}}, {"uniqueid": "MTK0613:3AQF3RZ559PQRJMHE5Y683H0JPK6F4", "current_trial": 146, "dateTime": 1511573160942, "trialdata": {"rt": -1, "stimulus": "<p id=\"stim\">SPOOL</p>", "key_press": -1, "type": "PRES_VIS", "word": "spool", "wordID": 1355, "conditions": [24, 1600, "v", 24000], "trial": 3, "serialpos": 17, "trial_type": "single-stim", "trial_index": 146, "time_elapsed": 845300, "internal_node_id": "0.0-110.0"}}, {"uniqueid": "MTK0613:3AQF3RZ559PQRJMHE5Y683H0JPK6F4", "current_trial": 147, "dateTime": 1511573163496, "trialdata": {"rt": -1, "stimulus": "<p id=\"stim\">CREATURE</p>", "key_press": -1, "type": "PRES_VIS", "word": "creature", "wordID": 402, "conditions": [24, 1600, "v", 24000], "trial": 3, "serialpos": 18, "trial_type": "single-stim", "trial_index": 147, "time_elapsed": 847854, "internal_node_id": "0.0-111.0"}}, {"uniqueid": "MTK0613:3AQF3RZ559PQRJMHE5Y683H0JPK6F4", "current_trial": 148, "dateTime": 1511573166222, "trialdata": {"rt": -1, "stimulus": "<p id=\"stim\">MAILMAN</p>", "key_press": -1, "type": "PRES_VIS", "word": "mailman", "wordID": 857, "conditions": [24, 1600, "v", 24000], "trial": 3, "serialpos": 19, "trial_type": "single-stim", "trial_index": 148, "time_elapsed": 850580, "internal_node_id": "0.0-112.0"}}, {"uniqueid": "MTK0613:3AQF3RZ559PQRJMHE5Y683H0JPK6F4", "current_trial": 149, "dateTime": 1511573168633, "trialdata": {"rt": -1, "stimulus": "<p id=\"stim\">ACTOR</p>", "key_press": -1, "type": "PRES_VIS", "word": "actor", "wordID": 4, "conditions": [24, 1600, "v", 24000], "trial": 3, "serialpos": 20, "trial_type": "single-stim", "trial_index": 149, "time_elapsed": 852991, "internal_node_id": "0.0-113.0"}}, {"uniqueid": "MTK0613:3AQF3RZ559PQRJMHE5Y683H0JPK6F4", "current_trial": 150, "dateTime": 1511573171149, "trialdata": {"rt": -1, "stimulus": "<p id=\"stim\">ACTRESS</p>", "key_press": -1, "type": "PRES_VIS", "word": "actress", "wordID": 5, "conditions": [24, 1600, "v", 24000], "trial": 3, "serialpos": 21, "trial_type": "single-stim", "trial_index": 150, "time_elapsed": 855507, "internal_node_id": "0.0-114.0"}}, {"uniqueid": "MTK0613:3AQF3RZ559PQRJMHE5Y683H0JPK6F4", "current_trial": 151, "dateTime": 1511573173800, "trialdata": {"rt": -1, "stimulus": "<p id=\"stim\">UNCLE</p>", "key_press": -1, "type": "PRES_VIS", "word": "uncle", "wordID": 1535, "conditions": [24, 1600, "v", 24000], "trial": 3, "serialpos": 22, "trial_type": "single-stim", "trial_index": 151, "time_elapsed": 858158, "internal_node_id": "0.0-115.0"}}, {"uniqueid": "MTK0613:3AQF3RZ559PQRJMHE5Y683H0JPK6F4", "current_trial": 152, "dateTime": 1511573176583, "trialdata": {"rt": -1, "stimulus": "<p id=\"stim\">CYCLONE</p>", "key_press": -1, "type": "PRES_VIS", "word": "cyclone", "wordID": 430, "conditions": [24, 1600, "v", 24000], "trial": 3, "serialpos": 23, "trial_type": "single-stim", "trial_index": 152, "time_elapsed": 860941, "internal_node_id": "0.0-116.0"}}, {"uniqueid": "MTK0613:3AQF3RZ559PQRJMHE5Y683H0JPK6F4", "current_trial": 153, "dateTime": 1511573178824, "trialdata": {"rt": -1, "stimulus": "", "key_press": -1, "type": "PRE_RECALL_DELAY", "trial_type": "single-stim", "trial_index": 153, "time_elapsed": 863182, "internal_node_id": "0.0-117.0-0.0"}}, {"uniqueid": "MTK0613:3AQF3RZ559PQRJMHE5Y683H0JPK6F4", "current_trial": 154, "dateTime": 1511573179330, "trialdata": {"rt": -1000, "stimulus": "/static/audio/400Hz.wav", "key_press": -1, "type": "PRE_RECALL_ALERT", "trial_type": "single-audio", "trial_index": 154, "time_elapsed": 863688, "internal_node_id": "0.0-118.0"}}, {"uniqueid": "MTK0613:3AQF3RZ559PQRJMHE5Y683H0JPK6F4", "current_trial": 155, "dateTime": 1511573239333, "trialdata": {"rt": [4137, 6546, 9869, 11153, 14389, 17209, 20302, 25106, 26801, 28628, 30953, 33281, 35626, 43737, 49297, 53162], "recwords": ["cyclone", "uncle", "actress", "actor", "creature", "globe", "motor", "banjo", "fruit", "japan", "piano", "pudding", "turtle", "mailbox", "playground", "spool"], "type": "FREE_RECALL", "conditions": [24, 1600, "v", 24000], "trial": 3, "trial_type": "free-recall", "trial_index": 155, "time_elapsed": 923688, "internal_node_id": "0.0-119.0-0.0"}}, {"uniqueid": "MTK0613:3AQF3RZ559PQRJMHE5Y683H0JPK6F4", "current_trial": 156, "dateTime": 1511573411308, "trialdata": {"rt": 169975, "key_press": 32, "type": "INSTRUCTIONS", "trial_type": "text", "trial_index": 156, "time_elapsed": 1095666, "internal_node_id": "0.0-120.0"}}, {"uniqueid": "MTK0613:3AQF3RZ559PQRJMHE5Y683H0JPK6F4", "current_trial": 157, "dateTime": 1511573425310, "trialdata": {"rt": [2950, 4581, 6213, 7925, 9797, 11662], "responses": ["20", "8", "14", "13", "11", "14"], "num1": [9, 6, 7, 3, 3, 3, 4], "num2": [3, 1, 6, 9, 2, 3, 2], "num3": [8, 1, 1, 1, 6, 8, 5], "type": "DISTRACTOR", "conditions": [12, 1600, "v", 12000], "trial": 4, "trial_type": "math-distractor", "trial_index": 157, "time_elapsed": 1109668, "internal_node_id": "0.0-121.0"}}, {"uniqueid": "MTK0613:3AQF3RZ559PQRJMHE5Y683H0JPK6F4", "current_trial": 158, "dateTime": 1511573428310, "trialdata": {"rt": -1, "stimulus": "<p id=\"stim\">10</p>", "key_press": -1, "trial_type": "single-stim", "trial_index": 158, "time_elapsed": 1112668, "internal_node_id": "0.0-122.0-0.0"}}, {"uniqueid": "MTK0613:3AQF3RZ559PQRJMHE5Y683H0JPK6F4", "current_trial": 159, "dateTime": 1511573429310, "trialdata": {"rt": -1, "stimulus": "<p id=\"stim\">9</p>", "key_press": -1, "trial_type": "single-stim", "trial_index": 159, "time_elapsed": 1113668, "internal_node_id": "0.0-122.0-1.0"}}, {"uniqueid": "MTK0613:3AQF3RZ559PQRJMHE5Y683H0JPK6F4", "current_trial": 160, "dateTime": 1511573430310, "trialdata": {"rt": -1, "stimulus": "<p id=\"stim\">8</p>", "key_press": -1, "trial_type": "single-stim", "trial_index": 160, "time_elapsed": 1114668, "internal_node_id": "0.0-122.0-2.0"}}, {"uniqueid": "MTK0613:3AQF3RZ559PQRJMHE5Y683H0JPK6F4", "current_trial": 161, "dateTime": 1511573431310, "trialdata": {"rt": -1, "stimulus": "<p id=\"stim\">7</p>", "key_press": -1, "trial_type": "single-stim", "trial_index": 161, "time_elapsed": 1115668, "internal_node_id": "0.0-122.0-3.0"}}, {"uniqueid": "MTK0613:3AQF3RZ559PQRJMHE5Y683H0JPK6F4", "current_trial": 162, "dateTime": 1511573432310, "trialdata": {"rt": -1, "stimulus": "<p id=\"stim\">6</p>", "key_press": -1, "trial_type": "single-stim", "trial_index": 162, "time_elapsed": 1116668, "internal_node_id": "0.0-122.0-4.0"}}, {"uniqueid": "MTK0613:3AQF3RZ559PQRJMHE5Y683H0JPK6F4", "current_trial": 163, "dateTime": 1511573433310, "trialdata": {"rt": -1, "stimulus": "<p id=\"stim\">5</p>", "key_press": -1, "trial_type": "single-stim", "trial_index": 163, "time_elapsed": 1117668, "internal_node_id": "0.0-122.0-5.0"}}, {"uniqueid": "MTK0613:3AQF3RZ559PQRJMHE5Y683H0JPK6F4", "current_trial": 164, "dateTime": 1511573434310, "trialdata": {"rt": -1, "stimulus": "<p id=\"stim\">4</p>", "key_press": -1, "trial_type": "single-stim", "trial_index": 164, "time_elapsed": 1118668, "internal_node_id": "0.0-122.0-6.0"}}, {"uniqueid": "MTK0613:3AQF3RZ559PQRJMHE5Y683H0JPK6F4", "current_trial": 165, "dateTime": 1511573435310, "trialdata": {"rt": -1, "stimulus": "<p id=\"stim\">3</p>", "key_press": -1, "trial_type": "single-stim", "trial_index": 165, "time_elapsed": 1119668, "internal_node_id": "0.0-122.0-7.0"}}, {"uniqueid": "MTK0613:3AQF3RZ559PQRJMHE5Y683H0JPK6F4", "current_trial": 166, "dateTime": 1511573436310, "trialdata": {"rt": -1, "stimulus": "<p id=\"stim\">2</p>", "key_press": -1, "trial_type": "single-stim", "trial_index": 166, "time_elapsed": 1120668, "internal_node_id": "0.0-122.0-8.0"}}, {"uniqueid": "MTK0613:3AQF3RZ559PQRJMHE5Y683H0JPK6F4", "current_trial": 167, "dateTime": 1511573437310, "trialdata": {"rt": -1, "stimulus": "<p id=\"stim\">1</p>", "key_press": -1, "trial_type": "single-stim", "trial_index": 167, "time_elapsed": 1121668, "internal_node_id": "0.0-122.0-9.0"}}, {"uniqueid": "MTK0613:3AQF3RZ559PQRJMHE5Y683H0JPK6F4", "current_trial": 168, "dateTime": 1511573438810, "trialdata": {"rt": -1, "stimulus": "<p id=\"stim\">+</p>", "key_press": -1, "type": "FIXATION", "trial_type": "single-stim", "trial_index": 168, "time_elapsed": 1123168, "internal_node_id": "0.0-123.0-0.0"}}, {"uniqueid": "MTK0613:3AQF3RZ559PQRJMHE5Y683H0JPK6F4", "current_trial": 169, "dateTime": 1511573440410, "trialdata": {"rt": -1, "stimulus": "<p id=\"stim\">SANDWICH</p>", "key_press": -1, "type": "PRES_VIS", "word": "sandwich", "wordID": 1231, "conditions": [12, 1600, "v", 12000], "trial": 4, "serialpos": 0, "trial_type": "single-stim", "trial_index": 169, "time_elapsed": 1124768, "internal_node_id": "0.0-124.0"}}, {"uniqueid": "MTK0613:3AQF3RZ559PQRJMHE5Y683H0JPK6F4", "current_trial": 170, "dateTime": 1511573443081, "trialdata": {"rt": -1, "stimulus": "<p id=\"stim\">COOKBOOK</p>", "key_press": -1, "type": "PRES_VIS", "word": "cookbook", "wordID": 372, "conditions": [12, 1600, "v", 12000], "trial": 4, "serialpos": 1, "trial_type": "single-stim", "trial_index": 170, "time_elapsed": 1127439, "internal_node_id": "0.0-125.0"}}, {"uniqueid": "MTK0613:3AQF3RZ559PQRJMHE5Y683H0JPK6F4", "current_trial": 171, "dateTime": 1511573445812, "trialdata": {"rt": -1, "stimulus": "<p id=\"stim\">DIVER</p>", "key_press": -1, "type": "PRES_VIS", "word": "diver", "wordID": 475, "conditions": [12, 1600, "v", 12000], "trial": 4, "serialpos": 2, "trial_type": "single-stim", "trial_index": 171, "time_elapsed": 1130170, "internal_node_id": "0.0-126.0"}}, {"uniqueid": "MTK0613:3AQF3RZ559PQRJMHE5Y683H0JPK6F4", "current_trial": 172, "dateTime": 1511573448412, "trialdata": {"rt": -1, "stimulus": "<p id=\"stim\">SWIMMER</p>", "key_press": -1, "type": "PRES_VIS", "word": "swimmer", "wordID": 1419, "conditions": [12, 1600, "v", 12000], "trial": 4, "serialpos": 3, "trial_type": "single-stim", "trial_index": 172, "time_elapsed": 1132770, "internal_node_id": "0.0-127.0"}}, {"uniqueid": "MTK0613:3AQF3RZ559PQRJMHE5Y683H0JPK6F4", "current_trial": 173, "dateTime": 1511573451189, "trialdata": {"rt": -1, "stimulus": "<p id=\"stim\">GARDEN</p>", "key_press": -1, "type": "PRES_VIS", "word": "garden", "wordID": 622, "conditions": [12, 1600, "v", 12000], "trial": 4, "serialpos": 4, "trial_type": "single-stim", "trial_index": 173, "time_elapsed": 1135547, "internal_node_id": "0.0-128.0"}}, {"uniqueid": "MTK0613:3AQF3RZ559PQRJMHE5Y683H0JPK6F4", "current_trial": 174, "dateTime": 1511573453816, "trialdata": {"rt": -1, "stimulus": "<p id=\"stim\">CUPBOARD</p>", "key_press": -1, "type": "PRES_VIS", "word": "cupboard", "wordID": 424, "conditions": [12, 1600, "v", 12000], "trial": 4, "serialpos": 5, "trial_type": "single-stim", "trial_index": 174, "time_elapsed": 1138174, "internal_node_id": "0.0-129.0"}}, {"uniqueid": "MTK0613:3AQF3RZ559PQRJMHE5Y683H0JPK6F4", "current_trial": 175, "dateTime": 1511573456277, "trialdata": {"rt": -1, "stimulus": "<p id=\"stim\">HAND</p>", "key_press": -1, "type": "PRES_VIS", "word": "hand", "wordID": 682, "conditions": [12, 1600, "v", 12000], "trial": 4, "serialpos": 6, "trial_type": "single-stim", "trial_index": 175, "time_elapsed": 1140635, "internal_node_id": "0.0-130.0"}}, {"uniqueid": "MTK0613:3AQF3RZ559PQRJMHE5Y683H0JPK6F4", "current_trial": 176, "dateTime": 1511573459067, "trialdata": {"rt": -1, "stimulus": "<p id=\"stim\">LADY</p>", "key_press": -1, "type": "PRES_VIS", "word": "lady", "wordID": 793, "conditions": [12, 1600, "v", 12000], "trial": 4, "serialpos": 7, "trial_type": "single-stim", "trial_index": 176, "time_elapsed": 1143425, "internal_node_id": "0.0-131.0"}}, {"uniqueid": "MTK0613:3AQF3RZ559PQRJMHE5Y683H0JPK6F4", "current_trial": 177, "dateTime": 1511573461807, "trialdata": {"rt": -1, "stimulus": "<p id=\"stim\">MUFFIN</p>", "key_press": -1, "type": "PRES_VIS", "word": "muffin", "wordID": 928, "conditions": [12, 1600, "v", 12000], "trial": 4, "serialpos": 8, "trial_type": "single-stim", "trial_index": 177, "time_elapsed": 1146165, "internal_node_id": "0.0-132.0"}}, {"uniqueid": "MTK0613:3AQF3RZ559PQRJMHE5Y683H0JPK6F4", "current_trial": 178, "dateTime": 1511573464495, "trialdata": {"rt": -1, "stimulus": "<p id=\"stim\">PARENT</p>", "key_press": -1, "type": "PRES_VIS", "word": "parent", "wordID": 1012, "conditions": [12, 1600, "v", 12000], "trial": 4, "serialpos": 9, "trial_type": "single-stim", "trial_index": 178, "time_elapsed": 1148853, "internal_node_id": "0.0-133.0"}}, {"uniqueid": "MTK0613:3AQF3RZ559PQRJMHE5Y683H0JPK6F4", "current_trial": 179, "dateTime": 1511573466917, "trialdata": {"rt": -1, "stimulus": "<p id=\"stim\">PLATE</p>", "key_press": -1, "type": "PRES_VIS", "word": "plate", "wordID": 1085, "conditions": [12, 1600, "v", 12000], "trial": 4, "serialpos": 10, "trial_type": "single-stim", "trial_index": 179, "time_elapsed": 1151275, "internal_node_id": "0.0-134.0"}}, {"uniqueid": "MTK0613:3AQF3RZ559PQRJMHE5Y683H0JPK6F4", "current_trial": 180, "dateTime": 1511573469703, "trialdata": {"rt": -1, "stimulus": "<p id=\"stim\">TABLET</p>", "key_press": -1, "type": "PRES_VIS", "word": "tablet", "wordID": 1426, "conditions": [12, 1600, "v", 12000], "trial": 4, "serialpos": 11, "trial_type": "single-stim", "trial_index": 180, "time_elapsed": 1154061, "internal_node_id": "0.0-135.0"}}, {"uniqueid": "MTK0613:3AQF3RZ559PQRJMHE5Y683H0JPK6F4", "current_trial": 181, "dateTime": 1511573471856, "trialdata": {"rt": -1, "stimulus": "", "key_press": -1, "type": "PRE_RECALL_DELAY", "trial_type": "single-stim", "trial_index": 181, "time_elapsed": 1156214, "internal_node_id": "0.0-136.0-0.0"}}, {"uniqueid": "MTK0613:3AQF3RZ559PQRJMHE5Y683H0JPK6F4", "current_trial": 182, "dateTime": 1511573472362, "trialdata": {"rt": -1000, "stimulus": "/static/audio/400Hz.wav", "key_press": -1, "type": "PRE_RECALL_ALERT", "trial_type": "single-audio", "trial_index": 182, "time_elapsed": 1156720, "internal_node_id": "0.0-137.0"}}, {"uniqueid": "MTK0613:3AQF3RZ559PQRJMHE5Y683H0JPK6F4", "current_trial": 183, "dateTime": 1511573532365, "trialdata": {"rt": [3896, 7880, 9409, 13416, 15294, 17960, 20496, 22982, 24145, 27292, 29764, 36490, 41770, 59402], "recwords": ["tablet", "parent", "plate", "lady", "muffin", "hand", "cupboard", "swimmer", "diver", "cookbook", "sandwich", "garden", "parent", "muffin"], "type": "FREE_RECALL", "conditions": [12, 1600, "v", 12000], "trial": 4, "trial_type": "free-recall", "trial_index": 183, "time_elapsed": 1216720, "internal_node_id": "0.0-138.0-0.0"}}, {"uniqueid": "MTK0613:3AQF3RZ559PQRJMHE5Y683H0JPK6F4", "current_trial": 184, "dateTime": 1511573536876, "trialdata": {"rt": 2510, "key_press": 32, "type": "INSTRUCTIONS", "trial_type": "text", "trial_index": 184, "time_elapsed": 1221234, "internal_node_id": "0.0-139.0"}}, {"uniqueid": "MTK0613:3AQF3RZ559PQRJMHE5Y683H0JPK6F4", "current_trial": 185, "dateTime": 1511573550877, "trialdata": {"rt": [2663, 4903, 7455, 9334, 11542], "responses": ["16", "8", "16", "11", "20"], "num1": [8, 6, 5, 3, 6, 8], "num2": [2, 1, 8, 4, 5, 7], "num3": [6, 1, 3, 4, 9, 3], "type": "DISTRACTOR", "conditions": [12, 800, "v", 12000], "trial": 5, "trial_type": "math-distractor", "trial_index": 185, "time_elapsed": 1235235, "internal_node_id": "0.0-140.0"}}, {"uniqueid": "MTK0613:3AQF3RZ559PQRJMHE5Y683H0JPK6F4", "current_trial": 186, "dateTime": 1511573553877, "trialdata": {"rt": -1, "stimulus": "<p id=\"stim\">10</p>", "key_press": -1, "trial_type": "single-stim", "trial_index": 186, "time_elapsed": 1238235, "internal_node_id": "0.0-141.0-0.0"}}, {"uniqueid": "MTK0613:3AQF3RZ559PQRJMHE5Y683H0JPK6F4", "current_trial": 187, "dateTime": 1511573554877, "trialdata": {"rt": -1, "stimulus": "<p id=\"stim\">9</p>", "key_press": -1, "trial_type": "single-stim", "trial_index": 187, "time_elapsed": 1239235, "internal_node_id": "0.0-141.0-1.0"}}, {"uniqueid": "MTK0613:3AQF3RZ559PQRJMHE5Y683H0JPK6F4", "current_trial": 188, "dateTime": 1511573555877, "trialdata": {"rt": -1, "stimulus": "<p id=\"stim\">8</p>", "key_press": -1, "trial_type": "single-stim", "trial_index": 188, "time_elapsed": 1240235, "internal_node_id": "0.0-141.0-2.0"}}, {"uniqueid": "MTK0613:3AQF3RZ559PQRJMHE5Y683H0JPK6F4", "current_trial": 189, "dateTime": 1511573556877, "trialdata": {"rt": -1, "stimulus": "<p id=\"stim\">7</p>", "key_press": -1, "trial_type": "single-stim", "trial_index": 189, "time_elapsed": 1241235, "internal_node_id": "0.0-141.0-3.0"}}, {"uniqueid": "MTK0613:3AQF3RZ559PQRJMHE5Y683H0JPK6F4", "current_trial": 190, "dateTime": 1511573557878, "trialdata": {"rt": -1, "stimulus": "<p id=\"stim\">6</p>", "key_press": -1, "trial_type": "single-stim", "trial_index": 190, "time_elapsed": 1242236, "internal_node_id": "0.0-141.0-4.0"}}, {"uniqueid": "MTK0613:3AQF3RZ559PQRJMHE5Y683H0JPK6F4", "current_trial": 191, "dateTime": 1511573558878, "trialdata": {"rt": -1, "stimulus": "<p id=\"stim\">5</p>", "key_press": -1, "trial_type": "single-stim", "trial_index": 191, "time_elapsed": 1243236, "internal_node_id": "0.0-141.0-5.0"}}, {"uniqueid": "MTK0613:3AQF3RZ559PQRJMHE5Y683H0JPK6F4", "current_trial": 192, "dateTime": 1511573559878, "trialdata": {"rt": -1, "stimulus": "<p id=\"stim\">4</p>", "key_press": -1, "trial_type": "single-stim", "trial_index": 192, "time_elapsed": 1244236, "internal_node_id": "0.0-141.0-6.0"}}, {"uniqueid": "MTK0613:3AQF3RZ559PQRJMHE5Y683H0JPK6F4", "current_trial": 193, "dateTime": 1511573560878, "trialdata": {"rt": -1, "stimulus": "<p id=\"stim\">3</p>", "key_press": -1, "trial_type": "single-stim", "trial_index": 193, "time_elapsed": 1245236, "internal_node_id": "0.0-141.0-7.0"}}, {"uniqueid": "MTK0613:3AQF3RZ559PQRJMHE5Y683H0JPK6F4", "current_trial": 194, "dateTime": 1511573561878, "trialdata": {"rt": -1, "stimulus": "<p id=\"stim\">2</p>", "key_press": -1, "trial_type": "single-stim", "trial_index": 194, "time_elapsed": 1246236, "internal_node_id": "0.0-141.0-8.0"}}, {"uniqueid": "MTK0613:3AQF3RZ559PQRJMHE5Y683H0JPK6F4", "current_trial": 195, "dateTime": 1511573562878, "trialdata": {"rt": -1, "stimulus": "<p id=\"stim\">1</p>", "key_press": -1, "trial_type": "single-stim", "trial_index": 195, "time_elapsed": 1247236, "internal_node_id": "0.0-141.0-9.0"}}, {"uniqueid": "MTK0613:3AQF3RZ559PQRJMHE5Y683H0JPK6F4", "current_trial": 196, "dateTime": 1511573564378, "trialdata": {"rt": -1, "stimulus": "<p id=\"stim\">+</p>", "key_press": -1, "type": "FIXATION", "trial_type": "single-stim", "trial_index": 196, "time_elapsed": 1248736, "internal_node_id": "0.0-142.0-0.0"}}, {"uniqueid": "MTK0613:3AQF3RZ559PQRJMHE5Y683H0JPK6F4", "current_trial": 197, "dateTime": 1511573565178, "trialdata": {"rt": -1, "stimulus": "<p id=\"stim\">HIGHWAY</p>", "key_press": -1, "type": "PRES_VIS", "word": "highway", "wordID": 706, "conditions": [12, 800, "v", 12000], "trial": 5, "serialpos": 0, "trial_type": "single-stim", "trial_index": 197, "time_elapsed": 1249536, "internal_node_id": "0.0-143.0"}}, {"uniqueid": "MTK0613:3AQF3RZ559PQRJMHE5Y683H0JPK6F4", "current_trial": 198, "dateTime": 1511573567051, "trialdata": {"rt": -1, "stimulus": "<p id=\"stim\">BUGGY</p>", "key_press": -1, "type": "PRES_VIS", "word": "buggy", "wordID": 187, "conditions": [12, 800, "v", 12000], "trial": 5, "serialpos": 1, "trial_type": "single-stim", "trial_index": 198, "time_elapsed": 1251409, "internal_node_id": "0.0-144.0"}}, {"uniqueid": "MTK0613:3AQF3RZ559PQRJMHE5Y683H0JPK6F4", "current_trial": 199, "dateTime": 1511573568760, "trialdata": {"rt": -1, "stimulus": "<p id=\"stim\">BROTHER</p>", "key_press": -1, "type": "PRES_VIS", "word": "brother", "wordID": 178, "conditions": [12, 800, "v", 12000], "trial": 5, "serialpos": 2, "trial_type": "single-stim", "trial_index": 199, "time_elapsed": 1253118, "internal_node_id": "0.0-145.0"}}, {"uniqueid": "MTK0613:3AQF3RZ559PQRJMHE5Y683H0JPK6F4", "current_trial": 200, "dateTime": 1511573570523, "trialdata": {"rt": -1, "stimulus": "<p id=\"stim\">GRAVEL</p>", "key_press": -1, "type": "PRES_VIS", "word": "gravel", "wordID": 658, "conditions": [12, 800, "v", 12000], "trial": 5, "serialpos": 3, "trial_type": "single-stim", "trial_index": 200, "time_elapsed": 1254881, "internal_node_id": "0.0-146.0"}}, {"uniqueid": "MTK0613:3AQF3RZ559PQRJMHE5Y683H0JPK6F4", "current_trial": 201, "dateTime": 1511573572273, "trialdata": {"rt": -1, "stimulus": "<p id=\"stim\">LIPSTICK</p>", "key_press": -1, "type": "PRES_VIS", "word": "lipstick", "wordID": 828, "conditions": [12, 800, "v", 12000], "trial": 5, "serialpos": 4, "trial_type": "single-stim", "trial_index": 201, "time_elapsed": 1256631, "internal_node_id": "0.0-147.0"}}, {"uniqueid": "MTK0613:3AQF3RZ559PQRJMHE5Y683H0JPK6F4", "current_trial": 202, "dateTime": 1511573574049, "trialdata": {"rt": -1, "stimulus": "<p id=\"stim\">NECKLACE</p>", "key_press": -1, "type": "PRES_VIS", "word": "necklace", "wordID": 939, "conditions": [12, 800, "v", 12000], "trial": 5, "serialpos": 5, "trial_type": "single-stim", "trial_index": 202, "time_elapsed": 1258407, "internal_node_id": "0.0-148.0"}}, {"uniqueid": "MTK0613:3AQF3RZ559PQRJMHE5Y683H0JPK6F4", "current_trial": 203, "dateTime": 1511573575696, "trialdata": {"rt": -1, "stimulus": "<p id=\"stim\">FRIEND</p>", "key_press": -1, "type": "PRES_VIS", "word": "friend", "wordID": 605, "conditions": [12, 800, "v", 12000], "trial": 5, "serialpos": 6, "trial_type": "single-stim", "trial_index": 203, "time_elapsed": 1260054, "internal_node_id": "0.0-149.0"}}, {"uniqueid": "MTK0613:3AQF3RZ559PQRJMHE5Y683H0JPK6F4", "current_trial": 204, "dateTime": 1511573577543, "trialdata": {"rt": -1, "stimulus": "<p id=\"stim\">HAWK</p>", "key_press": -1, "type": "PRES_VIS", "word": "hawk", "wordID": 691, "conditions": [12, 800, "v", 12000], "trial": 5, "serialpos": 7, "trial_type": "single-stim", "trial_index": 204, "time_elapsed": 1261901, "internal_node_id": "0.0-150.0"}}, {"uniqueid": "MTK0613:3AQF3RZ559PQRJMHE5Y683H0JPK6F4", "current_trial": 205, "dateTime": 1511573579192, "trialdata": {"rt": -1, "stimulus": "<p id=\"stim\">HONEY</p>", "key_press": -1, "type": "PRES_VIS", "word": "honey", "wordID": 712, "conditions": [12, 800, "v", 12000], "trial": 5, "serialpos": 8, "trial_type": "single-stim", "trial_index": 205, "time_elapsed": 1263550, "internal_node_id": "0.0-151.0"}}, {"uniqueid": "MTK0613:3AQF3RZ559PQRJMHE5Y683H0JPK6F4", "current_trial": 206, "dateTime": 1511573581175, "trialdata": {"rt": -1, "stimulus": "<p id=\"stim\">PANTHER</p>", "key_press": -1, "type": "PRES_VIS", "word": "panther", "wordID": 1008, "conditions": [12, 800, "v", 12000], "trial": 5, "serialpos": 9, "trial_type": "single-stim", "trial_index": 206, "time_elapsed": 1265533, "internal_node_id": "0.0-152.0"}}, {"uniqueid": "MTK0613:3AQF3RZ559PQRJMHE5Y683H0JPK6F4", "current_trial": 207, "dateTime": 1511573582951, "trialdata": {"rt": -1, "stimulus": "<p id=\"stim\">SUSPECT</p>", "key_press": -1, "type": "PRES_VIS", "word": "suspect", "wordID": 1414, "conditions": [12, 800, "v", 12000], "trial": 5, "serialpos": 10, "trial_type": "single-stim", "trial_index": 207, "time_elapsed": 1267309, "internal_node_id": "0.0-153.0"}}, {"uniqueid": "MTK0613:3AQF3RZ559PQRJMHE5Y683H0JPK6F4", "current_trial": 208, "dateTime": 1511573584668, "trialdata": {"rt": -1, "stimulus": "<p id=\"stim\">VICTIM</p>", "key_press": -1, "type": "PRES_VIS", "word": "victim", "wordID": 1561, "conditions": [12, 800, "v", 12000], "trial": 5, "serialpos": 11, "trial_type": "single-stim", "trial_index": 208, "time_elapsed": 1269026, "internal_node_id": "0.0-154.0"}}, {"uniqueid": "MTK0613:3AQF3RZ559PQRJMHE5Y683H0JPK6F4", "current_trial": 209, "dateTime": 1511573586942, "trialdata": {"rt": -1, "stimulus": "", "key_press": -1, "type": "PRE_RECALL_DELAY", "trial_type": "single-stim", "trial_index": 209, "time_elapsed": 1271300, "internal_node_id": "0.0-155.0-0.0"}}, {"uniqueid": "MTK0613:3AQF3RZ559PQRJMHE5Y683H0JPK6F4", "current_trial": 210, "dateTime": 1511573587445, "trialdata": {"rt": -1000, "stimulus": "/static/audio/400Hz.wav", "key_press": -1, "type": "PRE_RECALL_ALERT", "trial_type": "single-audio", "trial_index": 210, "time_elapsed": 1271803, "internal_node_id": "0.0-156.0"}}, {"uniqueid": "MTK0613:3AQF3RZ559PQRJMHE5Y683H0JPK6F4", "current_trial": 211, "dateTime": 1511573647448, "trialdata": {"rt": [5543, 7626, 10886, 16508, 23796, 27352, 32134, 37222, 55726, 59781], "recwords": ["panther", "victim", "honey", "friend", "highway", "bother", "friend", "panther", "lady", "parent"], "type": "FREE_RECALL", "conditions": [12, 800, "v", 12000], "trial": 5, "trial_type": "free-recall", "trial_index": 211, "time_elapsed": 1331803, "internal_node_id": "0.0-157.0-0.0"}}, {"uniqueid": "MTK0613:3AQF3RZ559PQRJMHE5Y683H0JPK6F4", "current_trial": 212, "dateTime": 1511573660404, "trialdata": {"rt": 10955, "key_press": 32, "type": "INSTRUCTIONS", "trial_type": "text", "trial_index": 212, "time_elapsed": 1344761, "internal_node_id": "0.0-158.0"}}, {"uniqueid": "MTK0613:3AQF3RZ559PQRJMHE5Y683H0JPK6F4", "current_trial": 213, "dateTime": 1511573686405, "trialdata": {"rt": [2317, 4197, 6725, 8301, 9838, 11942, 13934, 16046, 18645, 21229, 23013], "responses": ["22", "16", "19", "9", "8", "15", "18", "17", "23", "22", "5"], "num1": [9, 3, 6, 6, 3, 3, 7, 2, 7, 8, 2, 1], "num2": [9, 7, 9, 1, 4, 6, 9, 7, 7, 9, 1, 9], "num3": [4, 6, 4, 2, 1, 6, 2, 8, 9, 5, 2, 7], "type": "DISTRACTOR", "conditions": [24, 1600, "a", 24000], "trial": 6, "trial_type": "math-distractor", "trial_index": 213, "time_elapsed": 1370763, "internal_node_id": "0.0-159.0"}}, {"uniqueid": "MTK0613:3AQF3RZ559PQRJMHE5Y683H0JPK6F4", "current_trial": 214, "dateTime": 1511573689405, "trialdata": {"rt": -1, "stimulus": "<p id=\"stim\">10</p>", "key_press": -1, "trial_type": "single-stim", "trial_index": 214, "time_elapsed": 1373763, "internal_node_id": "0.0-160.0-0.0"}}, {"uniqueid": "MTK0613:3AQF3RZ559PQRJMHE5Y683H0JPK6F4", "current_trial": 215, "dateTime": 1511573690405, "trialdata": {"rt": -1, "stimulus": "<p id=\"stim\">9</p>", "key_press": -1, "trial_type": "single-stim", "trial_index": 215, "time_elapsed": 1374763, "internal_node_id": "0.0-160.0-1.0"}}, {"uniqueid": "MTK0613:3AQF3RZ559PQRJMHE5Y683H0JPK6F4", "current_trial": 216, "dateTime": 1511573691405, "trialdata": {"rt": -1, "stimulus": "<p id=\"stim\">8</p>", "key_press": -1, "trial_type": "single-stim", "trial_index": 216, "time_elapsed": 1375763, "internal_node_id": "0.0-160.0-2.0"}}, {"uniqueid": "MTK0613:3AQF3RZ559PQRJMHE5Y683H0JPK6F4", "current_trial": 217, "dateTime": 1511573692405, "trialdata": {"rt": -1, "stimulus": "<p id=\"stim\">7</p>", "key_press": -1, "trial_type": "single-stim", "trial_index": 217, "time_elapsed": 1376763, "internal_node_id": "0.0-160.0-3.0"}}, {"uniqueid": "MTK0613:3AQF3RZ559PQRJMHE5Y683H0JPK6F4", "current_trial": 218, "dateTime": 1511573693405, "trialdata": {"rt": -1, "stimulus": "<p id=\"stim\">6</p>", "key_press": -1, "trial_type": "single-stim", "trial_index": 218, "time_elapsed": 1377763, "internal_node_id": "0.0-160.0-4.0"}}, {"uniqueid": "MTK0613:3AQF3RZ559PQRJMHE5Y683H0JPK6F4", "current_trial": 219, "dateTime": 1511573694405, "trialdata": {"rt": -1, "stimulus": "<p id=\"stim\">5</p>", "key_press": -1, "trial_type": "single-stim", "trial_index": 219, "time_elapsed": 1378763, "internal_node_id": "0.0-160.0-5.0"}}, {"uniqueid": "MTK0613:3AQF3RZ559PQRJMHE5Y683H0JPK6F4", "current_trial": 220, "dateTime": 1511573695405, "trialdata": {"rt": -1, "stimulus": "<p id=\"stim\">4</p>", "key_press": -1, "trial_type": "single-stim", "trial_index": 220, "time_elapsed": 1379763, "internal_node_id": "0.0-160.0-6.0"}}, {"uniqueid": "MTK0613:3AQF3RZ559PQRJMHE5Y683H0JPK6F4", "current_trial": 221, "dateTime": 1511573696405, "trialdata": {"rt": -1, "stimulus": "<p id=\"stim\">3</p>", "key_press": -1, "trial_type": "single-stim", "trial_index": 221, "time_elapsed": 1380763, "internal_node_id": "0.0-160.0-7.0"}}, {"uniqueid": "MTK0613:3AQF3RZ559PQRJMHE5Y683H0JPK6F4", "current_trial": 222, "dateTime": 1511573697406, "trialdata": {"rt": -1, "stimulus": "<p id=\"stim\">2</p>", "key_press": -1, "trial_type": "single-stim", "trial_index": 222, "time_elapsed": 1381764, "internal_node_id": "0.0-160.0-8.0"}}, {"uniqueid": "MTK0613:3AQF3RZ559PQRJMHE5Y683H0JPK6F4", "current_trial": 223, "dateTime": 1511573698406, "trialdata": {"rt": -1, "stimulus": "<p id=\"stim\">1</p>", "key_press": -1, "trial_type": "single-stim", "trial_index": 223, "time_elapsed": 1382764, "internal_node_id": "0.0-160.0-9.0"}}, {"uniqueid": "MTK0613:3AQF3RZ559PQRJMHE5Y683H0JPK6F4", "current_trial": 224, "dateTime": 1511573699906, "trialdata": {"rt": -1, "stimulus": "<p id=\"stim\">+</p>", "key_press": -1, "type": "FIXATION", "trial_type": "single-stim", "trial_index": 224, "time_elapsed": 1384264, "internal_node_id": "0.0-161.0-0.0"}}, {"uniqueid": "MTK0613:3AQF3RZ559PQRJMHE5Y683H0JPK6F4", "current_trial": 225, "dateTime": 1511573702318, "trialdata": {"rt": -1000, "stimulus": "/static/audio/wordpool/SCALLOP.wav", "key_press": -1, "type": "PRES_AUD", "word": "scallop", "wordID": 1241, "conditions": [24, 1600, "a", 24000], "trial": 6, "serialpos": 0, "trial_type": "single-audio", "trial_index": 225, "time_elapsed": 1386676, "internal_node_id": "0.0-162.0"}}, {"uniqueid": "MTK0613:3AQF3RZ559PQRJMHE5Y683H0JPK6F4", "current_trial": 226, "dateTime": 1511573704801, "trialdata": {"rt": -1000, "stimulus": "/static/audio/wordpool/BALLOON.wav", "key_press": -1, "type": "PRES_AUD", "word": "balloon", "wordID": 74, "conditions": [24, 1600, "a", 24000], "trial": 6, "serialpos": 1, "trial_type": "single-audio", "trial_index": 226, "time_elapsed": 1389159, "internal_node_id": "0.0-163.0"}}, {"uniqueid": "MTK0613:3AQF3RZ559PQRJMHE5Y683H0JPK6F4", "current_trial": 227, "dateTime": 1511573707526, "trialdata": {"rt": -1000, "stimulus": "/static/audio/wordpool/PIZZA.wav", "key_press": -1, "type": "PRES_AUD", "word": "pizza", "wordID": 1078, "conditions": [24, 1600, "a", 24000], "trial": 6, "serialpos": 2, "trial_type": "single-audio", "trial_index": 227, "time_elapsed": 1391884, "internal_node_id": "0.0-164.0"}}, {"uniqueid": "MTK0613:3AQF3RZ559PQRJMHE5Y683H0JPK6F4", "current_trial": 228, "dateTime": 1511573710163, "trialdata": {"rt": -1000, "stimulus": "/static/audio/wordpool/ROD.wav", "key_press": -1, "type": "PRES_AUD", "word": "rod", "wordID": 1202, "conditions": [24, 1600, "a", 24000], "trial": 6, "serialpos": 3, "trial_type": "single-audio", "trial_index": 228, "time_elapsed": 1394521, "internal_node_id": "0.0-165.0"}}, {"uniqueid": "MTK0613:3AQF3RZ559PQRJMHE5Y683H0JPK6F4", "current_trial": 229, "dateTime": 1511573712965, "trialdata": {"rt": -1000, "stimulus": "/static/audio/wordpool/ROBIN.wav", "key_press": -1, "type": "PRES_AUD", "word": "robin", "wordID": 1198, "conditions": [24, 1600, "a", 24000], "trial": 6, "serialpos": 4, "trial_type": "single-audio", "trial_index": 229, "time_elapsed": 1397323, "internal_node_id": "0.0-166.0"}}, {"uniqueid": "MTK0613:3AQF3RZ559PQRJMHE5Y683H0JPK6F4", "current_trial": 230, "dateTime": 1511573715365, "trialdata": {"rt": -1000, "stimulus": "/static/audio/wordpool/WASP.wav", "key_press": -1, "type": "PRES_AUD", "word": "wasp", "wordID": 1592, "conditions": [24, 1600, "a", 24000], "trial": 6, "serialpos": 5, "trial_type": "single-audio", "trial_index": 230, "time_elapsed": 1399723, "internal_node_id": "0.0-167.0"}}, {"uniqueid": "MTK0613:3AQF3RZ559PQRJMHE5Y683H0JPK6F4", "current_trial": 231, "dateTime": 1511573717945, "trialdata": {"rt": -1000, "stimulus": "/static/audio/wordpool/CLAM.wav", "key_press": -1, "type": "PRES_AUD", "word": "clam", "wordID": 314, "conditions": [24, 1600, "a", 24000], "trial": 6, "serialpos": 6, "trial_type": "single-audio", "trial_index": 231, "time_elapsed": 1402303, "internal_node_id": "0.0-168.0"}}, {"uniqueid": "MTK0613:3AQF3RZ559PQRJMHE5Y683H0JPK6F4", "current_trial": 232, "dateTime": 1511573720560, "trialdata": {"rt": -1000, "stimulus": "/static/audio/wordpool/COMET.wav", "key_press": -1, "type": "PRES_AUD", "word": "comet", "wordID": 352, "conditions": [24, 1600, "a", 24000], "trial": 6, "serialpos": 7, "trial_type": "single-audio", "trial_index": 232, "time_elapsed": 1404918, "internal_node_id": "0.0-169.0"}}, {"uniqueid": "MTK0613:3AQF3RZ559PQRJMHE5Y683H0JPK6F4", "current_trial": 233, "dateTime": 1511573723232, "trialdata": {"rt": -1000, "stimulus": "/static/audio/wordpool/CAFE.wav", "key_press": -1, "type": "PRES_AUD", "word": "cafe", "wordID": 215, "conditions": [24, 1600, "a", 24000], "trial": 6, "serialpos": 8, "trial_type": "single-audio", "trial_index": 233, "time_elapsed": 1407590, "internal_node_id": "0.0-170.0"}}, {"uniqueid": "MTK0613:3AQF3RZ559PQRJMHE5Y683H0JPK6F4", "current_trial": 234, "dateTime": 1511573725917, "trialdata": {"rt": -1000, "stimulus": "/static/audio/wordpool/BRIEFCASE.wav", "key_press": -1, "type": "PRES_AUD", "word": "briefcase", "wordID": 174, "conditions": [24, 1600, "a", 24000], "trial": 6, "serialpos": 9, "trial_type": "single-audio", "trial_index": 234, "time_elapsed": 1410275, "internal_node_id": "0.0-171.0"}}, {"uniqueid": "MTK0613:3AQF3RZ559PQRJMHE5Y683H0JPK6F4", "current_trial": 235, "dateTime": 1511573728602, "trialdata": {"rt": -1000, "stimulus": "/static/audio/wordpool/SKILLET.wav", "key_press": -1, "type": "PRES_AUD", "word": "skillet", "wordID": 1316, "conditions": [24, 1600, "a", 24000], "trial": 6, "serialpos": 10, "trial_type": "single-audio", "trial_index": 235, "time_elapsed": 1412960, "internal_node_id": "0.0-172.0"}}, {"uniqueid": "MTK0613:3AQF3RZ559PQRJMHE5Y683H0JPK6F4", "current_trial": 236, "dateTime": 1511573731048, "trialdata": {"rt": -1000, "stimulus": "/static/audio/wordpool/JUDGE.wav", "key_press": -1, "type": "PRES_AUD", "word": "judge", "wordID": 760, "conditions": [24, 1600, "a", 24000], "trial": 6, "serialpos": 11, "trial_type": "single-audio", "trial_index": 236, "time_elapsed": 1415406, "internal_node_id": "0.0-173.0"}}, {"uniqueid": "MTK0613:3AQF3RZ559PQRJMHE5Y683H0JPK6F4", "current_trial": 237, "dateTime": 1511573733457, "trialdata": {"rt": -1000, "stimulus": "/static/audio/wordpool/BATHTUB.wav", "key_press": -1, "type": "PRES_AUD", "word": "bathtub", "wordID": 99, "conditions": [24, 1600, "a", 24000], "trial": 6, "serialpos": 12, "trial_type": "single-audio", "trial_index": 237, "time_elapsed": 1417815, "internal_node_id": "0.0-174.0"}}, {"uniqueid": "MTK0613:3AQF3RZ559PQRJMHE5Y683H0JPK6F4", "current_trial": 238, "dateTime": 1511573735918, "trialdata": {"rt": -1000, "stimulus": "/static/audio/wordpool/EYELASH.wav", "key_press": -1, "type": "PRES_AUD", "word": "eyelash", "wordID": 545, "conditions": [24, 1600, "a", 24000], "trial": 6, "serialpos": 13, "trial_type": "single-audio", "trial_index": 238, "time_elapsed": 1420276, "internal_node_id": "0.0-175.0"}}, {"uniqueid": "MTK0613:3AQF3RZ559PQRJMHE5Y683H0JPK6F4", "current_trial": 239, "dateTime": 1511573738508, "trialdata": {"rt": -1000, "stimulus": "/static/audio/wordpool/BANKER.wav", "key_press": -1, "type": "PRES_AUD", "word": "banker", "wordID": 83, "conditions": [24, 1600, "a", 24000], "trial": 6, "serialpos": 14, "trial_type": "single-audio", "trial_index": 239, "time_elapsed": 1422866, "internal_node_id": "0.0-176.0"}}, {"uniqueid": "MTK0613:3AQF3RZ559PQRJMHE5Y683H0JPK6F4", "current_trial": 240, "dateTime": 1511573741281, "trialdata": {"rt": -1000, "stimulus": "/static/audio/wordpool/TURKEY.wav", "key_press": -1, "type": "PRES_AUD", "word": "turkey", "wordID": 1519, "conditions": [24, 1600, "a", 24000], "trial": 6, "serialpos": 15, "trial_type": "single-audio", "trial_index": 240, "time_elapsed": 1425639, "internal_node_id": "0.0-177.0"}}, {"uniqueid": "MTK0613:3AQF3RZ559PQRJMHE5Y683H0JPK6F4", "current_trial": 241, "dateTime": 1511573743966, "trialdata": {"rt": -1000, "stimulus": "/static/audio/wordpool/BISON.wav", "key_press": -1, "type": "PRES_AUD", "word": "bison", "wordID": 130, "conditions": [24, 1600, "a", 24000], "trial": 6, "serialpos": 16, "trial_type": "single-audio", "trial_index": 241, "time_elapsed": 1428324, "internal_node_id": "0.0-178.0"}}, {"uniqueid": "MTK0613:3AQF3RZ559PQRJMHE5Y683H0JPK6F4", "current_trial": 242, "dateTime": 1511573746762, "trialdata": {"rt": -1000, "stimulus": "/static/audio/wordpool/CATTLE.wav", "key_press": -1, "type": "PRES_AUD", "word": "cattle", "wordID": 260, "conditions": [24, 1600, "a", 24000], "trial": 6, "serialpos": 17, "trial_type": "single-audio", "trial_index": 242, "time_elapsed": 1431120, "internal_node_id": "0.0-179.0"}}, {"uniqueid": "MTK0613:3AQF3RZ559PQRJMHE5Y683H0JPK6F4", "current_trial": 243, "dateTime": 1511573749552, "trialdata": {"rt": -1000, "stimulus": "/static/audio/wordpool/PIMPLE.wav", "key_press": -1, "type": "PRES_AUD", "word": "pimple", "wordID": 1070, "conditions": [24, 1600, "a", 24000], "trial": 6, "serialpos": 18, "trial_type": "single-audio", "trial_index": 243, "time_elapsed": 1433910, "internal_node_id": "0.0-180.0"}}, {"uniqueid": "MTK0613:3AQF3RZ559PQRJMHE5Y683H0JPK6F4", "current_trial": 244, "dateTime": 1511573752102, "trialdata": {"rt": -1000, "stimulus": "/static/audio/wordpool/OUTDOORS.wav", "key_press": -1, "type": "PRES_AUD", "word": "outdoors", "wordID": 986, "conditions": [24, 1600, "a", 24000], "trial": 6, "serialpos": 19, "trial_type": "single-audio", "trial_index": 244, "time_elapsed": 1436460, "internal_node_id": "0.0-181.0"}}, {"uniqueid": "MTK0613:3AQF3RZ559PQRJMHE5Y683H0JPK6F4", "current_trial": 245, "dateTime": 1511573754624, "trialdata": {"rt": -1000, "stimulus": "/static/audio/wordpool/MARKET.wav", "key_press": -1, "type": "PRES_AUD", "word": "market", "wordID": 870, "conditions": [24, 1600, "a", 24000], "trial": 6, "serialpos": 20, "trial_type": "single-audio", "trial_index": 245, "time_elapsed": 1438982, "internal_node_id": "0.0-182.0"}}, {"uniqueid": "MTK0613:3AQF3RZ559PQRJMHE5Y683H0JPK6F4", "current_trial": 246, "dateTime": 1511573757246, "trialdata": {"rt": -1000, "stimulus": "/static/audio/wordpool/CANAL.wav", "key_press": -1, "type": "PRES_AUD", "word": "canal", "wordID": 225, "conditions": [24, 1600, "a", 24000], "trial": 6, "serialpos": 21, "trial_type": "single-audio", "trial_index": 246, "time_elapsed": 1441604, "internal_node_id": "0.0-183.0"}}, {"uniqueid": "MTK0613:3AQF3RZ559PQRJMHE5Y683H0JPK6F4", "current_trial": 247, "dateTime": 1511573759766, "trialdata": {"rt": -1000, "stimulus": "/static/audio/wordpool/POLICE.wav", "key_press": -1, "type": "PRES_AUD", "word": "police", "wordID": 1097, "conditions": [24, 1600, "a", 24000], "trial": 6, "serialpos": 22, "trial_type": "single-audio", "trial_index": 247, "time_elapsed": 1444124, "internal_node_id": "0.0-184.0"}}, {"uniqueid": "MTK0613:3AQF3RZ559PQRJMHE5Y683H0JPK6F4", "current_trial": 248, "dateTime": 1511573762355, "trialdata": {"rt": -1000, "stimulus": "/static/audio/wordpool/FRECKLE.wav", "key_press": -1, "type": "PRES_AUD", "word": "freckle", "wordID": 601, "conditions": [24, 1600, "a", 24000], "trial": 6, "serialpos": 23, "trial_type": "single-audio", "trial_index": 248, "time_elapsed": 1446713, "internal_node_id": "0.0-185.0"}}, {"uniqueid": "MTK0613:3AQF3RZ559PQRJMHE5Y683H0JPK6F4", "current_trial": 249, "dateTime": 1511573763603, "trialdata": {"rt": -1, "stimulus": "", "key_press": -1, "type": "PRE_RECALL_DELAY", "trial_type": "single-stim", "trial_index": 249, "time_elapsed": 1447961, "internal_node_id": "0.0-186.0-0.0"}}, {"uniqueid": "MTK0613:3AQF3RZ559PQRJMHE5Y683H0JPK6F4", "current_trial": 250, "dateTime": 1511573764107, "trialdata": {"rt": -1000, "stimulus": "/static/audio/400Hz.wav", "key_press": -1, "type": "PRE_RECALL_ALERT", "trial_type": "single-audio", "trial_index": 250, "time_elapsed": 1448465, "internal_node_id": "0.0-187.0"}}, {"uniqueid": "MTK0613:3AQF3RZ559PQRJMHE5Y683H0JPK6F4", "current_trial": 251, "dateTime": 1511573824111, "trialdata": {"rt": [5424, 8979, 13816, 15936, 18912, 23272, 27303, 34497, 39473, 42064, 47056, 49897, 52545, 53585, 56064, 59280], "recwords": ["feckle", "policje", "canow", "market", "pimple", "banker", "eyelash", "robin", "briefcase", "skill", "judge", "wasp", "robin", "rod", "pizza", "bathtub"], "type": "FREE_RECALL", "conditions": [24, 1600, "a", 24000], "trial": 6, "trial_type": "free-recall", "trial_index": 251, "time_elapsed": 1508465, "internal_node_id": "0.0-188.0-0.0"}}, {"uniqueid": "MTK0613:3AQF3RZ559PQRJMHE5Y683H0JPK6F4", "current_trial": 252, "dateTime": 1511573828540, "trialdata": {"rt": 2428, "key_press": 32, "type": "INSTRUCTIONS", "trial_type": "text", "trial_index": 252, "time_elapsed": 1512897, "internal_node_id": "0.0-189.0"}}, {"uniqueid": "MTK0613:3AQF3RZ559PQRJMHE5Y683H0JPK6F4", "current_trial": 253, "dateTime": 1511573854541, "trialdata": {"rt": [2007, 4119, 6143, 8166, 10022, 11598, 14206, 16327, 18215, 20279, 22279, 23895], "responses": ["20", "17", "8", "15", "15", "14", "12", "14", "17", "14", "9", "16"], "num1": [9, 6, 2, 2, 4, 6, 7, 4, 9, 6, 2, 2, 6], "num2": [3, 5, 1, 9, 8, 4, 2, 1, 4, 7, 1, 7, 6], "num3": [8, 6, 5, 4, 3, 4, 3, 9, 4, 1, 6, 7, 9], "type": "DISTRACTOR", "conditions": [24, 800, "v", 24000], "trial": 7, "trial_type": "math-distractor", "trial_index": 253, "time_elapsed": 1538899, "internal_node_id": "0.0-190.0"}}, {"uniqueid": "MTK0613:3AQF3RZ559PQRJMHE5Y683H0JPK6F4", "current_trial": 254, "dateTime": 1511573857541, "trialdata": {"rt": -1, "stimulus": "<p id=\"stim\">10</p>", "key_press": -1, "trial_type": "single-stim", "trial_index": 254, "time_elapsed": 1541899, "internal_node_id": "0.0-191.0-0.0"}}, {"uniqueid": "MTK0613:3AQF3RZ559PQRJMHE5Y683H0JPK6F4", "current_trial": 255, "dateTime": 1511573858542, "trialdata": {"rt": -1, "stimulus": "<p id=\"stim\">9</p>", "key_press": -1, "trial_type": "single-stim", "trial_index": 255, "time_elapsed": 1542900, "internal_node_id": "0.0-191.0-1.0"}}, {"uniqueid": "MTK0613:3AQF3RZ559PQRJMHE5Y683H0JPK6F4", "current_trial": 256, "dateTime": 1511573859542, "trialdata": {"rt": -1, "stimulus": "<p id=\"stim\">8</p>", "key_press": -1, "trial_type": "single-stim", "trial_index": 256, "time_elapsed": 1543900, "internal_node_id": "0.0-191.0-2.0"}}, {"uniqueid": "MTK0613:3AQF3RZ559PQRJMHE5Y683H0JPK6F4", "current_trial": 257, "dateTime": 1511573860542, "trialdata": {"rt": -1, "stimulus": "<p id=\"stim\">7</p>", "key_press": -1, "trial_type": "single-stim", "trial_index": 257, "time_elapsed": 1544900, "internal_node_id": "0.0-191.0-3.0"}}, {"uniqueid": "MTK0613:3AQF3RZ559PQRJMHE5Y683H0JPK6F4", "current_trial": 258, "dateTime": 1511573861542, "trialdata": {"rt": -1, "stimulus": "<p id=\"stim\">6</p>", "key_press": -1, "trial_type": "single-stim", "trial_index": 258, "time_elapsed": 1545900, "internal_node_id": "0.0-191.0-4.0"}}, {"uniqueid": "MTK0613:3AQF3RZ559PQRJMHE5Y683H0JPK6F4", "current_trial": 259, "dateTime": 1511573862542, "trialdata": {"rt": -1, "stimulus": "<p id=\"stim\">5</p>", "key_press": -1, "trial_type": "single-stim", "trial_index": 259, "time_elapsed": 1546900, "internal_node_id": "0.0-191.0-5.0"}}, {"uniqueid": "MTK0613:3AQF3RZ559PQRJMHE5Y683H0JPK6F4", "current_trial": 260, "dateTime": 1511573863542, "trialdata": {"rt": -1, "stimulus": "<p id=\"stim\">4</p>", "key_press": -1, "trial_type": "single-stim", "trial_index": 260, "time_elapsed": 1547900, "internal_node_id": "0.0-191.0-6.0"}}, {"uniqueid": "MTK0613:3AQF3RZ559PQRJMHE5Y683H0JPK6F4", "current_trial": 261, "dateTime": 1511573864542, "trialdata": {"rt": -1, "stimulus": "<p id=\"stim\">3</p>", "key_press": -1, "trial_type": "single-stim", "trial_index": 261, "time_elapsed": 1548900, "internal_node_id": "0.0-191.0-7.0"}}, {"uniqueid": "MTK0613:3AQF3RZ559PQRJMHE5Y683H0JPK6F4", "current_trial": 262, "dateTime": 1511573865542, "trialdata": {"rt": -1, "stimulus": "<p id=\"stim\">2</p>", "key_press": -1, "trial_type": "single-stim", "trial_index": 262, "time_elapsed": 1549900, "internal_node_id": "0.0-191.0-8.0"}}, {"uniqueid": "MTK0613:3AQF3RZ559PQRJMHE5Y683H0JPK6F4", "current_trial": 263, "dateTime": 1511573866542, "trialdata": {"rt": -1, "stimulus": "<p id=\"stim\">1</p>", "key_press": -1, "trial_type": "single-stim", "trial_index": 263, "time_elapsed": 1550900, "internal_node_id": "0.0-191.0-9.0"}}, {"uniqueid": "MTK0613:3AQF3RZ559PQRJMHE5Y683H0JPK6F4", "current_trial": 264, "dateTime": 1511573868042, "trialdata": {"rt": -1, "stimulus": "<p id=\"stim\">+</p>", "key_press": -1, "type": "FIXATION", "trial_type": "single-stim", "trial_index": 264, "time_elapsed": 1552400, "internal_node_id": "0.0-192.0-0.0"}}, {"uniqueid": "MTK0613:3AQF3RZ559PQRJMHE5Y683H0JPK6F4", "current_trial": 265, "dateTime": 1511573868842, "trialdata": {"rt": -1, "stimulus": "<p id=\"stim\">PATIENT</p>", "key_press": -1, "type": "PRES_VIS", "word": "patient", "wordID": 1023, "conditions": [24, 800, "v", 24000], "trial": 7, "serialpos": 0, "trial_type": "single-stim", "trial_index": 265, "time_elapsed": 1553200, "internal_node_id": "0.0-193.0"}}, {"uniqueid": "MTK0613:3AQF3RZ559PQRJMHE5Y683H0JPK6F4", "current_trial": 266, "dateTime": 1511573870705, "trialdata": {"rt": -1, "stimulus": "<p id=\"stim\">SISTER</p>", "key_press": -1, "type": "PRES_VIS", "word": "sister", "wordID": 1311, "conditions": [24, 800, "v", 24000], "trial": 7, "serialpos": 1, "trial_type": "single-stim", "trial_index": 266, "time_elapsed": 1555063, "internal_node_id": "0.0-194.0"}}, {"uniqueid": "MTK0613:3AQF3RZ559PQRJMHE5Y683H0JPK6F4", "current_trial": 267, "dateTime": 1511573872609, "trialdata": {"rt": -1, "stimulus": "<p id=\"stim\">COUSIN</p>", "key_press": -1, "type": "PRES_VIS", "word": "cousin", "wordID": 391, "conditions": [24, 800, "v", 24000], "trial": 7, "serialpos": 2, "trial_type": "single-stim", "trial_index": 267, "time_elapsed": 1556967, "internal_node_id": "0.0-195.0"}}, {"uniqueid": "MTK0613:3AQF3RZ559PQRJMHE5Y683H0JPK6F4", "current_trial": 268, "dateTime": 1511573874290, "trialdata": {"rt": -1, "stimulus": "<p id=\"stim\">SCRIBBLE</p>", "key_press": -1, "type": "PRES_VIS", "word": "scribble", "wordID": 1255, "conditions": [24, 800, "v", 24000], "trial": 7, "serialpos": 3, "trial_type": "single-stim", "trial_index": 268, "time_elapsed": 1558648, "internal_node_id": "0.0-196.0"}}, {"uniqueid": "MTK0613:3AQF3RZ559PQRJMHE5Y683H0JPK6F4", "current_trial": 269, "dateTime": 1511573875929, "trialdata": {"rt": -1, "stimulus": "<p id=\"stim\">TRACTOR</p>", "key_press": -1, "type": "PRES_VIS", "word": "tractor", "wordID": 1492, "conditions": [24, 800, "v", 24000], "trial": 7, "serialpos": 4, "trial_type": "single-stim", "trial_index": 269, "time_elapsed": 1560287, "internal_node_id": "0.0-197.0"}}, {"uniqueid": "MTK0613:3AQF3RZ559PQRJM