{"condition": 0, "counterbalance": 759, "assignmentId": "320DUZ38G8T8TEXJ98YDZSMH4SUJGA", "workerId": "MTK0146", "hitId": "3FSEU3P2NR7ET8RG7MWWB3QV3XIRRV", "currenttrial": 625, "bonus": 0, "data": [{"uniqueid": "MTK0146:320DUZ38G8T8TEXJ98YDZSMH4SUJGA", "current_trial": 0, "dateTime": 1509289919465, "trialdata": {"rt": 3300, "key_press": 75, "type": "INSTRUCTIONS", "trial_type": "text", "trial_index": 0, "time_elapsed": 3302, "internal_node_id": "0.0-0.0"}}, {"uniqueid": "MTK0146:320DUZ38G8T8TEXJ98YDZSMH4SUJGA", "current_trial": 1, "dateTime": 1509289943639, "trialdata": {"rt": 24173, "key_press": 75, "type": "INSTRUCTIONS", "trial_type": "text", "trial_index": 1, "time_elapsed": 27477, "internal_node_id": "0.0-1.0"}}, {"uniqueid": "MTK0146:320DUZ38G8T8TEXJ98YDZSMH4SUJGA", "current_trial": 2, "dateTime": 1509290036144, "trialdata": {"rt": [92424], "responses": ["ocean"], "type": "AUDIO_TEST", "trial_type": "audio-test", "trial_index": 2, "time_elapsed": 119982, "internal_node_id": "0.0-2.0"}}, {"uniqueid": "MTK0146:320DUZ38G8T8TEXJ98YDZSMH4SUJGA", "current_trial": 3, "dateTime": 1509290054433, "trialdata": {"rt": [18286], "responses": ["crystal"], "type": "AUDIO_TEST", "trial_type": "audio-test", "trial_index": 3, "time_elapsed": 138271, "internal_node_id": "0.0-3.0"}}, {"uniqueid": "MTK0146:320DUZ38G8T8TEXJ98YDZSMH4SUJGA", "current_trial": 4, "dateTime": 1509290064008, "trialdata": {"rt": [9571], "responses": ["spice"], "type": "AUDIO_TEST", "trial_type": "audio-test", "trial_index": 4, "time_elapsed": 147846, "internal_node_id": "0.0-4.0"}}, {"uniqueid": "MTK0146:320DUZ38G8T8TEXJ98YDZSMH4SUJGA", "current_trial": 5, "dateTime": 1509290071751, "trialdata": {"rt": 6992, "key_press": 75, "type": "INSTRUCTIONS", "trial_type": "text", "trial_index": 5, "time_elapsed": 155589, "internal_node_id": "0.0-5.0"}}, {"uniqueid": "MTK0146:320DUZ38G8T8TEXJ98YDZSMH4SUJGA", "current_trial": 6, "dateTime": 1509290124271, "trialdata": {"rt": 52519, "key_press": 13, "type": "INSTRUCTIONS", "trial_type": "text", "trial_index": 6, "time_elapsed": 208109, "internal_node_id": "0.0-6.0"}}, {"uniqueid": "MTK0146:320DUZ38G8T8TEXJ98YDZSMH4SUJGA", "current_trial": 7, "dateTime": 1509290169263, "trialdata": {"rt": 44991, "key_press": 76, "type": "INSTRUCTIONS", "trial_type": "text", "trial_index": 7, "time_elapsed": 253101, "internal_node_id": "0.0-7.0"}}, {"uniqueid": "MTK0146:320DUZ38G8T8TEXJ98YDZSMH4SUJGA", "current_trial": 8, "dateTime": 1509290186935, "trialdata": {"rt": 17671, "key_press": 75, "type": "INSTRUCTIONS", "trial_type": "text", "trial_index": 8, "time_elapsed": 270773, "internal_node_id": "0.0-8.0"}}, {"uniqueid": "MTK0146:320DUZ38G8T8TEXJ98YDZSMH4SUJGA", "current_trial": 9, "dateTime": 1509290205941, "trialdata": {"rt": [5341, 9190, 12277, 16373], "responses": ["15", "16", "18", "16"], "num1": [5, 8, 8, 7, 7], "num2": [9, 7, 1, 5, 3], "num3": [1, 1, 9, 4, 2], "type": "DISTRACTOR", "conditions": [18, 1200, "v", 18000], "trial": 0, "trial_type": "math-distractor", "trial_index": 9, "time_elapsed": 289779, "internal_node_id": "0.0-9.0"}}, {"uniqueid": "MTK0146:320DUZ38G8T8TEXJ98YDZSMH4SUJGA", "current_trial": 10, "dateTime": 1509290208943, "trialdata": {"rt": -1, "stimulus": "<p id=\"stim\">10</p>", "key_press": -1, "trial_type": "single-stim", "trial_index": 10, "time_elapsed": 292781, "internal_node_id": "0.0-10.0-0.0"}}, {"uniqueid": "MTK0146:320DUZ38G8T8TEXJ98YDZSMH4SUJGA", "current_trial": 11, "dateTime": 1509290209945, "trialdata": {"rt": -1, "stimulus": "<p id=\"stim\">9</p>", "key_press": -1, "trial_type": "single-stim", "trial_index": 11, "time_elapsed": 293783, "internal_node_id": "0.0-10.0-1.0"}}, {"uniqueid": "MTK0146:320DUZ38G8T8TEXJ98YDZSMH4SUJGA", "current_trial": 12, "dateTime": 1509290210946, "trialdata": {"rt": -1, "stimulus": "<p id=\"stim\">8</p>", "key_press": -1, "trial_type": "single-stim", "trial_index": 12, "time_elapsed": 294784, "internal_node_id": "0.0-10.0-2.0"}}, {"uniqueid": "MTK0146:320DUZ38G8T8TEXJ98YDZSMH4SUJGA", "current_trial": 13, "dateTime": 1509290211947, "trialdata": {"rt": -1, "stimulus": "<p id=\"stim\">7</p>", "key_press": -1, "trial_type": "single-stim", "trial_index": 13, "time_elapsed": 295785, "internal_node_id": "0.0-10.0-3.0"}}, {"uniqueid": "MTK0146:320DUZ38G8T8TEXJ98YDZSMH4SUJGA", "current_trial": 14, "dateTime": 1509290212947, "trialdata": {"rt": -1, "stimulus": "<p id=\"stim\">6</p>", "key_press": -1, "trial_type": "single-stim", "trial_index": 14, "time_elapsed": 296785, "internal_node_id": "0.0-10.0-4.0"}}, {"uniqueid": "MTK0146:320DUZ38G8T8TEXJ98YDZSMH4SUJGA", "current_trial": 15, "dateTime": 1509290213956, "trialdata": {"rt": -1, "stimulus": "<p id=\"stim\">5</p>", "key_press": -1, "trial_type": "single-stim", "trial_index": 15, "time_elapsed": 297794, "internal_node_id": "0.0-10.0-5.0"}}, {"uniqueid": "MTK0146:320DUZ38G8T8TEXJ98YDZSMH4SUJGA", "current_trial": 16, "dateTime": 1509290214957, "trialdata": {"rt": -1, "stimulus": "<p id=\"stim\">4</p>", "key_press": -1, "trial_type": "single-stim", "trial_index": 16, "time_elapsed": 298795, "internal_node_id": "0.0-10.0-6.0"}}, {"uniqueid": "MTK0146:320DUZ38G8T8TEXJ98YDZSMH4SUJGA", "current_trial": 17, "dateTime": 1509290215957, "trialdata": {"rt": -1, "stimulus": "<p id=\"stim\">3</p>", "key_press": -1, "trial_type": "single-stim", "trial_index": 17, "time_elapsed": 299795, "internal_node_id": "0.0-10.0-7.0"}}, {"uniqueid": "MTK0146:320DUZ38G8T8TEXJ98YDZSMH4SUJGA", "current_trial": 18, "dateTime": 1509290216959, "trialdata": {"rt": -1, "stimulus": "<p id=\"stim\">2</p>", "key_press": -1, "trial_type": "single-stim", "trial_index": 18, "time_elapsed": 300797, "internal_node_id": "0.0-10.0-8.0"}}, {"uniqueid": "MTK0146:320DUZ38G8T8TEXJ98YDZSMH4SUJGA", "current_trial": 19, "dateTime": 1509290217959, "trialdata": {"rt": -1, "stimulus": "<p id=\"stim\">1</p>", "key_press": -1, "trial_type": "single-stim", "trial_index": 19, "time_elapsed": 301797, "internal_node_id": "0.0-10.0-9.0"}}, {"uniqueid": "MTK0146:320DUZ38G8T8TEXJ98YDZSMH4SUJGA", "current_trial": 20, "dateTime": 1509290219462, "trialdata": {"rt": -1, "stimulus": "<p id=\"stim\">+</p>", "key_press": -1, "type": "FIXATION", "trial_type": "single-stim", "trial_index": 20, "time_elapsed": 303300, "internal_node_id": "0.0-11.0-0.0"}}, {"uniqueid": "MTK0146:320DUZ38G8T8TEXJ98YDZSMH4SUJGA", "current_trial": 21, "dateTime": 1509290220663, "trialdata": {"rt": -1, "stimulus": "<p id=\"stim\">COUNTY</p>", "key_press": -1, "type": "PRES_VIS", "word": "county", "wordID": 388, "conditions": [18, 1200, "v", 18000], "trial": 0, "serialpos": 0, "trial_type": "single-stim", "trial_index": 21, "time_elapsed": 304501, "internal_node_id": "0.0-12.0"}}, {"uniqueid": "MTK0146:320DUZ38G8T8TEXJ98YDZSMH4SUJGA", "current_trial": 22, "dateTime": 1509290222707, "trialdata": {"rt": -1, "stimulus": "<p id=\"stim\">HAWK</p>", "key_press": -1, "type": "PRES_VIS", "word": "hawk", "wordID": 691, "conditions": [18, 1200, "v", 18000], "trial": 0, "serialpos": 1, "trial_type": "single-stim", "trial_index": 22, "time_elapsed": 306545, "internal_node_id": "0.0-13.0"}}, {"uniqueid": "MTK0146:320DUZ38G8T8TEXJ98YDZSMH4SUJGA", "current_trial": 23, "dateTime": 1509290224855, "trialdata": {"rt": -1, "stimulus": "<p id=\"stim\">PIZZA</p>", "key_press": -1, "type": "PRES_VIS", "word": "pizza", "wordID": 1078, "conditions": [18, 1200, "v", 18000], "trial": 0, "serialpos": 2, "trial_type": "single-stim", "trial_index": 23, "time_elapsed": 308693, "internal_node_id": "0.0-14.0"}}, {"uniqueid": "MTK0146:320DUZ38G8T8TEXJ98YDZSMH4SUJGA", "current_trial": 24, "dateTime": 1509290226918, "trialdata": {"rt": -1, "stimulus": "<p id=\"stim\">HEADBAND</p>", "key_press": -1, "type": "PRES_VIS", "word": "headband", "wordID": 695, "conditions": [18, 1200, "v", 18000], "trial": 0, "serialpos": 3, "trial_type": "single-stim", "trial_index": 24, "time_elapsed": 310755, "internal_node_id": "0.0-15.0"}}, {"uniqueid": "MTK0146:320DUZ38G8T8TEXJ98YDZSMH4SUJGA", "current_trial": 25, "dateTime": 1509290229132, "trialdata": {"rt": -1, "stimulus": "<p id=\"stim\">SKETCH</p>", "key_press": -1, "type": "PRES_VIS", "word": "sketch", "wordID": 1314, "conditions": [18, 1200, "v", 18000], "trial": 0, "serialpos": 4, "trial_type": "single-stim", "trial_index": 25, "time_elapsed": 312970, "internal_node_id": "0.0-16.0"}}, {"uniqueid": "MTK0146:320DUZ38G8T8TEXJ98YDZSMH4SUJGA", "current_trial": 26, "dateTime": 1509290231472, "trialdata": {"rt": -1, "stimulus": "<p id=\"stim\">PLAID</p>", "key_press": -1, "type": "PRES_VIS", "word": "plaid", "wordID": 1079, "conditions": [18, 1200, "v", 18000], "trial": 0, "serialpos": 5, "trial_type": "single-stim", "trial_index": 26, "time_elapsed": 315310, "internal_node_id": "0.0-17.0"}}, {"uniqueid": "MTK0146:320DUZ38G8T8TEXJ98YDZSMH4SUJGA", "current_trial": 27, "dateTime": 1509290233535, "trialdata": {"rt": -1, "stimulus": "<p id=\"stim\">MARROW</p>", "key_press": -1, "type": "PRES_VIS", "word": "marrow", "wordID": 871, "conditions": [18, 1200, "v", 18000], "trial": 0, "serialpos": 6, "trial_type": "single-stim", "trial_index": 27, "time_elapsed": 317373, "internal_node_id": "0.0-18.0"}}, {"uniqueid": "MTK0146:320DUZ38G8T8TEXJ98YDZSMH4SUJGA", "current_trial": 28, "dateTime": 1509290235887, "trialdata": {"rt": -1, "stimulus": "<p id=\"stim\">APPLE</p>", "key_press": -1, "type": "PRES_VIS", "word": "apple", "wordID": 32, "conditions": [18, 1200, "v", 18000], "trial": 0, "serialpos": 7, "trial_type": "single-stim", "trial_index": 28, "time_elapsed": 319725, "internal_node_id": "0.0-19.0"}}, {"uniqueid": "MTK0146:320DUZ38G8T8TEXJ98YDZSMH4SUJGA", "current_trial": 29, "dateTime": 1509290237903, "trialdata": {"rt": -1, "stimulus": "<p id=\"stim\">BANKER</p>", "key_press": -1, "type": "PRES_VIS", "word": "banker", "wordID": 83, "conditions": [18, 1200, "v", 18000], "trial": 0, "serialpos": 8, "trial_type": "single-stim", "trial_index": 29, "time_elapsed": 321741, "internal_node_id": "0.0-20.0"}}, {"uniqueid": "MTK0146:320DUZ38G8T8TEXJ98YDZSMH4SUJGA", "current_trial": 30, "dateTime": 1509290240109, "trialdata": {"rt": -1, "stimulus": "<p id=\"stim\">COMET</p>", "key_press": -1, "type": "PRES_VIS", "word": "comet", "wordID": 352, "conditions": [18, 1200, "v", 18000], "trial": 0, "serialpos": 9, "trial_type": "single-stim", "trial_index": 30, "time_elapsed": 323947, "internal_node_id": "0.0-21.0"}}, {"uniqueid": "MTK0146:320DUZ38G8T8TEXJ98YDZSMH4SUJGA", "current_trial": 31, "dateTime": 1509290242140, "trialdata": {"rt": -1, "stimulus": "<p id=\"stim\">SPONGE</p>", "key_press": -1, "type": "PRES_VIS", "word": "sponge", "wordID": 1354, "conditions": [18, 1200, "v", 18000], "trial": 0, "serialpos": 10, "trial_type": "single-stim", "trial_index": 31, "time_elapsed": 325978, "internal_node_id": "0.0-22.0"}}, {"uniqueid": "MTK0146:320DUZ38G8T8TEXJ98YDZSMH4SUJGA", "current_trial": 32, "dateTime": 1509290244304, "trialdata": {"rt": -1, "stimulus": "<p id=\"stim\">MARKER</p>", "key_press": -1, "type": "PRES_VIS", "word": "marker", "wordID": 869, "conditions": [18, 1200, "v", 18000], "trial": 0, "serialpos": 11, "trial_type": "single-stim", "trial_index": 32, "time_elapsed": 328142, "internal_node_id": "0.0-23.0"}}, {"uniqueid": "MTK0146:320DUZ38G8T8TEXJ98YDZSMH4SUJGA", "current_trial": 33, "dateTime": 1509290246537, "trialdata": {"rt": -1, "stimulus": "<p id=\"stim\">CREVICE</p>", "key_press": -1, "type": "PRES_VIS", "word": "crevice", "wordID": 404, "conditions": [18, 1200, "v", 18000], "trial": 0, "serialpos": 12, "trial_type": "single-stim", "trial_index": 33, "time_elapsed": 330375, "internal_node_id": "0.0-24.0"}}, {"uniqueid": "MTK0146:320DUZ38G8T8TEXJ98YDZSMH4SUJGA", "current_trial": 34, "dateTime": 1509290248732, "trialdata": {"rt": -1, "stimulus": "<p id=\"stim\">TOURIST</p>", "key_press": -1, "type": "PRES_VIS", "word": "tourist", "wordID": 1487, "conditions": [18, 1200, "v", 18000], "trial": 0, "serialpos": 13, "trial_type": "single-stim", "trial_index": 34, "time_elapsed": 332570, "internal_node_id": "0.0-25.0"}}, {"uniqueid": "MTK0146:320DUZ38G8T8TEXJ98YDZSMH4SUJGA", "current_trial": 35, "dateTime": 1509290251053, "trialdata": {"rt": -1, "stimulus": "<p id=\"stim\">PRIMATE</p>", "key_press": -1, "type": "PRES_VIS", "word": "primate", "wordID": 1122, "conditions": [18, 1200, "v", 18000], "trial": 0, "serialpos": 14, "trial_type": "single-stim", "trial_index": 35, "time_elapsed": 334891, "internal_node_id": "0.0-26.0"}}, {"uniqueid": "MTK0146:320DUZ38G8T8TEXJ98YDZSMH4SUJGA", "current_trial": 36, "dateTime": 1509290253432, "trialdata": {"rt": -1, "stimulus": "<p id=\"stim\">SNACK</p>", "key_press": -1, "type": "PRES_VIS", "word": "snack", "wordID": 1330, "conditions": [18, 1200, "v", 18000], "trial": 0, "serialpos": 15, "trial_type": "single-stim", "trial_index": 36, "time_elapsed": 337270, "internal_node_id": "0.0-27.0"}}, {"uniqueid": "MTK0146:320DUZ38G8T8TEXJ98YDZSMH4SUJGA", "current_trial": 37, "dateTime": 1509290255564, "trialdata": {"rt": -1, "stimulus": "<p id=\"stim\">BULLET</p>", "key_press": -1, "type": "PRES_VIS", "word": "bullet", "wordID": 193, "conditions": [18, 1200, "v", 18000], "trial": 0, "serialpos": 16, "trial_type": "single-stim", "trial_index": 37, "time_elapsed": 339402, "internal_node_id": "0.0-28.0"}}, {"uniqueid": "MTK0146:320DUZ38G8T8TEXJ98YDZSMH4SUJGA", "current_trial": 38, "dateTime": 1509290257733, "trialdata": {"rt": -1, "stimulus": "<p id=\"stim\">INFANT</p>", "key_press": -1, "type": "PRES_VIS", "word": "infant", "wordID": 736, "conditions": [18, 1200, "v", 18000], "trial": 0, "serialpos": 17, "trial_type": "single-stim", "trial_index": 38, "time_elapsed": 341571, "internal_node_id": "0.0-29.0"}}, {"uniqueid": "MTK0146:320DUZ38G8T8TEXJ98YDZSMH4SUJGA", "current_trial": 39, "dateTime": 1509290259951, "trialdata": {"rt": -1, "stimulus": "", "key_press": -1, "type": "PRE_RECALL_DELAY", "trial_type": "single-stim", "trial_index": 39, "time_elapsed": 343789, "internal_node_id": "0.0-30.0-0.0"}}, {"uniqueid": "MTK0146:320DUZ38G8T8TEXJ98YDZSMH4SUJGA", "current_trial": 40, "dateTime": 1509290260478, "trialdata": {"rt": -1000, "stimulus": "/static/audio/400Hz.wav", "key_press": -1, "type": "PRE_RECALL_ALERT", "trial_type": "single-audio", "trial_index": 40, "time_elapsed": 344316, "internal_node_id": "0.0-31.0"}}, {"uniqueid": "MTK0146:320DUZ38G8T8TEXJ98YDZSMH4SUJGA", "current_trial": 41, "dateTime": 1509290320487, "trialdata": {"rt": [6006, 10110, 12918, 15638, 17678, 21998, 25134, 28990, 32918, 35934, 46062, 59734], "recwords": ["bullet", "snack", "apple", "comet", "marker", "tourist", "marrow", "pizza", "hawk", "plaid", "primate", "banker"], "type": "FREE_RECALL", "conditions": [18, 1200, "v", 18000], "trial": 0, "trial_type": "free-recall", "trial_index": 41, "time_elapsed": 404321, "internal_node_id": "0.0-32.0-0.0"}}, {"uniqueid": "MTK0146:320DUZ38G8T8TEXJ98YDZSMH4SUJGA", "current_trial": 42, "dateTime": 1509290325934, "trialdata": {"rt": 3446, "key_press": 75, "type": "INSTRUCTIONS", "trial_type": "text", "trial_index": 42, "time_elapsed": 409772, "internal_node_id": "0.0-33.0"}}, {"uniqueid": "MTK0146:320DUZ38G8T8TEXJ98YDZSMH4SUJGA", "current_trial": 43, "dateTime": 1509290345941, "trialdata": {"rt": [3621, 6045, 9301, 12070, 14829], "responses": ["16", "17", "17", "9", "14"], "num1": [1, 5, 6, 1, 1, 8], "num2": [8, 5, 2, 7, 6, 3], "num3": [7, 7, 9, 1, 7, 4], "type": "DISTRACTOR", "conditions": [18, 1200, "a", 18000], "trial": 1, "trial_type": "math-distractor", "trial_index": 43, "time_elapsed": 429779, "internal_node_id": "0.0-34.0"}}, {"uniqueid": "MTK0146:320DUZ38G8T8TEXJ98YDZSMH4SUJGA", "current_trial": 44, "dateTime": 1509290348942, "trialdata": {"rt": -1, "stimulus": "<p id=\"stim\">10</p>", "key_press": -1, "trial_type": "single-stim", "trial_index": 44, "time_elapsed": 432780, "internal_node_id": "0.0-35.0-0.0"}}, {"uniqueid": "MTK0146:320DUZ38G8T8TEXJ98YDZSMH4SUJGA", "current_trial": 45, "dateTime": 1509290349943, "trialdata": {"rt": -1, "stimulus": "<p id=\"stim\">9</p>", "key_press": -1, "trial_type": "single-stim", "trial_index": 45, "time_elapsed": 433781, "internal_node_id": "0.0-35.0-1.0"}}, {"uniqueid": "MTK0146:320DUZ38G8T8TEXJ98YDZSMH4SUJGA", "current_trial": 46, "dateTime": 1509290350944, "trialdata": {"rt": -1, "stimulus": "<p id=\"stim\">8</p>", "key_press": -1, "trial_type": "single-stim", "trial_index": 46, "time_elapsed": 434782, "internal_node_id": "0.0-35.0-2.0"}}, {"uniqueid": "MTK0146:320DUZ38G8T8TEXJ98YDZSMH4SUJGA", "current_trial": 47, "dateTime": 1509290351945, "trialdata": {"rt": -1, "stimulus": "<p id=\"stim\">7</p>", "key_press": -1, "trial_type": "single-stim", "trial_index": 47, "time_elapsed": 435783, "internal_node_id": "0.0-35.0-3.0"}}, {"uniqueid": "MTK0146:320DUZ38G8T8TEXJ98YDZSMH4SUJGA", "current_trial": 48, "dateTime": 1509290352946, "trialdata": {"rt": -1, "stimulus": "<p id=\"stim\">6</p>", "key_press": -1, "trial_type": "single-stim", "trial_index": 48, "time_elapsed": 436784, "internal_node_id": "0.0-35.0-4.0"}}, {"uniqueid": "MTK0146:320DUZ38G8T8TEXJ98YDZSMH4SUJGA", "current_trial": 49, "dateTime": 1509290353946, "trialdata": {"rt": -1, "stimulus": "<p id=\"stim\">5</p>", "key_press": -1, "trial_type": "single-stim", "trial_index": 49, "time_elapsed": 437784, "internal_node_id": "0.0-35.0-5.0"}}, {"uniqueid": "MTK0146:320DUZ38G8T8TEXJ98YDZSMH4SUJGA", "current_trial": 50, "dateTime": 1509290354948, "trialdata": {"rt": -1, "stimulus": "<p id=\"stim\">4</p>", "key_press": -1, "trial_type": "single-stim", "trial_index": 50, "time_elapsed": 438786, "internal_node_id": "0.0-35.0-6.0"}}, {"uniqueid": "MTK0146:320DUZ38G8T8TEXJ98YDZSMH4SUJGA", "current_trial": 51, "dateTime": 1509290355949, "trialdata": {"rt": -1, "stimulus": "<p id=\"stim\">3</p>", "key_press": -1, "trial_type": "single-stim", "trial_index": 51, "time_elapsed": 439787, "internal_node_id": "0.0-35.0-7.0"}}, {"uniqueid": "MTK0146:320DUZ38G8T8TEXJ98YDZSMH4SUJGA", "current_trial": 52, "dateTime": 1509290356950, "trialdata": {"rt": -1, "stimulus": "<p id=\"stim\">2</p>", "key_press": -1, "trial_type": "single-stim", "trial_index": 52, "time_elapsed": 440787, "internal_node_id": "0.0-35.0-8.0"}}, {"uniqueid": "MTK0146:320DUZ38G8T8TEXJ98YDZSMH4SUJGA", "current_trial": 53, "dateTime": 1509290357951, "trialdata": {"rt": -1, "stimulus": "<p id=\"stim\">1</p>", "key_press": -1, "trial_type": "single-stim", "trial_index": 53, "time_elapsed": 441789, "internal_node_id": "0.0-35.0-9.0"}}, {"uniqueid": "MTK0146:320DUZ38G8T8TEXJ98YDZSMH4SUJGA", "current_trial": 54, "dateTime": 1509290359451, "trialdata": {"rt": -1, "stimulus": "<p id=\"stim\">+</p>", "key_press": -1, "type": "FIXATION", "trial_type": "single-stim", "trial_index": 54, "time_elapsed": 443289, "internal_node_id": "0.0-36.0-0.0"}}, {"uniqueid": "MTK0146:320DUZ38G8T8TEXJ98YDZSMH4SUJGA", "current_trial": 55, "dateTime": 1509290361750, "trialdata": {"rt": -1000, "stimulus": "/static/audio/wordpool/VALVE.wav", "key_press": -1, "type": "PRES_AUD", "word": "valve", "wordID": 1545, "conditions": [18, 1200, "a", 18000], "trial": 1, "serialpos": 0, "trial_type": "single-audio", "trial_index": 55, "time_elapsed": 445588, "internal_node_id": "0.0-37.0"}}, {"uniqueid": "MTK0146:320DUZ38G8T8TEXJ98YDZSMH4SUJGA", "current_trial": 56, "dateTime": 1509290363965, "trialdata": {"rt": -1000, "stimulus": "/static/audio/wordpool/TABLET.wav", "key_press": -1, "type": "PRES_AUD", "word": "tablet", "wordID": 1426, "conditions": [18, 1200, "a", 18000], "trial": 1, "serialpos": 1, "trial_type": "single-audio", "trial_index": 56, "time_elapsed": 447803, "internal_node_id": "0.0-38.0"}}, {"uniqueid": "MTK0146:320DUZ38G8T8TEXJ98YDZSMH4SUJGA", "current_trial": 57, "dateTime": 1509290365979, "trialdata": {"rt": -1000, "stimulus": "/static/audio/wordpool/COUCH.wav", "key_press": -1, "type": "PRES_AUD", "word": "couch", "wordID": 385, "conditions": [18, 1200, "a", 18000], "trial": 1, "serialpos": 2, "trial_type": "single-audio", "trial_index": 57, "time_elapsed": 449817, "internal_node_id": "0.0-39.0"}}, {"uniqueid": "MTK0146:320DUZ38G8T8TEXJ98YDZSMH4SUJGA", "current_trial": 58, "dateTime": 1509290368015, "trialdata": {"rt": -1000, "stimulus": "/static/audio/wordpool/TUTU.wav", "key_press": -1, "type": "PRES_AUD", "word": "tutu", "wordID": 1523, "conditions": [18, 1200, "a", 18000], "trial": 1, "serialpos": 3, "trial_type": "single-audio", "trial_index": 58, "time_elapsed": 451853, "internal_node_id": "0.0-40.0"}}, {"uniqueid": "MTK0146:320DUZ38G8T8TEXJ98YDZSMH4SUJGA", "current_trial": 59, "dateTime": 1509290370043, "trialdata": {"rt": -1000, "stimulus": "/static/audio/wordpool/MAMMAL.wav", "key_press": -1, "type": "PRES_AUD", "word": "mammal", "wordID": 860, "conditions": [18, 1200, "a", 18000], "trial": 1, "serialpos": 4, "trial_type": "single-audio", "trial_index": 59, "time_elapsed": 453881, "internal_node_id": "0.0-41.0"}}, {"uniqueid": "MTK0146:320DUZ38G8T8TEXJ98YDZSMH4SUJGA", "current_trial": 60, "dateTime": 1509290372194, "trialdata": {"rt": -1000, "stimulus": "/static/audio/wordpool/BREAST.wav", "key_press": -1, "type": "PRES_AUD", "word": "breast", "wordID": 170, "conditions": [18, 1200, "a", 18000], "trial": 1, "serialpos": 5, "trial_type": "single-audio", "trial_index": 60, "time_elapsed": 456031, "internal_node_id": "0.0-42.0"}}, {"uniqueid": "MTK0146:320DUZ38G8T8TEXJ98YDZSMH4SUJGA", "current_trial": 61, "dateTime": 1509290374348, "trialdata": {"rt": -1000, "stimulus": "/static/audio/wordpool/BIKE.wav", "key_press": -1, "type": "PRES_AUD", "word": "bike", "wordID": 124, "conditions": [18, 1200, "a", 18000], "trial": 1, "serialpos": 6, "trial_type": "single-audio", "trial_index": 61, "time_elapsed": 458186, "internal_node_id": "0.0-43.0"}}, {"uniqueid": "MTK0146:320DUZ38G8T8TEXJ98YDZSMH4SUJGA", "current_trial": 62, "dateTime": 1509290376425, "trialdata": {"rt": -1000, "stimulus": "/static/audio/wordpool/DANDRUFF.wav", "key_press": -1, "type": "PRES_AUD", "word": "dandruff", "wordID": 438, "conditions": [18, 1200, "a", 18000], "trial": 1, "serialpos": 7, "trial_type": "single-audio", "trial_index": 62, "time_elapsed": 460263, "internal_node_id": "0.0-44.0"}}, {"uniqueid": "MTK0146:320DUZ38G8T8TEXJ98YDZSMH4SUJGA", "current_trial": 63, "dateTime": 1509290378513, "trialdata": {"rt": -1000, "stimulus": "/static/audio/wordpool/PEPPER.wav", "key_press": -1, "type": "PRES_AUD", "word": "pepper", "wordID": 1046, "conditions": [18, 1200, "a", 18000], "trial": 1, "serialpos": 8, "trial_type": "single-audio", "trial_index": 63, "time_elapsed": 462351, "internal_node_id": "0.0-45.0"}}, {"uniqueid": "MTK0146:320DUZ38G8T8TEXJ98YDZSMH4SUJGA", "current_trial": 64, "dateTime": 1509290380719, "trialdata": {"rt": -1000, "stimulus": "/static/audio/wordpool/FLASHLIGHT.wav", "key_press": -1, "type": "PRES_AUD", "word": "flashlight", "wordID": 574, "conditions": [18, 1200, "a", 18000], "trial": 1, "serialpos": 9, "trial_type": "single-audio", "trial_index": 64, "time_elapsed": 464557, "internal_node_id": "0.0-46.0"}}, {"uniqueid": "MTK0146:320DUZ38G8T8TEXJ98YDZSMH4SUJGA", "current_trial": 65, "dateTime": 1509290383089, "trialdata": {"rt": -1000, "stimulus": "/static/audio/wordpool/MOTEL.wav", "key_press": -1, "type": "PRES_AUD", "word": "motel", "wordID": 918, "conditions": [18, 1200, "a", 18000], "trial": 1, "serialpos": 10, "trial_type": "single-audio", "trial_index": 65, "time_elapsed": 466927, "internal_node_id": "0.0-47.0"}}, {"uniqueid": "MTK0146:320DUZ38G8T8TEXJ98YDZSMH4SUJGA", "current_trial": 66, "dateTime": 1509290385382, "trialdata": {"rt": -1000, "stimulus": "/static/audio/wordpool/GLOVE.wav", "key_press": -1, "type": "PRES_AUD", "word": "glove", "wordID": 641, "conditions": [18, 1200, "a", 18000], "trial": 1, "serialpos": 11, "trial_type": "single-audio", "trial_index": 66, "time_elapsed": 469220, "internal_node_id": "0.0-48.0"}}, {"uniqueid": "MTK0146:320DUZ38G8T8TEXJ98YDZSMH4SUJGA", "current_trial": 67, "dateTime": 1509290387596, "trialdata": {"rt": -1000, "stimulus": "/static/audio/wordpool/COUNTRY.wav", "key_press": -1, "type": "PRES_AUD", "word": "country", "wordID": 387, "conditions": [18, 1200, "a", 18000], "trial": 1, "serialpos": 12, "trial_type": "single-audio", "trial_index": 67, "time_elapsed": 471434, "internal_node_id": "0.0-49.0"}}, {"uniqueid": "MTK0146:320DUZ38G8T8TEXJ98YDZSMH4SUJGA", "current_trial": 68, "dateTime": 1509290389708, "trialdata": {"rt": -1000, "stimulus": "/static/audio/wordpool/TWISTER.wav", "key_press": -1, "type": "PRES_AUD", "word": "twister", "wordID": 1529, "conditions": [18, 1200, "a", 18000], "trial": 1, "serialpos": 13, "trial_type": "single-audio", "trial_index": 68, "time_elapsed": 473544, "internal_node_id": "0.0-50.0"}}, {"uniqueid": "MTK0146:320DUZ38G8T8TEXJ98YDZSMH4SUJGA", "current_trial": 69, "dateTime": 1509290391992, "trialdata": {"rt": -1000, "stimulus": "/static/audio/wordpool/GLASS.wav", "key_press": -1, "type": "PRES_AUD", "word": "glass", "wordID": 638, "conditions": [18, 1200, "a", 18000], "trial": 1, "serialpos": 14, "trial_type": "single-audio", "trial_index": 69, "time_elapsed": 475830, "internal_node_id": "0.0-51.0"}}, {"uniqueid": "MTK0146:320DUZ38G8T8TEXJ98YDZSMH4SUJGA", "current_trial": 70, "dateTime": 1509290394161, "trialdata": {"rt": -1000, "stimulus": "/static/audio/wordpool/GUARD.wav", "key_press": -1, "type": "PRES_AUD", "word": "guard", "wordID": 666, "conditions": [18, 1200, "a", 18000], "trial": 1, "serialpos": 15, "trial_type": "single-audio", "trial_index": 70, "time_elapsed": 477999, "internal_node_id": "0.0-52.0"}}, {"uniqueid": "MTK0146:320DUZ38G8T8TEXJ98YDZSMH4SUJGA", "current_trial": 71, "dateTime": 1509290396540, "trialdata": {"rt": -1000, "stimulus": "/static/audio/wordpool/PERFUME.wav", "key_press": -1, "type": "PRES_AUD", "word": "perfume", "wordID": 1048, "conditions": [18, 1200, "a", 18000], "trial": 1, "serialpos": 16, "trial_type": "single-audio", "trial_index": 71, "time_elapsed": 480378, "internal_node_id": "0.0-53.0"}}, {"uniqueid": "MTK0146:320DUZ38G8T8TEXJ98YDZSMH4SUJGA", "current_trial": 72, "dateTime": 1509290398846, "trialdata": {"rt": -1000, "stimulus": "/static/audio/wordpool/HIGHWAY.wav", "key_press": -1, "type": "PRES_AUD", "word": "highway", "wordID": 706, "conditions": [18, 1200, "a", 18000], "trial": 1, "serialpos": 17, "trial_type": "single-audio", "trial_index": 72, "time_elapsed": 482684, "internal_node_id": "0.0-54.0"}}, {"uniqueid": "MTK0146:320DUZ38G8T8TEXJ98YDZSMH4SUJGA", "current_trial": 73, "dateTime": 1509290400080, "trialdata": {"rt": -1, "stimulus": "", "key_press": -1, "type": "PRE_RECALL_DELAY", "trial_type": "single-stim", "trial_index": 73, "time_elapsed": 483918, "internal_node_id": "0.0-55.0-0.0"}}, {"uniqueid": "MTK0146:320DUZ38G8T8TEXJ98YDZSMH4SUJGA", "current_trial": 74, "dateTime": 1509290400581, "trialdata": {"rt": -1000, "stimulus": "/static/audio/400Hz.wav", "key_press": -1, "type": "PRE_RECALL_ALERT", "trial_type": "single-audio", "trial_index": 74, "time_elapsed": 484418, "internal_node_id": "0.0-56.0"}}, {"uniqueid": "MTK0146:320DUZ38G8T8TEXJ98YDZSMH4SUJGA", "current_trial": 75, "dateTime": 1509290460589, "trialdata": {"rt": [4836, 7487, 11735, 15183, 18343, 21656, 25839, 28647, 35335, 38527, 42056, 45200], "recwords": ["pepper", "guard", "breast", "tablet", "glove", "country", "twister", "glass", "couch", "value", "bike", "flashlight"], "type": "FREE_RECALL", "conditions": [18, 1200, "a", 18000], "trial": 1, "trial_type": "free-recall", "trial_index": 75, "time_elapsed": 544423, "internal_node_id": "0.0-57.0-0.0"}}, {"uniqueid": "MTK0146:320DUZ38G8T8TEXJ98YDZSMH4SUJGA", "current_trial": 76, "dateTime": 1509290465775, "trialdata": {"rt": 3186, "key_press": 75, "type": "INSTRUCTIONS", "trial_type": "text", "trial_index": 76, "time_elapsed": 549613, "internal_node_id": "0.0-58.0"}}, {"uniqueid": "MTK0146:320DUZ38G8T8TEXJ98YDZSMH4SUJGA", "current_trial": 77, "dateTime": 1509290490779, "trialdata": {"rt": [3358, 6974, 11950, 16438, 22886], "responses": ["15", "18", "15", "16", "19"], "num1": [5, 8, 6, 7, 7, 6], "num2": [2, 8, 5, 6, 6, 5], "num3": [8, 2, 4, 4, 8, 9], "type": "DISTRACTOR", "conditions": [24, 1600, "v", 24000], "trial": 2, "trial_type": "math-distractor", "trial_index": 77, "time_elapsed": 574617, "internal_node_id": "0.0-59.0"}}, {"uniqueid": "MTK0146:320DUZ38G8T8TEXJ98YDZSMH4SUJGA", "current_trial": 78, "dateTime": 1509290493784, "trialdata": {"rt": -1, "stimulus": "<p id=\"stim\">10</p>", "key_press": -1, "trial_type": "single-stim", "trial_index": 78, "time_elapsed": 577622, "internal_node_id": "0.0-60.0-0.0"}}, {"uniqueid": "MTK0146:320DUZ38G8T8TEXJ98YDZSMH4SUJGA", "current_trial": 79, "dateTime": 1509290494784, "trialdata": {"rt": -1, "stimulus": "<p id=\"stim\">9</p>", "key_press": -1, "trial_type": "single-stim", "trial_index": 79, "time_elapsed": 578622, "internal_node_id": "0.0-60.0-1.0"}}, {"uniqueid": "MTK0146:320DUZ38G8T8TEXJ98YDZSMH4SUJGA", "current_trial": 80, "dateTime": 1509290495786, "trialdata": {"rt": -1, "stimulus": "<p id=\"stim\">8</p>", "key_press": -1, "trial_type": "single-stim", "trial_index": 80, "time_elapsed": 579624, "internal_node_id": "0.0-60.0-2.0"}}, {"uniqueid": "MTK0146:320DUZ38G8T8TEXJ98YDZSMH4SUJGA", "current_trial": 81, "dateTime": 1509290496787, "trialdata": {"rt": -1, "stimulus": "<p id=\"stim\">7</p>", "key_press": -1, "trial_type": "single-stim", "trial_index": 81, "time_elapsed": 580625, "internal_node_id": "0.0-60.0-3.0"}}, {"uniqueid": "MTK0146:320DUZ38G8T8TEXJ98YDZSMH4SUJGA", "current_trial": 82, "dateTime": 1509290497788, "trialdata": {"rt": -1, "stimulus": "<p id=\"stim\">6</p>", "key_press": -1, "trial_type": "single-stim", "trial_index": 82, "time_elapsed": 581626, "internal_node_id": "0.0-60.0-4.0"}}, {"uniqueid": "MTK0146:320DUZ38G8T8TEXJ98YDZSMH4SUJGA", "current_trial": 83, "dateTime": 1509290498789, "trialdata": {"rt": -1, "stimulus": "<p id=\"stim\">5</p>", "key_press": -1, "trial_type": "single-stim", "trial_index": 83, "time_elapsed": 582627, "internal_node_id": "0.0-60.0-5.0"}}, {"uniqueid": "MTK0146:320DUZ38G8T8TEXJ98YDZSMH4SUJGA", "current_trial": 84, "dateTime": 1509290499790, "trialdata": {"rt": -1, "stimulus": "<p id=\"stim\">4</p>", "key_press": -1, "trial_type": "single-stim", "trial_index": 84, "time_elapsed": 583628, "internal_node_id": "0.0-60.0-6.0"}}, {"uniqueid": "MTK0146:320DUZ38G8T8TEXJ98YDZSMH4SUJGA", "current_trial": 85, "dateTime": 1509290500796, "trialdata": {"rt": -1, "stimulus": "<p id=\"stim\">3</p>", "key_press": -1, "trial_type": "single-stim", "trial_index": 85, "time_elapsed": 584634, "internal_node_id": "0.0-60.0-7.0"}}, {"uniqueid": "MTK0146:320DUZ38G8T8TEXJ98YDZSMH4SUJGA", "current_trial": 86, "dateTime": 1509290501797, "trialdata": {"rt": -1, "stimulus": "<p id=\"stim\">2</p>", "key_press": -1, "trial_type": "single-stim", "trial_index": 86, "time_elapsed": 585635, "internal_node_id": "0.0-60.0-8.0"}}, {"uniqueid": "MTK0146:320DUZ38G8T8TEXJ98YDZSMH4SUJGA", "current_trial": 87, "dateTime": 1509290502798, "trialdata": {"rt": -1, "stimulus": "<p id=\"stim\">1</p>", "key_press": -1, "trial_type": "single-stim", "trial_index": 87, "time_elapsed": 586636, "internal_node_id": "0.0-60.0-9.0"}}, {"uniqueid": "MTK0146:320DUZ38G8T8TEXJ98YDZSMH4SUJGA", "current_trial": 88, "dateTime": 1509290504299, "trialdata": {"rt": -1, "stimulus": "<p id=\"stim\">+</p>", "key_press": -1, "type": "FIXATION", "trial_type": "single-stim", "trial_index": 88, "time_elapsed": 588137, "internal_node_id": "0.0-61.0-0.0"}}, {"uniqueid": "MTK0146:320DUZ38G8T8TEXJ98YDZSMH4SUJGA", "current_trial": 89, "dateTime": 1509290505900, "trialdata": {"rt": -1, "stimulus": "<p id=\"stim\">UNCLE</p>", "key_press": -1, "type": "PRES_VIS", "word": "uncle", "wordID": 1535, "conditions": [24, 1600, "v", 24000], "trial": 2, "serialpos": 0, "trial_type": "single-stim", "trial_index": 89, "time_elapsed": 589738, "internal_node_id": "0.0-62.0"}}, {"uniqueid": "MTK0146:320DUZ38G8T8TEXJ98YDZSMH4SUJGA", "current_trial": 90, "dateTime": 1509290508482, "trialdata": {"rt": -1, "stimulus": "<p id=\"stim\">PROTON</p>", "key_press": -1, "type": "PRES_VIS", "word": "proton", "wordID": 1131, "conditions": [24, 1600, "v", 24000], "trial": 2, "serialpos": 1, "trial_type": "single-stim", "trial_index": 90, "time_elapsed": 592320, "internal_node_id": "0.0-63.0"}}, {"uniqueid": "MTK0146:320DUZ38G8T8TEXJ98YDZSMH4SUJGA", "current_trial": 91, "dateTime": 1509290511202, "trialdata": {"rt": -1, "stimulus": "<p id=\"stim\">DRIVER</p>", "key_press": -1, "type": "PRES_VIS", "word": "driver", "wordID": 498, "conditions": [24, 1600, "v", 24000], "trial": 2, "serialpos": 2, "trial_type": "single-stim", "trial_index": 91, "time_elapsed": 595040, "internal_node_id": "0.0-64.0"}}, {"uniqueid": "MTK0146:320DUZ38G8T8TEXJ98YDZSMH4SUJGA", "current_trial": 92, "dateTime": 1509290513711, "trialdata": {"rt": -1, "stimulus": "<p id=\"stim\">PATROL</p>", "key_press": -1, "type": "PRES_VIS", "word": "patrol", "wordID": 1026, "conditions": [24, 1600, "v", 24000], "trial": 2, "serialpos": 3, "trial_type": "single-stim", "trial_index": 92, "time_elapsed": 597549, "internal_node_id": "0.0-65.0"}}, {"uniqueid": "MTK0146:320DUZ38G8T8TEXJ98YDZSMH4SUJGA", "current_trial": 93, "dateTime": 1509290516181, "trialdata": {"rt": -1, "stimulus": "<p id=\"stim\">HONEY</p>", "key_press": -1, "type": "PRES_VIS", "word": "honey", "wordID": 712, "conditions": [24, 1600, "v", 24000], "trial": 2, "serialpos": 4, "trial_type": "single-stim", "trial_index": 93, "time_elapsed": 600019, "internal_node_id": "0.0-66.0"}}, {"uniqueid": "MTK0146:320DUZ38G8T8TEXJ98YDZSMH4SUJGA", "current_trial": 94, "dateTime": 1509290518810, "trialdata": {"rt": -1, "stimulus": "<p id=\"stim\">FLUTE</p>", "key_press": -1, "type": "PRES_VIS", "word": "flute", "wordID": 584, "conditions": [24, 1600, "v", 24000], "trial": 2, "serialpos": 5, "trial_type": "single-stim", "trial_index": 94, "time_elapsed": 602648, "internal_node_id": "0.0-67.0"}}, {"uniqueid": "MTK0146:320DUZ38G8T8TEXJ98YDZSMH4SUJGA", "current_trial": 95, "dateTime": 1509290521245, "trialdata": {"rt": -1, "stimulus": "<p id=\"stim\">ATLAS</p>", "key_press": -1, "type": "PRES_VIS", "word": "atlas", "wordID": 52, "conditions": [24, 1600, "v", 24000], "trial": 2, "serialpos": 6, "trial_type": "single-stim", "trial_index": 95, "time_elapsed": 605083, "internal_node_id": "0.0-68.0"}}, {"uniqueid": "MTK0146:320DUZ38G8T8TEXJ98YDZSMH4SUJGA", "current_trial": 96, "dateTime": 1509290524041, "trialdata": {"rt": -1, "stimulus": "<p id=\"stim\">DIVER</p>", "key_press": -1, "type": "PRES_VIS", "word": "diver", "wordID": 475, "conditions": [24, 1600, "v", 24000], "trial": 2, "serialpos": 7, "trial_type": "single-stim", "trial_index": 96, "time_elapsed": 607878, "internal_node_id": "0.0-69.0"}}, {"uniqueid": "MTK0146:320DUZ38G8T8TEXJ98YDZSMH4SUJGA", "current_trial": 97, "dateTime": 1509290526640, "trialdata": {"rt": -1, "stimulus": "<p id=\"stim\">SWIMMER</p>", "key_press": -1, "type": "PRES_VIS", "word": "swimmer", "wordID": 1419, "conditions": [24, 1600, "v", 24000], "trial": 2, "serialpos": 8, "trial_type": "single-stim", "trial_index": 97, "time_elapsed": 610478, "internal_node_id": "0.0-70.0"}}, {"uniqueid": "MTK0146:320DUZ38G8T8TEXJ98YDZSMH4SUJGA", "current_trial": 98, "dateTime": 1509290529323, "trialdata": {"rt": -1, "stimulus": "<p id=\"stim\">JAPAN</p>", "key_press": -1, "type": "PRES_VIS", "word": "japan", "wordID": 748, "conditions": [24, 1600, "v", 24000], "trial": 2, "serialpos": 9, "trial_type": "single-stim", "trial_index": 98, "time_elapsed": 613161, "internal_node_id": "0.0-71.0"}}, {"uniqueid": "MTK0146:320DUZ38G8T8TEXJ98YDZSMH4SUJGA", "current_trial": 99, "dateTime": 1509290532079, "trialdata": {"rt": -1, "stimulus": "<p id=\"stim\">MILK</p>", "key_press": -1, "type": "PRES_VIS", "word": "milk", "wordID": 894, "conditions": [24, 1600, "v", 24000], "trial": 2, "serialpos": 10, "trial_type": "single-stim", "trial_index": 99, "time_elapsed": 615917, "internal_node_id": "0.0-72.0"}}, {"uniqueid": "MTK0146:320DUZ38G8T8TEXJ98YDZSMH4SUJGA", "current_trial": 100, "dateTime": 1509290534547, "trialdata": {"rt": -1, "stimulus": "<p id=\"stim\">POPCORN</p>", "key_press": -1, "type": "PRES_VIS", "word": "popcorn", "wordID": 1103, "conditions": [24, 1600, "v", 24000], "trial": 2, "serialpos": 11, "trial_type": "single-stim", "trial_index": 100, "time_elapsed": 618385, "internal_node_id": "0.0-73.0"}}, {"uniqueid": "MTK0146:320DUZ38G8T8TEXJ98YDZSMH4SUJGA", "current_trial": 101, "dateTime": 1509290537142, "trialdata": {"rt": -1, "stimulus": "<p id=\"stim\">TWIG</p>", "key_press": -1, "type": "PRES_VIS", "word": "twig", "wordID": 1526, "conditions": [24, 1600, "v", 24000], "trial": 2, "serialpos": 12, "trial_type": "single-stim", "trial_index": 101, "time_elapsed": 620980, "internal_node_id": "0.0-74.0"}}, {"uniqueid": "MTK0146:320DUZ38G8T8TEXJ98YDZSMH4SUJGA", "current_trial": 102, "dateTime": 1509290539613, "trialdata": {"rt": -1, "stimulus": "<p id=\"stim\">PASTA</p>", "key_press": -1, "type": "PRES_VIS", "word": "pasta", "wordID": 1020, "conditions": [24, 1600, "v", 24000], "trial": 2, "serialpos": 13, "trial_type": "single-stim", "trial_index": 102, "time_elapsed": 623451, "internal_node_id": "0.0-75.0"}}, {"uniqueid": "MTK0146:320DUZ38G8T8TEXJ98YDZSMH4SUJGA", "current_trial": 103, "dateTime": 1509290542115, "trialdata": {"rt": -1, "stimulus": "<p id=\"stim\">JOURNAL</p>", "key_press": -1, "type": "PRES_VIS", "word": "journal", "wordID": 759, "conditions": [24, 1600, "v", 24000], "trial": 2, "serialpos": 14, "trial_type": "single-stim", "trial_index": 103, "time_elapsed": 625952, "internal_node_id": "0.0-76.0"}}, {"uniqueid": "MTK0146:320DUZ38G8T8TEXJ98YDZSMH4SUJGA", "current_trial": 104, "dateTime": 1509290544897, "trialdata": {"rt": -1, "stimulus": "<p id=\"stim\">PAPER</p>", "key_press": -1, "type": "PRES_VIS", "word": "paper", "wordID": 1010, "conditions": [24, 1600, "v", 24000], "trial": 2, "serialpos": 15, "trial_type": "single-stim", "trial_index": 104, "time_elapsed": 628735, "internal_node_id": "0.0-77.0"}}, {"uniqueid": "MTK0146:320DUZ38G8T8TEXJ98YDZSMH4SUJGA", "current_trial": 105, "dateTime": 1509290547366, "trialdata": {"rt": -1, "stimulus": "<p id=\"stim\">SCRIBBLE</p>", "key_press": -1, "type": "PRES_VIS", "word": "scribble", "wordID": 1255, "conditions": [24, 1600, "v", 24000], "trial": 2, "serialpos": 16, "trial_type": "single-stim", "trial_index": 105, "time_elapsed": 631203, "internal_node_id": "0.0-78.0"}}, {"uniqueid": "MTK0146:320DUZ38G8T8TEXJ98YDZSMH4SUJGA", "current_trial": 106, "dateTime": 1509290549972, "trialdata": {"rt": -1, "stimulus": "<p id=\"stim\">EMPIRE</p>", "key_press": -1, "type": "PRES_VIS", "word": "empire", "wordID": 529, "conditions": [24, 1600, "v", 24000], "trial": 2, "serialpos": 17, "trial_type": "single-stim", "trial_index": 106, "time_elapsed": 633810, "internal_node_id": "0.0-79.0"}}, {"uniqueid": "MTK0146:320DUZ38G8T8TEXJ98YDZSMH4SUJGA", "current_trial": 107, "dateTime": 1509290552396, "trialdata": {"rt": -1, "stimulus": "<p id=\"stim\">SCALPEL</p>", "key_press": -1, "type": "PRES_VIS", "word": "scalpel", "wordID": 1242, "conditions": [24, 1600, "v", 24000], "trial": 2, "serialpos": 18, "trial_type": "single-stim", "trial_index": 107, "time_elapsed": 636234, "internal_node_id": "0.0-80.0"}}, {"uniqueid": "MTK0146:320DUZ38G8T8TEXJ98YDZSMH4SUJGA", "current_trial": 108, "dateTime": 1509290554800, "trialdata": {"rt": -1, "stimulus": "<p id=\"stim\">AGENT</p>", "key_press": -1, "type": "PRES_VIS", "word": "agent", "wordID": 9, "conditions": [24, 1600, "v", 24000], "trial": 2, "serialpos": 19, "trial_type": "single-stim", "trial_index": 108, "time_elapsed": 638638, "internal_node_id": "0.0-81.0"}}, {"uniqueid": "MTK0146:320DUZ38G8T8TEXJ98YDZSMH4SUJGA", "current_trial": 109, "dateTime": 1509290557393, "trialdata": {"rt": -1, "stimulus": "<p id=\"stim\">CRATER</p>", "key_press": -1, "type": "PRES_VIS", "word": "crater", "wordID": 399, "conditions": [24, 1600, "v", 24000], "trial": 2, "serialpos": 20, "trial_type": "single-stim", "trial_index": 109, "time_elapsed": 641231, "internal_node_id": "0.0-82.0"}}, {"uniqueid": "MTK0146:320DUZ38G8T8TEXJ98YDZSMH4SUJGA", "current_trial": 110, "dateTime": 1509290559881, "trialdata": {"rt": -1, "stimulus": "<p id=\"stim\">LAVA</p>", "key_press": -1, "type": "PRES_VIS", "word": "lava", "wordID": 803, "conditions": [24, 1600, "v", 24000], "trial": 2, "serialpos": 21, "trial_type": "single-stim", "trial_index": 110, "time_elapsed": 643719, "internal_node_id": "0.0-83.0"}}, {"uniqueid": "MTK0146:320DUZ38G8T8TEXJ98YDZSMH4SUJGA", "current_trial": 111, "dateTime": 1509290562441, "trialdata": {"rt": -1, "stimulus": "<p id=\"stim\">POSSUM</p>", "key_press": -1, "type": "PRES_VIS", "word": "possum", "wordID": 1111, "conditions": [24, 1600, "v", 24000], "trial": 2, "serialpos": 22, "trial_type": "single-stim", "trial_index": 111, "time_elapsed": 646279, "internal_node_id": "0.0-84.0"}}, {"uniqueid": "MTK0146:320DUZ38G8T8TEXJ98YDZSMH4SUJGA", "current_trial": 112, "dateTime": 1509290564955, "trialdata": {"rt": -1, "stimulus": "<p id=\"stim\">SAUSAGE</p>", "key_press": -1, "type": "PRES_VIS", "word": "sausage", "wordID": 1237, "conditions": [24, 1600, "v", 24000], "trial": 2, "serialpos": 23, "trial_type": "single-stim", "trial_index": 112, "time_elapsed": 648793, "internal_node_id": "0.0-85.0"}}, {"uniqueid": "MTK0146:320DUZ38G8T8TEXJ98YDZSMH4SUJGA", "current_trial": 113, "dateTime": 1509290567192, "trialdata": {"rt": -1, "stimulus": "", "key_press": -1, "type": "PRE_RECALL_DELAY", "trial_type": "single-stim", "trial_index": 113, "time_elapsed": 651030, "internal_node_id": "0.0-86.0-0.0"}}, {"uniqueid": "MTK0146:320DUZ38G8T8TEXJ98YDZSMH4SUJGA", "current_trial": 114, "dateTime": 1509290567694, "trialdata": {"rt": -1000, "stimulus": "/static/audio/400Hz.wav", "key_press": -1, "type": "PRE_RECALL_ALERT", "trial_type": "single-audio", "trial_index": 114, "time_elapsed": 651531, "internal_node_id": "0.0-87.0"}}, {"uniqueid": "MTK0146:320DUZ38G8T8TEXJ98YDZSMH4SUJGA", "current_trial": 115, "dateTime": 1509290627697, "trialdata": {"rt": [5287, 8599, 12167, 13919, 16399, 22065, 25279, 28015, 31415, 35439, 37943, 43815, 47199, 49031, 51966], "recwords": ["sasuage", "lava", "empire", "agent", "milk", "popcorn", "diver", "swimmer", "japan", "atlas", "flute", "milk", "pasta", "paper", "scribble"], "type": "FREE_RECALL", "conditions": [24, 1600, "v", 24000], "trial": 2, "trial_type": "free-recall", "trial_index": 115, "time_elapsed": 711533, "internal_node_id": "0.0-88.0-0.0"}}, {"uniqueid": "MTK0146:320DUZ38G8T8TEXJ98YDZSMH4SUJGA", "current_trial": 116, "dateTime": 1509290633446, "trialdata": {"rt": 3747, "key_press": 75, "type": "INSTRUCTIONS", "trial_type": "text", "trial_index": 116, "time_elapsed": 717283, "internal_node_id": "0.0-89.0"}}, {"uniqueid": "MTK0146:320DUZ38G8T8TEXJ98YDZSMH4SUJGA", "current_trial": 117, "dateTime": 1509290659448, "trialdata": {"rt": [5694, 8518, 11742, 14615, 18318, 21614], "responses": ["16", "5", "18", "10", "19", "14"], "num1": [5, 1, 5, 2, 9, 4, 7], "num2": [3, 3, 6, 1, 1, 7, 8], "num3": [8, 1, 7, 7, 9, 3, 1], "type": "DISTRACTOR", "conditions": [12, 1600, "v", 24000], "trial": 3, "trial_type": "math-distractor", "trial_index": 117, "time_elapsed": 743286, "internal_node_id": "0.0-90.0"}}, {"uniqueid": "MTK0146:320DUZ38G8T8TEXJ98YDZSMH4SUJGA", "current_trial": 118, "dateTime": 1509290662450, "trialdata": {"rt": -1, "stimulus": "<p id=\"stim\">10</p>", "key_press": -1, "trial_type": "single-stim", "trial_index": 118, "time_elapsed": 746288, "internal_node_id": "0.0-91.0-0.0"}}, {"uniqueid": "MTK0146:320DUZ38G8T8TEXJ98YDZSMH4SUJGA", "current_trial": 119, "dateTime": 1509290663451, "trialdata": {"rt": -1, "stimulus": "<p id=\"stim\">9</p>", "key_press": -1, "trial_type": "single-stim", "trial_index": 119, "time_elapsed": 747289, "internal_node_id": "0.0-91.0-1.0"}}, {"uniqueid": "MTK0146:320DUZ38G8T8TEXJ98YDZSMH4SUJGA", "current_trial": 120, "dateTime": 1509290664451, "trialdata": {"rt": -1, "stimulus": "<p id=\"stim\">8</p>", "key_press": -1, "trial_type": "single-stim", "trial_index": 120, "time_elapsed": 748289, "internal_node_id": "0.0-91.0-2.0"}}, {"uniqueid": "MTK0146:320DUZ38G8T8TEXJ98YDZSMH4SUJGA", "current_trial": 121, "dateTime": 1509290665452, "trialdata": {"rt": -1, "stimulus": "<p id=\"stim\">7</p>", "key_press": -1, "trial_type": "single-stim", "trial_index": 121, "time_elapsed": 749290, "internal_node_id": "0.0-91.0-3.0"}}, {"uniqueid": "MTK0146:320DUZ38G8T8TEXJ98YDZSMH4SUJGA", "current_trial": 122, "dateTime": 1509290666453, "trialdata": {"rt": -1, "stimulus": "<p id=\"stim\">6</p>", "key_press": -1, "trial_type": "single-stim", "trial_index": 122, "time_elapsed": 750291, "internal_node_id": "0.0-91.0-4.0"}}, {"uniqueid": "MTK0146:320DUZ38G8T8TEXJ98YDZSMH4SUJGA", "current_trial": 123, "dateTime": 1509290667454, "trialdata": {"rt": -1, "stimulus": "<p id=\"stim\">5</p>", "key_press": -1, "trial_type": "single-stim", "trial_index": 123, "time_elapsed": 751292, "internal_node_id": "0.0-91.0-5.0"}}, {"uniqueid": "MTK0146:320DUZ38G8T8TEXJ98YDZSMH4SUJGA", "current_trial": 124, "dateTime": 1509290668455, "trialdata": {"rt": -1, "stimulus": "<p id=\"stim\">4</p>", "key_press": -1, "trial_type": "single-stim", "trial_index": 124, "time_elapsed": 752293, "internal_node_id": "0.0-91.0-6.0"}}, {"uniqueid": "MTK0146:320DUZ38G8T8TEXJ98YDZSMH4SUJGA", "current_trial": 125, "dateTime": 1509290669456, "trialdata": {"rt": -1, "stimulus": "<p id=\"stim\">3</p>", "key_press": -1, "trial_type": "single-stim", "trial_index": 125, "time_elapsed": 753294, "internal_node_id": "0.0-91.0-7.0"}}, {"uniqueid": "MTK0146:320DUZ38G8T8TEXJ98YDZSMH4SUJGA", "current_trial": 126, "dateTime": 1509290670456, "trialdata": {"rt": -1, "stimulus": "<p id=\"stim\">2</p>", "key_press": -1, "trial_type": "single-stim", "trial_index": 126, "time_elapsed": 754294, "internal_node_id": "0.0-91.0-8.0"}}, {"uniqueid": "MTK0146:320DUZ38G8T8TEXJ98YDZSMH4SUJGA", "current_trial": 127, "dateTime": 1509290671457, "trialdata": {"rt": -1, "stimulus": "<p id=\"stim\">1</p>", "key_press": -1, "trial_type": "single-stim", "trial_index": 127, "time_elapsed": 755295, "internal_node_id": "0.0-91.0-9.0"}}, {"uniqueid": "MTK0146:320DUZ38G8T8TEXJ98YDZSMH4SUJGA", "current_trial": 128, "dateTime": 1509290672961, "trialdata": {"rt": -1, "stimulus": "<p id=\"stim\">+</p>", "key_press": -1, "type": "FIXATION", "trial_type": "single-stim", "trial_index": 128, "time_elapsed": 756798, "internal_node_id": "0.0-92.0-0.0"}}, {"uniqueid": "MTK0146:320DUZ38G8T8TEXJ98YDZSMH4SUJGA", "current_trial": 129, "dateTime": 1509290674561, "trialdata": {"rt": -1, "stimulus": "<p id=\"stim\">SIBLING</p>", "key_press": -1, "type": "PRES_VIS", "word": "sibling", "wordID": 1300, "conditions": [12, 1600, "v", 24000], "trial": 3, "serialpos": 0, "trial_type": "single-stim", "trial_index": 129, "time_elapsed": 758399, "internal_node_id": "0.0-93.0"}}, {"uniqueid": "MTK0146:320DUZ38G8T8TEXJ98YDZSMH4SUJGA", "current_trial": 130, "dateTime": 1509290677098, "trialdata": {"rt": -1, "stimulus": "<p id=\"stim\">LILY</p>", "key_press": -1, "type": "PRES_VIS", "word": "lily", "wordID": 820, "conditions": [12, 1600, "v", 24000], "trial": 3, "serialpos": 1, "trial_type": "single-stim", "trial_index": 130, "time_elapsed": 760936, "internal_node_id": "0.0-94.0"}}, {"uniqueid": "MTK0146:320DUZ38G8T8TEXJ98YDZSMH4SUJGA", "current_trial": 131, "dateTime": 1509290679618, "trialdata": {"rt": -1, "stimulus": "<p id=\"stim\">SANDWICH</p>", "key_press": -1, "type": "PRES_VIS", "word": "sandwich", "wordID": 1231, "conditions": [12, 1600, "v", 24000], "trial": 3, "serialpos": 2, "trial_type": "single-stim", "trial_index": 131, "time_elapsed": 763456, "internal_node_id": "0.0-95.0"}}, {"uniqueid": "MTK0146:320DUZ38G8T8TEXJ98YDZSMH4SUJGA", "current_trial": 132, "dateTime": 1509290682095, "trialdata": {"rt": -1, "stimulus": "<p id=\"stim\">FRUIT</p>", "key_press": -1, "type": "PRES_VIS", "word": "fruit", "wordID": 609, "conditions": [12, 1600, "v", 24000], "trial": 3, "serialpos": 3, "trial_type": "single-stim", "trial_index": 132, "time_elapsed": 765933, "internal_node_id": "0.0-96.0"}}, {"uniqueid": "MTK0146:320DUZ38G8T8TEXJ98YDZSMH4SUJGA", "current_trial": 133, "dateTime": 1509290684626, "trialdata": {"rt": -1, "stimulus": "<p id=\"stim\">WORLD</p>", "key_press": -1, "type": "PRES_VIS", "word": "world", "wordID": 1621, "conditions": [12, 1600, "v", 24000], "trial": 3, "serialpos": 4, "trial_type": "single-stim", "trial_index": 133, "time_elapsed": 768463, "internal_node_id": "0.0-97.0"}}, {"uniqueid": "MTK0146:320DUZ38G8T8TEXJ98YDZSMH4SUJGA", "current_trial": 134, "dateTime": 1509290687286, "trialdata": {"rt": -1, "stimulus": "<p id=\"stim\">PREACHER</p>", "key_press": -1, "type": "PRES_VIS", "word": "preacher", "wordID": 1118, "conditions": [12, 1600, "v", 24000], "trial": 3, "serialpos": 5, "trial_type": "single-stim", "trial_index": 134, "time_elapsed": 771124, "internal_node_id": "0.0-98.0"}}, {"uniqueid": "MTK0146:320DUZ38G8T8TEXJ98YDZSMH4SUJGA", "current_trial": 135, "dateTime": 1509290689755, "trialdata": {"rt": -1, "stimulus": "<p id=\"stim\">GYMNAST</p>", "key_press": -1, "type": "PRES_VIS", "word": "gymnast", "wordID": 674, "conditions": [12, 1600, "v", 24000], "trial": 3, "serialpos": 6, "trial_type": "single-stim", "trial_index": 135, "time_elapsed": 773593, "internal_node_id": "0.0-99.0"}}, {"uniqueid": "MTK0146:320DUZ38G8T8TEXJ98YDZSMH4SUJGA", "current_trial": 136, "dateTime": 1509290692317, "trialdata": {"rt": -1, "stimulus": "<p id=\"stim\">RADISH</p>", "key_press": -1, "type": "PRES_VIS", "word": "radish", "wordID": 1157, "conditions": [12, 1600, "v", 24000], "trial": 3, "serialpos": 7, "trial_type": "single-stim", "trial_index": 136, "time_elapsed": 776155, "internal_node_id": "0.0-100.0"}}, {"uniqueid": "MTK0146:320DUZ38G8T8TEXJ98YDZSMH4SUJGA", "current_trial": 137, "dateTime": 1509290694936, "trialdata": {"rt": -1, "stimulus": "<p id=\"stim\">KIDNEY</p>", "key_press": -1, "type": "PRES_VIS", "word": "kidney", "wordID": 775, "conditions": [12, 1600, "v", 24000], "trial": 3, "serialpos": 8, "trial_type": "single-stim", "trial_index": 137, "time_elapsed": 778773, "internal_node_id": "0.0-101.0"}}, {"uniqueid": "MTK0146:320DUZ38G8T8TEXJ98YDZSMH4SUJGA", "current_trial": 138, "dateTime": 1509290697352, "trialdata": {"rt": -1, "stimulus": "<p id=\"stim\">LIVER</p>", "key_press": -1, "type": "PRES_VIS", "word": "liver", "wordID": 832, "conditions": [12, 1600, "v", 24000], "trial": 3, "serialpos": 9, "trial_type": "single-stim", "trial_index": 138, "time_elapsed": 781189, "internal_node_id": "0.0-102.0"}}, {"uniqueid": "MTK0146:320DUZ38G8T8TEXJ98YDZSMH4SUJGA", "current_trial": 139, "dateTime": 1509290699805, "trialdata": {"rt": -1, "stimulus": "<p id=\"stim\">CROWN</p>", "key_press": -1, "type": "PRES_VIS", "word": "crown", "wordID": 414, "conditions": [12, 1600, "v", 24000], "trial": 3, "serialpos": 10, "trial_type": "single-stim", "trial_index": 139, "time_elapsed": 783643, "internal_node_id": "0.0-103.0"}}, {"uniqueid": "MTK0146:320DUZ38G8T8TEXJ98YDZSMH4SUJGA", "current_trial": 140, "dateTime": 1509290702594, "trialdata": {"rt": -1, "stimulus": "<p id=\"stim\">DAISY</p>", "key_press": -1, "type": "PRES_VIS", "word": "daisy", "wordID": 434, "conditions": [12, 1600, "v", 24000], "trial": 3, "serialpos": 11, "trial_type": "single-stim", "trial_index": 140, "time_elapsed": 786432, "internal_node_id": "0.0-104.0"}}, {"uniqueid": "MTK0146:320DUZ38G8T8TEXJ98YDZSMH4SUJGA", "current_trial": 141, "dateTime": 1509290704900, "trialdata": {"rt": -1, "stimulus": "", "key_press": -1, "type": "PRE_RECALL_DELAY", "trial_type": "single-stim", "trial_index": 141, "time_elapsed": 788738, "internal_node_id": "0.0-105.0-0.0"}}, {"uniqueid": "MTK0146:320DUZ38G8T8TEXJ98YDZSMH4SUJGA", "current_trial": 142, "dateTime": 1509290705401, "trialdata": {"rt": -1000, "stimulus": "/static/audio/400Hz.wav", "key_press": -1, "type": "PRE_RECALL_ALERT", "trial_type": "single-audio", "trial_index": 142, "time_elapsed": 789238, "internal_node_id": "0.0-106.0"}}, {"uniqueid": "MTK0146:320DUZ38G8T8TEXJ98YDZSMH4SUJGA", "current_trial": 143, "dateTime": 1509290765404, "trialdata": {"rt": [5645, 9013, 11245, 13685, 16061, 19757, 23101, 25302, 29813, 34453, 36869], "recwords": ["crown", "daisy", "liver", "kidney", "radish", "preacher", "fruit", "sandwich", "lily", "fruit", "world"], "type": "FREE_RECALL", "conditions": [12, 1600, "v", 24000], "trial": 3, "trial_type": "free-recall", "trial_index": 143, "time_elapsed": 849240, "internal_node_id": "0.0-107.0-0.0"}}, {"uniqueid": "MTK0146:320DUZ38G8T8TEXJ98YDZSMH4SUJGA", "current_trial": 144, "dateTime": 1509290771207, "trialdata": {"rt": 3797, "key_press": 75, "type": "INSTRUCTIONS", "trial_type": "text", "trial_index": 144, "time_elapsed": 855045, "internal_node_id": "0.0-108.0"}}, {"uniqueid": "MTK0146:320DUZ38G8T8TEXJ98YDZSMH4SUJGA", "current_trial": 145, "dateTime": 1509290785210, "trialdata": {"rt": [2661, 5109, 7037, 10677], "responses": ["12", "17", "5", "20"], "num1": [2, 7, 1, 5, 2], "num2": [4, 8, 1, 6, 1], "num3": [6, 2, 3, 9, 3], "type": "DISTRACTOR", "conditions": [24, 800, "v", 12000], "trial": 4, "trial_type": "math-distractor", "trial_index": 145, "time_elapsed": 869048, "internal_node_id": "0.0-109.0"}}, {"uniqueid": "MTK0146:320DUZ38G8T8TEXJ98YDZSMH4SUJGA", "current_trial": 146, "dateTime": 1509290788211, "trialdata": {"rt": -1, "stimulus": "<p id=\"stim\">10</p>", "key_press": -1, "trial_type": "single-stim", "trial_index": 146, "time_elapsed": 872049, "internal_node_id": "0.0-110.0-0.0"}}, {"uniqueid": "MTK0146:320DUZ38G8T8TEXJ98YDZSMH4SUJGA", "current_trial": 147, "dateTime": 1509290789212, "trialdata": {"rt": -1, "stimulus": "<p id=\"stim\">9</p>", "key_press": -1, "trial_type": "single-stim", "trial_index": 147, "time_elapsed": 873050, "internal_node_id": "0.0-110.0-1.0"}}, {"uniqueid": "MTK0146:320DUZ38G8T8TEXJ98YDZSMH4SUJGA", "current_trial": 148, "dateTime": 1509290790212, "trialdata": {"rt": -1, "stimulus": "<p id=\"stim\">8</p>", "key_press": -1, "trial_type": "single-stim", "trial_index": 148, "time_elapsed": 874050, "internal_node_id": "0.0-110.0-2.0"}}, {"uniqueid": "MTK0146:320DUZ38G8T8TEXJ98YDZSMH4SUJGA", "current_trial": 149, "dateTime": 1509290791212, "trialdata": {"rt": -1, "stimulus": "<p id=\"stim\">7</p>", "key_press": -1, "trial_type": "single-stim", "trial_index": 149, "time_elapsed": 875050, "internal_node_id": "0.0-110.0-3.0"}}, {"uniqueid": "MTK0146:320DUZ38G8T8TEXJ98YDZSMH4SUJGA", "current_trial": 150, "dateTime": 1509290792213, "trialdata": {"rt": -1, "stimulus": "<p id=\"stim\">6</p>", "key_press": -1, "trial_type": "single-stim", "trial_index": 150, "time_elapsed": 876051, "internal_node_id": "0.0-110.0-4.0"}}, {"uniqueid": "MTK0146:320DUZ38G8T8TEXJ98YDZSMH4SUJGA", "current_trial": 151, "dateTime": 1509290793215, "trialdata": {"rt": -1, "stimulus": "<p id=\"stim\">5</p>", "key_press": -1, "trial_type": "single-stim", "trial_index": 151, "time_elapsed": 877053, "internal_node_id": "0.0-110.0-5.0"}}, {"uniqueid": "MTK0146:320DUZ38G8T8TEXJ98YDZSMH4SUJGA", "current_trial": 152, "dateTime": 1509290794216, "trialdata": {"rt": -1, "stimulus": "<p id=\"stim\">4</p>", "key_press": -1, "trial_type": "single-stim", "trial_index": 152, "time_elapsed": 878054, "internal_node_id": "0.0-110.0-6.0"}}, {"uniqueid": "MTK0146:320DUZ38G8T8TEXJ98YDZSMH4SUJGA", "current_trial": 153, "dateTime": 1509290795217, "trialdata": {"rt": -1, "stimulus": "<p id=\"stim\">3</p>", "key_press": -1, "trial_type": "single-stim", "trial_index": 153, "time_elapsed": 879055, "internal_node_id": "0.0-110.0-7.0"}}, {"uniqueid": "MTK0146:320DUZ38G8T8TEXJ98YDZSMH4SUJGA", "current_trial": 154, "dateTime": 1509290796218, "trialdata": {"rt": -1, "stimulus": "<p id=\"stim\">2</p>", "key_press": -1, "trial_type": "single-stim", "trial_index": 154, "time_elapsed": 880056, "internal_node_id": "0.0-110.0-8.0"}}, {"uniqueid": "MTK0146:320DUZ38G8T8TEXJ98YDZSMH4SUJGA", "current_trial": 155, "dateTime": 1509290797219, "trialdata": {"rt": -1, "stimulus": "<p id=\"stim\">1</p>", "key_press": -1, "trial_type": "single-stim", "trial_index": 155, "time_elapsed": 881056, "internal_node_id": "0.0-110.0-9.0"}}, {"uniqueid": "MTK0146:320DUZ38G8T8TEXJ98YDZSMH4SUJGA", "current_trial": 156, "dateTime": 1509290798720, "trialdata": {"rt": -1, "stimulus": "<p id=\"stim\">+</p>", "key_press": -1, "type": "FIXATION", "trial_type": "single-stim", "trial_index": 156, "time_elapsed": 882558, "internal_node_id": "0.0-111.0-0.0"}}, {"uniqueid": "MTK0146:320DUZ38G8T8TEXJ98YDZSMH4SUJGA", "current_trial": 157, "dateTime": 1509290799522, "trialdata": {"rt": -1, "stimulus": "<p id=\"stim\">ROBBER</p>", "key_press": -1, "type": "PRES_VIS", "word": "robber", "wordID": 1196, "conditions": [24, 800, "v", 12000], "trial": 4, "serialpos": 0, "trial_type": "single-stim", "trial_index": 157, "time_elapsed": 883359, "internal_node_id": "0.0-112.0"}}, {"uniqueid": "MTK0146:320DUZ38G8T8TEXJ98YDZSMH4SUJGA", "current_trial": 158, "dateTime": 1509290801478, "trialdata": {"rt": -1, "stimulus": "<p id=\"stim\">CHAPEL</p>", "key_press": -1, "type": "PRES_VIS", "word": "chapel", "wordID": 279, "conditions": [24, 800, "v", 12000], "trial": 4, "serialpos": 1, "trial_type": "single-stim", "trial_index": 158, "time_elapsed": 885316, "internal_node_id": "0.0-113.0"}}, {"uniqueid": "MTK0146:320DUZ38G8T8TEXJ98YDZSMH4SUJGA", "current_trial": 159, "dateTime": 1509290803160, "trialdata": {"rt": -1, "stimulus": "<p id=\"stim\">BADGE</p>", "key_press": -1, "type": "PRES_VIS", "word": "badge", "wordID": 67, "conditions": [24, 800, "v", 12000], "trial": 4, "serialpos": 2, "trial_type": "single-stim", "trial_index": 159, "time_elapsed": 886998, "internal_node_id": "0.0-114.0"}}, {"uniqueid": "MTK0146:320DUZ38G8T8TEXJ98YDZSMH4SUJGA", "current_trial": 160, "dateTime": 1509290804804, "trialdata": {"rt": -1, "stimulus": "<p id=\"stim\">WRIST</p>", "key_press": -1, "type": "PRES_VIS", "word": "wrist", "wordID": 1625, "conditions": [24, 800, "v", 12000], "trial": 4, "serialpos": 3, "trial_type": "single-stim", "trial_index": 160, "time_elapsed": 888641, "internal_node_id": "0.0-115.0"}}, {"uniqueid": "MTK0146:320DUZ38G8T8TEXJ98YDZSMH4SUJGA", "current_trial": 161, "dateTime": 1509290806739, "trialdata": {"rt": -1, "stimulus": "<p id=\"stim\">FINGER</p>", "key_press": -1, "type": "PRES_VIS", "word": "finger", "wordID": 566, "conditions": [24, 800, "v", 12000], "trial": 4, "serialpos": 4, "trial_type": "single-stim", "trial_index": 161, "time_elapsed": 890577, "internal_node_id": "0.0-116.0"}}, {"uniqueid": "MTK0146:320DUZ38G8T8TEXJ98YDZSMH4SUJGA", "current_trial": 162, "dateTime": 1509290808541, "trialdata": {"rt": -1, "stimulus": "<p id=\"stim\">PLASTER</p>", "key_press": -1, "type": "PRES_VIS", "word": "plaster", "wordID": 1084, "conditions": [24, 800, "v", 12000], "trial": 4, "serialpos": 5, "trial_type": "single-stim", "trial_index": 162, "time_elapsed": 892379, "internal_node_id": "0.0-117.0"}}, {"uniqueid": "MTK0146:320DUZ38G8T8TEXJ98YDZSMH4SUJGA", "current_trial": 163, "dateTime": 1509290810218, "trialdata": {"rt": -1, "stimulus": "<p id=\"stim\">LAMP</p>", "key_press": -1, "type": "PRES_VIS", "word": "lamp", "wordID": 797, "conditions": [24, 800, "v", 12000], "trial": 4, "serialpos": 6, "trial_type": "single-stim", "trial_index": 163, "time_elapsed": 894056, "internal_node_id": "0.0-118.0"}}, {"uniqueid": "MTK0146:320DUZ38G8T8TEXJ98YDZSMH4SUJGA", "current_trial": 164, "dateTime": 1509290812215, "trialdata": {"rt": -1, "stimulus": "<p id=\"stim\">NURSE</p>", "key_press": -1, "type": "PRES_VIS", "word": "nurse", "wordID": 962, "conditions": [24, 800, "v", 12000], "trial": 4, "serialpos": 7, "trial_type": "single-stim", "trial_index": 164, "time_elapsed": 896053, "internal_node_id": "0.0-119.0"}}, {"uniqueid": "MTK0146:320DUZ38G8T8TEXJ98YDZSMH4SUJGA", "current_trial": 165, "dateTime": 1509290814205, "trialdata": {"rt": -1, "stimulus": "<p id=\"stim\">WIDOW</p>", "key_press": -1, "type": "PRES_VIS", "word": "widow", "wordID": 1607, "conditions": [24, 800, "v", 12000], "trial": 4, "serialpos": 8, "trial_type": "single-stim", "trial_index": 165, "time_elapsed": 898043, "internal_node_id": "0.0-120.0"}}, {"uniqueid": "MTK0146:320DUZ38G8T8TEXJ98YDZSMH4SUJGA", "current_trial": 166, "dateTime": 1509290815908, "trialdata": {"rt": -1, "stimulus": "<p id=\"stim\">MUSTARD</p>", "key_press": -1, "type": "PRES_VIS", "word": "mustard", "wordID": 934, "conditions": [24, 800, "v", 12000], "trial": 4, "serialpos": 9, "trial_type": "single-stim", "trial_index": 166, "time_elapsed": 899746, "internal_node_id": "0.0-121.0"}}, {"uniqueid": "MTK0146:320DUZ38G8T8TEXJ98YDZSMH4SUJGA", "current_trial": 167, "dateTime": 1509290817596, "trialdata": {"rt": -1, "stimulus": "<p id=\"stim\">DRINK</p>", "key_press": -1, "type": "PRES_VIS", "word": "drink", "wordID": 497, "conditions": [24, 800, "v", 12000], "trial": 4, "serialpos": 10, "trial_type": "single-stim", "trial_index": 167, "time_elapsed": 901434, "internal_node_id": "0.0-122.0"}}, {"uniqueid": "MTK0146:320DUZ38G8T8TEXJ98YDZSMH4SUJGA", "current_trial": 168, "dateTime": 1509290819575, "trialdata": {"rt": -1, "stimulus": "<p id=\"stim\">THIEF</p>", "key_press": -1, "type": "PRES_VIS", "word": "thief", "wordID": 1455, "conditions": [24, 800, "v", 12000], "trial": 4, "serialpos": 11, "trial_type": "single-stim", "trial_index": 168, "time_elapsed": 903413, "internal_node_id": "0.0-123.0"}}, {"uniqueid": "MTK0146:320DUZ38G8T8TEXJ98YDZSMH4SUJGA", "current_trial": 169, "dateTime": 1509290821574, "trialdata": {"rt": -1, "stimulus": "<p id=\"stim\">BEEF</p>", "key_press": -1, "type": "PRES_VIS", "word": "beef", "wordID": 112, "conditions": [24, 800, "v", 12000], "trial": 4, "serialpos": 12, "trial_type": "single-stim", "trial_index": 169, "time_elapsed": 905412, "internal_node_id": "0.0-124.0"}}, {"uniqueid": "MTK0146:320DUZ38G8T8TEXJ98YDZSMH4SUJGA", "current_trial": 170, "dateTime": 1509290823197, "trialdata": {"rt": -1, "stimulus": "<p id=\"stim\">HAMPER</p>", "key_press": -1, "type": "PRES_VIS", "word": "hamper", "wordID": 681, "conditions": [24, 800, "v", 12000], "trial": 4, "serialpos": 13, "trial_type": "single-stim", "trial_index": 170, "time_elapsed": 907035, "internal_node_id": "0.0-125.0"}}, {"uniqueid": "MTK0146:320DUZ38G8T8TEXJ98YDZSMH4SUJGA", "current_trial": 171, "dateTime": 1509290825118, "trialdata": {"rt": -1, "stimulus": "<p id=\"stim\">BRACES</p>", "key_press": -1, "type": "PRES_VIS", "word": "braces", "wordID": 163, "conditions": [24, 800, "v", 12000], "trial": 4, "serialpos": 14, "trial_type": "single-stim", "trial_index": 171, "time_elapsed": 908955, "internal_node_id": "0.0-126.0"}}, {"uniqueid": "MTK0146:320DUZ38G8T8TEXJ98YDZSMH4SUJGA", "current_trial": 172, "dateTime": 1509290826955, "trialdata": {"rt": -1, "stimulus": "<p id=\"stim\">INMATE</p>", "key_press": -1, "type": "PRES_VIS", "word": "inmate", "wordID": 737, "conditions": [24, 800, "v", 12000], "trial": 4, "serialpos": 15, "trial_type": "single-stim", "trial_index": 172, "time_elapsed": 910793, "internal_node_id": "0.0-127.0"}}, {"uniqueid": "MTK0146:320DUZ38G8T8TEXJ98YDZSMH4SUJGA", "current_trial": 173, "dateTime": 1509290828872, "trialdata": {"rt": -1, "stimulus": "<p id=\"stim\">CATTLE</p>", "key_press": -1, "type": "PRES_VIS", "word": "cattle", "wordID": 260, "conditions": [24, 800, "v", 12000], "trial": 4, "serialpos": 16, "trial_type": "single-stim", "trial_index": 173, "time_elapsed": 912710, "internal_node_id": "0.0-128.0"}}, {"uniqueid": "MTK0146:320DUZ38G8T8TEXJ98YDZSMH4SUJGA", "current_trial": 174, "dateTime": 1509290830632, "trialdata": {"rt": -1, "stimulus": "<p id=\"stim\">LETTUCE</p>", "key_press": -1, "type": "PRES_VIS", "word": "lettuce", "wordID": 813, "conditions": [24, 800, "v", 12000], "trial": 4, "serialpos": 17, "trial_type": "single-stim", "trial_index": 174, "time_elapsed": 914469, "internal_node_id": "0.0-129.0"}}, {"uniqueid": "MTK0146:320DUZ38G8T8TEXJ98YDZSMH4SUJGA", "current_trial": 175, "dateTime": 1509290832313, "trialdata": {"rt": -1, "stimulus": "<p id=\"stim\">ARM</p>", "key_press": -1, "type": "PRES_VIS", "word": "arm", "wordID": 37, "conditions": [24, 800, "v", 12000], "trial": 4, "serialpos": 18, "trial_type": "single-stim", "trial_index": 175, "time_elapsed": 916151, "internal_node_id": "0.0-130.0"}}, {"uniqueid": "MTK0146:320DUZ38G8T8TEXJ98YDZSMH4SUJGA", "current_trial": 176, "dateTime": 1509290834008, "trialdata": {"rt": -1, "stimulus": "<p id=\"stim\">BANK</p>", "key_press": -1, "type": "PRES_VIS", "word": "bank", "wordID": 82, "conditions": [24, 800, "v", 12000], "trial": 4, "serialpos": 19, "trial_type": "single-stim", "trial_index": 176, "time_elapsed": 917845, "internal_node_id": "0.0-131.0"}}, {"uniqueid": "MTK0146:320DUZ38G8T8TEXJ98YDZSMH4SUJGA", "current_trial": 177, "dateTime": 1509290835796, "trialdata": {"rt": -1, "stimulus": "<p id=\"stim\">LONDON</p>", "key_press": -1, "type": "PRES_VIS", "word": "london", "wordID": 842, "conditions": [24, 800, "v", 12000], "trial": 4, "serialpos": 20, "trial_type": "single-stim", "trial_index": 177, "time_elapsed": 919633, "internal_node_id": "0.0-132.0"}}, {"uniqueid": "MTK0146:320DUZ38G8T8TEXJ98YDZSMH4SUJGA", "current_trial": 178, "dateTime": 1509290837712, "trialdata": {"rt": -1, "stimulus": "<p id=\"stim\">FRANCE</p>", "key_press": -1, "type": "PRES_VIS", "word": "france", "wordID": 600, "conditions": [24, 800, "v", 12000], "trial": 4, "serialpos": 21, "trial_type": "single-stim", "trial_index": 178, "time_elapsed": 921549, "internal_node_id": "0.0-133.0"}}, {"uniqueid": "MTK0146:320DUZ38G8T8TEXJ98YDZSMH4SUJGA", "current_trial": 179, "dateTime": 1509290839595, "trialdata": {"rt": -1, "stimulus": "<p id=\"stim\">SOFTBALL</p>", "key_press": -1, "type": "PRES_VIS", "word": "softball", "wordID": 1342, "conditions": [24, 800, "v", 12000], "trial": 4, "serialpos": 22, "trial_type": "single-stim", "trial_index": 179, "time_elapsed": 923432, "internal_node_id": "0.0-134.0"}}, {"uniqueid": "MTK0146:320DUZ38G8T8TEXJ98YDZSMH4SUJGA", "current_trial": 180, "dateTime": 1509290841430, "trialdata": {"rt": -1, "stimulus": "<p id=\"stim\">KLEENEX</p>", "key_press": -1, "type": "PRES_VIS", "word": "kleenex", "wordID": 781, "conditions": [24, 800, "v", 12000], "trial": 4, "serialpos": 23, "trial_type": "single-stim", "trial_index": 180, "time_elapsed": 925267, "internal_node_id": "0.0-135.0"}}, {"uniqueid": "MTK0146:320DUZ38G8T8TEXJ98YDZSMH4SUJGA", "current_trial": 181, "dateTime": 1509290843749, "trialdata": {"rt": -1, "stimulus": "", "key_press": -1, "type": "PRE_RECALL_DELAY", "trial_type": "single-stim", "trial_index": 181, "time_elapsed": 927587, "internal_node_id": "0.0-136.0-0.0"}}, {"uniqueid": "MTK0146:320DUZ38G8T8TEXJ98YDZSMH4SUJGA", "current_trial": 182, "dateTime": 1509290844250, "trialdata": {"rt": -1000, "stimulus": "/static/audio/400Hz.wav", "key_press": -1, "type": "PRE_RECALL_ALERT", "trial_type": "single-audio", "trial_index": 182, "time_elapsed": 928087, "internal_node_id": "0.0-137.0"}}, {"uniqueid": "MTK0146:320DUZ38G8T8TEXJ98YDZSMH4SUJGA", "current_trial": 183, "dateTime": 1509290904253, "trialdata": {"rt": [5604, 8148, 10124, 15172, 18060, 20444, 23557, 26156, 30388, 33732, 35708, 41076, 46636, 49612, 51484, 53876], "recwords": ["arm", "drink", "window", "mustard", "nurse", "lamp", "cattle", "beef", "badge", "wrist", "finger", "window", "inmate", "bank", "london", "softball"], "type": "FREE_RECALL", "conditions": [24, 800, "v", 12000], "trial": 4, "trial_type": "free-recall", "trial_index": 183, "time_elapsed": 988089, "internal_node_id": "0.0-138.0-0.0"}}, {"uniqueid": "MTK0146:320DUZ38G8T8TEXJ98YDZSMH4SUJGA", "current_trial": 184, "dateTime": 1509290907991, "trialdata": {"rt": 1735, "key_press": 73, "type": "INSTRUCTIONS", "trial_type": "text", "trial_index": 184, "time_elapsed": 991829, "internal_node_id": "0.0-139.0"}}, {"uniqueid": "MTK0146:320DUZ38G8T8TEXJ98YDZSMH4SUJGA", "current_trial": 185, "dateTime": 1509290933993, "trialdata": {"rt": [4188, 7654, 11358, 14414, 22942], "responses": ["15", "10", "20", "7", "22"], "num1": [8, 2, 3, 5, 7, 5], "num2": [6, 5, 8, 1, 9, 9], "num3": [1, 3, 9, 1, 6, 4], "type": "DISTRACTOR", "conditions": [12, 1600, "a", 24000], "trial": 5, "trial_type": "math-distractor", "trial_index": 185, "time_elapsed": 1017831, "internal_node_id": "0.0-140.0"}}, {"uniqueid": "MTK0146:320DUZ38G8T8TEXJ98YDZSMH4SUJGA", "current_trial": 186, "dateTime": 1509290936994, "trialdata": {"rt": -1, "stimulus": "<p id=\"stim\">10</p>", "key_press": -1, "trial_type": "single-stim", "trial_index": 186, "time_elapsed": 1020832, "internal_node_id": "0.0-141.0-0.0"}}, {"uniqueid": "MTK0146:320DUZ38G8T8TEXJ98YDZSMH4SUJGA", "current_trial": 187, "dateTime": 1509290938002, "trialdata": {"rt": -1, "stimulus": "<p id=\"stim\">9</p>", "key_press": -1, "trial_type": "single-stim", "trial_index": 187, "time_elapsed": 1021840, "internal_node_id": "0.0-141.0-1.0"}}, {"uniqueid": "MTK0146:320DUZ38G8T8TEXJ98YDZSMH4SUJGA", "current_trial": 188, "dateTime": 1509290939003, "trialdata": {"rt": -1, "stimulus": "<p id=\"stim\">8</p>", "key_press": -1, "trial_type": "single-stim", "trial_index": 188, "time_elapsed": 1022841, "internal_node_id": "0.0-141.0-2.0"}}, {"uniqueid": "MTK0146:320DUZ38G8T8TEXJ98YDZSMH4SUJGA", "current_trial": 189, "dateTime": 1509290940007, "trialdata": {"rt": -1, "stimulus": "<p id=\"stim\">7</p>", "key_press": -1, "trial_type": "single-stim", "trial_index": 189, "time_elapsed": 1023845, "internal_node_id": "0.0-141.0-3.0"}}, {"uniqueid": "MTK0146:320DUZ38G8T8TEXJ98YDZSMH4SUJGA", "current_trial": 190, "dateTime": 1509290941008, "trialdata": {"rt": -1, "stimulus": "<p id=\"stim\">6</p>", "key_press": -1, "trial_type": "single-stim", "trial_index": 190, "time_elapsed": 1024846, "internal_node_id": "0.0-141.0-4.0"}}, {"uniqueid": "MTK0146:320DUZ38G8T8TEXJ98YDZSMH4SUJGA", "current_trial": 191, "dateTime": 1509290942008, "trialdata": {"rt": -1, "stimulus": "<p id=\"stim\">5</p>", "key_press": -1, "trial_type": "single-stim", "trial_index": 191, "time_elapsed": 1025846, "internal_node_id": "0.0-141.0-5.0"}}, {"uniqueid": "MTK0146:320DUZ38G8T8TEXJ98YDZSMH4SUJGA", "current_trial": 192, "dateTime": 1509290943009, "trialdata": {"rt": -1, "stimulus": "<p id=\"stim\">4</p>", "key_press": -1, "trial_type": "single-stim", "trial_index": 192, "time_elapsed": 1026846, "internal_node_id": "0.0-141.0-6.0"}}, {"uniqueid": "MTK0146:320DUZ38G8T8TEXJ98YDZSMH4SUJGA", "current_trial": 193, "dateTime": 1509290944010, "trialdata": {"rt": -1, "stimulus": "<p id=\"stim\">3</p>", "key_press": -1, "trial_type": "single-stim", "trial_index": 193, "time_elapsed": 1027848, "internal_node_id": "0.0-141.0-7.0"}}, {"uniqueid": "MTK0146:320DUZ38G8T8TEXJ98YDZSMH4SUJGA", "current_trial": 194, "dateTime": 1509290945011, "trialdata": {"rt": -1, "stimulus": "<p id=\"stim\">2</p>", "key_press": -1, "trial_type": "single-stim", "trial_index": 194, "time_elapsed": 1028849, "internal_node_id": "0.0-141.0-8.0"}}, {"uniqueid": "MTK0146:320DUZ38G8T8TEXJ98YDZSMH4SUJGA", "current_trial": 195, "dateTime": 1509290946012, "trialdata": {"rt": -1, "stimulus": "<p id=\"stim\">1</p>", "key_press": -1, "trial_type": "single-stim", "trial_index": 195, "time_elapsed": 1029850, "internal_node_id": "0.0-141.0-9.0"}}, {"uniqueid": "MTK0146:320DUZ38G8T8TEXJ98YDZSMH4SUJGA", "current_trial": 196, "dateTime": 1509290947512, "trialdata": {"rt": -1, "stimulus": "<p id=\"stim\">+</p>", "key_press": -1, "type": "FIXATION", "trial_type": "single-stim", "trial_index": 196, "time_elapsed": 1031350, "internal_node_id": "0.0-142.0-0.0"}}, {"uniqueid": "MTK0146:320DUZ38G8T8TEXJ98YDZSMH4SUJGA", "current_trial": 197, "dateTime": 1509290950141, "trialdata": {"rt": -1000, "stimulus": "/static/audio/wordpool/SHRUB.wav", "key_press": -1, "type": "PRES_AUD", "word": "shrub", "wordID": 1298, "conditions": [12, 1600, "a", 24000], "trial": 5, "serialpos": 0, "trial_type": "single-audio", "trial_index": 197, "time_elapsed": 1033979, "internal_node_id": "0.0-143.0"}}, {"uniqueid": "MTK0146:320DUZ38G8T8TEXJ98YDZSMH4SUJGA", "current_trial": 198, "dateTime": 1509290952910, "trialdata": {"rt": -1000, "stimulus": "/static/audio/wordpool/AIRPLANE.wav", "key_press": -1, "type": "PRES_AUD", "word": "airplane", "wordID": 11, "conditions": [12, 1600, "a", 24000], "trial": 5, "serialpos": 1, "trial_type": "single-audio", "trial_index": 198, "time_elapsed": 1036747, "internal_node_id": "0.0-144.0"}}, {"uniqueid": "MTK0146:320DUZ38G8T8TEXJ98YDZSMH4SUJGA", "current_trial": 199, "dateTime": 1509290955509, "trialdata": {"rt": -1000, "stimulus": "/static/audio/wordpool/BASEMENT.wav", "key_press": -1, "type": "PRES_AUD", "word": "basement", "wordID": 93, "conditions": [12, 1600, "a", 24000], "trial": 5, "serialpos": 2, "trial_type": "single-audio", "trial_index": 199, "time_elapsed": 1039347, "internal_node_id": "0.0-145.0"}}, {"uniqueid": "MTK0146:320DUZ38G8T8TEXJ98YDZSMH4SUJGA", "current_trial": 200, "dateTime": 1509290957979, "trialdata": {"rt": -1000, "stimulus": "/static/audio/wordpool/FLESH.wav", "key_press": -1, "type": "PRES_AUD", "word": "flesh", "wordID": 578, "conditions": [12, 1600, "a", 24000], "trial": 5, "serialpos": 3, "trial_type": "single-audio", "trial_index": 200, "time_elapsed": 1041817, "internal_node_id": "0.0-146.0"}}, {"uniqueid": "MTK0146:320DUZ38G8T8TEXJ98YDZSMH4SUJGA", "current_trial": 201, "dateTime": 1509290960451, "trialdata": {"rt": -1000, "stimulus": "/static/audio/wordpool/DENTIST.wav", "key_press": -1, "type": "PRES_AUD", "word": "dentist", "wordID": 446, "conditions": [12, 1600, "a", 24000], "trial": 5, "serialpos": 4, "trial_type": "single-audio", "trial_index": 201, "time_elapsed": 1044289, "internal_node_id": "0.0-147.0"}}, {"uniqueid": "MTK0146:320DUZ38G8T8TEXJ98YDZSMH4SUJGA", "current_trial": 202, "dateTime": 1509290963061, "trialdata": {"rt": -1000, "stimulus": "/static/audio/wordpool/WORKER.wav", "key_press": -1, "type": "PRES_AUD", "word": "worker", "wordID": 1620, "conditions": [12, 1600, "a", 24000], "trial": 5, "serialpos": 5, "trial_type": "single-audio", "trial_index": 202, "time_elapsed": 1046899, "internal_node_id": "0.0-148.0"}}, {"uniqueid": "MTK0146:320DUZ38G8T8TEXJ98YDZSMH4SUJGA", "current_trial": 203, "dateTime": 1509290965754, "trialdata": {"rt": -1000, "stimulus": "/static/audio/wordpool/SPOUSE.wav", "key_press": -1, "type": "PRES_AUD", "word": "spouse", "wordID": 1357, "conditions": [12, 1600, "a", 24000], "trial": 5, "serialpos": 6, "trial_type": "single-audio", "trial_index": 203, "time_elapsed": 1049592, "internal_node_id": "0.0-149.0"}}, {"uniqueid": "MTK0146:320DUZ38G8T8TEXJ98YDZSMH4SUJGA", "current_trial": 204, "dateTime": 1509290968348, "trialdata": {"rt": -1000, "stimulus": "/static/audio/wordpool/CANYON.wav", "key_press": -1, "type": "PRES_AUD", "word": "canyon", "wordID": 234, "conditions": [12, 1600, "a", 24000], "trial": 5, "serialpos": 7, "trial_type": "single-audio", "trial_index": 204, "time_elapsed": 1052186, "internal_node_id": "0.0-150.0"}}, {"uniqueid": "MTK0146:320DUZ38G8T8TEXJ98YDZSMH4SUJGA", "current_trial": 205, "dateTime": 1509290971087, "trialdata": {"rt": -1000, "stimulus": "/static/audio/wordpool/ORCHID.wav", "key_press": -1, "type": "PRES_AUD", "word": "orchid", "wordID": 981, "conditions": [12, 1600, "a", 24000], "trial": 5, "serialpos": 8, "trial_type": "single-audio", "trial_index": 205, "time_elapsed": 1054925, "internal_node_id": "0.0-151.0"}}, {"uniqueid": "MTK0146:320DUZ38G8T8TEXJ98YDZSMH4SUJGA", "current_trial": 206, "dateTime": 1509290973598, "trialdata": {"rt": -1000, "stimulus": "/static/audio/wordpool/SISTER.wav", "key_press": -1, "type": "PRES_AUD", "word": "sister", "wordID": 1311, "conditions": [12, 1600, "a", 24000], "trial": 5, "serialpos": 9, "trial_type": "single-audio", "trial_index": 206, "time_elapsed": 1057436, "internal_node_id": "0.0-152.0"}}, {"uniqueid": "MTK0146:320DUZ38G8T8TEXJ98YDZSMH4SUJGA", "current_trial": 207, "dateTime": 1509290976199, "trialdata": {"rt": -1000, "stimulus": "/static/audio/wordpool/SALAD.wav", "key_press": -1, "type": "PRES_AUD", "word": "salad", "wordID": 1223, "conditions": [12, 1600, "a", 24000], "trial": 5, "serialpos": 10, "trial_type": "single-audio", "trial_index": 207, "time_elapsed": 1060037, "internal_node_id": "0.0-153.0"}}, {"uniqueid": "MTK0146:320DUZ38G8T8TEXJ98YDZSMH4SUJGA", "current_trial": 208, "dateTime": 1509290978930, "trialdata": {"rt": -1000, "stimulus": "/static/audio/wordpool/GARLIC.wav", "key_press": -1, "type": "PRES_AUD", "word": "garlic", "wordID": 623, "conditions": [12, 1600, "a", 24000], "trial": 5, "serialpos": 11, "trial_type": "single-audio", "trial_index": 208, "time_elapsed": 1062768, "internal_node_id": "0.0-154.0"}}, {"uniqueid": "MTK0146:320DUZ38G8T8TEXJ98YDZSMH4SUJGA", "current_trial": 209, "dateTime": 1509290980154, "trialdata": {"rt": -1, "stimulus": "", "key_press": -1, "type": "PRE_RECALL_DELAY", "trial_type": "single-stim", "trial_index": 209, "time_elapsed": 1063992, "internal_node_id": "0.0-155.0-0.0"}}, {"uniqueid": "MTK0146:320DUZ38G8T8TEXJ98YDZSMH4SUJGA", "current_trial": 210, "dateTime": 1509290980654, "trialdata": {"rt": -1000, "stimulus": "/static/audio/400Hz.wav", "key_press": -1, "type": "PRE_RECALL_ALERT", "trial_type": "single-audio", "trial_index": 210, "time_elapsed": 1064492, "internal_node_id": "0.0-156.0"}}, {"uniqueid": "MTK0146:320DUZ38G8T8TEXJ98YDZSMH4SUJGA", "current_trial": 211, "dateTime": 1509291040658, "trialdata": {"rt": [4142, 7094, 10590, 13454, 16270, 20582, 23022, 27166, 32334], "recwords": ["garlic", "sister", "salad", "worker", "dentist", "airplane", "shurb", "basement", "canyon"], "type": "FREE_RECALL", "conditions": [12, 1600, "a", 24000], "trial": 5, "trial_type": "free-recall", "trial_index": 211, "time_elapsed": 1124493, "internal_node_id": "0.0-157.0-0.0"}}, {"uniqueid": "MTK0146:320DUZ38G8T8TEXJ98YDZSMH4SUJGA", "current_trial": 212, "dateTime": 1509291045070, "trialdata": {"rt": 2412, "key_press": 73, "type": "INSTRUCTIONS", "trial_type": "text", "trial_index": 212, "time_elapsed": 1128908, "internal_node_id": "0.0-158.0"}}, {"uniqueid": "MTK0146:320DUZ38G8T8TEXJ98YDZSMH4SUJGA", "current_trial": 213, "dateTime": 1509291059072, "trialdata": {"rt": [4031, 10191], "responses": ["11", "21"], "num1": [5, 4, 8], "num2": [3, 9, 3], "num3": [3, 8, 1], "type": "DISTRACTOR", "conditions": [24, 1600, "a", 12000], "trial": 6, "trial_type": "math-distractor", "trial_index": 213, "time_elapsed": 1142910, "internal_node_id": "0.0-159.0"}}, {"uniqueid": "MTK0146:320DUZ38G8T8TEXJ98YDZSMH4SUJGA", "current_trial": 214, "dateTime": 1509291062083, "trialdata": {"rt": -1, "stimulus": "<p id=\"stim\">10</p>", "key_press": -1, "trial_type": "single-stim", "trial_index": 214, "time_elapsed": 1145921, "internal_node_id": "0.0-160.0-0.0"}}, {"uniqueid": "MTK0146:320DUZ38G8T8TEXJ98YDZSMH4SUJGA", "current_trial": 215, "dateTime": 1509291063084, "trialdata": {"rt": -1, "stimulus": "<p id=\"stim\">9</p>", "key_press": -1, "trial_type": "single-stim", "trial_index": 215, "time_elapsed": 1146922, "internal_node_id": "0.0-160.0-1.0"}}, {"uniqueid": "MTK0146:320DUZ38G8T8TEXJ98YDZSMH4SUJGA", "current_trial": 216, "dateTime": 1509291064084, "trialdata": {"rt": -1, "stimulus": "<p id=\"stim\">8</p>", "key_press": -1, "trial_type": "single-stim", "trial_index": 216, "time_elapsed": 1147922, "internal_node_id": "0.0-160.0-2.0"}}, {"uniqueid": "MTK0146:320DUZ38G8T8TEXJ98YDZSMH4SUJGA", "current_trial": 217, "dateTime": 1509291065085, "trialdata": {"rt": -1, "stimulus": "<p id=\"stim\">7</p>", "key_press": -1, "trial_type": "single-stim", "trial_index": 217, "time_elapsed": 1148923, "internal_node_id": "0.0-160.0-3.0"}}, {"uniqueid": "MTK0146:320DUZ38G8T8TEXJ98YDZSMH4SUJGA", "current_trial": 218, "dateTime": 1509291066085, "trialdata": {"rt": -1, "stimulus": "<p id=\"stim\">6</p>", "key_press": -1, "trial_type": "single-stim", "trial_index": 218, "time_elapsed": 1149923, "internal_node_id": "0.0-160.0-4.0"}}, {"uniqueid": "MTK0146:320DUZ38G8T8TEXJ98YDZSMH4SUJGA", "current_trial": 219, "dateTime": 1509291067086, "trialdata": {"rt": -1, "stimulus": "<p id=\"stim\">5</p>", "key_press": -1, "trial_type": "single-stim", "trial_index": 219, "time_elapsed": 1150924, "internal_node_id": "0.0-160.0-5.0"}}, {"uniqueid": "MTK0146:320DUZ38G8T8TEXJ98YDZSMH4SUJGA", "current_trial": 220, "dateTime": 1509291068088, "trialdata": {"rt": -1, "stimulus": "<p id=\"stim\">4</p>", "key_press": -1, "trial_type": "single-stim", "trial_index": 220, "time_elapsed": 1151925, "internal_node_id": "0.0-160.0-6.0"}}, {"uniqueid": "MTK0146:320DUZ38G8T8TEXJ98YDZSMH4SUJGA", "current_trial": 221, "dateTime": 1509291069088, "trialdata": {"rt": -1, "stimulus": "<p id=\"stim\">3</p>", "key_press": -1, "trial_type": "single-stim", "trial_index": 221, "time_elapsed": 1152926, "internal_node_id": "0.0-160.0-7.0"}}, {"uniqueid": "MTK0146:320DUZ38G8T8TEXJ98YDZSMH4SUJGA", "current_trial": 222, "dateTime": 1509291070088, "trialdata": {"rt": -1, "stimulus": "<p id=\"stim\">2</p>", "key_press": -1, "trial_type": "single-stim", "trial_index": 222, "time_elapsed": 1153926, "internal_node_id": "0.0-160.0-8.0"}}, {"uniqueid": "MTK0146:320DUZ38G8T8TEXJ98YDZSMH4SUJGA", "current_trial": 223, "dateTime": 1509291071089, "trialdata": {"rt": -1, "stimulus": "<p id=\"stim\">1</p>", "key_press": -1, "trial_type": "single-stim", "trial_index": 223, "time_elapsed": 1154927, "internal_node_id": "0.0-160.0-9.0"}}, {"uniqueid": "MTK0146:320DUZ38G8T8TEXJ98YDZSMH4SUJGA", "current_trial": 224, "dateTime": 1509291072590, "trialdata": {"rt": -1, "stimulus": "<p id=\"stim\">+</p>", "key_press": -1, "type": "FIXATION", "trial_type": "single-stim", "trial_index": 224, "time_elapsed": 1156428, "internal_node_id": "0.0-161.0-0.0"}}, {"uniqueid": "MTK0146:320DUZ38G8T8TEXJ98YDZSMH4SUJGA", "current_trial": 225, "dateTime": 1509291074991, "trialdata": {"rt": -1000, "stimulus": "/static/audio/wordpool/LASER.wav", "key_press": -1, "type": "PRES_AUD", "word": "laser", "wordID": 800, "conditions": [24, 1600, "a", 12000], "trial": 6, "serialpos": 0, "trial_type": "single-audio", "trial_index": 225, "time_elapsed": 1158829, "internal_node_id": "0.0-162.0"}}, {"uniqueid": "MTK0146:320DUZ38G8T8TEXJ98YDZSMH4SUJGA", "current_trial": 226, "dateTime": 1509291077487, "trialdata": {"rt": -1000, "stimulus": "/static/audio/wordpool/PLUTO.wav", "key_press": -1, "type": "PRES_AUD", "word": "pluto", "wordID": 1091, "conditions": [24, 1600, "a", 12000], "trial": 6, "serialpos": 1, "trial_type": "single-audio", "trial_index": 226, "time_elapsed": 1161325, "internal_node_id": "0.0-163.0"}}, {"uniqueid": "MTK0146:320DUZ38G8T8TEXJ98YDZSMH4SUJGA", "current_trial": 227, "dateTime": 1509291080172, "trialdata": {"rt": -1000, "stimulus": "/static/audio/wordpool/RUST.wav", "key_press": -1, "type": "PRES_AUD", "word": "rust", "wordID": 1218, "conditions": [24, 1600, "a", 12000], "trial": 6, "serialpos": 2, "trial_type": "single-audio", "trial_index": 227, "time_elapsed": 1164010, "internal_node_id": "0.0-164.0"}}, {"uniqueid": "MTK0146:320DUZ38G8T8TEXJ98YDZSMH4SUJGA", "current_trial": 228, "dateTime": 1509291082718, "trialdata": {"rt": -1000, "stimulus": "/static/audio/wordpool/ICING.wav", "key_press": -1, "type": "PRES_AUD", "word": "icing", "wordID": 731, "conditions": [24, 1600, "a", 12000], "trial": 6, "serialpos": 3, "trial_type": "single-audio", "trial_index": 228, "time_elapsed": 1166556, "internal_node_id": "0.0-165.0"}}, {"uniqueid": "MTK0146:320DUZ38G8T8TEXJ98YDZSMH4SUJGA", "current_trial": 229, "dateTime": 1509291085159, "trialdata": {"rt": -1000, "stimulus": "/static/audio/wordpool/COD.wav", "key_press": -1, "type": "PRES_AUD", "word": "cod", "wordID": 339, "conditions": [24, 1600, "a", 12000], "trial": 6, "serialpos": 4, "trial_type": "single-audio", "trial_index": 229, "time_elapsed": 1168997, "internal_node_id": "0.0-166.0"}}, {"uniqueid": "MTK0146:320DUZ38G8T8TEXJ98YDZSMH4SUJGA", "current_trial": 230, "dateTime": 1509291087830, "trialdata": {"rt": -1000, "stimulus": "/static/audio/wordpool/LUMBER.wav", "key_press": -1, "type": "PRES_AUD", "word": "lumber", "wordID": 847, "conditions": [24, 1600, "a", 12000], "trial": 6, "serialpos": 5, "trial_type": "single-audio", "trial_index": 230, "time_elapsed": 1171668, "internal_node_id": "0.0-167.0"}}, {"uniqueid": "MTK0146:320DUZ38G8T8TEXJ98YDZSMH4SUJGA", "current_trial": 231, "dateTime": 1509291090510, "trialdata": {"rt": -1000, "stimulus": "/static/audio/wordpool/BACKBONE.wav", "key_press": -1, "type": "PRES_AUD", "word": "backbone", "wordID": 65, "conditions": [24, 1600, "a", 12000], "trial": 6, "serialpos": 6, "trial_type": "single-audio", "trial_index": 231, "time_elapsed": 1174348, "internal_node_id": "0.0-168.0"}}, {"uniqueid": "MTK0146:320DUZ38G8T8TEXJ98YDZSMH4SUJGA", "current_trial": 232, "dateTime": 1509291093282, "trialdata": {"rt": -1000, "stimulus": "/static/audio/wordpool/SEAFOOD.wav", "key_press": -1, "type": "PRES_AUD", "word": "seafood", "wordID": 1259, "conditions": [24, 1600, "a", 12000], "trial": 6, "serialpos": 7, "trial_type": "single-audio", "trial_index": 232, "time_elapsed": 1177120, "internal_node_id": "0.0-169.0"}}, {"uniqueid": "MTK0146:320DUZ38G8T8TEXJ98YDZSMH4SUJGA", "current_trial": 233, "dateTime": 1509291095891, "trialdata": {"rt": -1000, "stimulus": "/static/audio/wordpool/STOVE.wav", "key_press": -1, "type": "PRES_AUD", "word": "stove", "wordID": 1387, "conditions": [24, 1600, "a", 12000], "trial": 6, "serialpos": 8, "trial_type": "single-audio", "trial_index": 233, "time_elapsed": 1179729, "internal_node_id": "0.0-170.0"}}, {"uniqueid": "MTK0146:320DUZ38G8T8TEXJ98YDZSMH4SUJGA", "current_trial": 234, "dateTime": 1509291098362, "trialdata": {"rt": -1000, "stimulus": "/static/audio/wordpool/COOK.wav", "key_press": -1, "type": "PRES_AUD", "word": "cook", "wordID": 371, "conditions": [24, 1600, "a", 12000], "trial": 6, "serialpos": 9, "trial_type": "single-audio", "trial_index": 234, "time_elapsed": 1182200, "internal_node_id": "0.0-171.0"}}, {"uniqueid": "MTK0146:320DUZ38G8T8TEXJ98YDZSMH4SUJGA", "current_trial": 235, "dateTime": 1509291100787, "trialdata": {"rt": -1000, "stimulus": "/static/audio/wordpool/GRILL.wav", "key_press": -1, "type": "PRES_AUD", "word": "grill", "wordID": 660, "conditions": [24, 1600, "a", 12000], "trial": 6, "serialpos": 10, "trial_type": "single-audio", "trial_index": 235, "time_elapsed": 1184625, "internal_node_id": "0.0-172.0"}}, {"uniqueid": "MTK0146:320DUZ38G8T8TEXJ98YDZSMH4SUJGA", "current_trial": 236, "dateTime": 1509291103367, "trialdata": {"rt": -1000, "stimulus": "/static/audio/wordpool/XEROX.wav", "key_press": -1, "type": "PRES_AUD", "word": "xerox", "wordID": 1627, "conditions": [24, 1600, "a", 12000], "trial": 6, "serialpos": 11, "trial_type": "single-audio", "trial_index": 236, "time_elapsed": 1187205, "internal_node_id": "0.0-173.0"}}, {"uniqueid": "MTK0146:320DUZ38G8T8TEXJ98YDZSMH4SUJGA", "current_trial": 237, "dateTime": 1509291106105, "trialdata": {"rt": -1000, "stimulus": "/static/audio/wordpool/DENIM.wav", "key_press": -1, "type": "PRES_AUD", "word": "denim", "wordID": 445, "conditions": [24, 1600, "a", 12000], "trial": 6, "serialpos": 12, "trial_type": "single-audio", "trial_index": 237, "time_elapsed": 1189942, "internal_node_id": "0.0-174.0"}}, {"uniqueid": "MTK0146:320DUZ38G8T8TEXJ98YDZSMH4SUJGA", "current_trial": 238, "dateTime": 1509291108775, "trialdata": {"rt": -1000, "stimulus": "/static/audio/wordpool/SIDEWALK.wav", "key_press": -1, "type": "PRES_AUD", "word": "sidewalk", "wordID": 1302, "conditions": [24, 1600, "a", 12000], "trial": 6, "serialpos": 13, "trial_type": "single-audio", "trial_index": 238, "time_elapsed": 1192612, "internal_node_id": "0.0-175.0"}}, {"uniqueid": "MTK0146:320DUZ38G8T8TEXJ98YDZSMH4SUJGA", "current_trial": 239, "dateTime": 1509291111261, "trialdata": {"rt": -1000, "stimulus": "/static/audio/wordpool/PLAZA.wav", "key_press": -1, "type": "PRES_AUD", "word": "plaza", "wordID": 1087, "conditions": [24, 1600, "a", 12000], "trial": 6, "serialpos": 14, "trial_type": "single-audio", "trial_index": 239, "time_elapsed": 1195099, "internal_node_id": "0.0-176.0"}}, {"uniqueid": "MTK0146:320DUZ38G8T8TEXJ98YDZSMH4SUJGA", "current_trial": 240, "dateTime": 1509291113942, "trialdata": {"rt": -1000, "stimulus": "/static/audio/wordpool/CAPTIVE.wav", "key_press": -1, "type": "PRES_AUD", "word": "captive", "wordID": 239, "conditions": [24, 1600, "a", 12000], "trial": 6, "serialpos": 15, "trial_type": "single-audio", "trial_index": 240, "time_elapsed": 1197780, "internal_node_id": "0.0-177.0"}}, {"uniqueid": "MTK0146:320DUZ38G8T8TEXJ98YDZSMH4SUJGA", "current_trial": 241, "dateTime": 1509291116614, "trialdata": {"rt": -1000, "stimulus": "/static/audio/wordpool/BLOUSE.wav", "key_press": -1, "type": "PRES_AUD", "word": "blouse", "wordID": 138, "conditions": [24, 1600, "a", 12000], "trial": 6, "serialpos": 16, "trial_type": "single-audio", "trial_index": 241, "time_elapsed": 1200452, "internal_node_id": "0.0-178.0"}}, {"uniqueid": "MTK0146:320DUZ38G8T8TEXJ98YDZSMH4SUJGA", "current_trial": 242, "dateTime": 1509291119071, "trialdata": {"rt": -1000, "stimulus": "/static/audio/wordpool/FOREHEAD.wav", "key_press": -1, "type": "PRES_AUD", "word": "forehead", "wordID": 591, "conditions": [24, 1600, "a", 12000], "trial": 6, "serialpos": 17, "trial_type": "single-audio", "trial_index": 242, "time_elapsed": 1202909, "internal_node_id": "0.0-179.0"}}, {"uniqueid": "MTK0146:320DUZ38G8T8TEXJ98YDZSMH4SUJGA", "current_trial": 243, "dateTime": 1509291121552, "trialdata": {"rt": -1000, "stimulus": "/static/audio/wordpool/DASHBOARD.wav", "key_press": -1, "type": "PRES_AUD", "word": "dashboard", "wordID": 440, "conditions": [24, 1600, "a", 12000], "trial": 6, "serialpos": 18, "trial_type": "single-audio", "trial_index": 243, "time_elapsed": 1205390, "internal_node_id": "0.0-180.0"}}, {"uniqueid": "MTK0146:320DUZ38G8T8TEXJ98YDZSMH4SUJGA", "current_trial": 244, "dateTime": 1509291124208, "trialdata": {"rt": -1000, "stimulus": "/static/audio/wordpool/BINDER.wav", "key_press": -1, "type": "PRES_AUD", "word": "binder", "wordID": 126, "conditions": [24, 1600, "a", 12000], "trial": 6, "serialpos": 19, "trial_type": "single-audio", "trial_index": 244, "time_elapsed": 1208046, "internal_node_id": "0.0-181.0"}}, {"uniqueid": "MTK0146:320DUZ38G8T8TEXJ98YDZSMH4SUJGA", "current_trial": 245, "dateTime": 1509291126898, "trialdata": {"rt": -1000, "stimulus": "/static/audio/wordpool/HIKER.wav", "key_press": -1, "type": "PRES_AUD", "word": "hiker", "wordID": 707, "conditions": [24, 1600, "a", 12000], "trial": 6, "serialpos": 20, "trial_type": "single-audio", "trial_index": 245, "time_elapsed": 1210736, "internal_node_id": "0.0-182.0"}}, {"uniqueid": "MTK0146:320DUZ38G8T8TEXJ98YDZSMH4SUJGA", "current_trial": 246, "dateTime": 1509291129666, "trialdata": {"rt": -1000, "stimulus": "/static/audio/wordpool/SHARK.wav", "key_press": -1, "type": "PRES_AUD", "word": "shark", "wordID": 1274, "conditions": [24, 1600, "a", 12000], "trial": 6, "serialpos": 21, "trial_type": "single-audio", "trial_index": 246, "time_elapsed": 1213504, "internal_node_id": "0.0-183.0"}}, {"uniqueid": "MTK0146:320DUZ38G8T8TEXJ98YDZSMH4SUJGA", "current_trial": 247, "dateTime": 1509291132387, "trialdata": {"rt": -1000, "stimulus": "/static/audio/wordpool/BACON.wav", "key_press": -1, "type": "PRES_AUD", "word": "bacon", "wordID": 66, "conditions": [24, 1600, "a", 12000], "trial": 6, "serialpos": 22, "trial_type": "single-audio", "trial_index": 247, "time_elapsed": 1216225, "internal_node_id": "0.0-184.0"}}, {"uniqueid": "MTK0146:320DUZ38G8T8TEXJ98YDZSMH4SUJGA", "current_trial": 248, "dateTime": 1509291135034, "trialdata": {"rt": -1000, "stimulus": "/static/audio/wordpool/GRAVE.wav", "key_press": -1, "type": "PRES_AUD", "word": "grave", "wordID": 657, "conditions": [24, 1600, "a", 12000], "trial": 6, "serialpos": 23, "trial_type": "single-audio", "trial_index": 248, "time_elapsed": 1218872, "internal_node_id": "0.0-185.0"}}, {"uniqueid": "MTK0146:320DUZ38G8T8TEXJ98YDZSMH4SUJGA", "current_trial": 249, "dateTime": 1509291136346, "trialdata": {"rt": -1, "stimulus": "", "key_press": -1, "type": "PRE_RECALL_DELAY", "trial_type": "single-stim", "trial_index": 249, "time_elapsed": 1220184, "internal_node_id": "0.0-186.0-0.0"}}, {"uniqueid": "MTK0146:320DUZ38G8T8TEXJ98YDZSMH4SUJGA", "current_trial": 250, "dateTime": 1509291136847, "trialdata": {"rt": -1000, "stimulus": "/static/audio/400Hz.wav", "key_press": -1, "type": "PRE_RECALL_ALERT", "trial_type": "single-audio", "trial_index": 250, "time_elapsed": 1220685, "internal_node_id": "0.0-187.0"}}, {"uniqueid": "MTK0146:320DUZ38G8T8TEXJ98YDZSMH4SUJGA", "current_trial": 251, "dateTime": 1509291196853, "trialdata": {"rt": [6661, 9158, 12141, 14638, 18333, 19413, 22526, 24446, 26253, 32885, 39533, 45893, 50357, 57045], "recwords": ["seafood", "hiker", "backbone", "rust", "lumber", "cod", "cook", "stove", "grill", "sidewalk", "forehead", "dashboard", "lazer", "pluto"], "type": "FREE_RECALL", "conditions": [24, 1600, "a", 12000], "trial": 6, "trial_type": "free-recall", "trial_index": 251, "time_elapsed": 1280687, "internal_node_id": "0.0-188.0-0.0"}}, {"uniqueid": "MTK0146:320DUZ38G8T8TEXJ98YDZSMH4SUJGA", "current_trial": 252, "dateTime": 1509291207646, "trialdata": {"rt": 8792, "key_press": 73, "type": "INSTRUCTIONS", "trial_type": "text", "trial_index": 252, "time_elapsed": 1291484, "internal_node_id": "0.0-189.0"}}, {"uniqueid": "MTK0146:320DUZ38G8T8TEXJ98YDZSMH4SUJGA", "current_trial": 253, "dateTime": 1509291233650, "trialdata": {"rt": [8710, 12230, 15070, 17422, 22174], "responses": ["22", "10", "10", "11", "11"], "num1": [9, 2, 7, 1, 1, 4], "num2": [7, 6, 1, 3, 3, 2], "num3": [6, 2, 2, 7, 7, 7], "type": "DISTRACTOR", "conditions": [24, 800, "a", 24000], "trial": 7, "trial_type": "math-distractor", "trial_index": 253, "time_elapsed": 1317488, "internal_node_id": "0.0-190.0"}}, {"uniqueid": "MTK0146:320DUZ38G8T8TEXJ98YDZSMH4SUJGA", "current_trial": 254, "dateTime": 1509291236650, "trialdata": {"rt": -1, "stimulus": "<p id=\"stim\">10</p>", "key_press": -1, "trial_type": "single-stim", "trial_index": 254, "time_elapsed": 1320488, "internal_node_id": "0.0-191.0-0.0"}}, {"uniqueid": "MTK0146:320DUZ38G8T8TEXJ98YDZSMH4SUJGA", "current_trial": 255, "dateTime": 1509291237651, "trialdata": {"rt": -1, "stimulus": "<p id=\"stim\">9</p>", "key_press": -1, "trial_type": "single-stim", "trial_index": 255, "time_elapsed": 1321489, "internal_node_id": "0.0-191.0-1.0"}}, {"uniqueid": "MTK0146:320DUZ38G8T8TEXJ98YDZSMH4SUJGA", "current_trial": 256, "dateTime": 1509291238651, "trialdata": {"rt": -1, "stimulus": "<p id=\"stim\">8</p>", "key_press": -1, "trial_type": "single-stim", "trial_index": 256, "time_elapsed": 1322489, "internal_node_id": "0.0-191.0-2.0"}}, {"uniqueid": "MTK0146:320DUZ38G8T8TEXJ98YDZSMH4SUJGA", "current_trial": 257, "dateTime": 1509291239652, "trialdata": {"rt": -1, "stimulus": "<p id=\"stim\">7</p>", "key_press": -1, "trial_type": "single-stim", "trial_index": 257, "time_elapsed": 1323490, "internal_node_id": "0.0-191.0-3.0"}}, {"uniqueid": "MTK0146:320DUZ38G8T8TEXJ98YDZSMH4SUJGA", "current_trial": 258, "dateTime": 1509291240653, "trialdata": {"rt": -1, "stimulus": "<p id=\"stim\">6</p>", "key_press": -1, "trial_type": "single-stim", "trial_index": 258, "time_elapsed": 1324491, "internal_node_id": "0.0-191.0-4.0"}}, {"uniqueid": "MTK0146:320DUZ38G8T8TEXJ98YDZSMH4SUJGA", "current_trial": 259, "dateTime": 1509291241654, "trialdata": {"rt": -1, "stimulus": "<p id=\"stim\">5</p>", "key_press": -1, "trial_type": "single-stim", "trial_index": 259, "time_elapsed": 1325492, "internal_node_id": "0.0-191.0-5.0"}}, {"uniqueid": "MTK0146:320DUZ38G8T8TEXJ98YDZSMH4SUJGA", "current_trial": 260, "dateTime": 1509291242654, "trialdata": {"rt": -1, "stimulus": "<p id=\"stim\">4</p>", "key_press": -1, "trial_type": "single-stim", "trial_index": 260, "time_elapsed": 1326492, "internal_node_id": "0.0-191.0-6.0"}}, {"uniqueid": "MTK0146:320DUZ38G8T8TEXJ98YDZSMH4SUJGA", "current_trial": 261, "dateTime": 1509291243656, "trialdata": {"rt": -1, "stimulus": "<p id=\"stim\">3</p>", "key_press": -1, "trial_type": "single-stim", "trial_index": 261, "time_elapsed": 1327493, "internal_node_id": "0.0-191.0-7.0"}}, {"uniqueid": "MTK0146:320DUZ38G8T8TEXJ98YDZSMH4SUJGA", "current_trial": 262, "dateTime": 1509291244657, "trialdata": {"rt": -1, "stimulus": "<p id=\"stim\">2</p>", "key_press": -1, "trial_type": "single-stim", "trial_index": 262, "time_elapsed": 1328495, "internal_node_id": "0.0-191.0-8.0"}}, {"uniqueid": "MTK0146:320DUZ38G8T8TEXJ98YDZSMH4SUJGA", "current_trial": 263, "dateTime": 1509291245658, "trialdata": {"rt": -1, "stimulus": "<p id=\"stim\">1</p>", "key_press": -1, "trial_type": "single-stim", "trial_index": 263, "time_elapsed": 1329496, "internal_node_id": "0.0-191.0-9.0"}}, {"uniqueid": "MTK0146:320DUZ38G8T8TEXJ98YDZSMH4SUJGA", "current_trial": 264, "dateTime": 1509291247158, "trialdata": {"rt": -1, "stimulus": "<p id=\"stim\">+</p>", "key_press": -1, "type": "FIXATION", "trial_type": "single-stim", "trial_index": 264, "time_elapsed": 1330996, "internal_node_id": "0.0-192.0-0.0"}}, {"uniqueid": "MTK0146:320DUZ38G8T8TEXJ98YDZSMH4SUJGA", "current_trial": 265, "dateTime": 1509291248799, "trialdata": {"rt": -1000, "stimulus": "/static/audio/wordpool/VELVET.wav", "key_press": -1, "type": "PRES_AUD", "word": "velvet", "wordID": 1554, "conditions": [24, 800, "a", 24000], "trial": 7, "serialpos": 0, "trial_type": "single-audio", "trial_index": 265, "time_elapsed": 1332637, "internal_node_id": "0.0-193.0"}}, {"uniqueid": "MTK0146:320DUZ38G8T8TEXJ98YDZSMH4SUJGA", "current_trial": 266, "dateTime": 1509291250555, "trialdata": {"rt": -1000, "stimulus": "/static/audio/wordpool/PLIERS.wav", "key_press": -1, "type": "PRES_AUD", "word": "pliers", "wordID": 1088, "conditions": [24, 800, "a", 24000], "trial": 7, "serialpos": 1, "trial_type": "single-audio", "trial_index": 266, "time_elapsed": 1334393, "internal_node_id": "0.0-194.0"}}, {"uniqueid": "MTK0146:320DUZ38G8T8TEXJ98YDZSMH4SUJGA", "current_trial": 267, "dateTime": 1509291252501, "trialdata": {"rt": -1000, "stimulus": "/static/audio/wordpool/TURKEY.wav", "key_press": -1, "type": "PRES_AUD", "word": "turkey", "wordID": 1519, "conditions": [24, 800, "a", 24000], "trial": 7, "serialpos": 2, "trial_type": "single-audio", "trial_index": 267, "time_elapsed": 1336339, "internal_node_id": "0.0-195.0"}}, {"uniqueid": "MTK0146:320DUZ38G8T8TEXJ98YDZSMH4SUJGA", "current_trial": 268, "dateTime": 1509291254445, "trialdata": {"rt": -1000, "stimulus": "/static/audio/wordpool/BUTCHER.wav", "key_press": -1, "type": "PRES_AUD", "word": "butcher", "wordID": 202, "conditions": [24, 800, "a", 24000], "trial": 7, "serialpos": 3, "trial_type": "single-audio", "trial_index": 268, "time_elapsed": 1338283, "internal_node_id": "0.0-196.0"}}, {"uniqueid": "MTK0146:320DUZ38G8T8TEXJ98YDZSMH4SUJGA", "current_trial": 269, "dateTime": 1509291256217, "trialdata": {"rt": -1000, "stimulus": "/static/audio/wordpool/PORTRAIT.wav", "key_press": -1, "type": "PRES_AUD", "word": "portrait", "wordID": 1110, "conditions": [24, 800, "a", 24000], "trial": 7, "serialpos": 4, "trial_type": "single-audio", "trial_index": 269, "time_elapsed": 1340055, "internal_node_id": "0.0-197.0"}}, {"uniqueid": "MTK0146:320DUZ38G8T8TEXJ98YDZSMH4SUJGA", "current_trial": 270, "dateTime": 1509291258009, "trialdata": {"rt": -1000, "stimulus": "/static/audio/wordpool/TRIBE.wav", "key_press": -1, "type": "PRES_AUD", "word": "tribe", "wordID": 1504, "conditions": [24, 800, "a", 24000], "trial": 7, "serialpos": 5, "trial_type": "single-audio", "trial_index": 270, "time_elapsed": 1341847, "internal_node_id": "0.0-198.0"}}, {"uniqueid": "MTK0146:320DUZ38G8T8TEXJ98YDZSMH4SUJGA", "current_trial": 271, "dateTime": 1509291259821, "trialdata": {"rt": -1000, "stimulus": "/static/audio/wordpool/MARSH.wav", "key_press"