{"condition": 0, "counterbalance": 833, "assignmentId": "3NXNZ5RS1B40U999UT364LVLBC897X", "workerId": "MTK0437", "hitId": "30IRMPJWDZQS64ELH2NZAR4H9QRRKC", "currenttrial": 626, "bonus": 0, "data": [{"uniqueid": "MTK0437:3NXNZ5RS1B40U999UT364LVLBC897X", "current_trial": 0, "dateTime": 1510873480227, "trialdata": {"rt": 7030, "key_press": 188, "type": "INSTRUCTIONS", "trial_type": "text", "trial_index": 0, "time_elapsed": 7036, "internal_node_id": "0.0-0.0"}}, {"uniqueid": "MTK0437:3NXNZ5RS1B40U999UT364LVLBC897X", "current_trial": 1, "dateTime": 1510873514513, "trialdata": {"rt": 34283, "key_press": 188, "type": "INSTRUCTIONS", "trial_type": "text", "trial_index": 1, "time_elapsed": 41323, "internal_node_id": "0.0-1.0"}}, {"uniqueid": "MTK0437:3NXNZ5RS1B40U999UT364LVLBC897X", "current_trial": 2, "dateTime": 1510873526413, "trialdata": {"rt": [5, 11799], "responses": ["", "ocean"], "type": "AUDIO_TEST", "trial_type": "audio-test", "trial_index": 2, "time_elapsed": 53223, "internal_node_id": "0.0-2.0"}}, {"uniqueid": "MTK0437:3NXNZ5RS1B40U999UT364LVLBC897X", "current_trial": 3, "dateTime": 1510873533558, "trialdata": {"rt": [7123], "responses": ["crystal"], "type": "AUDIO_TEST", "trial_type": "audio-test", "trial_index": 3, "time_elapsed": 60368, "internal_node_id": "0.0-3.0"}}, {"uniqueid": "MTK0437:3NXNZ5RS1B40U999UT364LVLBC897X", "current_trial": 4, "dateTime": 1510873541336, "trialdata": {"rt": [7761], "responses": ["spice"], "type": "AUDIO_TEST", "trial_type": "audio-test", "trial_index": 4, "time_elapsed": 68146, "internal_node_id": "0.0-4.0"}}, {"uniqueid": "MTK0437:3NXNZ5RS1B40U999UT364LVLBC897X", "current_trial": 5, "dateTime": 1510873568102, "trialdata": {"rt": 26010, "responses": "{\"Q0\":\"11:00 pm\",\"Q1\":\"7:00 am\",\"Q2\":\"4\"}", "type": "SLEEP_SURVEY", "trial_type": "survey-text", "trial_index": 5, "time_elapsed": 94913, "internal_node_id": "0.0-5.0"}}, {"uniqueid": "MTK0437:3NXNZ5RS1B40U999UT364LVLBC897X", "current_trial": 6, "dateTime": 1510873636108, "trialdata": {"rt": 67003, "key_press": 188, "type": "INSTRUCTIONS", "trial_type": "text", "trial_index": 6, "time_elapsed": 162919, "internal_node_id": "0.0-6.0"}}, {"uniqueid": "MTK0437:3NXNZ5RS1B40U999UT364LVLBC897X", "current_trial": 7, "dateTime": 1510873668229, "trialdata": {"rt": 31618, "key_press": 188, "type": "INSTRUCTIONS", "trial_type": "text", "trial_index": 7, "time_elapsed": 195039, "internal_node_id": "0.0-7.0"}}, {"uniqueid": "MTK0437:3NXNZ5RS1B40U999UT364LVLBC897X", "current_trial": 8, "dateTime": 1510873686595, "trialdata": {"rt": 17862, "key_press": 188, "type": "INSTRUCTIONS", "trial_type": "text", "trial_index": 8, "time_elapsed": 213406, "internal_node_id": "0.0-8.0"}}, {"uniqueid": "MTK0437:3NXNZ5RS1B40U999UT364LVLBC897X", "current_trial": 9, "dateTime": 1510873705610, "trialdata": {"rt": [6453, 10805, 13406, 15813], "responses": ["16", "26", "8", "19"], "num1": [3, 9, 3, 3, 9], "num2": [4, 9, 1, 8, 4], "num3": [9, 8, 4, 8, 6], "type": "DISTRACTOR", "conditions": [18, 1200, "a", 18000], "trial": 0, "trial_type": "math-distractor", "trial_index": 9, "time_elapsed": 232420, "internal_node_id": "0.0-9.0"}}, {"uniqueid": "MTK0437:3NXNZ5RS1B40U999UT364LVLBC897X", "current_trial": 10, "dateTime": 1510873708616, "trialdata": {"rt": -1, "stimulus": "<p id=\"stim\">10</p>", "key_press": -1, "trial_type": "single-stim", "trial_index": 10, "time_elapsed": 235426, "internal_node_id": "0.0-10.0-0.0"}}, {"uniqueid": "MTK0437:3NXNZ5RS1B40U999UT364LVLBC897X", "current_trial": 11, "dateTime": 1510873709619, "trialdata": {"rt": -1, "stimulus": "<p id=\"stim\">9</p>", "key_press": -1, "trial_type": "single-stim", "trial_index": 11, "time_elapsed": 236430, "internal_node_id": "0.0-10.0-1.0"}}, {"uniqueid": "MTK0437:3NXNZ5RS1B40U999UT364LVLBC897X", "current_trial": 12, "dateTime": 1510873710621, "trialdata": {"rt": -1, "stimulus": "<p id=\"stim\">8</p>", "key_press": -1, "trial_type": "single-stim", "trial_index": 12, "time_elapsed": 237432, "internal_node_id": "0.0-10.0-2.0"}}, {"uniqueid": "MTK0437:3NXNZ5RS1B40U999UT364LVLBC897X", "current_trial": 13, "dateTime": 1510873711624, "trialdata": {"rt": -1, "stimulus": "<p id=\"stim\">7</p>", "key_press": -1, "trial_type": "single-stim", "trial_index": 13, "time_elapsed": 238435, "internal_node_id": "0.0-10.0-3.0"}}, {"uniqueid": "MTK0437:3NXNZ5RS1B40U999UT364LVLBC897X", "current_trial": 14, "dateTime": 1510873712626, "trialdata": {"rt": -1, "stimulus": "<p id=\"stim\">6</p>", "key_press": -1, "trial_type": "single-stim", "trial_index": 14, "time_elapsed": 239437, "internal_node_id": "0.0-10.0-4.0"}}, {"uniqueid": "MTK0437:3NXNZ5RS1B40U999UT364LVLBC897X", "current_trial": 15, "dateTime": 1510873713629, "trialdata": {"rt": -1, "stimulus": "<p id=\"stim\">5</p>", "key_press": -1, "trial_type": "single-stim", "trial_index": 15, "time_elapsed": 240439, "internal_node_id": "0.0-10.0-5.0"}}, {"uniqueid": "MTK0437:3NXNZ5RS1B40U999UT364LVLBC897X", "current_trial": 16, "dateTime": 1510873714630, "trialdata": {"rt": -1, "stimulus": "<p id=\"stim\">4</p>", "key_press": -1, "trial_type": "single-stim", "trial_index": 16, "time_elapsed": 241441, "internal_node_id": "0.0-10.0-6.0"}}, {"uniqueid": "MTK0437:3NXNZ5RS1B40U999UT364LVLBC897X", "current_trial": 17, "dateTime": 1510873715632, "trialdata": {"rt": -1, "stimulus": "<p id=\"stim\">3</p>", "key_press": -1, "trial_type": "single-stim", "trial_index": 17, "time_elapsed": 242442, "internal_node_id": "0.0-10.0-7.0"}}, {"uniqueid": "MTK0437:3NXNZ5RS1B40U999UT364LVLBC897X", "current_trial": 18, "dateTime": 1510873716633, "trialdata": {"rt": -1, "stimulus": "<p id=\"stim\">2</p>", "key_press": -1, "trial_type": "single-stim", "trial_index": 18, "time_elapsed": 243444, "internal_node_id": "0.0-10.0-8.0"}}, {"uniqueid": "MTK0437:3NXNZ5RS1B40U999UT364LVLBC897X", "current_trial": 19, "dateTime": 1510873717636, "trialdata": {"rt": -1, "stimulus": "<p id=\"stim\">1</p>", "key_press": -1, "trial_type": "single-stim", "trial_index": 19, "time_elapsed": 244446, "internal_node_id": "0.0-10.0-9.0"}}, {"uniqueid": "MTK0437:3NXNZ5RS1B40U999UT364LVLBC897X", "current_trial": 20, "dateTime": 1510873719139, "trialdata": {"rt": -1, "stimulus": "<p id=\"stim\">+</p>", "key_press": -1, "type": "FIXATION", "trial_type": "single-stim", "trial_index": 20, "time_elapsed": 245949, "internal_node_id": "0.0-11.0-0.0"}}, {"uniqueid": "MTK0437:3NXNZ5RS1B40U999UT364LVLBC897X", "current_trial": 21, "dateTime": 1510873721217, "trialdata": {"rt": -1000, "stimulus": "/static/audio/wordpool/MAILMAN.wav", "key_press": -1, "type": "PRES_AUD", "word": "mailman", "wordID": 857, "conditions": [18, 1200, "a", 18000], "trial": 0, "serialpos": 0, "trial_type": "single-audio", "trial_index": 21, "time_elapsed": 248028, "internal_node_id": "0.0-12.0"}}, {"uniqueid": "MTK0437:3NXNZ5RS1B40U999UT364LVLBC897X", "current_trial": 22, "dateTime": 1510873723545, "trialdata": {"rt": -1000, "stimulus": "/static/audio/wordpool/BRANCH.wav", "key_press": -1, "type": "PRES_AUD", "word": "branch", "wordID": 167, "conditions": [18, 1200, "a", 18000], "trial": 0, "serialpos": 1, "trial_type": "single-audio", "trial_index": 22, "time_elapsed": 250355, "internal_node_id": "0.0-13.0"}}, {"uniqueid": "MTK0437:3NXNZ5RS1B40U999UT364LVLBC897X", "current_trial": 23, "dateTime": 1510873725871, "trialdata": {"rt": -1000, "stimulus": "/static/audio/wordpool/PECAN.wav", "key_press": -1, "type": "PRES_AUD", "word": "pecan", "wordID": 1035, "conditions": [18, 1200, "a", 18000], "trial": 0, "serialpos": 2, "trial_type": "single-audio", "trial_index": 23, "time_elapsed": 252681, "internal_node_id": "0.0-14.0"}}, {"uniqueid": "MTK0437:3NXNZ5RS1B40U999UT364LVLBC897X", "current_trial": 24, "dateTime": 1510873728170, "trialdata": {"rt": -1000, "stimulus": "/static/audio/wordpool/TURTLE.wav", "key_press": -1, "type": "PRES_AUD", "word": "turtle", "wordID": 1521, "conditions": [18, 1200, "a", 18000], "trial": 0, "serialpos": 3, "trial_type": "single-audio", "trial_index": 24, "time_elapsed": 254981, "internal_node_id": "0.0-15.0"}}, {"uniqueid": "MTK0437:3NXNZ5RS1B40U999UT364LVLBC897X", "current_trial": 25, "dateTime": 1510873730559, "trialdata": {"rt": -1000, "stimulus": "/static/audio/wordpool/HAWK.wav", "key_press": -1, "type": "PRES_AUD", "word": "hawk", "wordID": 691, "conditions": [18, 1200, "a", 18000], "trial": 0, "serialpos": 4, "trial_type": "single-audio", "trial_index": 25, "time_elapsed": 257369, "internal_node_id": "0.0-16.0"}}, {"uniqueid": "MTK0437:3NXNZ5RS1B40U999UT364LVLBC897X", "current_trial": 26, "dateTime": 1510873732954, "trialdata": {"rt": -1000, "stimulus": "/static/audio/wordpool/BUREAU.wav", "key_press": -1, "type": "PRES_AUD", "word": "bureau", "wordID": 198, "conditions": [18, 1200, "a", 18000], "trial": 0, "serialpos": 5, "trial_type": "single-audio", "trial_index": 26, "time_elapsed": 259764, "internal_node_id": "0.0-17.0"}}, {"uniqueid": "MTK0437:3NXNZ5RS1B40U999UT364LVLBC897X", "current_trial": 27, "dateTime": 1510873735351, "trialdata": {"rt": -1000, "stimulus": "/static/audio/wordpool/OUTLAW.wav", "key_press": -1, "type": "PRES_AUD", "word": "outlaw", "wordID": 988, "conditions": [18, 1200, "a", 18000], "trial": 0, "serialpos": 6, "trial_type": "single-audio", "trial_index": 27, "time_elapsed": 262162, "internal_node_id": "0.0-18.0"}}, {"uniqueid": "MTK0437:3NXNZ5RS1B40U999UT364LVLBC897X", "current_trial": 28, "dateTime": 1510873737385, "trialdata": {"rt": -1000, "stimulus": "/static/audio/wordpool/ANTLER.wav", "key_press": -1, "type": "PRES_AUD", "word": "antler", "wordID": 28, "conditions": [18, 1200, "a", 18000], "trial": 0, "serialpos": 7, "trial_type": "single-audio", "trial_index": 28, "time_elapsed": 264195, "internal_node_id": "0.0-19.0"}}, {"uniqueid": "MTK0437:3NXNZ5RS1B40U999UT364LVLBC897X", "current_trial": 29, "dateTime": 1510873739638, "trialdata": {"rt": -1000, "stimulus": "/static/audio/wordpool/WHISTLE.wav", "key_press": -1, "type": "PRES_AUD", "word": "whistle", "wordID": 1605, "conditions": [18, 1200, "a", 18000], "trial": 0, "serialpos": 8, "trial_type": "single-audio", "trial_index": 29, "time_elapsed": 266449, "internal_node_id": "0.0-20.0"}}, {"uniqueid": "MTK0437:3NXNZ5RS1B40U999UT364LVLBC897X", "current_trial": 30, "dateTime": 1510873741922, "trialdata": {"rt": -1000, "stimulus": "/static/audio/wordpool/COWBOY.wav", "key_press": -1, "type": "PRES_AUD", "word": "cowboy", "wordID": 394, "conditions": [18, 1200, "a", 18000], "trial": 0, "serialpos": 9, "trial_type": "single-audio", "trial_index": 30, "time_elapsed": 268732, "internal_node_id": "0.0-21.0"}}, {"uniqueid": "MTK0437:3NXNZ5RS1B40U999UT364LVLBC897X", "current_trial": 31, "dateTime": 1510873744165, "trialdata": {"rt": -1000, "stimulus": "/static/audio/wordpool/BROOK.wav", "key_press": -1, "type": "PRES_AUD", "word": "brook", "wordID": 176, "conditions": [18, 1200, "a", 18000], "trial": 0, "serialpos": 10, "trial_type": "single-audio", "trial_index": 31, "time_elapsed": 270976, "internal_node_id": "0.0-22.0"}}, {"uniqueid": "MTK0437:3NXNZ5RS1B40U999UT364LVLBC897X", "current_trial": 32, "dateTime": 1510873746207, "trialdata": {"rt": -1000, "stimulus": "/static/audio/wordpool/SNAIL.wav", "key_press": -1, "type": "PRES_AUD", "word": "snail", "wordID": 1331, "conditions": [18, 1200, "a", 18000], "trial": 0, "serialpos": 11, "trial_type": "single-audio", "trial_index": 32, "time_elapsed": 273017, "internal_node_id": "0.0-23.0"}}, {"uniqueid": "MTK0437:3NXNZ5RS1B40U999UT364LVLBC897X", "current_trial": 33, "dateTime": 1510873748404, "trialdata": {"rt": -1000, "stimulus": "/static/audio/wordpool/TABLE.wav", "key_press": -1, "type": "PRES_AUD", "word": "table", "wordID": 1425, "conditions": [18, 1200, "a", 18000], "trial": 0, "serialpos": 12, "trial_type": "single-audio", "trial_index": 33, "time_elapsed": 275214, "internal_node_id": "0.0-24.0"}}, {"uniqueid": "MTK0437:3NXNZ5RS1B40U999UT364LVLBC897X", "current_trial": 34, "dateTime": 1510873750649, "trialdata": {"rt": -1000, "stimulus": "/static/audio/wordpool/SCALLOP.wav", "key_press": -1, "type": "PRES_AUD", "word": "scallop", "wordID": 1241, "conditions": [18, 1200, "a", 18000], "trial": 0, "serialpos": 13, "trial_type": "single-audio", "trial_index": 34, "time_elapsed": 277460, "internal_node_id": "0.0-25.0"}}, {"uniqueid": "MTK0437:3NXNZ5RS1B40U999UT364LVLBC897X", "current_trial": 35, "dateTime": 1510873752891, "trialdata": {"rt": -1000, "stimulus": "/static/audio/wordpool/PEBBLE.wav", "key_press": -1, "type": "PRES_AUD", "word": "pebble", "wordID": 1034, "conditions": [18, 1200, "a", 18000], "trial": 0, "serialpos": 14, "trial_type": "single-audio", "trial_index": 35, "time_elapsed": 279701, "internal_node_id": "0.0-26.0"}}, {"uniqueid": "MTK0437:3NXNZ5RS1B40U999UT364LVLBC897X", "current_trial": 36, "dateTime": 1510873755022, "trialdata": {"rt": -1000, "stimulus": "/static/audio/wordpool/ROD.wav", "key_press": -1, "type": "PRES_AUD", "word": "rod", "wordID": 1202, "conditions": [18, 1200, "a", 18000], "trial": 0, "serialpos": 15, "trial_type": "single-audio", "trial_index": 36, "time_elapsed": 281832, "internal_node_id": "0.0-27.0"}}, {"uniqueid": "MTK0437:3NXNZ5RS1B40U999UT364LVLBC897X", "current_trial": 37, "dateTime": 1510873757074, "trialdata": {"rt": -1000, "stimulus": "/static/audio/wordpool/BANJO.wav", "key_press": -1, "type": "PRES_AUD", "word": "banjo", "wordID": 81, "conditions": [18, 1200, "a", 18000], "trial": 0, "serialpos": 16, "trial_type": "single-audio", "trial_index": 37, "time_elapsed": 283885, "internal_node_id": "0.0-28.0"}}, {"uniqueid": "MTK0437:3NXNZ5RS1B40U999UT364LVLBC897X", "current_trial": 38, "dateTime": 1510873759228, "trialdata": {"rt": -1000, "stimulus": "/static/audio/wordpool/AIRPLANE.wav", "key_press": -1, "type": "PRES_AUD", "word": "airplane", "wordID": 11, "conditions": [18, 1200, "a", 18000], "trial": 0, "serialpos": 17, "trial_type": "single-audio", "trial_index": 38, "time_elapsed": 286039, "internal_node_id": "0.0-29.0"}}, {"uniqueid": "MTK0437:3NXNZ5RS1B40U999UT364LVLBC897X", "current_trial": 39, "dateTime": 1510873760442, "trialdata": {"rt": -1, "stimulus": "", "key_press": -1, "type": "PRE_RECALL_DELAY", "trial_type": "single-stim", "trial_index": 39, "time_elapsed": 287253, "internal_node_id": "0.0-30.0-0.0"}}, {"uniqueid": "MTK0437:3NXNZ5RS1B40U999UT364LVLBC897X", "current_trial": 40, "dateTime": 1510873760945, "trialdata": {"rt": -1000, "stimulus": "/static/audio/400Hz.wav", "key_press": -1, "type": "PRE_RECALL_ALERT", "trial_type": "single-audio", "trial_index": 40, "time_elapsed": 287756, "internal_node_id": "0.0-31.0"}}, {"uniqueid": "MTK0437:3NXNZ5RS1B40U999UT364LVLBC897X", "current_trial": 41, "dateTime": 1510873820960, "trialdata": {"rt": [6089, 9827, 14467, 21465, 26764, 48294], "recwords": ["airplane", "banjo", "mailman", "cowboy", "turtle", "pecan"], "type": "FREE_RECALL", "conditions": [18, 1200, "a", 18000], "trial": 0, "trial_type": "free-recall", "trial_index": 41, "time_elapsed": 347762, "internal_node_id": "0.0-32.0-0.0"}}, {"uniqueid": "MTK0437:3NXNZ5RS1B40U999UT364LVLBC897X", "current_trial": 42, "dateTime": 1510873825874, "trialdata": {"rt": 2909, "key_press": 188, "type": "INSTRUCTIONS", "trial_type": "text", "trial_index": 42, "time_elapsed": 352684, "internal_node_id": "0.0-33.0"}}, {"uniqueid": "MTK0437:3NXNZ5RS1B40U999UT364LVLBC897X", "current_trial": 43, "dateTime": 1510873845885, "trialdata": {"rt": [2788, 4916, 7916, 10005, 12316, 17941], "responses": ["9", "15", "18", "8", "8", "22"], "num1": [2, 5, 8, 2, 1, 5, 3], "num2": [6, 5, 4, 5, 6, 8, 5], "num3": [1, 5, 6, 1, 1, 9, 8], "type": "DISTRACTOR", "conditions": [18, 1200, "v", 18000], "trial": 1, "trial_type": "math-distractor", "trial_index": 43, "time_elapsed": 372695, "internal_node_id": "0.0-34.0"}}, {"uniqueid": "MTK0437:3NXNZ5RS1B40U999UT364LVLBC897X", "current_trial": 44, "dateTime": 1510873848890, "trialdata": {"rt": -1, "stimulus": "<p id=\"stim\">10</p>", "key_press": -1, "trial_type": "single-stim", "trial_index": 44, "time_elapsed": 375700, "internal_node_id": "0.0-35.0-0.0"}}, {"uniqueid": "MTK0437:3NXNZ5RS1B40U999UT364LVLBC897X", "current_trial": 45, "dateTime": 1510873849893, "trialdata": {"rt": -1, "stimulus": "<p id=\"stim\">9</p>", "key_press": -1, "trial_type": "single-stim", "trial_index": 45, "time_elapsed": 376703, "internal_node_id": "0.0-35.0-1.0"}}, {"uniqueid": "MTK0437:3NXNZ5RS1B40U999UT364LVLBC897X", "current_trial": 46, "dateTime": 1510873850896, "trialdata": {"rt": -1, "stimulus": "<p id=\"stim\">8</p>", "key_press": -1, "trial_type": "single-stim", "trial_index": 46, "time_elapsed": 377706, "internal_node_id": "0.0-35.0-2.0"}}, {"uniqueid": "MTK0437:3NXNZ5RS1B40U999UT364LVLBC897X", "current_trial": 47, "dateTime": 1510873851898, "trialdata": {"rt": -1, "stimulus": "<p id=\"stim\">7</p>", "key_press": -1, "trial_type": "single-stim", "trial_index": 47, "time_elapsed": 378709, "internal_node_id": "0.0-35.0-3.0"}}, {"uniqueid": "MTK0437:3NXNZ5RS1B40U999UT364LVLBC897X", "current_trial": 48, "dateTime": 1510873852901, "trialdata": {"rt": -1, "stimulus": "<p id=\"stim\">6</p>", "key_press": -1, "trial_type": "single-stim", "trial_index": 48, "time_elapsed": 379711, "internal_node_id": "0.0-35.0-4.0"}}, {"uniqueid": "MTK0437:3NXNZ5RS1B40U999UT364LVLBC897X", "current_trial": 49, "dateTime": 1510873853904, "trialdata": {"rt": -1, "stimulus": "<p id=\"stim\">5</p>", "key_press": -1, "trial_type": "single-stim", "trial_index": 49, "time_elapsed": 380714, "internal_node_id": "0.0-35.0-5.0"}}, {"uniqueid": "MTK0437:3NXNZ5RS1B40U999UT364LVLBC897X", "current_trial": 50, "dateTime": 1510873854905, "trialdata": {"rt": -1, "stimulus": "<p id=\"stim\">4</p>", "key_press": -1, "trial_type": "single-stim", "trial_index": 50, "time_elapsed": 381716, "internal_node_id": "0.0-35.0-6.0"}}, {"uniqueid": "MTK0437:3NXNZ5RS1B40U999UT364LVLBC897X", "current_trial": 51, "dateTime": 1510873855907, "trialdata": {"rt": -1, "stimulus": "<p id=\"stim\">3</p>", "key_press": -1, "trial_type": "single-stim", "trial_index": 51, "time_elapsed": 382718, "internal_node_id": "0.0-35.0-7.0"}}, {"uniqueid": "MTK0437:3NXNZ5RS1B40U999UT364LVLBC897X", "current_trial": 52, "dateTime": 1510873856908, "trialdata": {"rt": -1, "stimulus": "<p id=\"stim\">2</p>", "key_press": -1, "trial_type": "single-stim", "trial_index": 52, "time_elapsed": 383719, "internal_node_id": "0.0-35.0-8.0"}}, {"uniqueid": "MTK0437:3NXNZ5RS1B40U999UT364LVLBC897X", "current_trial": 53, "dateTime": 1510873857912, "trialdata": {"rt": -1, "stimulus": "<p id=\"stim\">1</p>", "key_press": -1, "trial_type": "single-stim", "trial_index": 53, "time_elapsed": 384721, "internal_node_id": "0.0-35.0-9.0"}}, {"uniqueid": "MTK0437:3NXNZ5RS1B40U999UT364LVLBC897X", "current_trial": 54, "dateTime": 1510873859415, "trialdata": {"rt": -1, "stimulus": "<p id=\"stim\">+</p>", "key_press": -1, "type": "FIXATION", "trial_type": "single-stim", "trial_index": 54, "time_elapsed": 386225, "internal_node_id": "0.0-36.0-0.0"}}, {"uniqueid": "MTK0437:3NXNZ5RS1B40U999UT364LVLBC897X", "current_trial": 55, "dateTime": 1510873860616, "trialdata": {"rt": -1, "stimulus": "<p id=\"stim\">ITEM</p>", "key_press": -1, "type": "PRES_VIS", "word": "item", "wordID": 745, "conditions": [18, 1200, "v", 18000], "trial": 1, "serialpos": 0, "trial_type": "single-stim", "trial_index": 55, "time_elapsed": 387427, "internal_node_id": "0.0-37.0"}}, {"uniqueid": "MTK0437:3NXNZ5RS1B40U999UT364LVLBC897X", "current_trial": 56, "dateTime": 1510873862861, "trialdata": {"rt": -1, "stimulus": "<p id=\"stim\">STATUE</p>", "key_press": -1, "type": "PRES_VIS", "word": "statue", "wordID": 1373, "conditions": [18, 1200, "v", 18000], "trial": 1, "serialpos": 1, "trial_type": "single-stim", "trial_index": 56, "time_elapsed": 389672, "internal_node_id": "0.0-38.0"}}, {"uniqueid": "MTK0437:3NXNZ5RS1B40U999UT364LVLBC897X", "current_trial": 57, "dateTime": 1510873865020, "trialdata": {"rt": -1, "stimulus": "<p id=\"stim\">EMPIRE</p>", "key_press": -1, "type": "PRES_VIS", "word": "empire", "wordID": 529, "conditions": [18, 1200, "v", 18000], "trial": 1, "serialpos": 2, "trial_type": "single-stim", "trial_index": 57, "time_elapsed": 391831, "internal_node_id": "0.0-39.0"}}, {"uniqueid": "MTK0437:3NXNZ5RS1B40U999UT364LVLBC897X", "current_trial": 58, "dateTime": 1510873867110, "trialdata": {"rt": -1, "stimulus": "<p id=\"stim\">CASHEW</p>", "key_press": -1, "type": "PRES_VIS", "word": "cashew", "wordID": 252, "conditions": [18, 1200, "v", 18000], "trial": 1, "serialpos": 3, "trial_type": "single-stim", "trial_index": 58, "time_elapsed": 393921, "internal_node_id": "0.0-40.0"}}, {"uniqueid": "MTK0437:3NXNZ5RS1B40U999UT364LVLBC897X", "current_trial": 59, "dateTime": 1510873869437, "trialdata": {"rt": -1, "stimulus": "<p id=\"stim\">WASHER</p>", "key_press": -1, "type": "PRES_VIS", "word": "washer", "wordID": 1591, "conditions": [18, 1200, "v", 18000], "trial": 1, "serialpos": 4, "trial_type": "single-stim", "trial_index": 59, "time_elapsed": 396248, "internal_node_id": "0.0-41.0"}}, {"uniqueid": "MTK0437:3NXNZ5RS1B40U999UT364LVLBC897X", "current_trial": 60, "dateTime": 1510873871799, "trialdata": {"rt": -1, "stimulus": "<p id=\"stim\">PEANUT</p>", "key_press": -1, "type": "PRES_VIS", "word": "peanut", "wordID": 1031, "conditions": [18, 1200, "v", 18000], "trial": 1, "serialpos": 5, "trial_type": "single-stim", "trial_index": 60, "time_elapsed": 398610, "internal_node_id": "0.0-42.0"}}, {"uniqueid": "MTK0437:3NXNZ5RS1B40U999UT364LVLBC897X", "current_trial": 61, "dateTime": 1510873873947, "trialdata": {"rt": -1, "stimulus": "<p id=\"stim\">FILM</p>", "key_press": -1, "type": "PRES_VIS", "word": "film", "wordID": 564, "conditions": [18, 1200, "v", 18000], "trial": 1, "serialpos": 6, "trial_type": "single-stim", "trial_index": 61, "time_elapsed": 400758, "internal_node_id": "0.0-43.0"}}, {"uniqueid": "MTK0437:3NXNZ5RS1B40U999UT364LVLBC897X", "current_trial": 62, "dateTime": 1510873876044, "trialdata": {"rt": -1, "stimulus": "<p id=\"stim\">BLENDER</p>", "key_press": -1, "type": "PRES_VIS", "word": "blender", "wordID": 135, "conditions": [18, 1200, "v", 18000], "trial": 1, "serialpos": 7, "trial_type": "single-stim", "trial_index": 62, "time_elapsed": 402855, "internal_node_id": "0.0-44.0"}}, {"uniqueid": "MTK0437:3NXNZ5RS1B40U999UT364LVLBC897X", "current_trial": 63, "dateTime": 1510873878322, "trialdata": {"rt": -1, "stimulus": "<p id=\"stim\">HEADBAND</p>", "key_press": -1, "type": "PRES_VIS", "word": "headband", "wordID": 695, "conditions": [18, 1200, "v", 18000], "trial": 1, "serialpos": 8, "trial_type": "single-stim", "trial_index": 63, "time_elapsed": 405132, "internal_node_id": "0.0-45.0"}}, {"uniqueid": "MTK0437:3NXNZ5RS1B40U999UT364LVLBC897X", "current_trial": 64, "dateTime": 1510873880554, "trialdata": {"rt": -1, "stimulus": "<p id=\"stim\">RECEIPT</p>", "key_press": -1, "type": "PRES_VIS", "word": "receipt", "wordID": 1172, "conditions": [18, 1200, "v", 18000], "trial": 1, "serialpos": 9, "trial_type": "single-stim", "trial_index": 64, "time_elapsed": 407365, "internal_node_id": "0.0-46.0"}}, {"uniqueid": "MTK0437:3NXNZ5RS1B40U999UT364LVLBC897X", "current_trial": 65, "dateTime": 1510873882605, "trialdata": {"rt": -1, "stimulus": "<p id=\"stim\">SCISSORS</p>", "key_press": -1, "type": "PRES_VIS", "word": "scissors", "wordID": 1249, "conditions": [18, 1200, "v", 18000], "trial": 1, "serialpos": 10, "trial_type": "single-stim", "trial_index": 65, "time_elapsed": 409416, "internal_node_id": "0.0-47.0"}}, {"uniqueid": "MTK0437:3NXNZ5RS1B40U999UT364LVLBC897X", "current_trial": 66, "dateTime": 1510873884967, "trialdata": {"rt": -1, "stimulus": "<p id=\"stim\">FLUTE</p>", "key_press": -1, "type": "PRES_VIS", "word": "flute", "wordID": 584, "conditions": [18, 1200, "v", 18000], "trial": 1, "serialpos": 11, "trial_type": "single-stim", "trial_index": 66, "time_elapsed": 411778, "internal_node_id": "0.0-48.0"}}, {"uniqueid": "MTK0437:3NXNZ5RS1B40U999UT364LVLBC897X", "current_trial": 67, "dateTime": 1510873887219, "trialdata": {"rt": -1, "stimulus": "<p id=\"stim\">SHIRT</p>", "key_press": -1, "type": "PRES_VIS", "word": "shirt", "wordID": 1286, "conditions": [18, 1200, "v", 18000], "trial": 1, "serialpos": 12, "trial_type": "single-stim", "trial_index": 67, "time_elapsed": 414030, "internal_node_id": "0.0-49.0"}}, {"uniqueid": "MTK0437:3NXNZ5RS1B40U999UT364LVLBC897X", "current_trial": 68, "dateTime": 1510873889453, "trialdata": {"rt": -1, "stimulus": "<p id=\"stim\">FLAG</p>", "key_press": -1, "type": "PRES_VIS", "word": "flag", "wordID": 572, "conditions": [18, 1200, "v", 18000], "trial": 1, "serialpos": 13, "trial_type": "single-stim", "trial_index": 68, "time_elapsed": 416263, "internal_node_id": "0.0-50.0"}}, {"uniqueid": "MTK0437:3NXNZ5RS1B40U999UT364LVLBC897X", "current_trial": 69, "dateTime": 1510873891769, "trialdata": {"rt": -1, "stimulus": "<p id=\"stim\">CIGAR</p>", "key_press": -1, "type": "PRES_VIS", "word": "cigar", "wordID": 307, "conditions": [18, 1200, "v", 18000], "trial": 1, "serialpos": 14, "trial_type": "single-stim", "trial_index": 69, "time_elapsed": 418580, "internal_node_id": "0.0-51.0"}}, {"uniqueid": "MTK0437:3NXNZ5RS1B40U999UT364LVLBC897X", "current_trial": 70, "dateTime": 1510873893922, "trialdata": {"rt": -1, "stimulus": "<p id=\"stim\">SIDEWALK</p>", "key_press": -1, "type": "PRES_VIS", "word": "sidewalk", "wordID": 1302, "conditions": [18, 1200, "v", 18000], "trial": 1, "serialpos": 15, "trial_type": "single-stim", "trial_index": 70, "time_elapsed": 420733, "internal_node_id": "0.0-52.0"}}, {"uniqueid": "MTK0437:3NXNZ5RS1B40U999UT364LVLBC897X", "current_trial": 71, "dateTime": 1510873896083, "trialdata": {"rt": -1, "stimulus": "<p id=\"stim\">SKILLET</p>", "key_press": -1, "type": "PRES_VIS", "word": "skillet", "wordID": 1316, "conditions": [18, 1200, "v", 18000], "trial": 1, "serialpos": 16, "trial_type": "single-stim", "trial_index": 71, "time_elapsed": 422893, "internal_node_id": "0.0-53.0"}}, {"uniqueid": "MTK0437:3NXNZ5RS1B40U999UT364LVLBC897X", "current_trial": 72, "dateTime": 1510873898462, "trialdata": {"rt": -1, "stimulus": "<p id=\"stim\">COUNTRY</p>", "key_press": -1, "type": "PRES_VIS", "word": "country", "wordID": 387, "conditions": [18, 1200, "v", 18000], "trial": 1, "serialpos": 17, "trial_type": "single-stim", "trial_index": 72, "time_elapsed": 425272, "internal_node_id": "0.0-54.0"}}, {"uniqueid": "MTK0437:3NXNZ5RS1B40U999UT364LVLBC897X", "current_trial": 73, "dateTime": 1510873900560, "trialdata": {"rt": -1, "stimulus": "", "key_press": -1, "type": "PRE_RECALL_DELAY", "trial_type": "single-stim", "trial_index": 73, "time_elapsed": 427370, "internal_node_id": "0.0-55.0-0.0"}}, {"uniqueid": "MTK0437:3NXNZ5RS1B40U999UT364LVLBC897X", "current_trial": 74, "dateTime": 1510873901063, "trialdata": {"rt": -1000, "stimulus": "/static/audio/400Hz.wav", "key_press": -1, "type": "PRE_RECALL_ALERT", "trial_type": "single-audio", "trial_index": 74, "time_elapsed": 427874, "internal_node_id": "0.0-56.0"}}, {"uniqueid": "MTK0437:3NXNZ5RS1B40U999UT364LVLBC897X", "current_trial": 75, "dateTime": 1510873961076, "trialdata": {"rt": [3980, 9383, 16351, 20231, 21925, 29016, 38090], "recwords": ["country", "skillet", "peanut", "pecan", "cashew", "scissors", "statue"], "type": "FREE_RECALL", "conditions": [18, 1200, "v", 18000], "trial": 1, "trial_type": "free-recall", "trial_index": 75, "time_elapsed": 487881, "internal_node_id": "0.0-57.0-0.0"}}, {"uniqueid": "MTK0437:3NXNZ5RS1B40U999UT364LVLBC897X", "current_trial": 76, "dateTime": 1510873984079, "trialdata": {"rt": 20987, "key_press": 188, "type": "INSTRUCTIONS", "trial_type": "text", "trial_index": 76, "time_elapsed": 510877, "internal_node_id": "0.0-58.0"}}, {"uniqueid": "MTK0437:3NXNZ5RS1B40U999UT364LVLBC897X", "current_trial": 77, "dateTime": 1510874009090, "trialdata": {"rt": [2466, 8931, 12227, 18748], "responses": ["8", "22", "12", "20"], "num1": [3, 9, 8, 9, 7], "num2": [3, 5, 1, 6, 5], "num3": [2, 8, 3, 5, 9], "type": "DISTRACTOR", "conditions": [12, 1600, "a", 24000], "trial": 2, "trial_type": "math-distractor", "trial_index": 77, "time_elapsed": 535900, "internal_node_id": "0.0-59.0"}}, {"uniqueid": "MTK0437:3NXNZ5RS1B40U999UT364LVLBC897X", "current_trial": 78, "dateTime": 1510874012093, "trialdata": {"rt": -1, "stimulus": "<p id=\"stim\">10</p>", "key_press": -1, "trial_type": "single-stim", "trial_index": 78, "time_elapsed": 538904, "internal_node_id": "0.0-60.0-0.0"}}, {"uniqueid": "MTK0437:3NXNZ5RS1B40U999UT364LVLBC897X", "current_trial": 79, "dateTime": 1510874013096, "trialdata": {"rt": -1, "stimulus": "<p id=\"stim\">9</p>", "key_press": -1, "trial_type": "single-stim", "trial_index": 79, "time_elapsed": 539906, "internal_node_id": "0.0-60.0-1.0"}}, {"uniqueid": "MTK0437:3NXNZ5RS1B40U999UT364LVLBC897X", "current_trial": 80, "dateTime": 1510874014099, "trialdata": {"rt": -1, "stimulus": "<p id=\"stim\">8</p>", "key_press": -1, "trial_type": "single-stim", "trial_index": 80, "time_elapsed": 540908, "internal_node_id": "0.0-60.0-2.0"}}, {"uniqueid": "MTK0437:3NXNZ5RS1B40U999UT364LVLBC897X", "current_trial": 81, "dateTime": 1510874015101, "trialdata": {"rt": -1, "stimulus": "<p id=\"stim\">7</p>", "key_press": -1, "trial_type": "single-stim", "trial_index": 81, "time_elapsed": 541912, "internal_node_id": "0.0-60.0-3.0"}}, {"uniqueid": "MTK0437:3NXNZ5RS1B40U999UT364LVLBC897X", "current_trial": 82, "dateTime": 1510874016103, "trialdata": {"rt": -1, "stimulus": "<p id=\"stim\">6</p>", "key_press": -1, "trial_type": "single-stim", "trial_index": 82, "time_elapsed": 542913, "internal_node_id": "0.0-60.0-4.0"}}, {"uniqueid": "MTK0437:3NXNZ5RS1B40U999UT364LVLBC897X", "current_trial": 83, "dateTime": 1510874017105, "trialdata": {"rt": -1, "stimulus": "<p id=\"stim\">5</p>", "key_press": -1, "trial_type": "single-stim", "trial_index": 83, "time_elapsed": 543916, "internal_node_id": "0.0-60.0-5.0"}}, {"uniqueid": "MTK0437:3NXNZ5RS1B40U999UT364LVLBC897X", "current_trial": 84, "dateTime": 1510874018107, "trialdata": {"rt": -1, "stimulus": "<p id=\"stim\">4</p>", "key_press": -1, "trial_type": "single-stim", "trial_index": 84, "time_elapsed": 544918, "internal_node_id": "0.0-60.0-6.0"}}, {"uniqueid": "MTK0437:3NXNZ5RS1B40U999UT364LVLBC897X", "current_trial": 85, "dateTime": 1510874019108, "trialdata": {"rt": -1, "stimulus": "<p id=\"stim\">3</p>", "key_press": -1, "trial_type": "single-stim", "trial_index": 85, "time_elapsed": 545919, "internal_node_id": "0.0-60.0-7.0"}}, {"uniqueid": "MTK0437:3NXNZ5RS1B40U999UT364LVLBC897X", "current_trial": 86, "dateTime": 1510874020111, "trialdata": {"rt": -1, "stimulus": "<p id=\"stim\">2</p>", "key_press": -1, "trial_type": "single-stim", "trial_index": 86, "time_elapsed": 546921, "internal_node_id": "0.0-60.0-8.0"}}, {"uniqueid": "MTK0437:3NXNZ5RS1B40U999UT364LVLBC897X", "current_trial": 87, "dateTime": 1510874021114, "trialdata": {"rt": -1, "stimulus": "<p id=\"stim\">1</p>", "key_press": -1, "trial_type": "single-stim", "trial_index": 87, "time_elapsed": 547924, "internal_node_id": "0.0-60.0-9.0"}}, {"uniqueid": "MTK0437:3NXNZ5RS1B40U999UT364LVLBC897X", "current_trial": 88, "dateTime": 1510874022617, "trialdata": {"rt": -1, "stimulus": "<p id=\"stim\">+</p>", "key_press": -1, "type": "FIXATION", "trial_type": "single-stim", "trial_index": 88, "time_elapsed": 549427, "internal_node_id": "0.0-61.0-0.0"}}, {"uniqueid": "MTK0437:3NXNZ5RS1B40U999UT364LVLBC897X", "current_trial": 89, "dateTime": 1510874025188, "trialdata": {"rt": -1000, "stimulus": "/static/audio/wordpool/VICTIM.wav", "key_press": -1, "type": "PRES_AUD", "word": "victim", "wordID": 1561, "conditions": [12, 1600, "a", 24000], "trial": 2, "serialpos": 0, "trial_type": "single-audio", "trial_index": 89, "time_elapsed": 551999, "internal_node_id": "0.0-62.0"}}, {"uniqueid": "MTK0437:3NXNZ5RS1B40U999UT364LVLBC897X", "current_trial": 90, "dateTime": 1510874027895, "trialdata": {"rt": -1000, "stimulus": "/static/audio/wordpool/CONCERT.wav", "key_press": -1, "type": "PRES_AUD", "word": "concert", "wordID": 359, "conditions": [12, 1600, "a", 24000], "trial": 2, "serialpos": 1, "trial_type": "single-audio", "trial_index": 90, "time_elapsed": 554706, "internal_node_id": "0.0-63.0"}}, {"uniqueid": "MTK0437:3NXNZ5RS1B40U999UT364LVLBC897X", "current_trial": 91, "dateTime": 1510874030403, "trialdata": {"rt": -1000, "stimulus": "/static/audio/wordpool/KITCHEN.wav", "key_press": -1, "type": "PRES_AUD", "word": "kitchen", "wordID": 777, "conditions": [12, 1600, "a", 24000], "trial": 2, "serialpos": 2, "trial_type": "single-audio", "trial_index": 91, "time_elapsed": 557214, "internal_node_id": "0.0-64.0"}}, {"uniqueid": "MTK0437:3NXNZ5RS1B40U999UT364LVLBC897X", "current_trial": 92, "dateTime": 1510874032868, "trialdata": {"rt": -1000, "stimulus": "/static/audio/wordpool/MOTEL.wav", "key_press": -1, "type": "PRES_AUD", "word": "motel", "wordID": 918, "conditions": [12, 1600, "a", 24000], "trial": 2, "serialpos": 3, "trial_type": "single-audio", "trial_index": 92, "time_elapsed": 559679, "internal_node_id": "0.0-65.0"}}, {"uniqueid": "MTK0437:3NXNZ5RS1B40U999UT364LVLBC897X", "current_trial": 93, "dateTime": 1510874035641, "trialdata": {"rt": -1000, "stimulus": "/static/audio/wordpool/DAUGHTER.wav", "key_press": -1, "type": "PRES_AUD", "word": "daughter", "wordID": 441, "conditions": [12, 1600, "a", 24000], "trial": 2, "serialpos": 4, "trial_type": "single-audio", "trial_index": 93, "time_elapsed": 562451, "internal_node_id": "0.0-66.0"}}, {"uniqueid": "MTK0437:3NXNZ5RS1B40U999UT364LVLBC897X", "current_trial": 94, "dateTime": 1510874038142, "trialdata": {"rt": -1000, "stimulus": "/static/audio/wordpool/BASEMENT.wav", "key_press": -1, "type": "PRES_AUD", "word": "basement", "wordID": 93, "conditions": [12, 1600, "a", 24000], "trial": 2, "serialpos": 5, "trial_type": "single-audio", "trial_index": 94, "time_elapsed": 564952, "internal_node_id": "0.0-67.0"}}, {"uniqueid": "MTK0437:3NXNZ5RS1B40U999UT364LVLBC897X", "current_trial": 95, "dateTime": 1510874040706, "trialdata": {"rt": -1000, "stimulus": "/static/audio/wordpool/ONION.wav", "key_press": -1, "type": "PRES_AUD", "word": "onion", "wordID": 976, "conditions": [12, 1600, "a", 24000], "trial": 2, "serialpos": 6, "trial_type": "single-audio", "trial_index": 95, "time_elapsed": 567517, "internal_node_id": "0.0-68.0"}}, {"uniqueid": "MTK0437:3NXNZ5RS1B40U999UT364LVLBC897X", "current_trial": 96, "dateTime": 1510874043260, "trialdata": {"rt": -1000, "stimulus": "/static/audio/wordpool/APPLE.wav", "key_press": -1, "type": "PRES_AUD", "word": "apple", "wordID": 32, "conditions": [12, 1600, "a", 24000], "trial": 2, "serialpos": 7, "trial_type": "single-audio", "trial_index": 96, "time_elapsed": 570071, "internal_node_id": "0.0-69.0"}}, {"uniqueid": "MTK0437:3NXNZ5RS1B40U999UT364LVLBC897X", "current_trial": 97, "dateTime": 1510874045845, "trialdata": {"rt": -1000, "stimulus": "/static/audio/wordpool/CONVICT.wav", "key_press": -1, "type": "PRES_AUD", "word": "convict", "wordID": 370, "conditions": [12, 1600, "a", 24000], "trial": 2, "serialpos": 8, "trial_type": "single-audio", "trial_index": 97, "time_elapsed": 572655, "internal_node_id": "0.0-70.0"}}, {"uniqueid": "MTK0437:3NXNZ5RS1B40U999UT364LVLBC897X", "current_trial": 98, "dateTime": 1510874048412, "trialdata": {"rt": -1000, "stimulus": "/static/audio/wordpool/DANDRUFF.wav", "key_press": -1, "type": "PRES_AUD", "word": "dandruff", "wordID": 438, "conditions": [12, 1600, "a", 24000], "trial": 2, "serialpos": 9, "trial_type": "single-audio", "trial_index": 98, "time_elapsed": 575222, "internal_node_id": "0.0-71.0"}}, {"uniqueid": "MTK0437:3NXNZ5RS1B40U999UT364LVLBC897X", "current_trial": 99, "dateTime": 1510874051142, "trialdata": {"rt": -1000, "stimulus": "/static/audio/wordpool/FLESH.wav", "key_press": -1, "type": "PRES_AUD", "word": "flesh", "wordID": 578, "conditions": [12, 1600, "a", 24000], "trial": 2, "serialpos": 10, "trial_type": "single-audio", "trial_index": 99, "time_elapsed": 577953, "internal_node_id": "0.0-72.0"}}, {"uniqueid": "MTK0437:3NXNZ5RS1B40U999UT364LVLBC897X", "current_trial": 100, "dateTime": 1510874053869, "trialdata": {"rt": -1000, "stimulus": "/static/audio/wordpool/MOTOR.wav", "key_press": -1, "type": "PRES_AUD", "word": "motor", "wordID": 921, "conditions": [12, 1600, "a", 24000], "trial": 2, "serialpos": 11, "trial_type": "single-audio", "trial_index": 100, "time_elapsed": 580679, "internal_node_id": "0.0-73.0"}}, {"uniqueid": "MTK0437:3NXNZ5RS1B40U999UT364LVLBC897X", "current_trial": 101, "dateTime": 1510874055117, "trialdata": {"rt": -1, "stimulus": "", "key_press": -1, "type": "PRE_RECALL_DELAY", "trial_type": "single-stim", "trial_index": 101, "time_elapsed": 581927, "internal_node_id": "0.0-74.0-0.0"}}, {"uniqueid": "MTK0437:3NXNZ5RS1B40U999UT364LVLBC897X", "current_trial": 102, "dateTime": 1510874055625, "trialdata": {"rt": -1000, "stimulus": "/static/audio/400Hz.wav", "key_press": -1, "type": "PRE_RECALL_ALERT", "trial_type": "single-audio", "trial_index": 102, "time_elapsed": 582436, "internal_node_id": "0.0-75.0"}}, {"uniqueid": "MTK0437:3NXNZ5RS1B40U999UT364LVLBC897X", "current_trial": 103, "dateTime": 1510874115642, "trialdata": {"rt": [2986, 4787, 6618, 11453, 13169, 22436, 32556], "recwords": ["motor", "flesh", "dandruft", "victim", "convict", "basement", "motel"], "type": "FREE_RECALL", "conditions": [12, 1600, "a", 24000], "trial": 2, "trial_type": "free-recall", "trial_index": 103, "time_elapsed": 642443, "internal_node_id": "0.0-76.0-0.0"}}, {"uniqueid": "MTK0437:3NXNZ5RS1B40U999UT364LVLBC897X", "current_trial": 104, "dateTime": 1510874120431, "trialdata": {"rt": 2787, "key_press": 188, "type": "INSTRUCTIONS", "trial_type": "text", "trial_index": 104, "time_elapsed": 647242, "internal_node_id": "0.0-77.0"}}, {"uniqueid": "MTK0437:3NXNZ5RS1B40U999UT364LVLBC897X", "current_trial": 105, "dateTime": 1510874134445, "trialdata": {"rt": [2242, 4843, 7507], "responses": ["11", "19", "17"], "num1": [1, 3, 2, 3], "num2": [7, 9, 7, 2], "num3": [3, 7, 8, 9], "type": "DISTRACTOR", "conditions": [12, 800, "v", 12000], "trial": 3, "trial_type": "math-distractor", "trial_index": 105, "time_elapsed": 661255, "internal_node_id": "0.0-78.0"}}, {"uniqueid": "MTK0437:3NXNZ5RS1B40U999UT364LVLBC897X", "current_trial": 106, "dateTime": 1510874137448, "trialdata": {"rt": -1, "stimulus": "<p id=\"stim\">10</p>", "key_press": -1, "trial_type": "single-stim", "trial_index": 106, "time_elapsed": 664258, "internal_node_id": "0.0-79.0-0.0"}}, {"uniqueid": "MTK0437:3NXNZ5RS1B40U999UT364LVLBC897X", "current_trial": 107, "dateTime": 1510874138451, "trialdata": {"rt": -1, "stimulus": "<p id=\"stim\">9</p>", "key_press": -1, "trial_type": "single-stim", "trial_index": 107, "time_elapsed": 665261, "internal_node_id": "0.0-79.0-1.0"}}, {"uniqueid": "MTK0437:3NXNZ5RS1B40U999UT364LVLBC897X", "current_trial": 108, "dateTime": 1510874139453, "trialdata": {"rt": -1, "stimulus": "<p id=\"stim\">8</p>", "key_press": -1, "trial_type": "single-stim", "trial_index": 108, "time_elapsed": 666264, "internal_node_id": "0.0-79.0-2.0"}}, {"uniqueid": "MTK0437:3NXNZ5RS1B40U999UT364LVLBC897X", "current_trial": 109, "dateTime": 1510874140456, "trialdata": {"rt": -1, "stimulus": "<p id=\"stim\">7</p>", "key_press": -1, "trial_type": "single-stim", "trial_index": 109, "time_elapsed": 667267, "internal_node_id": "0.0-79.0-3.0"}}, {"uniqueid": "MTK0437:3NXNZ5RS1B40U999UT364LVLBC897X", "current_trial": 110, "dateTime": 1510874141458, "trialdata": {"rt": -1, "stimulus": "<p id=\"stim\">6</p>", "key_press": -1, "trial_type": "single-stim", "trial_index": 110, "time_elapsed": 668268, "internal_node_id": "0.0-79.0-4.0"}}, {"uniqueid": "MTK0437:3NXNZ5RS1B40U999UT364LVLBC897X", "current_trial": 111, "dateTime": 1510874142459, "trialdata": {"rt": -1, "stimulus": "<p id=\"stim\">5</p>", "key_press": -1, "trial_type": "single-stim", "trial_index": 111, "time_elapsed": 669270, "internal_node_id": "0.0-79.0-5.0"}}, {"uniqueid": "MTK0437:3NXNZ5RS1B40U999UT364LVLBC897X", "current_trial": 112, "dateTime": 1510874143461, "trialdata": {"rt": -1, "stimulus": "<p id=\"stim\">4</p>", "key_press": -1, "trial_type": "single-stim", "trial_index": 112, "time_elapsed": 670272, "internal_node_id": "0.0-79.0-6.0"}}, {"uniqueid": "MTK0437:3NXNZ5RS1B40U999UT364LVLBC897X", "current_trial": 113, "dateTime": 1510874144465, "trialdata": {"rt": -1, "stimulus": "<p id=\"stim\">3</p>", "key_press": -1, "trial_type": "single-stim", "trial_index": 113, "time_elapsed": 671275, "internal_node_id": "0.0-79.0-7.0"}}, {"uniqueid": "MTK0437:3NXNZ5RS1B40U999UT364LVLBC897X", "current_trial": 114, "dateTime": 1510874145467, "trialdata": {"rt": -1, "stimulus": "<p id=\"stim\">2</p>", "key_press": -1, "trial_type": "single-stim", "trial_index": 114, "time_elapsed": 672278, "internal_node_id": "0.0-79.0-8.0"}}, {"uniqueid": "MTK0437:3NXNZ5RS1B40U999UT364LVLBC897X", "current_trial": 115, "dateTime": 1510874146469, "trialdata": {"rt": -1, "stimulus": "<p id=\"stim\">1</p>", "key_press": -1, "trial_type": "single-stim", "trial_index": 115, "time_elapsed": 673280, "internal_node_id": "0.0-79.0-9.0"}}, {"uniqueid": "MTK0437:3NXNZ5RS1B40U999UT364LVLBC897X", "current_trial": 116, "dateTime": 1510874147971, "trialdata": {"rt": -1, "stimulus": "<p id=\"stim\">+</p>", "key_press": -1, "type": "FIXATION", "trial_type": "single-stim", "trial_index": 116, "time_elapsed": 674782, "internal_node_id": "0.0-80.0-0.0"}}, {"uniqueid": "MTK0437:3NXNZ5RS1B40U999UT364LVLBC897X", "current_trial": 117, "dateTime": 1510874148772, "trialdata": {"rt": -1, "stimulus": "<p id=\"stim\">HORNET</p>", "key_press": -1, "type": "PRES_VIS", "word": "hornet", "wordID": 717, "conditions": [12, 800, "v", 12000], "trial": 3, "serialpos": 0, "trial_type": "single-stim", "trial_index": 117, "time_elapsed": 675583, "internal_node_id": "0.0-81.0"}}, {"uniqueid": "MTK0437:3NXNZ5RS1B40U999UT364LVLBC897X", "current_trial": 118, "dateTime": 1510874150468, "trialdata": {"rt": -1, "stimulus": "<p id=\"stim\">PEPPER</p>", "key_press": -1, "type": "PRES_VIS", "word": "pepper", "wordID": 1046, "conditions": [12, 800, "v", 12000], "trial": 3, "serialpos": 1, "trial_type": "single-stim", "trial_index": 118, "time_elapsed": 677279, "internal_node_id": "0.0-82.0"}}, {"uniqueid": "MTK0437:3NXNZ5RS1B40U999UT364LVLBC897X", "current_trial": 119, "dateTime": 1510874152324, "trialdata": {"rt": -1, "stimulus": "<p id=\"stim\">PATROL</p>", "key_press": -1, "type": "PRES_VIS", "word": "patrol", "wordID": 1026, "conditions": [12, 800, "v", 12000], "trial": 3, "serialpos": 2, "trial_type": "single-stim", "trial_index": 119, "time_elapsed": 679135, "internal_node_id": "0.0-83.0"}}, {"uniqueid": "MTK0437:3NXNZ5RS1B40U999UT364LVLBC897X", "current_trial": 120, "dateTime": 1510874154175, "trialdata": {"rt": -1, "stimulus": "<p id=\"stim\">FIREMAN</p>", "key_press": -1, "type": "PRES_VIS", "word": "fireman", "wordID": 568, "conditions": [12, 800, "v", 12000], "trial": 3, "serialpos": 3, "trial_type": "single-stim", "trial_index": 120, "time_elapsed": 680985, "internal_node_id": "0.0-84.0"}}, {"uniqueid": "MTK0437:3NXNZ5RS1B40U999UT364LVLBC897X", "current_trial": 121, "dateTime": 1510874156015, "trialdata": {"rt": -1, "stimulus": "<p id=\"stim\">SPIDER</p>", "key_press": -1, "type": "PRES_VIS", "word": "spider", "wordID": 1350, "conditions": [12, 800, "v", 12000], "trial": 3, "serialpos": 4, "trial_type": "single-stim", "trial_index": 121, "time_elapsed": 682825, "internal_node_id": "0.0-85.0"}}, {"uniqueid": "MTK0437:3NXNZ5RS1B40U999UT364LVLBC897X", "current_trial": 122, "dateTime": 1510874157867, "trialdata": {"rt": -1, "stimulus": "<p id=\"stim\">TWEEZERS</p>", "key_press": -1, "type": "PRES_VIS", "word": "tweezers", "wordID": 1525, "conditions": [12, 800, "v", 12000], "trial": 3, "serialpos": 5, "trial_type": "single-stim", "trial_index": 122, "time_elapsed": 684678, "internal_node_id": "0.0-86.0"}}, {"uniqueid": "MTK0437:3NXNZ5RS1B40U999UT364LVLBC897X", "current_trial": 123, "dateTime": 1510874159846, "trialdata": {"rt": -1, "stimulus": "<p id=\"stim\">PLIERS</p>", "key_press": -1, "type": "PRES_VIS", "word": "pliers", "wordID": 1088, "conditions": [12, 800, "v", 12000], "trial": 3, "serialpos": 6, "trial_type": "single-stim", "trial_index": 123, "time_elapsed": 686657, "internal_node_id": "0.0-87.0"}}, {"uniqueid": "MTK0437:3NXNZ5RS1B40U999UT364LVLBC897X", "current_trial": 124, "dateTime": 1510874161831, "trialdata": {"rt": -1, "stimulus": "<p id=\"stim\">WINDOW</p>", "key_press": -1, "type": "PRES_VIS", "word": "window", "wordID": 1610, "conditions": [12, 800, "v", 12000], "trial": 3, "serialpos": 7, "trial_type": "single-stim", "trial_index": 124, "time_elapsed": 688641, "internal_node_id": "0.0-88.0"}}, {"uniqueid": "MTK0437:3NXNZ5RS1B40U999UT364LVLBC897X", "current_trial": 125, "dateTime": 1510874163542, "trialdata": {"rt": -1, "stimulus": "<p id=\"stim\">PLAID</p>", "key_press": -1, "type": "PRES_VIS", "word": "plaid", "wordID": 1079, "conditions": [12, 800, "v", 12000], "trial": 3, "serialpos": 8, "trial_type": "single-stim", "trial_index": 125, "time_elapsed": 690353, "internal_node_id": "0.0-89.0"}}, {"uniqueid": "MTK0437:3NXNZ5RS1B40U999UT364LVLBC897X", "current_trial": 126, "dateTime": 1510874165414, "trialdata": {"rt": -1, "stimulus": "<p id=\"stim\">WASP</p>", "key_press": -1, "type": "PRES_VIS", "word": "wasp", "wordID": 1592, "conditions": [12, 800, "v", 12000], "trial": 3, "serialpos": 9, "trial_type": "single-stim", "trial_index": 126, "time_elapsed": 692225, "internal_node_id": "0.0-90.0"}}, {"uniqueid": "MTK0437:3NXNZ5RS1B40U999UT364LVLBC897X", "current_trial": 127, "dateTime": 1510874167024, "trialdata": {"rt": -1, "stimulus": "<p id=\"stim\">CANAL</p>", "key_press": -1, "type": "PRES_VIS", "word": "canal", "wordID": 225, "conditions": [12, 800, "v", 12000], "trial": 3, "serialpos": 10, "trial_type": "single-stim", "trial_index": 127, "time_elapsed": 693835, "internal_node_id": "0.0-91.0"}}, {"uniqueid": "MTK0437:3NXNZ5RS1B40U999UT364LVLBC897X", "current_trial": 128, "dateTime": 1510874168628, "trialdata": {"rt": -1, "stimulus": "<p id=\"stim\">UNCLE</p>", "key_press": -1, "type": "PRES_VIS", "word": "uncle", "wordID": 1535, "conditions": [12, 800, "v", 12000], "trial": 3, "serialpos": 11, "trial_type": "single-stim", "trial_index": 128, "time_elapsed": 695438, "internal_node_id": "0.0-92.0"}}, {"uniqueid": "MTK0437:3NXNZ5RS1B40U999UT364LVLBC897X", "current_trial": 129, "dateTime": 1510874170928, "trialdata": {"rt": -1, "stimulus": "", "key_press": -1, "type": "PRE_RECALL_DELAY", "trial_type": "single-stim", "trial_index": 129, "time_elapsed": 697739, "internal_node_id": "0.0-93.0-0.0"}}, {"uniqueid": "MTK0437:3NXNZ5RS1B40U999UT364LVLBC897X", "current_trial": 130, "dateTime": 1510874171430, "trialdata": {"rt": -1000, "stimulus": "/static/audio/400Hz.wav", "key_press": -1, "type": "PRE_RECALL_ALERT", "trial_type": "single-audio", "trial_index": 130, "time_elapsed": 698241, "internal_node_id": "0.0-94.0"}}, {"uniqueid": "MTK0437:3NXNZ5RS1B40U999UT364LVLBC897X", "current_trial": 131, "dateTime": 1510874231446, "trialdata": {"rt": [4204, 6807, 8389, 16653, 18408, 28779], "recwords": ["uncle", "plaid", "spider", "hornet", "pepper", "tweezers"], "type": "FREE_RECALL", "conditions": [12, 800, "v", 12000], "trial": 3, "trial_type": "free-recall", "trial_index": 131, "time_elapsed": 758247, "internal_node_id": "0.0-95.0-0.0"}}, {"uniqueid": "MTK0437:3NXNZ5RS1B40U999UT364LVLBC897X", "current_trial": 132, "dateTime": 1510874236161, "trialdata": {"rt": 2712, "key_press": 188, "type": "INSTRUCTIONS", "trial_type": "text", "trial_index": 132, "time_elapsed": 762971, "internal_node_id": "0.0-96.0"}}, {"uniqueid": "MTK0437:3NXNZ5RS1B40U999UT364LVLBC897X", "current_trial": 133, "dateTime": 1510874250173, "trialdata": {"rt": [5090, 7434, 10996], "responses": ["22", "18", "14"], "num1": [8, 8, 2, 4], "num2": [9, 8, 3, 6], "num3": [5, 2, 9, 4], "type": "DISTRACTOR", "conditions": [12, 800, "a", 12000], "trial": 4, "trial_type": "math-distractor", "trial_index": 133, "time_elapsed": 776983, "internal_node_id": "0.0-97.0"}}, {"uniqueid": "MTK0437:3NXNZ5RS1B40U999UT364LVLBC897X", "current_trial": 134, "dateTime": 1510874253188, "trialdata": {"rt": -1, "stimulus": "<p id=\"stim\">10</p>", "key_press": -1, "trial_type": "single-stim", "trial_index": 134, "time_elapsed": 779998, "internal_node_id": "0.0-98.0-0.0"}}, {"uniqueid": "MTK0437:3NXNZ5RS1B40U999UT364LVLBC897X", "current_trial": 135, "dateTime": 1510874254192, "trialdata": {"rt": -1, "stimulus": "<p id=\"stim\">9</p>", "key_press": -1, "trial_type": "single-stim", "trial_index": 135, "time_elapsed": 781002, "internal_node_id": "0.0-98.0-1.0"}}, {"uniqueid": "MTK0437:3NXNZ5RS1B40U999UT364LVLBC897X", "current_trial": 136, "dateTime": 1510874255196, "trialdata": {"rt": -1, "stimulus": "<p id=\"stim\">8</p>", "key_press": -1, "trial_type": "single-stim", "trial_index": 136, "time_elapsed": 782006, "internal_node_id": "0.0-98.0-2.0"}}, {"uniqueid": "MTK0437:3NXNZ5RS1B40U999UT364LVLBC897X", "current_trial": 137, "dateTime": 1510874256200, "trialdata": {"rt": -1, "stimulus": "<p id=\"stim\">7</p>", "key_press": -1, "trial_type": "single-stim", "trial_index": 137, "time_elapsed": 783009, "internal_node_id": "0.0-98.0-3.0"}}, {"uniqueid": "MTK0437:3NXNZ5RS1B40U999UT364LVLBC897X", "current_trial": 138, "dateTime": 1510874257221, "trialdata": {"rt": -1, "stimulus": "<p id=\"stim\">6</p>", "key_press": -1, "trial_type": "single-stim", "trial_index": 138, "time_elapsed": 784031, "internal_node_id": "0.0-98.0-4.0"}}, {"uniqueid": "MTK0437:3NXNZ5RS1B40U999UT364LVLBC897X", "current_trial": 139, "dateTime": 1510874258222, "trialdata": {"rt": -1, "stimulus": "<p id=\"stim\">5</p>", "key_press": -1, "trial_type": "single-stim", "trial_index": 139, "time_elapsed": 785033, "internal_node_id": "0.0-98.0-5.0"}}, {"uniqueid": "MTK0437:3NXNZ5RS1B40U999UT364LVLBC897X", "current_trial": 140, "dateTime": 1510874259224, "trialdata": {"rt": -1, "stimulus": "<p id=\"stim\">4</p>", "key_press": -1, "trial_type": "single-stim", "trial_index": 140, "time_elapsed": 786034, "internal_node_id": "0.0-98.0-6.0"}}, {"uniqueid": "MTK0437:3NXNZ5RS1B40U999UT364LVLBC897X", "current_trial": 141, "dateTime": 1510874260224, "trialdata": {"rt": -1, "stimulus": "<p id=\"stim\">3</p>", "key_press": -1, "trial_type": "single-stim", "trial_index": 141, "time_elapsed": 787035, "internal_node_id": "0.0-98.0-7.0"}}, {"uniqueid": "MTK0437:3NXNZ5RS1B40U999UT364LVLBC897X", "current_trial": 142, "dateTime": 1510874261226, "trialdata": {"rt": -1, "stimulus": "<p id=\"stim\">2</p>", "key_press": -1, "trial_type": "single-stim", "trial_index": 142, "time_elapsed": 788037, "internal_node_id": "0.0-98.0-8.0"}}, {"uniqueid": "MTK0437:3NXNZ5RS1B40U999UT364LVLBC897X", "current_trial": 143, "dateTime": 1510874262227, "trialdata": {"rt": -1, "stimulus": "<p id=\"stim\">1</p>", "key_press": -1, "trial_type": "single-stim", "trial_index": 143, "time_elapsed": 789038, "internal_node_id": "0.0-98.0-9.0"}}, {"uniqueid": "MTK0437:3NXNZ5RS1B40U999UT364LVLBC897X", "current_trial": 144, "dateTime": 1510874263731, "trialdata": {"rt": -1, "stimulus": "<p id=\"stim\">+</p>", "key_press": -1, "type": "FIXATION", "trial_type": "single-stim", "trial_index": 144, "time_elapsed": 790541, "internal_node_id": "0.0-99.0-0.0"}}, {"uniqueid": "MTK0437:3NXNZ5RS1B40U999UT364LVLBC897X", "current_trial": 145, "dateTime": 1510874265653, "trialdata": {"rt": -1000, "stimulus": "/static/audio/wordpool/MARKER.wav", "key_press": -1, "type": "PRES_AUD", "word": "marker", "wordID": 869, "conditions": [12, 800, "a", 12000], "trial": 4, "serialpos": 0, "trial_type": "single-audio", "trial_index": 145, "time_elapsed": 792464, "internal_node_id": "0.0-100.0"}}, {"uniqueid": "MTK0437:3NXNZ5RS1B40U999UT364LVLBC897X", "current_trial": 146, "dateTime": 1510874267628, "trialdata": {"rt": -1000, "stimulus": "/static/audio/wordpool/SEAFOOD.wav", "key_press": -1, "type": "PRES_AUD", "word": "seafood", "wordID": 1259, "conditions": [12, 800, "a", 12000], "trial": 4, "serialpos": 1, "trial_type": "single-audio", "trial_index": 146, "time_elapsed": 794439, "internal_node_id": "0.0-101.0"}}, {"uniqueid": "MTK0437:3NXNZ5RS1B40U999UT364LVLBC897X", "current_trial": 147, "dateTime": 1510874269559, "trialdata": {"rt": -1000, "stimulus": "/static/audio/wordpool/LAGOON.wav", "key_press": -1, "type": "PRES_AUD", "word": "lagoon", "wordID": 794, "conditions": [12, 800, "a", 12000], "trial": 4, "serialpos": 2, "trial_type": "single-audio", "trial_index": 147, "time_elapsed": 796370, "internal_node_id": "0.0-102.0"}}, {"uniqueid": "MTK0437:3NXNZ5RS1B40U999UT364LVLBC897X", "current_trial": 148, "dateTime": 1510874271215, "trialdata": {"rt": -1000, "stimulus": "/static/audio/wordpool/DOLPHIN.wav", "key_press": -1, "type": "PRES_AUD", "word": "dolphin", "wordID": 482, "conditions": [12, 800, "a", 12000], "trial": 4, "serialpos": 3, "trial_type": "single-audio", "trial_index": 148, "time_elapsed": 798026, "internal_node_id": "0.0-103.0"}}, {"uniqueid": "MTK0437:3NXNZ5RS1B40U999UT364LVLBC897X", "current_trial": 149, "dateTime": 1510874273043, "trialdata": {"rt": -1000, "stimulus": "/static/audio/wordpool/BRICK.wav", "key_press": -1, "type": "PRES_AUD", "word": "brick", "wordID": 171, "conditions": [12, 800, "a", 12000], "trial": 4, "serialpos": 4, "trial_type": "single-audio", "trial_index": 149, "time_elapsed": 799854, "internal_node_id": "0.0-104.0"}}, {"uniqueid": "MTK0437:3NXNZ5RS1B40U999UT364LVLBC897X", "current_trial": 150, "dateTime": 1510874274825, "trialdata": {"rt": -1000, "stimulus": "/static/audio/wordpool/TILE.wav", "key_press": -1, "type": "PRES_AUD", "word": "tile", "wordID": 1467, "conditions": [12, 800, "a", 12000], "trial": 4, "serialpos": 5, "trial_type": "single-audio", "trial_index": 150, "time_elapsed": 801635, "internal_node_id": "0.0-105.0"}}, {"uniqueid": "MTK0437:3NXNZ5RS1B40U999UT364LVLBC897X", "current_trial": 151, "dateTime": 1510874276554, "trialdata": {"rt": -1000, "stimulus": "/static/audio/wordpool/SPOUSE.wav", "key_press": -1, "type": "PRES_AUD", "word": "spouse", "wordID": 1357, "conditions": [12, 800, "a", 12000], "trial": 4, "serialpos": 6, "trial_type": "single-audio", "trial_index": 151, "time_elapsed": 803365, "internal_node_id": "0.0-106.0"}}, {"uniqueid": "MTK0437:3NXNZ5RS1B40U999UT364LVLBC897X", "current_trial": 152, "dateTime": 1510874278456, "trialdata": {"rt": -1000, "stimulus": "/static/audio/wordpool/LIGHTNING.wav", "key_press": -1, "type": "PRES_AUD", "word": "lightning", "wordID": 819, "conditions": [12, 800, "a", 12000], "trial": 4, "serialpos": 7, "trial_type": "single-audio", "trial_index": 152, "time_elapsed": 805266, "internal_node_id": "0.0-107.0"}}, {"uniqueid": "MTK0437:3NXNZ5RS1B40U999UT364LVLBC897X", "current_trial": 153, "dateTime": 1510874280168, "trialdata": {"rt": -1000, "stimulus": "/static/audio/wordpool/WORLD.wav", "key_press": -1, "type": "PRES_AUD", "word": "world", "wordID": 1621, "conditions": [12, 800, "a", 12000], "trial": 4, "serialpos": 8, "trial_type": "single-audio", "trial_index": 153, "time_elapsed": 806979, "internal_node_id": "0.0-108.0"}}, {"uniqueid": "MTK0437:3NXNZ5RS1B40U999UT364LVLBC897X", "current_trial": 154, "dateTime": 1510874282124, "trialdata": {"rt": -1000, "stimulus": "/static/audio/wordpool/TRUCK.wav", "key_press": -1, "type": "PRES_AUD", "word": "truck", "wordID": 1511, "conditions": [12, 800, "a", 12000], "trial": 4, "serialpos": 9, "trial_type": "single-audio", "trial_index": 154, "time_elapsed": 808934, "internal_node_id": "0.0-109.0"}}, {"uniqueid": "MTK0437:3NXNZ5RS1B40U999UT364LVLBC897X", "current_trial": 155, "dateTime": 1510874284004, "trialdata": {"rt": -1000, "stimulus": "/static/audio/wordpool/TOURIST.wav", "key_press": -1, "type": "PRES_AUD", "word": "tourist", "wordID": 1487, "conditions": [12, 800, "a", 12000], "trial": 4, "serialpos": 10, "trial_type": "single-audio", "trial_index": 155, "time_elapsed": 810815, "internal_node_id": "0.0-110.0"}}, {"uniqueid": "MTK0437:3NXNZ5RS1B40U999UT364LVLBC897X", "current_trial": 156, "dateTime": 1510874285695, "trialdata": {"rt": -1000, "stimulus": "/static/audio/wordpool/HUSBAND.wav", "key_press": -1, "type": "PRES_AUD", "word": "husband", "wordID": 727, "conditions": [12, 800, "a", 12000], "trial": 4, "serialpos": 11, "trial_type": "single-audio", "trial_index": 156, "time_elapsed": 812506, "internal_node_id": "0.0-111.0"}}, {"uniqueid": "MTK0437:3NXNZ5RS1B40U999UT364LVLBC897X", "current_trial": 157, "dateTime": 1510874286903, "trialdata": {"rt": -1, "stimulus": "", "key_press": -1, "type": "PRE_RECALL_DELAY", "trial_type": "single-stim", "trial_index": 157, "time_elapsed": 813713, "internal_node_id": "0.0-112.0-0.0"}}, {"uniqueid": "MTK0437:3NXNZ5RS1B40U999UT364LVLBC897X", "current_trial": 158, "dateTime": 1510874287404, "trialdata": {"rt": -1000, "stimulus": "/static/audio/400Hz.wav", "key_press": -1, "type": "PRE_RECALL_ALERT", "trial_type": "single-audio", "trial_index": 158, "time_elapsed": 814215, "internal_node_id": "0.0-113.0"}}, {"uniqueid": "MTK0437:3NXNZ5RS1B40U999UT364LVLBC897X", "current_trial": 159, "dateTime": 1510874347419, "trialdata": {"rt": [4322, 6679, 8315, 10573, 12227, 20429], "recwords": ["husband", "tourist", "truck", "brick", "dolphin", "seafood"], "type": "FREE_RECALL", "conditions": [12, 800, "a", 12000], "trial": 4, "trial_type": "free-recall", "trial_index": 159, "time_elapsed": 874222, "internal_node_id": "0.0-114.0-0.0"}}, {"uniqueid": "MTK0437:3NXNZ5RS1B40U999UT364LVLBC897X", "current_trial": 160, "dateTime": 1510874350836, "trialdata": {"rt": 1413, "key_press": 188, "type": "INSTRUCTIONS", "trial_type": "text", "trial_index": 160, "time_elapsed": 877646, "internal_node_id": "0.0-115.0"}}, {"uniqueid": "MTK0437:3NXNZ5RS1B40U999UT364LVLBC897X", "current_trial": 161, "dateTime": 1510874364850, "trialdata": {"rt": [3960, 5664, 9657], "responses": ["10", "16", "17"], "num1": [2, 2, 8, 9], "num2": [3, 6, 2, 6], "num3": [5, 8, 7, 5], "type": "DISTRACTOR", "conditions": [12, 1600, "v", 12000], "trial": 5, "trial_type": "math-distractor", "trial_index": 161, "time_elapsed": 891660, "internal_node_id": "0.0-116.0"}}, {"uniqueid": "MTK0437:3NXNZ5RS1B40U999UT364LVLBC897X", "current_trial": 162, "dateTime": 1510874367854, "trialdata": {"rt": -1, "stimulus": "<p id=\"stim\">10</p>", "key_press": -1, "trial_type": "single-stim", "trial_index": 162, "time_elapsed": 894664, "internal_node_id": "0.0-117.0-0.0"}}, {"uniqueid": "MTK0437:3NXNZ5RS1B40U999UT364LVLBC897X", "current_trial": 163, "dateTime": 1510874368856, "trialdata": {"rt": -1, "stimulus": "<p id=\"stim\">9</p>", "key_press": -1, "trial_type": "single-stim", "trial_index": 163, "time_elapsed": 895667, "internal_node_id": "0.0-117.0-1.0"}}, {"uniqueid": "MTK0437:3NXNZ5RS1B40U999UT364LVLBC897X", "current_trial": 164, "dateTime": 1510874369859, "trialdata": {"rt": -1, "stimulus": "<p id=\"stim\">8</p>", "key_press": -1, "trial_type": "single-stim", "trial_index": 164, "time_elapsed": 896670, "internal_node_id": "0.0-117.0-2.0"}}, {"uniqueid": "MTK0437:3NXNZ5RS1B40U999UT364LVLBC897X", "current_trial": 165, "dateTime": 1510874370861, "trialdata": {"rt": -1, "stimulus": "<p id=\"stim\">7</p>", "key_press": -1, "trial_type": "single-stim", "trial_index": 165, "time_elapsed": 897672, "internal_node_id": "0.0-117.0-3.0"}}, {"uniqueid": "MTK0437:3NXNZ5RS1B40U999UT364LVLBC897X", "current_trial": 166, "dateTime": 1510874371863, "trialdata": {"rt": -1, "stimulus": "<p id=\"stim\">6</p>", "key_press": -1, "trial_type": "single-stim", "trial_index": 166, "time_elapsed": 898674, "internal_node_id": "0.0-117.0-4.0"}}, {"uniqueid": "MTK0437:3NXNZ5RS1B40U999UT364LVLBC897X", "current_trial": 167, "dateTime": 1510874372865, "trialdata": {"rt": -1, "stimulus": "<p id=\"stim\">5</p>", "key_press": -1, "trial_type": "single-stim", "trial_index": 167, "time_elapsed": 899675, "internal_node_id": "0.0-117.0-5.0"}}, {"uniqueid": "MTK0437:3NXNZ5RS1B40U999UT364LVLBC897X", "current_trial": 168, "dateTime": 1510874373866, "trialdata": {"rt": -1, "stimulus": "<p id=\"stim\">4</p>", "key_press": -1, "trial_type": "single-stim", "trial_index": 168, "time_elapsed": 900677, "internal_node_id": "0.0-117.0-6.0"}}, {"uniqueid": "MTK0437:3NXNZ5RS1B40U999UT364LVLBC897X", "current_trial": 169, "dateTime": 1510874374869, "trialdata": {"rt": -1, "stimulus": "<p id=\"stim\">3</p>", "key_press": -1, "trial_type": "single-stim", "trial_index": 169, "time_elapsed": 901679, "internal_node_id": "0.0-117.0-7.0"}}, {"uniqueid": "MTK0437:3NXNZ5RS1B40U999UT364LVLBC897X", "current_trial": 170, "dateTime": 1510874375872, "trialdata": {"rt": -1, "stimulus": "<p id=\"stim\">2</p>", "key_press": -1, "trial_type": "single-stim", "trial_index": 170, "time_elapsed": 902682, "internal_node_id": "0.0-117.0-8.0"}}, {"uniqueid": "MTK0437:3NXNZ5RS1B40U999UT364LVLBC897X", "current_trial": 171, "dateTime": 1510874376873, "trialdata": {"rt": -1, "stimulus": "<p id=\"stim\">1</p>", "key_press": -1, "trial_type": "single-stim", "trial_index": 171, "time_elapsed": 903684, "internal_node_id": "0.0-117.0-9.0"}}, {"uniqueid": "MTK0437:3NXNZ5RS1B40U999UT364LVLBC897X", "current_trial": 172, "dateTime": 1510874378375, "trialdata": {"rt": -1, "stimulus": "<p id=\"stim\">+</p>", "key_press": -1, "type": "FIXATION", "trial_type": "single-stim", "trial_index": 172, "time_elapsed": 905186, "internal_node_id": "0.0-118.0-0.0"}}, {"uniqueid": "MTK0437:3NXNZ5RS1B40U999UT364LVLBC897X", "current_trial": 173, "dateTime": 1510874379977, "trialdata": {"rt": -1, "stimulus": "<p id=\"stim\">TABLET</p>", "key_press": -1, "type": "PRES_VIS", "word": "tablet", "wordID": 1426, "conditions": [12, 1600, "v", 12000], "trial": 5, "serialpos": 0, "trial_type": "single-stim", "trial_index": 173, "time_elapsed": 906787, "internal_node_id": "0.0-119.0"}}, {"uniqueid": "MTK0437:3NXNZ5RS1B40U999UT364LVLBC897X", "current_trial": 174, "dateTime": 1510874382415, "trialdata": {"rt": -1, "stimulus": "<p id=\"stim\">PEACH</p>", "key_press": -1, "type": "PRES_VIS", "word": "peach", "wordID": 1030, "conditions": [12, 1600, "v", 12000], "trial": 5, "serialpos": 1, "trial_type": "single-stim", "trial_index": 174, "time_elapsed": 909226, "internal_node_id": "0.0-120.0"}}, {"uniqueid": "MTK0437:3NXNZ5RS1B40U999UT364LVLBC897X", "current_trial": 175, "dateTime": 1510874385122, "trialdata": {"rt": -1, "stimulus": "<p id=\"stim\">KETCHUP</p>", "key_press": -1, "type": "PRES_VIS", "word": "ketchup", "wordID": 770, "conditions": [12, 1600, "v", 12000], "trial": 5, "serialpos": 2, "trial_type": "single-stim", "trial_index": 175, "time_elapsed": 911933, "internal_node_id": "0.0-121.0"}}, {"uniqueid": "MTK0437:3NXNZ5RS1B40U999UT364LVLBC897X", "current_trial": 176, "dateTime": 1510874387794, "trialdata": {"rt": -1, "stimulus": "<p id=\"stim\">VAGRANT</p>", "key_press": -1, "type": "PRES_VIS", "word": "vagrant", "wordID": 1543, "conditions": [12, 1600, "v", 12000], "trial": 5, "serialpos": 3, "trial_type": "single-stim", "trial_index": 176, "time_elapsed": 914604, "internal_node_id": "0.0-122.0"}}, {"uniqueid": "MTK0437:3NXNZ5RS1B40U999UT364LVLBC897X", "current_trial": 177, "dateTime": 1510874390452, "trialdata": {"rt": -1, "stimulus": "<p id=\"stim\">FRECKLE</p>", "key_press": -1, "type": "PRES_VIS", "word": "freckle", "wordID": 601, "conditions": [12, 1600, "v", 12000], "trial": 5, "serialpos": 4, "trial_type": "single-stim", "trial_index": 177, "time_elapsed": 917262, "internal_node_id": "0.0-123.0"}}, {"uniqueid": "MTK0437:3NXNZ5RS1B40U999UT364LVLBC897X", "current_trial": 178, "dateTime": 1510874392980, "trialdata": {"rt": -1, "stimulus": "<p id=\"stim\">BANKER</p>", "key_press": -1, "type": "PRES_VIS", "word": "banker", "wordID": 83, "conditions": [12, 1600, "v", 12000], "trial": 5, "serialpos": 5, "trial_type": "single-stim", "trial_index": 178, "time_elapsed": 919789, "internal_node_id": "0.0-124.0"}}, {"uniqueid": "MTK0437:3NXNZ5RS1B40U999UT364LVLBC897X", "current_trial": 179, "dateTime": 1510874395666, "trialdata": {"rt": -1, "stimulus": "<p id=\"stim\">REPORT</p>", "key_press": -1, "type": "PRES_VIS", "word": "report", "wordID": 1183, "conditions": [12, 1600, "v", 12000], "trial": 5, "serialpos": 6, "trial_type": "single-stim", "trial_index": 179, "time_elapsed": 922477, "internal_node_id": "0.0-125.0"}}, {"uniqueid": "MTK0437:3NXNZ5RS1B40U999UT364LVLBC897X", "current_trial": 180, "dateTime": 1510874398282, "trialdata": {"rt": -1, "stimulus": "<p id=\"stim\">KNAPSACK</p>", "key_press": -1, "type": "PRES_VIS", "word": "knapsack", "wordID": 782, "conditions": [12, 1600, "v", 12000], "trial": 5, "serialpos": 7, "trial_type": "single-stim", "trial_index": 180, "time_elapsed": 925092, "internal_node_id": "0.0-126.0"}}, {"uniqueid": "MTK0437:3NXNZ5RS1B40U999UT364LVLBC897X", "current_trial": 181, "dateTime": 1510874400896, "trialdata": {"rt": -1, "stimulus": "<p id=\"stim\">SUITCASE</p>", "key_press": -1, "type": "PRES_VIS", "word": "suitcase", "wordID": 1402, "conditions": [12, 1600, "v", 12000], "trial": 5, "serialpos": 8, "trial_type": "single-stim", "trial_index": 181, "time_elapsed": 927706, "internal_node_id": "0.0-127.0"}}, {"uniqueid": "MTK0437:3NXNZ5RS1B40U999UT364LVLBC897X", "current_trial": 182, "dateTime": 1510874403504, "trialdata": {"rt": -1, "stimulus": "<p id=\"stim\">RAZOR</p>", "key_press": -1, "type": "PRES_VIS", "word": "razor", "wordID": 1170, "conditions": [12, 1600, "v", 12000], "trial": 5, "serialpos": 9, "trial_type": "single-stim", "trial_index": 182, "time_elapsed": 930315, "internal_node_id": "0.0-128.0"}}, {"uniqueid": "MTK0437:3NXNZ5RS1B40U999UT364LVLBC897X", "current_trial": 183, "dateTime": 1510874406282, "trialdata": {"rt": -1, "stimulus": "<p id=\"stim\">NOVEL</p>", "key_press": -1, "type": "PRES_VIS", "word": "novel", "wordID": 959, "conditions": [12, 1600, "v", 12000], "trial": 5, "serialpos": 10, "trial_type": "single-stim", "trial_index": 183, "time_elapsed": 933093, "internal_node_id": "0.0-129.0"}}, {"uniqueid": "MTK0437:3NXNZ5RS1B40U999UT364LVLBC897X", "current_trial": 184, "dateTime": 1510874408852, "trialdata": {"rt": -1, "stimulus": "<p id=\"stim\">BANK</p>", "key_press": -1, "type": "PRES_VIS", "word": "bank", "wordID": 82, "conditions": [12, 1600, "v", 12000], "trial": 5, "serialpos": 11, "trial_type": "single-stim", "trial_index": 184, "time_elapsed": 935663, "internal_node_id": "0.0-130.0"}}, {"uniqueid": "MTK0437:3NXNZ5RS1B40U999UT364LVLBC897X", "current_trial": 185, "dateTime": 1510874411266, "trialdata": {"rt": -1, "stimulus": "", "key_press": -1, "type": "PRE_RECALL_DELAY", "trial_type": "single-stim", "trial_index": 185, "time_elapsed": 938076, "internal_node_id": "0.0-131.0-0.0"}}, {"uniqueid": "MTK0437:3NXNZ5RS1B40U999UT364LVLBC897X", "current_trial": 186, "dateTime": 1510874411769, "trialdata": {"rt": -1000, "stimulus": "/static/audio/400Hz.wav", "key_press": -1, "type": "PRE_RECALL_ALERT", "trial_type": "single-audio", "trial_index": 186, "time_elapsed": 938580, "internal_node_id": "0.0-132.0"}}, {"uniqueid": "MTK0437:3NXNZ5RS1B40U999UT364LVLBC897X", "current_trial": 187, "dateTime": 1510874471790, "trialdata": {"rt": [2584, 5550, 9518, 13528, 15126, 24563], "recwords": ["bank", "novel", "razor", "ketchup", "peach", "freckle"], "type": "FREE_RECALL", "conditions": [12, 1600, "v", 12000], "trial": 5, "trial_type": "free-recall", "trial_index": 187, "time_elapsed": 998590, "internal_node_id": "0.0-133.0-0.0"}}, {"uniqueid": "MTK0437:3NXNZ5RS1B40U999UT364LVLBC897X", "current_trial": 188, "dateTime": 1510874475750, "trialdata": {"rt": 1958, "key_press": 188, "type": "INSTRUCTIONS", "trial_type": "text", "trial_index": 188, "time_elapsed": 1002560, "internal_node_id": "0.0-134.0"}}, {"uniqueid": "MTK0437:3NXNZ5RS1B40U999UT364LVLBC897X", "current_trial": 189, "dateTime": 1510874501763, "trialdata": {"rt": [1830, 4311, 8142, 11126, 15919, 17471, 21303], "responses": ["15", "27", "13", "13", "23", "15", "13"], "num1": [8, 9, 4, 5, 8, 7, 2, 5], "num2": [5, 9, 7, 2, 7, 5, 7, 7], "num3": [2, 9, 2, 6, 8, 3, 4, 4], "type": "DISTRACTOR", "conditions": [12, 1600, "v", 24000], "trial": 6, "trial_type": "math-distractor", "trial_index": 189, "time_elapsed": 1028573, "internal_node_id": "0.0-135.0"}}, {"uniqueid": "MTK0437:3NXNZ5RS1B40U999UT364LVLBC897X", "current_trial": 190, "dateTime": 1510874504768, "trialdata": {"rt": -1, "stimulus": "<p id=\"stim\">10</p>", "key_press": -1, "trial_type": "single-stim", "trial_index": 190, "time_elapsed": 1031578, "internal_node_id": "0.0-136.0-0.0"}}, {"uniqueid": "MTK0437:3NXNZ5RS1B40U999UT364LVLBC897X", "current_trial": 191, "dateTime": 1510874505770, "trialdata": {"rt": -1, "stimulus": "<p id=\"stim\">9</p>", "key_press": -1, "trial_type": "single-stim", "trial_index": 191, "time_elapsed": 1032581, "internal_node_id": "0.0-136.0-1.0"}}, {"uniqueid": "MTK0437:3NXNZ5RS1B40U999UT364LVLBC897X", "current_trial": 192, "dateTime": 1510874506772, "trialdata": {"rt": -1, "stimulus": "<p id=\"stim\">8</p>", "key_press": -1, "trial_type": "single-stim", "trial_index": 192, "time_elapsed": 1033583, "internal_node_id": "0.0-136.0-2.0"}}, {"uniqueid": "MTK0437:3NXNZ5RS1B40U999UT364LVLBC897X", "current_trial": 193, "dateTime": 1510874507775, "trialdata": {"rt": -1, "stimulus": "<p id=\"stim\">7</p>", "key_press": -1, "trial_type": "single-stim", "trial_index": 193, "time_elapsed": 1034585, "internal_node_id": "0.0-136.0-3.0"}}, {"uniqueid": "MTK0437:3NXNZ5RS1B40U999UT364LVLBC897X", "current_trial": 194, "dateTime": 1510874508777, "trialdata": {"rt": -1, "stimulus": "<p id=\"stim\">6</p>", "key_press": -1, "trial_type": "single-stim", "trial_index": 194, "time_elapsed": 1035587, "internal_node_id": "0.0-136.0-4.0"}}, {"uniqueid": "MTK0437:3NXNZ5RS1B40U999UT364LVLBC897X", "current_trial": 195, "dateTime": 1510874509778, "trialdata": {"rt": -1, "stimulus": "<p id=\"stim\">5</p>", "key_press": -1, "trial_type": "single-stim", "trial_index": 195, "time_elapsed": 1036589, "internal_node_id": "0.0-136.0-5.0"}}, {"uniqueid": "MTK0437:3NXNZ5RS1B40U999UT364LVLBC897X", "current_trial": 196, "dateTime": 1510874510780, "trialdata": {"rt": -1, "stimulus": "<p id=\"stim\">4</p>", "key_press": -1, "trial_type": "single-stim", "trial_index": 196, "time_elapsed": 1037591, "internal_node_id": "0.0-136.0-6.0"}}, {"uniqueid": "MTK0437:3NXNZ5RS1B40U999UT364LVLBC897X", "current_trial": 197, "dateTime": 1510874511784, "trialdata": {"rt": -1, "stimulus": "<p id=\"stim\">3</p>", "key_press": -1, "trial_type": "single-stim", "trial_index": 197, "time_elapsed": 1038594, "internal_node_id": "0.0-136.0-7.0"}}, {"uniqueid": "MTK0437:3NXNZ5RS1B40U999UT364LVLBC897X", "current_trial": 198, "dateTime": 1510874512788, "trialdata": {"rt": -1, "stimulus": "<p id=\"stim\">2</p>", "key_press": -1, "trial_type": "single-stim", "trial_index": 198, "time_elapsed": 1039598, "internal_node_id": "0.0-136.0-8.0"}}, {"uniqueid": "MTK0437:3NXNZ5RS1B40U999UT364LVLBC897X", "current_trial": 199, "dateTime": 1510874513791, "trialdata": {"rt": -1, "stimulus": "<p id=\"stim\">1</p>", "key_press": -1, "trial_type": "single-stim", "trial_index": 199, "time_elapsed": 1040602, "internal_node_id": "0.0-136.0-9.0"}}, {"uniqueid": "MTK0437:3NXNZ5RS1B40U999UT364LVLBC897X", "current_trial": 200, "dateTime": 1510874515294, "trialdata": {"rt": -1, "stimulus": "<p id=\"stim\">+</p>", "key_press": -1, "type": "FIXATION", "trial_type": "single-stim", "trial_index": 200, "time_elapsed": 1042104, "internal_node_id": "0.0-137.0-0.0"}}, {"uniqueid": "MTK0437:3NXNZ5RS1B40U999UT364LVLBC897X", "current_trial": 201, "dateTime": 1510874516898, "trialdata": {"rt": -1, "stimulus": "<p id=\"stim\">COSTUME</p>", "key_press": -1, "type": "PRES_VIS", "word": "costume", "wordID": 382, "conditions": [12, 1600, "v", 24000], "trial": 6, "serialpos": 0, "trial_type": "single-stim", "trial_index": 201, "time_elapsed": 1043708, "internal_node_id": "0.0-138.0"}}, {"uniqueid": "MTK0437:3NXNZ5RS1B40U999UT364LVLBC897X", "current_trial": 202, "dateTime": 1510874519448, "trialdata": {"rt": -1, "stimulus": "<p id=\"stim\">TUTU</p>", "key_press": -1, "type": "PRES_VIS", "word": "tutu", "wordID": 1523, "conditions": [12, 1600, "v", 24000], "trial": 6, "serialpos": 1, "trial_type": "single-stim", "trial_index": 202, "time_elapsed": 1046258, "internal_node_id": "0.0-139.0"}}, {"uniqueid": "MTK0437:3NXNZ5RS1B40U999UT364LVLBC897X", "current_trial": 203, "dateTime": 1510874521955, "trialdata": {"rt": -1, "stimulus": "<p id=\"stim\">HUMAN</p>", "key_press": -1, "type": "PRES_VIS", "word": "human", "wordID": 725, "conditions": [12, 1600, "v", 24000], "trial": 6, "serialpos": 2, "trial_type": "single-stim", "trial_index": 203, "time_elapsed": 1048765, "internal_node_id": "0.0-140.0"}}, {"uniqueid": "MTK0437:3NXNZ5RS1B40U999UT364LVLBC897X", "current_trial": 204, "dateTime": 1510874524411, "trialdata": {"rt": -1, "stimulus": "<p id=\"stim\">DASHBOARD</p>", "key_press": -1, "type": "PRES_VIS", "word": "dashboard", "wordID": 440, "conditions": [12, 1600, "v", 24000], "trial": 6, "serialpos": 3, "trial_type": "single-stim", "trial_index": 204, "time_elapsed": 1051221, "internal_node_id": "0.0-141.0"}}, {"uniqueid": "MTK0437:3NXNZ5RS1B40U999UT364LVLBC897X", "current_trial": 205, "dateTime": 1510874526986, "trialdata": {"rt": -1, "stimulus": "<p id=\"stim\">COBRA</p>", "key_press": -1, "type": "PRES_VIS", "word": "cobra", "wordID": 335, "conditions": [12, 1600, "v", 24000], "trial": 6, "serialpos": 4, "trial_type": "single-stim", "trial_index": 205, "time_elapsed": 1053796, "internal_node_id": "0.0-142.0"}}, {"uniqueid": "MTK0437:3NXNZ5RS1B40U999UT364LVLBC897X", "current_trial": 206, "dateTime": 1510874529485, "trialdata": {"rt": -1, "stimulus": "<p id=\"stim\">WRENCH</p>", "key_press": -1, "type": "PRES_VIS", "word": "wrench", "wordID": 1624, "conditions": [12, 1600, "v", 24000], "trial": 6, "serialpos": 5, "trial_type": "single-stim", "trial_index": 206, "time_elapsed": 1056295, "internal_node_id": "0.0-143.0"}}, {"uniqueid": "MTK0437:3NXNZ5RS1B40U999UT364LVLBC897X", "current_trial": 207, "dateTime": 1510874532016, "trialdata": {"rt": -1, "stimulus": "<p id=\"stim\">GHETTO</p>", "key_press": -1, "type": "PRES_VIS", "word": "ghetto", "wordID": 632, "conditions": [12, 1600, "v", 24000], "trial": 6, "serialpos": 6, "trial_type": "single-stim", "trial_index": 207, "time_elapsed": 1058826, "internal_node_id": "0.0-144.0"}}, {"uniqueid": "MTK0437:3NXNZ5RS1B40U999UT364LVLBC897X", "current_trial": 208, "dateTime": 1510874534538, "trialdata": {"rt": -1, "stimulus": "<p id=\"stim\">MAMMAL</p>", "key_press": -1, "type": "PRES_VIS", "word": "mammal", "wordID": 860, "conditions": [12, 1600, "v", 24000], "trial": 6, "serialpos": 7, "trial_type": "single-stim", "trial_index": 208, "time_elapsed": 1061349, "internal_node_id": "0.0-145.0"}}, {"uniqueid": "MTK0437:3NXNZ5RS1B40U999UT364LVLBC897X", "current_trial": 209, "dateTime": 1510874537135, "trialdata": {"rt": -1, "stimulus": "<p id=\"stim\">RABBIT</p>", "key_press": -1, "type": "PRES_VIS", "word": "rabbit", "wordID": 1151, "conditions": [12, 1600, "v", 24000], "trial": 6, "serialpos": 8, "trial_type": "single-stim", "trial_index": 209, "time_elapsed": 1063946, "internal_node_id": "0.0-146.0"}}, {"uniqueid": "MTK0437:3NXNZ5RS1B40U999UT364LVLBC897X", "current_trial": 210, "dateTime": 1510874539758, "trialdata": {"rt": -1, "stimulus": "<p id=\"stim\">FOREHEAD</p>", "key_press": -1, "type": "PRES_VIS", "word": "forehead", "wordID": 591, "conditions": [12, 1600, "v", 24000], "trial": 6, "serialpos": 9, "trial_type": "single-stim", "trial_index": 210, "time_elapsed": 1066569, "internal_node_id": "0.0-147.0"}}, {"uniqueid": "MTK0437:3NXNZ5RS1B40U999UT364LVLBC897X", "current_trial": 211, "dateTime": 1510874542499, "trialdata": {"rt": -1, "stimulus": "<p id=\"stim\">BATHTUB</p>", "key_press": -1, "type": "PRES_VIS", "word": "bathtub", "wordID": 99, "conditions": [12, 1600, "v", 24000], "trial": 6, "serialpos": 10, "trial_type": "single-stim", "trial_index": 211, "time_elapsed": 1069310, "internal_node_id": "0.0-148.0"}}, {"uniqueid": "MTK0437:3NXNZ5RS1B40U999UT364LVLBC897X", "current_trial": 212, "dateTime": 1510874545043, "trialdata": {"rt": -1, "stimulus": "<p id=\"stim\">LIZARD</p>", "key_press": -1, "type": "PRES_VIS", "word": "lizard", "wordID": 833, "conditions": [12, 1600, "v", 24000], "trial": 6, "serialpos": 11, "trial_type": "single-stim", "trial_index": 212, "time_elapsed": 1071853, "internal_node_id": "0.0-149.0"}}, {"uniqueid": "MTK0437:3NXNZ5RS1B40U999UT364LVLBC897X", "current_trial": 213, "dateTime": 1510874547334, "trialdata": {"rt": -1, "stimulus": "", "key_press": -1, "type": "PRE_RECALL_DELAY", "trial_type": "single-stim", "trial_index": 213, "time_elapsed": 1074144, "internal_node_id": "0.0-150.0-0.0"}}, {"uniqueid": "MTK0437:3NXNZ5RS1B40U999UT364LVLBC897X", "current_trial": 214, "dateTime": 1510874547836, "trialdata": {"rt": -1000, "stimulus": "/static/audio/400Hz.wav", "key_press": -1, "type": "PRE_RECALL_ALERT", "trial_type": "single-audio", "trial_index": 214, "time_elapsed": 1074646, "internal_node_id": "0.0-151.0"}}, {"uniqueid": "MTK0437:3NXNZ5RS1B40U999UT364LVLBC897X", "current_trial": 215, "dateTime": 1510874607853, "trialdata": {"rt": [2949, 5285, 6971, 8317, 18381], "recwords": ["lizard", "bathtub", "ghetto", "forehead", "tutu"], "type": "FREE_RECALL", "conditions": [12, 1600, "v", 24000], "trial": 6, "trial_type": "free-recall", "trial_index": 215, "time_elapsed": 1134656, "internal_node_id": "0.0-152.0-0.0"}}, {"uniqueid": "MTK0437:3NXNZ5RS1B40U999UT364LVLBC897X", "current_trial": 216, "dateTime": 1510874611827, "trialdata": {"rt": 1970, "key_press": 188, "type": "INSTRUCTIONS", "trial_type": "text", "trial_index": 216, "time_elapsed": 1138636, "internal_node_id": "0.0-153.0"}}, {"uniqueid": "MTK0437:3NXNZ5RS1B40U999UT364LVLBC897X", "current_trial": 217, "dateTime": 1510874625839, "trialdata": {"rt": [3357, 9221, 10933], "responses": ["23", "23", "12"], "num1": [9, 6, 3, 3], "num2": [5, 8, 7, 6], "num3": [9, 9, 2, 6], "type": "DISTRACTOR", "conditions": [24, 800, "v", 12000], "trial": 7, "trial_type": "math-distractor", "trial_index": 217, "time_elapsed": 1152649, "internal_node_id": "0.0-154.0"}}, {"uniqueid": "MTK0437:3NXNZ5RS1B40U999UT364LVLBC897X", "current_trial": 218, "dateTime": 1510874628844, "trialdata": {"rt": -1, "stimulus": "<p id=\"stim\">10</p>", "key_press": -1, "trial_type": "single-stim", "trial_index": 218, "time_elapsed": 1155654, "internal_node_id": "0.0-155.0-0.0"}}, {"uniqueid": "MTK0437:3NXNZ5RS1B40U999UT364LVLBC897X", "current_trial": 219, "dateTime": 1510874629846, "trialdata": {"rt": -1, "stimulus": "<p id=\"stim\">9</p>", "key_press": -1, "trial_type": "single-stim", "trial_index": 219, "time_elapsed": 1156656, "internal_node_id": "0.0-155.0-1.0"}}, {"uniqueid": "MTK0437:3NXNZ5RS1B40U999UT364LVLBC897X", "current_trial": 220, "dateTime": 1510874630848, "trialdata": {"rt": -1, "stimulus": "<p id=\"stim\">8</p>", "key_press": -1, "trial_type": "single-stim", "trial_index": 220, "time_elapsed": 1157659, "internal_node_id": "0.0-155.0-2.0"}}, {"uniqueid": "MTK0437:3NXNZ5RS1B40U999UT364LVLBC897X", "current_trial": 221, "dateTime": 1510874631851, "trialdata": {"rt": -1, "stimulus": "<p id=\"stim\">7</p>", "key_press": -1, "trial_type": "single-stim", "trial_index": 221, "time_elapsed": 1158662, "internal_node_id": "0.0-155.0-3.0"}}, {"uniqueid": "MTK0437:3NXNZ5RS1B40U999UT364LVLBC897X", "current_trial": 222, "dateTime": 1510874632853, "trialdata": {"rt": -1, "stimulus": "<p id=\"stim\">6</p>", "key_press": -1, "trial_type": "single-stim", "trial_index": 222, "time_elapsed": 1159663, "internal_node_id": "0.0-155.0-4.0"}}, {"uniqueid": "MTK0437:3NXNZ5RS1B40U999UT364LVLBC897X", "current_trial": 223, "dateTime": 1510874633855, "trialdata": {"rt": -1, "stimulus": "<p id=\"stim\">5</p>", "key_press": -1, "trial_type": "single-stim", "trial_index": 223, "time_elapsed": 1160665, "internal_node_id": "0.0-155.0-5.0"}}, {"uniqueid": "MTK0437:3NXNZ5RS1B40U999UT364LVLBC897X", "current_trial": 224, "dateTime": 1510874634856, "trialdata": {"rt": -1, "stimulus": "<p id=\"stim\">4</p>", "key_press": -1, "trial_type": "single-stim", "trial_index": 224, "time_elapsed": 1161667, "internal_node_id": "0.0-155.0-6.0"}}, {"uniqueid": "MTK0437:3NXNZ5RS1B40U999UT364LVLBC897X", "current_trial": 225, "dateTime": 1510874635859, "trialdata": {"rt": -1, "stimulus": "<p id=\"stim\">3</p>", "key_press": -1, "trial_type": "single-stim", "trial_index": 225, "time_elapsed": 1162669, "internal_node_id": "0.0-155.0-7.0"}}, {"uniqueid": "MTK0437:3NXNZ5RS1B40U999UT364LVLBC897X", "current_trial": 226, "dateTime": 1510874636862, "trialdata": {"rt": -1, "stimulus": "<p id=\"stim\">2</p>", "key_press": -1, "trial_type": "single-stim", "trial_index": 226, "time_elapsed": 1163672, "internal_node_id": "0.0-155.0-8.0"}}, {"uniqueid": "MTK0437:3NXNZ5RS1B40U999UT364LVLBC897X", "current_trial": 227, "dateTime": 1510874637864, "trialdata": {"rt": -1, "stimulus": "<p id=\"stim\">1</p>", "key_press": -1, "trial_type": "single-stim", "trial_index": 227, "time_elapsed": 1164675, "internal_node_id": "0.0-155.0-9.0"}}, {"uniqueid": "MTK0437:3NXNZ5RS1B40U999UT364LVLBC897X", "current_trial": 228, "dateTime": 1510874639370, "trialdata": {"rt": -1, "stimulus": "<p id=\"stim\">+</p>", "key_press": -1, "type": "FIXATION", "trial_type": "single-stim", "trial_index": 228, "time_elapsed": 1166180, "internal_node_id": "0.0-156.0-0.0"}}, {"uniqueid": "MTK0437:3NXNZ5RS1B40U999UT364LVLBC897X", "current_trial": 229, "dateTime": 1510874640171, "trialdata": {"rt": -1, "stimulus": "<p id=\"stim\">TURNIP</p>", "key_press": -1, "type": "PRES_VIS", "word": "turnip", "wordID": 1520, "conditions": [24, 800, "v", 12000], "trial": 7, "serialpos": 0, "trial_type": "single-stim", "trial_index": 229, "time_elapsed": 1166981, "internal_node_id": "0.0-157.0"}}, {"uniqueid": "MTK0437:3NXNZ5RS1B40U999UT364LVLBC897X", "current_trial": 230, "dateTime": 1510874642045, "trialdata": {"rt": -1, "stimulus": "<p id=\"stim\">CROWN</p>", "key_press": -1, "type": "PRES_VIS", "word": "crown", "wordID": 414, "conditions": [24, 800, "v", 12000], "trial": 7, "serialpos": 1, "trial_type": "single-stim", "trial_index": 230, "time_elapsed": 1168856, "internal_node_id": "0.0-158.0"}}, {"uniqueid": "MTK0437:3NXNZ5RS1B40U999UT364LVLBC897X", "current_trial": 231, "dateTime": 1510874643914, "trialdata": {"rt": -1, "stimulus": "<p id=\"stim\">LUNCH</p>", "key_press": -1, "type": "PRES_VIS", "word": "lunch", "wordID": 848, "conditions": [24, 800, "v", 12000], "trial": 7, "serialpos": 2, "trial_type": "single-stim", "trial_index": 231, "time_elapsed": 1170725, "internal_node_id": "0.0-159.0"}}, {"uniqueid": "MTK0437:3NXNZ5RS1B40U999UT364LVLBC897X", "current_trial": 232, "dateTime": 1510874645867, "trialdata": {"rt": -1, "stimulus": "<p id=\"stim\">TOASTER</p>", "key_press": -1, "type": "PRES_VIS", "word": "toaster", "wordID": 1471, "conditions": [24, 800, "v", 12000], "trial": 7, "serialpos": 3, "trial_type": "single-stim", "trial_index": 232, "time_elapsed": 1172677, "internal_node_id": "0.0-160.0"}}, {"uniqueid": "MTK0437:3NXNZ5RS1B40U999UT364LVLBC897X", "current_trial": 233, "dateTime": 1510874647599, "trialdata": {"rt": -1, "stimulus": "<p id=\"stim\">SAUSAGE</p>", "key_press": -1, "type": "PRES_VIS", "word": "sausage", "wordID": 1237, "conditions": [24, 800, "v", 12000], "trial": 7, "serialpos": 4, "trial_type": "single-stim", "trial_index": 233, "time_elapsed": 1174409, "internal_node_id": "0.0-161.0"}}, {"uniqueid": "MTK0437:3NXNZ5RS1B40U999UT364LVLBC897X", "current_trial": 234, "dateTime": 1510874649359, "trialdata": {"rt": -1, "stimulus": "<p id=\"stim\">HOSTESS</p>", "key_press": -1, "type": "PRES_VIS", "word": "hostess", "wordID": 722, "conditions": [24, 800, "v", 12000], "trial": 7, "serialpos": 5, "trial_type": "single-stim", "trial_index": 234, "time_elapsed": 1176169, "internal_node_id": "0.0-162.0"}}, {"uniqueid": "MTK0437:3NXNZ5RS1B40U999UT364LVLBC897X", "current_trial": 235, "dateTime": 1510874651156, "trialdata": {"rt": -1, "stimulus": "<p id=\"stim\">SCARF</p>", "key_press": -1, "type": "PRES_VIS", "word": "scarf", "wordID": 1245, "conditions": [24, 800, "v", 12000], "trial": 7, "serialpos": 6, "trial_type": "single-stim", "trial_index": 235, "time_elapsed": 1177965, "internal_node_id": "0.0-163.0"}}, {"uniqueid": "MTK0437:3NXNZ5RS1B40U999UT364LVLBC897X", "current_trial": 236, "dateTime": 1510874653101, "trialdata": {"rt": -1, "stimulus": "<p id=\"stim\">PIMPLE</p>", "key_press": -1, "type": "PRES_VIS", "word": "pimple", "wordID": 1070, "conditions": [24, 800, "v", 12000], "trial": 7, "serialpos": 7, "trial_type": "single-stim", "trial_index": 236, "time_elapsed": 1179911, "internal_node_id": "0.0-164.0"}}, {"uniqueid": "MTK0437:3NXNZ5RS1B40U999UT364LVLBC897X", "current_trial": 237, "dateTime": 1510874654806, "trialdata": {"rt": -1, "stimulus": "<p id=\"stim\">PORK</p>", "key_press": -1, "type": "PRES_VIS", "word": "pork", "wordID": 1107, "conditions": [24, 800, "v", 12000], "trial": 7, "serialpos": 8, "trial_type": "single-stim", "trial_index": 237, "time_elapsed": 1181616, "internal_node_id": "0.0-165.0"}}, {"uniqueid": "MTK0437:3NXNZ5RS1B40U999UT364LVLBC897X", "current_trial": 238, "dateTime": 1510874656695, "trialdata": {"rt": -1, "stimulus": "<p id=\"stim\">BUGGY</p>", "key_press": -1, "type": "PRES_VIS", "word": "buggy", "wordID": 187, "conditions": [24, 800, "v", 12000], "trial": 7, "serialpos": 9, "trial_type": "single-stim", "trial_index": 238, "time_elapsed": 1183505, "internal_node_id": "0.0-166.0"}}, {"uniqueid": "MTK0437:3NXNZ5RS1B40U999UT364LVLBC897X", "current_trial": 239, "dateTime": 1510874658468, "trialdata": {"rt": -1, "stimulus": "<p id=\"stim\">MILK</p>", "key_press": -1, "type": "PRES_VIS", "word": "milk", "wordID": 894, "conditions": [24, 800, "v", 12000], "trial": 7, "serialpos": 10, "trial_type": "single-stim", "trial_index": 239, "time_elapsed": 1185279, "internal_node_id": "0.0-167.0"}}, {"uniqueid": "MTK0437:3NXNZ5RS1B40U999UT364LVLBC897X", "current_trial": 240, "dateTime": 1510874660281, "trialdata": {"rt": -1, "stimulus": "<p id=\"stim\">HONEY</p>", "key_press": -1, "type": "PRES_VIS", "word": "honey", "wordID": 712, "conditions": [24, 800, "v", 12000], "trial": 7, "serialpos": 11, "trial_type": "single-stim", "trial_index": 240, "time_elapsed": 1187091, "internal_node_id": "0.0-168.0"}}, {"uniqueid": "MTK0437:3NXNZ5RS1B40U999UT364LVLBC897X", "current_trial": 241, "dateTime": 1510874662107, "trialdata": {"rt": -1, "stimulus": "<p id=\"stim\">KNIFE</p>", "key_press": -1, "type": "PRES_VIS", "word": "knife", "wordID": 784, "conditions": [24, 800, "v", 12000], "trial": 7, "serialpos": 12, "trial_type": "single-stim", "trial_index": 241, "time_elapsed": 1188916, "internal_node_id": "0.0-169.0"}}, {"uniqueid": "MTK0437:3NXNZ5RS1B40U999UT364LVLBC897X", "current_trial": 242, "dateTime": 1510874663949, "trialdata": {"rt": -1, "stimulus": "<p id=\"stim\">PISTOL</p>", "key_press": -1, "type": "PRES_VIS", "word": "pistol", "wordID": 1074, "conditions": [24, 800, "v", 12000], "trial": 7, "serialpos": 13, "trial_type": "single-stim", "trial_index": 242, "time_elapsed": 1190759, "internal_node_id": "0.0-170.0"}}, {"uniqueid": "MTK0437:3NXNZ5RS1B40U999UT364LVLBC897X", "current_trial": 243, "dateTime": 1510874665595, "trialdata": {"rt": -1, "stimulus": "<p id=\"stim\">GLOVE</p>", "key_press": -1, "type": "PRES_VIS", "word": "glove", "wordID": 641, "conditions": [24, 800, "v", 12000], "trial": 7, "serialpos": 14, "trial_type": "single-stim", "trial_index": 243, "time_elapsed": 1192405, "internal_node_id": "0.0-171.0"}}, {"uniqueid": "MTK0437:3NXNZ5RS1B40U999UT364LVLBC897X", "current_trial": 244, "dateTime": 1510874667494, "trialdata": {"rt": -1, "stimulus": "<p id=\"stim\">FINGER</p>", "key_press": -1, "type": "PRES_VIS", "word": "finger", "wordID": 566, "conditions": [24, 800, "v", 12000], "trial": 7, "serialpos": 15, "trial_type": "single-stim", "trial_index": 244, "time_elapsed": 1194305, "internal_node_id": "0.0-172.0"}}, {"uniqueid": "MTK0437:3NXNZ5RS1B40U999UT364LVLBC897X", "current_trial": 245, "dateTime": 1510874669314, "trialdata": {"rt": -1, "stimulus": "<p id=\"stim\">WIFE</p>", "key_press": -1, "type": "PRES_VIS", "word": "wife", "wordID": 1608, "conditions": [24, 800, "v", 12000], "trial": 7, "serialpos": 16, "trial_type": "single-stim", "trial_index": 245, "time_elapsed": 1196124, "internal_node_id": "0.0-173.0"}}, {"uniqueid": "MTK0437:3NXNZ5RS1B40U999UT364LVLBC897X", "current_trial": 246, "dateTime": 1510874671025, "trialdata": {"rt": -1, "stimulus": "<p id=\"stim\">PICNIC</p>", "key_press": -1, "type": "PRES_VIS", "word": "picnic", "wordID": 1059, "conditions": [24, 800, "v", 12000], "trial": 7, "serialpos": 17, "trial_type": "single-stim", "trial_index": 246, "time_elapsed": 1197835, "internal_node_id": "0.0-174.0"}}, {"uniqueid": "MTK0437:3NXNZ5RS1B40U999UT364LVLBC897X", "current_trial": 247, "dateTime": 1510874672983, "trialdata": {"rt": -1, "stimulus": "<p id=\"stim\">WAITER</p>", "key_press": -1, "type": "PRES_VIS", "word": "waiter", "wordID": 1579, "conditions": [24, 800, "v", 12000], "trial": 7, "serialpos": 18, "trial_type": "single-stim", "trial_index": 247, "time_elapsed": 1199794, "internal_node_id": "0.0-175.0"}}, {"uniqueid": "MTK0437:3NXNZ5RS1B40U999UT364LVLBC897X", "current_trial": 248, "dateTime": 1510874674657, "trialdata": {"rt": -1, "stimulus": "<p id=\"stim\">SHRUB</p>", "key_press": -1, "type": "PRES_VIS", "word": "shrub", "wordID": 1298, "conditions": [24, 800, "v", 12000], "trial": 7, "serialpos": 19, "trial_type": "single-stim", "trial_index": 248, "time_elapsed": 1201467, "internal_node_id": "0.0-176.0"}}, {"uniqueid": "MTK0437:3NXNZ5RS1B40U999UT364LVLBC897X", "current_trial": 249, "dateTime": 1510874676279, "trialdata": {"rt": -1, "stimulus": "<p id=\"stim\">GIFT</p>", "key_press": -1, "type": "PRES_VIS", "word": "gift", "wordID": 634, "conditions": [24, 800, "v", 12000], "trial": 7, "serialpos": 20, "trial_type": "single-stim", "trial_index": 249, "time_elapsed": 1203089, "internal_node_id": "0.0-177.0"}}, {"uniqueid": "MTK0437:3NXNZ5RS1B40U999UT364LVLBC897X", "current_trial": 250, "dateTime": 1510874677912, "trialdata": {"rt": -1, "stimulus": "<p id=\"stim\">WIDOW</p>", "key_press": -1, "type": "PRES_VIS", "word": "widow", "wordID": 1607, "conditions": [24, 800, "v", 12000], "trial": 7, "serialpos": 21, "trial_type": "single-stim", "trial_index": 250, "time_elapsed": 1204721, "internal_node_id": "0.0-178.0"}}, {"uniqueid": "MTK0437:3NXNZ5RS1B40U999UT364LVLBC897X", "current_trial": 251, "dateTime": 1510874679693, "trialdata": {"rt": -1, "stimulus": "<p id=\"stim\">BACON</p>", "key_press": -1, "type": "PRES_VIS", "word": "bacon", "wordID": 66, "conditions": [24, 800, "v", 12000], "trial": 7, "serialpos": 22, "trial_type": "single-stim", "trial_index": 251, "time_elapsed": 1206503, "internal_node_id": "0.0-179.0"}}, {"uniqueid": "MTK0437:3NXNZ5RS1B40U999UT364LVLBC897X", "current_trial": 252, "dateTime": 1510874681659, "trialdata": {"rt": -1, "stimulus": "<p id=\"stim\">COMPASS</p>", "key_press": -1, "type": "PRES_VIS", "word": "compass", "wordID": 357, "conditions": [24, 800, "v", 12000], "trial": 7, "serialpos": 23, "trial_type": "single-stim", "trial_index": 252, "time_elapsed": 1208470, "internal_node_id": "0.0-180.0"}}, {"uniqueid": "MTK0437:3NXNZ5RS1B40U999UT364LVLBC897X", "current_trial": 253, "dateTime": 1510874683869, "trialdata": {"rt": -1, "stimulus": "", "key_press": -1, "type": "PRE_RECALL_DELAY", "trial_type": "single-stim", "trial_index": 253, "time_elapsed": 1210680, "internal_node_id": "0.0-181.0-0.0"}}, {"uniqueid": "MTK0437:3NXNZ5RS1B40U999UT364LVLBC897X", "current_trial": 254, "dateTime": 1510874684371, "trialdata": {"rt": -1000, "stimulus": "/static/audio/400Hz.wav", "key_press": -1, "type": "PRE_RECALL_ALERT", "trial_type": "single-audio", "trial_index": 254, "time_elapsed": 1211181, "internal_node_id": "0.0-182.0"}}, {"uniqueid": "MTK0437:3NXNZ5RS1B40U999UT364LVLBC897X", "current_trial": 255, "dateTime": 1510874744390, "trialdata": {"rt": [4954, 9807, 13091, 17179, 19773, 28580, 30249, 45564], "recwords": ["compass", "widow", "bacon", "pimple", "honey", "sausage", "toast", "scarf"], "type": "FREE_RECALL", "conditions": [24, 800, "v", 12000], "trial": 7, "trial_type": "free-recall", "trial_index": 255, "time_elapsed": 1271190, "internal_node_id": "0.0-183.0-0.0"}}, {"uniqueid": "MTK0437:3NXNZ5RS1B40U999UT364LVLBC897X", "current_trial": 256, "dateTime": 1510874748688, "trialdata": {"rt": 2295, "key_press": 188, "type": "INSTRUCTIONS", "trial_type": "text", "trial_index": 256, "time_elapsed": 1275498, "internal_node_id": "0.0-184.0"}}, {"uniqueid": "MTK0437:3NXNZ5RS1B40U999UT364LVLBC897X", "current_trial": 257, "dateTime": 1510874762698, "trialdata": {"rt": [3965, 6868, 8741, 10405], "responses": ["17", "13", "15", "6"], "num1": [9, 4, 8, 1, 6], "num2": [4, 6, 5, 3, 3], "num3": [4, 3, 2, 2, 6], "type": "DISTRACTOR", "conditions": [24, 1600, "a", 12000], "trial": 8, "trial_type": "math-distractor", "trial_index": 257, "time_elapsed": 1289508, "internal_node_id": "0.0-185.0"}}, {"uniqueid": "MTK0437:3NXNZ5RS1B40U999UT364LVLBC897X", "current_trial": 258, "dateTime": 1510874765703, "trialdata": {"rt": -1, "stimulus": "<p id=\"stim\">10</p>", "key_press": -1, "trial_type": "single-stim", "trial_index": 258, "time_elapsed": 1292513, "internal_node_id": "0.0-186.0-0.0"}}, {"uniqueid": "MTK0437:3NXNZ5RS1B40U999UT364LVLBC897X", "current_trial": 259, "dateTime": 1510874766706, "trialdata": {"rt": -1, "stimulus": "<p id=\"stim\">9</p>", "key_press": -1, "trial_type": "single-stim", "trial_index": 259, "time_elapsed": 1293516, "internal_node_id": "0.0-186.0-1.0"}}, {"uniqueid": "MTK0437:3NXNZ5RS1B40U999UT364LVLBC897X", "current_trial": 260, "dateTime": 1510874767708, "trialdata": {"rt": -1, "stimulus": "<p id=\"stim\">8</p>", "key_press": -1, "trial_type": "single-stim", "trial_index": 260, "time_elapsed": 1294519, "internal_node_id": "0.0-186.0-2.0"}}, {"uniqueid": "MTK0437:3NXNZ5RS1B40U999UT364LVLBC897X", "current_trial": 261, "dateTime": 1510874768711, "trialdata": {"rt": -1, "stimulus": "<p id=\"stim\">7</p>", "key_press": -1, "trial_type": "single-stim", "trial_index": 261, "time_elapsed": 1295522, "internal_node_id": "0.0-186.0-3.0"}}, {"uniqueid": "MTK0437:3NXNZ5RS1B40U999UT364LVLBC897X", "current_trial": 262, "dateTime": 1510874769713, "trialdata": {"rt": -1, "stimulus": "<p id=\"stim\">6</p>", "key_press": -1, "trial_type": "single-stim", "trial_index": 262, "time_elapsed": 1296523, "internal_node_id": "0.0-186.0-4.0"}}, {"uniqueid": "MTK0437:3NXNZ5RS1B40U999UT364LVLBC897X", "current_trial": 263, "dateTime": 1510874770715, "trialdata": {"rt": -1, "stimulus": "<p id=\"stim\">5</p>", "key_press": -1, "trial_type": "single-stim", "trial_index": 263, "time_elapsed": 1297526, "internal_node_id": "0.0-186.0-5.0"}}, {"uniqueid": "MTK0437:3NXNZ5RS1B40U999UT364LVLBC897X", "current_trial": 264, "dateTime": 1510874771716, "trialdata": {"rt": -1, "stimulus": "<p id=\"stim\">4</p>", "key_press": -1, "trial_type": "single-stim", "trial_index": 264, "time_elapsed": 1298527, "internal_node_id": "0.0-186.0-6.0"}}, {"uniqueid": "MTK0437:3NXNZ5RS1B40U999UT364LVLBC897X", "current_trial": 265, "dateTime": 1510874772733, "trialdata": {"rt": -1, "stimulus": "<p id=\"stim\">3</p>", "key_press": -1, "trial_type": "single-stim", "trial_index": 265, "time_elapsed": 1299543, "internal_node_id": "0.0-186.0-7.0"}}, {"uniqueid": "MTK0437:3NXNZ5RS1B40U999UT364LVLBC897X", "current_trial": 266, "dateTime": 1510874773734, "trialdata": {"rt": -1, "stimulus": "<p id=\"stim\">2</p>", "key_press": -1, "trial_type": "single-stim", "trial_index": 266, "time_elapsed": 1300545, "internal_node_id": "0.0-186.0-8.0"}}, {"uniqueid": "MTK0437:3NXNZ5RS1B40U999UT364LVLBC897X", "current_trial": 267, "dateTime": 1510874774736, "trialdata": {"rt": -1, "stimulus": "<p id=\"stim\">1</p>", "key_press": -1, "trial_type": "single-stim", "trial_index": 267, "time_elapsed": 1301547, "internal_node_id": "0.0-186.0-9.0"}}, {"uniqueid": "MTK0437:3NXNZ5RS1B40U999UT364LVLBC897X", "current_trial": 268, "dateTime": 1510874776239, "trialdata": {"rt": -1, "stimulus": "<p id=\"stim\">+</p>", "key_press": -1, "type": "FIXATION", "trial_type": "single-stim", "trial_index": 268, "time_elapsed": 1303050, "internal_node_id": "0.0-187.0-0.0"}}, {"uniqueid": "MTK0437:3NXNZ5RS1B40U999UT364LVLBC897X", "current_trial": 269, "dateTime": 1510874778677, "trialdata": {"rt": -1000, "stimulus": "/static/audio/wordpool/PIGMENT.wav", "key_press": -1, "type": "PRES_AUD", "word": "pigment", "wordID": 1065, "conditions": [24, 1600, "a", 12000], "trial": 8, "serialpos": 0, "trial_type": "single-audio", "trial_index": 269, "time_elapsed": 1305488, "internal_node_id": "0.0-188.0"}}, {"uniqueid": "MTK0437:3NXNZ5RS1B40U999UT364LVLBC897X", "current_trial": 270, "dateTime": 1510874781093, "trialdata": {"rt": -1000, "stimulus": "/static/audio/wordpool/OINTMENT.wav", "key_press": -1, "type": "PRES_AUD", "word": "ointment", "wordID": 973, "conditions": [24, 1600, "a", 12000], "trial": 8, "serialpos": 1, "trial_type": "single-audio", "trial_index": 270, "time_elapsed": 1307904, "internal_node_id": "0.0-189.0"}}, {"uniqueid": "MTK0437:3NXNZ5RS1B40U999UT364LVLBC897X", "current_trial": 271, "dateTime": 1510874783670, "trialdata": {"rt": -1000, "stimulus": "/static/audio/wordpool/SEAGULL.wav", "key_press": -1, "type": "PRES_AUD", "word": "seagull", "wordID": 1260, "conditions": [24, 1600, "a", 12000], "trial": 8, "serialpos": 2, "trial_type": "single-audio", "trial_index": 271, "time_elapsed": 1310481, "internal_node_id": "0.0-190.0"}}, {"uniqueid": "MTK0437:3NXNZ5RS1B40U999UT364LVLBC897X", "current_trial": 272, "dateTime": 1510874786321, "trialdata": {"rt": -1000, "stimulus": "/static/audio/wordpool/FLIPPER.wav", "key_press": -1, "type": "PRES_AUD", "word": "flipper", "wordID": 579, "conditions": [24, 1600, "a", 12000], "trial": 8, "serialpos": 3, "trial_type": "single-audio", "trial_index": 272, "time_elapsed": 1313132, "internal_node_id": "0.0-191.0"}}, {"uniqueid": "MTK0437:3NXNZ5RS1B40U999UT364LVLBC897X", "current_trial": 273, "dateTime": 1510874788839, "trialdata": {"rt": -1000, "stimulus": "/static/audio/wordpool/FIDDLE.wav", "key_press": -1, "type": "PRES_AUD", "word": "fiddle", "wordID": 560, "conditions": [24, 1600, "a", 12000], "trial": 8, "serialpos": 4, "trial_type": "single-audio", "trial_index": 273, "time_elapsed": 1315650, "internal_node_id": "0.0-192.0"}}, {"uniqueid": "MTK0437:3NXNZ5RS1B40U999UT364LVLBC897X", "current_trial": 274, "dateTime": 1510874791588, "trialdata": {"rt": -1000, "stimulus": "/static/audio/wordpool/JURY.wav", "key_press": -1, "type": "PRES_AUD", "word": "jury", "wordID": 765, "conditions": [24, 1600, "a", 12000], "trial": 8, "serialpos": 5, "trial_type": "single-audio", "trial_index": 274, "time_elapsed": 1318398, "internal_node_id": "0.0-193.0"}}, {"uniqueid": "MTK0437:3NXNZ5RS1B40U999UT364LVLBC897X", "current_trial": 275, "dateTime": 1510874794017, "trialdata": {"rt": -1000, "stimulus": "/static/audio/wordpool/RACKET.wav", "key_press": -1, "type": "PRES_AUD", "word": "racket", "wordID": 1154, "conditions": [24, 1600, "a", 12000], "trial": 8, "serialpos": 6, "trial_type": "single-audio", "trial_index": 275, "time_elapsed": 1320827, "internal_node_id": "0.0-194.0"}}, {"uniqueid": "MTK0437:3NXNZ5RS1B40U999UT364LVLBC897X", "current_trial": 276, "dateTime": 1510874796512, "trialdata": {"rt": -1000, "stimulus": "/static/audio/wordpool/HARP.wav", "key_press": -1, "type": "PRES_AUD", "word": "harp", "wordID": 688, "conditions": [24, 1600, "a", 12000], "trial": 8, "serialpos": 7, "trial_type": "single-audio", "trial_index": 276, "time_elapsed": 1323322, "internal_node_id": "0.0-195.0"}}, {"uniqueid": "MTK0437:3NXNZ5RS1B40U999UT364LVLBC897X", "current_trial": 277, "dateTime": 1510874799029, "trialdata": {"rt": -1000, "stimulus": "/static/audi