{"condition": 0, "counterbalance": 739, "assignmentId": "3JZQSN0I3RHSOCBNQI7SKUUPD5JGFG", "workerId": "MTK0348", "hitId": "31J7RYECZLXFX5XM48KLJ0ZJUQB1LY", "currenttrial": 626, "bonus": 0, "data": [{"uniqueid": "MTK0348:3JZQSN0I3RHSOCBNQI7SKUUPD5JGFG", "current_trial": 0, "dateTime": 1510772387822, "trialdata": {"rt": 2679, "key_press": 32, "type": "INSTRUCTIONS", "trial_type": "text", "trial_index": 0, "time_elapsed": 2682, "internal_node_id": "0.0-0.0"}}, {"uniqueid": "MTK0348:3JZQSN0I3RHSOCBNQI7SKUUPD5JGFG", "current_trial": 1, "dateTime": 1510772456299, "trialdata": {"rt": 68473, "key_press": 76, "type": "INSTRUCTIONS", "trial_type": "text", "trial_index": 1, "time_elapsed": 71159, "internal_node_id": "0.0-1.0"}}, {"uniqueid": "MTK0348:3JZQSN0I3RHSOCBNQI7SKUUPD5JGFG", "current_trial": 2, "dateTime": 1510772533977, "trialdata": {"rt": [77602], "responses": ["ocean"], "type": "AUDIO_TEST", "trial_type": "audio-test", "trial_index": 2, "time_elapsed": 148837, "internal_node_id": "0.0-2.0"}}, {"uniqueid": "MTK0348:3JZQSN0I3RHSOCBNQI7SKUUPD5JGFG", "current_trial": 3, "dateTime": 1510772538760, "trialdata": {"rt": [4765], "responses": ["crystal"], "type": "AUDIO_TEST", "trial_type": "audio-test", "trial_index": 3, "time_elapsed": 153621, "internal_node_id": "0.0-3.0"}}, {"uniqueid": "MTK0348:3JZQSN0I3RHSOCBNQI7SKUUPD5JGFG", "current_trial": 4, "dateTime": 1510772546349, "trialdata": {"rt": [7581], "responses": ["spice"], "type": "AUDIO_TEST", "trial_type": "audio-test", "trial_index": 4, "time_elapsed": 161210, "internal_node_id": "0.0-4.0"}}, {"uniqueid": "MTK0348:3JZQSN0I3RHSOCBNQI7SKUUPD5JGFG", "current_trial": 5, "dateTime": 1510772569944, "trialdata": {"rt": 22841, "responses": "{\"Q0\":\"10pm\",\"Q1\":\"5am\",\"Q2\":\"5\"}", "type": "SLEEP_SURVEY", "trial_type": "survey-text", "trial_index": 5, "time_elapsed": 184806, "internal_node_id": "0.0-5.0"}}, {"uniqueid": "MTK0348:3JZQSN0I3RHSOCBNQI7SKUUPD5JGFG", "current_trial": 6, "dateTime": 1510772652209, "trialdata": {"rt": 81262, "key_press": 72, "type": "INSTRUCTIONS", "trial_type": "text", "trial_index": 6, "time_elapsed": 267070, "internal_node_id": "0.0-6.0"}}, {"uniqueid": "MTK0348:3JZQSN0I3RHSOCBNQI7SKUUPD5JGFG", "current_trial": 7, "dateTime": 1510772678144, "trialdata": {"rt": 25433, "key_press": 71, "type": "INSTRUCTIONS", "trial_type": "text", "trial_index": 7, "time_elapsed": 293005, "internal_node_id": "0.0-7.0"}}, {"uniqueid": "MTK0348:3JZQSN0I3RHSOCBNQI7SKUUPD5JGFG", "current_trial": 8, "dateTime": 1510772722677, "trialdata": {"rt": 44032, "key_press": 72, "type": "INSTRUCTIONS", "trial_type": "text", "trial_index": 8, "time_elapsed": 337539, "internal_node_id": "0.0-8.0"}}, {"uniqueid": "MTK0348:3JZQSN0I3RHSOCBNQI7SKUUPD5JGFG", "current_trial": 9, "dateTime": 1510772741773, "trialdata": {"rt": [2650, 4837, 10622, 12604, 14541, 16995], "responses": ["16", "10", "23", "14", "19", "18"], "num1": [4, 1, 9, 1, 6, 7, 4], "num2": [4, 6, 8, 4, 4, 6, 2], "num3": [8, 3, 6, 9, 9, 5, 2], "type": "DISTRACTOR", "conditions": [18, 1200, "a", 18000], "trial": 0, "trial_type": "math-distractor", "trial_index": 9, "time_elapsed": 356634, "internal_node_id": "0.0-9.0"}}, {"uniqueid": "MTK0348:3JZQSN0I3RHSOCBNQI7SKUUPD5JGFG", "current_trial": 10, "dateTime": 1510772744786, "trialdata": {"rt": -1, "stimulus": "<p id=\"stim\">10</p>", "key_press": -1, "trial_type": "single-stim", "trial_index": 10, "time_elapsed": 359648, "internal_node_id": "0.0-10.0-0.0"}}, {"uniqueid": "MTK0348:3JZQSN0I3RHSOCBNQI7SKUUPD5JGFG", "current_trial": 11, "dateTime": 1510772745789, "trialdata": {"rt": -1, "stimulus": "<p id=\"stim\">9</p>", "key_press": -1, "trial_type": "single-stim", "trial_index": 11, "time_elapsed": 360650, "internal_node_id": "0.0-10.0-1.0"}}, {"uniqueid": "MTK0348:3JZQSN0I3RHSOCBNQI7SKUUPD5JGFG", "current_trial": 12, "dateTime": 1510772746789, "trialdata": {"rt": -1, "stimulus": "<p id=\"stim\">8</p>", "key_press": -1, "trial_type": "single-stim", "trial_index": 12, "time_elapsed": 361651, "internal_node_id": "0.0-10.0-2.0"}}, {"uniqueid": "MTK0348:3JZQSN0I3RHSOCBNQI7SKUUPD5JGFG", "current_trial": 13, "dateTime": 1510772747793, "trialdata": {"rt": -1, "stimulus": "<p id=\"stim\">7</p>", "key_press": -1, "trial_type": "single-stim", "trial_index": 13, "time_elapsed": 362655, "internal_node_id": "0.0-10.0-3.0"}}, {"uniqueid": "MTK0348:3JZQSN0I3RHSOCBNQI7SKUUPD5JGFG", "current_trial": 14, "dateTime": 1510772748794, "trialdata": {"rt": -1, "stimulus": "<p id=\"stim\">6</p>", "key_press": -1, "trial_type": "single-stim", "trial_index": 14, "time_elapsed": 363656, "internal_node_id": "0.0-10.0-4.0"}}, {"uniqueid": "MTK0348:3JZQSN0I3RHSOCBNQI7SKUUPD5JGFG", "current_trial": 15, "dateTime": 1510772749823, "trialdata": {"rt": -1, "stimulus": "<p id=\"stim\">5</p>", "key_press": -1, "trial_type": "single-stim", "trial_index": 15, "time_elapsed": 364685, "internal_node_id": "0.0-10.0-5.0"}}, {"uniqueid": "MTK0348:3JZQSN0I3RHSOCBNQI7SKUUPD5JGFG", "current_trial": 16, "dateTime": 1510772750824, "trialdata": {"rt": -1, "stimulus": "<p id=\"stim\">4</p>", "key_press": -1, "trial_type": "single-stim", "trial_index": 16, "time_elapsed": 365686, "internal_node_id": "0.0-10.0-6.0"}}, {"uniqueid": "MTK0348:3JZQSN0I3RHSOCBNQI7SKUUPD5JGFG", "current_trial": 17, "dateTime": 1510772751877, "trialdata": {"rt": -1, "stimulus": "<p id=\"stim\">3</p>", "key_press": -1, "trial_type": "single-stim", "trial_index": 17, "time_elapsed": 366738, "internal_node_id": "0.0-10.0-7.0"}}, {"uniqueid": "MTK0348:3JZQSN0I3RHSOCBNQI7SKUUPD5JGFG", "current_trial": 18, "dateTime": 1510772752878, "trialdata": {"rt": -1, "stimulus": "<p id=\"stim\">2</p>", "key_press": -1, "trial_type": "single-stim", "trial_index": 18, "time_elapsed": 367739, "internal_node_id": "0.0-10.0-8.0"}}, {"uniqueid": "MTK0348:3JZQSN0I3RHSOCBNQI7SKUUPD5JGFG", "current_trial": 19, "dateTime": 1510772753910, "trialdata": {"rt": -1, "stimulus": "<p id=\"stim\">1</p>", "key_press": -1, "trial_type": "single-stim", "trial_index": 19, "time_elapsed": 368772, "internal_node_id": "0.0-10.0-9.0"}}, {"uniqueid": "MTK0348:3JZQSN0I3RHSOCBNQI7SKUUPD5JGFG", "current_trial": 20, "dateTime": 1510772755412, "trialdata": {"rt": -1, "stimulus": "<p id=\"stim\">+</p>", "key_press": -1, "type": "FIXATION", "trial_type": "single-stim", "trial_index": 20, "time_elapsed": 370274, "internal_node_id": "0.0-11.0-0.0"}}, {"uniqueid": "MTK0348:3JZQSN0I3RHSOCBNQI7SKUUPD5JGFG", "current_trial": 21, "dateTime": 1510772757460, "trialdata": {"rt": -1000, "stimulus": "/static/audio/wordpool/LOFT.wav", "key_press": -1, "type": "PRES_AUD", "word": "loft", "wordID": 839, "conditions": [18, 1200, "a", 18000], "trial": 0, "serialpos": 0, "trial_type": "single-audio", "trial_index": 21, "time_elapsed": 372322, "internal_node_id": "0.0-12.0"}}, {"uniqueid": "MTK0348:3JZQSN0I3RHSOCBNQI7SKUUPD5JGFG", "current_trial": 22, "dateTime": 1510772759747, "trialdata": {"rt": -1000, "stimulus": "/static/audio/wordpool/FILM.wav", "key_press": -1, "type": "PRES_AUD", "word": "film", "wordID": 564, "conditions": [18, 1200, "a", 18000], "trial": 0, "serialpos": 1, "trial_type": "single-audio", "trial_index": 22, "time_elapsed": 374608, "internal_node_id": "0.0-13.0"}}, {"uniqueid": "MTK0348:3JZQSN0I3RHSOCBNQI7SKUUPD5JGFG", "current_trial": 23, "dateTime": 1510772761868, "trialdata": {"rt": -1000, "stimulus": "/static/audio/wordpool/BRANCH.wav", "key_press": -1, "type": "PRES_AUD", "word": "branch", "wordID": 167, "conditions": [18, 1200, "a", 18000], "trial": 0, "serialpos": 2, "trial_type": "single-audio", "trial_index": 23, "time_elapsed": 376730, "internal_node_id": "0.0-14.0"}}, {"uniqueid": "MTK0348:3JZQSN0I3RHSOCBNQI7SKUUPD5JGFG", "current_trial": 24, "dateTime": 1510772764199, "trialdata": {"rt": -1000, "stimulus": "/static/audio/wordpool/SOFTBALL.wav", "key_press": -1, "type": "PRES_AUD", "word": "softball", "wordID": 1342, "conditions": [18, 1200, "a", 18000], "trial": 0, "serialpos": 3, "trial_type": "single-audio", "trial_index": 24, "time_elapsed": 379061, "internal_node_id": "0.0-15.0"}}, {"uniqueid": "MTK0348:3JZQSN0I3RHSOCBNQI7SKUUPD5JGFG", "current_trial": 25, "dateTime": 1510772766291, "trialdata": {"rt": -1000, "stimulus": "/static/audio/wordpool/MILDEW.wav", "key_press": -1, "type": "PRES_AUD", "word": "mildew", "wordID": 892, "conditions": [18, 1200, "a", 18000], "trial": 0, "serialpos": 4, "trial_type": "single-audio", "trial_index": 25, "time_elapsed": 381153, "internal_node_id": "0.0-16.0"}}, {"uniqueid": "MTK0348:3JZQSN0I3RHSOCBNQI7SKUUPD5JGFG", "current_trial": 26, "dateTime": 1510772768389, "trialdata": {"rt": -1000, "stimulus": "/static/audio/wordpool/ORANGE.wav", "key_press": -1, "type": "PRES_AUD", "word": "orange", "wordID": 979, "conditions": [18, 1200, "a", 18000], "trial": 0, "serialpos": 5, "trial_type": "single-audio", "trial_index": 26, "time_elapsed": 383251, "internal_node_id": "0.0-17.0"}}, {"uniqueid": "MTK0348:3JZQSN0I3RHSOCBNQI7SKUUPD5JGFG", "current_trial": 27, "dateTime": 1510772770676, "trialdata": {"rt": -1000, "stimulus": "/static/audio/wordpool/TYPIST.wav", "key_press": -1, "type": "PRES_AUD", "word": "typist", "wordID": 1531, "conditions": [18, 1200, "a", 18000], "trial": 0, "serialpos": 6, "trial_type": "single-audio", "trial_index": 27, "time_elapsed": 385537, "internal_node_id": "0.0-18.0"}}, {"uniqueid": "MTK0348:3JZQSN0I3RHSOCBNQI7SKUUPD5JGFG", "current_trial": 28, "dateTime": 1510772772924, "trialdata": {"rt": -1000, "stimulus": "/static/audio/wordpool/MILK.wav", "key_press": -1, "type": "PRES_AUD", "word": "milk", "wordID": 894, "conditions": [18, 1200, "a", 18000], "trial": 0, "serialpos": 7, "trial_type": "single-audio", "trial_index": 28, "time_elapsed": 387786, "internal_node_id": "0.0-19.0"}}, {"uniqueid": "MTK0348:3JZQSN0I3RHSOCBNQI7SKUUPD5JGFG", "current_trial": 29, "dateTime": 1510772775321, "trialdata": {"rt": -1000, "stimulus": "/static/audio/wordpool/TABLET.wav", "key_press": -1, "type": "PRES_AUD", "word": "tablet", "wordID": 1426, "conditions": [18, 1200, "a", 18000], "trial": 0, "serialpos": 8, "trial_type": "single-audio", "trial_index": 29, "time_elapsed": 390182, "internal_node_id": "0.0-20.0"}}, {"uniqueid": "MTK0348:3JZQSN0I3RHSOCBNQI7SKUUPD5JGFG", "current_trial": 30, "dateTime": 1510772777462, "trialdata": {"rt": -1000, "stimulus": "/static/audio/wordpool/BRACES.wav", "key_press": -1, "type": "PRES_AUD", "word": "braces", "wordID": 163, "conditions": [18, 1200, "a", 18000], "trial": 0, "serialpos": 9, "trial_type": "single-audio", "trial_index": 30, "time_elapsed": 392324, "internal_node_id": "0.0-21.0"}}, {"uniqueid": "MTK0348:3JZQSN0I3RHSOCBNQI7SKUUPD5JGFG", "current_trial": 31, "dateTime": 1510772779851, "trialdata": {"rt": -1000, "stimulus": "/static/audio/wordpool/CRUTCH.wav", "key_press": -1, "type": "PRES_AUD", "word": "crutch", "wordID": 416, "conditions": [18, 1200, "a", 18000], "trial": 0, "serialpos": 10, "trial_type": "single-audio", "trial_index": 31, "time_elapsed": 394713, "internal_node_id": "0.0-22.0"}}, {"uniqueid": "MTK0348:3JZQSN0I3RHSOCBNQI7SKUUPD5JGFG", "current_trial": 32, "dateTime": 1510772782071, "trialdata": {"rt": -1000, "stimulus": "/static/audio/wordpool/CHURCH.wav", "key_press": -1, "type": "PRES_AUD", "word": "church", "wordID": 306, "conditions": [18, 1200, "a", 18000], "trial": 0, "serialpos": 11, "trial_type": "single-audio", "trial_index": 32, "time_elapsed": 396933, "internal_node_id": "0.0-23.0"}}, {"uniqueid": "MTK0348:3JZQSN0I3RHSOCBNQI7SKUUPD5JGFG", "current_trial": 33, "dateTime": 1510772784128, "trialdata": {"rt": -1000, "stimulus": "/static/audio/wordpool/DRESS.wav", "key_press": -1, "type": "PRES_AUD", "word": "dress", "wordID": 494, "conditions": [18, 1200, "a", 18000], "trial": 0, "serialpos": 12, "trial_type": "single-audio", "trial_index": 33, "time_elapsed": 398990, "internal_node_id": "0.0-24.0"}}, {"uniqueid": "MTK0348:3JZQSN0I3RHSOCBNQI7SKUUPD5JGFG", "current_trial": 34, "dateTime": 1510772786409, "trialdata": {"rt": -1000, "stimulus": "/static/audio/wordpool/BACON.wav", "key_press": -1, "type": "PRES_AUD", "word": "bacon", "wordID": 66, "conditions": [18, 1200, "a", 18000], "trial": 0, "serialpos": 13, "trial_type": "single-audio", "trial_index": 34, "time_elapsed": 401271, "internal_node_id": "0.0-25.0"}}, {"uniqueid": "MTK0348:3JZQSN0I3RHSOCBNQI7SKUUPD5JGFG", "current_trial": 35, "dateTime": 1510772788462, "trialdata": {"rt": -1000, "stimulus": "/static/audio/wordpool/BLACKBOARD.wav", "key_press": -1, "type": "PRES_AUD", "word": "blackboard", "wordID": 132, "conditions": [18, 1200, "a", 18000], "trial": 0, "serialpos": 14, "trial_type": "single-audio", "trial_index": 35, "time_elapsed": 403324, "internal_node_id": "0.0-26.0"}}, {"uniqueid": "MTK0348:3JZQSN0I3RHSOCBNQI7SKUUPD5JGFG", "current_trial": 36, "dateTime": 1510772790484, "trialdata": {"rt": -1000, "stimulus": "/static/audio/wordpool/HARP.wav", "key_press": -1, "type": "PRES_AUD", "word": "harp", "wordID": 688, "conditions": [18, 1200, "a", 18000], "trial": 0, "serialpos": 15, "trial_type": "single-audio", "trial_index": 36, "time_elapsed": 405346, "internal_node_id": "0.0-27.0"}}, {"uniqueid": "MTK0348:3JZQSN0I3RHSOCBNQI7SKUUPD5JGFG", "current_trial": 37, "dateTime": 1510772792705, "trialdata": {"rt": -1000, "stimulus": "/static/audio/wordpool/PADDLE.wav", "key_press": -1, "type": "PRES_AUD", "word": "paddle", "wordID": 999, "conditions": [18, 1200, "a", 18000], "trial": 0, "serialpos": 16, "trial_type": "single-audio", "trial_index": 37, "time_elapsed": 407567, "internal_node_id": "0.0-28.0"}}, {"uniqueid": "MTK0348:3JZQSN0I3RHSOCBNQI7SKUUPD5JGFG", "current_trial": 38, "dateTime": 1510772794930, "trialdata": {"rt": -1000, "stimulus": "/static/audio/wordpool/PANTHER.wav", "key_press": -1, "type": "PRES_AUD", "word": "panther", "wordID": 1008, "conditions": [18, 1200, "a", 18000], "trial": 0, "serialpos": 17, "trial_type": "single-audio", "trial_index": 38, "time_elapsed": 409792, "internal_node_id": "0.0-29.0"}}, {"uniqueid": "MTK0348:3JZQSN0I3RHSOCBNQI7SKUUPD5JGFG", "current_trial": 39, "dateTime": 1510772796269, "trialdata": {"rt": -1, "stimulus": "", "key_press": -1, "type": "PRE_RECALL_DELAY", "trial_type": "single-stim", "trial_index": 39, "time_elapsed": 411131, "internal_node_id": "0.0-30.0-0.0"}}, {"uniqueid": "MTK0348:3JZQSN0I3RHSOCBNQI7SKUUPD5JGFG", "current_trial": 40, "dateTime": 1510772796770, "trialdata": {"rt": -1000, "stimulus": "/static/audio/400Hz.wav", "key_press": -1, "type": "PRE_RECALL_ALERT", "trial_type": "single-audio", "trial_index": 40, "time_elapsed": 411631, "internal_node_id": "0.0-31.0"}}, {"uniqueid": "MTK0348:3JZQSN0I3RHSOCBNQI7SKUUPD5JGFG", "current_trial": 41, "dateTime": 1510772856790, "trialdata": {"rt": [4723, 8804, 11530, 16258, 18756, 21215, 24577, 28476, 31972, 39832, 51370], "recwords": ["typist", "church", "crutch", "brace", "bacon", "paddle", "tablet", "orange", "paddle", "baseball", "dress"], "type": "FREE_RECALL", "conditions": [18, 1200, "a", 18000], "trial": 0, "trial_type": "free-recall", "trial_index": 41, "time_elapsed": 471637, "internal_node_id": "0.0-32.0-0.0"}}, {"uniqueid": "MTK0348:3JZQSN0I3RHSOCBNQI7SKUUPD5JGFG", "current_trial": 42, "dateTime": 1510772861101, "trialdata": {"rt": 2309, "key_press": 75, "type": "INSTRUCTIONS", "trial_type": "text", "trial_index": 42, "time_elapsed": 475962, "internal_node_id": "0.0-33.0"}}, {"uniqueid": "MTK0348:3JZQSN0I3RHSOCBNQI7SKUUPD5JGFG", "current_trial": 43, "dateTime": 1510772881111, "trialdata": {"rt": [8143, 11407, 13136, 15676, 17822], "responses": ["23", "16", "7", "14", "17"], "num1": [8, 5, 3, 5, 7, 2], "num2": [7, 2, 2, 3, 7, 6], "num3": [8, 9, 2, 6, 3, 1], "type": "DISTRACTOR", "conditions": [18, 1200, "v", 18000], "trial": 1, "trial_type": "math-distractor", "trial_index": 43, "time_elapsed": 495973, "internal_node_id": "0.0-34.0"}}, {"uniqueid": "MTK0348:3JZQSN0I3RHSOCBNQI7SKUUPD5JGFG", "current_trial": 44, "dateTime": 1510772884112, "trialdata": {"rt": -1, "stimulus": "<p id=\"stim\">10</p>", "key_press": -1, "trial_type": "single-stim", "trial_index": 44, "time_elapsed": 498974, "internal_node_id": "0.0-35.0-0.0"}}, {"uniqueid": "MTK0348:3JZQSN0I3RHSOCBNQI7SKUUPD5JGFG", "current_trial": 45, "dateTime": 1510772885113, "trialdata": {"rt": -1, "stimulus": "<p id=\"stim\">9</p>", "key_press": -1, "trial_type": "single-stim", "trial_index": 45, "time_elapsed": 499975, "internal_node_id": "0.0-35.0-1.0"}}, {"uniqueid": "MTK0348:3JZQSN0I3RHSOCBNQI7SKUUPD5JGFG", "current_trial": 46, "dateTime": 1510772886114, "trialdata": {"rt": -1, "stimulus": "<p id=\"stim\">8</p>", "key_press": -1, "trial_type": "single-stim", "trial_index": 46, "time_elapsed": 500975, "internal_node_id": "0.0-35.0-2.0"}}, {"uniqueid": "MTK0348:3JZQSN0I3RHSOCBNQI7SKUUPD5JGFG", "current_trial": 47, "dateTime": 1510772887115, "trialdata": {"rt": -1, "stimulus": "<p id=\"stim\">7</p>", "key_press": -1, "trial_type": "single-stim", "trial_index": 47, "time_elapsed": 501977, "internal_node_id": "0.0-35.0-3.0"}}, {"uniqueid": "MTK0348:3JZQSN0I3RHSOCBNQI7SKUUPD5JGFG", "current_trial": 48, "dateTime": 1510772888118, "trialdata": {"rt": -1, "stimulus": "<p id=\"stim\">6</p>", "key_press": -1, "trial_type": "single-stim", "trial_index": 48, "time_elapsed": 502978, "internal_node_id": "0.0-35.0-4.0"}}, {"uniqueid": "MTK0348:3JZQSN0I3RHSOCBNQI7SKUUPD5JGFG", "current_trial": 49, "dateTime": 1510772889121, "trialdata": {"rt": -1, "stimulus": "<p id=\"stim\">5</p>", "key_press": -1, "trial_type": "single-stim", "trial_index": 49, "time_elapsed": 503982, "internal_node_id": "0.0-35.0-5.0"}}, {"uniqueid": "MTK0348:3JZQSN0I3RHSOCBNQI7SKUUPD5JGFG", "current_trial": 50, "dateTime": 1510772890122, "trialdata": {"rt": -1, "stimulus": "<p id=\"stim\">4</p>", "key_press": -1, "trial_type": "single-stim", "trial_index": 50, "time_elapsed": 504984, "internal_node_id": "0.0-35.0-6.0"}}, {"uniqueid": "MTK0348:3JZQSN0I3RHSOCBNQI7SKUUPD5JGFG", "current_trial": 51, "dateTime": 1510772891124, "trialdata": {"rt": -1, "stimulus": "<p id=\"stim\">3</p>", "key_press": -1, "trial_type": "single-stim", "trial_index": 51, "time_elapsed": 505986, "internal_node_id": "0.0-35.0-7.0"}}, {"uniqueid": "MTK0348:3JZQSN0I3RHSOCBNQI7SKUUPD5JGFG", "current_trial": 52, "dateTime": 1510772892125, "trialdata": {"rt": -1, "stimulus": "<p id=\"stim\">2</p>", "key_press": -1, "trial_type": "single-stim", "trial_index": 52, "time_elapsed": 506987, "internal_node_id": "0.0-35.0-8.0"}}, {"uniqueid": "MTK0348:3JZQSN0I3RHSOCBNQI7SKUUPD5JGFG", "current_trial": 53, "dateTime": 1510772893127, "trialdata": {"rt": -1, "stimulus": "<p id=\"stim\">1</p>", "key_press": -1, "trial_type": "single-stim", "trial_index": 53, "time_elapsed": 507989, "internal_node_id": "0.0-35.0-9.0"}}, {"uniqueid": "MTK0348:3JZQSN0I3RHSOCBNQI7SKUUPD5JGFG", "current_trial": 54, "dateTime": 1510772894629, "trialdata": {"rt": -1, "stimulus": "<p id=\"stim\">+</p>", "key_press": -1, "type": "FIXATION", "trial_type": "single-stim", "trial_index": 54, "time_elapsed": 509490, "internal_node_id": "0.0-36.0-0.0"}}, {"uniqueid": "MTK0348:3JZQSN0I3RHSOCBNQI7SKUUPD5JGFG", "current_trial": 55, "dateTime": 1510772895830, "trialdata": {"rt": -1, "stimulus": "<p id=\"stim\">NOMAD</p>", "key_press": -1, "type": "PRES_VIS", "word": "nomad", "wordID": 954, "conditions": [18, 1200, "v", 18000], "trial": 1, "serialpos": 0, "trial_type": "single-stim", "trial_index": 55, "time_elapsed": 510692, "internal_node_id": "0.0-37.0"}}, {"uniqueid": "MTK0348:3JZQSN0I3RHSOCBNQI7SKUUPD5JGFG", "current_trial": 56, "dateTime": 1510772898025, "trialdata": {"rt": -1, "stimulus": "<p id=\"stim\">FLASHLIGHT</p>", "key_press": -1, "type": "PRES_VIS", "word": "flashlight", "wordID": 574, "conditions": [18, 1200, "v", 18000], "trial": 1, "serialpos": 1, "trial_type": "single-stim", "trial_index": 56, "time_elapsed": 512887, "internal_node_id": "0.0-38.0"}}, {"uniqueid": "MTK0348:3JZQSN0I3RHSOCBNQI7SKUUPD5JGFG", "current_trial": 57, "dateTime": 1510772900296, "trialdata": {"rt": -1, "stimulus": "<p id=\"stim\">TABLE</p>", "key_press": -1, "type": "PRES_VIS", "word": "table", "wordID": 1425, "conditions": [18, 1200, "v", 18000], "trial": 1, "serialpos": 2, "trial_type": "single-stim", "trial_index": 57, "time_elapsed": 515158, "internal_node_id": "0.0-39.0"}}, {"uniqueid": "MTK0348:3JZQSN0I3RHSOCBNQI7SKUUPD5JGFG", "current_trial": 58, "dateTime": 1510772902464, "trialdata": {"rt": -1, "stimulus": "<p id=\"stim\">AIRPLANE</p>", "key_press": -1, "type": "PRES_VIS", "word": "airplane", "wordID": 11, "conditions": [18, 1200, "v", 18000], "trial": 1, "serialpos": 3, "trial_type": "single-stim", "trial_index": 58, "time_elapsed": 517326, "internal_node_id": "0.0-40.0"}}, {"uniqueid": "MTK0348:3JZQSN0I3RHSOCBNQI7SKUUPD5JGFG", "current_trial": 59, "dateTime": 1510772904513, "trialdata": {"rt": -1, "stimulus": "<p id=\"stim\">PUDDING</p>", "key_press": -1, "type": "PRES_VIS", "word": "pudding", "wordID": 1138, "conditions": [18, 1200, "v", 18000], "trial": 1, "serialpos": 4, "trial_type": "single-stim", "trial_index": 59, "time_elapsed": 519374, "internal_node_id": "0.0-41.0"}}, {"uniqueid": "MTK0348:3JZQSN0I3RHSOCBNQI7SKUUPD5JGFG", "current_trial": 60, "dateTime": 1510772906519, "trialdata": {"rt": -1, "stimulus": "<p id=\"stim\">RECORD</p>", "key_press": -1, "type": "PRES_VIS", "word": "record", "wordID": 1175, "conditions": [18, 1200, "v", 18000], "trial": 1, "serialpos": 5, "trial_type": "single-stim", "trial_index": 60, "time_elapsed": 521381, "internal_node_id": "0.0-42.0"}}, {"uniqueid": "MTK0348:3JZQSN0I3RHSOCBNQI7SKUUPD5JGFG", "current_trial": 61, "dateTime": 1510772908736, "trialdata": {"rt": -1, "stimulus": "<p id=\"stim\">ROBOT</p>", "key_press": -1, "type": "PRES_VIS", "word": "robot", "wordID": 1199, "conditions": [18, 1200, "v", 18000], "trial": 1, "serialpos": 6, "trial_type": "single-stim", "trial_index": 61, "time_elapsed": 523598, "internal_node_id": "0.0-43.0"}}, {"uniqueid": "MTK0348:3JZQSN0I3RHSOCBNQI7SKUUPD5JGFG", "current_trial": 62, "dateTime": 1510772910760, "trialdata": {"rt": -1, "stimulus": "<p id=\"stim\">SHOVEL</p>", "key_press": -1, "type": "PRES_VIS", "word": "shovel", "wordID": 1294, "conditions": [18, 1200, "v", 18000], "trial": 1, "serialpos": 7, "trial_type": "single-stim", "trial_index": 62, "time_elapsed": 525621, "internal_node_id": "0.0-44.0"}}, {"uniqueid": "MTK0348:3JZQSN0I3RHSOCBNQI7SKUUPD5JGFG", "current_trial": 63, "dateTime": 1510772912828, "trialdata": {"rt": -1, "stimulus": "<p id=\"stim\">PARSLEY</p>", "key_press": -1, "type": "PRES_VIS", "word": "parsley", "wordID": 1015, "conditions": [18, 1200, "v", 18000], "trial": 1, "serialpos": 8, "trial_type": "single-stim", "trial_index": 63, "time_elapsed": 527690, "internal_node_id": "0.0-45.0"}}, {"uniqueid": "MTK0348:3JZQSN0I3RHSOCBNQI7SKUUPD5JGFG", "current_trial": 64, "dateTime": 1510772915036, "trialdata": {"rt": -1, "stimulus": "<p id=\"stim\">HIGHWAY</p>", "key_press": -1, "type": "PRES_VIS", "word": "highway", "wordID": 706, "conditions": [18, 1200, "v", 18000], "trial": 1, "serialpos": 9, "trial_type": "single-stim", "trial_index": 64, "time_elapsed": 529897, "internal_node_id": "0.0-46.0"}}, {"uniqueid": "MTK0348:3JZQSN0I3RHSOCBNQI7SKUUPD5JGFG", "current_trial": 65, "dateTime": 1510772917250, "trialdata": {"rt": -1, "stimulus": "<p id=\"stim\">PIANO</p>", "key_press": -1, "type": "PRES_VIS", "word": "piano", "wordID": 1056, "conditions": [18, 1200, "v", 18000], "trial": 1, "serialpos": 10, "trial_type": "single-stim", "trial_index": 65, "time_elapsed": 532112, "internal_node_id": "0.0-47.0"}}, {"uniqueid": "MTK0348:3JZQSN0I3RHSOCBNQI7SKUUPD5JGFG", "current_trial": 66, "dateTime": 1510772919484, "trialdata": {"rt": -1, "stimulus": "<p id=\"stim\">LIGHTNING</p>", "key_press": -1, "type": "PRES_VIS", "word": "lightning", "wordID": 819, "conditions": [18, 1200, "v", 18000], "trial": 1, "serialpos": 11, "trial_type": "single-stim", "trial_index": 66, "time_elapsed": 534346, "internal_node_id": "0.0-48.0"}}, {"uniqueid": "MTK0348:3JZQSN0I3RHSOCBNQI7SKUUPD5JGFG", "current_trial": 67, "dateTime": 1510772921634, "trialdata": {"rt": -1, "stimulus": "<p id=\"stim\">CLOCK</p>", "key_press": -1, "type": "PRES_VIS", "word": "clock", "wordID": 324, "conditions": [18, 1200, "v", 18000], "trial": 1, "serialpos": 12, "trial_type": "single-stim", "trial_index": 67, "time_elapsed": 536496, "internal_node_id": "0.0-49.0"}}, {"uniqueid": "MTK0348:3JZQSN0I3RHSOCBNQI7SKUUPD5JGFG", "current_trial": 68, "dateTime": 1510772923985, "trialdata": {"rt": -1, "stimulus": "<p id=\"stim\">FRANCE</p>", "key_press": -1, "type": "PRES_VIS", "word": "france", "wordID": 600, "conditions": [18, 1200, "v", 18000], "trial": 1, "serialpos": 13, "trial_type": "single-stim", "trial_index": 68, "time_elapsed": 538847, "internal_node_id": "0.0-50.0"}}, {"uniqueid": "MTK0348:3JZQSN0I3RHSOCBNQI7SKUUPD5JGFG", "current_trial": 69, "dateTime": 1510772926115, "trialdata": {"rt": -1, "stimulus": "<p id=\"stim\">BOUQUET</p>", "key_press": -1, "type": "PRES_VIS", "word": "bouquet", "wordID": 156, "conditions": [18, 1200, "v", 18000], "trial": 1, "serialpos": 14, "trial_type": "single-stim", "trial_index": 69, "time_elapsed": 540977, "internal_node_id": "0.0-51.0"}}, {"uniqueid": "MTK0348:3JZQSN0I3RHSOCBNQI7SKUUPD5JGFG", "current_trial": 70, "dateTime": 1510772928304, "trialdata": {"rt": -1, "stimulus": "<p id=\"stim\">DENIM</p>", "key_press": -1, "type": "PRES_VIS", "word": "denim", "wordID": 445, "conditions": [18, 1200, "v", 18000], "trial": 1, "serialpos": 15, "trial_type": "single-stim", "trial_index": 70, "time_elapsed": 543166, "internal_node_id": "0.0-52.0"}}, {"uniqueid": "MTK0348:3JZQSN0I3RHSOCBNQI7SKUUPD5JGFG", "current_trial": 71, "dateTime": 1510772930368, "trialdata": {"rt": -1, "stimulus": "<p id=\"stim\">RADISH</p>", "key_press": -1, "type": "PRES_VIS", "word": "radish", "wordID": 1157, "conditions": [18, 1200, "v", 18000], "trial": 1, "serialpos": 16, "trial_type": "single-stim", "trial_index": 71, "time_elapsed": 545230, "internal_node_id": "0.0-53.0"}}, {"uniqueid": "MTK0348:3JZQSN0I3RHSOCBNQI7SKUUPD5JGFG", "current_trial": 72, "dateTime": 1510772932411, "trialdata": {"rt": -1, "stimulus": "<p id=\"stim\">RUG</p>", "key_press": -1, "type": "PRES_VIS", "word": "rug", "wordID": 1214, "conditions": [18, 1200, "v", 18000], "trial": 1, "serialpos": 17, "trial_type": "single-stim", "trial_index": 72, "time_elapsed": 547273, "internal_node_id": "0.0-54.0"}}, {"uniqueid": "MTK0348:3JZQSN0I3RHSOCBNQI7SKUUPD5JGFG", "current_trial": 73, "dateTime": 1510772934658, "trialdata": {"rt": -1, "stimulus": "", "key_press": -1, "type": "PRE_RECALL_DELAY", "trial_type": "single-stim", "trial_index": 73, "time_elapsed": 549519, "internal_node_id": "0.0-55.0-0.0"}}, {"uniqueid": "MTK0348:3JZQSN0I3RHSOCBNQI7SKUUPD5JGFG", "current_trial": 74, "dateTime": 1510772935161, "trialdata": {"rt": -1000, "stimulus": "/static/audio/400Hz.wav", "key_press": -1, "type": "PRE_RECALL_ALERT", "trial_type": "single-audio", "trial_index": 74, "time_elapsed": 550022, "internal_node_id": "0.0-56.0"}}, {"uniqueid": "MTK0348:3JZQSN0I3RHSOCBNQI7SKUUPD5JGFG", "current_trial": 75, "dateTime": 1510772995181, "trialdata": {"rt": [3414, 6900, 9133, 10633, 20434, 24168, 32365, 36147, 38723, 55943], "recwords": ["rug", "radish", "france", "clock", "record", "flashlight", "pillow", "robot", "shovel", "nomad"], "type": "FREE_RECALL", "conditions": [18, 1200, "v", 18000], "trial": 1, "trial_type": "free-recall", "trial_index": 75, "time_elapsed": 610031, "internal_node_id": "0.0-57.0-0.0"}}, {"uniqueid": "MTK0348:3JZQSN0I3RHSOCBNQI7SKUUPD5JGFG", "current_trial": 76, "dateTime": 1510772999986, "trialdata": {"rt": 2793, "key_press": 68, "type": "INSTRUCTIONS", "trial_type": "text", "trial_index": 76, "time_elapsed": 614838, "internal_node_id": "0.0-58.0"}}, {"uniqueid": "MTK0348:3JZQSN0I3RHSOCBNQI7SKUUPD5JGFG", "current_trial": 77, "dateTime": 1510773024994, "trialdata": {"rt": [3023, 6613, 12285, 14799, 18818, 21156, 23528], "responses": ["20", "14", "24", "13", "19", "12", "11"], "num1": [4, 4, 7, 1, 6, 5, 4, 7], "num2": [9, 1, 9, 7, 8, 1, 2, 3], "num3": [7, 9, 8, 5, 5, 6, 5, 4], "type": "DISTRACTOR", "conditions": [24, 1600, "a", 24000], "trial": 2, "trial_type": "math-distractor", "trial_index": 77, "time_elapsed": 639856, "internal_node_id": "0.0-59.0"}}, {"uniqueid": "MTK0348:3JZQSN0I3RHSOCBNQI7SKUUPD5JGFG", "current_trial": 78, "dateTime": 1510773027996, "trialdata": {"rt": -1, "stimulus": "<p id=\"stim\">10</p>", "key_press": -1, "trial_type": "single-stim", "trial_index": 78, "time_elapsed": 642857, "internal_node_id": "0.0-60.0-0.0"}}, {"uniqueid": "MTK0348:3JZQSN0I3RHSOCBNQI7SKUUPD5JGFG", "current_trial": 79, "dateTime": 1510773028997, "trialdata": {"rt": -1, "stimulus": "<p id=\"stim\">9</p>", "key_press": -1, "trial_type": "single-stim", "trial_index": 79, "time_elapsed": 643859, "internal_node_id": "0.0-60.0-1.0"}}, {"uniqueid": "MTK0348:3JZQSN0I3RHSOCBNQI7SKUUPD5JGFG", "current_trial": 80, "dateTime": 1510773029997, "trialdata": {"rt": -1, "stimulus": "<p id=\"stim\">8</p>", "key_press": -1, "trial_type": "single-stim", "trial_index": 80, "time_elapsed": 644859, "internal_node_id": "0.0-60.0-2.0"}}, {"uniqueid": "MTK0348:3JZQSN0I3RHSOCBNQI7SKUUPD5JGFG", "current_trial": 81, "dateTime": 1510773030999, "trialdata": {"rt": -1, "stimulus": "<p id=\"stim\">7</p>", "key_press": -1, "trial_type": "single-stim", "trial_index": 81, "time_elapsed": 645861, "internal_node_id": "0.0-60.0-3.0"}}, {"uniqueid": "MTK0348:3JZQSN0I3RHSOCBNQI7SKUUPD5JGFG", "current_trial": 82, "dateTime": 1510773032067, "trialdata": {"rt": -1, "stimulus": "<p id=\"stim\">6</p>", "key_press": -1, "trial_type": "single-stim", "trial_index": 82, "time_elapsed": 646929, "internal_node_id": "0.0-60.0-4.0"}}, {"uniqueid": "MTK0348:3JZQSN0I3RHSOCBNQI7SKUUPD5JGFG", "current_trial": 83, "dateTime": 1510773033071, "trialdata": {"rt": -1, "stimulus": "<p id=\"stim\">5</p>", "key_press": -1, "trial_type": "single-stim", "trial_index": 83, "time_elapsed": 647933, "internal_node_id": "0.0-60.0-5.0"}}, {"uniqueid": "MTK0348:3JZQSN0I3RHSOCBNQI7SKUUPD5JGFG", "current_trial": 84, "dateTime": 1510773034072, "trialdata": {"rt": -1, "stimulus": "<p id=\"stim\">4</p>", "key_press": -1, "trial_type": "single-stim", "trial_index": 84, "time_elapsed": 648933, "internal_node_id": "0.0-60.0-6.0"}}, {"uniqueid": "MTK0348:3JZQSN0I3RHSOCBNQI7SKUUPD5JGFG", "current_trial": 85, "dateTime": 1510773035073, "trialdata": {"rt": -1, "stimulus": "<p id=\"stim\">3</p>", "key_press": -1, "trial_type": "single-stim", "trial_index": 85, "time_elapsed": 649935, "internal_node_id": "0.0-60.0-7.0"}}, {"uniqueid": "MTK0348:3JZQSN0I3RHSOCBNQI7SKUUPD5JGFG", "current_trial": 86, "dateTime": 1510773036075, "trialdata": {"rt": -1, "stimulus": "<p id=\"stim\">2</p>", "key_press": -1, "trial_type": "single-stim", "trial_index": 86, "time_elapsed": 650936, "internal_node_id": "0.0-60.0-8.0"}}, {"uniqueid": "MTK0348:3JZQSN0I3RHSOCBNQI7SKUUPD5JGFG", "current_trial": 87, "dateTime": 1510773037076, "trialdata": {"rt": -1, "stimulus": "<p id=\"stim\">1</p>", "key_press": -1, "trial_type": "single-stim", "trial_index": 87, "time_elapsed": 651938, "internal_node_id": "0.0-60.0-9.0"}}, {"uniqueid": "MTK0348:3JZQSN0I3RHSOCBNQI7SKUUPD5JGFG", "current_trial": 88, "dateTime": 1510773038578, "trialdata": {"rt": -1, "stimulus": "<p id=\"stim\">+</p>", "key_press": -1, "type": "FIXATION", "trial_type": "single-stim", "trial_index": 88, "time_elapsed": 653439, "internal_node_id": "0.0-61.0-0.0"}}, {"uniqueid": "MTK0348:3JZQSN0I3RHSOCBNQI7SKUUPD5JGFG", "current_trial": 89, "dateTime": 1510773041177, "trialdata": {"rt": -1000, "stimulus": "/static/audio/wordpool/RECEIPT.wav", "key_press": -1, "type": "PRES_AUD", "word": "receipt", "wordID": 1172, "conditions": [24, 1600, "a", 24000], "trial": 2, "serialpos": 0, "trial_type": "single-audio", "trial_index": 89, "time_elapsed": 656039, "internal_node_id": "0.0-62.0"}}, {"uniqueid": "MTK0348:3JZQSN0I3RHSOCBNQI7SKUUPD5JGFG", "current_trial": 90, "dateTime": 1510773043852, "trialdata": {"rt": -1000, "stimulus": "/static/audio/wordpool/FLIPPER.wav", "key_press": -1, "type": "PRES_AUD", "word": "flipper", "wordID": 579, "conditions": [24, 1600, "a", 24000], "trial": 2, "serialpos": 1, "trial_type": "single-audio", "trial_index": 90, "time_elapsed": 658714, "internal_node_id": "0.0-63.0"}}, {"uniqueid": "MTK0348:3JZQSN0I3RHSOCBNQI7SKUUPD5JGFG", "current_trial": 91, "dateTime": 1510773046622, "trialdata": {"rt": -1000, "stimulus": "/static/audio/wordpool/TOURIST.wav", "key_press": -1, "type": "PRES_AUD", "word": "tourist", "wordID": 1487, "conditions": [24, 1600, "a", 24000], "trial": 2, "serialpos": 2, "trial_type": "single-audio", "trial_index": 91, "time_elapsed": 661484, "internal_node_id": "0.0-64.0"}}, {"uniqueid": "MTK0348:3JZQSN0I3RHSOCBNQI7SKUUPD5JGFG", "current_trial": 92, "dateTime": 1510773049256, "trialdata": {"rt": -1000, "stimulus": "/static/audio/wordpool/SPOUSE.wav", "key_press": -1, "type": "PRES_AUD", "word": "spouse", "wordID": 1357, "conditions": [24, 1600, "a", 24000], "trial": 2, "serialpos": 3, "trial_type": "single-audio", "trial_index": 92, "time_elapsed": 664118, "internal_node_id": "0.0-65.0"}}, {"uniqueid": "MTK0348:3JZQSN0I3RHSOCBNQI7SKUUPD5JGFG", "current_trial": 93, "dateTime": 1510773052024, "trialdata": {"rt": -1000, "stimulus": "/static/audio/wordpool/MATTRESS.wav", "key_press": -1, "type": "PRES_AUD", "word": "mattress", "wordID": 878, "conditions": [24, 1600, "a", 24000], "trial": 2, "serialpos": 4, "trial_type": "single-audio", "trial_index": 93, "time_elapsed": 666886, "internal_node_id": "0.0-66.0"}}, {"uniqueid": "MTK0348:3JZQSN0I3RHSOCBNQI7SKUUPD5JGFG", "current_trial": 94, "dateTime": 1510773054758, "trialdata": {"rt": -1000, "stimulus": "/static/audio/wordpool/LETTUCE.wav", "key_press": -1, "type": "PRES_AUD", "word": "lettuce", "wordID": 813, "conditions": [24, 1600, "a", 24000], "trial": 2, "serialpos": 5, "trial_type": "single-audio", "trial_index": 94, "time_elapsed": 669620, "internal_node_id": "0.0-67.0"}}, {"uniqueid": "MTK0348:3JZQSN0I3RHSOCBNQI7SKUUPD5JGFG", "current_trial": 95, "dateTime": 1510773057519, "trialdata": {"rt": -1000, "stimulus": "/static/audio/wordpool/OMELET.wav", "key_press": -1, "type": "PRES_AUD", "word": "omelet", "wordID": 975, "conditions": [24, 1600, "a", 24000], "trial": 2, "serialpos": 6, "trial_type": "single-audio", "trial_index": 95, "time_elapsed": 672380, "internal_node_id": "0.0-68.0"}}, {"uniqueid": "MTK0348:3JZQSN0I3RHSOCBNQI7SKUUPD5JGFG", "current_trial": 96, "dateTime": 1510773060188, "trialdata": {"rt": -1000, "stimulus": "/static/audio/wordpool/TURNIP.wav", "key_press": -1, "type": "PRES_AUD", "word": "turnip", "wordID": 1520, "conditions": [24, 1600, "a", 24000], "trial": 2, "serialpos": 7, "trial_type": "single-audio", "trial_index": 96, "time_elapsed": 675050, "internal_node_id": "0.0-69.0"}}, {"uniqueid": "MTK0348:3JZQSN0I3RHSOCBNQI7SKUUPD5JGFG", "current_trial": 97, "dateTime": 1510773062748, "trialdata": {"rt": -1000, "stimulus": "/static/audio/wordpool/COIN.wav", "key_press": -1, "type": "PRES_AUD", "word": "coin", "wordID": 342, "conditions": [24, 1600, "a", 24000], "trial": 2, "serialpos": 8, "trial_type": "single-audio", "trial_index": 97, "time_elapsed": 677610, "internal_node_id": "0.0-70.0"}}, {"uniqueid": "MTK0348:3JZQSN0I3RHSOCBNQI7SKUUPD5JGFG", "current_trial": 98, "dateTime": 1510773065354, "trialdata": {"rt": -1000, "stimulus": "/static/audio/wordpool/SALAD.wav", "key_press": -1, "type": "PRES_AUD", "word": "salad", "wordID": 1223, "conditions": [24, 1600, "a", 24000], "trial": 2, "serialpos": 9, "trial_type": "single-audio", "trial_index": 98, "time_elapsed": 680214, "internal_node_id": "0.0-71.0"}}, {"uniqueid": "MTK0348:3JZQSN0I3RHSOCBNQI7SKUUPD5JGFG", "current_trial": 99, "dateTime": 1510773067809, "trialdata": {"rt": -1000, "stimulus": "/static/audio/wordpool/BASEMENT.wav", "key_press": -1, "type": "PRES_AUD", "word": "basement", "wordID": 93, "conditions": [24, 1600, "a", 24000], "trial": 2, "serialpos": 10, "trial_type": "single-audio", "trial_index": 99, "time_elapsed": 682670, "internal_node_id": "0.0-72.0"}}, {"uniqueid": "MTK0348:3JZQSN0I3RHSOCBNQI7SKUUPD5JGFG", "current_trial": 100, "dateTime": 1510773070408, "trialdata": {"rt": -1000, "stimulus": "/static/audio/wordpool/CELLAR.wav", "key_press": -1, "type": "PRES_AUD", "word": "cellar", "wordID": 266, "conditions": [24, 1600, "a", 24000], "trial": 2, "serialpos": 11, "trial_type": "single-audio", "trial_index": 100, "time_elapsed": 685270, "internal_node_id": "0.0-73.0"}}, {"uniqueid": "MTK0348:3JZQSN0I3RHSOCBNQI7SKUUPD5JGFG", "current_trial": 101, "dateTime": 1510773073183, "trialdata": {"rt": -1000, "stimulus": "/static/audio/wordpool/BLOUSE.wav", "key_press": -1, "type": "PRES_AUD", "word": "blouse", "wordID": 138, "conditions": [24, 1600, "a", 24000], "trial": 2, "serialpos": 12, "trial_type": "single-audio", "trial_index": 101, "time_elapsed": 688044, "internal_node_id": "0.0-74.0"}}, {"uniqueid": "MTK0348:3JZQSN0I3RHSOCBNQI7SKUUPD5JGFG", "current_trial": 102, "dateTime": 1510773075601, "trialdata": {"rt": -1000, "stimulus": "/static/audio/wordpool/ROD.wav", "key_press": -1, "type": "PRES_AUD", "word": "rod", "wordID": 1202, "conditions": [24, 1600, "a", 24000], "trial": 2, "serialpos": 13, "trial_type": "single-audio", "trial_index": 102, "time_elapsed": 690462, "internal_node_id": "0.0-75.0"}}, {"uniqueid": "MTK0348:3JZQSN0I3RHSOCBNQI7SKUUPD5JGFG", "current_trial": 103, "dateTime": 1510773078316, "trialdata": {"rt": -1000, "stimulus": "/static/audio/wordpool/ROCKET.wav", "key_press": -1, "type": "PRES_AUD", "word": "rocket", "wordID": 1201, "conditions": [24, 1600, "a", 24000], "trial": 2, "serialpos": 14, "trial_type": "single-audio", "trial_index": 103, "time_elapsed": 693177, "internal_node_id": "0.0-76.0"}}, {"uniqueid": "MTK0348:3JZQSN0I3RHSOCBNQI7SKUUPD5JGFG", "current_trial": 104, "dateTime": 1510773080920, "trialdata": {"rt": -1000, "stimulus": "/static/audio/wordpool/ULCER.wav", "key_press": -1, "type": "PRES_AUD", "word": "ulcer", "wordID": 1532, "conditions": [24, 1600, "a", 24000], "trial": 2, "serialpos": 15, "trial_type": "single-audio", "trial_index": 104, "time_elapsed": 695782, "internal_node_id": "0.0-77.0"}}, {"uniqueid": "MTK0348:3JZQSN0I3RHSOCBNQI7SKUUPD5JGFG", "current_trial": 105, "dateTime": 1510773083557, "trialdata": {"rt": -1000, "stimulus": "/static/audio/wordpool/CLOTHES.wav", "key_press": -1, "type": "PRES_AUD", "word": "clothes", "wordID": 326, "conditions": [24, 1600, "a", 24000], "trial": 2, "serialpos": 16, "trial_type": "single-audio", "trial_index": 105, "time_elapsed": 698417, "internal_node_id": "0.0-78.0"}}, {"uniqueid": "MTK0348:3JZQSN0I3RHSOCBNQI7SKUUPD5JGFG", "current_trial": 106, "dateTime": 1510773086327, "trialdata": {"rt": -1000, "stimulus": "/static/audio/wordpool/PLAYGROUND.wav", "key_press": -1, "type": "PRES_AUD", "word": "playground", "wordID": 1086, "conditions": [24, 1600, "a", 24000], "trial": 2, "serialpos": 17, "trial_type": "single-audio", "trial_index": 106, "time_elapsed": 701188, "internal_node_id": "0.0-79.0"}}, {"uniqueid": "MTK0348:3JZQSN0I3RHSOCBNQI7SKUUPD5JGFG", "current_trial": 107, "dateTime": 1510773088994, "trialdata": {"rt": -1000, "stimulus": "/static/audio/wordpool/WRIST.wav", "key_press": -1, "type": "PRES_AUD", "word": "wrist", "wordID": 1625, "conditions": [24, 1600, "a", 24000], "trial": 2, "serialpos": 18, "trial_type": "single-audio", "trial_index": 107, "time_elapsed": 703855, "internal_node_id": "0.0-80.0"}}, {"uniqueid": "MTK0348:3JZQSN0I3RHSOCBNQI7SKUUPD5JGFG", "current_trial": 108, "dateTime": 1510773091446, "trialdata": {"rt": -1000, "stimulus": "/static/audio/wordpool/FUNGUS.wav", "key_press": -1, "type": "PRES_AUD", "word": "fungus", "wordID": 613, "conditions": [24, 1600, "a", 24000], "trial": 2, "serialpos": 19, "trial_type": "single-audio", "trial_index": 108, "time_elapsed": 706307, "internal_node_id": "0.0-81.0"}}, {"uniqueid": "MTK0348:3JZQSN0I3RHSOCBNQI7SKUUPD5JGFG", "current_trial": 109, "dateTime": 1510773094224, "trialdata": {"rt": -1000, "stimulus": "/static/audio/wordpool/FIDDLE.wav", "key_press": -1, "type": "PRES_AUD", "word": "fiddle", "wordID": 560, "conditions": [24, 1600, "a", 24000], "trial": 2, "serialpos": 20, "trial_type": "single-audio", "trial_index": 109, "time_elapsed": 709086, "internal_node_id": "0.0-82.0"}}, {"uniqueid": "MTK0348:3JZQSN0I3RHSOCBNQI7SKUUPD5JGFG", "current_trial": 110, "dateTime": 1510773097016, "trialdata": {"rt": -1000, "stimulus": "/static/audio/wordpool/BARLEY.wav", "key_press": -1, "type": "PRES_AUD", "word": "barley", "wordID": 87, "conditions": [24, 1600, "a", 24000], "trial": 2, "serialpos": 21, "trial_type": "single-audio", "trial_index": 110, "time_elapsed": 711877, "internal_node_id": "0.0-83.0"}}, {"uniqueid": "MTK0348:3JZQSN0I3RHSOCBNQI7SKUUPD5JGFG", "current_trial": 111, "dateTime": 1510773099730, "trialdata": {"rt": -1000, "stimulus": "/static/audio/wordpool/GRAPE.wav", "key_press": -1, "type": "PRES_AUD", "word": "grape", "wordID": 653, "conditions": [24, 1600, "a", 24000], "trial": 2, "serialpos": 22, "trial_type": "single-audio", "trial_index": 111, "time_elapsed": 714592, "internal_node_id": "0.0-84.0"}}, {"uniqueid": "MTK0348:3JZQSN0I3RHSOCBNQI7SKUUPD5JGFG", "current_trial": 112, "dateTime": 1510773102157, "trialdata": {"rt": -1000, "stimulus": "/static/audio/wordpool/TERMITE.wav", "key_press": -1, "type": "PRES_AUD", "word": "termite", "wordID": 1450, "conditions": [24, 1600, "a", 24000], "trial": 2, "serialpos": 23, "trial_type": "single-audio", "trial_index": 112, "time_elapsed": 717019, "internal_node_id": "0.0-85.0"}}, {"uniqueid": "MTK0348:3JZQSN0I3RHSOCBNQI7SKUUPD5JGFG", "current_trial": 113, "dateTime": 1510773103434, "trialdata": {"rt": -1, "stimulus": "", "key_press": -1, "type": "PRE_RECALL_DELAY", "trial_type": "single-stim", "trial_index": 113, "time_elapsed": 718295, "internal_node_id": "0.0-86.0-0.0"}}, {"uniqueid": "MTK0348:3JZQSN0I3RHSOCBNQI7SKUUPD5JGFG", "current_trial": 114, "dateTime": 1510773103935, "trialdata": {"rt": -1000, "stimulus": "/static/audio/400Hz.wav", "key_press": -1, "type": "PRE_RECALL_ALERT", "trial_type": "single-audio", "trial_index": 114, "time_elapsed": 718797, "internal_node_id": "0.0-87.0"}}, {"uniqueid": "MTK0348:3JZQSN0I3RHSOCBNQI7SKUUPD5JGFG", "current_trial": 115, "dateTime": 1510773163965, "trialdata": {"rt": [2861, 6047, 12002, 14347, 20414, 24410, 27700, 39905, 52637, 55947], "recwords": ["termite", "greek", "lettuce", "turnip", "rocket", "playground", "basement", "ulcer", "fiddle", "bark"], "type": "FREE_RECALL", "conditions": [24, 1600, "a", 24000], "trial": 2, "trial_type": "free-recall", "trial_index": 115, "time_elapsed": 778802, "internal_node_id": "0.0-88.0-0.0"}}, {"uniqueid": "MTK0348:3JZQSN0I3RHSOCBNQI7SKUUPD5JGFG", "current_trial": 116, "dateTime": 1510773167238, "trialdata": {"rt": 1272, "key_press": 74, "type": "INSTRUCTIONS", "trial_type": "text", "trial_index": 116, "time_elapsed": 782100, "internal_node_id": "0.0-89.0"}}, {"uniqueid": "MTK0348:3JZQSN0I3RHSOCBNQI7SKUUPD5JGFG", "current_trial": 117, "dateTime": 1510773181248, "trialdata": {"rt": [2349, 3890, 5925, 7662, 9635, 11753], "responses": ["17", "12", "29", "7", "16", "14"], "num1": [9, 5, 9, 3, 6, 7, 3], "num2": [6, 2, 7, 2, 6, 6, 6], "num3": [2, 5, 3, 3, 4, 1, 3], "type": "DISTRACTOR", "conditions": [12, 1600, "a", 12000], "trial": 3, "trial_type": "math-distractor", "trial_index": 117, "time_elapsed": 796109, "internal_node_id": "0.0-90.0"}}, {"uniqueid": "MTK0348:3JZQSN0I3RHSOCBNQI7SKUUPD5JGFG", "current_trial": 118, "dateTime": 1510773184249, "trialdata": {"rt": -1, "stimulus": "<p id=\"stim\">10</p>", "key_press": -1, "trial_type": "single-stim", "trial_index": 118, "time_elapsed": 799110, "internal_node_id": "0.0-91.0-0.0"}}, {"uniqueid": "MTK0348:3JZQSN0I3RHSOCBNQI7SKUUPD5JGFG", "current_trial": 119, "dateTime": 1510773185250, "trialdata": {"rt": -1, "stimulus": "<p id=\"stim\">9</p>", "key_press": -1, "trial_type": "single-stim", "trial_index": 119, "time_elapsed": 800112, "internal_node_id": "0.0-91.0-1.0"}}, {"uniqueid": "MTK0348:3JZQSN0I3RHSOCBNQI7SKUUPD5JGFG", "current_trial": 120, "dateTime": 1510773186252, "trialdata": {"rt": -1, "stimulus": "<p id=\"stim\">8</p>", "key_press": -1, "trial_type": "single-stim", "trial_index": 120, "time_elapsed": 801113, "internal_node_id": "0.0-91.0-2.0"}}, {"uniqueid": "MTK0348:3JZQSN0I3RHSOCBNQI7SKUUPD5JGFG", "current_trial": 121, "dateTime": 1510773187253, "trialdata": {"rt": -1, "stimulus": "<p id=\"stim\">7</p>", "key_press": -1, "trial_type": "single-stim", "trial_index": 121, "time_elapsed": 802115, "internal_node_id": "0.0-91.0-3.0"}}, {"uniqueid": "MTK0348:3JZQSN0I3RHSOCBNQI7SKUUPD5JGFG", "current_trial": 122, "dateTime": 1510773188254, "trialdata": {"rt": -1, "stimulus": "<p id=\"stim\">6</p>", "key_press": -1, "trial_type": "single-stim", "trial_index": 122, "time_elapsed": 803116, "internal_node_id": "0.0-91.0-4.0"}}, {"uniqueid": "MTK0348:3JZQSN0I3RHSOCBNQI7SKUUPD5JGFG", "current_trial": 123, "dateTime": 1510773189256, "trialdata": {"rt": -1, "stimulus": "<p id=\"stim\">5</p>", "key_press": -1, "trial_type": "single-stim", "trial_index": 123, "time_elapsed": 804117, "internal_node_id": "0.0-91.0-5.0"}}, {"uniqueid": "MTK0348:3JZQSN0I3RHSOCBNQI7SKUUPD5JGFG", "current_trial": 124, "dateTime": 1510773190256, "trialdata": {"rt": -1, "stimulus": "<p id=\"stim\">4</p>", "key_press": -1, "trial_type": "single-stim", "trial_index": 124, "time_elapsed": 805118, "internal_node_id": "0.0-91.0-6.0"}}, {"uniqueid": "MTK0348:3JZQSN0I3RHSOCBNQI7SKUUPD5JGFG", "current_trial": 125, "dateTime": 1510773191259, "trialdata": {"rt": -1, "stimulus": "<p id=\"stim\">3</p>", "key_press": -1, "trial_type": "single-stim", "trial_index": 125, "time_elapsed": 806121, "internal_node_id": "0.0-91.0-7.0"}}, {"uniqueid": "MTK0348:3JZQSN0I3RHSOCBNQI7SKUUPD5JGFG", "current_trial": 126, "dateTime": 1510773192261, "trialdata": {"rt": -1, "stimulus": "<p id=\"stim\">2</p>", "key_press": -1, "trial_type": "single-stim", "trial_index": 126, "time_elapsed": 807122, "internal_node_id": "0.0-91.0-8.0"}}, {"uniqueid": "MTK0348:3JZQSN0I3RHSOCBNQI7SKUUPD5JGFG", "current_trial": 127, "dateTime": 1510773193262, "trialdata": {"rt": -1, "stimulus": "<p id=\"stim\">1</p>", "key_press": -1, "trial_type": "single-stim", "trial_index": 127, "time_elapsed": 808124, "internal_node_id": "0.0-91.0-9.0"}}, {"uniqueid": "MTK0348:3JZQSN0I3RHSOCBNQI7SKUUPD5JGFG", "current_trial": 128, "dateTime": 1510773194764, "trialdata": {"rt": -1, "stimulus": "<p id=\"stim\">+</p>", "key_press": -1, "type": "FIXATION", "trial_type": "single-stim", "trial_index": 128, "time_elapsed": 809625, "internal_node_id": "0.0-92.0-0.0"}}, {"uniqueid": "MTK0348:3JZQSN0I3RHSOCBNQI7SKUUPD5JGFG", "current_trial": 129, "dateTime": 1510773197394, "trialdata": {"rt": -1000, "stimulus": "/static/audio/wordpool/BANJO.wav", "key_press": -1, "type": "PRES_AUD", "word": "banjo", "wordID": 81, "conditions": [12, 1600, "a", 12000], "trial": 3, "serialpos": 0, "trial_type": "single-audio", "trial_index": 129, "time_elapsed": 812256, "internal_node_id": "0.0-93.0"}}, {"uniqueid": "MTK0348:3JZQSN0I3RHSOCBNQI7SKUUPD5JGFG", "current_trial": 130, "dateTime": 1510773199825, "trialdata": {"rt": -1000, "stimulus": "/static/audio/wordpool/VICTIM.wav", "key_press": -1, "type": "PRES_AUD", "word": "victim", "wordID": 1561, "conditions": [12, 1600, "a", 12000], "trial": 3, "serialpos": 1, "trial_type": "single-audio", "trial_index": 130, "time_elapsed": 814687, "internal_node_id": "0.0-94.0"}}, {"uniqueid": "MTK0348:3JZQSN0I3RHSOCBNQI7SKUUPD5JGFG", "current_trial": 131, "dateTime": 1510773202564, "trialdata": {"rt": -1000, "stimulus": "/static/audio/wordpool/FLEET.wav", "key_press": -1, "type": "PRES_AUD", "word": "fleet", "wordID": 577, "conditions": [12, 1600, "a", 12000], "trial": 3, "serialpos": 2, "trial_type": "single-audio", "trial_index": 131, "time_elapsed": 817426, "internal_node_id": "0.0-95.0"}}, {"uniqueid": "MTK0348:3JZQSN0I3RHSOCBNQI7SKUUPD5JGFG", "current_trial": 132, "dateTime": 1510773205171, "trialdata": {"rt": -1000, "stimulus": "/static/audio/wordpool/SUNSET.wav", "key_press": -1, "type": "PRES_AUD", "word": "sunset", "wordID": 1407, "conditions": [12, 1600, "a", 12000], "trial": 3, "serialpos": 3, "trial_type": "single-audio", "trial_index": 132, "time_elapsed": 820031, "internal_node_id": "0.0-96.0"}}, {"uniqueid": "MTK0348:3JZQSN0I3RHSOCBNQI7SKUUPD5JGFG", "current_trial": 133, "dateTime": 1510773207785, "trialdata": {"rt": -1000, "stimulus": "/static/audio/wordpool/HAMPER.wav", "key_press": -1, "type": "PRES_AUD", "word": "hamper", "wordID": 681, "conditions": [12, 1600, "a", 12000], "trial": 3, "serialpos": 4, "trial_type": "single-audio", "trial_index": 133, "time_elapsed": 822646, "internal_node_id": "0.0-97.0"}}, {"uniqueid": "MTK0348:3JZQSN0I3RHSOCBNQI7SKUUPD5JGFG", "current_trial": 134, "dateTime": 1510773210434, "trialdata": {"rt": -1000, "stimulus": "/static/audio/wordpool/SNACK.wav", "key_press": -1, "type": "PRES_AUD", "word": "snack", "wordID": 1330, "conditions": [12, 1600, "a", 12000], "trial": 3, "serialpos": 5, "trial_type": "single-audio", "trial_index": 134, "time_elapsed": 825296, "internal_node_id": "0.0-98.0"}}, {"uniqueid": "MTK0348:3JZQSN0I3RHSOCBNQI7SKUUPD5JGFG", "current_trial": 135, "dateTime": 1510773212987, "trialdata": {"rt": -1000, "stimulus": "/static/audio/wordpool/INFANT.wav", "key_press": -1, "type": "PRES_AUD", "word": "infant", "wordID": 736, "conditions": [12, 1600, "a", 12000], "trial": 3, "serialpos": 6, "trial_type": "single-audio", "trial_index": 135, "time_elapsed": 827848, "internal_node_id": "0.0-99.0"}}, {"uniqueid": "MTK0348:3JZQSN0I3RHSOCBNQI7SKUUPD5JGFG", "current_trial": 136, "dateTime": 1510773215395, "trialdata": {"rt": -1000, "stimulus": "/static/audio/wordpool/CHILD.wav", "key_press": -1, "type": "PRES_AUD", "word": "child", "wordID": 298, "conditions": [12, 1600, "a", 12000], "trial": 3, "serialpos": 7, "trial_type": "single-audio", "trial_index": 136, "time_elapsed": 830256, "internal_node_id": "0.0-100.0"}}, {"uniqueid": "MTK0348:3JZQSN0I3RHSOCBNQI7SKUUPD5JGFG", "current_trial": 137, "dateTime": 1510773218015, "trialdata": {"rt": -1000, "stimulus": "/static/audio/wordpool/BUGGY.wav", "key_press": -1, "type": "PRES_AUD", "word": "buggy", "wordID": 187, "conditions": [12, 1600, "a", 12000], "trial": 3, "serialpos": 8, "trial_type": "single-audio", "trial_index": 137, "time_elapsed": 832877, "internal_node_id": "0.0-101.0"}}, {"uniqueid": "MTK0348:3JZQSN0I3RHSOCBNQI7SKUUPD5JGFG", "current_trial": 138, "dateTime": 1510773220445, "trialdata": {"rt": -1000, "stimulus": "/static/audio/wordpool/EGYPT.wav", "key_press": -1, "type": "PRES_AUD", "word": "egypt", "wordID": 518, "conditions": [12, 1600, "a", 12000], "trial": 3, "serialpos": 9, "trial_type": "single-audio", "trial_index": 138, "time_elapsed": 835307, "internal_node_id": "0.0-102.0"}}, {"uniqueid": "MTK0348:3JZQSN0I3RHSOCBNQI7SKUUPD5JGFG", "current_trial": 139, "dateTime": 1510773222918, "trialdata": {"rt": -1000, "stimulus": "/static/audio/wordpool/SUSPECT.wav", "key_press": -1, "type": "PRES_AUD", "word": "suspect", "wordID": 1414, "conditions": [12, 1600, "a", 12000], "trial": 3, "serialpos": 10, "trial_type": "single-audio", "trial_index": 139, "time_elapsed": 837780, "internal_node_id": "0.0-103.0"}}, {"uniqueid": "MTK0348:3JZQSN0I3RHSOCBNQI7SKUUPD5JGFG", "current_trial": 140, "dateTime": 1510773225610, "trialdata": {"rt": -1000, "stimulus": "/static/audio/wordpool/MOTOR.wav", "key_press": -1, "type": "PRES_AUD", "word": "motor", "wordID": 921, "conditions": [12, 1600, "a", 12000], "trial": 3, "serialpos": 11, "trial_type": "single-audio", "trial_index": 140, "time_elapsed": 840471, "internal_node_id": "0.0-104.0"}}, {"uniqueid": "MTK0348:3JZQSN0I3RHSOCBNQI7SKUUPD5JGFG", "current_trial": 141, "dateTime": 1510773226959, "trialdata": {"rt": -1, "stimulus": "", "key_press": -1, "type": "PRE_RECALL_DELAY", "trial_type": "single-stim", "trial_index": 141, "time_elapsed": 841813, "internal_node_id": "0.0-105.0-0.0"}}, {"uniqueid": "MTK0348:3JZQSN0I3RHSOCBNQI7SKUUPD5JGFG", "current_trial": 142, "dateTime": 1510773227462, "trialdata": {"rt": -1000, "stimulus": "/static/audio/400Hz.wav", "key_press": -1, "type": "PRE_RECALL_ALERT", "trial_type": "single-audio", "trial_index": 142, "time_elapsed": 842322, "internal_node_id": "0.0-106.0"}}, {"uniqueid": "MTK0348:3JZQSN0I3RHSOCBNQI7SKUUPD5JGFG", "current_trial": 143, "dateTime": 1510773287485, "trialdata": {"rt": [2854, 4881, 6674, 16936, 18708, 27018, 35196], "recwords": ["motor", "suspect", "egypt", "buggy", "child", "suspect", "victim"], "type": "FREE_RECALL", "conditions": [12, 1600, "a", 12000], "trial": 3, "trial_type": "free-recall", "trial_index": 143, "time_elapsed": 902330, "internal_node_id": "0.0-107.0-0.0"}}, {"uniqueid": "MTK0348:3JZQSN0I3RHSOCBNQI7SKUUPD5JGFG", "current_trial": 144, "dateTime": 1510773290815, "trialdata": {"rt": 1329, "key_press": 75, "type": "INSTRUCTIONS", "trial_type": "text", "trial_index": 144, "time_elapsed": 905676, "internal_node_id": "0.0-108.0"}}, {"uniqueid": "MTK0348:3JZQSN0I3RHSOCBNQI7SKUUPD5JGFG", "current_trial": 145, "dateTime": 1510773304818, "trialdata": {"rt": [3786, 5969, 7345, 9499, 11527], "responses": ["24", "16", "8", "17", "9"], "num1": [7, 6, 1, 7, 4, 8], "num2": [9, 8, 6, 9, 3, 7], "num3": [8, 2, 1, 1, 2, 8], "type": "DISTRACTOR", "conditions": [12, 1600, "v", 12000], "trial": 4, "trial_type": "math-distractor", "trial_index": 145, "time_elapsed": 919680, "internal_node_id": "0.0-109.0"}}, {"uniqueid": "MTK0348:3JZQSN0I3RHSOCBNQI7SKUUPD5JGFG", "current_trial": 146, "dateTime": 1510773307871, "trialdata": {"rt": -1, "stimulus": "<p id=\"stim\">10</p>", "key_press": -1, "trial_type": "single-stim", "trial_index": 146, "time_elapsed": 922733, "internal_node_id": "0.0-110.0-0.0"}}, {"uniqueid": "MTK0348:3JZQSN0I3RHSOCBNQI7SKUUPD5JGFG", "current_trial": 147, "dateTime": 1510773308872, "trialdata": {"rt": -1, "stimulus": "<p id=\"stim\">9</p>", "key_press": -1, "trial_type": "single-stim", "trial_index": 147, "time_elapsed": 923733, "internal_node_id": "0.0-110.0-1.0"}}, {"uniqueid": "MTK0348:3JZQSN0I3RHSOCBNQI7SKUUPD5JGFG", "current_trial": 148, "dateTime": 1510773309872, "trialdata": {"rt": -1, "stimulus": "<p id=\"stim\">8</p>", "key_press": -1, "trial_type": "single-stim", "trial_index": 148, "time_elapsed": 924734, "internal_node_id": "0.0-110.0-2.0"}}, {"uniqueid": "MTK0348:3JZQSN0I3RHSOCBNQI7SKUUPD5JGFG", "current_trial": 149, "dateTime": 1510773310873, "trialdata": {"rt": -1, "stimulus": "<p id=\"stim\">7</p>", "key_press": -1, "trial_type": "single-stim", "trial_index": 149, "time_elapsed": 925735, "internal_node_id": "0.0-110.0-3.0"}}, {"uniqueid": "MTK0348:3JZQSN0I3RHSOCBNQI7SKUUPD5JGFG", "current_trial": 150, "dateTime": 1510773311876, "trialdata": {"rt": -1, "stimulus": "<p id=\"stim\">6</p>", "key_press": -1, "trial_type": "single-stim", "trial_index": 150, "time_elapsed": 926737, "internal_node_id": "0.0-110.0-4.0"}}, {"uniqueid": "MTK0348:3JZQSN0I3RHSOCBNQI7SKUUPD5JGFG", "current_trial": 151, "dateTime": 1510773312877, "trialdata": {"rt": -1, "stimulus": "<p id=\"stim\">5</p>", "key_press": -1, "trial_type": "single-stim", "trial_index": 151, "time_elapsed": 927738, "internal_node_id": "0.0-110.0-5.0"}}, {"uniqueid": "MTK0348:3JZQSN0I3RHSOCBNQI7SKUUPD5JGFG", "current_trial": 152, "dateTime": 1510773313877, "trialdata": {"rt": -1, "stimulus": "<p id=\"stim\">4</p>", "key_press": -1, "trial_type": "single-stim", "trial_index": 152, "time_elapsed": 928739, "internal_node_id": "0.0-110.0-6.0"}}, {"uniqueid": "MTK0348:3JZQSN0I3RHSOCBNQI7SKUUPD5JGFG", "current_trial": 153, "dateTime": 1510773314879, "trialdata": {"rt": -1, "stimulus": "<p id=\"stim\">3</p>", "key_press": -1, "trial_type": "single-stim", "trial_index": 153, "time_elapsed": 929740, "internal_node_id": "0.0-110.0-7.0"}}, {"uniqueid": "MTK0348:3JZQSN0I3RHSOCBNQI7SKUUPD5JGFG", "current_trial": 154, "dateTime": 1510773315897, "trialdata": {"rt": -1, "stimulus": "<p id=\"stim\">2</p>", "key_press": -1, "trial_type": "single-stim", "trial_index": 154, "time_elapsed": 930758, "internal_node_id": "0.0-110.0-8.0"}}, {"uniqueid": "MTK0348:3JZQSN0I3RHSOCBNQI7SKUUPD5JGFG", "current_trial": 155, "dateTime": 1510773316898, "trialdata": {"rt": -1, "stimulus": "<p id=\"stim\">1</p>", "key_press": -1, "trial_type": "single-stim", "trial_index": 155, "time_elapsed": 931759, "internal_node_id": "0.0-110.0-9.0"}}, {"uniqueid": "MTK0348:3JZQSN0I3RHSOCBNQI7SKUUPD5JGFG", "current_trial": 156, "dateTime": 1510773318399, "trialdata": {"rt": -1, "stimulus": "<p id=\"stim\">+</p>", "key_press": -1, "type": "FIXATION", "trial_type": "single-stim", "trial_index": 156, "time_elapsed": 933260, "internal_node_id": "0.0-111.0-0.0"}}, {"uniqueid": "MTK0348:3JZQSN0I3RHSOCBNQI7SKUUPD5JGFG", "current_trial": 157, "dateTime": 1510773320000, "trialdata": {"rt": -1, "stimulus": "<p id=\"stim\">GARDEN</p>", "key_press": -1, "type": "PRES_VIS", "word": "garden", "wordID": 622, "conditions": [12, 1600, "v", 12000], "trial": 4, "serialpos": 0, "trial_type": "single-stim", "trial_index": 157, "time_elapsed": 934861, "internal_node_id": "0.0-112.0"}}, {"uniqueid": "MTK0348:3JZQSN0I3RHSOCBNQI7SKUUPD5JGFG", "current_trial": 158, "dateTime": 1510773322734, "trialdata": {"rt": -1, "stimulus": "<p id=\"stim\">UMPIRE</p>", "key_press": -1, "type": "PRES_VIS", "word": "umpire", "wordID": 1534, "conditions": [12, 1600, "v", 12000], "trial": 4, "serialpos": 1, "trial_type": "single-stim", "trial_index": 158, "time_elapsed": 937595, "internal_node_id": "0.0-113.0"}}, {"uniqueid": "MTK0348:3JZQSN0I3RHSOCBNQI7SKUUPD5JGFG", "current_trial": 159, "dateTime": 1510773325532, "trialdata": {"rt": -1, "stimulus": "<p id=\"stim\">JUDGE</p>", "key_press": -1, "type": "PRES_VIS", "word": "judge", "wordID": 760, "conditions": [12, 1600, "v", 12000], "trial": 4, "serialpos": 2, "trial_type": "single-stim", "trial_index": 159, "time_elapsed": 940394, "internal_node_id": "0.0-114.0"}}, {"uniqueid": "MTK0348:3JZQSN0I3RHSOCBNQI7SKUUPD5JGFG", "current_trial": 160, "dateTime": 1510773328094, "trialdata": {"rt": -1, "stimulus": "<p id=\"stim\">KIDNEY</p>", "key_press": -1, "type": "PRES_VIS", "word": "kidney", "wordID": 775, "conditions": [12, 1600, "v", 12000], "trial": 4, "serialpos": 3, "trial_type": "single-stim", "trial_index": 160, "time_elapsed": 942955, "internal_node_id": "0.0-115.0"}}, {"uniqueid": "MTK0348:3JZQSN0I3RHSOCBNQI7SKUUPD5JGFG", "current_trial": 161, "dateTime": 1510773330744, "trialdata": {"rt": -1, "stimulus": "<p id=\"stim\">DAUGHTER</p>", "key_press": -1, "type": "PRES_VIS", "word": "daughter", "wordID": 441, "conditions": [12, 1600, "v", 12000], "trial": 4, "serialpos": 4, "trial_type": "single-stim", "trial_index": 161, "time_elapsed": 945605, "internal_node_id": "0.0-116.0"}}, {"uniqueid": "MTK0348:3JZQSN0I3RHSOCBNQI7SKUUPD5JGFG", "current_trial": 162, "dateTime": 1510773333184, "trialdata": {"rt": -1, "stimulus": "<p id=\"stim\">GIRL</p>", "key_press": -1, "type": "PRES_VIS", "word": "girl", "wordID": 636, "conditions": [12, 1600, "v", 12000], "trial": 4, "serialpos": 5, "trial_type": "single-stim", "trial_index": 162, "time_elapsed": 948046, "internal_node_id": "0.0-117.0"}}, {"uniqueid": "MTK0348:3JZQSN0I3RHSOCBNQI7SKUUPD5JGFG", "current_trial": 163, "dateTime": 1510773335788, "trialdata": {"rt": -1, "stimulus": "<p id=\"stim\">POPCORN</p>", "key_press": -1, "type": "PRES_VIS", "word": "popcorn", "wordID": 1103, "conditions": [12, 1600, "v", 12000], "trial": 4, "serialpos": 6, "trial_type": "single-stim", "trial_index": 163, "time_elapsed": 950650, "internal_node_id": "0.0-118.0"}}, {"uniqueid": "MTK0348:3JZQSN0I3RHSOCBNQI7SKUUPD5JGFG", "current_trial": 164, "dateTime": 1510773338377, "trialdata": {"rt": -1, "stimulus": "<p id=\"stim\">SHRUB</p>", "key_press": -1, "type": "PRES_VIS", "word": "shrub", "wordID": 1298, "conditions": [12, 1600, "v", 12000], "trial": 4, "serialpos": 7, "trial_type": "single-stim", "trial_index": 164, "time_elapsed": 953238, "internal_node_id": "0.0-119.0"}}, {"uniqueid": "MTK0348:3JZQSN0I3RHSOCBNQI7SKUUPD5JGFG", "current_trial": 165, "dateTime": 1510773340837, "trialdata": {"rt": -1, "stimulus": "<p id=\"stim\">PICNIC</p>", "key_press": -1, "type": "PRES_VIS", "word": "picnic", "wordID": 1059, "conditions": [12, 1600, "v", 12000], "trial": 4, "serialpos": 8, "trial_type": "single-stim", "trial_index": 165, "time_elapsed": 955698, "internal_node_id": "0.0-120.0"}}, {"uniqueid": "MTK0348:3JZQSN0I3RHSOCBNQI7SKUUPD5JGFG", "current_trial": 166, "dateTime": 1510773343561, "trialdata": {"rt": -1, "stimulus": "<p id=\"stim\">TWEEZERS</p>", "key_press": -1, "type": "PRES_VIS", "word": "tweezers", "wordID": 1525, "conditions": [12, 1600, "v", 12000], "trial": 4, "serialpos": 9, "trial_type": "single-stim", "trial_index": 166, "time_elapsed": 958423, "internal_node_id": "0.0-121.0"}}, {"uniqueid": "MTK0348:3JZQSN0I3RHSOCBNQI7SKUUPD5JGFG", "current_trial": 167, "dateTime": 1510773346287, "trialdata": {"rt": -1, "stimulus": "<p id=\"stim\">STAPLE</p>", "key_press": -1, "type": "PRES_VIS", "word": "staple", "wordID": 1370, "conditions": [12, 1600, "v", 12000], "trial": 4, "serialpos": 10, "trial_type": "single-stim", "trial_index": 167, "time_elapsed": 961148, "internal_node_id": "0.0-122.0"}}, {"uniqueid": "MTK0348:3JZQSN0I3RHSOCBNQI7SKUUPD5JGFG", "current_trial": 168, "dateTime": 1510773348771, "trialdata": {"rt": -1, "stimulus": "<p id=\"stim\">ZIPPER</p>", "key_press": -1, "type": "PRES_VIS", "word": "zipper", "wordID": 1635, "conditions": [12, 1600, "v", 12000], "trial": 4, "serialpos": 11, "trial_type": "single-stim", "trial_index": 168, "time_elapsed": 963633, "internal_node_id": "0.0-123.0"}}, {"uniqueid": "MTK0348:3JZQSN0I3RHSOCBNQI7SKUUPD5JGFG", "current_trial": 169, "dateTime": 1510773351098, "trialdata": {"rt": -1, "stimulus": "", "key_press": -1, "type": "PRE_RECALL_DELAY", "trial_type": "single-stim", "trial_index": 169, "time_elapsed": 965960, "internal_node_id": "0.0-124.0-0.0"}}, {"uniqueid": "MTK0348:3JZQSN0I3RHSOCBNQI7SKUUPD5JGFG", "current_trial": 170, "dateTime": 1510773351603, "trialdata": {"rt": -1000, "stimulus": "/static/audio/400Hz.wav", "key_press": -1, "type": "PRE_RECALL_ALERT", "trial_type": "single-audio", "trial_index": 170, "time_elapsed": 966464, "internal_node_id": "0.0-125.0"}}, {"uniqueid": "MTK0348:3JZQSN0I3RHSOCBNQI7SKUUPD5JGFG", "current_trial": 171, "dateTime": 1510773411627, "trialdata": {"rt": [3123, 4870, 6600, 8854, 18191, 22544, 32572, 56002], "recwords": ["zipper", "daughter", "child", "popcorn", "kidney", "tweezers", "zipper", "kidney"], "type": "FREE_RECALL", "conditions": [12, 1600, "v", 12000], "trial": 4, "trial_type": "free-recall", "trial_index": 171, "time_elapsed": 1026473, "internal_node_id": "0.0-126.0-0.0"}}, {"uniqueid": "MTK0348:3JZQSN0I3RHSOCBNQI7SKUUPD5JGFG", "current_trial": 172, "dateTime": 1510773440692, "trialdata": {"rt": 27061, "key_press": 70, "type": "INSTRUCTIONS", "trial_type": "text", "trial_index": 172, "time_elapsed": 1055553, "internal_node_id": "0.0-127.0"}}, {"uniqueid": "MTK0348:3JZQSN0I3RHSOCBNQI7SKUUPD5JGFG", "current_trial": 173, "dateTime": 1510773466703, "trialdata": {"rt": [1797, 3428, 5575, 7304, 10425, 13449, 16513, 18642, 21656, 23701], "responses": ["17", "13", "17", "19", "19", "13", "9", "13", "18", "9"], "num1": [8, 3, 2, 9, 6, 5, 2, 7, 4, 1, 4], "num2": [2, 6, 6, 1, 9, 2, 1, 5, 7, 6, 6], "num3": [7, 1, 9, 9, 4, 6, 6, 1, 7, 2, 1], "type": "DISTRACTOR", "conditions": [12, 1600, "v", 24000], "trial": 5, "trial_type": "math-distractor", "trial_index": 173, "time_elapsed": 1081564, "internal_node_id": "0.0-128.0"}}, {"uniqueid": "MTK0348:3JZQSN0I3RHSOCBNQI7SKUUPD5JGFG", "current_trial": 174, "dateTime": 1510773469734, "trialdata": {"rt": -1, "stimulus": "<p id=\"stim\">10</p>", "key_press": -1, "trial_type": "single-stim", "trial_index": 174, "time_elapsed": 1084595, "internal_node_id": "0.0-129.0-0.0"}}, {"uniqueid": "MTK0348:3JZQSN0I3RHSOCBNQI7SKUUPD5JGFG", "current_trial": 175, "dateTime": 1510773470736, "trialdata": {"rt": -1, "stimulus": "<p id=\"stim\">9</p>", "key_press": -1, "trial_type": "single-stim", "trial_index": 175, "time_elapsed": 1085596, "internal_node_id": "0.0-129.0-1.0"}}, {"uniqueid": "MTK0348:3JZQSN0I3RHSOCBNQI7SKUUPD5JGFG", "current_trial": 176, "dateTime": 1510773471736, "trialdata": {"rt": -1, "stimulus": "<p id=\"stim\">8</p>", "key_press": -1, "trial_type": "single-stim", "trial_index": 176, "time_elapsed": 1086598, "internal_node_id": "0.0-129.0-2.0"}}, {"uniqueid": "MTK0348:3JZQSN0I3RHSOCBNQI7SKUUPD5JGFG", "current_trial": 177, "dateTime": 1510773472737, "trialdata": {"rt": -1, "stimulus": "<p id=\"stim\">7</p>", "key_press": -1, "trial_type": "single-stim", "trial_index": 177, "time_elapsed": 1087599, "internal_node_id": "0.0-129.0-3.0"}}, {"uniqueid": "MTK0348:3JZQSN0I3RHSOCBNQI7SKUUPD5JGFG", "current_trial": 178, "dateTime": 1510773473739, "trialdata": {"rt": -1, "stimulus": "<p id=\"stim\">6</p>", "key_press": -1, "trial_type": "single-stim", "trial_index": 178, "time_elapsed": 1088601, "internal_node_id": "0.0-129.0-4.0"}}, {"uniqueid": "MTK0348:3JZQSN0I3RHSOCBNQI7SKUUPD5JGFG", "current_trial": 179, "dateTime": 1510773474740, "trialdata": {"rt": -1, "stimulus": "<p id=\"stim\">5</p>", "key_press": -1, "trial_type": "single-stim", "trial_index": 179, "time_elapsed": 1089602, "internal_node_id": "0.0-129.0-5.0"}}, {"uniqueid": "MTK0348:3JZQSN0I3RHSOCBNQI7SKUUPD5JGFG", "current_trial": 180, "dateTime": 1510773475742, "trialdata": {"rt": -1, "stimulus": "<p id=\"stim\">4</p>", "key_press": -1, "trial_type": "single-stim", "trial_index": 180, "time_elapsed": 1090603, "internal_node_id": "0.0-129.0-6.0"}}, {"uniqueid": "MTK0348:3JZQSN0I3RHSOCBNQI7SKUUPD5JGFG", "current_trial": 181, "dateTime": 1510773476742, "trialdata": {"rt": -1, "stimulus": "<p id=\"stim\">3</p>", "key_press": -1, "trial_type": "single-stim", "trial_index": 181, "time_elapsed": 1091604, "internal_node_id": "0.0-129.0-7.0"}}, {"uniqueid": "MTK0348:3JZQSN0I3RHSOCBNQI7SKUUPD5JGFG", "current_trial": 182, "dateTime": 1510773477786, "trialdata": {"rt": -1, "stimulus": "<p id=\"stim\">2</p>", "key_press": -1, "trial_type": "single-stim", "trial_index": 182, "time_elapsed": 1092648, "internal_node_id": "0.0-129.0-8.0"}}, {"uniqueid": "MTK0348:3JZQSN0I3RHSOCBNQI7SKUUPD5JGFG", "current_trial": 183, "dateTime": 1510773478787, "trialdata": {"rt": -1, "stimulus": "<p id=\"stim\">1</p>", "key_press": -1, "trial_type": "single-stim", "trial_index": 183, "time_elapsed": 1093649, "internal_node_id": "0.0-129.0-9.0"}}, {"uniqueid": "MTK0348:3JZQSN0I3RHSOCBNQI7SKUUPD5JGFG", "current_trial": 184, "dateTime": 1510773480364, "trialdata": {"rt": -1, "stimulus": "<p id=\"stim\">+</p>", "key_press": -1, "type": "FIXATION", "trial_type": "single-stim", "trial_index": 184, "time_elapsed": 1095226, "internal_node_id": "0.0-130.0-0.0"}}, {"uniqueid": "MTK0348:3JZQSN0I3RHSOCBNQI7SKUUPD5JGFG", "current_trial": 185, "dateTime": 1510773481966, "trialdata": {"rt": -1, "stimulus": "<p id=\"stim\">ROOSTER</p>", "key_press": -1, "type": "PRES_VIS", "word": "rooster", "wordID": 1208, "conditions": [12, 1600, "v", 24000], "trial": 5, "serialpos": 0, "trial_type": "single-stim", "trial_index": 185, "time_elapsed": 1096828, "internal_node_id": "0.0-131.0"}}, {"uniqueid": "MTK0348:3JZQSN0I3RHSOCBNQI7SKUUPD5JGFG", "current_trial": 186, "dateTime": 1510773484384, "trialdata": {"rt": -1, "stimulus": "<p id=\"stim\">BROTHER</p>", "key_press": -1, "type": "PRES_VIS", "word": "brother", "wordID": 178, "conditions": [12, 1600, "v", 24000], "trial": 5, "serialpos": 1, "trial_type": "single-stim", "trial_index": 186, "time_elapsed": 1099246, "internal_node_id": "0.0-132.0"}}, {"uniqueid": "MTK0348:3JZQSN0I3RHSOCBNQI7SKUUPD5JGFG", "current_trial": 187, "dateTime": 1510773487057, "trialdata": {"rt": -1, "stimulus": "<p id=\"stim\">BOYFRIEND</p>", "key_press": -1, "type": "PRES_VIS", "word": "boyfriend", "wordID": 161, "conditions": [12, 1600, "v", 24000], "trial": 5, "serialpos": 2, "trial_type": "single-stim", "trial_index": 187, "time_elapsed": 1101918, "internal_node_id": "0.0-133.0"}}, {"uniqueid": "MTK0348:3JZQSN0I3RHSOCBNQI7SKUUPD5JGFG", "current_trial": 188, "dateTime": 1510773489510, "trialdata": {"rt": -1, "stimulus": "<p id=\"stim\">CAFE</p>", "key_press": -1, "type": "PRES_VIS", "word": "cafe", "wordID": 215, "conditions": [12, 1600, "v", 24000], "trial": 5, "serialpos": 3, "trial_type": "single-stim", "trial_index": 188, "time_elapsed": 1104371, "internal_node_id": "0.0-134.0"}}, {"uniqueid": "MTK0348:3JZQSN0I3RHSOCBNQI7SKUUPD5JGFG", "current_trial": 189, "dateTime": 1510773491981, "trialdata": {"rt": -1, "stimulus": "<p id=\"stim\">DASHBOARD</p>", "key_press": -1, "type": "PRES_VIS", "word": "dashboard", "wordID": 440, "conditions": [12, 1600, "v", 24000], "trial": 5, "serialpos": 4, "trial_type": "single-stim", "trial_index": 189, "time_elapsed": 1106842, "internal_node_id": "0.0-135.0"}}, {"uniqueid": "MTK0348:3JZQSN0I3RHSOCBNQI7SKUUPD5JGFG", "current_trial": 190, "dateTime": 1510773494693, "trialdata": {"rt": -1, "stimulus": "<p id=\"stim\">GALLON</p>", "key_press": -1, "type": "PRES_VIS", "word": "gallon", "wordID": 617, "conditions": [12, 1600, "v", 24000], "trial": 5, "serialpos": 5, "trial_type": "single-stim", "trial_index": 190, "time_elapsed": 1109554, "internal_node_id": "0.0-136.0"}}, {"uniqueid": "MTK0348:3JZQSN0I3RHSOCBNQI7SKUUPD5JGFG", "current_trial": 191, "dateTime": 1510773497458, "trialdata": {"rt": -1, "stimulus": "<p id=\"stim\">PARROT</p>", "key_press": -1, "type": "PRES_VIS", "word": "parrot", "wordID": 1014, "conditions": [12, 1600, "v", 24000], "trial": 5, "serialpos": 6, "trial_type": "single-stim", "trial_index": 191, "time_elapsed": 1112319, "internal_node_id": "0.0-137.0"}}, {"uniqueid": "MTK0348:3JZQSN0I3RHSOCBNQI7SKUUPD5JGFG", "current_trial": 192, "dateTime": 1510773500040, "trialdata": {"rt": -1, "stimulus": "<p id=\"stim\">SALMON</p>", "key_press": -1, "type": "PRES_VIS", "word": "salmon", "wordID": 1226, "conditions": [12, 1600, "v", 24000], "trial": 5, "serialpos": 7, "trial_type": "single-stim", "trial_index": 192, "time_elapsed": 1114901, "internal_node_id": "0.0-138.0"}}, {"uniqueid": "MTK0348:3JZQSN0I3RHSOCBNQI7SKUUPD5JGFG", "current_trial": 193, "dateTime": 1510773502609, "trialdata": {"rt": -1, "stimulus": "<p id=\"stim\">WASP</p>", "key_press": -1, "type": "PRES_VIS", "word": "wasp", "wordID": 1592, "conditions": [12, 1600, "v", 24000], "trial": 5, "serialpos": 8, "trial_type": "single-stim", "trial_index": 193, "time_elapsed": 1117471, "internal_node_id": "0.0-139.0"}}, {"uniqueid": "MTK0348:3JZQSN0I3RHSOCBNQI7SKUUPD5JGFG", "current_trial": 194, "dateTime": 1510773505046, "trialdata": {"rt": -1, "stimulus": "<p id=\"stim\">PERMIT</p>", "key_press": -1, "type": "PRES_VIS", "word": "permit", "wordID": 1050, "conditions": [12, 1600, "v", 24000], "trial": 5, "serialpos": 9, "trial_type": "single-stim", "trial_index": 194, "time_elapsed": 1119908, "internal_node_id": "0.0-140.0"}}, {"uniqueid": "MTK0348:3JZQSN0I3RHSOCBNQI7SKUUPD5JGFG", "current_trial": 195, "dateTime": 1510773507787, "trialdata": {"rt": -1, "stimulus": "<p id=\"stim\">CONTRACT</p>", "key_press": -1, "type": "PRES_VIS", "word": "contract", "wordID": 367, "conditions": [12, 1600, "v", 24000], "trial": 5, "serialpos": 10, "trial_type": "single-stim", "trial_index": 195, "time_elapsed": 1122649, "internal_node_id": "0.0-141.0"}}, {"uniqueid": "MTK0348:3JZQSN0I3RHSOCBNQI7SKUUPD5JGFG", "current_trial": 196, "dateTime": 1510773510602, "trialdata": {"rt": -1, "stimulus": "<p id=\"stim\">SCARF</p>", "key_press": -1, "type": "PRES_VIS", "word": "scarf", "wordID": 1245, "conditions": [12, 1600, "v", 24000], "trial": 5, "serialpos": 11, "trial_type": "single-stim", "trial_index": 196, "time_elapsed": 1125463, "internal_node_id": "0.0-142.0"}}, {"uniqueid": "MTK0348:3JZQSN0I3RHSOCBNQI7SKUUPD5JGFG", "current_trial": 197, "dateTime": 1510773512991, "trialdata": {"rt": -1, "stimulus": "", "key_press": -1, "type": "PRE_RECALL_DELAY", "trial_type": "single-stim", "trial_index": 197, "time_elapsed": 1127852, "internal_node_id": "0.0-143.0-0.0"}}, {"uniqueid": "MTK0348:3JZQSN0I3RHSOCBNQI7SKUUPD5JGFG", "current_trial": 198, "dateTime": 1510773513493, "trialdata": {"rt": -1000, "stimulus": "/static/audio/400Hz.wav", "key_press": -1, "type": "PRE_RECALL_ALERT", "trial_type": "single-audio", "trial_index": 198, "time_elapsed": 1128355, "internal_node_id": "0.0-144.0"}}, {"uniqueid": "MTK0348:3JZQSN0I3RHSOCBNQI7SKUUPD5JGFG", "current_trial": 199, "dateTime": 1510773573512, "trialdata": {"rt": [2724, 4590, 12482, 16424, 21994, 29056, 32386, 56202], "recwords": ["scarf", "contract", "salmon", "wasp", "bush", "parrot", "cafe", "chalkboard"], "type": "FREE_RECALL", "conditions": [12, 1600, "v", 24000], "trial": 5, "trial_type": "free-recall", "trial_index": 199, "time_elapsed": 1188360, "internal_node_id": "0.0-145.0-0.0"}}, {"uniqueid": "MTK0348:3JZQSN0I3RHSOCBNQI7SKUUPD5JGFG", "current_trial": 200, "dateTime": 1510773891928, "trialdata": {"rt": 316413, "key_press": 67, "type": "INSTRUCTIONS", "trial_type": "text", "trial_index": 200, "time_elapsed": 1506788, "internal_node_id": "0.0-146.0"}}, {"uniqueid": "MTK0348:3JZQSN0I3RHSOCBNQI7SKUUPD5JGFG", "current_trial": 201, "dateTime": 1510773905938, "trialdata": {"rt": [3468, 5794, 7583, 9257, 11867], "responses": ["11", "17", "19", "14", "19"], "num1": [3, 9, 9, 2, 4, 8], "num2": [2, 2, 6, 6, 7, 5], "num3": [6, 6, 4, 6, 8, 8], "type": "DISTRACTOR", "conditions": [24, 800, "v", 12000], "trial": 6, "trial_type": "math-distractor", "trial_index": 201, "time_elapsed": 1520800, "internal_node_id": "0.0-147.0"}}, {"uniqueid": "MTK0348:3JZQSN0I3RHSOCBNQI7SKUUPD5JGFG", "current_trial": 202, "dateTime": 1510773908941, "trialdata": {"rt": -1, "stimulus": "<p id=\"stim\">10</p>", "key_press": -1, "trial_type": "single-stim", "trial_index": 202, "time_elapsed": 1523803, "internal_node_id": "0.0-148.0-0.0"}}, {"uniqueid": "MTK0348:3JZQSN0I3RHSOCBNQI7SKUUPD5JGFG", "current_trial": 203, "dateTime": 1510773909941, "trialdata": {"rt": -1, "stimulus": "<p id=\"stim\">9</p>", "key_press": -1, "trial_type": "single-stim", "trial_index": 203, "time_elapsed": 1524803, "internal_node_id": "0.0-148.0-1.0"}}, {"uniqueid": "MTK0348:3JZQSN0I3RHSOCBNQI7SKUUPD5JGFG", "current_trial": 204, "dateTime": 1510773910943, "trialdata": {"rt": -1, "stimulus": "<p id=\"stim\">8</p>", "key_press": -1, "trial_type": "single-stim", "trial_index": 204, "time_elapsed": 1525804, "internal_node_id": "0.0-148.0-2.0"}}, {"uniqueid": "MTK0348:3JZQSN0I3RHSOCBNQI7SKUUPD5JGFG", "current_trial": 205, "dateTime": 1510773911944, "trialdata": {"rt": -1, "stimulus": "<p id=\"stim\">7</p>", "key_press": -1, "trial_type": "single-stim", "trial_index": 205, "time_elapsed": 1526805, "internal_node_id": "0.0-148.0-3.0"}}, {"uniqueid": "MTK0348:3JZQSN0I3RHSOCBNQI7SKUUPD5JGFG", "current_trial": 206, "dateTime": 1510773912944, "trialdata": {"rt": -1, "stimulus": "<p id=\"stim\">6</p>", "key_press": -1, "trial_type": "single-stim", "trial_index": 206, "time_elapsed": 1527806, "internal_node_id": "0.0-148.0-4.0"}}, {"uniqueid": "MTK0348:3JZQSN0I3RHSOCBNQI7SKUUPD5JGFG", "current_trial": 207, "dateTime": 1510773913976, "trialdata": {"rt": -1, "stimulus": "<p id=\"stim\">5</p>", "key_press": -1, "trial_type": "single-stim", "trial_index": 207, "time_elapsed": 1528837, "internal_node_id": "0.0-148.0-5.0"}}, {"uniqueid": "MTK0348:3JZQSN0I3RHSOCBNQI7SKUUPD5JGFG", "current_trial": 208, "dateTime": 1510773914977, "trialdata": {"rt": -1, "stimulus": "<p id=\"stim\">4</p>", "key_press": -1, "trial_type": "single-stim", "trial_index": 208, "time_elapsed": 1529838, "internal_node_id": "0.0-148.0-6.0"}}, {"uniqueid": "MTK0348:3JZQSN0I3RHSOCBNQI7SKUUPD5JGFG", "current_trial": 209, "dateTime": 1510773915979, "trialdata": {"rt": -1, "stimulus": "<p id=\"stim\">3</p>", "key_press": -1, "trial_type": "single-stim", "trial_index": 209, "time_elapsed": 1530840, "internal_node_id": "0.0-148.0-7.0"}}, {"uniqueid": "MTK0348:3JZQSN0I3RHSOCBNQI7SKUUPD5JGFG", "current_trial": 210, "dateTime": 1510773916980, "trialdata": {"rt": -1, "stimulus": "<p id=\"stim\">2</p>", "key_press": -1, "trial_type": "single-stim", "trial_index": 210, "time_elapsed": 1531841, "internal_node_id": "0.0-148.0-8.0"}}, {"uniqueid": "MTK0348:3JZQSN0I3RHSOCBNQI7SKUUPD5JGFG", "current_trial": 211, "dateTime": 1510773917982, "trialdata": {"rt": -1, "stimulus": "<p id=\"stim\">1</p>", "key_press": -1, "trial_type": "single-stim", "trial_index": 211, "time_elapsed": 1532843, "internal_node_id": "0.0-148.0-9.0"}}, {"uniqueid": "MTK0348:3JZQSN0I3RHSOCBNQI7SKUUPD5JGFG", "current_trial": 212, "dateTime": 1510773919483, "trialdata": {"rt": -1, "stimulus": "<p id=\"stim\">+</p>", "key_press": -1, "type": "FIXATION", "trial_type": "single-stim", "trial_index": 212, "time_elapsed": 1534344, "internal_node_id": "0.0-149.0-0.0"}}, {"uniqueid": "MTK0348:3JZQSN0I3RHSOCBNQI7SKUUPD5JGFG", "current_trial": 213, "dateTime": 1510773920288, "trialdata": {"rt": -1, "stimulus": "<p id=\"stim\">SNAKE</p>", "key_press": -1, "type": "PRES_VIS", "word": "snake", "wordID": 1332, "conditions": [24, 800, "v", 12000], "trial": 6, "serialpos": 0, "trial_type": "single-stim", "trial_index": 213, "time_elapsed": 1535150, "internal_node_id": "0.0-150.0"}}, {"uniqueid": "MTK0348:3JZQSN0I3RHSOCBNQI7SKUUPD5JGFG", "current_trial": 214, "dateTime": 1510773922282, "trialdata": {"rt": -1, "stimulus": "<p id=\"stim\">ORCHID</p>", "key_press": -1, "type": "PRES_VIS", "word": "orchid", "wordID": 981, "conditions": [24, 800, "v", 12000], "trial": 6, "serialpos": 1, "trial_type": "single-stim", "trial_index": 214, "time_elapsed": 1537144, "internal_node_id": "0.0-151.0"}}, {"uniqueid": "MTK0348:3JZQSN0I3RHSOCBNQI7SKUUPD5JGFG", "current_trial": 215, "dateTime": 1510773923928, "trialdata": {"rt": -1, "stimulus": "<p id=\"stim\">CAMEL</p>", "key_press": -1, "type": "PRES_VIS", "word": "camel", "wordID": 222, "conditions": [24, 800, "v", 12000], "trial": 6, "serialpos": 2, "trial_type": "single-stim", "trial_index": 215, "time_elapsed": 1538790, "internal_node_id": "0.0-152.0"}}, {"uniqueid": "MTK0348:3JZQSN0I3RHSOCBNQI7SKUUPD5JGFG", "current_trial": 216, "dateTime": 1510773925558, "trialdata": {"rt": -1, "stimulus": "<p id=\"stim\">CARROT</p>", "key_press": -1, "type": "PRES_VIS", "word": "carrot", "wordID": 248, "conditions": [24, 800, "v", 12000], "trial": 6, "serialpos": 3, "trial_type": "single-stim", "trial_index": 216, "time_elapsed": 1540420, "internal_node_id": "0.0-153.0"}}, {"uniqueid": "MTK0348:3JZQSN0I3RHSOCBNQI7SKUUPD5JGFG", "current_trial": 217, "dateTime": 1510773927196, "trialdata": {"rt": -1, "stimulus": "<p id=\"stim\">LIVER</p>", "key_press": -1, "type": "PRES_VIS", "word": "liver", "wordID": 832, "conditions": [24, 800, "v", 12000], "trial": 6, "serialpos": 4, "trial_type": "single-stim", "trial_index": 217, "time_elapsed": 1542058, "internal_node_id": "0.0-154.0"}}, {"uniqueid": "MTK0348:3JZQSN0I3RHSOCBNQI7SKUUPD5JGFG", "current_trial": 218, "dateTime": 1510773929019, "trialdata": {"rt": -1, "stimulus": "<p id=\"stim\">CITRUS</p>", "key_press": -1, "type": "PRES_VIS", "word": "citrus", "wordID": 312, "conditions": [24, 800, "v", 12000], "trial": 6, "serialpos": 5, "trial_type": "single-stim", "trial_index": 218, "time_elapsed": 1543881, "internal_node_id": "0.0-155.0"}}, {"uniqueid": "MTK0348:3JZQSN0I3RHSOCBNQI7SKUUPD5JGFG", "current_trial": 219, "dateTime": 1510773930852, "trialdata": {"rt": -1, "stimulus": "<p id=\"stim\">PASTRY</p>", "key_press": -1, "type": "PRES_VIS", "word": "pastry", "wordID": 1021, "conditions": [24, 800, "v", 12000], "trial": 6, "serialpos": 6, "trial_type": "single-stim", "trial_index": 219, "time_elapsed": 1545713, "internal_node_id": "0.0-156.0"}}, {"uniqueid": "MTK0348:3JZQSN0I3RHSOCBNQI7SKUUPD5JGFG", "current_trial": 220, "dateTime": 1510773932665, "trialdata": {"rt": -1, "stimulus": "<p id=\"stim\">BEAKER</p>", "key_press": -1, "type": "PRES_VIS", "word": "beaker", "wordID": 103, "conditions": [24, 800, "v", 12000], "trial": 6, "serialpos": 7, "trial_type": "single-stim", "trial_index": 220, "time_elapsed": 1547526, "internal_node_id": "0.0-157.0"}}, {"uniqueid": "MTK0348:3JZQSN0I3RHSOCBNQI7SKUUPD5JGFG", "current_trial": 221, "dateTime": 1510773934617, "trialdata": {"rt": -1, "stimulus": "<p id=\"stim\">FLASK</p>", "key_press": -1, "type": "PRES_VIS", "word": "flask", "wordID": 575, "conditions": [24, 800, "v", 12000], "trial": 6, "serialpos": 8, "trial_type": "single-stim", "trial_index": 221, "time_elapsed": 1549478, "internal_node_id": "0.0-158.0"}}, {"uniqueid": "MTK0348:3JZQSN0I3RHSOCBNQI7SKUUPD5JGFG", "current_trial": 222, "dateTime": 1510773936339, "trialdata": {"rt": -1, "stimulus": "<p id=\"stim\">SWIMMER</p>", "key_press": -1, "type": "PRES_VIS", "word": "swimmer", "wordID": 1419, "conditions": [24, 800, "v", 12000], "trial": 6, "serialpos": 9, "trial_type": "single-stim", "trial_index": 222, "time_elapsed": 1551201, "internal_node_id": "0.0-159.0"}}, {"uniqueid": "MTK0348:3JZQSN0I3RHSOCBNQI7SKUUPD5JGFG", "current_trial": 223, "dateTime": 1510773937965, "trialdata": {"rt": -1, "stimulus": "<p id=\"stim\">GOBLIN</p>", "key_press": -1, "type": "PRES_VIS", "word": "goblin", "wordID": 644, "conditions": [24, 800, "v", 12000], "trial": 6, "serialpos": 10, "trial_type": "single-stim", "trial_index": 223, "time_elapsed": 1552827, "internal_node_id": "0.0-160.0"}}, {"uniqueid": "MTK0348:3JZQSN0I3RHSOCBNQI7SKUUPD5JGFG", "current_trial": 224, "dateTime": 1510773939742, "trialdata": {"rt": -1, "stimulus": "<p id=\"stim\">DONKEY</p>", "key_press": -1, "type": "PRES_VIS", "word": "donkey", "wordID": 483, "conditions": [24, 800, "v", 12000], "trial": 6, "serialpos": 11, "trial_type": "single-stim", "trial_index": 224, "time_elapsed": 1554603, "internal_node_id": "0.0-161.0"}}, {"uniqueid": "MTK0348:3JZQSN0I3RHSOCBNQI7SKUUPD5JGFG", "current_trial": 225, "dateTime": 1510773941422, "trialdata": {"rt": -1, "stimulus": "<p id=\"stim\">CARRIAGE</p>", "key_press": -1, "type": "PRES_VIS", "word": "carriage", "wordID": 247, "conditions": [24, 800, "v", 12000], "trial": 6, "serialpos": 12, "trial_type": "single-stim", "trial_index": 225, "time_elapsed": 1556284, "internal_node_id": "0.0-162.0"}}, {"uniqueid": "MTK0348:3JZQSN0I3RHSOCBNQI7SKUUPD5JGFG", "current_trial": 226, "dateTime": 1510773943302, "trialdata": {"rt": -1, "stimulus": "<p id=\"stim\">SANDWICH</p>", "key_press": -1, "type": "PRES_VIS", "word": "sandwich", "wordID": 1231, "conditions": [24, 800, "v", 12000], "trial": 6, "serialpos": 13, "trial_type": "single-stim", "trial_index": 226, "time_elapsed": 1558163, "internal_node_id": "0.0-163.0"}}, {"uniqueid": "MTK0348:3JZQSN0I3RHSOCBNQI7SKUUPD5JGFG", "current_trial": 227, "dateTime": 1510773945154, "trialdata": {"rt": -1, "stimulus": "<p id=\"stim\">PLAZA</p>", "key_press": -1, "type": "PRES_VIS", "word": "plaza", "wordID": 1087, "conditions": [24, 800, "v", 12000], "trial": 6, "serialpos": 14, "trial_type": "single-stim", "trial_index": 227, "time_elapsed": 1560014, "internal_node_id": "0.0-164.0"}}, {"uniqueid": "MTK0348:3JZQSN0I3RHSOCBNQI7SKUUPD5JGFG", "current_trial": 228, "dateTime": 1510773946971, "trialdata": {"rt": -1, "stimulus": "<p id=\"stim\">CRATER</p>", "key_press": -1, "type": "PRES_VIS", "word": "crater", "wordID": 399, "conditions": [24, 800, "v", 12000], "trial": 6, "serialpos": 15, "trial_type": "single-stim", "trial_index": 228, "time_elapsed": 1561833, "internal_node_id": "0.0-165.0"}}, {"uniqueid": "MTK0348:3JZQSN0I3RHSOCBNQI7SKUUPD5JGFG", "current_trial": 229, "dateTime": 1510773948886, "trialdata": {"rt": -1, "stimulus": "<p id=\"stim\">LAVA</p>", "key_press": -1, "type": "PRES_VIS", "word": "lava", "wordID": 803, "conditions": [24, 800, "v", 12000], "trial": 6, "serialpos": 16, "trial_type": "single-stim", "trial_index": 229, "time_elapsed": 1563747, "internal_node_id": "0.0-166.0"}}, {"uniqueid": "MTK0348:3JZQSN0I3RHSOCBNQI7SKUUPD5JGFG", "current_trial": 230, "dateTime": 1510773950696, "trialdata": {"rt": -1, "stimulus": "<p id=\"stim\">KNAPSACK</p>", "key_press": -1, "type": "PRES_VIS", "word": "knapsack", "wordID": 782, "conditions": [24, 800, "v", 12000], "trial": 6, "serialpos": 17, "trial_type": "single-stim", "trial_index": 230, "time_elapsed": 1565558, "internal_node_id": "0.0-167.0"}}, {"uniqueid": "MTK0348:3JZQSN0I3RHSOCBNQI7SKUUPD5JGFG", "current_trial": 231, "dateTime": 1510773952540, "trialdata": {"rt": -1, "stimulus": "<p id=\"stim\">EYELASH</p>", "key_press": -1, "type": "PRES_VIS", "word": "eyelash", "wordID": 545, "conditions": [24, 800, "v", 12000], "trial": 6, "serialpos": 18, "trial_type": "single-stim", "trial_index": 231, "time_elapsed": 1567401, "internal_node_id": "0.0-168.0"}}, {"uniqueid": "MTK0348:3JZQSN0I3RHSOCBNQI7SKUUPD5JGFG", "current_trial": 232, "dateTime": 1510773954260, "trialdata": {"rt": -1, "stimulus": "<p id=\"stim\">SHIRT</p>", "key_press": -1, "type": "PRES_VIS", "word": "shirt", "wordID": 1286, "conditions": [24, 800, "v", 12000], "trial": 6, "serialpos": 19, "trial_type": "single-stim", "trial_index": 232, "time_elapsed": 1569121, "internal_node_id": "0.0-169.0"}}, {"uniqueid": "MTK0348:3JZQSN0I3RHSOCBNQI7SKUUPD5JGFG", "current_trial": 233, "dateTime": 1510773956193, "trialdata": {"rt": -1, "stimulus": "<p id=\"stim\">SUITCASE</p>", "key_press": -1, "type": "PRES_VIS", "word": "suitcase", "wordID": 1402, "conditions": [24, 800, "v", 12000], "trial": 6, "serialpos": 20, "trial_type": "single-stim", "trial_index": 233, "time_elapsed": 1571054, "internal_node_id": "0.0-170.0"}}, {"uniqueid": "MTK0348:3JZQSN0I3RHSOCBNQI7SKUUPD5JGFG", "current_trial": 234, "dateTime": 1510773957956, "trialdata": {"rt": -1, "stimulus": "<p id=\"stim\">CASHIER</p>", "key_press": -1, "type": "PRES_VIS", "word": "cashier", "wordID": 253, "conditions": [24, 800, "v", 12000], "trial": 6, "serialpos": 21, "trial_type": "single-stim", "trial_index": 234, "time_elapsed": 1572817, "internal_node_id": "0.0-171.0"}}, {"uniqueid": "MTK0348:3JZQSN0I3RHSOCBNQI7SKUUPD5JGFG", "current_trial": 235, "dateTime": 1510773959844, "trialdata": {"rt": -1, "stimulus": "<p id=\"stim\">COUCH</p>", "key_press": -1, "type": "PRES_VIS", "word": "couch", "wordID": 385, "conditions": [24, 800, "v", 12000], "trial": 6, "serialpos": 22, "trial_type": "single-stim", "trial_index": 235, "time_elapsed": 1574706, "internal_node_id": "0.0-172.0"}}, {"uniqueid": "MTK0348:3JZQSN0I3RHSOCBNQI7SKUUPD5JGFG", "current_trial": 236, "dateTime": 1510773961738, "trialdata": {"rt": -1, "stimulus": "<p id=\"stim\">ITEM</p>", "key_press": -1, "type": "PRES_VIS", "word": "item", "wordID": 745, "conditions": [24, 800, "v", 12000], "trial": 6, "serialpos": 23, "trial_type": "single-stim", "trial_index": 236, "time_elapsed": 1576600, "internal_node_id": "0.0-173.0"}}, {"uniqueid": "MTK0348:3JZQSN0I3RHSOCBNQI7SKUUPD5JGFG", "current_trial": 237, "dateTime": 1510773964303, "trialdata": {"rt": -1, "stimulus": "", "key_press": -1, "type": "PRE_RECALL_DELAY", "trial_type": "single-stim", "trial_index": 237, "time_elapsed": 1579165, "internal_node_id": "0.0-174.0-0.0"}}, {"uniqueid": "MTK0348:3JZQSN0I3RHSOCBNQI7SKUUPD5JGFG", "current_trial": 238, "dateTime": 1510773964806, "trialdata": {"rt": -1000, "stimulus": "/static/audio/400Hz.wav", "key_press": -1, "type": "PRE_RECALL_ALERT", "trial_type": "single-audio", "trial_index": 238, "time_elapsed": 1579668, "internal_node_id": "0.0-175.0"}}, {"uniqueid": "MTK0348:3JZQSN0I3RHSOCBNQI7SKUUPD5JGFG", "current_trial": 239, "dateTime": 1510774024847, "trialdata": {"rt": [2184, 4131, 8581, 14771, 25002, 28155, 41247, 51046, 53044, 56275], "recwords": ["item", "cashier", "eyelash", "lava", "plaza", "suitcase", "flask", "carrot", "camel", "swimmer"], "type": "FREE_RECALL", "conditions": [24, 800, "v", 12000], "trial": 6, "trial_type": "free-recall", "trial_index": 239, "time_elapsed": 1639675, "internal_node_id": "0.0-176.0-0.0"}}, {"uniqueid": "MTK0348:3JZQSN0I3RHSOCBNQI7SKUUPD5JGFG", "current_trial": 240, "dateTime": 1510774027882, "trialdata": {"rt": 1033, "key_press": 68, "type": "INSTRUCTIONS", "trial_type": "text", "trial_index": 240, "time_elapsed": 1642743, "internal_node_id": "0.0-177.0"}}, {"uniqueid": "MTK0348:3JZQSN0I3RHSOCBNQI7SKUUPD5JGFG", "current_trial": 241, "dateTime": 1510774041887, "trialdata": {"rt": [1914, 5414, 8329, 11503], "responses": ["10", "13", "13", "16"], "num1": [6, 7, 5, 9, 7], "num2": [2, 4, 7, 2, 5], "num3": [2, 2, 1, 5, 5], "type": "DISTRACTOR", "conditions": [12, 800, "v", 12000], "trial": 7, "trial_type": "math-distractor", "trial_index": 241, "time_elapsed": 1656749, "internal_node_id": "0.0-178.0"}}, {"uniqueid": "MTK0348:3JZQSN0I3RHSOCBNQI7SKUUPD5JGFG", "current_trial": 242, "dateTime": 1510774044958, "trialdata": {"rt": -1, "stimulus": "<p id=\"stim\">10</p>", "key_press": -1, "trial_type": "single-stim", "trial_index": 242, "time_elapsed": 1659819, "internal_node_id": "0.0-179.0-0.0"}}, {"uniqueid": "MTK0348:3JZQSN0I3RHSOCBNQI7SKUUPD5JGFG", "current_trial": 243, "dateTime": 1510774045971, "trialdata": {"rt": -1, "stimulus": "<p id=\"stim\">9</p>", "key_press": -1, "trial_type": "single-stim", "trial_index": 243, "time_elapsed": 1660833, "internal_node_id": "0.0-179.0-1.0"}}, {"uniqueid": "MTK0348:3JZQSN0I3RHSOCBNQI7SKUUPD5JGFG", "current_trial": 244, "dateTime": 1510774046973, "trialdata": {"rt": -1, "stimulus": "<p id=\"stim\">8</p>", "key_press": -1, "trial_type": "single-stim", "trial_index": 244, "time_elapsed": 1661834, "internal_node_id": "0.0-179.0-2.0"}}, {"uniqueid": "MTK0348:3JZQSN0I3RHSOCBNQI7SKUUPD5JGFG", "current_trial": 245, "dateTime": 1510774047974, "trialdata": {"rt": -1, "stimulus": "<p id=\"stim\">7</p>", "key_press": -1, "trial_type": "single-stim", "trial_index": 245, "time_elapsed": 1662835, "internal_node_id": "0.0-179.0-3.0"}}, {"uniqueid": "MTK0348:3JZQSN0I3RHSOCBNQI7SKUUPD5JGFG", "current_trial": 246, "dateTime": 1510774048975, "trialdata": {"rt": -1, "stimulus": "<p id=\"stim\">6</p>", "key_press": -1, "trial_type": "single-stim", "trial_index": 246, "time_elapsed": 1663836, "internal_node_id": "0.0-179.0-4.0"}}, {"uniqueid": "MTK0348:3JZQSN0I3RHSOCBNQI7SKUUPD5JGFG", "current_trial": 247, "dateTime": 1510774049975, "trialdata": {"rt": -1, "stimulus": "<p id=\"stim\">5</p>", "key_press": -1, "trial_type": "single-stim", "trial_index": 247, "time_elapsed": 1664837, "internal_node_id": "0.0-179.0-5.0"}}, {"uniqueid": "MTK0348:3JZQSN0I3RHSOCBNQI7SKUUPD5JGFG", "current_trial": 248, "dateTime": 1510774050976, "trialdata": {"rt": -1, "stimulus": "<p id=\"stim\">4</p>", "key_press": -1, "trial_type": "single-stim", "trial_index": 248, "time_elapsed": 1665838, "internal_node_id": "0.0-179.0-6.0"}}, {"uniqueid": "MTK0348:3JZQSN0I3RHSOCBNQI7SKUUPD5JGFG", "current_trial": 249, "dateTime": 1510774052046, "trialdata": {"rt": -1, "stimulus": "<p id=\"stim\">3</p>", "key_press": -1, "trial_type": "single-stim", "trial_index": 249, "time_elapsed": 1666908, "internal_node_id": "0.0-179.0-7.0"}}, {"uniqueid": "MTK0348:3JZQSN0I3RHSOCBNQI7SKUUPD5JGFG", "current_trial": 250, "dateTime": 1510774053048, "trialdata": {"rt": -1, "stimulus": "<p id=\"stim\">2</p>", "key_press": -1, "trial_type": "single-stim", "trial_index": 250, "time_elapsed": 1667909, "internal_node_id": "0.0-179.0-8.0"}}, {"uniqueid": "MTK0348:3JZQSN0I3RHSOCBNQI7SKUUPD5JGFG", "current_trial": 251, "dateTime": 1510774054049, "trialdata": {"rt": -1, "stimulus": "<p id=\"stim\">1</p>", "key_press": -1, "trial_type": "single-stim", "trial_index": 251, "time_elapsed": 1668911, "internal_node_id": "0.0-179.0-9.0"}}, {"uniqueid": "MTK0348:3JZQSN0I3RHSOCBNQI7SKUUPD5JGFG", "current_trial": 252, "dateTime": 1510774055552, "trialdata": {"rt": -1, "stimulus": "<p id=\"stim\">+</p>", "key_press": -1, "type": "FIXATION", "trial_type": "single-stim", "trial_index": 252, "time_elapsed": 1670413, "internal_node_id": "0.0-180.0-0.0"}}, {"uniqueid": "MTK0348:3JZQSN0I3RHSOCBNQI7SKUUPD5JGFG", "current_trial": 253, "dateTime": 1510774056353, "trialdata": {"rt": -1, "stimulus": "<p id=\"stim\">PIMPLE</p>", "key_press": -1, "type": "PRES_VIS", "word": "pimple", "wordID": 1070, "conditions": [12, 800, "v", 12000], "trial": 7, "serialpos": 0, "trial_type": "single-stim", "trial_index": 253, "time_elapsed": 1671214, "internal_node_id": "0.0-181.0"}}, {"uniqueid": "MTK0348:3JZQSN0I3RHSOCBNQI7SKUUPD5JGFG", "current_trial": 254, "dateTime": 1510774058314, "trialdata": {"rt": -1, "stimulus": "<p id=\"stim\">KITCHEN</p>", "key_press": -1, "type": "PRES_VIS", "word": "kitchen", "wordID": 777, "conditions": [12, 800, "v", 12000], "trial": 7, "serialpos": 1, "trial_type": "single-stim", "trial_index": 254, "time_elapsed": 1673176, "internal_node_id": "0.0-182.0"}}, {"uniqueid": "MTK0348:3JZQSN0I3RHSOCBNQI7SKUUPD5JGFG", "current_trial": 255, "dateTime": 1510774060273, "trialdata": {"rt": -1, "stimulus": "<p id=\"stim\">CREATURE</p>", "key_press": -1, "type": "PRES_VIS", "word": "creature", "wordID": 402, "conditions": [12, 800, "v", 12000], "trial": 7, "serialpos": 2, "trial_type": "single-stim", "trial_index": 255, "time_elapsed": 1675134, "internal_node_id": "0.0-183.0"}}, {"uniqueid": "MTK0348:3JZQSN0I3RHSOCBNQI7SKUUPD5JGFG", "current_trial": 256, "dateTime": 1510774061999, "trialdata": {"rt": -1, "stimulus": "<p id=\"stim\">MONEY</p>", "key_press": -1, "type": "PRES_VIS", "word": "money", "wordID": 907, "conditions": [12, 800, "v", 12000], "trial": 7, "serialpos": 3, "trial_type": "single-stim", "trial_index": 256, "time_elapsed": 1676861, "internal_node_id": "0.0-184.0"}}, {"uniqueid": "MTK0348:3JZQSN0I3RHSOCBNQI7SKUUPD5JGFG", "current_trial": 257, "dateTime": 1510774063617, "trialdata": {"rt": -1, "stimulus": "<p id=\"stim\">STUDENT</p>", "key_press": -1, "type": "PRES_VIS", "word": "student", "wordID": 1394, "conditions": [12, 800, "v", 12000], "trial": 7, "serialpos": 4, "trial_type": "single-stim", "trial_index": 257, "time_elapsed": 1678478, "internal_node_id": "0.0-185.0"}}, {"uniqueid": "MTK0348:3JZQSN0I3RHSOCBNQI7SKUUPD5JGFG", "current_trial": 258, "dateTime": 1510774065585, "trialdata": {"rt": -1, "stimulus": "<p id=\"stim\">COUNTY</p>", "key_press": -1, "type": "PRES_VIS", "word": "county", "wordID": 388, "conditions": [12, 800, "v", 12000], "trial": 7, "serialpos": 5, "trial_type": "single-stim", "trial_index": 258, "time_elapsed": 1680446, "internal_node_id": "0.0-186.0"}}, {"uniqueid": "MTK0348:3JZQSN0I3RHSOCBNQI7SKUUPD5JGFG", "current_trial": 259, "dateTime": 1510774067248, "trialdata": {"rt": -1, "stimulus": "<p id=\"stim\">SHERIFF</p>", "key_press": -1, "type": "PRES_VIS", "word": "sheriff", "wordID": 1283, "conditions": [12, 800, "v", 12000], "trial": 7, "serialpos": 6, "trial_type": "single-stim", "trial_index": 259, "time_elapsed": 1682109, "internal_node_id": "0.0-187.0"}}, {"uniqueid": "MTK0348:3JZQSN0I3RHSOCBNQI7SKUUPD5JGFG", "current_trial": 260, "dateTime": 1510774069079, "trialdata": {"rt": -1, "stimulus": "<p id=\"stim\">PIZZA</p>", "key_press": -1, "type": "PRES_VIS", "word": "pizza", "wordID": 1078, "conditions": [12, 800, "v", 12000], "trial": 7, "serialpos": 7, "trial_type": "single-stim", "trial_index": 260, "time_elapsed": 1683940, "internal_node_id": "0.0-188.0"}}, {"uniqueid": "MTK0348:3JZQSN0I3RHSOCBNQI7SKUUPD5JGFG", "current_trial": 261, "dateTime": 1510774070721, "trialdata": {"rt": -1, "stimulus": "<p id=\"stim\">BUTCHER</p>", "key_press": -1, "type": "PRES_VIS", "word": "butcher", "wordID": 202, "conditions": [12, 800, "v", 12000], "trial": 7, "serialpos": 8, "trial_type": "single-stim", "trial_index": 261, "time_elapsed": 1685583, "internal_node_id": "0.0-189.0"}}, {"uniqueid": "MTK0348:3JZQSN0I3RHSOCBNQI7SKUUPD5JGFG", "current_trial": 262, "dateTime": 1510774072694, "trialdata": {"rt": -1, "stimulus": "<p id=\"stim\">NURSE</p>", "key_press": -1, "type": "PRES_VIS", "word": "nurse", "wordID": 962, "conditions": [12, 800, "v", 12000], "trial": 7, "serialpos": 9, "trial_type": "single-stim", "trial_index": 262, "time_elapsed": 1687555, "internal_node_id": "0.0-190.0"}}, {"uniqueid": "MTK0348:3JZQSN0I3RHSOCBNQI7SKUUPD5JGFG", "current_trial": 263, "dateTime": 1510774074618, "trialdata": {"rt": -1, "stimulus": "<p id=\"stim\">PIGMENT</p>", "key_press": -1, "type": "PRES_VIS", "word": "pigment", "wordID": 1065, "conditions": [12, 800, "v", 12000], "trial": 7, "serialpos": 10, "trial_type": "single-stim", "trial_index": 263, "time_elapsed": 1689479, "internal_node_id": "0.0-191.0"}}, {"uniqueid": "MTK0348:3JZQSN0I3RHSOCBNQI7SKUUPD5JGFG", "current_trial": 264, "dateTime": 1510774076343, "trialdata": {"rt": -1, "stimulus": "<p id=\"stim\">FRECKLE</p>", "key_press": -1, "type": "PRES_VIS", "word": "freckle", "wordID": 601, "conditions": [12, 800, "v", 12000], "trial": 7, "serialpos": 11, "trial_type": "single-stim", "trial_index": 264, "time_elapsed": 1691205, "internal_node_id": "0.0-192.0"}}, {"uniqueid": "MTK0348:3JZQSN0I3RHSOCBNQI7SKUUPD5JGFG", "current_trial": 265, "dateTime": 1510774078776, "trialdata": {"rt": -1, "stimulus": "", "key_press": -1, "type": "PRE_RECALL_DELAY", "trial_type": "single-stim", "trial_index": 265, "time_elapsed": 1693637, "internal_node_id": "0.0-193.0-0.0"}}, {"uniqueid": "MTK0348:3JZQSN0I3RHSOCBNQI7SKUUPD5JGFG", "current_trial": 266, "dateTime": 1510774079278, "trialdata": {"rt": -1000, "stimulus": "/static/audio/400Hz.wav", "key_press": -1, "type": "PRE_RECALL_ALERT", "trial_type": "single-audio", "trial_index": 266, "time_elapsed": 1694140, "internal_node_id": "0.0-194.0"}}, {"uniqueid": "MTK0348:3JZQSN0I3RHSOCBNQI7SKUUPD5JGFG", "current_trial": 267, "dateTime": 1510774139305, "trialdata": {"rt": [3066, 5121, 10254, 12037, 15815, 19099, 52305], "recwords": ["freckle", "pigment", "pizza", "nurse", "money", "student", "pimple"], "type": "FREE_RECALL", "conditions": [12, 800, "v", 12000], "trial": 7, "trial_type": "free-recall", "trial_index": 267, "time_elapsed": 1754146, "internal_node_id": "0.0-195.0-0.0"}}, {"uniqueid": "MTK0348:3JZQSN0I3RHSOCBNQI7SKUUPD5JGFG", "current_trial": 268, "dateTime": 1510774142440, "trialdata": {"rt": 1116, "key_press": 74, "type": "INSTRUCTIONS", "trial_type": "text", "trial_index": 268, "time_elapsed": 1757301, "internal_node_id": "0.0-196.0"}}, {"uniqueid": "MTK0348:3JZQSN0I3RHSOCBNQI7SKUUPD5JGFG", "current_trial": 269, "dateTime": 1510774156444, "trialdata": {"rt": [1991, 6485, 10094], "responses": ["17", "26", "14"], "num1": [4, 8, 5, 8], "num2": [4, 9, 7, 7], "num3": [9, 9, 2, 4], "type": "DISTRACTOR", "conditions": [12, 800, "a", 12000], "trial": 8, "trial_type": "math-distractor", "trial_index": 269, "time_elapsed": 1771306, "internal_node_id": "0.0-197.0"}}, {"uniqueid": "MTK0348:3JZQSN0I3RHSOCBNQI7SKUUPD5JGFG", "current_trial": 270, "dateTime": 1510774159490, "trialdata": {"rt": -1, "stimulus": "<p id=\"stim\">10</p>", "key_press": -1, "trial_type": "single-stim", "trial_index": 270, "time_elapsed": 1774351, "internal_node_id": "0.0-198.0-0.0"}}, {"uniqueid": "MTK0348:3JZQSN0I3RHSOCBNQI7SKUUPD5JGFG", "current_trial": 271, "dateTime": 1510774160491, "trialdata": {"rt": -1, "stimulus": "<p id=\"stim\">9</p>", "key_press": -1, "trial_type": "single-stim", "trial_index": 271, "time_elapsed": 1775353, "internal_node_id": "0.0-198.0-1.0"}}, {"uniqueid": "MTK0348:3JZQSN0I3RHSOCBNQI7SKUUPD5JGFG", "current_trial": 272, "dateTime": 1510774161493, "trialdata": {"rt": -1, "stimulus": "<p id=\"stim\">8</p>", "key_press": -1, "trial_type": "single-stim", "trial_index": 272, "time_elapsed": 1776354, "internal_node_id": "0.0-198.0-2.0"}}, {"uniqueid": "MTK0348:3JZQSN0I3RHSOCBNQI7SKUUPD5JGFG", "current_trial": 273, "dateTime": 1510774162493, "trialdata"