{"condition": 0, "counterbalance": 120, "assignmentId": "3Z9WI9EOZ0VH4UYCBZG7L7YVYFVKHT", "workerId": "MTK0097", "hitId": "3FSEU3P2NR7ET8RG7MWWB3QV3XIRRV", "currenttrial": 625, "bonus": 0, "data": [{"uniqueid": "MTK0097:3Z9WI9EOZ0VH4UYCBZG7L7YVYFVKHT", "current_trial": 0, "dateTime": 1509153867931, "trialdata": {"rt": 9483, "key_press": 32, "type": "INSTRUCTIONS", "trial_type": "text", "trial_index": 0, "time_elapsed": 9485, "internal_node_id": "0.0-0.0"}}, {"uniqueid": "MTK0097:3Z9WI9EOZ0VH4UYCBZG7L7YVYFVKHT", "current_trial": 1, "dateTime": 1509153901969, "trialdata": {"rt": 34038, "key_press": 38, "type": "INSTRUCTIONS", "trial_type": "text", "trial_index": 1, "time_elapsed": 43524, "internal_node_id": "0.0-1.0"}}, {"uniqueid": "MTK0097:3Z9WI9EOZ0VH4UYCBZG7L7YVYFVKHT", "current_trial": 2, "dateTime": 1509153907804, "trialdata": {"rt": [5828], "responses": ["ocean"], "type": "AUDIO_TEST", "trial_type": "audio-test", "trial_index": 2, "time_elapsed": 49359, "internal_node_id": "0.0-2.0"}}, {"uniqueid": "MTK0097:3Z9WI9EOZ0VH4UYCBZG7L7YVYFVKHT", "current_trial": 3, "dateTime": 1509153915403, "trialdata": {"rt": [7591], "responses": ["crystal"], "type": "AUDIO_TEST", "trial_type": "audio-test", "trial_index": 3, "time_elapsed": 56958, "internal_node_id": "0.0-3.0"}}, {"uniqueid": "MTK0097:3Z9WI9EOZ0VH4UYCBZG7L7YVYFVKHT", "current_trial": 4, "dateTime": 1509153919683, "trialdata": {"rt": [4272], "responses": ["spice"], "type": "AUDIO_TEST", "trial_type": "audio-test", "trial_index": 4, "time_elapsed": 61238, "internal_node_id": "0.0-4.0"}}, {"uniqueid": "MTK0097:3Z9WI9EOZ0VH4UYCBZG7L7YVYFVKHT", "current_trial": 5, "dateTime": 1509153925954, "trialdata": {"rt": 5519, "key_press": 32, "type": "INSTRUCTIONS", "trial_type": "text", "trial_index": 5, "time_elapsed": 67509, "internal_node_id": "0.0-5.0"}}, {"uniqueid": "MTK0097:3Z9WI9EOZ0VH4UYCBZG7L7YVYFVKHT", "current_trial": 6, "dateTime": 1509153966938, "trialdata": {"rt": 40982, "key_press": 32, "type": "INSTRUCTIONS", "trial_type": "text", "trial_index": 6, "time_elapsed": 108492, "internal_node_id": "0.0-6.0"}}, {"uniqueid": "MTK0097:3Z9WI9EOZ0VH4UYCBZG7L7YVYFVKHT", "current_trial": 7, "dateTime": 1509153997483, "trialdata": {"rt": 30544, "key_press": 32, "type": "INSTRUCTIONS", "trial_type": "text", "trial_index": 7, "time_elapsed": 139037, "internal_node_id": "0.0-7.0"}}, {"uniqueid": "MTK0097:3Z9WI9EOZ0VH4UYCBZG7L7YVYFVKHT", "current_trial": 8, "dateTime": 1509154013187, "trialdata": {"rt": 15703, "key_press": 32, "type": "INSTRUCTIONS", "trial_type": "text", "trial_index": 8, "time_elapsed": 154742, "internal_node_id": "0.0-8.0"}}, {"uniqueid": "MTK0097:3Z9WI9EOZ0VH4UYCBZG7L7YVYFVKHT", "current_trial": 9, "dateTime": 1509154032197, "trialdata": {"rt": [3309, 5877, 8957, 11877, 14061, 16941], "responses": ["10 ", "12", "14", "14", "14", "17"], "num1": [1, 2, 8, 5, 3, 5, 8], "num2": [1, 6, 1, 2, 3, 9, 6], "num3": [8, 4, 5, 7, 8, 3, 9], "type": "DISTRACTOR", "conditions": [18, 1200, "v", 18000], "trial": 0, "trial_type": "math-distractor", "trial_index": 9, "time_elapsed": 173752, "internal_node_id": "0.0-9.0"}}, {"uniqueid": "MTK0097:3Z9WI9EOZ0VH4UYCBZG7L7YVYFVKHT", "current_trial": 10, "dateTime": 1509154035202, "trialdata": {"rt": -1, "stimulus": "<p id=\"stim\">10</p>", "key_press": -1, "trial_type": "single-stim", "trial_index": 10, "time_elapsed": 176757, "internal_node_id": "0.0-10.0-0.0"}}, {"uniqueid": "MTK0097:3Z9WI9EOZ0VH4UYCBZG7L7YVYFVKHT", "current_trial": 11, "dateTime": 1509154036205, "trialdata": {"rt": -1, "stimulus": "<p id=\"stim\">9</p>", "key_press": -1, "trial_type": "single-stim", "trial_index": 11, "time_elapsed": 177760, "internal_node_id": "0.0-10.0-1.0"}}, {"uniqueid": "MTK0097:3Z9WI9EOZ0VH4UYCBZG7L7YVYFVKHT", "current_trial": 12, "dateTime": 1509154037207, "trialdata": {"rt": -1, "stimulus": "<p id=\"stim\">8</p>", "key_press": -1, "trial_type": "single-stim", "trial_index": 12, "time_elapsed": 178762, "internal_node_id": "0.0-10.0-2.0"}}, {"uniqueid": "MTK0097:3Z9WI9EOZ0VH4UYCBZG7L7YVYFVKHT", "current_trial": 13, "dateTime": 1509154038209, "trialdata": {"rt": -1, "stimulus": "<p id=\"stim\">7</p>", "key_press": -1, "trial_type": "single-stim", "trial_index": 13, "time_elapsed": 179764, "internal_node_id": "0.0-10.0-3.0"}}, {"uniqueid": "MTK0097:3Z9WI9EOZ0VH4UYCBZG7L7YVYFVKHT", "current_trial": 14, "dateTime": 1509154039211, "trialdata": {"rt": -1, "stimulus": "<p id=\"stim\">6</p>", "key_press": -1, "trial_type": "single-stim", "trial_index": 14, "time_elapsed": 180765, "internal_node_id": "0.0-10.0-4.0"}}, {"uniqueid": "MTK0097:3Z9WI9EOZ0VH4UYCBZG7L7YVYFVKHT", "current_trial": 15, "dateTime": 1509154040213, "trialdata": {"rt": -1, "stimulus": "<p id=\"stim\">5</p>", "key_press": -1, "trial_type": "single-stim", "trial_index": 15, "time_elapsed": 181768, "internal_node_id": "0.0-10.0-5.0"}}, {"uniqueid": "MTK0097:3Z9WI9EOZ0VH4UYCBZG7L7YVYFVKHT", "current_trial": 16, "dateTime": 1509154041215, "trialdata": {"rt": -1, "stimulus": "<p id=\"stim\">4</p>", "key_press": -1, "trial_type": "single-stim", "trial_index": 16, "time_elapsed": 182770, "internal_node_id": "0.0-10.0-6.0"}}, {"uniqueid": "MTK0097:3Z9WI9EOZ0VH4UYCBZG7L7YVYFVKHT", "current_trial": 17, "dateTime": 1509154042216, "trialdata": {"rt": -1, "stimulus": "<p id=\"stim\">3</p>", "key_press": -1, "trial_type": "single-stim", "trial_index": 17, "time_elapsed": 183771, "internal_node_id": "0.0-10.0-7.0"}}, {"uniqueid": "MTK0097:3Z9WI9EOZ0VH4UYCBZG7L7YVYFVKHT", "current_trial": 18, "dateTime": 1509154043217, "trialdata": {"rt": -1, "stimulus": "<p id=\"stim\">2</p>", "key_press": -1, "trial_type": "single-stim", "trial_index": 18, "time_elapsed": 184772, "internal_node_id": "0.0-10.0-8.0"}}, {"uniqueid": "MTK0097:3Z9WI9EOZ0VH4UYCBZG7L7YVYFVKHT", "current_trial": 19, "dateTime": 1509154044218, "trialdata": {"rt": -1, "stimulus": "<p id=\"stim\">1</p>", "key_press": -1, "trial_type": "single-stim", "trial_index": 19, "time_elapsed": 185773, "internal_node_id": "0.0-10.0-9.0"}}, {"uniqueid": "MTK0097:3Z9WI9EOZ0VH4UYCBZG7L7YVYFVKHT", "current_trial": 20, "dateTime": 1509154045721, "trialdata": {"rt": -1, "stimulus": "<p id=\"stim\">+</p>", "key_press": -1, "type": "FIXATION", "trial_type": "single-stim", "trial_index": 20, "time_elapsed": 187276, "internal_node_id": "0.0-11.0-0.0"}}, {"uniqueid": "MTK0097:3Z9WI9EOZ0VH4UYCBZG7L7YVYFVKHT", "current_trial": 21, "dateTime": 1509154046921, "trialdata": {"rt": -1, "stimulus": "<p id=\"stim\">STREAM</p>", "key_press": -1, "type": "PRES_VIS", "word": "stream", "wordID": 1391, "conditions": [18, 1200, "v", 18000], "trial": 0, "serialpos": 0, "trial_type": "single-stim", "trial_index": 21, "time_elapsed": 188476, "internal_node_id": "0.0-12.0"}}, {"uniqueid": "MTK0097:3Z9WI9EOZ0VH4UYCBZG7L7YVYFVKHT", "current_trial": 22, "dateTime": 1509154048999, "trialdata": {"rt": -1, "stimulus": "<p id=\"stim\">OZONE</p>", "key_press": -1, "type": "PRES_VIS", "word": "ozone", "wordID": 995, "conditions": [18, 1200, "v", 18000], "trial": 0, "serialpos": 1, "trial_type": "single-stim", "trial_index": 22, "time_elapsed": 190554, "internal_node_id": "0.0-13.0"}}, {"uniqueid": "MTK0097:3Z9WI9EOZ0VH4UYCBZG7L7YVYFVKHT", "current_trial": 23, "dateTime": 1509154051073, "trialdata": {"rt": -1, "stimulus": "<p id=\"stim\">GANGSTER</p>", "key_press": -1, "type": "PRES_VIS", "word": "gangster", "wordID": 619, "conditions": [18, 1200, "v", 18000], "trial": 0, "serialpos": 2, "trial_type": "single-stim", "trial_index": 23, "time_elapsed": 192628, "internal_node_id": "0.0-14.0"}}, {"uniqueid": "MTK0097:3Z9WI9EOZ0VH4UYCBZG7L7YVYFVKHT", "current_trial": 24, "dateTime": 1509154053244, "trialdata": {"rt": -1, "stimulus": "<p id=\"stim\">DOLPHIN</p>", "key_press": -1, "type": "PRES_VIS", "word": "dolphin", "wordID": 482, "conditions": [18, 1200, "v", 18000], "trial": 0, "serialpos": 3, "trial_type": "single-stim", "trial_index": 24, "time_elapsed": 194799, "internal_node_id": "0.0-15.0"}}, {"uniqueid": "MTK0097:3Z9WI9EOZ0VH4UYCBZG7L7YVYFVKHT", "current_trial": 25, "dateTime": 1509154055602, "trialdata": {"rt": -1, "stimulus": "<p id=\"stim\">APRON</p>", "key_press": -1, "type": "PRES_VIS", "word": "apron", "wordID": 34, "conditions": [18, 1200, "v", 18000], "trial": 0, "serialpos": 4, "trial_type": "single-stim", "trial_index": 25, "time_elapsed": 197157, "internal_node_id": "0.0-16.0"}}, {"uniqueid": "MTK0097:3Z9WI9EOZ0VH4UYCBZG7L7YVYFVKHT", "current_trial": 26, "dateTime": 1509154057903, "trialdata": {"rt": -1, "stimulus": "<p id=\"stim\">TART</p>", "key_press": -1, "type": "PRES_VIS", "word": "tart", "wordID": 1435, "conditions": [18, 1200, "v", 18000], "trial": 0, "serialpos": 5, "trial_type": "single-stim", "trial_index": 26, "time_elapsed": 199458, "internal_node_id": "0.0-17.0"}}, {"uniqueid": "MTK0097:3Z9WI9EOZ0VH4UYCBZG7L7YVYFVKHT", "current_trial": 27, "dateTime": 1509154060128, "trialdata": {"rt": -1, "stimulus": "<p id=\"stim\">COTTAGE</p>", "key_press": -1, "type": "PRES_VIS", "word": "cottage", "wordID": 383, "conditions": [18, 1200, "v", 18000], "trial": 0, "serialpos": 6, "trial_type": "single-stim", "trial_index": 27, "time_elapsed": 201682, "internal_node_id": "0.0-18.0"}}, {"uniqueid": "MTK0097:3Z9WI9EOZ0VH4UYCBZG7L7YVYFVKHT", "current_trial": 28, "dateTime": 1509154062242, "trialdata": {"rt": -1, "stimulus": "<p id=\"stim\">STUDENT</p>", "key_press": -1, "type": "PRES_VIS", "word": "student", "wordID": 1394, "conditions": [18, 1200, "v", 18000], "trial": 0, "serialpos": 7, "trial_type": "single-stim", "trial_index": 28, "time_elapsed": 203797, "internal_node_id": "0.0-19.0"}}, {"uniqueid": "MTK0097:3Z9WI9EOZ0VH4UYCBZG7L7YVYFVKHT", "current_trial": 29, "dateTime": 1509154064395, "trialdata": {"rt": -1, "stimulus": "<p id=\"stim\">BUG</p>", "key_press": -1, "type": "PRES_VIS", "word": "bug", "wordID": 186, "conditions": [18, 1200, "v", 18000], "trial": 0, "serialpos": 8, "trial_type": "single-stim", "trial_index": 29, "time_elapsed": 205950, "internal_node_id": "0.0-20.0"}}, {"uniqueid": "MTK0097:3Z9WI9EOZ0VH4UYCBZG7L7YVYFVKHT", "current_trial": 30, "dateTime": 1509154066574, "trialdata": {"rt": -1, "stimulus": "<p id=\"stim\">SWITCH</p>", "key_press": -1, "type": "PRES_VIS", "word": "switch", "wordID": 1421, "conditions": [18, 1200, "v", 18000], "trial": 0, "serialpos": 9, "trial_type": "single-stim", "trial_index": 30, "time_elapsed": 208129, "internal_node_id": "0.0-21.0"}}, {"uniqueid": "MTK0097:3Z9WI9EOZ0VH4UYCBZG7L7YVYFVKHT", "current_trial": 31, "dateTime": 1509154068638, "trialdata": {"rt": -1, "stimulus": "<p id=\"stim\">SIBLING</p>", "key_press": -1, "type": "PRES_VIS", "word": "sibling", "wordID": 1300, "conditions": [18, 1200, "v", 18000], "trial": 0, "serialpos": 10, "trial_type": "single-stim", "trial_index": 31, "time_elapsed": 210193, "internal_node_id": "0.0-22.0"}}, {"uniqueid": "MTK0097:3Z9WI9EOZ0VH4UYCBZG7L7YVYFVKHT", "current_trial": 32, "dateTime": 1509154070871, "trialdata": {"rt": -1, "stimulus": "<p id=\"stim\">DASHBOARD</p>", "key_press": -1, "type": "PRES_VIS", "word": "dashboard", "wordID": 440, "conditions": [18, 1200, "v", 18000], "trial": 0, "serialpos": 11, "trial_type": "single-stim", "trial_index": 32, "time_elapsed": 212426, "internal_node_id": "0.0-23.0"}}, {"uniqueid": "MTK0097:3Z9WI9EOZ0VH4UYCBZG7L7YVYFVKHT", "current_trial": 33, "dateTime": 1509154073003, "trialdata": {"rt": -1, "stimulus": "<p id=\"stim\">NEUTRON</p>", "key_press": -1, "type": "PRES_VIS", "word": "neutron", "wordID": 946, "conditions": [18, 1200, "v", 18000], "trial": 0, "serialpos": 12, "trial_type": "single-stim", "trial_index": 33, "time_elapsed": 214558, "internal_node_id": "0.0-24.0"}}, {"uniqueid": "MTK0097:3Z9WI9EOZ0VH4UYCBZG7L7YVYFVKHT", "current_trial": 34, "dateTime": 1509154075267, "trialdata": {"rt": -1, "stimulus": "<p id=\"stim\">SHELTER</p>", "key_press": -1, "type": "PRES_VIS", "word": "shelter", "wordID": 1281, "conditions": [18, 1200, "v", 18000], "trial": 0, "serialpos": 13, "trial_type": "single-stim", "trial_index": 34, "time_elapsed": 216822, "internal_node_id": "0.0-25.0"}}, {"uniqueid": "MTK0097:3Z9WI9EOZ0VH4UYCBZG7L7YVYFVKHT", "current_trial": 35, "dateTime": 1509154077320, "trialdata": {"rt": -1, "stimulus": "<p id=\"stim\">HOOD</p>", "key_press": -1, "type": "PRES_VIS", "word": "hood", "wordID": 713, "conditions": [18, 1200, "v", 18000], "trial": 0, "serialpos": 14, "trial_type": "single-stim", "trial_index": 35, "time_elapsed": 218875, "internal_node_id": "0.0-26.0"}}, {"uniqueid": "MTK0097:3Z9WI9EOZ0VH4UYCBZG7L7YVYFVKHT", "current_trial": 36, "dateTime": 1509154079417, "trialdata": {"rt": -1, "stimulus": "<p id=\"stim\">STOMACH</p>", "key_press": -1, "type": "PRES_VIS", "word": "stomach", "wordID": 1383, "conditions": [18, 1200, "v", 18000], "trial": 0, "serialpos": 15, "trial_type": "single-stim", "trial_index": 36, "time_elapsed": 220972, "internal_node_id": "0.0-27.0"}}, {"uniqueid": "MTK0097:3Z9WI9EOZ0VH4UYCBZG7L7YVYFVKHT", "current_trial": 37, "dateTime": 1509154081628, "trialdata": {"rt": -1, "stimulus": "<p id=\"stim\">COUNTRY</p>", "key_press": -1, "type": "PRES_VIS", "word": "country", "wordID": 387, "conditions": [18, 1200, "v", 18000], "trial": 0, "serialpos": 16, "trial_type": "single-stim", "trial_index": 37, "time_elapsed": 223183, "internal_node_id": "0.0-28.0"}}, {"uniqueid": "MTK0097:3Z9WI9EOZ0VH4UYCBZG7L7YVYFVKHT", "current_trial": 38, "dateTime": 1509154083709, "trialdata": {"rt": -1, "stimulus": "<p id=\"stim\">CRITIC</p>", "key_press": -1, "type": "PRES_VIS", "word": "critic", "wordID": 409, "conditions": [18, 1200, "v", 18000], "trial": 0, "serialpos": 17, "trial_type": "single-stim", "trial_index": 38, "time_elapsed": 225264, "internal_node_id": "0.0-29.0"}}, {"uniqueid": "MTK0097:3Z9WI9EOZ0VH4UYCBZG7L7YVYFVKHT", "current_trial": 39, "dateTime": 1509154086037, "trialdata": {"rt": -1, "stimulus": "", "key_press": -1, "type": "PRE_RECALL_DELAY", "trial_type": "single-stim", "trial_index": 39, "time_elapsed": 227591, "internal_node_id": "0.0-30.0-0.0"}}, {"uniqueid": "MTK0097:3Z9WI9EOZ0VH4UYCBZG7L7YVYFVKHT", "current_trial": 40, "dateTime": 1509154086543, "trialdata": {"rt": -1000, "stimulus": "/static/audio/400Hz.wav", "key_press": -1, "type": "PRE_RECALL_ALERT", "trial_type": "single-audio", "trial_index": 40, "time_elapsed": 228098, "internal_node_id": "0.0-31.0"}}, {"uniqueid": "MTK0097:3Z9WI9EOZ0VH4UYCBZG7L7YVYFVKHT", "current_trial": 41, "dateTime": 1509154146552, "trialdata": {"rt": [2464, 3448, 4376, 5530, 9522, 13074, 18522, 29450, 51801], "recwords": ["stream", "ozone", "layer", "sibling", "shelter", "switch", "dashboard", "stream", "dolphin"], "type": "FREE_RECALL", "conditions": [18, 1200, "v", 18000], "trial": 0, "trial_type": "free-recall", "trial_index": 41, "time_elapsed": 288102, "internal_node_id": "0.0-32.0-0.0"}}, {"uniqueid": "MTK0097:3Z9WI9EOZ0VH4UYCBZG7L7YVYFVKHT", "current_trial": 42, "dateTime": 1509154590135, "trialdata": {"rt": 441581, "key_press": 32, "type": "INSTRUCTIONS", "trial_type": "text", "trial_index": 42, "time_elapsed": 731690, "internal_node_id": "0.0-33.0"}}, {"uniqueid": "MTK0097:3Z9WI9EOZ0VH4UYCBZG7L7YVYFVKHT", "current_trial": 43, "dateTime": 1509154610140, "trialdata": {"rt": [2733, 4518, 6045, 7550, 9814, 11990, 14006, 15998], "responses": ["7", "14", "15", "15", "16", "23", "14", "24"], "num1": [2, 5, 5, 9, 9, 8, 3, 6, 8], "num2": [4, 8, 6, 3, 3, 5, 9, 9, 9], "num3": [1, 1, 4, 3, 4, 8, 2, 9, 9], "type": "DISTRACTOR", "conditions": [18, 1200, "a", 18000], "trial": 1, "trial_type": "math-distractor", "trial_index": 43, "time_elapsed": 751695, "internal_node_id": "0.0-34.0"}}, {"uniqueid": "MTK0097:3Z9WI9EOZ0VH4UYCBZG7L7YVYFVKHT", "current_trial": 44, "dateTime": 1509154613145, "trialdata": {"rt": -1, "stimulus": "<p id=\"stim\">10</p>", "key_press": -1, "trial_type": "single-stim", "trial_index": 44, "time_elapsed": 754699, "internal_node_id": "0.0-35.0-0.0"}}, {"uniqueid": "MTK0097:3Z9WI9EOZ0VH4UYCBZG7L7YVYFVKHT", "current_trial": 45, "dateTime": 1509154614146, "trialdata": {"rt": -1, "stimulus": "<p id=\"stim\">9</p>", "key_press": -1, "trial_type": "single-stim", "trial_index": 45, "time_elapsed": 755701, "internal_node_id": "0.0-35.0-1.0"}}, {"uniqueid": "MTK0097:3Z9WI9EOZ0VH4UYCBZG7L7YVYFVKHT", "current_trial": 46, "dateTime": 1509154615148, "trialdata": {"rt": -1, "stimulus": "<p id=\"stim\">8</p>", "key_press": -1, "trial_type": "single-stim", "trial_index": 46, "time_elapsed": 756703, "internal_node_id": "0.0-35.0-2.0"}}, {"uniqueid": "MTK0097:3Z9WI9EOZ0VH4UYCBZG7L7YVYFVKHT", "current_trial": 47, "dateTime": 1509154616149, "trialdata": {"rt": -1, "stimulus": "<p id=\"stim\">7</p>", "key_press": -1, "trial_type": "single-stim", "trial_index": 47, "time_elapsed": 757704, "internal_node_id": "0.0-35.0-3.0"}}, {"uniqueid": "MTK0097:3Z9WI9EOZ0VH4UYCBZG7L7YVYFVKHT", "current_trial": 48, "dateTime": 1509154617150, "trialdata": {"rt": -1, "stimulus": "<p id=\"stim\">6</p>", "key_press": -1, "trial_type": "single-stim", "trial_index": 48, "time_elapsed": 758705, "internal_node_id": "0.0-35.0-4.0"}}, {"uniqueid": "MTK0097:3Z9WI9EOZ0VH4UYCBZG7L7YVYFVKHT", "current_trial": 49, "dateTime": 1509154618152, "trialdata": {"rt": -1, "stimulus": "<p id=\"stim\">5</p>", "key_press": -1, "trial_type": "single-stim", "trial_index": 49, "time_elapsed": 759707, "internal_node_id": "0.0-35.0-5.0"}}, {"uniqueid": "MTK0097:3Z9WI9EOZ0VH4UYCBZG7L7YVYFVKHT", "current_trial": 50, "dateTime": 1509154619155, "trialdata": {"rt": -1, "stimulus": "<p id=\"stim\">4</p>", "key_press": -1, "trial_type": "single-stim", "trial_index": 50, "time_elapsed": 760709, "internal_node_id": "0.0-35.0-6.0"}}, {"uniqueid": "MTK0097:3Z9WI9EOZ0VH4UYCBZG7L7YVYFVKHT", "current_trial": 51, "dateTime": 1509154620156, "trialdata": {"rt": -1, "stimulus": "<p id=\"stim\">3</p>", "key_press": -1, "trial_type": "single-stim", "trial_index": 51, "time_elapsed": 761711, "internal_node_id": "0.0-35.0-7.0"}}, {"uniqueid": "MTK0097:3Z9WI9EOZ0VH4UYCBZG7L7YVYFVKHT", "current_trial": 52, "dateTime": 1509154621158, "trialdata": {"rt": -1, "stimulus": "<p id=\"stim\">2</p>", "key_press": -1, "trial_type": "single-stim", "trial_index": 52, "time_elapsed": 762712, "internal_node_id": "0.0-35.0-8.0"}}, {"uniqueid": "MTK0097:3Z9WI9EOZ0VH4UYCBZG7L7YVYFVKHT", "current_trial": 53, "dateTime": 1509154622159, "trialdata": {"rt": -1, "stimulus": "<p id=\"stim\">1</p>", "key_press": -1, "trial_type": "single-stim", "trial_index": 53, "time_elapsed": 763714, "internal_node_id": "0.0-35.0-9.0"}}, {"uniqueid": "MTK0097:3Z9WI9EOZ0VH4UYCBZG7L7YVYFVKHT", "current_trial": 54, "dateTime": 1509154623662, "trialdata": {"rt": -1, "stimulus": "<p id=\"stim\">+</p>", "key_press": -1, "type": "FIXATION", "trial_type": "single-stim", "trial_index": 54, "time_elapsed": 765216, "internal_node_id": "0.0-36.0-0.0"}}, {"uniqueid": "MTK0097:3Z9WI9EOZ0VH4UYCBZG7L7YVYFVKHT", "current_trial": 55, "dateTime": 1509154625684, "trialdata": {"rt": -1000, "stimulus": "/static/audio/wordpool/BROTHER.wav", "key_press": -1, "type": "PRES_AUD", "word": "brother", "wordID": 178, "conditions": [18, 1200, "a", 18000], "trial": 1, "serialpos": 0, "trial_type": "single-audio", "trial_index": 55, "time_elapsed": 767238, "internal_node_id": "0.0-37.0"}}, {"uniqueid": "MTK0097:3Z9WI9EOZ0VH4UYCBZG7L7YVYFVKHT", "current_trial": 56, "dateTime": 1509154627998, "trialdata": {"rt": -1000, "stimulus": "/static/audio/wordpool/DRINK.wav", "key_press": -1, "type": "PRES_AUD", "word": "drink", "wordID": 497, "conditions": [18, 1200, "a", 18000], "trial": 1, "serialpos": 1, "trial_type": "single-audio", "trial_index": 56, "time_elapsed": 769553, "internal_node_id": "0.0-38.0"}}, {"uniqueid": "MTK0097:3Z9WI9EOZ0VH4UYCBZG7L7YVYFVKHT", "current_trial": 57, "dateTime": 1509154630294, "trialdata": {"rt": -1000, "stimulus": "/static/audio/wordpool/DORM.wav", "key_press": -1, "type": "PRES_AUD", "word": "dorm", "wordID": 487, "conditions": [18, 1200, "a", 18000], "trial": 1, "serialpos": 2, "trial_type": "single-audio", "trial_index": 57, "time_elapsed": 771849, "internal_node_id": "0.0-39.0"}}, {"uniqueid": "MTK0097:3Z9WI9EOZ0VH4UYCBZG7L7YVYFVKHT", "current_trial": 58, "dateTime": 1509154632659, "trialdata": {"rt": -1000, "stimulus": "/static/audio/wordpool/QUAIL.wav", "key_press": -1, "type": "PRES_AUD", "word": "quail", "wordID": 1146, "conditions": [18, 1200, "a", 18000], "trial": 1, "serialpos": 3, "trial_type": "single-audio", "trial_index": 58, "time_elapsed": 774214, "internal_node_id": "0.0-40.0"}}, {"uniqueid": "MTK0097:3Z9WI9EOZ0VH4UYCBZG7L7YVYFVKHT", "current_trial": 59, "dateTime": 1509154634816, "trialdata": {"rt": 459.9999999999227, "stimulus": "/static/audio/wordpool/BURGLAR.wav", "key_press": 32, "type": "PRES_AUD", "word": "burglar", "wordID": 199, "conditions": [18, 1200, "a", 18000], "trial": 1, "serialpos": 4, "trial_type": "single-audio", "trial_index": 59, "time_elapsed": 776371, "internal_node_id": "0.0-41.0"}}, {"uniqueid": "MTK0097:3Z9WI9EOZ0VH4UYCBZG7L7YVYFVKHT", "current_trial": 60, "dateTime": 1509154637150, "trialdata": {"rt": -1000, "stimulus": "/static/audio/wordpool/RABBIT.wav", "key_press": -1, "type": "PRES_AUD", "word": "rabbit", "wordID": 1151, "conditions": [18, 1200, "a", 18000], "trial": 1, "serialpos": 5, "trial_type": "single-audio", "trial_index": 60, "time_elapsed": 778705, "internal_node_id": "0.0-42.0"}}, {"uniqueid": "MTK0097:3Z9WI9EOZ0VH4UYCBZG7L7YVYFVKHT", "current_trial": 61, "dateTime": 1509154639466, "trialdata": {"rt": -1000, "stimulus": "/static/audio/wordpool/UNCLE.wav", "key_press": -1, "type": "PRES_AUD", "word": "uncle", "wordID": 1535, "conditions": [18, 1200, "a", 18000], "trial": 1, "serialpos": 6, "trial_type": "single-audio", "trial_index": 61, "time_elapsed": 781021, "internal_node_id": "0.0-43.0"}}, {"uniqueid": "MTK0097:3Z9WI9EOZ0VH4UYCBZG7L7YVYFVKHT", "current_trial": 62, "dateTime": 1509154641482, "trialdata": {"rt": -1000, "stimulus": "/static/audio/wordpool/CURTAIN.wav", "key_press": -1, "type": "PRES_AUD", "word": "curtain", "wordID": 426, "conditions": [18, 1200, "a", 18000], "trial": 1, "serialpos": 7, "trial_type": "single-audio", "trial_index": 62, "time_elapsed": 783037, "internal_node_id": "0.0-44.0"}}, {"uniqueid": "MTK0097:3Z9WI9EOZ0VH4UYCBZG7L7YVYFVKHT", "current_trial": 63, "dateTime": 1509154643840, "trialdata": {"rt": -1000, "stimulus": "/static/audio/wordpool/WORLD.wav", "key_press": -1, "type": "PRES_AUD", "word": "world", "wordID": 1621, "conditions": [18, 1200, "a", 18000], "trial": 1, "serialpos": 8, "trial_type": "single-audio", "trial_index": 63, "time_elapsed": 785395, "internal_node_id": "0.0-45.0"}}, {"uniqueid": "MTK0097:3Z9WI9EOZ0VH4UYCBZG7L7YVYFVKHT", "current_trial": 64, "dateTime": 1509154646174, "trialdata": {"rt": -1000, "stimulus": "/static/audio/wordpool/CHAPEL.wav", "key_press": -1, "type": "PRES_AUD", "word": "chapel", "wordID": 279, "conditions": [18, 1200, "a", 18000], "trial": 1, "serialpos": 9, "trial_type": "single-audio", "trial_index": 64, "time_elapsed": 787729, "internal_node_id": "0.0-46.0"}}, {"uniqueid": "MTK0097:3Z9WI9EOZ0VH4UYCBZG7L7YVYFVKHT", "current_trial": 65, "dateTime": 1509154648347, "trialdata": {"rt": -1000, "stimulus": "/static/audio/wordpool/SCOTCH.wav", "key_press": -1, "type": "PRES_AUD", "word": "scotch", "wordID": 1250, "conditions": [18, 1200, "a", 18000], "trial": 1, "serialpos": 10, "trial_type": "single-audio", "trial_index": 65, "time_elapsed": 789902, "internal_node_id": "0.0-47.0"}}, {"uniqueid": "MTK0097:3Z9WI9EOZ0VH4UYCBZG7L7YVYFVKHT", "current_trial": 66, "dateTime": 1509154650725, "trialdata": {"rt": -1000, "stimulus": "/static/audio/wordpool/FLESH.wav", "key_press": -1, "type": "PRES_AUD", "word": "flesh", "wordID": 578, "conditions": [18, 1200, "a", 18000], "trial": 1, "serialpos": 11, "trial_type": "single-audio", "trial_index": 66, "time_elapsed": 792280, "internal_node_id": "0.0-48.0"}}, {"uniqueid": "MTK0097:3Z9WI9EOZ0VH4UYCBZG7L7YVYFVKHT", "current_trial": 67, "dateTime": 1509154652847, "trialdata": {"rt": -1000, "stimulus": "/static/audio/wordpool/AIRPLANE.wav", "key_press": -1, "type": "PRES_AUD", "word": "airplane", "wordID": 11, "conditions": [18, 1200, "a", 18000], "trial": 1, "serialpos": 12, "trial_type": "single-audio", "trial_index": 67, "time_elapsed": 794402, "internal_node_id": "0.0-49.0"}}, {"uniqueid": "MTK0097:3Z9WI9EOZ0VH4UYCBZG7L7YVYFVKHT", "current_trial": 68, "dateTime": 1509154654988, "trialdata": {"rt": -1000, "stimulus": "/static/audio/wordpool/CRICKET.wav", "key_press": -1, "type": "PRES_AUD", "word": "cricket", "wordID": 407, "conditions": [18, 1200, "a", 18000], "trial": 1, "serialpos": 13, "trial_type": "single-audio", "trial_index": 68, "time_elapsed": 796542, "internal_node_id": "0.0-50.0"}}, {"uniqueid": "MTK0097:3Z9WI9EOZ0VH4UYCBZG7L7YVYFVKHT", "current_trial": 69, "dateTime": 1509154657206, "trialdata": {"rt": 1769.333333333293, "stimulus": "/static/audio/wordpool/TURTLE.wav", "key_press": 13, "type": "PRES_AUD", "word": "turtle", "wordID": 1521, "conditions": [18, 1200, "a", 18000], "trial": 1, "serialpos": 14, "trial_type": "single-audio", "trial_index": 69, "time_elapsed": 798760, "internal_node_id": "0.0-51.0"}}, {"uniqueid": "MTK0097:3Z9WI9EOZ0VH4UYCBZG7L7YVYFVKHT", "current_trial": 70, "dateTime": 1509154659512, "trialdata": {"rt": 100.00000000002274, "stimulus": "/static/audio/wordpool/PATIENT.wav", "key_press": 188, "type": "PRES_AUD", "word": "patient", "wordID": 1023, "conditions": [18, 1200, "a", 18000], "trial": 1, "serialpos": 15, "trial_type": "single-audio", "trial_index": 70, "time_elapsed": 801067, "internal_node_id": "0.0-52.0"}}, {"uniqueid": "MTK0097:3Z9WI9EOZ0VH4UYCBZG7L7YVYFVKHT", "current_trial": 71, "dateTime": 1509154661643, "trialdata": {"rt": -1000, "stimulus": "/static/audio/wordpool/PARROT.wav", "key_press": -1, "type": "PRES_AUD", "word": "parrot", "wordID": 1014, "conditions": [18, 1200, "a", 18000], "trial": 1, "serialpos": 16, "trial_type": "single-audio", "trial_index": 71, "time_elapsed": 803198, "internal_node_id": "0.0-53.0"}}, {"uniqueid": "MTK0097:3Z9WI9EOZ0VH4UYCBZG7L7YVYFVKHT", "current_trial": 72, "dateTime": 1509154664019, "trialdata": {"rt": -1000, "stimulus": "/static/audio/wordpool/HIKER.wav", "key_press": -1, "type": "PRES_AUD", "word": "hiker", "wordID": 707, "conditions": [18, 1200, "a", 18000], "trial": 1, "serialpos": 17, "trial_type": "single-audio", "trial_index": 72, "time_elapsed": 805574, "internal_node_id": "0.0-54.0"}}, {"uniqueid": "MTK0097:3Z9WI9EOZ0VH4UYCBZG7L7YVYFVKHT", "current_trial": 73, "dateTime": 1509154665274, "trialdata": {"rt": -1, "stimulus": "", "key_press": -1, "type": "PRE_RECALL_DELAY", "trial_type": "single-stim", "trial_index": 73, "time_elapsed": 806829, "internal_node_id": "0.0-55.0-0.0"}}, {"uniqueid": "MTK0097:3Z9WI9EOZ0VH4UYCBZG7L7YVYFVKHT", "current_trial": 74, "dateTime": 1509154665776, "trialdata": {"rt": -1000, "stimulus": "/static/audio/400Hz.wav", "key_press": -1, "type": "PRE_RECALL_ALERT", "trial_type": "single-audio", "trial_index": 74, "time_elapsed": 807331, "internal_node_id": "0.0-56.0"}}, {"uniqueid": "MTK0097:3Z9WI9EOZ0VH4UYCBZG7L7YVYFVKHT", "current_trial": 75, "dateTime": 1509154725785, "trialdata": {"rt": [3965], "recwords": ["none"], "type": "FREE_RECALL", "conditions": [18, 1200, "a", 18000], "trial": 1, "trial_type": "free-recall", "trial_index": 75, "time_elapsed": 867335, "internal_node_id": "0.0-57.0-0.0"}}, {"uniqueid": "MTK0097:3Z9WI9EOZ0VH4UYCBZG7L7YVYFVKHT", "current_trial": 76, "dateTime": 1509154752049, "trialdata": {"rt": 24262, "key_press": 32, "type": "INSTRUCTIONS", "trial_type": "text", "trial_index": 76, "time_elapsed": 893604, "internal_node_id": "0.0-58.0"}}, {"uniqueid": "MTK0097:3Z9WI9EOZ0VH4UYCBZG7L7YVYFVKHT", "current_trial": 77, "dateTime": 1509154765054, "trialdata": {"rt": [3411, 5739, 8219, 10122, 11867], "responses": ["24", "21", "22", "19", "24"], "num1": [6, 4, 7, 8, 9, 7], "num2": [9, 9, 7, 7, 9, 1], "num3": [9, 8, 8, 4, 6, 1], "type": "DISTRACTOR", "conditions": [12, 800, "v", 12000], "trial": 2, "trial_type": "math-distractor", "trial_index": 77, "time_elapsed": 906609, "internal_node_id": "0.0-59.0"}}, {"uniqueid": "MTK0097:3Z9WI9EOZ0VH4UYCBZG7L7YVYFVKHT", "current_trial": 78, "dateTime": 1509154768058, "trialdata": {"rt": -1, "stimulus": "<p id=\"stim\">10</p>", "key_press": -1, "trial_type": "single-stim", "trial_index": 78, "time_elapsed": 909613, "internal_node_id": "0.0-60.0-0.0"}}, {"uniqueid": "MTK0097:3Z9WI9EOZ0VH4UYCBZG7L7YVYFVKHT", "current_trial": 79, "dateTime": 1509154769060, "trialdata": {"rt": -1, "stimulus": "<p id=\"stim\">9</p>", "key_press": -1, "trial_type": "single-stim", "trial_index": 79, "time_elapsed": 910615, "internal_node_id": "0.0-60.0-1.0"}}, {"uniqueid": "MTK0097:3Z9WI9EOZ0VH4UYCBZG7L7YVYFVKHT", "current_trial": 80, "dateTime": 1509154770061, "trialdata": {"rt": -1, "stimulus": "<p id=\"stim\">8</p>", "key_press": -1, "trial_type": "single-stim", "trial_index": 80, "time_elapsed": 911616, "internal_node_id": "0.0-60.0-2.0"}}, {"uniqueid": "MTK0097:3Z9WI9EOZ0VH4UYCBZG7L7YVYFVKHT", "current_trial": 81, "dateTime": 1509154771062, "trialdata": {"rt": -1, "stimulus": "<p id=\"stim\">7</p>", "key_press": -1, "trial_type": "single-stim", "trial_index": 81, "time_elapsed": 912617, "internal_node_id": "0.0-60.0-3.0"}}, {"uniqueid": "MTK0097:3Z9WI9EOZ0VH4UYCBZG7L7YVYFVKHT", "current_trial": 82, "dateTime": 1509154772064, "trialdata": {"rt": -1, "stimulus": "<p id=\"stim\">6</p>", "key_press": -1, "trial_type": "single-stim", "trial_index": 82, "time_elapsed": 913619, "internal_node_id": "0.0-60.0-4.0"}}, {"uniqueid": "MTK0097:3Z9WI9EOZ0VH4UYCBZG7L7YVYFVKHT", "current_trial": 83, "dateTime": 1509154773065, "trialdata": {"rt": -1, "stimulus": "<p id=\"stim\">5</p>", "key_press": -1, "trial_type": "single-stim", "trial_index": 83, "time_elapsed": 914620, "internal_node_id": "0.0-60.0-5.0"}}, {"uniqueid": "MTK0097:3Z9WI9EOZ0VH4UYCBZG7L7YVYFVKHT", "current_trial": 84, "dateTime": 1509154774066, "trialdata": {"rt": -1, "stimulus": "<p id=\"stim\">4</p>", "key_press": -1, "trial_type": "single-stim", "trial_index": 84, "time_elapsed": 915621, "internal_node_id": "0.0-60.0-6.0"}}, {"uniqueid": "MTK0097:3Z9WI9EOZ0VH4UYCBZG7L7YVYFVKHT", "current_trial": 85, "dateTime": 1509154775066, "trialdata": {"rt": -1, "stimulus": "<p id=\"stim\">3</p>", "key_press": -1, "trial_type": "single-stim", "trial_index": 85, "time_elapsed": 916621, "internal_node_id": "0.0-60.0-7.0"}}, {"uniqueid": "MTK0097:3Z9WI9EOZ0VH4UYCBZG7L7YVYFVKHT", "current_trial": 86, "dateTime": 1509154776067, "trialdata": {"rt": -1, "stimulus": "<p id=\"stim\">2</p>", "key_press": -1, "trial_type": "single-stim", "trial_index": 86, "time_elapsed": 917622, "internal_node_id": "0.0-60.0-8.0"}}, {"uniqueid": "MTK0097:3Z9WI9EOZ0VH4UYCBZG7L7YVYFVKHT", "current_trial": 87, "dateTime": 1509154777068, "trialdata": {"rt": -1, "stimulus": "<p id=\"stim\">1</p>", "key_press": -1, "trial_type": "single-stim", "trial_index": 87, "time_elapsed": 918623, "internal_node_id": "0.0-60.0-9.0"}}, {"uniqueid": "MTK0097:3Z9WI9EOZ0VH4UYCBZG7L7YVYFVKHT", "current_trial": 88, "dateTime": 1509154778569, "trialdata": {"rt": -1, "stimulus": "<p id=\"stim\">+</p>", "key_press": -1, "type": "FIXATION", "trial_type": "single-stim", "trial_index": 88, "time_elapsed": 920124, "internal_node_id": "0.0-61.0-0.0"}}, {"uniqueid": "MTK0097:3Z9WI9EOZ0VH4UYCBZG7L7YVYFVKHT", "current_trial": 89, "dateTime": 1509154779370, "trialdata": {"rt": -1, "stimulus": "<p id=\"stim\">BLENDER</p>", "key_press": -1, "type": "PRES_VIS", "word": "blender", "wordID": 135, "conditions": [12, 800, "v", 12000], "trial": 2, "serialpos": 0, "trial_type": "single-stim", "trial_index": 89, "time_elapsed": 920925, "internal_node_id": "0.0-62.0"}}, {"uniqueid": "MTK0097:3Z9WI9EOZ0VH4UYCBZG7L7YVYFVKHT", "current_trial": 90, "dateTime": 1509154781230, "trialdata": {"rt": -1, "stimulus": "<p id=\"stim\">DRESS</p>", "key_press": -1, "type": "PRES_VIS", "word": "dress", "wordID": 494, "conditions": [12, 800, "v", 12000], "trial": 2, "serialpos": 1, "trial_type": "single-stim", "trial_index": 90, "time_elapsed": 922785, "internal_node_id": "0.0-63.0"}}, {"uniqueid": "MTK0097:3Z9WI9EOZ0VH4UYCBZG7L7YVYFVKHT", "current_trial": 91, "dateTime": 1509154782854, "trialdata": {"rt": -1, "stimulus": "<p id=\"stim\">POPCORN</p>", "key_press": -1, "type": "PRES_VIS", "word": "popcorn", "wordID": 1103, "conditions": [12, 800, "v", 12000], "trial": 2, "serialpos": 2, "trial_type": "single-stim", "trial_index": 91, "time_elapsed": 924409, "internal_node_id": "0.0-64.0"}}, {"uniqueid": "MTK0097:3Z9WI9EOZ0VH4UYCBZG7L7YVYFVKHT", "current_trial": 92, "dateTime": 1509154784587, "trialdata": {"rt": -1, "stimulus": "<p id=\"stim\">SNACK</p>", "key_press": -1, "type": "PRES_VIS", "word": "snack", "wordID": 1330, "conditions": [12, 800, "v", 12000], "trial": 2, "serialpos": 3, "trial_type": "single-stim", "trial_index": 92, "time_elapsed": 926142, "internal_node_id": "0.0-65.0"}}, {"uniqueid": "MTK0097:3Z9WI9EOZ0VH4UYCBZG7L7YVYFVKHT", "current_trial": 93, "dateTime": 1509154786477, "trialdata": {"rt": -1, "stimulus": "<p id=\"stim\">BOYFRIEND</p>", "key_press": -1, "type": "PRES_VIS", "word": "boyfriend", "wordID": 161, "conditions": [12, 800, "v", 12000], "trial": 2, "serialpos": 4, "trial_type": "single-stim", "trial_index": 93, "time_elapsed": 928031, "internal_node_id": "0.0-66.0"}}, {"uniqueid": "MTK0097:3Z9WI9EOZ0VH4UYCBZG7L7YVYFVKHT", "current_trial": 94, "dateTime": 1509154788137, "trialdata": {"rt": -1, "stimulus": "<p id=\"stim\">PADDLE</p>", "key_press": -1, "type": "PRES_VIS", "word": "paddle", "wordID": 999, "conditions": [12, 800, "v", 12000], "trial": 2, "serialpos": 5, "trial_type": "single-stim", "trial_index": 94, "time_elapsed": 929692, "internal_node_id": "0.0-67.0"}}, {"uniqueid": "MTK0097:3Z9WI9EOZ0VH4UYCBZG7L7YVYFVKHT", "current_trial": 95, "dateTime": 1509154789915, "trialdata": {"rt": -1, "stimulus": "<p id=\"stim\">MUMMY</p>", "key_press": -1, "type": "PRES_VIS", "word": "mummy", "wordID": 931, "conditions": [12, 800, "v", 12000], "trial": 2, "serialpos": 6, "trial_type": "single-stim", "trial_index": 95, "time_elapsed": 931470, "internal_node_id": "0.0-68.0"}}, {"uniqueid": "MTK0097:3Z9WI9EOZ0VH4UYCBZG7L7YVYFVKHT", "current_trial": 96, "dateTime": 1509154791889, "trialdata": {"rt": -1, "stimulus": "<p id=\"stim\">COUSIN</p>", "key_press": -1, "type": "PRES_VIS", "word": "cousin", "wordID": 391, "conditions": [12, 800, "v", 12000], "trial": 2, "serialpos": 7, "trial_type": "single-stim", "trial_index": 96, "time_elapsed": 933444, "internal_node_id": "0.0-69.0"}}, {"uniqueid": "MTK0097:3Z9WI9EOZ0VH4UYCBZG7L7YVYFVKHT", "current_trial": 97, "dateTime": 1509154793790, "trialdata": {"rt": -1, "stimulus": "<p id=\"stim\">TRIBE</p>", "key_press": -1, "type": "PRES_VIS", "word": "tribe", "wordID": 1504, "conditions": [12, 800, "v", 12000], "trial": 2, "serialpos": 8, "trial_type": "single-stim", "trial_index": 97, "time_elapsed": 935345, "internal_node_id": "0.0-70.0"}}, {"uniqueid": "MTK0097:3Z9WI9EOZ0VH4UYCBZG7L7YVYFVKHT", "current_trial": 98, "dateTime": 1509154795787, "trialdata": {"rt": -1, "stimulus": "<p id=\"stim\">MUFFIN</p>", "key_press": -1, "type": "PRES_VIS", "word": "muffin", "wordID": 928, "conditions": [12, 800, "v", 12000], "trial": 2, "serialpos": 9, "trial_type": "single-stim", "trial_index": 98, "time_elapsed": 937342, "internal_node_id": "0.0-71.0"}}, {"uniqueid": "MTK0097:3Z9WI9EOZ0VH4UYCBZG7L7YVYFVKHT", "current_trial": 99, "dateTime": 1509154797628, "trialdata": {"rt": -1, "stimulus": "<p id=\"stim\">POLICE</p>", "key_press": -1, "type": "PRES_VIS", "word": "police", "wordID": 1097, "conditions": [12, 800, "v", 12000], "trial": 2, "serialpos": 10, "trial_type": "single-stim", "trial_index": 99, "time_elapsed": 939183, "internal_node_id": "0.0-72.0"}}, {"uniqueid": "MTK0097:3Z9WI9EOZ0VH4UYCBZG7L7YVYFVKHT", "current_trial": 100, "dateTime": 1509154799446, "trialdata": {"rt": -1, "stimulus": "<p id=\"stim\">SCARF</p>", "key_press": -1, "type": "PRES_VIS", "word": "scarf", "wordID": 1245, "conditions": [12, 800, "v", 12000], "trial": 2, "serialpos": 11, "trial_type": "single-stim", "trial_index": 100, "time_elapsed": 941001, "internal_node_id": "0.0-73.0"}}, {"uniqueid": "MTK0097:3Z9WI9EOZ0VH4UYCBZG7L7YVYFVKHT", "current_trial": 101, "dateTime": 1509154801586, "trialdata": {"rt": -1, "stimulus": "", "key_press": -1, "type": "PRE_RECALL_DELAY", "trial_type": "single-stim", "trial_index": 101, "time_elapsed": 943140, "internal_node_id": "0.0-74.0-0.0"}}, {"uniqueid": "MTK0097:3Z9WI9EOZ0VH4UYCBZG7L7YVYFVKHT", "current_trial": 102, "dateTime": 1509154802098, "trialdata": {"rt": -1000, "stimulus": "/static/audio/400Hz.wav", "key_press": -1, "type": "PRE_RECALL_ALERT", "trial_type": "single-audio", "trial_index": 102, "time_elapsed": 943652, "internal_node_id": "0.0-75.0"}}, {"uniqueid": "MTK0097:3Z9WI9EOZ0VH4UYCBZG7L7YVYFVKHT", "current_trial": 103, "dateTime": 1509154862106, "trialdata": {"rt": [4012, 5393, 7172, 9004, 10940, 13029, 15108, 16631, 20579, 22420, 25043, 26563], "recwords": ["blender", "dress", "popcorn", "snack", "boyfriend", "paddle", "mummy", "cousin", "tribe", "muffin", "police", "scarf"], "type": "FREE_RECALL", "conditions": [12, 800, "v", 12000], "trial": 2, "trial_type": "free-recall", "trial_index": 103, "time_elapsed": 1003656, "internal_node_id": "0.0-76.0-0.0"}}, {"uniqueid": "MTK0097:3Z9WI9EOZ0VH4UYCBZG7L7YVYFVKHT", "current_trial": 104, "dateTime": 1509155102569, "trialdata": {"rt": 238460, "key_press": 32, "type": "INSTRUCTIONS", "trial_type": "text", "trial_index": 104, "time_elapsed": 1244124, "internal_node_id": "0.0-77.0"}}, {"uniqueid": "MTK0097:3Z9WI9EOZ0VH4UYCBZG7L7YVYFVKHT", "current_trial": 105, "dateTime": 1509155116573, "trialdata": {"rt": [6243, 8531, 9998, 11475], "responses": ["12 ", "13", "16", "12"], "num1": [1, 2, 4, 6, 1], "num2": [2, 7, 6, 1, 3], "num3": [9, 4, 6, 5, 2], "type": "DISTRACTOR", "conditions": [12, 1600, "v", 12000], "trial": 3, "trial_type": "math-distractor", "trial_index": 105, "time_elapsed": 1258128, "internal_node_id": "0.0-78.0"}}, {"uniqueid": "MTK0097:3Z9WI9EOZ0VH4UYCBZG7L7YVYFVKHT", "current_trial": 106, "dateTime": 1509155119575, "trialdata": {"rt": -1, "stimulus": "<p id=\"stim\">10</p>", "key_press": -1, "trial_type": "single-stim", "trial_index": 106, "time_elapsed": 1261129, "internal_node_id": "0.0-79.0-0.0"}}, {"uniqueid": "MTK0097:3Z9WI9EOZ0VH4UYCBZG7L7YVYFVKHT", "current_trial": 107, "dateTime": 1509155120577, "trialdata": {"rt": -1, "stimulus": "<p id=\"stim\">9</p>", "key_press": -1, "trial_type": "single-stim", "trial_index": 107, "time_elapsed": 1262131, "internal_node_id": "0.0-79.0-1.0"}}, {"uniqueid": "MTK0097:3Z9WI9EOZ0VH4UYCBZG7L7YVYFVKHT", "current_trial": 108, "dateTime": 1509155121580, "trialdata": {"rt": -1, "stimulus": "<p id=\"stim\">8</p>", "key_press": -1, "trial_type": "single-stim", "trial_index": 108, "time_elapsed": 1263134, "internal_node_id": "0.0-79.0-2.0"}}, {"uniqueid": "MTK0097:3Z9WI9EOZ0VH4UYCBZG7L7YVYFVKHT", "current_trial": 109, "dateTime": 1509155122582, "trialdata": {"rt": -1, "stimulus": "<p id=\"stim\">7</p>", "key_press": -1, "trial_type": "single-stim", "trial_index": 109, "time_elapsed": 1264137, "internal_node_id": "0.0-79.0-3.0"}}, {"uniqueid": "MTK0097:3Z9WI9EOZ0VH4UYCBZG7L7YVYFVKHT", "current_trial": 110, "dateTime": 1509155123584, "trialdata": {"rt": -1, "stimulus": "<p id=\"stim\">6</p>", "key_press": -1, "trial_type": "single-stim", "trial_index": 110, "time_elapsed": 1265138, "internal_node_id": "0.0-79.0-4.0"}}, {"uniqueid": "MTK0097:3Z9WI9EOZ0VH4UYCBZG7L7YVYFVKHT", "current_trial": 111, "dateTime": 1509155124585, "trialdata": {"rt": -1, "stimulus": "<p id=\"stim\">5</p>", "key_press": -1, "trial_type": "single-stim", "trial_index": 111, "time_elapsed": 1266139, "internal_node_id": "0.0-79.0-5.0"}}, {"uniqueid": "MTK0097:3Z9WI9EOZ0VH4UYCBZG7L7YVYFVKHT", "current_trial": 112, "dateTime": 1509155125587, "trialdata": {"rt": -1, "stimulus": "<p id=\"stim\">4</p>", "key_press": -1, "trial_type": "single-stim", "trial_index": 112, "time_elapsed": 1267141, "internal_node_id": "0.0-79.0-6.0"}}, {"uniqueid": "MTK0097:3Z9WI9EOZ0VH4UYCBZG7L7YVYFVKHT", "current_trial": 113, "dateTime": 1509155126588, "trialdata": {"rt": -1, "stimulus": "<p id=\"stim\">3</p>", "key_press": -1, "trial_type": "single-stim", "trial_index": 113, "time_elapsed": 1268143, "internal_node_id": "0.0-79.0-7.0"}}, {"uniqueid": "MTK0097:3Z9WI9EOZ0VH4UYCBZG7L7YVYFVKHT", "current_trial": 114, "dateTime": 1509155127590, "trialdata": {"rt": -1, "stimulus": "<p id=\"stim\">2</p>", "key_press": -1, "trial_type": "single-stim", "trial_index": 114, "time_elapsed": 1269144, "internal_node_id": "0.0-79.0-8.0"}}, {"uniqueid": "MTK0097:3Z9WI9EOZ0VH4UYCBZG7L7YVYFVKHT", "current_trial": 115, "dateTime": 1509155128592, "trialdata": {"rt": -1, "stimulus": "<p id=\"stim\">1</p>", "key_press": -1, "trial_type": "single-stim", "trial_index": 115, "time_elapsed": 1270146, "internal_node_id": "0.0-79.0-9.0"}}, {"uniqueid": "MTK0097:3Z9WI9EOZ0VH4UYCBZG7L7YVYFVKHT", "current_trial": 116, "dateTime": 1509155130093, "trialdata": {"rt": -1, "stimulus": "<p id=\"stim\">+</p>", "key_press": -1, "type": "FIXATION", "trial_type": "single-stim", "trial_index": 116, "time_elapsed": 1271648, "internal_node_id": "0.0-80.0-0.0"}}, {"uniqueid": "MTK0097:3Z9WI9EOZ0VH4UYCBZG7L7YVYFVKHT", "current_trial": 117, "dateTime": 1509155131696, "trialdata": {"rt": -1, "stimulus": "<p id=\"stim\">STOVE</p>", "key_press": -1, "type": "PRES_VIS", "word": "stove", "wordID": 1387, "conditions": [12, 1600, "v", 12000], "trial": 3, "serialpos": 0, "trial_type": "single-stim", "trial_index": 117, "time_elapsed": 1273250, "internal_node_id": "0.0-81.0"}}, {"uniqueid": "MTK0097:3Z9WI9EOZ0VH4UYCBZG7L7YVYFVKHT", "current_trial": 118, "dateTime": 1509155134251, "trialdata": {"rt": -1, "stimulus": "<p id=\"stim\">SUPPER</p>", "key_press": -1, "type": "PRES_VIS", "word": "supper", "wordID": 1410, "conditions": [12, 1600, "v", 12000], "trial": 3, "serialpos": 1, "trial_type": "single-stim", "trial_index": 118, "time_elapsed": 1275806, "internal_node_id": "0.0-82.0"}}, {"uniqueid": "MTK0097:3Z9WI9EOZ0VH4UYCBZG7L7YVYFVKHT", "current_trial": 119, "dateTime": 1509155136656, "trialdata": {"rt": -1, "stimulus": "<p id=\"stim\">BANQUET</p>", "key_press": -1, "type": "PRES_VIS", "word": "banquet", "wordID": 85, "conditions": [12, 1600, "v", 12000], "trial": 3, "serialpos": 2, "trial_type": "single-stim", "trial_index": 119, "time_elapsed": 1278211, "internal_node_id": "0.0-83.0"}}, {"uniqueid": "MTK0097:3Z9WI9EOZ0VH4UYCBZG7L7YVYFVKHT", "current_trial": 120, "dateTime": 1509155139105, "trialdata": {"rt": -1, "stimulus": "<p id=\"stim\">LAKE</p>", "key_press": -1, "type": "PRES_VIS", "word": "lake", "wordID": 795, "conditions": [12, 1600, "v", 12000], "trial": 3, "serialpos": 3, "trial_type": "single-stim", "trial_index": 120, "time_elapsed": 1280660, "internal_node_id": "0.0-84.0"}}, {"uniqueid": "MTK0097:3Z9WI9EOZ0VH4UYCBZG7L7YVYFVKHT", "current_trial": 121, "dateTime": 1509155141528, "trialdata": {"rt": -1, "stimulus": "<p id=\"stim\">TOMBSTONE</p>", "key_press": -1, "type": "PRES_VIS", "word": "tombstone", "wordID": 1477, "conditions": [12, 1600, "v", 12000], "trial": 3, "serialpos": 4, "trial_type": "single-stim", "trial_index": 121, "time_elapsed": 1283083, "internal_node_id": "0.0-85.0"}}, {"uniqueid": "MTK0097:3Z9WI9EOZ0VH4UYCBZG7L7YVYFVKHT", "current_trial": 122, "dateTime": 1509155144304, "trialdata": {"rt": -1, "stimulus": "<p id=\"stim\">CIGAR</p>", "key_press": -1, "type": "PRES_VIS", "word": "cigar", "wordID": 307, "conditions": [12, 1600, "v", 12000], "trial": 3, "serialpos": 5, "trial_type": "single-stim", "trial_index": 122, "time_elapsed": 1285858, "internal_node_id": "0.0-86.0"}}, {"uniqueid": "MTK0097:3Z9WI9EOZ0VH4UYCBZG7L7YVYFVKHT", "current_trial": 123, "dateTime": 1509155146838, "trialdata": {"rt": -1, "stimulus": "<p id=\"stim\">COIN</p>", "key_press": -1, "type": "PRES_VIS", "word": "coin", "wordID": 342, "conditions": [12, 1600, "v", 12000], "trial": 3, "serialpos": 6, "trial_type": "single-stim", "trial_index": 123, "time_elapsed": 1288392, "internal_node_id": "0.0-87.0"}}, {"uniqueid": "MTK0097:3Z9WI9EOZ0VH4UYCBZG7L7YVYFVKHT", "current_trial": 124, "dateTime": 1509155149502, "trialdata": {"rt": -1, "stimulus": "<p id=\"stim\">KLEENEX</p>", "key_press": -1, "type": "PRES_VIS", "word": "kleenex", "wordID": 781, "conditions": [12, 1600, "v", 12000], "trial": 3, "serialpos": 7, "trial_type": "single-stim", "trial_index": 124, "time_elapsed": 1291057, "internal_node_id": "0.0-88.0"}}, {"uniqueid": "MTK0097:3Z9WI9EOZ0VH4UYCBZG7L7YVYFVKHT", "current_trial": 125, "dateTime": 1509155152198, "trialdata": {"rt": -1, "stimulus": "<p id=\"stim\">SUMMIT</p>", "key_press": -1, "type": "PRES_VIS", "word": "summit", "wordID": 1404, "conditions": [12, 1600, "v", 12000], "trial": 3, "serialpos": 8, "trial_type": "single-stim", "trial_index": 125, "time_elapsed": 1293752, "internal_node_id": "0.0-89.0"}}, {"uniqueid": "MTK0097:3Z9WI9EOZ0VH4UYCBZG7L7YVYFVKHT", "current_trial": 126, "dateTime": 1509155154983, "trialdata": {"rt": -1, "stimulus": "<p id=\"stim\">CHIPMUNK</p>", "key_press": -1, "type": "PRES_VIS", "word": "chipmunk", "wordID": 303, "conditions": [12, 1600, "v", 12000], "trial": 3, "serialpos": 9, "trial_type": "single-stim", "trial_index": 126, "time_elapsed": 1296538, "internal_node_id": "0.0-90.0"}}, {"uniqueid": "MTK0097:3Z9WI9EOZ0VH4UYCBZG7L7YVYFVKHT", "current_trial": 127, "dateTime": 1509155157679, "trialdata": {"rt": -1, "stimulus": "<p id=\"stim\">COOK</p>", "key_press": -1, "type": "PRES_VIS", "word": "cook", "wordID": 371, "conditions": [12, 1600, "v", 12000], "trial": 3, "serialpos": 10, "trial_type": "single-stim", "trial_index": 127, "time_elapsed": 1299234, "internal_node_id": "0.0-91.0"}}, {"uniqueid": "MTK0097:3Z9WI9EOZ0VH4UYCBZG7L7YVYFVKHT", "current_trial": 128, "dateTime": 1509155160122, "trialdata": {"rt": -1, "stimulus": "<p id=\"stim\">CANAL</p>", "key_press": -1, "type": "PRES_VIS", "word": "canal", "wordID": 225, "conditions": [12, 1600, "v", 12000], "trial": 3, "serialpos": 11, "trial_type": "single-stim", "trial_index": 128, "time_elapsed": 1301677, "internal_node_id": "0.0-92.0"}}, {"uniqueid": "MTK0097:3Z9WI9EOZ0VH4UYCBZG7L7YVYFVKHT", "current_trial": 129, "dateTime": 1509155162389, "trialdata": {"rt": -1, "stimulus": "", "key_press": -1, "type": "PRE_RECALL_DELAY", "trial_type": "single-stim", "trial_index": 129, "time_elapsed": 1303944, "internal_node_id": "0.0-93.0-0.0"}}, {"uniqueid": "MTK0097:3Z9WI9EOZ0VH4UYCBZG7L7YVYFVKHT", "current_trial": 130, "dateTime": 1509155162891, "trialdata": {"rt": -1000, "stimulus": "/static/audio/400Hz.wav", "key_press": -1, "type": "PRE_RECALL_ALERT", "trial_type": "single-audio", "trial_index": 130, "time_elapsed": 1304446, "internal_node_id": "0.0-94.0"}}, {"uniqueid": "MTK0097:3Z9WI9EOZ0VH4UYCBZG7L7YVYFVKHT", "current_trial": 131, "dateTime": 1509155222912, "trialdata": {"rt": [3299, 5395, 7634, 9250, 10595, 11546, 13386, 15058, 16458], "recwords": ["stove", "supper", "banquet", "lake", "cigar", "coin", "summint", "cook", "canal"], "type": "FREE_RECALL", "conditions": [12, 1600, "v", 12000], "trial": 3, "trial_type": "free-recall", "trial_index": 131, "time_elapsed": 1364464, "internal_node_id": "0.0-95.0-0.0"}}, {"uniqueid": "MTK0097:3Z9WI9EOZ0VH4UYCBZG7L7YVYFVKHT", "current_trial": 132, "dateTime": 1509155226895, "trialdata": {"rt": 1982, "key_press": 32, "type": "INSTRUCTIONS", "trial_type": "text", "trial_index": 132, "time_elapsed": 1368450, "internal_node_id": "0.0-96.0"}}, {"uniqueid": "MTK0097:3Z9WI9EOZ0VH4UYCBZG7L7YVYFVKHT", "current_trial": 133, "dateTime": 1509155240900, "trialdata": {"rt": [2117, 3245, 5493, 7700, 9046, 10445], "responses": ["13", "12", "13", "22", "11", "10"], "num1": [3, 1, 4, 4, 4, 1, 6], "num2": [3, 6, 2, 8, 1, 8, 8], "num3": [7, 5, 7, 8, 6, 1, 3], "type": "DISTRACTOR", "conditions": [24, 1600, "v", 12000], "trial": 4, "trial_type": "math-distractor", "trial_index": 133, "time_elapsed": 1382455, "internal_node_id": "0.0-97.0"}}, {"uniqueid": "MTK0097:3Z9WI9EOZ0VH4UYCBZG7L7YVYFVKHT", "current_trial": 134, "dateTime": 1509155243918, "trialdata": {"rt": -1, "stimulus": "<p id=\"stim\">10</p>", "key_press": -1, "trial_type": "single-stim", "trial_index": 134, "time_elapsed": 1385472, "internal_node_id": "0.0-98.0-0.0"}}, {"uniqueid": "MTK0097:3Z9WI9EOZ0VH4UYCBZG7L7YVYFVKHT", "current_trial": 135, "dateTime": 1509155244920, "trialdata": {"rt": -1, "stimulus": "<p id=\"stim\">9</p>", "key_press": -1, "trial_type": "single-stim", "trial_index": 135, "time_elapsed": 1386474, "internal_node_id": "0.0-98.0-1.0"}}, {"uniqueid": "MTK0097:3Z9WI9EOZ0VH4UYCBZG7L7YVYFVKHT", "current_trial": 136, "dateTime": 1509155245922, "trialdata": {"rt": -1, "stimulus": "<p id=\"stim\">8</p>", "key_press": -1, "trial_type": "single-stim", "trial_index": 136, "time_elapsed": 1387476, "internal_node_id": "0.0-98.0-2.0"}}, {"uniqueid": "MTK0097:3Z9WI9EOZ0VH4UYCBZG7L7YVYFVKHT", "current_trial": 137, "dateTime": 1509155246922, "trialdata": {"rt": -1, "stimulus": "<p id=\"stim\">7</p>", "key_press": -1, "trial_type": "single-stim", "trial_index": 137, "time_elapsed": 1388477, "internal_node_id": "0.0-98.0-3.0"}}, {"uniqueid": "MTK0097:3Z9WI9EOZ0VH4UYCBZG7L7YVYFVKHT", "current_trial": 138, "dateTime": 1509155247924, "trialdata": {"rt": -1, "stimulus": "<p id=\"stim\">6</p>", "key_press": -1, "trial_type": "single-stim", "trial_index": 138, "time_elapsed": 1389478, "internal_node_id": "0.0-98.0-4.0"}}, {"uniqueid": "MTK0097:3Z9WI9EOZ0VH4UYCBZG7L7YVYFVKHT", "current_trial": 139, "dateTime": 1509155248926, "trialdata": {"rt": -1, "stimulus": "<p id=\"stim\">5</p>", "key_press": -1, "trial_type": "single-stim", "trial_index": 139, "time_elapsed": 1390480, "internal_node_id": "0.0-98.0-5.0"}}, {"uniqueid": "MTK0097:3Z9WI9EOZ0VH4UYCBZG7L7YVYFVKHT", "current_trial": 140, "dateTime": 1509155249928, "trialdata": {"rt": -1, "stimulus": "<p id=\"stim\">4</p>", "key_press": -1, "trial_type": "single-stim", "trial_index": 140, "time_elapsed": 1391482, "internal_node_id": "0.0-98.0-6.0"}}, {"uniqueid": "MTK0097:3Z9WI9EOZ0VH4UYCBZG7L7YVYFVKHT", "current_trial": 141, "dateTime": 1509155250929, "trialdata": {"rt": -1, "stimulus": "<p id=\"stim\">3</p>", "key_press": -1, "trial_type": "single-stim", "trial_index": 141, "time_elapsed": 1392483, "internal_node_id": "0.0-98.0-7.0"}}, {"uniqueid": "MTK0097:3Z9WI9EOZ0VH4UYCBZG7L7YVYFVKHT", "current_trial": 142, "dateTime": 1509155251932, "trialdata": {"rt": -1, "stimulus": "<p id=\"stim\">2</p>", "key_press": -1, "trial_type": "single-stim", "trial_index": 142, "time_elapsed": 1393487, "internal_node_id": "0.0-98.0-8.0"}}, {"uniqueid": "MTK0097:3Z9WI9EOZ0VH4UYCBZG7L7YVYFVKHT", "current_trial": 143, "dateTime": 1509155252933, "trialdata": {"rt": -1, "stimulus": "<p id=\"stim\">1</p>", "key_press": -1, "trial_type": "single-stim", "trial_index": 143, "time_elapsed": 1394487, "internal_node_id": "0.0-98.0-9.0"}}, {"uniqueid": "MTK0097:3Z9WI9EOZ0VH4UYCBZG7L7YVYFVKHT", "current_trial": 144, "dateTime": 1509155254435, "trialdata": {"rt": -1, "stimulus": "<p id=\"stim\">+</p>", "key_press": -1, "type": "FIXATION", "trial_type": "single-stim", "trial_index": 144, "time_elapsed": 1395989, "internal_node_id": "0.0-99.0-0.0"}}, {"uniqueid": "MTK0097:3Z9WI9EOZ0VH4UYCBZG7L7YVYFVKHT", "current_trial": 145, "dateTime": 1509155256037, "trialdata": {"rt": -1, "stimulus": "<p id=\"stim\">HOOK</p>", "key_press": -1, "type": "PRES_VIS", "word": "hook", "wordID": 714, "conditions": [24, 1600, "v", 12000], "trial": 4, "serialpos": 0, "trial_type": "single-stim", "trial_index": 145, "time_elapsed": 1397592, "internal_node_id": "0.0-100.0"}}, {"uniqueid": "MTK0097:3Z9WI9EOZ0VH4UYCBZG7L7YVYFVKHT", "current_trial": 146, "dateTime": 1509155258628, "trialdata": {"rt": -1, "stimulus": "<p id=\"stim\">PICTURE</p>", "key_press": -1, "type": "PRES_VIS", "word": "picture", "wordID": 1060, "conditions": [24, 1600, "v", 12000], "trial": 4, "serialpos": 1, "trial_type": "single-stim", "trial_index": 146, "time_elapsed": 1400182, "internal_node_id": "0.0-101.0"}}, {"uniqueid": "MTK0097:3Z9WI9EOZ0VH4UYCBZG7L7YVYFVKHT", "current_trial": 147, "dateTime": 1509155261196, "trialdata": {"rt": -1, "stimulus": "<p id=\"stim\">ZIPPER</p>", "key_press": -1, "type": "PRES_VIS", "word": "zipper", "wordID": 1635, "conditions": [24, 1600, "v", 12000], "trial": 4, "serialpos": 2, "trial_type": "single-stim", "trial_index": 147, "time_elapsed": 1402748, "internal_node_id": "0.0-102.0"}}, {"uniqueid": "MTK0097:3Z9WI9EOZ0VH4UYCBZG7L7YVYFVKHT", "current_trial": 148, "dateTime": 1509155263700, "trialdata": {"rt": -1, "stimulus": "<p id=\"stim\">FLOWER</p>", "key_press": -1, "type": "PRES_VIS", "word": "flower", "wordID": 583, "conditions": [24, 1600, "v", 12000], "trial": 4, "serialpos": 3, "trial_type": "single-stim", "trial_index": 148, "time_elapsed": 1405255, "internal_node_id": "0.0-103.0"}}, {"uniqueid": "MTK0097:3Z9WI9EOZ0VH4UYCBZG7L7YVYFVKHT", "current_trial": 149, "dateTime": 1509155266350, "trialdata": {"rt": -1, "stimulus": "<p id=\"stim\">HARP</p>", "key_press": -1, "type": "PRES_VIS", "word": "harp", "wordID": 688, "conditions": [24, 1600, "v", 12000], "trial": 4, "serialpos": 4, "trial_type": "single-stim", "trial_index": 149, "time_elapsed": 1407905, "internal_node_id": "0.0-104.0"}}, {"uniqueid": "MTK0097:3Z9WI9EOZ0VH4UYCBZG7L7YVYFVKHT", "current_trial": 150, "dateTime": 1509155268889, "trialdata": {"rt": -1, "stimulus": "<p id=\"stim\">GUITAR</p>", "key_press": -1, "type": "PRES_VIS", "word": "guitar", "wordID": 669, "conditions": [24, 1600, "v", 12000], "trial": 4, "serialpos": 5, "trial_type": "single-stim", "trial_index": 150, "time_elapsed": 1410443, "internal_node_id": "0.0-105.0"}}, {"uniqueid": "MTK0097:3Z9WI9EOZ0VH4UYCBZG7L7YVYFVKHT", "current_trial": 151, "dateTime": 1509155271663, "trialdata": {"rt": -1, "stimulus": "<p id=\"stim\">DAISY</p>", "key_press": -1, "type": "PRES_VIS", "word": "daisy", "wordID": 434, "conditions": [24, 1600, "v", 12000], "trial": 4, "serialpos": 6, "trial_type": "single-stim", "trial_index": 151, "time_elapsed": 1413218, "internal_node_id": "0.0-106.0"}}, {"uniqueid": "MTK0097:3Z9WI9EOZ0VH4UYCBZG7L7YVYFVKHT", "current_trial": 152, "dateTime": 1509155274404, "trialdata": {"rt": -1, "stimulus": "<p id=\"stim\">CLIMBER</p>", "key_press": -1, "type": "PRES_VIS", "word": "climber", "wordID": 322, "conditions": [24, 1600, "v", 12000], "trial": 4, "serialpos": 7, "trial_type": "single-stim", "trial_index": 152, "time_elapsed": 1415959, "internal_node_id": "0.0-107.0"}}, {"uniqueid": "MTK0097:3Z9WI9EOZ0VH4UYCBZG7L7YVYFVKHT", "current_trial": 153, "dateTime": 1509155276986, "trialdata": {"rt": -1, "stimulus": "<p id=\"stim\">FREEZER</p>", "key_press": -1, "type": "PRES_VIS", "word": "freezer", "wordID": 603, "conditions": [24, 1600, "v", 12000], "trial": 4, "serialpos": 8, "trial_type": "single-stim", "trial_index": 153, "time_elapsed": 1418541, "internal_node_id": "0.0-108.0"}}, {"uniqueid": "MTK0097:3Z9WI9EOZ0VH4UYCBZG7L7YVYFVKHT", "current_trial": 154, "dateTime": 1509155279501, "trialdata": {"rt": -1, "stimulus": "<p id=\"stim\">TROUT</p>", "key_press": -1, "type": "PRES_VIS", "word": "trout", "wordID": 1510, "conditions": [24, 1600, "v", 12000], "trial": 4, "serialpos": 9, "trial_type": "single-stim", "trial_index": 154, "time_elapsed": 1421056, "internal_node_id": "0.0-109.0"}}, {"uniqueid": "MTK0097:3Z9WI9EOZ0VH4UYCBZG7L7YVYFVKHT", "current_trial": 155, "dateTime": 1509155282162, "trialdata": {"rt": -1, "stimulus": "<p id=\"stim\">FIREMAN</p>", "key_press": -1, "type": "PRES_VIS", "word": "fireman", "wordID": 568, "conditions": [24, 1600, "v", 12000], "trial": 4, "serialpos": 10, "trial_type": "single-stim", "trial_index": 155, "time_elapsed": 1423717, "internal_node_id": "0.0-110.0"}}, {"uniqueid": "MTK0097:3Z9WI9EOZ0VH4UYCBZG7L7YVYFVKHT", "current_trial": 156, "dateTime": 1509155284817, "trialdata": {"rt": -1, "stimulus": "<p id=\"stim\">TURKEY</p>", "key_press": -1, "type": "PRES_VIS", "word": "turkey", "wordID": 1519, "conditions": [24, 1600, "v", 12000], "trial": 4, "serialpos": 11, "trial_type": "single-stim", "trial_index": 156, "time_elapsed": 1426371, "internal_node_id": "0.0-111.0"}}, {"uniqueid": "MTK0097:3Z9WI9EOZ0VH4UYCBZG7L7YVYFVKHT", "current_trial": 157, "dateTime": 1509155287584, "trialdata": {"rt": -1, "stimulus": "<p id=\"stim\">MOTEL</p>", "key_press": -1, "type": "PRES_VIS", "word": "motel", "wordID": 918, "conditions": [24, 1600, "v", 12000], "trial": 4, "serialpos": 12, "trial_type": "single-stim", "trial_index": 157, "time_elapsed": 1429139, "internal_node_id": "0.0-112.0"}}, {"uniqueid": "MTK0097:3Z9WI9EOZ0VH4UYCBZG7L7YVYFVKHT", "current_trial": 158, "dateTime": 1509155290065, "trialdata": {"rt": -1, "stimulus": "<p id=\"stim\">CHAUFFEUR</p>", "key_press": -1, "type": "PRES_VIS", "word": "chauffeur", "wordID": 282, "conditions": [24, 1600, "v", 12000], "trial": 4, "serialpos": 13, "trial_type": "single-stim", "trial_index": 158, "time_elapsed": 1431619, "internal_node_id": "0.0-113.0"}}, {"uniqueid": "MTK0097:3Z9WI9EOZ0VH4UYCBZG7L7YVYFVKHT", "current_trial": 159, "dateTime": 1509155292687, "trialdata": {"rt": -1, "stimulus": "<p id=\"stim\">FRUIT</p>", "key_press": -1, "type": "PRES_VIS", "word": "fruit", "wordID": 609, "conditions": [24, 1600, "v", 12000], "trial": 4, "serialpos": 14, "trial_type": "single-stim", "trial_index": 159, "time_elapsed": 1434242, "internal_node_id": "0.0-114.0"}}, {"uniqueid": "MTK0097:3Z9WI9EOZ0VH4UYCBZG7L7YVYFVKHT", "current_trial": 160, "dateTime": 1509155295273, "trialdata": {"rt": -1, "stimulus": "<p id=\"stim\">ICEBERG</p>", "key_press": -1, "type": "PRES_VIS", "word": "iceberg", "wordID": 730, "conditions": [24, 1600, "v", 12000], "trial": 4, "serialpos": 15, "trial_type": "single-stim", "trial_index": 160, "time_elapsed": 1436828, "internal_node_id": "0.0-115.0"}}, {"uniqueid": "MTK0097:3Z9WI9EOZ0VH4UYCBZG7L7YVYFVKHT", "current_trial": 161, "dateTime": 1509155297732, "trialdata": {"rt": -1, "stimulus": "<p id=\"stim\">TERMITE</p>", "key_press": -1, "type": "PRES_VIS", "word": "termite", "wordID": 1450, "conditions": [24, 1600, "v", 12000], "trial": 4, "serialpos": 16, "trial_type": "single-stim", "trial_index": 161, "time_elapsed": 1439287, "internal_node_id": "0.0-116.0"}}, {"uniqueid": "MTK0097:3Z9WI9EOZ0VH4UYCBZG7L7YVYFVKHT", "current_trial": 162, "dateTime": 1509155300370, "trialdata": {"rt": -1, "stimulus": "<p id=\"stim\">FUNGUS</p>", "key_press": -1, "type": "PRES_VIS", "word": "fungus", "wordID": 613, "conditions": [24, 1600, "v", 12000], "trial": 4, "serialpos": 17, "trial_type": "single-stim", "trial_index": 162, "time_elapsed": 1441924, "internal_node_id": "0.0-117.0"}}, {"uniqueid": "MTK0097:3Z9WI9EOZ0VH4UYCBZG7L7YVYFVKHT", "current_trial": 163, "dateTime": 1509155303171, "trialdata": {"rt": -1, "stimulus": "<p id=\"stim\">DINER</p>", "key_press": -1, "type": "PRES_VIS", "word": "diner", "wordID": 466, "conditions": [24, 1600, "v", 12000], "trial": 4, "serialpos": 18, "trial_type": "single-stim", "trial_index": 163, "time_elapsed": 1444726, "internal_node_id": "0.0-118.0"}}, {"uniqueid": "MTK0097:3Z9WI9EOZ0VH4UYCBZG7L7YVYFVKHT", "current_trial": 164, "dateTime": 1509155305879, "trialdata": {"rt": -1, "stimulus": "<p id=\"stim\">PISTOL</p>", "key_press": -1, "type": "PRES_VIS", "word": "pistol", "wordID": 1074, "conditions": [24, 1600, "v", 12000], "trial": 4, "serialpos": 19, "trial_type": "single-stim", "trial_index": 164, "time_elapsed": 1447434, "internal_node_id": "0.0-119.0"}}, {"uniqueid": "MTK0097:3Z9WI9EOZ0VH4UYCBZG7L7YVYFVKHT", "current_trial": 165, "dateTime": 1509155308680, "trialdata": {"rt": -1, "stimulus": "<p id=\"stim\">PARENT</p>", "key_press": -1, "type": "PRES_VIS", "word": "parent", "wordID": 1012, "conditions": [24, 1600, "v", 12000], "trial": 4, "serialpos": 20, "trial_type": "single-stim", "trial_index": 165, "time_elapsed": 1450235, "internal_node_id": "0.0-120.0"}}, {"uniqueid": "MTK0097:3Z9WI9EOZ0VH4UYCBZG7L7YVYFVKHT", "current_trial": 166, "dateTime": 1509155311295, "trialdata": {"rt": -1, "stimulus": "<p id=\"stim\">CHURCH</p>", "key_press": -1, "type": "PRES_VIS", "word": "church", "wordID": 306, "conditions": [24, 1600, "v", 12000], "trial": 4, "serialpos": 21, "trial_type": "single-stim", "trial_index": 166, "time_elapsed": 1452850, "internal_node_id": "0.0-121.0"}}, {"uniqueid": "MTK0097:3Z9WI9EOZ0VH4UYCBZG7L7YVYFVKHT", "current_trial": 167, "dateTime": 1509155313999, "trialdata": {"rt": -1, "stimulus": "<p id=\"stim\">BRACES</p>", "key_press": -1, "type": "PRES_VIS", "word": "braces", "wordID": 163, "conditions": [24, 1600, "v", 12000], "trial": 4, "serialpos": 22, "trial_type": "single-stim", "trial_index": 167, "time_elapsed": 1455554, "internal_node_id": "0.0-122.0"}}, {"uniqueid": "MTK0097:3Z9WI9EOZ0VH4UYCBZG7L7YVYFVKHT", "current_trial": 168, "dateTime": 1509155316702, "trialdata": {"rt": -1, "stimulus": "<p id=\"stim\">LETTUCE</p>", "key_press": -1, "type": "PRES_VIS", "word": "lettuce", "wordID": 813, "conditions": [24, 1600, "v", 12000], "trial": 4, "serialpos": 23, "trial_type": "single-stim", "trial_index": 168, "time_elapsed": 1458257, "internal_node_id": "0.0-123.0"}}, {"uniqueid": "MTK0097:3Z9WI9EOZ0VH4UYCBZG7L7YVYFVKHT", "current_trial": 169, "dateTime": 1509155319058, "trialdata": {"rt": -1, "stimulus": "", "key_press": -1, "type": "PRE_RECALL_DELAY", "trial_type": "single-stim", "trial_index": 169, "time_elapsed": 1460613, "internal_node_id": "0.0-124.0-0.0"}}, {"uniqueid": "MTK0097:3Z9WI9EOZ0VH4UYCBZG7L7YVYFVKHT", "current_trial": 170, "dateTime": 1509155319559, "trialdata": {"rt": -1000, "stimulus": "/static/audio/400Hz.wav", "key_press": -1, "type": "PRE_RECALL_ALERT", "trial_type": "single-audio", "trial_index": 170, "time_elapsed": 1461114, "internal_node_id": "0.0-125.0"}}, {"uniqueid": "MTK0097:3Z9WI9EOZ0VH4UYCBZG7L7YVYFVKHT", "current_trial": 171, "dateTime": 1509155379563, "trialdata": {"rt": [2854, 4078, 5566, 6790, 8343, 9366, 11455, 14431, 17959, 20592, 21800], "recwords": ["hook", "picture", "zipper", "flower", "harp", "guitar", "daislt", "trout", "diner", "pistol", "fruit"], "type": "FREE_RECALL", "conditions": [24, 1600, "v", 12000], "trial": 4, "trial_type": "free-recall", "trial_index": 171, "time_elapsed": 1521115, "internal_node_id": "0.0-126.0-0.0"}}, {"uniqueid": "MTK0097:3Z9WI9EOZ0VH4UYCBZG7L7YVYFVKHT", "current_trial": 172, "dateTime": 1509155485799, "trialdata": {"rt": 104233, "key_press": 13, "type": "INSTRUCTIONS", "trial_type": "text", "trial_index": 172, "time_elapsed": 1627354, "internal_node_id": "0.0-127.0"}}, {"uniqueid": "MTK0097:3Z9WI9EOZ0VH4UYCBZG7L7YVYFVKHT", "current_trial": 173, "dateTime": 1509155499803, "trialdata": {"rt": [2184, 3730, 5299, 6971, 9619, 11323], "responses": ["7", "13", "16", "15", "13", "15"], "num1": [1, 6, 7, 4, 6, 7, 3], "num2": [2, 4, 8, 9, 3, 4, 6], "num3": [4, 3, 1, 2, 4, 4, 4], "type": "DISTRACTOR", "conditions": [24, 800, "v", 12000], "trial": 5, "trial_type": "math-distractor", "trial_index": 173, "time_elapsed": 1641358, "internal_node_id": "0.0-128.0"}}, {"uniqueid": "MTK0097:3Z9WI9EOZ0VH4UYCBZG7L7YVYFVKHT", "current_trial": 174, "dateTime": 1509155502805, "trialdata": {"rt": -1, "stimulus": "<p id=\"stim\">10</p>", "key_press": -1, "trial_type": "single-stim", "trial_index": 174, "time_elapsed": 1644360, "internal_node_id": "0.0-129.0-0.0"}}, {"uniqueid": "MTK0097:3Z9WI9EOZ0VH4UYCBZG7L7YVYFVKHT", "current_trial": 175, "dateTime": 1509155503806, "trialdata": {"rt": -1, "stimulus": "<p id=\"stim\">9</p>", "key_press": -1, "trial_type": "single-stim", "trial_index": 175, "time_elapsed": 1645361, "internal_node_id": "0.0-129.0-1.0"}}, {"uniqueid": "MTK0097:3Z9WI9EOZ0VH4UYCBZG7L7YVYFVKHT", "current_trial": 176, "dateTime": 1509155504807, "trialdata": {"rt": -1, "stimulus": "<p id=\"stim\">8</p>", "key_press": -1, "trial_type": "single-stim", "trial_index": 176, "time_elapsed": 1646362, "internal_node_id": "0.0-129.0-2.0"}}, {"uniqueid": "MTK0097:3Z9WI9EOZ0VH4UYCBZG7L7YVYFVKHT", "current_trial": 177, "dateTime": 1509155505809, "trialdata": {"rt": -1, "stimulus": "<p id=\"stim\">7</p>", "key_press": -1, "trial_type": "single-stim", "trial_index": 177, "time_elapsed": 1647364, "internal_node_id": "0.0-129.0-3.0"}}, {"uniqueid": "MTK0097:3Z9WI9EOZ0VH4UYCBZG7L7YVYFVKHT", "current_trial": 178, "dateTime": 1509155506809, "trialdata": {"rt": -1, "stimulus": "<p id=\"stim\">6</p>", "key_press": -1, "trial_type": "single-stim", "trial_index": 178, "time_elapsed": 1648364, "internal_node_id": "0.0-129.0-4.0"}}, {"uniqueid": "MTK0097:3Z9WI9EOZ0VH4UYCBZG7L7YVYFVKHT", "current_trial": 179, "dateTime": 1509155507810, "trialdata": {"rt": -1, "stimulus": "<p id=\"stim\">5</p>", "key_press": -1, "trial_type": "single-stim", "trial_index": 179, "time_elapsed": 1649365, "internal_node_id": "0.0-129.0-5.0"}}, {"uniqueid": "MTK0097:3Z9WI9EOZ0VH4UYCBZG7L7YVYFVKHT", "current_trial": 180, "dateTime": 1509155508811, "trialdata": {"rt": -1, "stimulus": "<p id=\"stim\">4</p>", "key_press": -1, "trial_type": "single-stim", "trial_index": 180, "time_elapsed": 1650366, "internal_node_id": "0.0-129.0-6.0"}}, {"uniqueid": "MTK0097:3Z9WI9EOZ0VH4UYCBZG7L7YVYFVKHT", "current_trial": 181, "dateTime": 1509155509812, "trialdata": {"rt": -1, "stimulus": "<p id=\"stim\">3</p>", "key_press": -1, "trial_type": "single-stim", "trial_index": 181, "time_elapsed": 1651367, "internal_node_id": "0.0-129.0-7.0"}}, {"uniqueid": "MTK0097:3Z9WI9EOZ0VH4UYCBZG7L7YVYFVKHT", "current_trial": 182, "dateTime": 1509155510814, "trialdata": {"rt": -1, "stimulus": "<p id=\"stim\">2</p>", "key_press": -1, "trial_type": "single-stim", "trial_index": 182, "time_elapsed": 1652368, "internal_node_id": "0.0-129.0-8.0"}}, {"uniqueid": "MTK0097:3Z9WI9EOZ0VH4UYCBZG7L7YVYFVKHT", "current_trial": 183, "dateTime": 1509155511816, "trialdata": {"rt": -1, "stimulus": "<p id=\"stim\">1</p>", "key_press": -1, "trial_type": "single-stim", "trial_index": 183, "time_elapsed": 1653370, "internal_node_id": "0.0-129.0-9.0"}}, {"uniqueid": "MTK0097:3Z9WI9EOZ0VH4UYCBZG7L7YVYFVKHT", "current_trial": 184, "dateTime": 1509155513319, "trialdata": {"rt": -1, "stimulus": "<p id=\"stim\">+</p>", "key_press": -1, "type": "FIXATION", "trial_type": "single-stim", "trial_index": 184, "time_elapsed": 1654873, "internal_node_id": "0.0-130.0-0.0"}}, {"uniqueid": "MTK0097:3Z9WI9EOZ0VH4UYCBZG7L7YVYFVKHT", "current_trial": 185, "dateTime": 1509155514123, "trialdata": {"rt": -1, "stimulus": "<p id=\"stim\">POET</p>", "key_press": -1, "type": "PRES_VIS", "word": "poet", "wordID": 1094, "conditions": [24, 800, "v", 12000], "trial": 5, "serialpos": 0, "trial_type": "single-stim", "trial_index": 185, "time_elapsed": 1655675, "internal_node_id": "0.0-131.0"}}, {"uniqueid": "MTK0097:3Z9WI9EOZ0VH4UYCBZG7L7YVYFVKHT", "current_trial": 186, "dateTime": 1509155515801, "trialdata": {"rt": -1, "stimulus": "<p id=\"stim\">VELVET</p>", "key_press": -1, "type": "PRES_VIS", "word": "velvet", "wordID": 1554, "conditions": [24, 800, "v", 12000], "trial": 5, "serialpos": 1, "trial_type": "single-stim", "trial_index": 186, "time_elapsed": 1657355, "internal_node_id": "0.0-132.0"}}, {"uniqueid": "MTK0097:3Z9WI9EOZ0VH4UYCBZG7L7YVYFVKHT", "current_trial": 187, "dateTime": 1509155517560, "trialdata": {"rt": -1, "stimulus": "<p id=\"stim\">SOFTBALL</p>", "key_press": -1, "type": "PRES_VIS", "word": "softball", "wordID": 1342, "conditions": [24, 800, "v", 12000], "trial": 5, "serialpos": 2, "trial_type": "single-stim", "trial_index": 187, "time_elapsed": 1659114, "internal_node_id": "0.0-133.0"}}, {"uniqueid": "MTK0097:3Z9WI9EOZ0VH4UYCBZG7L7YVYFVKHT", "current_trial": 188, "dateTime": 1509155519167, "trialdata": {"rt": -1, "stimulus": "<p id=\"stim\">MATCH</p>", "key_press": -1, "type": "PRES_VIS", "word": "match", "wordID": 877, "conditions": [24, 800, "v", 12000], "trial": 5, "serialpos": 3, "trial_type": "single-stim", "trial_index": 188, "time_elapsed": 1660722, "internal_node_id": "0.0-134.0"}}, {"uniqueid": "MTK0097:3Z9WI9EOZ0VH4UYCBZG7L7YVYFVKHT", "current_trial": 189, "dateTime": 1509155520784, "trialdata": {"rt": -1, "stimulus": "<p id=\"stim\">KITCHEN</p>", "key_press": -1, "type": "PRES_VIS", "word": "kitchen", "wordID": 777, "conditions": [24, 800, "v", 12000], "trial": 5, "serialpos": 4, "trial_type": "single-stim", "trial_index": 189, "time_elapsed": 1662338, "internal_node_id": "0.0-135.0"}}, {"uniqueid": "MTK0097:3Z9WI9EOZ0VH4UYCBZG7L7YVYFVKHT", "current_trial": 190, "dateTime": 1509155522698, "trialdata": {"rt": -1, "stimulus": "<p id=\"stim\">ATOM</p>", "key_press": -1, "type": "PRES_VIS", "word": "atom", "wordID": 54, "conditions": [24, 800, "v", 12000], "trial": 5, "serialpos": 5, "trial_type": "single-stim", "trial_index": 190, "time_elapsed": 1664253, "internal_node_id": "0.0-136.0"}}, {"uniqueid": "MTK0097:3Z9WI9EOZ0VH4UYCBZG7L7YVYFVKHT", "current_trial": 191, "dateTime": 1509155524610, "trialdata": {"rt": -1, "stimulus": "<p id=\"stim\">PLASTER</p>", "key_press": -1, "type": "PRES_VIS", "word": "plaster", "wordID": 1084, "conditions": [24, 800, "v", 12000], "trial": 5, "serialpos": 6, "trial_type": "single-stim", "trial_index": 191, "time_elapsed": 1666165, "internal_node_id": "0.0-137.0"}}, {"uniqueid": "MTK0097:3Z9WI9EOZ0VH4UYCBZG7L7YVYFVKHT", "current_trial": 192, "dateTime": 1509155526374, "trialdata": {"rt": -1, "stimulus": "<p id=\"stim\">PANTHER</p>", "key_press": -1, "type": "PRES_VIS", "word": "panther", "wordID": 1008, "conditions": [24, 800, "v", 12000], "trial": 5, "serialpos": 7, "trial_type": "single-stim", "trial_index": 192, "time_elapsed": 1667929, "internal_node_id": "0.0-138.0"}}, {"uniqueid": "MTK0097:3Z9WI9EOZ0VH4UYCBZG7L7YVYFVKHT", "current_trial": 193, "dateTime": 1509155528043, "trialdata": {"rt": -1, "stimulus": "<p id=\"stim\">ROOSTER</p>", "key_press": -1, "type": "PRES_VIS", "word": "rooster", "wordID": 1208, "conditions": [24, 800, "v", 12000], "trial": 5, "serialpos": 8, "trial_type": "single-stim", "trial_index": 193, "time_elapsed": 1669597, "internal_node_id": "0.0-139.0"}}, {"uniqueid": "MTK0097:3Z9WI9EOZ0VH4UYCBZG7L7YVYFVKHT", "current_trial": 194, "dateTime": 1509155529745, "trialdata": {"rt": -1, "stimulus": "<p id=\"stim\">FIREPLACE</p>", "key_press": -1, "type": "PRES_VIS", "word": "fireplace", "wordID": 569, "conditions": [24, 800, "v", 12000], "trial": 5, "serialpos": 9, "trial_type": "single-stim", "trial_index": 194, "time_elapsed": 1671299, "internal_node_id": "0.0-140.0"}}, {"uniqueid": "MTK0097:3Z9WI9EOZ0VH4UYCBZG7L7YVYFVKHT", "current_trial": 195, "dateTime": 1509155531650, "trialdata": {"rt": -1, "stimulus": "<p id=\"stim\">BADGE</p>", "key_press": -1, "type": "PRES_VIS", "word": "badge", "wordID": 67, "conditions": [24, 800, "v", 12000], "trial": 5, "serialpos": 10, "trial_type": "single-stim", "trial_index": 195, "time_elapsed": 1673204, "internal_node_id": "0.0-141.0"}}, {"uniqueid": "MTK0097:3Z9WI9EOZ0VH4UYCBZG7L7YVYFVKHT", "current_trial": 196, "dateTime": 1509155533635, "trialdata": {"rt": -1, "stimulus": "<p id=\"stim\">STICKER</p>", "key_press": -1, "type": "PRES_VIS", "word": "sticker", "wordID": 1381, "conditions": [24, 800, "v", 12000], "trial": 5, "serialpos": 11, "trial_type": "single-stim", "trial_index": 196, "time_elapsed": 1675189, "internal_node_id": "0.0-142.0"}}, {"uniqueid": "MTK0097:3Z9WI9EOZ0VH4UYCBZG7L7YVYFVKHT", "current_trial": 197, "dateTime": 1509155535288, "trialdata": {"rt": -1, "stimulus": "<p id=\"stim\">FINGER</p>", "key_press": -1, "type": "PRES_VIS", "word": "finger", "wordID": 566, "conditions": [24, 800, "v", 12000], "trial": 5, "serialpos": 12, "trial_type": "single-stim", "trial_index": 197, "time_elapsed": 1676842, "internal_node_id": "0.0-143.0"}}, {"uniqueid": "MTK0097:3Z9WI9EOZ0VH4UYCBZG7L7YVYFVKHT", "current_trial": 198, "dateTime": 1509155537096, "trialdata": {"rt": -1, "stimulus": "<p id=\"stim\">WRIST</p>", "key_press": -1, "type": "PRES_VIS", "word": "wrist", "wordID": 1625, "conditions": [24, 800, "v", 12000], "trial": 5, "serialpos": 13, "trial_type": "single-stim", "trial_index": 198, "time_elapsed": 1678651, "internal_node_id": "0.0-144.0"}}, {"uniqueid": "MTK0097:3Z9WI9EOZ0VH4UYCBZG7L7YVYFVKHT", "current_trial": 199, "dateTime": 1509155538766, "trialdata": {"rt": -1, "stimulus": "<p id=\"stim\">GYMNAST</p>", "key_press": -1, "type": "PRES_VIS", "word": "gymnast", "wordID": 674, "conditions": [24, 800, "v", 12000], "trial": 5, "serialpos": 14, "trial_type": "single-stim", "trial_index": 199, "time_elapsed": 1680320, "internal_node_id": "0.0-145.0"}}, {"uniqueid": "MTK0097:3Z9WI9EOZ0VH4UYCBZG7L7YVYFVKHT", "current_trial": 200, "dateTime": 1509155540767, "trialdata": {"rt": -1, "stimulus": "<p id=\"stim\">SODA</p>", "key_press": -1, "type": "PRES_VIS", "word": "soda", "wordID": 1340, "conditions": [24, 800, "v", 12000], "trial": 5, "serialpos": 15, "trial_type": "single-stim", "trial_index": 200, "time_elapsed": 1682321, "internal_node_id": "0.0-146.0"}}, {"uniqueid": "MTK0097:3Z9WI9EOZ0VH4UYCBZG7L7YVYFVKHT", "current_trial": 201, "dateTime": 1509155542764, "trialdata": {"rt": -1, "stimulus": "<p id=\"stim\">HATCHET</p>", "key_press": -1, "type": "PRES_VIS", "word": "hatchet", "wordID": 690, "conditions": [24, 800, "v", 12000], "trial": 5, "serialpos": 16, "trial_type": "single-stim", "trial_index": 201, "time_elapsed": 1684319, "internal_node_id": "0.0-147.0"}}, {"uniqueid": "MTK0097:3Z9WI9EOZ0VH4UYCBZG7L7YVYFVKHT", "current_trial": 202, "dateTime": 1509155544676, "trialdata": {"rt": -1, "stimulus": "<p id=\"stim\">HEART</p>", "key_press": -1, "type": "PRES_VIS", "word": "heart", "wordID": 696, "conditions": [24, 800, "v", 12000], "trial": 5, "serialpos": 17, "trial_type": "single-stim", "trial_index": 202, "time_elapsed": 1686231, "internal_node_id": "0.0-148.0"}}, {"uniqueid": "MTK0097:3Z9WI9EOZ0VH4UYCBZG7L7YVYFVKHT", "current_trial": 203, "dateTime": 1509155546483, "trialdata": {"rt": -1, "stimulus": "<p id=\"stim\">WRENCH</p>", "key_press": -1, "type": "PRES_VIS", "word": "wrench", "wordID": 1624, "conditions": [24, 800, "v", 12000], "trial": 5, "serialpos": 18, "trial_type": "single-stim", "trial_index": 203, "time_elapsed": 1688037, "internal_node_id": "0.0-149.0"}}, {"uniqueid": "MTK0097:3Z9WI9EOZ0VH4UYCBZG7L7YVYFVKHT", "current_trial": 204, "dateTime": 1509155548169, "trialdata": {"rt": -1, "stimulus": "<p id=\"stim\">COFFEE</p>", "key_press": -1, "type": "PRES_VIS", "word": "coffee", "wordID": 340, "conditions": [24, 800, "v", 12000], "trial": 5, "serialpos": 19, "trial_type": "single-stim", "trial_index": 204, "time_elapsed": 1689724, "internal_node_id": "0.0-150.0"}}, {"uniqueid": "MTK0097:3Z9WI9EOZ0VH4UYCBZG7L7YVYFVKHT", "current_trial": 205, "dateTime": 1509155550092, "trialdata": {"rt": -1, "stimulus": "<p id=\"stim\">LUGGAGE</p>", "key_press": -1, "type": "PRES_VIS", "word": "luggage", "wordID": 846, "conditions": [24, 800, "v", 12000], "trial": 5, "serialpos": 20, "trial_type": "single-stim", "trial_index": 205, "time_elapsed": 1691647, "internal_node_id": "0.0-151.0"}}, {"uniqueid": "MTK0097:3Z9WI9EOZ0VH4UYCBZG7L7YVYFVKHT", "current_trial": 206, "dateTime": 1509155551743, "trialdata": {"rt": -1, "stimulus": "<p id=\"stim\">PREACHER</p>", "key_press": -1, "type": "PRES_VIS", "word": "preacher", "wordID": 1118, "conditions": [24, 800, "v", 12000], "trial": 5, "serialpos": 21, "trial_type": "single-stim", "trial_index": 206, "time_elapsed": 1693298, "internal_node_id": "0.0-152.0"}}, {"uniqueid": "MTK0097:3Z9WI9EOZ0VH4UYCBZG7L7YVYFVKHT", "current_trial": 207, "dateTime": 1509155553713, "trialdata": {"rt": -1, "stimulus": "<p id=\"stim\">MISTER</p>", "key_press": -1, "type": "PRES_VIS", "word": "mister", "wordID": 900, "conditions": [24, 800, "v", 12000], "trial": 5, "serialpos": 22, "trial_type": "single-stim", "trial_index": 207, "time_elapsed": 1695268, "internal_node_id": "0.0-153.0"}}, {"uniqueid": "MTK0097:3Z9WI9EOZ0VH4UYCBZG7L7YVYFVKHT", "current_trial": 208, "dateTime": 1509155555464, "trialdata": {"rt": -1, "stimulus": "<p id=\"stim\">CHEMIST</p>", "key_press": -1, "type": "PRES_VIS", "word": "chemist", "wordID": 291, "conditions": [24, 800, "v", 12000], "trial": 5, "serialpos": 23, "trial_type": "single-stim", "trial_index": 208, "time_elapsed": 1697019, "internal_node_id": "0.0-154.0"}}, {"uniqueid": "MTK0097:3Z9WI9EOZ0VH4UYCBZG7L7YVYFVKHT", "current_trial": 209, "dateTime": 1509155557742, "trialdata": {"rt": -1, "stimulus": "", "key_press": -1, "type": "PRE_RECALL_DELAY", "trial_type": "single-stim", "trial_index": 209, "time_elapsed": 1699294, "internal_node_id": "0.0-155.0-0.0"}}, {"uniqueid": "MTK0097:3Z9WI9EOZ0VH4UYCBZG7L7YVYFVKHT", "current_trial": 210, "dateTime": 1509155558246, "trialdata": {"rt": -1000, "stimulus": "/static/audio/400Hz.wav", "key_press": -1, "type": "PRE_RECALL_ALERT", "trial_type": "single-audio", "trial_index": 210, "time_elapsed": 1699800, "internal_node_id": "0.0-156.0"}}, {"uniqueid": "MTK0097:3Z9WI9EOZ0VH4UYCBZG7L7YVYFVKHT", "current_trial": 211, "dateTime": 1509155618257, "trialdata": {"rt": [3631, 5910, 7902, 9799, 11287, 12926, 14381, 16582, 19039, 20519, 22263, 23991, 24927, 26646, 27895], "recwords": ["poet", "velvet", "softball", "match", "kitchen", "atom", "plaster", "panther", "rooster", "badge", "sticker", "wrist", "soda", "heart", "coffee"], "type": "FREE_RECALL", "conditions": [24, 800, "v", 12000], "trial": 5, "trial_type": "free-recall", "trial_index": 211, "time_elapsed": 1759804, "internal_node_id": "0.0-157.0-0.0"}}, {"uniqueid": "MTK0097:3Z9WI9EOZ0VH4UYCBZG7L7YVYFVKHT", "current_trial": 212, "dateTime": 1509156006452, "trialdata": {"rt": 386194, "key_press": 13, "type": "INSTRUCTIONS", "trial_type": "text", "trial_index": 212, "time_elapsed": 2148007, "internal_node_id": "0.0-158.0"}}, {"uniqueid": "MTK0097:3Z9WI9EOZ0VH4UYCBZG7L7YVYFVKHT", "current_trial": 213, "dateTime": 1509156032456, "trialdata": {"rt": [1751, 3246, 5062, 6623, 10878, 13046, 14399, 16578, 18590, 21319, 23383], "responses": ["16", "16", "17", "16", "22", "19", "13", "20", "15", "24", "15"], "num1": [7, 2, 8, 8, 9, 5, 3, 8, 6, 9, 2, 9], "num2": [2, 8, 5, 6, 8, 8, 6, 8, 1, 7, 6, 6], "num3": [7, 6, 4, 2, 5, 6, 4, 4, 8, 8, 7, 3], "type": "DISTRACTOR", "conditions": [24, 1600, "v", 24000], "trial": 6, "trial_type": "math-distractor", "trial_index": 213, "time_elapsed": 2174011, "internal_node_id": "0.0-159.0"}}, {"uniqueid": "MTK0097:3Z9WI9EOZ0VH4UYCBZG7L7YVYFVKHT", "current_trial": 214, "dateTime": 1509156035459, "trialdata": {"rt": -1, "stimulus": "<p id=\"stim\">10</p>", "key_press": -1, "trial_type": "single-stim", "trial_index": 214, "time_elapsed": 2177013, "internal_node_id": "0.0-160.0-0.0"}}, {"uniqueid": "MTK0097:3Z9WI9EOZ0VH4UYCBZG7L7YVYFVKHT", "current_trial": 215, "dateTime": 1509156036461, "trialdata": {"rt": -1, "stimulus": "<p id=\"stim\">9</p>", "key_press": -1, "trial_type": "single-stim", "trial_index": 215, "time_elapsed": 2178015, "internal_node_id": "0.0-160.0-1.0"}}, {"uniqueid": "MTK0097:3Z9WI9EOZ0VH4UYCBZG7L7YVYFVKHT", "current_trial": 216, "dateTime": 1509156037462, "trialdata": {"rt": -1, "stimulus": "<p id=\"stim\">8</p>", "key_press": -1, "trial_type": "single-stim", "trial_index": 216, "time_elapsed": 2179017, "internal_node_id": "0.0-160.0-2.0"}}, {"uniqueid": "MTK0097:3Z9WI9EOZ0VH4UYCBZG7L7YVYFVKHT", "current_trial": 217, "dateTime": 1509156038465, "trialdata": {"rt": -1, "stimulus": "<p id=\"stim\">7</p>", "key_press": -1, "trial_type": "single-stim", "trial_index": 217, "time_elapsed": 2180020, "internal_node_id": "0.0-160.0-3.0"}}, {"uniqueid": "MTK0097:3Z9WI9EOZ0VH4UYCBZG7L7YVYFVKHT", "current_trial": 218, "dateTime": 1509156039466, "trialdata": {"rt": -1, "stimulus": "<p id=\"stim\">6</p>", "key_press": -1, "trial_type": "single-stim", "trial_index": 218, "time_elapsed": 2181021, "internal_node_id": "0.0-160.0-4.0"}}, {"uniqueid": "MTK0097:3Z9WI9EOZ0VH4UYCBZG7L7YVYFVKHT", "current_trial": 219, "dateTime": 1509156040468, "trialdata": {"rt": -1, "stimulus": "<p id=\"stim\">5</p>", "key_press": -1, "trial_type": "single-stim", "trial_index": 219, "time_elapsed": 2182023, "internal_node_id": "0.0-160.0-5.0"}}, {"uniqueid": "MTK0097:3Z9WI9EOZ0VH4UYCBZG7L7YVYFVKHT", "current_trial": 220, "dateTime": 1509156041471, "trialdata": {"rt": -1, "stimulus": "<p id=\"stim\">4</p>", "key_press": -1, "trial_type": "single-stim", "trial_index": 220, "time_elapsed": 2183025, "internal_node_id": "0.0-160.0-6.0"}}, {"uniqueid": "MTK0097:3Z9WI9EOZ0VH4UYCBZG7L7YVYFVKHT", "current_trial": 221, "dateTime": 1509156042472, "trialdata": {"rt": -1, "stimulus": "<p id=\"stim\">3</p>", "key_press": -1, "trial_type": "single-stim", "trial_index": 221, "time_elapsed": 2184026, "internal_node_id": "0.0-160.0-7.0"}}, {"uniqueid": "MTK0097:3Z9WI9EOZ0VH4UYCBZG7L7YVYFVKHT", "current_trial": 222, "dateTime": 1509156043477, "trialdata": {"rt": -1, "stimulus": "<p id=\"stim\">2</p>", "key_press": -1, "trial_type": "single-stim", "trial_index": 222, "time_elapsed": 2185028, "internal_node_id": "0.0-160.0-8.0"}}, {"uniqueid": "MTK0097:3Z9WI9EOZ0VH4UYCBZG7L7YVYFVKHT", "current_trial": 223, "dateTime": 1509156044479, "trialdata": {"rt": -1, "stimulus": "<p id=\"stim\">1</p>", "key_press": -1, "trial_type": "single-stim", "trial_index": 223, "time_elapsed": 2186033, "internal_node_id": "0.0-160.0-9.0"}}, {"uniqueid": "MTK0097:3Z9WI9EOZ0VH4UYCBZG7L7YVYFVKHT", "current_trial": 224, "dateTime": 1509156045981, "trialdata": {"rt": -1, "stimulus": "<p id=\"stim\">+</p>", "key_press": -1, "type": "FIXATION", "trial_type": "single-stim", "trial_index": 224, "time_elapsed": 2187536, "internal_node_id": "0.0-161.0-0.0"}}, {"uniqueid": "MTK0097:3Z9WI9EOZ0VH4UYCBZG7L7YVYFVKHT", "current_trial": 225, "dateTime": 1509156047582, "trialdata": {"rt": -1, "stimulus": "<p id=\"stim\">VALVE</p>", "key_press": -1, "type": "PRES_VIS", "word": "valve", "wordID": 1545, "conditions": [24, 1600, "v", 24000], "trial": 6, "serialpos": 0, "trial_type": "single-stim", "trial_index": 225, "time_elapsed": 2189137, "internal_node_id": "0.0-162.0"}}, {"uniqueid": "MTK0097:3Z9WI9EOZ0VH4UYCBZG7L7YVYFVKHT", "current_trial": 226, "dateTime": 1509156050311, "trialdata": {"rt": -1, "stimulus": "<p id=\"stim\">ARM</p>", "key_press": -1, "type": "PRES_VIS", "word": "arm", "wordID": 37, "conditions": [24, 1600, "v", 24000], "trial": 6, "serialpos": 1, "trial_type": "single-stim", "trial_index": 226, "time_elapsed": 2191866, "internal_node_id": "0.0-163.0"}}, {"uniqueid": "MTK0097:3Z9WI9EOZ0VH4UYCBZG7L7YVYFVKHT", "current_trial": 227, "dateTime": 1509156052891, "trialdata": {"rt": -1, "stimulus": "<p id=\"stim\">CANDY</p>", "key_press": -1, "type": "PRES_VIS", "word": "candy", "wordID": 229, "conditions": [24, 1600, "v", 24000], "trial": 6, "serialpos": 2, "trial_type": "single-stim", "trial_index": 227, "time_elapsed": 2194446, "internal_node_id": "0.0-164.0"}}, {"uniqueid": "MTK0097:3Z9WI9EOZ0VH4UYCBZG7L7YVYFVKHT", "current_trial": 228, "dateTime": 1509156055368, "trialdata": {"rt": -1, "stimulus": "<p id=\"stim\">PARSLEY</p>", "key_press": -1, "type": "PRES_VIS", "word": "parsley", "wordID": 1015, "conditions": [24, 1600, "v", 24000], "trial": 6, "serialpos": 3, "trial_type": "single-stim", "trial_index": 228, "time_elapsed": 2196923, "internal_node_id": "0.0-165.0"}}, {"uniqueid": "MTK0097:3Z9WI9EOZ0VH4UYCBZG7L7YVYFVKHT", "current_trial": 229, "dateTime": 1509156058040, "trialdata": {"rt": -1, "stimulus": "<p id=\"stim\">HEADBAND</p>", "key_press": -1, "type": "PRES_VIS", "word": "headband", "wordID": 695, "conditions": [24, 1600, "v", 24000], "trial": 6, "serialpos": 4, "trial_type": "single-stim", "trial_index": 229, "time_elapsed": 2199595, "internal_node_id": "0.0-166.0"}}, {"uniqueid": "MTK0097:3Z9WI9EOZ0VH4UYCBZG7L7YVYFVKHT", "current_trial": 230, "dateTime": 1509156060545, "trialdata": {"rt": -1, "stimulus": "<p id=\"stim\">SWAMP</p>", "key_press": -1, "type": "PRES_VIS", "word": "swamp", "wordID": 1415, "conditions": [24, 1600, "v", 24000], "trial": 6, "serialpos": 5, "trial_type": "single-stim", "trial_index": 230, "time_elapsed": 2202100, "internal_node_id": "0.0-167.0"}}, {"uniqueid": "MTK0097:3Z9WI9EOZ0VH4UYCBZG7L7YVYFVKHT", "current_trial": 231, "dateTime": 1509156063215, "trialdata": {"rt": -1, "stimulus": "<p id=\"stim\">SHOULDER</p>", "key_press": -1, "type": "PRES_VIS", "word": "shoulder", "wordID": 1293, "conditions": [24, 1600, "v", 24000], "trial": 6, "serialpos": 6, "trial_type": "single-stim", "trial_index": 231, "time_elapsed": 2204769, "internal_node_id": "0.0-168.0"}}, {"uniqueid": "MTK0097:3Z9WI9EOZ0VH4UYCBZG7L7YVYFVKHT", "current_trial": 232, "dateTime": 1509156065646, "trialdata": {"rt": -1, "stimulus": "<p id=\"stim\">PRINCESS</p>", "key_press": -1, "type": "PRES_VIS", "word": "princess", "wordID": 1124, "conditions": [24, 1600, "v", 24000], "trial": 6, "serialpos": 7, "trial_type": "single-stim", "trial_index": 232, "time_elapsed": 2207201, "internal_node_id": "0.0-169.0"}}, {"uniqueid": "MTK0097:3Z9WI9EOZ0VH4UYCBZG7L7YVYFVKHT", "current_trial": 233, "dateTime": 1509156068093, "trialdata": {"rt": -1, "stimulus": "<p id=\"stim\">GIRL</p>", "key_press": -1, "type": "PRES_VIS", "word": "girl", "wordID": 636, "conditions": [24, 1600, "v", 24000], "trial": 6, "serialpos": 8, "trial_type": "single-stim", "trial_index": 233, "time_elapsed": 2209648, "internal_node_id": "0.0-170.0"}}, {"uniqueid": "MTK0097:3Z9WI9EOZ0VH4UYCBZG7L7YVYFVKHT", "current_trial": 234, "dateTime": 1509156070558, "trialdata": {"rt": -1, "stimulus": "<p id=\"stim\">SLUG</p>", "key_press": -1, "type": "PRES_VIS", "word": "slug", "wordID": 1328, "conditions": [24, 1600, "v", 24000], "trial": 6, "serialpos": 9, "trial_type": "single-stim", "trial_index": 234, "time_elapsed": 2212113, "internal_node_id": "0.0-171.0"}}, {"uniqueid": "MTK0097:3Z9WI9EOZ0VH4UYCBZG7L7YVYFVKHT", "current_trial": 235, "dateTime": 1509156073202, "trialdata": {"rt": -1, "stimulus": "<p id=\"stim\">RIFLE</p>", "key_press": -1, "type": "PRES_VIS", "word": "rifle", "wordID": 1191, "conditions": [24, 1600, "v", 24000], "trial": 6, "serialpos": 10, "trial_type": "single-stim", "trial_index": 235, "time_elapsed": 2214756, "internal_node_id": "0.0-172.0"}}, {"uniqueid": "MTK0097:3Z9WI9EOZ0VH4UYCBZG7L7YVYFVKHT", "current_trial": 236, "dateTime": 1509156075658, "trialdata": {"rt": -1, "stimulus": "<p id=\"stim\">BEAKER</p>", "key_press": -1, "type": "PRES_VIS", "word": "beaker", "wordID": 103, "conditions": [24, 1600, "v", 24000], "trial": 6, "serialpos": 11, "trial_type": "single-stim", "trial_index": 236, "time_elapsed": 2217213, "internal_node_id": "0.0-173.0"}}, {"uniqueid": "MTK0097:3Z9WI9EOZ0VH4UYCBZG7L7YVYFVKHT", "current_trial": 237, "dateTime": 1509156078399, "trialdata": {"rt": -1, "stimulus": "<p id=\"stim\">LACE</p>", "key_press": -1, "type": "PRES_VIS", "word": "lace", "wordID": 791, "conditions": [24, 1600, "v", 24000], "trial": 6, "serialpos": 12, "trial_type": "single-stim", "trial_index": 237, "time_elapsed": 2219953, "internal_node_id": "0.0-174.0"}}, {"uniqueid": "MTK0097:3Z9WI9EOZ0VH4UYCBZG7L7YVYFVKHT", "current_trial": 238, "dateTime": 1509156081132, "trialdata": {"rt": -1, "stimulus": "<p id=\"stim\">SILK</p>", "key_press": -1, "type": "PRES_VIS", "word": "silk", "wordID": 1306, "conditions": [24, 1600, "v", 24000], "trial": 6, "serialpos": 13, "trial_type": "single-stim", "trial_index": 238, "time_elapsed": 2222686, "internal_node_id": "0.0-175.0"}}, {"uniqueid": "MTK0097:3Z9WI9EOZ0VH4UYCBZG7L7YVYFVKHT", "current_trial": 239, "dateTime": 1509156083883, "trialdata": {"rt": -1, "stimulus": "<p id=\"stim\">FIDDLE</p>", "key_press": -1, "type": "PRES_VIS", "word": "fiddle", "wordID": 560, "conditions": [24, 1600, "v", 24000], "trial": 6, "serialpos": 14, "trial_type": "single-stim", "trial_index": 239, "time_elapsed": 2225431, "internal_node_id": "0.0-176.0"}}, {"uniqueid": "MTK0097:3Z9WI9EOZ0VH4UYCBZG7L7YVYFVKHT", "current_trial": 240, "dateTime": 1509156086339, "trialdata": {"rt": -1, "stimulus": "<p id=\"stim\">PISTON</p>", "key_press": -1, "type": "PRES_VIS", "word": "piston", "wordID": 1075, "conditions": [24, 1600, "v", 24000], "trial": 6, "serialpos": 15, "trial_type": "single-stim", "trial_index": 240, "time_elapsed": 2227894, "internal_node_id": "0.0-177.0"}}, {"uniqueid": "MTK0097:3Z9WI9EOZ0VH4UYCBZG7L7YVYFVKHT", "current_trial": 241, "dateTime": 1509156089045, "trialdata": {"rt": -1, "stimulus": "<p id=\"stim\">MARS</p>", "key_press": -1, "type": "PRES_VIS", "word": "mars", "wordID": 872, "conditions": [24, 1600, "v", 24000], "trial": 6, "serialpos": 16, "trial_type": "single-stim", "trial_index": 241, "time_elapsed": 2230599, "internal_node_id": "0.0-178.0"}}, {"uniqueid": "MTK0097:3Z9WI9EOZ0VH4UYCBZG7L7YVYFVKHT", "current_trial": 242, "dateTime": 1509156091562, "trialdata": {"rt": -1, "stimulus": "<p id=\"stim\">WIFE</p>", "key_press": -1, "type": "PRES_VIS", "word": "wife", "wordID": 1608, "conditions": [24, 1600, "v", 24000], "trial": 6, "serialpos": 17, "trial_type": "single-stim", "trial_index": 242, "time_elapsed": 2233116, "internal_node_id": "0.0-179.0"}}, {"uniqueid": "MTK0097:3Z9WI9EOZ0VH4UYCBZG7L7YVYFVKHT", "current_trial": 243, "dateTime": 1509156094256, "trialdata": {"rt": -1, "stimulus": "<p id=\"stim\">FRAGRANCE</p>", "key_press": -1, "type": "PRES_VIS", "word": "fragrance", "wordID": 598, "conditions": [24, 1600, "v", 24000], "trial": 6, "serialpos": 18, "trial_type": "single-stim", "trial_index": 243, "time_elapsed": 2235810, "internal_node_id": "0.0-180.0"}}, {"uniqueid": "MTK0097:3Z9WI9EOZ0VH4UYCBZG7L7YVYFVKHT", "current_trial": 244, "dateTime": 1509156096672, "trialdata": {"rt": -1, "stimulus": "<p id=\"stim\">QUEEN</p>", "key_press": -1, "type": "PRES_VIS", "word": "queen", "wordID": 1148, "conditions": [24, 1600, "v", 24000], "trial": 6, "serialpos": 19, "trial_type": "single-stim", "trial_index": 244, "time_elapsed": 2238227, "internal_node_id": "0.0-181.0"}}, {"uniqueid": "MTK0097:3Z9WI9EOZ0VH4UYCBZG7L7YVYFVKHT", "current_trial": 245, "dateTime": 1509156099196, "trialdata": {"rt": -1, "stimulus": "<p id=\"stim\">BEEF</p>", "key_press": -1, "type": "PRES_VIS", "word": "beef", "wordID": 112, "conditions": [24, 1600, "v", 24000], "trial": 6, "serialpos": 20, "trial_type": "single-stim", "trial_index": 245, "time_elapsed": 2240748, "internal_node_id": "0.0-182.0"}}, {"uniqueid": "MTK0097:3Z9WI9EOZ0VH4UYCBZG7L7YVYFVKHT", "current_trial": 246, "dateTime": 1509156101899, "trialdata": {"rt": -1, "stimulus": "<p id=\"stim\">PUDDING</p>", "key_press": -1, "type": "PRES_VIS", "word": "pudding", "wordID": 1138, "conditions": [24, 1600, "v", 24000], "trial": 6, "serialpos": 21, "trial_type": "single-stim", "trial_index": 246, "time_elapsed": 2243453, "internal_node_id": "0.0-183.0"}}, {"uniqueid": "MTK0097:3Z9WI9EOZ0VH4UYCBZG7L7YVYFVKHT", "current_trial": 247, "dateTime": 1509156104634, "trialdata": {"rt": -1, "stimulus": "<p id=\"stim\">PERFUME</p>", "key_press": -1, "type": "PRES_VIS", "word": "perfume", "wordID": 1048, "conditions": [24, 1600, "v", 24000], "trial": 6, "serialpos": 22, "trial_type": "single-stim", "trial_index": 247, "time_elapsed": 2246188, "internal_node_id": "0.0-184.0"}}, {"uniqueid": "MTK0097:3Z9WI9EOZ0VH4UYCBZG7L7YVYFVKHT", "current_trial": 248, "dateTime": 1509156107231, "trialdata": {"rt": -1, "stimulus": "<p id=\"stim\">OUTDOORS</p>", "key_press": -1, "type": "PRES_VIS", "word": "outdoors", "wordID": 986, "conditions": [24, 1600, "v", 24000], "trial": 6, "serialpos": 23, "trial_type": "single-stim", "trial_index": 248, "time_elapsed": 2248783, "internal_node_id": "0.0-185.0"}}, {"uniqueid": "MTK0097:3Z9WI9EOZ0VH4UYCBZG7L7YVYFVKHT", "current_trial": 249, "dateTime": 1509156109367, "trialdata": {"rt": -1, "stimulus": "", "key_press": -1, "type": "PRE_RECALL_DELAY", "trial_type": "single-stim", "trial_index": 249, "time_elapsed": 2250922, "internal_node_id": "0.0-186.0-0.0"}}, {"uniqueid": "MTK0097:3Z9WI9EOZ0VH4UYCBZG7L7YVYFVKHT", "current_trial": 250, "dateTime": 1509156109869, "trialdata": {"rt": -1000, "stimulus": "/static/audio/400Hz.wav", "key_press": -1, "type": "PRE_RECALL_ALERT", "trial_type": "single-audio", "trial_index": 250, "time_elapsed": 2251424, "internal_node_id": "0.0-187.0"}}, {"uniqueid": "MTK0097:3Z9WI9EOZ0VH4UYCBZG7L7YVYFVKHT", "current_trial": 251, "dateTime": 1509156169878, "trialdata": {"rt": [3996, 5388, 6652, 9196, 10315, 12340, 13564, 15140, 17204, 19148, 21492, 23139, 25683, 26772, 27428], "recwords": ["valve", "arm", "candy", "headband", "beef", "queen", "wife", "silk", "alug", "girl", "princess", "shoulder", "swamp", "rifle", "lace"], "type": "FREE_RECALL", "conditions": [24, 1600, "v", 24000], "trial": 6, "trial_type": "free-recall", "trial_index": 251, "time_elapsed": 2311430, "internal_node_id": "0.0-188.0-0.0"}}, {"uniqueid": "MTK0097:3Z9WI9EOZ0VH4UYCBZG7L7YVYFVKHT", "current_trial": 252, "dateTime": 1509156262141, "trialdata": {"rt": 90261, "key_press": 13, "type": "INSTRUCTIONS", "trial_type": "text", "trial_index": 252, "time_elapsed": 2403696, "internal_node_id": "0.0-189.0"}}, {"uniqueid": "MTK0097:3Z9WI9EOZ0VH4UYCBZG7L7YVYFVKHT", "current_trial": 253, "dateTime": 1509156276147, "trialdata": {"rt": [2995, 4474, 6444, 8395, 11251], "responses": ["15", "12", "20", "17", "13"], "num1": [8, 3, 8, 9, 2, 4], "num2": [5, 8, 4, 2, 5, 8], "num3": [2, 1, 8, 6, 6, 1], "type": "DISTRACTOR", "conditions": [24, 1600, "a", 12000], "trial": 7, "trial_type": "math-distractor", "trial_index": 253, "time_elapsed": 2417702, "internal_node_id": "0.0-190.0"}}, {"uniqueid": "MTK0097:3Z9WI9EOZ0VH4UYCBZG7L7YVYFVKHT", "current_trial": 254, "dateTime": 1509156279151, "trialdata": {"rt": -1, "stimulus": "<p id=\"stim\">10</p>", "key_press": -1, "trial_type": "single-stim", "trial_index": 254, "time_elapsed": 2420706, "internal_node_id": "0.0-191.0-0.0"}}, {"uniqueid": "MTK0097:3Z9WI9EOZ0VH4UYCBZG7L7YVYFVKHT", "current_trial": 255, "dateTime": 1509156280154, "trialdata": {"rt": -1, "stimulus": "<p id=\"stim\">9</p>", "key_press": -1, "trial_type": "single-stim", "trial_index": 255, "time_elapsed": 2421708, "internal_node_id": "0.0-191.0-1.0"}}, {"uniqueid": "MTK0097:3Z9WI9EOZ0VH4UYCBZG7L7YVYFVKHT", "current_trial": 256, "dateTime": 1509156281156, "trialdata": {"rt": -1, "stimulus": "<p id=\"stim\">8</p>", "key_press": -1, "trial_type": "single-stim", "trial_index": 256, "time_elapsed": 2422710, "internal_node_id": "0.0-191.0-2.0"}}, {"uniqueid": "MTK0097:3Z9WI9EOZ0VH4UYCBZG7L7YVYFVKHT", "current_trial": 257, "dateTime": 1509156282158, "trialdata": {"rt": -1, "stimulus": "<p id=\"stim\">7</p>", "key_press": -1, "trial_type": "single-stim", "trial_index": 257, "time_elapsed": 2423712, "internal_node_id": "0.0-191.0-3.0"}}, {"uniqueid": "MTK0097:3Z9WI9EOZ0VH4UYCBZG7L7YVYFVKHT", "current_trial": 258, "dateTime": 1509156283160, "trialdata": {"rt": -1, "stimulus": "<p id=\"stim\">6</p>", "key_press": -1, "trial_type": "single-stim", "trial_index": 258, "time_elapsed": 2424714, "internal_node_id": "0.0-191.0-4.0"}}, {"uniqueid": "MTK0097:3Z9WI9EOZ0VH4UYCBZG7L7YVYFVKHT", "current_trial": 259, "dateTime": 1509156284165, "trialdata": {"rt": -1, "stimulus": "<p id=\"stim\">5</p>", "key_press": -1, "trial_type": "single-stim", "trial_index": 259, "time_elapsed": 2425716, "internal_node_id": "0.0-191.0-5.0"}}, {"uniqueid": "MTK0097:3Z9WI9EOZ0VH4UYCBZG7L7YVYFVKHT", "current_trial": 260, "dateTime": 1509156285168, "trialdata": {"rt": -1, "stimulus": "<p id=\"stim\">4</p>", "key_press": -1, "trial_type": "single-stim", "trial_index": 260, "time_elapsed": 2426722, "internal_node_id": "0.0-191.0-6.0"}}, {"uniqueid": "MTK0097:3Z9WI9EOZ0VH4UYCBZG7L7YVYFVKHT", "current_trial": 261, "dateTime": 1509156286170, "trialdata": {"rt": -1, "stimulus": "<p id=\"stim\">3</p>", "key_press": -1, "trial_type": "single-stim", "trial_index": 261, "time_elapsed": 2427724, "internal_node_id": "0.0-191.0-7.0"}}, {"uniqueid": "MTK0097:3Z9WI9EOZ0VH4UYCBZG7L7YVYFVKHT", "current_trial": 262, "dateTime": 1509156287172, "trialdata": {"rt": -1, "stimulus": "<p id=\"stim\">2</p>", "key_press": -1, "trial_type": "single-stim", "trial_index": 262, "time_elapsed": 2428726, "internal_node_id": "0.0-191.0-8.0"}}, {"uniqueid": "MTK0097:3Z9WI9EOZ0VH4UYCBZG7L7YVYFVKHT", "current_trial": 263, "dateTime": 1509156288174, "trialdata": {"rt": -1, "stimulus": "<p id=\"stim\">1</p>", "key_press": -1, "trial_type": "single-stim", "trial_index": 263, "time_elapsed": 2429728, "internal_node_id": "0.0-191.0-9.0"}}, {"uniqueid": "MTK0097:3Z9WI9EOZ0VH4UYCBZG7L7YVYFVKHT", "current_trial": 264, "dateTime": 1509156289676, "trialdata": {"rt": -1, "stimulus": "<p id=\"stim\">+</p>", "key_press": -1, "type": "FIXATION", "trial_type": "single-stim", "trial_index": 264, "time_elapsed": 2431230, "internal_node_id": "0.0-192.0-0.0"}}, {"uniqueid": "MTK0097:3Z9WI9EOZ0VH4UYCBZG7L7YVYFVKHT", "current_trial": 265, "dateTime": 1509156292439, "trialdata": {"rt": -1000, "stimulus": "/static/audio/wordpool/CREATURE.wav", "key_press": -1, "type": "PRES_AUD", "word": "creature", "wordID": 402, "conditions": [24, 1600, "a", 12000], "trial": 7, "serialpos": 0, "trial_type": "single-audio", "trial_index": 265, "time_elapsed": 2433994, "internal_node_id": "0.0-193.0"}}, {"uniqueid": "MTK0097:3Z9WI9EOZ0VH4UYCBZG7L7YVYFVKHT", "current_trial": 266, "dateTime": 1509156294930, "trialdata": {"rt": -1000, "stimulus": "/static/audio/wordpool/GHETTO.wav", "key_press": -1, "type": "PRES_AUD", "word": "ghetto", "wordID": 632, "conditions": [24, 1600, "a", 12000], "trial": 7, "serialpos": 1, "trial_type": "single-audio", "trial_index": 266, "time_elapsed": 2436485, "internal_node_id": "0.0-194.0"}}, {"uniqueid": "MTK0097:3Z9WI9EOZ0VH4UYCBZG7L7YVYFVKHT", "current_trial": 267, "dateTime": 1509156297623, "trialdata": {"rt": -1000, "stimulus": "/static/audio/wordpool/TUBA.wav", "key_press": -1, "type": "PRES_AUD", "word": "tuba", "wordID": 1514, "conditions": [24, 1600, "a", 12000], "trial": 7, "serialpos": 2, "trial_type": "single-audio", "trial_index": 267, "time_elapsed": 2439177, "internal_node_id": "0.0-195.0"}}, {"uniqueid": "MTK0097:3Z9WI9EOZ0VH4UYCBZG7L7YVYFVKHT", "current_trial": 268, "dateTime": 1509156300396, "trialdata": {"rt": 140.00000000032742, "stimulus": "/static/audio/wordpool/TROMBONE.wav", "key_press": 175, "type": "PRES_AUD", "word": "trombone", "wordID": 1507, "conditions": [24, 1600, "a", 12000], "trial": 7, "serialpos": 3, "trial_type": "single-audio", "trial_index": 268, "time_elapsed": 2441951, "internal_node_id": "0.0-196.0"}}, {"uniqueid": "MTK0097:3Z9WI9EOZ0VH4UYCBZG7L7YVYFVKHT", "current_trial": 269, "dateTime": 1509156302934, "trialdata": {"rt": -1000, "stimulus": "/static/audio/wordpool/FLEET.wav", "key_press": -1, "type": "PRES_AUD", "word": "fleet", "wordID": 577, "conditions": [24, 1600, "a", 12000], "trial": 7, "serialpos": 4, "trial_type": "single-audio", "trial_index": 269, "time_elapsed": 2444489, "internal_node_id": "0.0-197.0"}}, {"uniqueid": "MTK0097:3Z9WI9EOZ0VH4UYCBZG7L7YVYFVKHT", "current_trial": 270, "dateTime": 1509156305644, "trialdata": {"rt": -1000, "stimulus": "/static/audio/wordpool/PUPPY.wav", "key_press": -1, "type": "PRES_AUD", "word": "puppy", "wordID": 1143, "conditions": [24, 1600, "a", 12000], "trial": 7, "serialpos": 5, "trial_type": "single-audio", "trial_index": 270, "time_elapsed": 2447199, "internal_node_id": "0.0-198.0"}}, {"uniqueid": "MTK0097:3Z9WI9EOZ0VH4UYCBZG7L7YVYFVKHT", "current_trial": 271, "dateTime": 1509156308199, "trialdata": {"rt": -1000, "stimulus": "/static/audio/wordpool/MISSILE.wav", "key_press": -1, "type": "PRES_AUD", "word": "missile", "wordID": 899, "conditions": [24, 1600, "a", 12000], "trial": 7, "serialpos": 6, "trial_type": "single-audio", "trial_index": 271, "time_elapsed": 2449753, "internal_node_id": "0.0-199.0"}}, {