{"condition": 0, "counterbalance": 980, "assignmentId": "3HL8HNGX468D92OFCC1ISD828P09FN", "workerId": "MTK0294", "hitId": "3421H3BM9AORRKCH50N1IR4AOCSJ9J", "currenttrial": 626, "bonus": 0, "data": [{"uniqueid": "MTK0294:3HL8HNGX468D92OFCC1ISD828P09FN", "current_trial": 0, "dateTime": 1510697982409, "trialdata": {"rt": 1719, "key_press": 32, "type": "INSTRUCTIONS", "trial_type": "text", "trial_index": 0, "time_elapsed": 1724, "internal_node_id": "0.0-0.0"}}, {"uniqueid": "MTK0294:3HL8HNGX468D92OFCC1ISD828P09FN", "current_trial": 1, "dateTime": 1510698003455, "trialdata": {"rt": 21042, "key_press": 32, "type": "INSTRUCTIONS", "trial_type": "text", "trial_index": 1, "time_elapsed": 22774, "internal_node_id": "0.0-1.0"}}, {"uniqueid": "MTK0294:3HL8HNGX468D92OFCC1ISD828P09FN", "current_trial": 2, "dateTime": 1510698012105, "trialdata": {"rt": [8559], "responses": ["ocean"], "type": "AUDIO_TEST", "trial_type": "audio-test", "trial_index": 2, "time_elapsed": 31423, "internal_node_id": "0.0-2.0"}}, {"uniqueid": "MTK0294:3HL8HNGX468D92OFCC1ISD828P09FN", "current_trial": 3, "dateTime": 1510698024054, "trialdata": {"rt": [11942], "responses": ["crystal"], "type": "AUDIO_TEST", "trial_type": "audio-test", "trial_index": 3, "time_elapsed": 43373, "internal_node_id": "0.0-3.0"}}, {"uniqueid": "MTK0294:3HL8HNGX468D92OFCC1ISD828P09FN", "current_trial": 4, "dateTime": 1510698029407, "trialdata": {"rt": [5342], "responses": ["spice"], "type": "AUDIO_TEST", "trial_type": "audio-test", "trial_index": 4, "time_elapsed": 48725, "internal_node_id": "0.0-4.0"}}, {"uniqueid": "MTK0294:3HL8HNGX468D92OFCC1ISD828P09FN", "current_trial": 5, "dateTime": 1510698052666, "trialdata": {"rt": 22502, "responses": "{\"Q0\":\"11pm\",\"Q1\":\"6am\",\"Q2\":\"4\"}", "type": "SLEEP_SURVEY", "trial_type": "survey-text", "trial_index": 5, "time_elapsed": 71985, "internal_node_id": "0.0-5.0"}}, {"uniqueid": "MTK0294:3HL8HNGX468D92OFCC1ISD828P09FN", "current_trial": 6, "dateTime": 1510698091510, "trialdata": {"rt": 37838, "key_press": 32, "type": "INSTRUCTIONS", "trial_type": "text", "trial_index": 6, "time_elapsed": 110828, "internal_node_id": "0.0-6.0"}}, {"uniqueid": "MTK0294:3HL8HNGX468D92OFCC1ISD828P09FN", "current_trial": 7, "dateTime": 1510698115700, "trialdata": {"rt": 23685, "key_press": 32, "type": "INSTRUCTIONS", "trial_type": "text", "trial_index": 7, "time_elapsed": 135019, "internal_node_id": "0.0-7.0"}}, {"uniqueid": "MTK0294:3HL8HNGX468D92OFCC1ISD828P09FN", "current_trial": 8, "dateTime": 1510698123194, "trialdata": {"rt": 6992, "key_press": 32, "type": "INSTRUCTIONS", "trial_type": "text", "trial_index": 8, "time_elapsed": 142513, "internal_node_id": "0.0-8.0"}}, {"uniqueid": "MTK0294:3HL8HNGX468D92OFCC1ISD828P09FN", "current_trial": 9, "dateTime": 1510698142222, "trialdata": {"rt": [5058, 8206, 10898, 13614, 17199], "responses": ["21", "9", "18", "19", "7"], "num1": [9, 2, 8, 9, 3, 9], "num2": [5, 1, 1, 1, 1, 4], "num3": [7, 6, 9, 9, 3, 3], "type": "DISTRACTOR", "conditions": [18, 1200, "a", 18000], "trial": 0, "trial_type": "math-distractor", "trial_index": 9, "time_elapsed": 161539, "internal_node_id": "0.0-9.0"}}, {"uniqueid": "MTK0294:3HL8HNGX468D92OFCC1ISD828P09FN", "current_trial": 10, "dateTime": 1510698145228, "trialdata": {"rt": -1, "stimulus": "<p id=\"stim\">10</p>", "key_press": -1, "trial_type": "single-stim", "trial_index": 10, "time_elapsed": 164547, "internal_node_id": "0.0-10.0-0.0"}}, {"uniqueid": "MTK0294:3HL8HNGX468D92OFCC1ISD828P09FN", "current_trial": 11, "dateTime": 1510698146230, "trialdata": {"rt": -1, "stimulus": "<p id=\"stim\">9</p>", "key_press": -1, "trial_type": "single-stim", "trial_index": 11, "time_elapsed": 165549, "internal_node_id": "0.0-10.0-1.0"}}, {"uniqueid": "MTK0294:3HL8HNGX468D92OFCC1ISD828P09FN", "current_trial": 12, "dateTime": 1510698147231, "trialdata": {"rt": -1, "stimulus": "<p id=\"stim\">8</p>", "key_press": -1, "trial_type": "single-stim", "trial_index": 12, "time_elapsed": 166550, "internal_node_id": "0.0-10.0-2.0"}}, {"uniqueid": "MTK0294:3HL8HNGX468D92OFCC1ISD828P09FN", "current_trial": 13, "dateTime": 1510698148232, "trialdata": {"rt": -1, "stimulus": "<p id=\"stim\">7</p>", "key_press": -1, "trial_type": "single-stim", "trial_index": 13, "time_elapsed": 167551, "internal_node_id": "0.0-10.0-3.0"}}, {"uniqueid": "MTK0294:3HL8HNGX468D92OFCC1ISD828P09FN", "current_trial": 14, "dateTime": 1510698149234, "trialdata": {"rt": -1, "stimulus": "<p id=\"stim\">6</p>", "key_press": -1, "trial_type": "single-stim", "trial_index": 14, "time_elapsed": 168552, "internal_node_id": "0.0-10.0-4.0"}}, {"uniqueid": "MTK0294:3HL8HNGX468D92OFCC1ISD828P09FN", "current_trial": 15, "dateTime": 1510698150235, "trialdata": {"rt": -1, "stimulus": "<p id=\"stim\">5</p>", "key_press": -1, "trial_type": "single-stim", "trial_index": 15, "time_elapsed": 169554, "internal_node_id": "0.0-10.0-5.0"}}, {"uniqueid": "MTK0294:3HL8HNGX468D92OFCC1ISD828P09FN", "current_trial": 16, "dateTime": 1510698151237, "trialdata": {"rt": -1, "stimulus": "<p id=\"stim\">4</p>", "key_press": -1, "trial_type": "single-stim", "trial_index": 16, "time_elapsed": 170556, "internal_node_id": "0.0-10.0-6.0"}}, {"uniqueid": "MTK0294:3HL8HNGX468D92OFCC1ISD828P09FN", "current_trial": 17, "dateTime": 1510698152239, "trialdata": {"rt": -1, "stimulus": "<p id=\"stim\">3</p>", "key_press": -1, "trial_type": "single-stim", "trial_index": 17, "time_elapsed": 171558, "internal_node_id": "0.0-10.0-7.0"}}, {"uniqueid": "MTK0294:3HL8HNGX468D92OFCC1ISD828P09FN", "current_trial": 18, "dateTime": 1510698153241, "trialdata": {"rt": -1, "stimulus": "<p id=\"stim\">2</p>", "key_press": -1, "trial_type": "single-stim", "trial_index": 18, "time_elapsed": 172560, "internal_node_id": "0.0-10.0-8.0"}}, {"uniqueid": "MTK0294:3HL8HNGX468D92OFCC1ISD828P09FN", "current_trial": 19, "dateTime": 1510698154243, "trialdata": {"rt": -1, "stimulus": "<p id=\"stim\">1</p>", "key_press": -1, "trial_type": "single-stim", "trial_index": 19, "time_elapsed": 173562, "internal_node_id": "0.0-10.0-9.0"}}, {"uniqueid": "MTK0294:3HL8HNGX468D92OFCC1ISD828P09FN", "current_trial": 20, "dateTime": 1510698155744, "trialdata": {"rt": -1, "stimulus": "<p id=\"stim\">+</p>", "key_press": -1, "type": "FIXATION", "trial_type": "single-stim", "trial_index": 20, "time_elapsed": 175063, "internal_node_id": "0.0-11.0-0.0"}}, {"uniqueid": "MTK0294:3HL8HNGX468D92OFCC1ISD828P09FN", "current_trial": 21, "dateTime": 1510698158083, "trialdata": {"rt": -1000, "stimulus": "/static/audio/wordpool/BELLY.wav", "key_press": -1, "type": "PRES_AUD", "word": "belly", "wordID": 118, "conditions": [18, 1200, "a", 18000], "trial": 0, "serialpos": 0, "trial_type": "single-audio", "trial_index": 21, "time_elapsed": 177401, "internal_node_id": "0.0-12.0"}}, {"uniqueid": "MTK0294:3HL8HNGX468D92OFCC1ISD828P09FN", "current_trial": 22, "dateTime": 1510698160205, "trialdata": {"rt": -1000, "stimulus": "/static/audio/wordpool/OUTFIT.wav", "key_press": -1, "type": "PRES_AUD", "word": "outfit", "wordID": 987, "conditions": [18, 1200, "a", 18000], "trial": 0, "serialpos": 1, "trial_type": "single-audio", "trial_index": 22, "time_elapsed": 179524, "internal_node_id": "0.0-13.0"}}, {"uniqueid": "MTK0294:3HL8HNGX468D92OFCC1ISD828P09FN", "current_trial": 23, "dateTime": 1510698162409, "trialdata": {"rt": -1000, "stimulus": "/static/audio/wordpool/REBEL.wav", "key_press": -1, "type": "PRES_AUD", "word": "rebel", "wordID": 1171, "conditions": [18, 1200, "a", 18000], "trial": 0, "serialpos": 2, "trial_type": "single-audio", "trial_index": 23, "time_elapsed": 181728, "internal_node_id": "0.0-14.0"}}, {"uniqueid": "MTK0294:3HL8HNGX468D92OFCC1ISD828P09FN", "current_trial": 24, "dateTime": 1510698164669, "trialdata": {"rt": -1000, "stimulus": "/static/audio/wordpool/CELLAR.wav", "key_press": -1, "type": "PRES_AUD", "word": "cellar", "wordID": 266, "conditions": [18, 1200, "a", 18000], "trial": 0, "serialpos": 3, "trial_type": "single-audio", "trial_index": 24, "time_elapsed": 183988, "internal_node_id": "0.0-15.0"}}, {"uniqueid": "MTK0294:3HL8HNGX468D92OFCC1ISD828P09FN", "current_trial": 25, "dateTime": 1510698166713, "trialdata": {"rt": -1000, "stimulus": "/static/audio/wordpool/PECAN.wav", "key_press": -1, "type": "PRES_AUD", "word": "pecan", "wordID": 1035, "conditions": [18, 1200, "a", 18000], "trial": 0, "serialpos": 4, "trial_type": "single-audio", "trial_index": 25, "time_elapsed": 186032, "internal_node_id": "0.0-16.0"}}, {"uniqueid": "MTK0294:3HL8HNGX468D92OFCC1ISD828P09FN", "current_trial": 26, "dateTime": 1510698169066, "trialdata": {"rt": -1000, "stimulus": "/static/audio/wordpool/BABY.wav", "key_press": -1, "type": "PRES_AUD", "word": "baby", "wordID": 63, "conditions": [18, 1200, "a", 18000], "trial": 0, "serialpos": 5, "trial_type": "single-audio", "trial_index": 26, "time_elapsed": 188385, "internal_node_id": "0.0-17.0"}}, {"uniqueid": "MTK0294:3HL8HNGX468D92OFCC1ISD828P09FN", "current_trial": 27, "dateTime": 1510698171458, "trialdata": {"rt": -1000, "stimulus": "/static/audio/wordpool/PIANO.wav", "key_press": -1, "type": "PRES_AUD", "word": "piano", "wordID": 1056, "conditions": [18, 1200, "a", 18000], "trial": 0, "serialpos": 6, "trial_type": "single-audio", "trial_index": 27, "time_elapsed": 190777, "internal_node_id": "0.0-18.0"}}, {"uniqueid": "MTK0294:3HL8HNGX468D92OFCC1ISD828P09FN", "current_trial": 28, "dateTime": 1510698173539, "trialdata": {"rt": -1000, "stimulus": "/static/audio/wordpool/OYSTER.wav", "key_press": -1, "type": "PRES_AUD", "word": "oyster", "wordID": 994, "conditions": [18, 1200, "a", 18000], "trial": 0, "serialpos": 7, "trial_type": "single-audio", "trial_index": 28, "time_elapsed": 192858, "internal_node_id": "0.0-19.0"}}, {"uniqueid": "MTK0294:3HL8HNGX468D92OFCC1ISD828P09FN", "current_trial": 29, "dateTime": 1510698175692, "trialdata": {"rt": -1000, "stimulus": "/static/audio/wordpool/STALLION.wav", "key_press": -1, "type": "PRES_AUD", "word": "stallion", "wordID": 1368, "conditions": [18, 1200, "a", 18000], "trial": 0, "serialpos": 8, "trial_type": "single-audio", "trial_index": 29, "time_elapsed": 195010, "internal_node_id": "0.0-20.0"}}, {"uniqueid": "MTK0294:3HL8HNGX468D92OFCC1ISD828P09FN", "current_trial": 30, "dateTime": 1510698177740, "trialdata": {"rt": -1000, "stimulus": "/static/audio/wordpool/CAMEL.wav", "key_press": -1, "type": "PRES_AUD", "word": "camel", "wordID": 222, "conditions": [18, 1200, "a", 18000], "trial": 0, "serialpos": 9, "trial_type": "single-audio", "trial_index": 30, "time_elapsed": 197059, "internal_node_id": "0.0-21.0"}}, {"uniqueid": "MTK0294:3HL8HNGX468D92OFCC1ISD828P09FN", "current_trial": 31, "dateTime": 1510698179923, "trialdata": {"rt": -1000, "stimulus": "/static/audio/wordpool/ITEM.wav", "key_press": -1, "type": "PRES_AUD", "word": "item", "wordID": 745, "conditions": [18, 1200, "a", 18000], "trial": 0, "serialpos": 10, "trial_type": "single-audio", "trial_index": 31, "time_elapsed": 199242, "internal_node_id": "0.0-22.0"}}, {"uniqueid": "MTK0294:3HL8HNGX468D92OFCC1ISD828P09FN", "current_trial": 32, "dateTime": 1510698182033, "trialdata": {"rt": -1000, "stimulus": "/static/audio/wordpool/WOMAN.wav", "key_press": -1, "type": "PRES_AUD", "word": "woman", "wordID": 1619, "conditions": [18, 1200, "a", 18000], "trial": 0, "serialpos": 11, "trial_type": "single-audio", "trial_index": 32, "time_elapsed": 201352, "internal_node_id": "0.0-23.0"}}, {"uniqueid": "MTK0294:3HL8HNGX468D92OFCC1ISD828P09FN", "current_trial": 33, "dateTime": 1510698184242, "trialdata": {"rt": -1000, "stimulus": "/static/audio/wordpool/MATCH.wav", "key_press": -1, "type": "PRES_AUD", "word": "match", "wordID": 877, "conditions": [18, 1200, "a", 18000], "trial": 0, "serialpos": 12, "trial_type": "single-audio", "trial_index": 33, "time_elapsed": 203561, "internal_node_id": "0.0-24.0"}}, {"uniqueid": "MTK0294:3HL8HNGX468D92OFCC1ISD828P09FN", "current_trial": 34, "dateTime": 1510698186339, "trialdata": {"rt": -1000, "stimulus": "/static/audio/wordpool/TUTU.wav", "key_press": -1, "type": "PRES_AUD", "word": "tutu", "wordID": 1523, "conditions": [18, 1200, "a", 18000], "trial": 0, "serialpos": 13, "trial_type": "single-audio", "trial_index": 34, "time_elapsed": 205657, "internal_node_id": "0.0-25.0"}}, {"uniqueid": "MTK0294:3HL8HNGX468D92OFCC1ISD828P09FN", "current_trial": 35, "dateTime": 1510698188592, "trialdata": {"rt": -1000, "stimulus": "/static/audio/wordpool/POSTAGE.wav", "key_press": -1, "type": "PRES_AUD", "word": "postage", "wordID": 1112, "conditions": [18, 1200, "a", 18000], "trial": 0, "serialpos": 14, "trial_type": "single-audio", "trial_index": 35, "time_elapsed": 207911, "internal_node_id": "0.0-26.0"}}, {"uniqueid": "MTK0294:3HL8HNGX468D92OFCC1ISD828P09FN", "current_trial": 36, "dateTime": 1510698190623, "trialdata": {"rt": -1000, "stimulus": "/static/audio/wordpool/SPARROW.wav", "key_press": -1, "type": "PRES_AUD", "word": "sparrow", "wordID": 1346, "conditions": [18, 1200, "a", 18000], "trial": 0, "serialpos": 15, "trial_type": "single-audio", "trial_index": 36, "time_elapsed": 209941, "internal_node_id": "0.0-27.0"}}, {"uniqueid": "MTK0294:3HL8HNGX468D92OFCC1ISD828P09FN", "current_trial": 37, "dateTime": 1510698192936, "trialdata": {"rt": -1000, "stimulus": "/static/audio/wordpool/GIFT.wav", "key_press": -1, "type": "PRES_AUD", "word": "gift", "wordID": 634, "conditions": [18, 1200, "a", 18000], "trial": 0, "serialpos": 16, "trial_type": "single-audio", "trial_index": 37, "time_elapsed": 212255, "internal_node_id": "0.0-28.0"}}, {"uniqueid": "MTK0294:3HL8HNGX468D92OFCC1ISD828P09FN", "current_trial": 38, "dateTime": 1510698195308, "trialdata": {"rt": -1000, "stimulus": "/static/audio/wordpool/CLAM.wav", "key_press": -1, "type": "PRES_AUD", "word": "clam", "wordID": 314, "conditions": [18, 1200, "a", 18000], "trial": 0, "serialpos": 17, "trial_type": "single-audio", "trial_index": 38, "time_elapsed": 214627, "internal_node_id": "0.0-29.0"}}, {"uniqueid": "MTK0294:3HL8HNGX468D92OFCC1ISD828P09FN", "current_trial": 39, "dateTime": 1510698196633, "trialdata": {"rt": -1, "stimulus": "", "key_press": -1, "type": "PRE_RECALL_DELAY", "trial_type": "single-stim", "trial_index": 39, "time_elapsed": 215952, "internal_node_id": "0.0-30.0-0.0"}}, {"uniqueid": "MTK0294:3HL8HNGX468D92OFCC1ISD828P09FN", "current_trial": 40, "dateTime": 1510698197135, "trialdata": {"rt": -1000, "stimulus": "/static/audio/400Hz.wav", "key_press": -1, "type": "PRE_RECALL_ALERT", "trial_type": "single-audio", "trial_index": 40, "time_elapsed": 216454, "internal_node_id": "0.0-31.0"}}, {"uniqueid": "MTK0294:3HL8HNGX468D92OFCC1ISD828P09FN", "current_trial": 41, "dateTime": 1510698257157, "trialdata": {"rt": [3791, 5830, 7679, 10058, 13263, 18930, 39719, 40300, 40594, 40808, 41036, 41291, 41521, 41797, 53046], "recwords": ["belly", "outfit", "clam", "sparrow", "piano", "gift", "", "", "", "", "", "", "", "", "camel"], "type": "FREE_RECALL", "conditions": [18, 1200, "a", 18000], "trial": 0, "trial_type": "free-recall", "trial_index": 41, "time_elapsed": 276465, "internal_node_id": "0.0-32.0-0.0"}}, {"uniqueid": "MTK0294:3HL8HNGX468D92OFCC1ISD828P09FN", "current_trial": 42, "dateTime": 1510698267107, "trialdata": {"rt": 7948, "key_press": 32, "type": "INSTRUCTIONS", "trial_type": "text", "trial_index": 42, "time_elapsed": 286426, "internal_node_id": "0.0-33.0"}}, {"uniqueid": "MTK0294:3HL8HNGX468D92OFCC1ISD828P09FN", "current_trial": 43, "dateTime": 1510698287114, "trialdata": {"rt": [5665, 10610, 17954], "responses": ["19", "22", "13"], "num1": [5, 7, 1, 9], "num2": [5, 6, 4, 5], "num3": [9, 9, 8, 1], "type": "DISTRACTOR", "conditions": [18, 1200, "v", 18000], "trial": 1, "trial_type": "math-distractor", "trial_index": 43, "time_elapsed": 306433, "internal_node_id": "0.0-34.0"}}, {"uniqueid": "MTK0294:3HL8HNGX468D92OFCC1ISD828P09FN", "current_trial": 44, "dateTime": 1510698290119, "trialdata": {"rt": -1, "stimulus": "<p id=\"stim\">10</p>", "key_press": -1, "trial_type": "single-stim", "trial_index": 44, "time_elapsed": 309437, "internal_node_id": "0.0-35.0-0.0"}}, {"uniqueid": "MTK0294:3HL8HNGX468D92OFCC1ISD828P09FN", "current_trial": 45, "dateTime": 1510698291121, "trialdata": {"rt": -1, "stimulus": "<p id=\"stim\">9</p>", "key_press": -1, "trial_type": "single-stim", "trial_index": 45, "time_elapsed": 310439, "internal_node_id": "0.0-35.0-1.0"}}, {"uniqueid": "MTK0294:3HL8HNGX468D92OFCC1ISD828P09FN", "current_trial": 46, "dateTime": 1510698292122, "trialdata": {"rt": -1, "stimulus": "<p id=\"stim\">8</p>", "key_press": -1, "trial_type": "single-stim", "trial_index": 46, "time_elapsed": 311441, "internal_node_id": "0.0-35.0-2.0"}}, {"uniqueid": "MTK0294:3HL8HNGX468D92OFCC1ISD828P09FN", "current_trial": 47, "dateTime": 1510698293124, "trialdata": {"rt": -1, "stimulus": "<p id=\"stim\">7</p>", "key_press": -1, "trial_type": "single-stim", "trial_index": 47, "time_elapsed": 312443, "internal_node_id": "0.0-35.0-3.0"}}, {"uniqueid": "MTK0294:3HL8HNGX468D92OFCC1ISD828P09FN", "current_trial": 48, "dateTime": 1510698294126, "trialdata": {"rt": -1, "stimulus": "<p id=\"stim\">6</p>", "key_press": -1, "trial_type": "single-stim", "trial_index": 48, "time_elapsed": 313444, "internal_node_id": "0.0-35.0-4.0"}}, {"uniqueid": "MTK0294:3HL8HNGX468D92OFCC1ISD828P09FN", "current_trial": 49, "dateTime": 1510698295127, "trialdata": {"rt": -1, "stimulus": "<p id=\"stim\">5</p>", "key_press": -1, "trial_type": "single-stim", "trial_index": 49, "time_elapsed": 314446, "internal_node_id": "0.0-35.0-5.0"}}, {"uniqueid": "MTK0294:3HL8HNGX468D92OFCC1ISD828P09FN", "current_trial": 50, "dateTime": 1510698296129, "trialdata": {"rt": -1, "stimulus": "<p id=\"stim\">4</p>", "key_press": -1, "trial_type": "single-stim", "trial_index": 50, "time_elapsed": 315448, "internal_node_id": "0.0-35.0-6.0"}}, {"uniqueid": "MTK0294:3HL8HNGX468D92OFCC1ISD828P09FN", "current_trial": 51, "dateTime": 1510698297132, "trialdata": {"rt": -1, "stimulus": "<p id=\"stim\">3</p>", "key_press": -1, "trial_type": "single-stim", "trial_index": 51, "time_elapsed": 316449, "internal_node_id": "0.0-35.0-7.0"}}, {"uniqueid": "MTK0294:3HL8HNGX468D92OFCC1ISD828P09FN", "current_trial": 52, "dateTime": 1510698298134, "trialdata": {"rt": -1, "stimulus": "<p id=\"stim\">2</p>", "key_press": -1, "trial_type": "single-stim", "trial_index": 52, "time_elapsed": 317452, "internal_node_id": "0.0-35.0-8.0"}}, {"uniqueid": "MTK0294:3HL8HNGX468D92OFCC1ISD828P09FN", "current_trial": 53, "dateTime": 1510698299135, "trialdata": {"rt": -1, "stimulus": "<p id=\"stim\">1</p>", "key_press": -1, "trial_type": "single-stim", "trial_index": 53, "time_elapsed": 318454, "internal_node_id": "0.0-35.0-9.0"}}, {"uniqueid": "MTK0294:3HL8HNGX468D92OFCC1ISD828P09FN", "current_trial": 54, "dateTime": 1510698300639, "trialdata": {"rt": -1, "stimulus": "<p id=\"stim\">+</p>", "key_press": -1, "type": "FIXATION", "trial_type": "single-stim", "trial_index": 54, "time_elapsed": 319956, "internal_node_id": "0.0-36.0-0.0"}}, {"uniqueid": "MTK0294:3HL8HNGX468D92OFCC1ISD828P09FN", "current_trial": 55, "dateTime": 1510698301841, "trialdata": {"rt": -1, "stimulus": "<p id=\"stim\">BINDER</p>", "key_press": -1, "type": "PRES_VIS", "word": "binder", "wordID": 126, "conditions": [18, 1200, "v", 18000], "trial": 1, "serialpos": 0, "trial_type": "single-stim", "trial_index": 55, "time_elapsed": 321160, "internal_node_id": "0.0-37.0"}}, {"uniqueid": "MTK0294:3HL8HNGX468D92OFCC1ISD828P09FN", "current_trial": 56, "dateTime": 1510698303864, "trialdata": {"rt": -1, "stimulus": "<p id=\"stim\">MOP</p>", "key_press": -1, "type": "PRES_VIS", "word": "mop", "wordID": 915, "conditions": [18, 1200, "v", 18000], "trial": 1, "serialpos": 1, "trial_type": "single-stim", "trial_index": 56, "time_elapsed": 323183, "internal_node_id": "0.0-38.0"}}, {"uniqueid": "MTK0294:3HL8HNGX468D92OFCC1ISD828P09FN", "current_trial": 57, "dateTime": 1510698306054, "trialdata": {"rt": -1, "stimulus": "<p id=\"stim\">BOYFRIEND</p>", "key_press": -1, "type": "PRES_VIS", "word": "boyfriend", "wordID": 161, "conditions": [18, 1200, "v", 18000], "trial": 1, "serialpos": 2, "trial_type": "single-stim", "trial_index": 57, "time_elapsed": 325373, "internal_node_id": "0.0-39.0"}}, {"uniqueid": "MTK0294:3HL8HNGX468D92OFCC1ISD828P09FN", "current_trial": 58, "dateTime": 1510698308419, "trialdata": {"rt": -1, "stimulus": "<p id=\"stim\">BROTHER</p>", "key_press": -1, "type": "PRES_VIS", "word": "brother", "wordID": 178, "conditions": [18, 1200, "v", 18000], "trial": 1, "serialpos": 3, "trial_type": "single-stim", "trial_index": 58, "time_elapsed": 327738, "internal_node_id": "0.0-40.0"}}, {"uniqueid": "MTK0294:3HL8HNGX468D92OFCC1ISD828P09FN", "current_trial": 59, "dateTime": 1510698310625, "trialdata": {"rt": -1, "stimulus": "<p id=\"stim\">CRATER</p>", "key_press": -1, "type": "PRES_VIS", "word": "crater", "wordID": 399, "conditions": [18, 1200, "v", 18000], "trial": 1, "serialpos": 4, "trial_type": "single-stim", "trial_index": 59, "time_elapsed": 329944, "internal_node_id": "0.0-41.0"}}, {"uniqueid": "MTK0294:3HL8HNGX468D92OFCC1ISD828P09FN", "current_trial": 60, "dateTime": 1510698312947, "trialdata": {"rt": -1, "stimulus": "<p id=\"stim\">ORANGE</p>", "key_press": -1, "type": "PRES_VIS", "word": "orange", "wordID": 979, "conditions": [18, 1200, "v", 18000], "trial": 1, "serialpos": 5, "trial_type": "single-stim", "trial_index": 60, "time_elapsed": 332266, "internal_node_id": "0.0-42.0"}}, {"uniqueid": "MTK0294:3HL8HNGX468D92OFCC1ISD828P09FN", "current_trial": 61, "dateTime": 1510698315314, "trialdata": {"rt": -1, "stimulus": "<p id=\"stim\">VELVET</p>", "key_press": -1, "type": "PRES_VIS", "word": "velvet", "wordID": 1554, "conditions": [18, 1200, "v", 18000], "trial": 1, "serialpos": 6, "trial_type": "single-stim", "trial_index": 61, "time_elapsed": 334633, "internal_node_id": "0.0-43.0"}}, {"uniqueid": "MTK0294:3HL8HNGX468D92OFCC1ISD828P09FN", "current_trial": 62, "dateTime": 1510698317504, "trialdata": {"rt": -1, "stimulus": "<p id=\"stim\">FLASK</p>", "key_press": -1, "type": "PRES_VIS", "word": "flask", "wordID": 575, "conditions": [18, 1200, "v", 18000], "trial": 1, "serialpos": 7, "trial_type": "single-stim", "trial_index": 62, "time_elapsed": 336823, "internal_node_id": "0.0-44.0"}}, {"uniqueid": "MTK0294:3HL8HNGX468D92OFCC1ISD828P09FN", "current_trial": 63, "dateTime": 1510698319533, "trialdata": {"rt": -1, "stimulus": "<p id=\"stim\">MISSILE</p>", "key_press": -1, "type": "PRES_VIS", "word": "missile", "wordID": 899, "conditions": [18, 1200, "v", 18000], "trial": 1, "serialpos": 8, "trial_type": "single-stim", "trial_index": 63, "time_elapsed": 338852, "internal_node_id": "0.0-45.0"}}, {"uniqueid": "MTK0294:3HL8HNGX468D92OFCC1ISD828P09FN", "current_trial": 64, "dateTime": 1510698321861, "trialdata": {"rt": -1, "stimulus": "<p id=\"stim\">CLOCK</p>", "key_press": -1, "type": "PRES_VIS", "word": "clock", "wordID": 324, "conditions": [18, 1200, "v", 18000], "trial": 1, "serialpos": 9, "trial_type": "single-stim", "trial_index": 64, "time_elapsed": 341180, "internal_node_id": "0.0-46.0"}}, {"uniqueid": "MTK0294:3HL8HNGX468D92OFCC1ISD828P09FN", "current_trial": 65, "dateTime": 1510698324039, "trialdata": {"rt": -1, "stimulus": "<p id=\"stim\">BROOK</p>", "key_press": -1, "type": "PRES_VIS", "word": "brook", "wordID": 176, "conditions": [18, 1200, "v", 18000], "trial": 1, "serialpos": 10, "trial_type": "single-stim", "trial_index": 65, "time_elapsed": 343358, "internal_node_id": "0.0-47.0"}}, {"uniqueid": "MTK0294:3HL8HNGX468D92OFCC1ISD828P09FN", "current_trial": 66, "dateTime": 1510698326267, "trialdata": {"rt": -1, "stimulus": "<p id=\"stim\">FEMALE</p>", "key_press": -1, "type": "PRES_VIS", "word": "female", "wordID": 558, "conditions": [18, 1200, "v", 18000], "trial": 1, "serialpos": 11, "trial_type": "single-stim", "trial_index": 66, "time_elapsed": 345586, "internal_node_id": "0.0-48.0"}}, {"uniqueid": "MTK0294:3HL8HNGX468D92OFCC1ISD828P09FN", "current_trial": 67, "dateTime": 1510698328565, "trialdata": {"rt": -1, "stimulus": "<p id=\"stim\">SPONGE</p>", "key_press": -1, "type": "PRES_VIS", "word": "sponge", "wordID": 1354, "conditions": [18, 1200, "v", 18000], "trial": 1, "serialpos": 12, "trial_type": "single-stim", "trial_index": 67, "time_elapsed": 347883, "internal_node_id": "0.0-49.0"}}, {"uniqueid": "MTK0294:3HL8HNGX468D92OFCC1ISD828P09FN", "current_trial": 68, "dateTime": 1510698330701, "trialdata": {"rt": -1, "stimulus": "<p id=\"stim\">FUNGUS</p>", "key_press": -1, "type": "PRES_VIS", "word": "fungus", "wordID": 613, "conditions": [18, 1200, "v", 18000], "trial": 1, "serialpos": 13, "trial_type": "single-stim", "trial_index": 68, "time_elapsed": 350020, "internal_node_id": "0.0-50.0"}}, {"uniqueid": "MTK0294:3HL8HNGX468D92OFCC1ISD828P09FN", "current_trial": 69, "dateTime": 1510698332710, "trialdata": {"rt": -1, "stimulus": "<p id=\"stim\">BUGGY</p>", "key_press": -1, "type": "PRES_VIS", "word": "buggy", "wordID": 187, "conditions": [18, 1200, "v", 18000], "trial": 1, "serialpos": 14, "trial_type": "single-stim", "trial_index": 69, "time_elapsed": 352029, "internal_node_id": "0.0-51.0"}}, {"uniqueid": "MTK0294:3HL8HNGX468D92OFCC1ISD828P09FN", "current_trial": 70, "dateTime": 1510698334811, "trialdata": {"rt": -1, "stimulus": "<p id=\"stim\">LASER</p>", "key_press": -1, "type": "PRES_VIS", "word": "laser", "wordID": 800, "conditions": [18, 1200, "v", 18000], "trial": 1, "serialpos": 15, "trial_type": "single-stim", "trial_index": 70, "time_elapsed": 354130, "internal_node_id": "0.0-52.0"}}, {"uniqueid": "MTK0294:3HL8HNGX468D92OFCC1ISD828P09FN", "current_trial": 71, "dateTime": 1510698337072, "trialdata": {"rt": -1, "stimulus": "<p id=\"stim\">SHELTER</p>", "key_press": -1, "type": "PRES_VIS", "word": "shelter", "wordID": 1281, "conditions": [18, 1200, "v", 18000], "trial": 1, "serialpos": 16, "trial_type": "single-stim", "trial_index": 71, "time_elapsed": 356391, "internal_node_id": "0.0-53.0"}}, {"uniqueid": "MTK0294:3HL8HNGX468D92OFCC1ISD828P09FN", "current_trial": 72, "dateTime": 1510698339171, "trialdata": {"rt": -1, "stimulus": "<p id=\"stim\">HOSTESS</p>", "key_press": -1, "type": "PRES_VIS", "word": "hostess", "wordID": 722, "conditions": [18, 1200, "v", 18000], "trial": 1, "serialpos": 17, "trial_type": "single-stim", "trial_index": 72, "time_elapsed": 358490, "internal_node_id": "0.0-54.0"}}, {"uniqueid": "MTK0294:3HL8HNGX468D92OFCC1ISD828P09FN", "current_trial": 73, "dateTime": 1510698341568, "trialdata": {"rt": -1, "stimulus": "", "key_press": -1, "type": "PRE_RECALL_DELAY", "trial_type": "single-stim", "trial_index": 73, "time_elapsed": 360886, "internal_node_id": "0.0-55.0-0.0"}}, {"uniqueid": "MTK0294:3HL8HNGX468D92OFCC1ISD828P09FN", "current_trial": 74, "dateTime": 1510698342071, "trialdata": {"rt": -1000, "stimulus": "/static/audio/400Hz.wav", "key_press": -1, "type": "PRE_RECALL_ALERT", "trial_type": "single-audio", "trial_index": 74, "time_elapsed": 361390, "internal_node_id": "0.0-56.0"}}, {"uniqueid": "MTK0294:3HL8HNGX468D92OFCC1ISD828P09FN", "current_trial": 75, "dateTime": 1510698402095, "trialdata": {"rt": [4498, 6787, 10297, 16146, 18330, 26112, 31190, 33871, 39246, 40641, 40863, 41045, 41226, 41456, 41562, 41675, 41785, 41888, 42125, 42242, 42448, 42553, 42667, 42777, 42902, 43124, 43234, 43359, 44132], "recwords": ["binder", "mope", "friend", "brother", "organe", "missile", "shelter", "hostess", "laser", "", "", "", "", "", "", "", "", "", "", "", "", "", "", "", "", "", "", "", ""], "type": "FREE_RECALL", "conditions": [18, 1200, "v", 18000], "trial": 1, "trial_type": "free-recall", "trial_index": 75, "time_elapsed": 421402, "internal_node_id": "0.0-57.0-0.0"}}, {"uniqueid": "MTK0294:3HL8HNGX468D92OFCC1ISD828P09FN", "current_trial": 76, "dateTime": 1510698415866, "trialdata": {"rt": 11757, "key_press": 32, "type": "INSTRUCTIONS", "trial_type": "text", "trial_index": 76, "time_elapsed": 435175, "internal_node_id": "0.0-58.0"}}, {"uniqueid": "MTK0294:3HL8HNGX468D92OFCC1ISD828P09FN", "current_trial": 77, "dateTime": 1510698428872, "trialdata": {"rt": [3027, 5734, 8484, 8576], "responses": ["16", "14", "19", ""], "num1": [7, 2, 3, 8, 8], "num2": [7, 7, 8, 6, 1], "num3": [2, 5, 8, 5, 6], "type": "DISTRACTOR", "conditions": [12, 1600, "v", 12000], "trial": 2, "trial_type": "math-distractor", "trial_index": 77, "time_elapsed": 448190, "internal_node_id": "0.0-59.0"}}, {"uniqueid": "MTK0294:3HL8HNGX468D92OFCC1ISD828P09FN", "current_trial": 78, "dateTime": 1510698431900, "trialdata": {"rt": -1, "stimulus": "<p id=\"stim\">10</p>", "key_press": -1, "trial_type": "single-stim", "trial_index": 78, "time_elapsed": 451219, "internal_node_id": "0.0-60.0-0.0"}}, {"uniqueid": "MTK0294:3HL8HNGX468D92OFCC1ISD828P09FN", "current_trial": 79, "dateTime": 1510698432901, "trialdata": {"rt": -1, "stimulus": "<p id=\"stim\">9</p>", "key_press": -1, "trial_type": "single-stim", "trial_index": 79, "time_elapsed": 452220, "internal_node_id": "0.0-60.0-1.0"}}, {"uniqueid": "MTK0294:3HL8HNGX468D92OFCC1ISD828P09FN", "current_trial": 80, "dateTime": 1510698433903, "trialdata": {"rt": -1, "stimulus": "<p id=\"stim\">8</p>", "key_press": -1, "trial_type": "single-stim", "trial_index": 80, "time_elapsed": 453222, "internal_node_id": "0.0-60.0-2.0"}}, {"uniqueid": "MTK0294:3HL8HNGX468D92OFCC1ISD828P09FN", "current_trial": 81, "dateTime": 1510698434904, "trialdata": {"rt": -1, "stimulus": "<p id=\"stim\">7</p>", "key_press": -1, "trial_type": "single-stim", "trial_index": 81, "time_elapsed": 454223, "internal_node_id": "0.0-60.0-3.0"}}, {"uniqueid": "MTK0294:3HL8HNGX468D92OFCC1ISD828P09FN", "current_trial": 82, "dateTime": 1510698435905, "trialdata": {"rt": -1, "stimulus": "<p id=\"stim\">6</p>", "key_press": -1, "trial_type": "single-stim", "trial_index": 82, "time_elapsed": 455224, "internal_node_id": "0.0-60.0-4.0"}}, {"uniqueid": "MTK0294:3HL8HNGX468D92OFCC1ISD828P09FN", "current_trial": 83, "dateTime": 1510698436907, "trialdata": {"rt": -1, "stimulus": "<p id=\"stim\">5</p>", "key_press": -1, "trial_type": "single-stim", "trial_index": 83, "time_elapsed": 456226, "internal_node_id": "0.0-60.0-5.0"}}, {"uniqueid": "MTK0294:3HL8HNGX468D92OFCC1ISD828P09FN", "current_trial": 84, "dateTime": 1510698437909, "trialdata": {"rt": -1, "stimulus": "<p id=\"stim\">4</p>", "key_press": -1, "trial_type": "single-stim", "trial_index": 84, "time_elapsed": 457227, "internal_node_id": "0.0-60.0-6.0"}}, {"uniqueid": "MTK0294:3HL8HNGX468D92OFCC1ISD828P09FN", "current_trial": 85, "dateTime": 1510698438910, "trialdata": {"rt": -1, "stimulus": "<p id=\"stim\">3</p>", "key_press": -1, "trial_type": "single-stim", "trial_index": 85, "time_elapsed": 458229, "internal_node_id": "0.0-60.0-7.0"}}, {"uniqueid": "MTK0294:3HL8HNGX468D92OFCC1ISD828P09FN", "current_trial": 86, "dateTime": 1510698439912, "trialdata": {"rt": -1, "stimulus": "<p id=\"stim\">2</p>", "key_press": -1, "trial_type": "single-stim", "trial_index": 86, "time_elapsed": 459231, "internal_node_id": "0.0-60.0-8.0"}}, {"uniqueid": "MTK0294:3HL8HNGX468D92OFCC1ISD828P09FN", "current_trial": 87, "dateTime": 1510698440914, "trialdata": {"rt": -1, "stimulus": "<p id=\"stim\">1</p>", "key_press": -1, "trial_type": "single-stim", "trial_index": 87, "time_elapsed": 460232, "internal_node_id": "0.0-60.0-9.0"}}, {"uniqueid": "MTK0294:3HL8HNGX468D92OFCC1ISD828P09FN", "current_trial": 88, "dateTime": 1510698442416, "trialdata": {"rt": -1, "stimulus": "<p id=\"stim\">+</p>", "key_press": -1, "type": "FIXATION", "trial_type": "single-stim", "trial_index": 88, "time_elapsed": 461734, "internal_node_id": "0.0-61.0-0.0"}}, {"uniqueid": "MTK0294:3HL8HNGX468D92OFCC1ISD828P09FN", "current_trial": 89, "dateTime": 1510698444017, "trialdata": {"rt": -1, "stimulus": "<p id=\"stim\">HIGHWAY</p>", "key_press": -1, "type": "PRES_VIS", "word": "highway", "wordID": 706, "conditions": [12, 1600, "v", 12000], "trial": 2, "serialpos": 0, "trial_type": "single-stim", "trial_index": 89, "time_elapsed": 463336, "internal_node_id": "0.0-62.0"}}, {"uniqueid": "MTK0294:3HL8HNGX468D92OFCC1ISD828P09FN", "current_trial": 90, "dateTime": 1510698446437, "trialdata": {"rt": -1, "stimulus": "<p id=\"stim\">SEAGULL</p>", "key_press": -1, "type": "PRES_VIS", "word": "seagull", "wordID": 1260, "conditions": [12, 1600, "v", 12000], "trial": 2, "serialpos": 1, "trial_type": "single-stim", "trial_index": 90, "time_elapsed": 465756, "internal_node_id": "0.0-63.0"}}, {"uniqueid": "MTK0294:3HL8HNGX468D92OFCC1ISD828P09FN", "current_trial": 91, "dateTime": 1510698448940, "trialdata": {"rt": -1, "stimulus": "<p id=\"stim\">JAPAN</p>", "key_press": -1, "type": "PRES_VIS", "word": "japan", "wordID": 748, "conditions": [12, 1600, "v", 12000], "trial": 2, "serialpos": 2, "trial_type": "single-stim", "trial_index": 91, "time_elapsed": 468258, "internal_node_id": "0.0-64.0"}}, {"uniqueid": "MTK0294:3HL8HNGX468D92OFCC1ISD828P09FN", "current_trial": 92, "dateTime": 1510698451671, "trialdata": {"rt": -1, "stimulus": "<p id=\"stim\">STUDENT</p>", "key_press": -1, "type": "PRES_VIS", "word": "student", "wordID": 1394, "conditions": [12, 1600, "v", 12000], "trial": 2, "serialpos": 3, "trial_type": "single-stim", "trial_index": 92, "time_elapsed": 470990, "internal_node_id": "0.0-65.0"}}, {"uniqueid": "MTK0294:3HL8HNGX468D92OFCC1ISD828P09FN", "current_trial": 93, "dateTime": 1510698454365, "trialdata": {"rt": -1, "stimulus": "<p id=\"stim\">HUMAN</p>", "key_press": -1, "type": "PRES_VIS", "word": "human", "wordID": 725, "conditions": [12, 1600, "v", 12000], "trial": 2, "serialpos": 4, "trial_type": "single-stim", "trial_index": 93, "time_elapsed": 473683, "internal_node_id": "0.0-66.0"}}, {"uniqueid": "MTK0294:3HL8HNGX468D92OFCC1ISD828P09FN", "current_trial": 94, "dateTime": 1510698457068, "trialdata": {"rt": -1, "stimulus": "<p id=\"stim\">BURGLAR</p>", "key_press": -1, "type": "PRES_VIS", "word": "burglar", "wordID": 199, "conditions": [12, 1600, "v", 12000], "trial": 2, "serialpos": 5, "trial_type": "single-stim", "trial_index": 94, "time_elapsed": 476387, "internal_node_id": "0.0-67.0"}}, {"uniqueid": "MTK0294:3HL8HNGX468D92OFCC1ISD828P09FN", "current_trial": 95, "dateTime": 1510698459622, "trialdata": {"rt": -1, "stimulus": "<p id=\"stim\">LILY</p>", "key_press": -1, "type": "PRES_VIS", "word": "lily", "wordID": 820, "conditions": [12, 1600, "v", 12000], "trial": 2, "serialpos": 6, "trial_type": "single-stim", "trial_index": 95, "time_elapsed": 478941, "internal_node_id": "0.0-68.0"}}, {"uniqueid": "MTK0294:3HL8HNGX468D92OFCC1ISD828P09FN", "current_trial": 96, "dateTime": 1510698462044, "trialdata": {"rt": -1, "stimulus": "<p id=\"stim\">FLOWER</p>", "key_press": -1, "type": "PRES_VIS", "word": "flower", "wordID": 583, "conditions": [12, 1600, "v", 12000], "trial": 2, "serialpos": 7, "trial_type": "single-stim", "trial_index": 96, "time_elapsed": 481363, "internal_node_id": "0.0-69.0"}}, {"uniqueid": "MTK0294:3HL8HNGX468D92OFCC1ISD828P09FN", "current_trial": 97, "dateTime": 1510698464676, "trialdata": {"rt": -1, "stimulus": "<p id=\"stim\">ASIA</p>", "key_press": -1, "type": "PRES_VIS", "word": "asia", "wordID": 45, "conditions": [12, 1600, "v", 12000], "trial": 2, "serialpos": 8, "trial_type": "single-stim", "trial_index": 97, "time_elapsed": 483995, "internal_node_id": "0.0-70.0"}}, {"uniqueid": "MTK0294:3HL8HNGX468D92OFCC1ISD828P09FN", "current_trial": 98, "dateTime": 1510698467294, "trialdata": {"rt": -1, "stimulus": "<p id=\"stim\">ZEBRA</p>", "key_press": -1, "type": "PRES_VIS", "word": "zebra", "wordID": 1634, "conditions": [12, 1600, "v", 12000], "trial": 2, "serialpos": 9, "trial_type": "single-stim", "trial_index": 98, "time_elapsed": 486613, "internal_node_id": "0.0-71.0"}}, {"uniqueid": "MTK0294:3HL8HNGX468D92OFCC1ISD828P09FN", "current_trial": 99, "dateTime": 1510698469855, "trialdata": {"rt": -1, "stimulus": "<p id=\"stim\">MAPLE</p>", "key_press": -1, "type": "PRES_VIS", "word": "maple", "wordID": 865, "conditions": [12, 1600, "v", 12000], "trial": 2, "serialpos": 10, "trial_type": "single-stim", "trial_index": 99, "time_elapsed": 489173, "internal_node_id": "0.0-72.0"}}, {"uniqueid": "MTK0294:3HL8HNGX468D92OFCC1ISD828P09FN", "current_trial": 100, "dateTime": 1510698472458, "trialdata": {"rt": -1, "stimulus": "<p id=\"stim\">CRICKET</p>", "key_press": -1, "type": "PRES_VIS", "word": "cricket", "wordID": 407, "conditions": [12, 1600, "v", 12000], "trial": 2, "serialpos": 11, "trial_type": "single-stim", "trial_index": 100, "time_elapsed": 491777, "internal_node_id": "0.0-73.0"}}, {"uniqueid": "MTK0294:3HL8HNGX468D92OFCC1ISD828P09FN", "current_trial": 101, "dateTime": 1510698474884, "trialdata": {"rt": -1, "stimulus": "", "key_press": -1, "type": "PRE_RECALL_DELAY", "trial_type": "single-stim", "trial_index": 101, "time_elapsed": 494203, "internal_node_id": "0.0-74.0-0.0"}}, {"uniqueid": "MTK0294:3HL8HNGX468D92OFCC1ISD828P09FN", "current_trial": 102, "dateTime": 1510698475387, "trialdata": {"rt": -1000, "stimulus": "/static/audio/400Hz.wav", "key_press": -1, "type": "PRE_RECALL_ALERT", "trial_type": "single-audio", "trial_index": 102, "time_elapsed": 494705, "internal_node_id": "0.0-75.0"}}, {"uniqueid": "MTK0294:3HL8HNGX468D92OFCC1ISD828P09FN", "current_trial": 103, "dateTime": 1510698535412, "trialdata": {"rt": [5982, 8967, 13865, 26433, 32467, 33971, 35892, 38070, 38276, 38433, 38519, 38764], "recwords": ["highway", "seagull", "japan", "burglar", "cricket", "maple", "zebra", "", "", "", "", ""], "type": "FREE_RECALL", "conditions": [12, 1600, "v", 12000], "trial": 2, "trial_type": "free-recall", "trial_index": 103, "time_elapsed": 554715, "internal_node_id": "0.0-76.0-0.0"}}, {"uniqueid": "MTK0294:3HL8HNGX468D92OFCC1ISD828P09FN", "current_trial": 104, "dateTime": 1510698538955, "trialdata": {"rt": 1540, "key_press": 32, "type": "INSTRUCTIONS", "trial_type": "text", "trial_index": 104, "time_elapsed": 558274, "internal_node_id": "0.0-77.0"}}, {"uniqueid": "MTK0294:3HL8HNGX468D92OFCC1ISD828P09FN", "current_trial": 105, "dateTime": 1510698552962, "trialdata": {"rt": [1923, 6327, 8261, 10737], "responses": ["18", "26", "12", "16"], "num1": [5, 9, 3, 3, 9], "num2": [5, 9, 1, 9, 7], "num3": [8, 8, 8, 4, 7], "type": "DISTRACTOR", "conditions": [24, 1600, "v", 12000], "trial": 3, "trial_type": "math-distractor", "trial_index": 105, "time_elapsed": 572281, "internal_node_id": "0.0-78.0"}}, {"uniqueid": "MTK0294:3HL8HNGX468D92OFCC1ISD828P09FN", "current_trial": 106, "dateTime": 1510698555967, "trialdata": {"rt": -1, "stimulus": "<p id=\"stim\">10</p>", "key_press": -1, "trial_type": "single-stim", "trial_index": 106, "time_elapsed": 575286, "internal_node_id": "0.0-79.0-0.0"}}, {"uniqueid": "MTK0294:3HL8HNGX468D92OFCC1ISD828P09FN", "current_trial": 107, "dateTime": 1510698556968, "trialdata": {"rt": -1, "stimulus": "<p id=\"stim\">9</p>", "key_press": -1, "trial_type": "single-stim", "trial_index": 107, "time_elapsed": 576287, "internal_node_id": "0.0-79.0-1.0"}}, {"uniqueid": "MTK0294:3HL8HNGX468D92OFCC1ISD828P09FN", "current_trial": 108, "dateTime": 1510698557970, "trialdata": {"rt": -1, "stimulus": "<p id=\"stim\">8</p>", "key_press": -1, "trial_type": "single-stim", "trial_index": 108, "time_elapsed": 577288, "internal_node_id": "0.0-79.0-2.0"}}, {"uniqueid": "MTK0294:3HL8HNGX468D92OFCC1ISD828P09FN", "current_trial": 109, "dateTime": 1510698558971, "trialdata": {"rt": -1, "stimulus": "<p id=\"stim\">7</p>", "key_press": -1, "trial_type": "single-stim", "trial_index": 109, "time_elapsed": 578290, "internal_node_id": "0.0-79.0-3.0"}}, {"uniqueid": "MTK0294:3HL8HNGX468D92OFCC1ISD828P09FN", "current_trial": 110, "dateTime": 1510698559974, "trialdata": {"rt": -1, "stimulus": "<p id=\"stim\">6</p>", "key_press": -1, "trial_type": "single-stim", "trial_index": 110, "time_elapsed": 579292, "internal_node_id": "0.0-79.0-4.0"}}, {"uniqueid": "MTK0294:3HL8HNGX468D92OFCC1ISD828P09FN", "current_trial": 111, "dateTime": 1510698560975, "trialdata": {"rt": -1, "stimulus": "<p id=\"stim\">5</p>", "key_press": -1, "trial_type": "single-stim", "trial_index": 111, "time_elapsed": 580294, "internal_node_id": "0.0-79.0-5.0"}}, {"uniqueid": "MTK0294:3HL8HNGX468D92OFCC1ISD828P09FN", "current_trial": 112, "dateTime": 1510698561977, "trialdata": {"rt": -1, "stimulus": "<p id=\"stim\">4</p>", "key_press": -1, "trial_type": "single-stim", "trial_index": 112, "time_elapsed": 581296, "internal_node_id": "0.0-79.0-6.0"}}, {"uniqueid": "MTK0294:3HL8HNGX468D92OFCC1ISD828P09FN", "current_trial": 113, "dateTime": 1510698562979, "trialdata": {"rt": -1, "stimulus": "<p id=\"stim\">3</p>", "key_press": -1, "trial_type": "single-stim", "trial_index": 113, "time_elapsed": 582298, "internal_node_id": "0.0-79.0-7.0"}}, {"uniqueid": "MTK0294:3HL8HNGX468D92OFCC1ISD828P09FN", "current_trial": 114, "dateTime": 1510698563981, "trialdata": {"rt": -1, "stimulus": "<p id=\"stim\">2</p>", "key_press": -1, "trial_type": "single-stim", "trial_index": 114, "time_elapsed": 583299, "internal_node_id": "0.0-79.0-8.0"}}, {"uniqueid": "MTK0294:3HL8HNGX468D92OFCC1ISD828P09FN", "current_trial": 115, "dateTime": 1510698564982, "trialdata": {"rt": -1, "stimulus": "<p id=\"stim\">1</p>", "key_press": -1, "trial_type": "single-stim", "trial_index": 115, "time_elapsed": 584301, "internal_node_id": "0.0-79.0-9.0"}}, {"uniqueid": "MTK0294:3HL8HNGX468D92OFCC1ISD828P09FN", "current_trial": 116, "dateTime": 1510698566485, "trialdata": {"rt": -1, "stimulus": "<p id=\"stim\">+</p>", "key_press": -1, "type": "FIXATION", "trial_type": "single-stim", "trial_index": 116, "time_elapsed": 585803, "internal_node_id": "0.0-80.0-0.0"}}, {"uniqueid": "MTK0294:3HL8HNGX468D92OFCC1ISD828P09FN", "current_trial": 117, "dateTime": 1510698568086, "trialdata": {"rt": -1, "stimulus": "<p id=\"stim\">COUSIN</p>", "key_press": -1, "type": "PRES_VIS", "word": "cousin", "wordID": 391, "conditions": [24, 1600, "v", 12000], "trial": 3, "serialpos": 0, "trial_type": "single-stim", "trial_index": 117, "time_elapsed": 587405, "internal_node_id": "0.0-81.0"}}, {"uniqueid": "MTK0294:3HL8HNGX468D92OFCC1ISD828P09FN", "current_trial": 118, "dateTime": 1510698570762, "trialdata": {"rt": -1, "stimulus": "<p id=\"stim\">SISTER</p>", "key_press": -1, "type": "PRES_VIS", "word": "sister", "wordID": 1311, "conditions": [24, 1600, "v", 12000], "trial": 3, "serialpos": 1, "trial_type": "single-stim", "trial_index": 118, "time_elapsed": 590081, "internal_node_id": "0.0-82.0"}}, {"uniqueid": "MTK0294:3HL8HNGX468D92OFCC1ISD828P09FN", "current_trial": 119, "dateTime": 1510698573198, "trialdata": {"rt": -1, "stimulus": "<p id=\"stim\">CAFE</p>", "key_press": -1, "type": "PRES_VIS", "word": "cafe", "wordID": 215, "conditions": [24, 1600, "v", 12000], "trial": 3, "serialpos": 2, "trial_type": "single-stim", "trial_index": 119, "time_elapsed": 592517, "internal_node_id": "0.0-83.0"}}, {"uniqueid": "MTK0294:3HL8HNGX468D92OFCC1ISD828P09FN", "current_trial": 120, "dateTime": 1510698575952, "trialdata": {"rt": -1, "stimulus": "<p id=\"stim\">CRIB</p>", "key_press": -1, "type": "PRES_VIS", "word": "crib", "wordID": 406, "conditions": [24, 1600, "v", 12000], "trial": 3, "serialpos": 3, "trial_type": "single-stim", "trial_index": 120, "time_elapsed": 595271, "internal_node_id": "0.0-84.0"}}, {"uniqueid": "MTK0294:3HL8HNGX468D92OFCC1ISD828P09FN", "current_trial": 121, "dateTime": 1510698578370, "trialdata": {"rt": -1, "stimulus": "<p id=\"stim\">CARROT</p>", "key_press": -1, "type": "PRES_VIS", "word": "carrot", "wordID": 248, "conditions": [24, 1600, "v", 12000], "trial": 3, "serialpos": 4, "trial_type": "single-stim", "trial_index": 121, "time_elapsed": 597689, "internal_node_id": "0.0-85.0"}}, {"uniqueid": "MTK0294:3HL8HNGX468D92OFCC1ISD828P09FN", "current_trial": 122, "dateTime": 1510698581121, "trialdata": {"rt": -1, "stimulus": "<p id=\"stim\">LAGOON</p>", "key_press": -1, "type": "PRES_VIS", "word": "lagoon", "wordID": 794, "conditions": [24, 1600, "v", 12000], "trial": 3, "serialpos": 5, "trial_type": "single-stim", "trial_index": 122, "time_elapsed": 600439, "internal_node_id": "0.0-86.0"}}, {"uniqueid": "MTK0294:3HL8HNGX468D92OFCC1ISD828P09FN", "current_trial": 123, "dateTime": 1510698583809, "trialdata": {"rt": -1, "stimulus": "<p id=\"stim\">GARDEN</p>", "key_press": -1, "type": "PRES_VIS", "word": "garden", "wordID": 622, "conditions": [24, 1600, "v", 12000], "trial": 3, "serialpos": 6, "trial_type": "single-stim", "trial_index": 123, "time_elapsed": 603128, "internal_node_id": "0.0-87.0"}}, {"uniqueid": "MTK0294:3HL8HNGX468D92OFCC1ISD828P09FN", "current_trial": 124, "dateTime": 1510698586608, "trialdata": {"rt": -1, "stimulus": "<p id=\"stim\">IGLOO</p>", "key_press": -1, "type": "PRES_VIS", "word": "igloo", "wordID": 733, "conditions": [24, 1600, "v", 12000], "trial": 3, "serialpos": 7, "trial_type": "single-stim", "trial_index": 124, "time_elapsed": 605927, "internal_node_id": "0.0-88.0"}}, {"uniqueid": "MTK0294:3HL8HNGX468D92OFCC1ISD828P09FN", "current_trial": 125, "dateTime": 1510698589280, "trialdata": {"rt": -1, "stimulus": "<p id=\"stim\">BUNNY</p>", "key_press": -1, "type": "PRES_VIS", "word": "bunny", "wordID": 197, "conditions": [24, 1600, "v", 12000], "trial": 3, "serialpos": 8, "trial_type": "single-stim", "trial_index": 125, "time_elapsed": 608599, "internal_node_id": "0.0-89.0"}}, {"uniqueid": "MTK0294:3HL8HNGX468D92OFCC1ISD828P09FN", "current_trial": 126, "dateTime": 1510698591810, "trialdata": {"rt": -1, "stimulus": "<p id=\"stim\">BADGE</p>", "key_press": -1, "type": "PRES_VIS", "word": "badge", "wordID": 67, "conditions": [24, 1600, "v", 12000], "trial": 3, "serialpos": 9, "trial_type": "single-stim", "trial_index": 126, "time_elapsed": 611129, "internal_node_id": "0.0-90.0"}}, {"uniqueid": "MTK0294:3HL8HNGX468D92OFCC1ISD828P09FN", "current_trial": 127, "dateTime": 1510698594308, "trialdata": {"rt": -1, "stimulus": "<p id=\"stim\">COMPASS</p>", "key_press": -1, "type": "PRES_VIS", "word": "compass", "wordID": 357, "conditions": [24, 1600, "v", 12000], "trial": 3, "serialpos": 10, "trial_type": "single-stim", "trial_index": 127, "time_elapsed": 613626, "internal_node_id": "0.0-91.0"}}, {"uniqueid": "MTK0294:3HL8HNGX468D92OFCC1ISD828P09FN", "current_trial": 128, "dateTime": 1510698597091, "trialdata": {"rt": -1, "stimulus": "<p id=\"stim\">SHRUB</p>", "key_press": -1, "type": "PRES_VIS", "word": "shrub", "wordID": 1298, "conditions": [24, 1600, "v", 12000], "trial": 3, "serialpos": 11, "trial_type": "single-stim", "trial_index": 128, "time_elapsed": 616410, "internal_node_id": "0.0-92.0"}}, {"uniqueid": "MTK0294:3HL8HNGX468D92OFCC1ISD828P09FN", "current_trial": 129, "dateTime": 1510698599518, "trialdata": {"rt": -1, "stimulus": "<p id=\"stim\">WARDROBE</p>", "key_press": -1, "type": "PRES_VIS", "word": "wardrobe", "wordID": 1586, "conditions": [24, 1600, "v", 12000], "trial": 3, "serialpos": 12, "trial_type": "single-stim", "trial_index": 129, "time_elapsed": 618837, "internal_node_id": "0.0-93.0"}}, {"uniqueid": "MTK0294:3HL8HNGX468D92OFCC1ISD828P09FN", "current_trial": 130, "dateTime": 1510698601975, "trialdata": {"rt": -1, "stimulus": "<p id=\"stim\">OFFICE</p>", "key_press": -1, "type": "PRES_VIS", "word": "office", "wordID": 971, "conditions": [24, 1600, "v", 12000], "trial": 3, "serialpos": 13, "trial_type": "single-stim", "trial_index": 130, "time_elapsed": 621294, "internal_node_id": "0.0-94.0"}}, {"uniqueid": "MTK0294:3HL8HNGX468D92OFCC1ISD828P09FN", "current_trial": 131, "dateTime": 1510698604642, "trialdata": {"rt": -1, "stimulus": "<p id=\"stim\">SKETCH</p>", "key_press": -1, "type": "PRES_VIS", "word": "sketch", "wordID": 1314, "conditions": [24, 1600, "v", 12000], "trial": 3, "serialpos": 14, "trial_type": "single-stim", "trial_index": 131, "time_elapsed": 623961, "internal_node_id": "0.0-95.0"}}, {"uniqueid": "MTK0294:3HL8HNGX468D92OFCC1ISD828P09FN", "current_trial": 132, "dateTime": 1510698607272, "trialdata": {"rt": -1, "stimulus": "<p id=\"stim\">SHORTCAKE</p>", "key_press": -1, "type": "PRES_VIS", "word": "shortcake", "wordID": 1291, "conditions": [24, 1600, "v", 12000], "trial": 3, "serialpos": 15, "trial_type": "single-stim", "trial_index": 132, "time_elapsed": 626590, "internal_node_id": "0.0-96.0"}}, {"uniqueid": "MTK0294:3HL8HNGX468D92OFCC1ISD828P09FN", "current_trial": 133, "dateTime": 1510698609896, "trialdata": {"rt": -1, "stimulus": "<p id=\"stim\">BANQUET</p>", "key_press": -1, "type": "PRES_VIS", "word": "banquet", "wordID": 85, "conditions": [24, 1600, "v", 12000], "trial": 3, "serialpos": 16, "trial_type": "single-stim", "trial_index": 133, "time_elapsed": 629215, "internal_node_id": "0.0-97.0"}}, {"uniqueid": "MTK0294:3HL8HNGX468D92OFCC1ISD828P09FN", "current_trial": 134, "dateTime": 1510698612483, "trialdata": {"rt": -1, "stimulus": "<p id=\"stim\">SUPPER</p>", "key_press": -1, "type": "PRES_VIS", "word": "supper", "wordID": 1410, "conditions": [24, 1600, "v", 12000], "trial": 3, "serialpos": 17, "trial_type": "single-stim", "trial_index": 134, "time_elapsed": 631802, "internal_node_id": "0.0-98.0"}}, {"uniqueid": "MTK0294:3HL8HNGX468D92OFCC1ISD828P09FN", "current_trial": 135, "dateTime": 1510698614915, "trialdata": {"rt": -1, "stimulus": "<p id=\"stim\">KLEENEX</p>", "key_press": -1, "type": "PRES_VIS", "word": "kleenex", "wordID": 781, "conditions": [24, 1600, "v", 12000], "trial": 3, "serialpos": 18, "trial_type": "single-stim", "trial_index": 135, "time_elapsed": 634233, "internal_node_id": "0.0-99.0"}}, {"uniqueid": "MTK0294:3HL8HNGX468D92OFCC1ISD828P09FN", "current_trial": 136, "dateTime": 1510698617426, "trialdata": {"rt": -1, "stimulus": "<p id=\"stim\">PLASTER</p>", "key_press": -1, "type": "PRES_VIS", "word": "plaster", "wordID": 1084, "conditions": [24, 1600, "v", 12000], "trial": 3, "serialpos": 19, "trial_type": "single-stim", "trial_index": 136, "time_elapsed": 636745, "internal_node_id": "0.0-100.0"}}, {"uniqueid": "MTK0294:3HL8HNGX468D92OFCC1ISD828P09FN", "current_trial": 137, "dateTime": 1510698619916, "trialdata": {"rt": -1, "stimulus": "<p id=\"stim\">CANDY</p>", "key_press": -1, "type": "PRES_VIS", "word": "candy", "wordID": 229, "conditions": [24, 1600, "v", 12000], "trial": 3, "serialpos": 20, "trial_type": "single-stim", "trial_index": 137, "time_elapsed": 639235, "internal_node_id": "0.0-101.0"}}, {"uniqueid": "MTK0294:3HL8HNGX468D92OFCC1ISD828P09FN", "current_trial": 138, "dateTime": 1510698622359, "trialdata": {"rt": -1, "stimulus": "<p id=\"stim\">PASTRY</p>", "key_press": -1, "type": "PRES_VIS", "word": "pastry", "wordID": 1021, "conditions": [24, 1600, "v", 12000], "trial": 3, "serialpos": 21, "trial_type": "single-stim", "trial_index": 138, "time_elapsed": 641678, "internal_node_id": "0.0-102.0"}}, {"uniqueid": "MTK0294:3HL8HNGX468D92OFCC1ISD828P09FN", "current_trial": 139, "dateTime": 1510698625130, "trialdata": {"rt": -1, "stimulus": "<p id=\"stim\">COLLEGE</p>", "key_press": -1, "type": "PRES_VIS", "word": "college", "wordID": 345, "conditions": [24, 1600, "v", 12000], "trial": 3, "serialpos": 22, "trial_type": "single-stim", "trial_index": 139, "time_elapsed": 644448, "internal_node_id": "0.0-103.0"}}, {"uniqueid": "MTK0294:3HL8HNGX468D92OFCC1ISD828P09FN", "current_trial": 140, "dateTime": 1510698627726, "trialdata": {"rt": -1, "stimulus": "<p id=\"stim\">PASTA</p>", "key_press": -1, "type": "PRES_VIS", "word": "pasta", "wordID": 1020, "conditions": [24, 1600, "v", 12000], "trial": 3, "serialpos": 23, "trial_type": "single-stim", "trial_index": 140, "time_elapsed": 647045, "internal_node_id": "0.0-104.0"}}, {"uniqueid": "MTK0294:3HL8HNGX468D92OFCC1ISD828P09FN", "current_trial": 141, "dateTime": 1510698630232, "trialdata": {"rt": -1, "stimulus": "", "key_press": -1, "type": "PRE_RECALL_DELAY", "trial_type": "single-stim", "trial_index": 141, "time_elapsed": 649551, "internal_node_id": "0.0-105.0-0.0"}}, {"uniqueid": "MTK0294:3HL8HNGX468D92OFCC1ISD828P09FN", "current_trial": 142, "dateTime": 1510698630736, "trialdata": {"rt": -1000, "stimulus": "/static/audio/400Hz.wav", "key_press": -1, "type": "PRE_RECALL_ALERT", "trial_type": "single-audio", "trial_index": 142, "time_elapsed": 650054, "internal_node_id": "0.0-106.0"}}, {"uniqueid": "MTK0294:3HL8HNGX468D92OFCC1ISD828P09FN", "current_trial": 143, "dateTime": 1510698690762, "trialdata": {"rt": [4635, 8900, 11035, 17744, 23814, 36185, 41966, 44304, 46009], "recwords": ["cousin", "sister", "cafe", "bunny", "shortcake", "kleenex", "pastry", "college", "pasta"], "type": "FREE_RECALL", "conditions": [24, 1600, "v", 12000], "trial": 3, "trial_type": "free-recall", "trial_index": 143, "time_elapsed": 710064, "internal_node_id": "0.0-107.0-0.0"}}, {"uniqueid": "MTK0294:3HL8HNGX468D92OFCC1ISD828P09FN", "current_trial": 144, "dateTime": 1510698695019, "trialdata": {"rt": 2254, "key_press": 32, "type": "INSTRUCTIONS", "trial_type": "text", "trial_index": 144, "time_elapsed": 714338, "internal_node_id": "0.0-108.0"}}, {"uniqueid": "MTK0294:3HL8HNGX468D92OFCC1ISD828P09FN", "current_trial": 145, "dateTime": 1510698721029, "trialdata": {"rt": [2727, 5267, 7432, 9405, 11587, 14047, 16683, 19265, 22734], "responses": ["19", "16", "15", "11", "19", "16", "13", "15", "23"], "num1": [7, 4, 6, 3, 8, 8, 4, 2, 6, 7], "num2": [6, 7, 3, 5, 9, 5, 4, 8, 8, 5], "num3": [6, 5, 6, 3, 2, 3, 5, 5, 9, 5], "type": "DISTRACTOR", "conditions": [12, 800, "v", 24000], "trial": 4, "trial_type": "math-distractor", "trial_index": 145, "time_elapsed": 740347, "internal_node_id": "0.0-109.0"}}, {"uniqueid": "MTK0294:3HL8HNGX468D92OFCC1ISD828P09FN", "current_trial": 146, "dateTime": 1510698724031, "trialdata": {"rt": -1, "stimulus": "<p id=\"stim\">10</p>", "key_press": -1, "trial_type": "single-stim", "trial_index": 146, "time_elapsed": 743350, "internal_node_id": "0.0-110.0-0.0"}}, {"uniqueid": "MTK0294:3HL8HNGX468D92OFCC1ISD828P09FN", "current_trial": 147, "dateTime": 1510698725033, "trialdata": {"rt": -1, "stimulus": "<p id=\"stim\">9</p>", "key_press": -1, "trial_type": "single-stim", "trial_index": 147, "time_elapsed": 744352, "internal_node_id": "0.0-110.0-1.0"}}, {"uniqueid": "MTK0294:3HL8HNGX468D92OFCC1ISD828P09FN", "current_trial": 148, "dateTime": 1510698726035, "trialdata": {"rt": -1, "stimulus": "<p id=\"stim\">8</p>", "key_press": -1, "trial_type": "single-stim", "trial_index": 148, "time_elapsed": 745354, "internal_node_id": "0.0-110.0-2.0"}}, {"uniqueid": "MTK0294:3HL8HNGX468D92OFCC1ISD828P09FN", "current_trial": 149, "dateTime": 1510698727037, "trialdata": {"rt": -1, "stimulus": "<p id=\"stim\">7</p>", "key_press": -1, "trial_type": "single-stim", "trial_index": 149, "time_elapsed": 746355, "internal_node_id": "0.0-110.0-3.0"}}, {"uniqueid": "MTK0294:3HL8HNGX468D92OFCC1ISD828P09FN", "current_trial": 150, "dateTime": 1510698728039, "trialdata": {"rt": -1, "stimulus": "<p id=\"stim\">6</p>", "key_press": -1, "trial_type": "single-stim", "trial_index": 150, "time_elapsed": 747357, "internal_node_id": "0.0-110.0-4.0"}}, {"uniqueid": "MTK0294:3HL8HNGX468D92OFCC1ISD828P09FN", "current_trial": 151, "dateTime": 1510698729041, "trialdata": {"rt": -1, "stimulus": "<p id=\"stim\">5</p>", "key_press": -1, "trial_type": "single-stim", "trial_index": 151, "time_elapsed": 748359, "internal_node_id": "0.0-110.0-5.0"}}, {"uniqueid": "MTK0294:3HL8HNGX468D92OFCC1ISD828P09FN", "current_trial": 152, "dateTime": 1510698730042, "trialdata": {"rt": -1, "stimulus": "<p id=\"stim\">4</p>", "key_press": -1, "trial_type": "single-stim", "trial_index": 152, "time_elapsed": 749361, "internal_node_id": "0.0-110.0-6.0"}}, {"uniqueid": "MTK0294:3HL8HNGX468D92OFCC1ISD828P09FN", "current_trial": 153, "dateTime": 1510698731044, "trialdata": {"rt": -1, "stimulus": "<p id=\"stim\">3</p>", "key_press": -1, "trial_type": "single-stim", "trial_index": 153, "time_elapsed": 750363, "internal_node_id": "0.0-110.0-7.0"}}, {"uniqueid": "MTK0294:3HL8HNGX468D92OFCC1ISD828P09FN", "current_trial": 154, "dateTime": 1510698732047, "trialdata": {"rt": -1, "stimulus": "<p id=\"stim\">2</p>", "key_press": -1, "trial_type": "single-stim", "trial_index": 154, "time_elapsed": 751365, "internal_node_id": "0.0-110.0-8.0"}}, {"uniqueid": "MTK0294:3HL8HNGX468D92OFCC1ISD828P09FN", "current_trial": 155, "dateTime": 1510698733049, "trialdata": {"rt": -1, "stimulus": "<p id=\"stim\">1</p>", "key_press": -1, "trial_type": "single-stim", "trial_index": 155, "time_elapsed": 752367, "internal_node_id": "0.0-110.0-9.0"}}, {"uniqueid": "MTK0294:3HL8HNGX468D92OFCC1ISD828P09FN", "current_trial": 156, "dateTime": 1510698734550, "trialdata": {"rt": -1, "stimulus": "<p id=\"stim\">+</p>", "key_press": -1, "type": "FIXATION", "trial_type": "single-stim", "trial_index": 156, "time_elapsed": 753869, "internal_node_id": "0.0-111.0-0.0"}}, {"uniqueid": "MTK0294:3HL8HNGX468D92OFCC1ISD828P09FN", "current_trial": 157, "dateTime": 1510698735352, "trialdata": {"rt": -1, "stimulus": "<p id=\"stim\">HORNET</p>", "key_press": -1, "type": "PRES_VIS", "word": "hornet", "wordID": 717, "conditions": [12, 800, "v", 24000], "trial": 4, "serialpos": 0, "trial_type": "single-stim", "trial_index": 157, "time_elapsed": 754671, "internal_node_id": "0.0-112.0"}}, {"uniqueid": "MTK0294:3HL8HNGX468D92OFCC1ISD828P09FN", "current_trial": 158, "dateTime": 1510698737190, "trialdata": {"rt": -1, "stimulus": "<p id=\"stim\">DRESS</p>", "key_press": -1, "type": "PRES_VIS", "word": "dress", "wordID": 494, "conditions": [12, 800, "v", 24000], "trial": 4, "serialpos": 1, "trial_type": "single-stim", "trial_index": 158, "time_elapsed": 756509, "internal_node_id": "0.0-113.0"}}, {"uniqueid": "MTK0294:3HL8HNGX468D92OFCC1ISD828P09FN", "current_trial": 159, "dateTime": 1510698739161, "trialdata": {"rt": -1, "stimulus": "<p id=\"stim\">COIN</p>", "key_press": -1, "type": "PRES_VIS", "word": "coin", "wordID": 342, "conditions": [12, 800, "v", 24000], "trial": 4, "serialpos": 2, "trial_type": "single-stim", "trial_index": 159, "time_elapsed": 758480, "internal_node_id": "0.0-114.0"}}, {"uniqueid": "MTK0294:3HL8HNGX468D92OFCC1ISD828P09FN", "current_trial": 160, "dateTime": 1510698740819, "trialdata": {"rt": -1, "stimulus": "<p id=\"stim\">YARN</p>", "key_press": -1, "type": "PRES_VIS", "word": "yarn", "wordID": 1630, "conditions": [12, 800, "v", 24000], "trial": 4, "serialpos": 3, "trial_type": "single-stim", "trial_index": 160, "time_elapsed": 760138, "internal_node_id": "0.0-115.0"}}, {"uniqueid": "MTK0294:3HL8HNGX468D92OFCC1ISD828P09FN", "current_trial": 161, "dateTime": 1510698742663, "trialdata": {"rt": -1, "stimulus": "<p id=\"stim\">RUG</p>", "key_press": -1, "type": "PRES_VIS", "word": "rug", "wordID": 1214, "conditions": [12, 800, "v", 24000], "trial": 4, "serialpos": 4, "trial_type": "single-stim", "trial_index": 161, "time_elapsed": 761982, "internal_node_id": "0.0-116.0"}}, {"uniqueid": "MTK0294:3HL8HNGX468D92OFCC1ISD828P09FN", "current_trial": 162, "dateTime": 1510698744614, "trialdata": {"rt": -1, "stimulus": "<p id=\"stim\">DENIM</p>", "key_press": -1, "type": "PRES_VIS", "word": "denim", "wordID": 445, "conditions": [12, 800, "v", 24000], "trial": 4, "serialpos": 5, "trial_type": "single-stim", "trial_index": 162, "time_elapsed": 763933, "internal_node_id": "0.0-117.0"}}, {"uniqueid": "MTK0294:3HL8HNGX468D92OFCC1ISD828P09FN", "current_trial": 163, "dateTime": 1510698746398, "trialdata": {"rt": -1, "stimulus": "<p id=\"stim\">CUSTARD</p>", "key_press": -1, "type": "PRES_VIS", "word": "custard", "wordID": 428, "conditions": [12, 800, "v", 24000], "trial": 4, "serialpos": 6, "trial_type": "single-stim", "trial_index": 163, "time_elapsed": 765716, "internal_node_id": "0.0-118.0"}}, {"uniqueid": "MTK0294:3HL8HNGX468D92OFCC1ISD828P09FN", "current_trial": 164, "dateTime": 1510698748186, "trialdata": {"rt": -1, "stimulus": "<p id=\"stim\">ANTLER</p>", "key_press": -1, "type": "PRES_VIS", "word": "antler", "wordID": 28, "conditions": [12, 800, "v", 24000], "trial": 4, "serialpos": 7, "trial_type": "single-stim", "trial_index": 164, "time_elapsed": 767505, "internal_node_id": "0.0-119.0"}}, {"uniqueid": "MTK0294:3HL8HNGX468D92OFCC1ISD828P09FN", "current_trial": 165, "dateTime": 1510698749970, "trialdata": {"rt": -1, "stimulus": "<p id=\"stim\">FLASHLIGHT</p>", "key_press": -1, "type": "PRES_VIS", "word": "flashlight", "wordID": 574, "conditions": [12, 800, "v", 24000], "trial": 4, "serialpos": 8, "trial_type": "single-stim", "trial_index": 165, "time_elapsed": 769289, "internal_node_id": "0.0-120.0"}}, {"uniqueid": "MTK0294:3HL8HNGX468D92OFCC1ISD828P09FN", "current_trial": 166, "dateTime": 1510698751922, "trialdata": {"rt": -1, "stimulus": "<p id=\"stim\">PERFUME</p>", "key_press": -1, "type": "PRES_VIS", "word": "perfume", "wordID": 1048, "conditions": [12, 800, "v", 24000], "trial": 4, "serialpos": 9, "trial_type": "single-stim", "trial_index": 166, "time_elapsed": 771240, "internal_node_id": "0.0-121.0"}}, {"uniqueid": "MTK0294:3HL8HNGX468D92OFCC1ISD828P09FN", "current_trial": 167, "dateTime": 1510698753627, "trialdata": {"rt": -1, "stimulus": "<p id=\"stim\">RABBIT</p>", "key_press": -1, "type": "PRES_VIS", "word": "rabbit", "wordID": 1151, "conditions": [12, 800, "v", 24000], "trial": 4, "serialpos": 10, "trial_type": "single-stim", "trial_index": 167, "time_elapsed": 772946, "internal_node_id": "0.0-122.0"}}, {"uniqueid": "MTK0294:3HL8HNGX468D92OFCC1ISD828P09FN", "current_trial": 168, "dateTime": 1510698755441, "trialdata": {"rt": -1, "stimulus": "<p id=\"stim\">PUPPY</p>", "key_press": -1, "type": "PRES_VIS", "word": "puppy", "wordID": 1143, "conditions": [12, 800, "v", 24000], "trial": 4, "serialpos": 11, "trial_type": "single-stim", "trial_index": 168, "time_elapsed": 774759, "internal_node_id": "0.0-123.0"}}, {"uniqueid": "MTK0294:3HL8HNGX468D92OFCC1ISD828P09FN", "current_trial": 169, "dateTime": 1510698757888, "trialdata": {"rt": -1, "stimulus": "", "key_press": -1, "type": "PRE_RECALL_DELAY", "trial_type": "single-stim", "trial_index": 169, "time_elapsed": 777207, "internal_node_id": "0.0-124.0-0.0"}}, {"uniqueid": "MTK0294:3HL8HNGX468D92OFCC1ISD828P09FN", "current_trial": 170, "dateTime": 1510698758391, "trialdata": {"rt": -1000, "stimulus": "/static/audio/400Hz.wav", "key_press": -1, "type": "PRE_RECALL_ALERT", "trial_type": "single-audio", "trial_index": 170, "time_elapsed": 777710, "internal_node_id": "0.0-125.0"}}, {"uniqueid": "MTK0294:3HL8HNGX468D92OFCC1ISD828P09FN", "current_trial": 171, "dateTime": 1510698818417, "trialdata": {"rt": [3664, 6222, 7591, 9199, 10784, 17392, 21687], "recwords": ["hornet", "dress", "coin", "antler", "bunny", "puppy", "denim"], "type": "FREE_RECALL", "conditions": [12, 800, "v", 24000], "trial": 4, "trial_type": "free-recall", "trial_index": 171, "time_elapsed": 837722, "internal_node_id": "0.0-126.0-0.0"}}, {"uniqueid": "MTK0294:3HL8HNGX468D92OFCC1ISD828P09FN", "current_trial": 172, "dateTime": 1510698821481, "trialdata": {"rt": 1061, "key_press": 32, "type": "INSTRUCTIONS", "trial_type": "text", "trial_index": 172, "time_elapsed": 840800, "internal_node_id": "0.0-127.0"}}, {"uniqueid": "MTK0294:3HL8HNGX468D92OFCC1ISD828P09FN", "current_trial": 173, "dateTime": 1510698847490, "trialdata": {"rt": [2528, 4671, 6828, 9377, 11289, 13094, 16569, 19820, 21849], "responses": ["19", "6", "1", "18", "9", "11", "12", "24", "14"], "num1": [9, 3, 6, 6, 1, 2, 9, 9, 9, 6], "num2": [4, 1, 4, 7, 1, 3, 1, 9, 3, 9], "num3": [6, 2, 8, 5, 7, 6, 2, 6, 2, 4], "type": "DISTRACTOR", "conditions": [24, 800, "v", 24000], "trial": 5, "trial_type": "math-distractor", "trial_index": 173, "time_elapsed": 866809, "internal_node_id": "0.0-128.0"}}, {"uniqueid": "MTK0294:3HL8HNGX468D92OFCC1ISD828P09FN", "current_trial": 174, "dateTime": 1510698850494, "trialdata": {"rt": -1, "stimulus": "<p id=\"stim\">10</p>", "key_press": -1, "trial_type": "single-stim", "trial_index": 174, "time_elapsed": 869813, "internal_node_id": "0.0-129.0-0.0"}}, {"uniqueid": "MTK0294:3HL8HNGX468D92OFCC1ISD828P09FN", "current_trial": 175, "dateTime": 1510698851496, "trialdata": {"rt": -1, "stimulus": "<p id=\"stim\">9</p>", "key_press": -1, "trial_type": "single-stim", "trial_index": 175, "time_elapsed": 870815, "internal_node_id": "0.0-129.0-1.0"}}, {"uniqueid": "MTK0294:3HL8HNGX468D92OFCC1ISD828P09FN", "current_trial": 176, "dateTime": 1510698852498, "trialdata": {"rt": -1, "stimulus": "<p id=\"stim\">8</p>", "key_press": -1, "trial_type": "single-stim", "trial_index": 176, "time_elapsed": 871817, "internal_node_id": "0.0-129.0-2.0"}}, {"uniqueid": "MTK0294:3HL8HNGX468D92OFCC1ISD828P09FN", "current_trial": 177, "dateTime": 1510698853501, "trialdata": {"rt": -1, "stimulus": "<p id=\"stim\">7</p>", "key_press": -1, "trial_type": "single-stim", "trial_index": 177, "time_elapsed": 872819, "internal_node_id": "0.0-129.0-3.0"}}, {"uniqueid": "MTK0294:3HL8HNGX468D92OFCC1ISD828P09FN", "current_trial": 178, "dateTime": 1510698854503, "trialdata": {"rt": -1, "stimulus": "<p id=\"stim\">6</p>", "key_press": -1, "trial_type": "single-stim", "trial_index": 178, "time_elapsed": 873821, "internal_node_id": "0.0-129.0-4.0"}}, {"uniqueid": "MTK0294:3HL8HNGX468D92OFCC1ISD828P09FN", "current_trial": 179, "dateTime": 1510698855505, "trialdata": {"rt": -1, "stimulus": "<p id=\"stim\">5</p>", "key_press": -1, "trial_type": "single-stim", "trial_index": 179, "time_elapsed": 874824, "internal_node_id": "0.0-129.0-5.0"}}, {"uniqueid": "MTK0294:3HL8HNGX468D92OFCC1ISD828P09FN", "current_trial": 180, "dateTime": 1510698856507, "trialdata": {"rt": -1, "stimulus": "<p id=\"stim\">4</p>", "key_press": -1, "trial_type": "single-stim", "trial_index": 180, "time_elapsed": 875826, "internal_node_id": "0.0-129.0-6.0"}}, {"uniqueid": "MTK0294:3HL8HNGX468D92OFCC1ISD828P09FN", "current_trial": 181, "dateTime": 1510698857509, "trialdata": {"rt": -1, "stimulus": "<p id=\"stim\">3</p>", "key_press": -1, "trial_type": "single-stim", "trial_index": 181, "time_elapsed": 876828, "internal_node_id": "0.0-129.0-7.0"}}, {"uniqueid": "MTK0294:3HL8HNGX468D92OFCC1ISD828P09FN", "current_trial": 182, "dateTime": 1510698858511, "trialdata": {"rt": -1, "stimulus": "<p id=\"stim\">2</p>", "key_press": -1, "trial_type": "single-stim", "trial_index": 182, "time_elapsed": 877829, "internal_node_id": "0.0-129.0-8.0"}}, {"uniqueid": "MTK0294:3HL8HNGX468D92OFCC1ISD828P09FN", "current_trial": 183, "dateTime": 1510698859513, "trialdata": {"rt": -1, "stimulus": "<p id=\"stim\">1</p>", "key_press": -1, "trial_type": "single-stim", "trial_index": 183, "time_elapsed": 878831, "internal_node_id": "0.0-129.0-9.0"}}, {"uniqueid": "MTK0294:3HL8HNGX468D92OFCC1ISD828P09FN", "current_trial": 184, "dateTime": 1510698861015, "trialdata": {"rt": -1, "stimulus": "<p id=\"stim\">+</p>", "key_press": -1, "type": "FIXATION", "trial_type": "single-stim", "trial_index": 184, "time_elapsed": 880334, "internal_node_id": "0.0-130.0-0.0"}}, {"uniqueid": "MTK0294:3HL8HNGX468D92OFCC1ISD828P09FN", "current_trial": 185, "dateTime": 1510698861817, "trialdata": {"rt": -1, "stimulus": "<p id=\"stim\">TRIBE</p>", "key_press": -1, "type": "PRES_VIS", "word": "tribe", "wordID": 1504, "conditions": [24, 800, "v", 24000], "trial": 5, "serialpos": 0, "trial_type": "single-stim", "trial_index": 185, "time_elapsed": 881136, "internal_node_id": "0.0-131.0"}}, {"uniqueid": "MTK0294:3HL8HNGX468D92OFCC1ISD828P09FN", "current_trial": 186, "dateTime": 1510698863709, "trialdata": {"rt": -1, "stimulus": "<p id=\"stim\">FIDDLE</p>", "key_press": -1, "type": "PRES_VIS", "word": "fiddle", "wordID": 560, "conditions": [24, 800, "v", 24000], "trial": 5, "serialpos": 1, "trial_type": "single-stim", "trial_index": 186, "time_elapsed": 883028, "internal_node_id": "0.0-132.0"}}, {"uniqueid": "MTK0294:3HL8HNGX468D92OFCC1ISD828P09FN", "current_trial": 187, "dateTime": 1510698865471, "trialdata": {"rt": -1, "stimulus": "<p id=\"stim\">SEAFOOD</p>", "key_press": -1, "type": "PRES_VIS", "word": "seafood", "wordID": 1259, "conditions": [24, 800, "v", 24000], "trial": 5, "serialpos": 2, "trial_type": "single-stim", "trial_index": 187, "time_elapsed": 884789, "internal_node_id": "0.0-133.0"}}, {"uniqueid": "MTK0294:3HL8HNGX468D92OFCC1ISD828P09FN", "current_trial": 188, "dateTime": 1510698867234, "trialdata": {"rt": -1, "stimulus": "<p id=\"stim\">LAKE</p>", "key_press": -1, "type": "PRES_VIS", "word": "lake", "wordID": 795, "conditions": [24, 800, "v", 24000], "trial": 5, "serialpos": 3, "trial_type": "single-stim", "trial_index": 188, "time_elapsed": 886553, "internal_node_id": "0.0-134.0"}}, {"uniqueid": "MTK0294:3HL8HNGX468D92OFCC1ISD828P09FN", "current_trial": 189, "dateTime": 1510698869007, "trialdata": {"rt": -1, "stimulus": "<p id=\"stim\">PENGUIN</p>", "key_press": -1, "type": "PRES_VIS", "word": "penguin", "wordID": 1043, "conditions": [24, 800, "v", 24000], "trial": 5, "serialpos": 4, "trial_type": "single-stim", "trial_index": 189, "time_elapsed": 888326, "internal_node_id": "0.0-135.0"}}, {"uniqueid": "MTK0294:3HL8HNGX468D92OFCC1ISD828P09FN", "current_trial": 190, "dateTime": 1510698870739, "trialdata": {"rt": -1, "stimulus": "<p id=\"stim\">COBRA</p>", "key_press": -1, "type": "PRES_VIS", "word": "cobra", "wordID": 335, "conditions": [24, 800, "v", 24000], "trial": 5, "serialpos": 5, "trial_type": "single-stim", "trial_index": 190, "time_elapsed": 890058, "internal_node_id": "0.0-136.0"}}, {"uniqueid": "MTK0294:3HL8HNGX468D92OFCC1ISD828P09FN", "current_trial": 191, "dateTime": 1510698872543, "trialdata": {"rt": -1, "stimulus": "<p id=\"stim\">HARP</p>", "key_press": -1, "type": "PRES_VIS", "word": "harp", "wordID": 688, "conditions": [24, 800, "v", 24000], "trial": 5, "serialpos": 6, "trial_type": "single-stim", "trial_index": 191, "time_elapsed": 891862, "internal_node_id": "0.0-137.0"}}, {"uniqueid": "MTK0294:3HL8HNGX468D92OFCC1ISD828P09FN", "current_trial": 192, "dateTime": 1510698874148, "trialdata": {"rt": -1, "stimulus": "<p id=\"stim\">LIVER</p>", "key_press": -1, "type": "PRES_VIS", "word": "liver", "wordID": 832, "conditions": [24, 800, "v", 24000], "trial": 5, "serialpos": 7, "trial_type": "single-stim", "trial_index": 192, "time_elapsed": 893467, "internal_node_id": "0.0-138.0"}}, {"uniqueid": "MTK0294:3HL8HNGX468D92OFCC1ISD828P09FN", "current_trial": 193, "dateTime": 1510698875918, "trialdata": {"rt": -1, "stimulus": "<p id=\"stim\">MARROW</p>", "key_press": -1, "type": "PRES_VIS", "word": "marrow", "wordID": 871, "conditions": [24, 800, "v", 24000], "trial": 5, "serialpos": 8, "trial_type": "single-stim", "trial_index": 193, "time_elapsed": 895237, "internal_node_id": "0.0-139.0"}}, {"uniqueid": "MTK0294:3HL8HNGX468D92OFCC1ISD828P09FN", "current_trial": 194, "dateTime": 1510698877574, "trialdata": {"rt": -1, "stimulus": "<p id=\"stim\">JUNGLE</p>", "key_press": -1, "type": "PRES_VIS", "word": "jungle", "wordID": 763, "conditions": [24, 800, "v", 24000], "trial": 5, "serialpos": 9, "trial_type": "single-stim", "trial_index": 194, "time_elapsed": 896892, "internal_node_id": "0.0-140.0"}}, {"uniqueid": "MTK0294:3HL8HNGX468D92OFCC1ISD828P09FN", "current_trial": 195, "dateTime": 1510698879506, "trialdata": {"rt": -1, "stimulus": "<p id=\"stim\">GYMNAST</p>", "key_press": -1, "type": "PRES_VIS", "word": "gymnast", "wordID": 674, "conditions": [24, 800, "v", 24000], "trial": 5, "serialpos": 10, "trial_type": "single-stim", "trial_index": 195, "time_elapsed": 898824, "internal_node_id": "0.0-141.0"}}, {"uniqueid": "MTK0294:3HL8HNGX468D92OFCC1ISD828P09FN", "current_trial": 196, "dateTime": 1510698881183, "trialdata": {"rt": -1, "stimulus": "<p id=\"stim\">GAZELLE</p>", "key_press": -1, "type": "PRES_VIS", "word": "gazelle", "wordID": 627, "conditions": [24, 800, "v", 24000], "trial": 5, "serialpos": 11, "trial_type": "single-stim", "trial_index": 196, "time_elapsed": 900502, "internal_node_id": "0.0-142.0"}}, {"uniqueid": "MTK0294:3HL8HNGX468D92OFCC1ISD828P09FN", "current_trial": 197, "dateTime": 1510698882986, "trialdata": {"rt": -1, "stimulus": "<p id=\"stim\">SPOOL</p>", "key_press": -1, "type": "PRES_VIS", "word": "spool", "wordID": 1355, "conditions": [24, 800, "v", 24000], "trial": 5, "serialpos": 12, "trial_type": "single-stim", "trial_index": 197, "time_elapsed": 902304, "internal_node_id": "0.0-143.0"}}, {"uniqueid": "MTK0294:3HL8HNGX468D92OFCC1ISD828P09FN", "current_trial": 198, "dateTime": 1510698884862, "trialdata": {"rt": -1, "stimulus": "<p id=\"stim\">SWAMP</p>", "key_press": -1, "type": "PRES_VIS", "word": "swamp", "wordID": 1415, "conditions": [24, 800, "v", 24000], "trial": 5, "serialpos": 13, "trial_type": "single-stim", "trial_index": 198, "time_elapsed": 904181, "internal_node_id": "0.0-144.0"}}, {"uniqueid": "MTK0294:3HL8HNGX468D92OFCC1ISD828P09FN", "current_trial": 199, "dateTime": 1510698886798, "trialdata": {"rt": -1, "stimulus": "<p id=\"stim\">LADY</p>", "key_press": -1, "type": "PRES_VIS", "word": "lady", "wordID": 793, "conditions": [24, 800, "v", 24000], "trial": 5, "serialpos": 14, "trial_type": "single-stim", "trial_index": 199, "time_elapsed": 906116, "internal_node_id": "0.0-145.0"}}, {"uniqueid": "MTK0294:3HL8HNGX468D92OFCC1ISD828P09FN", "current_trial": 200, "dateTime": 1510698888514, "trialdata": {"rt": -1, "stimulus": "<p id=\"stim\">CHAMPAGNE</p>", "key_press": -1, "type": "PRES_VIS", "word": "champagne", "wordID": 277, "conditions": [24, 800, "v", 24000], "trial": 5, "serialpos": 15, "trial_type": "single-stim", "trial_index": 200, "time_elapsed": 907833, "internal_node_id": "0.0-146.0"}}, {"uniqueid": "MTK0294:3HL8HNGX468D92OFCC1ISD828P09FN", "current_trial": 201, "dateTime": 1510698890234, "trialdata": {"rt": -1, "stimulus": "<p id=\"stim\">WASP</p>", "key_press": -1, "type": "PRES_VIS", "word": "wasp", "wordID": 1592, "conditions": [24, 800, "v", 24000], "trial": 5, "serialpos": 16, "trial_type": "single-stim", "trial_index": 201, "time_elapsed": 909552, "internal_node_id": "0.0-147.0"}}, {"uniqueid": "MTK0294:3HL8HNGX468D92OFCC1ISD828P09FN", "current_trial": 202, "dateTime": 1510698892064, "trialdata": {"rt": -1, "stimulus": "<p id=\"stim\">POSSUM</p>", "key_press": -1, "type": "PRES_VIS", "word": "possum", "wordID": 1111, "conditions": [24, 800, "v", 24000], "trial": 5, "serialpos": 17, "trial_type": "single-stim", "trial_index": 202, "time_elapsed": 911383, "internal_node_id": "0.0-148.0"}}, {"uniqueid": "MTK0294:3HL8HNGX468D92OFCC1ISD828P09FN", "current_trial": 203, "dateTime": 1510698893744, "trialdata": {"rt": -1, "stimulus": "<p id=\"stim\">MARSH</p>", "key_press": -1, "type": "PRES_VIS", "word": "marsh", "wordID": 873, "conditions": [24, 800, "v", 24000], "trial": 5, "serialpos": 18, "trial_type": "single-stim", "trial_index": 203, "time_elapsed": 913063, "internal_node_id": "0.0-149.0"}}, {"uniqueid": "MTK0294:3HL8HNGX468D92OFCC1ISD828P09FN", "current_trial": 204, "dateTime": 1510698895485, "trialdata": {"rt": -1, "stimulus": "<p id=\"stim\">MARINE</p>", "key_press": -1, "type": "PRES_VIS", "word": "marine", "wordID": 868, "conditions": [24, 800, "v", 24000], "trial": 5, "serialpos": 19, "trial_type": "single-stim", "trial_index": 204, "time_elapsed": 914803, "internal_node_id": "0.0-150.0"}}, {"uniqueid": "MTK0294:3HL8HNGX468D92OFCC1ISD828P09FN", "current_trial": 205, "dateTime": 1510698897503, "trialdata": {"rt": -1, "stimulus": "<p id=\"stim\">HEADBAND</p>", "key_press": -1, "type": "PRES_VIS", "word": "headband", "wordID": 695, "conditions": [24, 800, "v", 24000], "trial": 5, "serialpos": 20, "trial_type": "single-stim", "trial_index": 205, "time_elapsed": 916822, "internal_node_id": "0.0-151.0"}}, {"uniqueid": "MTK0294:3HL8HNGX468D92OFCC1ISD828P09FN", "current_trial": 206, "dateTime": 1510698899489, "trialdata": {"rt": -1, "stimulus": "<p id=\"stim\">STOMACH</p>", "key_press": -1, "type": "PRES_VIS", "word": "stomach", "wordID": 1383, "conditions": [24, 800, "v", 24000], "trial": 5, "serialpos": 21, "trial_type": "single-stim", "trial_index": 206, "time_elapsed": 918808, "internal_node_id": "0.0-152.0"}}, {"uniqueid": "MTK0294:3HL8HNGX468D92OFCC1ISD828P09FN", "current_trial": 207, "dateTime": 1510698901197, "trialdata": {"rt": -1, "stimulus": "<p id=\"stim\">CHEST</p>", "key_press": -1, "type": "PRES_VIS", "word": "chest", "wordID": 294, "conditions": [24, 800, "v", 24000], "trial": 5, "serialpos": 22, "trial_type": "single-stim", "trial_index": 207, "time_elapsed": 920516, "internal_node_id": "0.0-153.0"}}, {"uniqueid": "MTK0294:3HL8HNGX468D92OFCC1ISD828P09FN", "current_trial": 208, "dateTime": 1510698903047, "trialdata": {"rt": -1, "stimulus": "<p id=\"stim\">SHIRT</p>", "key_press": -1, "type": "PRES_VIS", "word": "shirt", "wordID": 1286, "conditions": [24, 800, "v", 24000], "trial": 5, "serialpos": 23, "trial_type": "single-stim", "trial_index": 208, "time_elapsed": 922366, "internal_node_id": "0.0-154.0"}}, {"uniqueid": "MTK0294:3HL8HNGX468D92OFCC1ISD828P09FN", "current_trial": 209, "dateTime": 1510698905163, "trialdata": {"rt": -1, "stimulus": "", "key_press": -1, "type": "PRE_RECALL_DELAY", "trial_type": "single-stim", "trial_index": 209, "time_elapsed": 924481, "internal_node_id": "0.0-155.0-0.0"}}, {"uniqueid": "MTK0294:3HL8HNGX468D92OFCC1ISD828P09FN", "current_trial": 210, "dateTime": 1510698905666, "trialdata": {"rt": -1000, "stimulus": "/static/audio/400Hz.wav", "key_press": -1, "type": "PRE_RECALL_ALERT", "trial_type": "single-audio", "trial_index": 210, "time_elapsed": 924985, "internal_node_id": "0.0-156.0"}}, {"uniqueid": "MTK0294:3HL8HNGX468D92OFCC1ISD828P09FN", "current_trial": 211, "dateTime": 1510698965684, "trialdata": {"rt": [8250, 10774, 13922, 21894, 24379, 29365, 31411, 33470, 38917, 51238], "recwords": ["nugle", "jungle", "gymnast", "gazelle", "spool", "tribe", "fiddle", "seafod", "chest", "jungle"], "type": "FREE_RECALL", "conditions": [24, 800, "v", 24000], "trial": 5, "trial_type": "free-recall", "trial_index": 211, "time_elapsed": 984996, "internal_node_id": "0.0-157.0-0.0"}}, {"uniqueid": "MTK0294:3HL8HNGX468D92OFCC1ISD828P09FN", "current_trial": 212, "dateTime": 1510698968254, "trialdata": {"rt": 566, "key_press": 32, "type": "INSTRUCTIONS", "trial_type": "text", "trial_index": 212, "time_elapsed": 987573, "internal_node_id": "0.0-158.0"}}, {"uniqueid": "MTK0294:3HL8HNGX468D92OFCC1ISD828P09FN", "current_trial": 213, "dateTime": 1510698982263, "trialdata": {"rt": [2525, 9176, 11932], "responses": ["14", "23", "18"], "num1": [2, 8, 2, 5], "num2": [5, 7, 8, 6], "num3": [7, 8, 8, 1], "type": "DISTRACTOR", "conditions": [24, 1600, "a", 12000], "trial": 6, "trial_type": "math-distractor", "trial_index": 213, "time_elapsed": 1001582, "internal_node_id": "0.0-159.0"}}, {"uniqueid": "MTK0294:3HL8HNGX468D92OFCC1ISD828P09FN", "current_trial": 214, "dateTime": 1510698985268, "trialdata": {"rt": -1, "stimulus": "<p id=\"stim\">10</p>", "key_press": -1, "trial_type": "single-stim", "trial_index": 214, "time_elapsed": 1004587, "internal_node_id": "0.0-160.0-0.0"}}, {"uniqueid": "MTK0294:3HL8HNGX468D92OFCC1ISD828P09FN", "current_trial": 215, "dateTime": 1510698986270, "trialdata": {"rt": -1, "stimulus": "<p id=\"stim\">9</p>", "key_press": -1, "trial_type": "single-stim", "trial_index": 215, "time_elapsed": 1005588, "internal_node_id": "0.0-160.0-1.0"}}, {"uniqueid": "MTK0294:3HL8HNGX468D92OFCC1ISD828P09FN", "current_trial": 216, "dateTime": 1510698987272, "trialdata": {"rt": -1, "stimulus": "<p id=\"stim\">8</p>", "key_press": -1, "trial_type": "single-stim", "trial_index": 216, "time_elapsed": 1006591, "internal_node_id": "0.0-160.0-2.0"}}, {"uniqueid": "MTK0294:3HL8HNGX468D92OFCC1ISD828P09FN", "current_trial": 217, "dateTime": 1510698988274, "trialdata": {"rt": -1, "stimulus": "<p id=\"stim\">7</p>", "key_press": -1, "trial_type": "single-stim", "trial_index": 217, "time_elapsed": 1007593, "internal_node_id": "0.0-160.0-3.0"}}, {"uniqueid": "MTK0294:3HL8HNGX468D92OFCC1ISD828P09FN", "current_trial": 218, "dateTime": 1510698989276, "trialdata": {"rt": -1, "stimulus": "<p id=\"stim\">6</p>", "key_press": -1, "trial_type": "single-stim", "trial_index": 218, "time_elapsed": 1008595, "internal_node_id": "0.0-160.0-4.0"}}, {"uniqueid": "MTK0294:3HL8HNGX468D92OFCC1ISD828P09FN", "current_trial": 219, "dateTime": 1510698990278, "trialdata": {"rt": -1, "stimulus": "<p id=\"stim\">5</p>", "key_press": -1, "trial_type": "single-stim", "trial_index": 219, "time_elapsed": 1009597, "internal_node_id": "0.0-160.0-5.0"}}, {"uniqueid": "MTK0294:3HL8HNGX468D92OFCC1ISD828P09FN", "current_trial": 220, "dateTime": 1510698991281, "trialdata": {"rt": -1, "stimulus": "<p id=\"stim\">4</p>", "key_press": -1, "trial_type": "single-stim", "trial_index": 220, "time_elapsed": 1010600, "internal_node_id": "0.0-160.0-6.0"}}, {"uniqueid": "MTK0294:3HL8HNGX468D92OFCC1ISD828P09FN", "current_trial": 221, "dateTime": 1510698992283, "trialdata": {"rt": -1, "stimulus": "<p id=\"stim\">3</p>", "key_press": -1, "trial_type": "single-stim", "trial_index": 221, "time_elapsed": 1011602, "internal_node_id": "0.0-160.0-7.0"}}, {"uniqueid": "MTK0294:3HL8HNGX468D92OFCC1ISD828P09FN", "current_trial": 222, "dateTime": 1510698993285, "trialdata": {"rt": -1, "stimulus": "<p id=\"stim\">2</p>", "key_press": -1, "trial_type": "single-stim", "trial_index": 222, "time_elapsed": 1012604, "internal_node_id": "0.0-160.0-8.0"}}, {"uniqueid": "MTK0294:3HL8HNGX468D92OFCC1ISD828P09FN", "current_trial": 223, "dateTime": 1510698994287, "trialdata": {"rt": -1, "stimulus": "<p id=\"stim\">1</p>", "key_press": -1, "trial_type": "single-stim", "trial_index": 223, "time_elapsed": 1013606, "internal_node_id": "0.0-160.0-9.0"}}, {"uniqueid": "MTK0294:3HL8HNGX468D92OFCC1ISD828P09FN", "current_trial": 224, "dateTime": 1510698995790, "trialdata": {"rt": -1, "stimulus": "<p id=\"stim\">+</p>", "key_press": -1, "type": "FIXATION", "trial_type": "single-stim", "trial_index": 224, "time_elapsed": 1015108, "internal_node_id": "0.0-161.0-0.0"}}, {"uniqueid": "MTK0294:3HL8HNGX468D92OFCC1ISD828P09FN", "current_trial": 225, "dateTime": 1510698998298, "trialdata": {"rt": -1000, "stimulus": "/static/audio/wordpool/TAXI.wav", "key_press": -1, "type": "PRES_AUD", "word": "taxi", "wordID": 1437, "conditions": [24, 1600, "a", 12000], "trial": 6, "serialpos": 0, "trial_type": "single-audio", "trial_index": 225, "time_elapsed": 1017617, "internal_node_id": "0.0-162.0"}}, {"uniqueid": "MTK0294:3HL8HNGX468D92OFCC1ISD828P09FN", "current_trial": 226, "dateTime": 1510699000804, "trialdata": {"rt": -1000, "stimulus": "/static/audio/wordpool/SPACE.wav", "key_press": -1, "type": "PRES_AUD", "word": "space", "wordID": 1344, "conditions": [24, 1600, "a", 12000], "trial": 6, "serialpos": 1, "trial_type": "single-audio", "trial_index": 226, "time_elapsed": 1020123, "internal_node_id": "0.0-163.0"}}, {"uniqueid": "MTK0294:3HL8HNGX468D92OFCC1ISD828P09FN", "current_trial": 227, "dateTime": 1510699003323, "trialdata": {"rt": -1000, "stimulus": "/static/audio/wordpool/CLIMBER.wav", "key_press": -1, "type": "PRES_AUD", "word": "climber", "wordID": 322, "conditions": [24, 1600, "a", 12000], "trial": 6, "serialpos": 2, "trial_type": "single-audio", "trial_index": 227, "time_elapsed": 1022641, "internal_node_id": "0.0-164.0"}}, {"uniqueid": "MTK0294:3HL8HNGX468D92OFCC1ISD828P09FN", "current_trial": 228, "dateTime": 1510699005934, "trialdata": {"rt": -1000, "stimulus": "/static/audio/wordpool/PIZZA.wav", "key_press": -1, "type": "PRES_AUD", "word": "pizza", "wordID": 1078, "conditions": [24, 1600, "a", 12000], "trial": 6, "serialpos": 3, "trial_type": "single-audio", "trial_index": 228, "time_elapsed": 1025253, "internal_node_id": "0.0-165.0"}}, {"uniqueid": "MTK0294:3HL8HNGX468D92OFCC1ISD828P09FN", "current_trial": 229, "dateTime": 1510699008601, "trialdata": {"rt": -1000, "stimulus": "/static/audio/wordpool/DINER.wav", "key_press": -1, "type": "PRES_AUD", "word": "diner", "wordID": 466, "conditions": [24, 1600, "a", 12000], "trial": 6, "serialpos": 4, "trial_type": "single-audio", "trial_index": 229, "time_elapsed": 1027920, "internal_node_id": "0.0-166.0"}}, {"uniqueid": "MTK0294:3HL8HNGX468D92OFCC1ISD828P09FN", "current_trial": 230, "dateTime": 1510699011274, "trialdata": {"rt": -1000, "stimulus": "/static/audio/wordpool/HEDGE.wav", "key_press": -1, "type": "PRES_AUD", "word": "hedge", "wordID": 698, "conditions": [24, 1600, "a", 12000], "trial": 6, "serialpos": 5, "trial_type": "single-audio", "trial_index": 230, "time_elapsed": 1030593, "internal_node_id": "0.0-167.0"}}, {"uniqueid": "MTK0294:3HL8HNGX468D92OFCC1ISD828P09FN", "current_trial": 231, "dateTime": 1510699013877, "trialdata": {"rt": -1000, "stimulus": "/static/audio/wordpool/RADISH.wav", "key_press": -1, "type": "PRES_AUD", "word": "radish", "wordID": 1157, "conditions": [24, 1600, "a", 12000], "trial": 6, "serialpos": 6, "trial_type": "single-audio", "trial_index": 231, "time_elapsed": 1033196, "internal_node_id": "0.0-168.0"}}, {"uniqueid": "MTK0294:3HL8HNGX468D92OFCC1ISD828P09FN", "current_trial": 232, "dateTime": 1510699016318, "trialdata": {"rt": -1000, "stimulus": "/static/audio/wordpool/PORK.wav", "key_press": -1, "type": "PRES_AUD", "word": "pork", "wordID": 1107, "conditions": [24, 1600, "a", 12000], "trial": 6, "serialpos": 7, "trial_type": "single-audio", "trial_index": 232, "time_elapsed": 1035637, "internal_node_id": "0.0-169.0"}}, {"uniqueid": "MTK0294:3HL8HNGX468D92OFCC1ISD828P09FN", "current_trial": 233, "dateTime": 1510699018786, "trialdata": {"rt": -1000, "stimulus": "/static/audio/wordpool/PEACH.wav", "key_press": -1, "type": "PRES_AUD", "word": "peach", "wordID": 1030, "conditions": [24, 1600, "a", 12000], "trial": 6, "serialpos": 8, "trial_type": "single-audio", "trial_index": 233, "time_elapsed": 1038105, "internal_node_id": "0.0-170.0"}}, {"uniqueid": "MTK0294:3HL8HNGX468D92OFCC1ISD828P09FN", "current_trial": 234, "dateTime": 1510699021414, "trialdata": {"rt": -1000, "stimulus": "/static/audio/wordpool/TORTOISE.wav", "key_press": -1, "type": "PRES_AUD", "word": "tortoise", "wordID": 1485, "conditions": [24, 1600, "a", 12000], "trial": 6, "serialpos": 9, "trial_type": "single-audio", "trial_index": 234, "time_elapsed": 1040733, "internal_node_id": "0.0-171.0"}}, {"uniqueid": "MTK0294:3HL8HNGX468D92OFCC1ISD828P09FN", "current_trial": 235, "dateTime": 1510699024192, "trialdata": {"rt": -1000, "stimulus": "/static/audio/wordpool/SNAIL.wav", "key_press": -1, "type": "PRES_AUD", "word": "snail", "wordID": 1331, "conditions": [24, 1600, "a", 12000], "trial": 6, "serialpos": 10, "trial_type": "single-audio", "trial_index": 235, "time_elapsed": 1043511, "internal_node_id": "0.0-172.0"}}, {"uniqueid": "MTK0294:3HL8HNGX468D92OFCC1ISD828P09FN", "current_trial": 236, "dateTime": 1510699026664, "trialdata": {"rt": -1000, "stimulus": "/static/audio/wordpool/WAITRESS.wav", "key_press": -1, "type": "PRES_AUD", "word": "waitress", "wordID": 1580, "conditions": [24, 1600, "a", 12000], "trial": 6, "serialpos": 11, "trial_type": "single-audio", "trial_index": 236, "time_elapsed": 1045983, "internal_node_id": "0.0-173.0"}}, {"uniqueid": "MTK0294:3HL8HNGX468D92OFCC1ISD828P09FN", "current_trial": 237, "dateTime": 1510699029396, "trialdata": {"rt": -1000, "stimulus": "/static/audio/wordpool/BASEMENT.wav", "key_press": -1, "type": "PRES_AUD", "word": "basement", "wordID": 93, "conditions": [24, 1600, "a", 12000], "trial": 6, "serialpos": 12, "trial_type": "single-audio", "trial_index": 237, "time_elapsed": 1048714, "internal_node_id": "0.0-174.0"}}, {"uniqueid": "MTK0294:3HL8HNGX468D92OFCC1ISD828P09FN", "current_trial": 238, "dateTime": 1510699031945, "trialdata": {"rt": -1000, "stimulus": "/static/audio/wordpool/JURY.wav", "key_press": -1, "type": "PRES_AUD", "word": "jury", "wordID": 765, "conditions": [24, 1600, "a", 12000], "trial": 6, "serialpos": 13, "trial_type": "single-audio", "trial_index": 238, "time_elapsed": 1051264, "internal_node_id": "0.0-175.0"}}, {"uniqueid": "MTK0294:3HL8HNGX468D92OFCC1ISD828P09FN", "current_trial": 239, "dateTime": 1510699034718, "trialdata": {"rt": -1000, "stimulus": "/static/audio/wordpool/APPLE.wav", "key_press": -1, "type": "PRES_AUD", "word": "apple", "wordID": 32, "conditions": [24, 1600, "a", 12000], "trial": 6, "serialpos": 14, "trial_type": "single-audio", "trial_index": 239, "time_elapsed": 1054037, "internal_node_id": "0.0-176.0"}}, {"uniqueid": "MTK0294:3HL8HNGX468D92OFCC1ISD828P09FN", "current_trial": 240, "dateTime": 1510699037359, "trialdata": {"rt": -1000, "stimulus": "/static/audio/wordpool/CUPBOARD.wav", "key_press": -1, "type": "PRES_AUD", "word": "cupboard", "wordID": 424, "conditions": [24, 1600, "a", 12000], "trial": 6, "serialpos": 15, "trial_type": "single-audio", "trial_index": 240, "time_elapsed": 1056678, "internal_node_id": "0.0-177.0"}}, {"uniqueid": "MTK0294:3HL8HNGX468D92OFCC1ISD828P09FN", "current_trial": 241, "dateTime": 1510699040093, "trialdata": {"rt": -1000, "stimulus": "/static/audio/wordpool/AWARD.wav", "key_press": -1, "type": "PRES_AUD", "word": "award", "wordID": 62, "conditions": [24, 1600, "a", 12000], "trial": 6, "serialpos": 16, "trial_type": "single-audio", "trial_index": 241, "time_elapsed": 1059412, "internal_node_id": "0.0-178.0"}}, {"uniqueid": "MTK0294:3HL8HNGX468D92OFCC1ISD828P09FN", "current_trial": 242, "dateTime": 1510699042576, "trialdata": {"rt": -1000, "stimulus": "/static/audio/wordpool/POCKET.wav", "key_press": -1, "type": "PRES_AUD", "word": "pocket", "wordID": 1092, "conditions": [24, 1600, "a", 12000], "trial": 6, "serialpos": 17, "trial_type": "single-audio", "trial_index": 242, "time_elapsed": 1061894, "internal_node_id": "0.0-179.0"}}, {"uniqueid": "MTK0294:3HL8HNGX468D92OFCC1ISD828P09FN", "current_trial": 243, "dateTime": 1510699045322, "trialdata": {"rt": -1000, "stimulus": "/static/audio/wordpool/SALAD.wav", "key_press": -1, "type": "PRES_AUD", "word": "salad", "wordID": 1223, "conditions": [24, 1600, "a", 12000], "trial": 6, "serialpos": 18, "trial_type": "single-audio", "trial_index": 243, "time_elapsed": 1064641, "internal_node_id": "0.0-180.0"}}, {"uniqueid": "MTK0294:3HL8HNGX468D92OFCC1ISD828P09FN", "current_trial": 244, "dateTime": 1510699047902, "trialdata": {"rt": -1000, "stimulus": "/static/audio/wordpool/SANDWICH.wav", "key_press": -1, "type": "PRES_AUD", "word": "sandwich", "wordID": 1231, "conditions": [24, 1600, "a", 12000], "trial": 6, "serialpos": 19, "trial_type": "single-audio", "trial_index": 244, "time_elapsed": 1067220, "internal_node_id": "0.0-181.0"}}, {"uniqueid": "MTK0294:3HL8HNGX468D92OFCC1ISD828P09FN", "current_trial": 245, "dateTime": 1510699050437, "trialdata": {"rt": -1000, "stimulus": "/static/audio/wordpool/RELISH.wav", "key_press": -1, "type": "PRES_AUD", "word": "relish", "wordID": 1182, "conditions": [24, 1600, "a", 12000], "trial": 6, "serialpos": 20, "trial_type": "single-audio", "trial_index": 245, "time_elapsed": 1069755, "internal_node_id": "0.0-182.0"}}, {"uniqueid": "MTK0294:3HL8HNGX468D92OFCC1ISD828P09FN", "current_trial": 246, "dateTime": 1510699053079, "trialdata": {"rt": -1000, "stimulus": "/static/audio/wordpool/ICEBERG.wav", "key_press": -1, "type": "PRES_AUD", "word": "iceberg", "wordID": 730, "conditions": [24, 1600, "a", 12000], "trial": 6, "serialpos": 21, "trial_type": "single-audio", "trial_index": 246, "time_elapsed": 1072398, "internal_node_id": "0.0-183.0"}}, {"uniqueid": "MTK0294:3HL8HNGX468D92OFCC1ISD828P09FN", "current_trial": 247, "dateTime": 1510699055803, "trialdata": {"rt": -1000, "stimulus": "/static/audio/wordpool/RAFT.wav", "key_press": -1, "type": "PRES_AUD", "word": "raft", "wordID": 1158, "conditions": [24, 1600, "a", 12000], "trial": 6, "serialpos": 22, "trial_type": "single-audio", "trial_index": 247, "time_elapsed": 1075122, "internal_node_id": "0.0-184.0"}}, {"uniqueid": "MTK0294:3HL8HNGX468D92OFCC1ISD828P09FN", "current_trial": 248, "dateTime": 1510699058489, "trialdata": {"rt": -1000, "stimulus": "/static/audio/wordpool/BRIEFCASE.wav", "key_press": -1, "type": "PRES_AUD", "word": "briefcase", "wordID": 174, "conditions": [24, 1600, "a", 12000], "trial": 6, "serialpos": 23, "trial_type": "single-audio", "trial_index": 248, "time_elapsed": 1077808, "internal_node_id": "0.0-185.0"}}, {"uniqueid": "MTK0294:3HL8HNGX468D92OFCC1ISD828P09FN", "current_trial": 249, "dateTime": 1510699059759, "trialdata": {"rt": -1, "stimulus": "", "key_press": -1, "type": "PRE_RECALL_DELAY", "trial_type": "single-stim", "trial_index": 249, "time_elapsed": 1079078, "internal_node_id": "0.0-186.0-0.0"}}, {"uniqueid": "MTK0294:3HL8HNGX468D92OFCC1ISD828P09FN", "current_trial": 250, "dateTime": 1510699060262, "trialdata": {"rt": -1000, "stimulus": "/static/audio/400Hz.wav", "key_press": -1, "type": "PRE_RECALL_ALERT", "trial_type": "single-audio", "trial_index": 250, "time_elapsed": 1079581, "internal_node_id": "0.0-187.0"}}, {"uniqueid": "MTK0294:3HL8HNGX468D92OFCC1ISD828P09FN", "current_trial": 251, "dateTime": 1510699120289, "trialdata": {"rt": [6261, 10933, 21436, 37409, 43924, 50586, 56957], "recwords": ["taxi", "space", "waitress", "relish", "iceburg", "raft", "briefcase"], "type": "FREE_RECALL", "conditions": [24, 1600, "a", 12000], "trial": 6, "trial_type": "free-recall", "trial_index": 251, "time_elapsed": 1139596, "internal_node_id": "0.0-188.0-0.0"}}, {"uniqueid": "MTK0294:3HL8HNGX468D92OFCC1ISD828P09FN", "current_trial": 252, "dateTime": 1510699128228, "trialdata": {"rt": 5936, "key_press": 32, "type": "INSTRUCTIONS", "trial_type": "text", "trial_index": 252, "time_elapsed": 1147547, "internal_node_id": "0.0-189.0"}}, {"uniqueid": "MTK0294:3HL8HNGX468D92OFCC1ISD828P09FN", "current_trial": 253, "dateTime": 1510699154242, "trialdata": {"rt": [2712, 4781, 7456, 11521, 13783, 16453, 19544, 22101], "responses": ["9", "18", "14", "18", "11", "7", "19", "17"], "num1": [1, 5, 2, 5, 3, 3, 8, 4, 5], "num2": [7, 5, 5, 8, 1, 2, 3, 6, 2], "num3": [1, 8, 7, 6, 7, 2, 8, 7, 3], "type": "DISTRACTOR", "conditions": [12, 1600, "a", 24000], "trial": 7, "trial_type": "math-distractor", "trial_index": 253, "time_elapsed": 1173558, "internal_node_id": "0.0-190.0"}}, {"uniqueid": "MTK0294:3HL8HNGX468D92OFCC1ISD828P09FN", "current_trial": 254, "dateTime": 1510699157250, "trialdata": {"rt": -1, "stimulus": "<p id=\"stim\">10</p>", "key_press": -1, "trial_type": "single-stim", "trial_index": 254, "time_elapsed": 1176568, "internal_node_id": "0.0-191.0-0.0"}}, {"uniqueid": "MTK0294:3HL8HNGX468D92OFCC1ISD828P09FN", "current_trial": 255, "dateTime": 1510699158252, "trialdata": {"rt": -1, "stimulus": "<p id=\"stim\">9</p>", "key_press": -1, "trial_type": "single-stim", "trial_index": 255, "time_elapsed": 1177570, "internal_node_id": "0.0-191.0-1.0"}}, {"uniqueid": "MTK0294:3HL8HNGX468D92OFCC1ISD828P09FN", "current_trial": 256, "dateTime": 1510699159254, "trialdata": {"rt": -1, "stimulus": "<p id=\"stim\">8</p>", "key_press": -1, "trial_type": "single-stim", "trial_index": 256, "time_elapsed": 1178573, "internal_node_id": "0.0-191.0-2.0"}}, {"uniqueid": "MTK0294:3HL8HNGX468D92OFCC1ISD828P09FN", "current_trial": 257, "dateTime": 1510699160256, "trialdata": {"rt": -1, "stimulus": "<p id=\"stim\">7</p>", "key_press": -1, "trial_type": "single-stim", "trial_index": 257, "time_elapsed": 1179574, "internal_node_id": "0.0-191.0-3.0"}}, {"uniqueid": "MTK0294:3HL8HNGX468D92OFCC1ISD828P09FN", "current_trial": 258, "dateTime": 1510699161257, "trialdata": {"rt": -1, "stimulus": "<p id=\"stim\">6</p>", "key_press": -1, "trial_type": "single-stim", "trial_index": 258, "time_elapsed": 1180576, "internal_node_id": "0.0-191.0-4.0"}}, {"uniqueid": "MTK0294:3HL8HNGX468D92OFCC1ISD828P09FN", "current_trial": 259, "dateTime": 1510699162259, "trialdata": {"rt": -1, "stimulus": "<p id=\"stim\">5</p>", "key_press": -1, "trial_type": "single-stim", "trial_index": 259, "time_elapsed": 1181577, "internal_node_id": "0.0-191.0-5.0"}}, {"uniqueid": "MTK0294:3HL8HNGX468D92OFCC1ISD828P09FN", "current_trial": 260, "dateTime": 1510699163261, "trialdata": {"rt": -1, "stimulus": "<p id=\"stim\">4</p>", "key_press": -1, "trial_type": "single-stim", "trial_index": 260, "time_elapsed": 1182579, "internal_node_id": "0.0-191.0-6.0"}}, {"uniqueid": "MTK0294:3HL8HNGX468D92OFCC1ISD828P09FN", "current_trial": 261, "dateTime": 1510699164263, "trialdata": {"rt": -1, "stimulus": "<p id=\"stim\">3</p>", "key_press": -1, "trial_type": "single-stim", "trial_index": 261, "time_elapsed": 1183582, "internal_node_id": "0.0-191.0-7.0"}}, {"uniqueid": "MTK0294:3HL8HNGX468D92OFCC1ISD828P09FN", "current_trial": 262, "dateTime": 1510699165265, "trialdata": {"rt": -1, "stimulus": "<p id=\"stim\">2</p>", "key_press": -1, "trial_type": "single-stim", "trial_index": 262, "time_elapsed": 1184584, "internal_node_id": "0.0-191.0-8.0"}}, {"uniqueid": "MTK0294:3HL8HNGX468D92OFCC1ISD828P09FN", "current_trial": 263, "dateTime": 1510699166267, "trialdata": {"rt": -1, "stimulus": "<p id=\"stim\">1</p>", "key_press": -1, "trial_type": "single-stim", "trial_index": 263, "time_elapsed": 1185586, "internal_node_id": "0.0-191.0-9.0"}}, {"uniqueid": "MTK0294:3HL8HNGX468D92OFCC1ISD828P09FN", "current_trial": 264, "dateTime": 1510699167769, "trialdata": {"rt": -1, "stimulus": "<p id=\"stim\">+</p>", "key_press": -1, "type": "FIXATION", "trial_type": "single-stim", "trial_index": 264, "time_elapsed": 1187088, "internal_node_id": "0.0-192.0-0.0"}}, {"uniqueid": "MTK0294:3HL8HNGX468D92OFCC1ISD828P09FN", "current_trial": 265, "dateTime": 1510699170254, "trialdata": {"rt": -1000, "stimulus": "/static/audio/wordpool/STAPLE.wav", "key_press": -1, "type": "PRES_AUD", "word": "staple", "wordID": 1370, "conditions": [12, 1600, "a", 24000], "trial": 7, "serialpos": 0, "trial_type": "single-audio", "trial_index": 265, "time_elapsed": 1189573, "internal_node_id": "0.0-193.0"}}, {"uniqueid": "MTK0294:3HL8HNGX468D92OFCC1ISD828P09FN", "current_trial": 266, "dateTime": 1510699172740, "trialdata": {"rt": -1000, "stimulus": "/static/audio/wordpool/LETTUCE.wav", "key_press": -1, "type": "PRES_AUD", "word": "lettuce", "wordID": 813, "conditions": [12, 1600, "a", 24000], "trial": 7, "serialpos": 1, "trial_type": "single-audio", "trial_index": 266, "time_elapsed": 1192059, "internal_node_id": "0.0-194.0"}}, {"uniqueid": "MTK0294:3HL8HNGX468D92OFCC1ISD828P09FN", "current_trial": 267, "dateTime": 1510699175172, "trialdata": {"rt": -1000, "stimulus": "/static/audio/wordpool/GRAVE.wav", "key_press": -1, "type": "PRES_AUD", "word": "grave", "wordID": 657, "conditions": [12, 1600, "a", 24000], "trial": 7, "serialpos": 2, "trial_type": "single-audio", "trial_index": 267, "time_elapsed": 1194490, "internal_node_id": "0.0-195.0"}}, {"uniqueid": "MTK0294:3HL8HNGX468D92OFCC1ISD828P09FN", "current_trial": 268, "dateTime": 1510699177653, "trialdata": {"rt": -1000, "stimulus": "/static/audio/wordpool/DRIVER.wav", "key_press": -1, "type": "PRES_AUD", "word": "driver", "wordID": 498, "conditions": [12, 1600, "a", 24000], "trial": 7, "serialpos": 3, "trial_type": "single-audio", "trial_index": 268, "time_elapsed": 1196972, "internal_node_id": "0.0-196.0"}}, {"uniqueid": "MTK0294:3HL8HNGX468D92OFCC1ISD828P09FN", "current_trial": 269, "dateTime": 1510699180280, "trialdata": {"rt": -1000, "stimulus": "/static/audio/wordpool/TRUCK.wav", "key_press": -1, "type": "PRES_AUD", "word": "truck", "wordID": 1511, "conditions": [12, 1600, "a", 24000], "trial": 7, "serialpos": 4, "trial_type": "single-audio", "trial_index": 269, "time_elapsed": 1199599, "internal_node_id": "0.0-197.0"}}, {"uniqueid": "MTK0294:3HL8HNGX468D92OFCC1ISD828P09FN", "current_trial": 270, "dateTime": 1510699182713, "trialdata": {"rt": -1000, "stimulus": "/static/audio/wordpool/THREAD.wav", "key_press": -1, "type": "PRES_AUD", "word": "thread", "wordID": 1459, "conditions": [12, 1600, "a", 24000], "trial": 7, "serialpos": 5, "trial_type": "single-audio", "trial_index": 270, "time_elapsed": 1202031, "internal_node_id": "0.0-198.0"}}, {"uniqueid": "MTK0294:3HL8HNGX468D92OFCC1ISD828P09FN", "current_trial": 271, "dateTime": 1510699185188, "trialdata": {"rt": -1000, "stimulus": "/static/audio/wordpool/SCOTCH.wav", "key_press": -1, "type": "PRES_AUD", "word": "scotch", "wordID": 1250, "conditions": [12, 1600, "a", 24000], "trial": 7, "serialpos": 6, "trial_typ