{"condition": 0, "counterbalance": 897, "assignmentId": "3ZSANO2JCGEVEHKELI1998DS138SFH", "workerId": "MTK0517", "hitId": "37S0QRNUFBN2TYXO94KWT50LO24881", "currenttrial": 629, "bonus": 0, "data": [{"uniqueid": "MTK0517:3ZSANO2JCGEVEHKELI1998DS138SFH", "current_trial": 0, "dateTime": 1511197501575, "trialdata": {"rt": 3714, "key_press": 32, "type": "INSTRUCTIONS", "trial_type": "text", "trial_index": 0, "time_elapsed": 3717, "internal_node_id": "0.0-0.0"}}, {"uniqueid": "MTK0517:3ZSANO2JCGEVEHKELI1998DS138SFH", "current_trial": 1, "dateTime": 1511197503273, "trialdata": {"rt": 1696, "key_press": 32, "type": "INSTRUCTIONS", "trial_type": "text", "trial_index": 1, "time_elapsed": 5417, "internal_node_id": "0.0-1.0"}}, {"uniqueid": "MTK0517:3ZSANO2JCGEVEHKELI1998DS138SFH", "current_trial": 2, "dateTime": 1511197522144, "trialdata": {"rt": [18858], "responses": ["ocean"], "type": "AUDIO_TEST", "trial_type": "audio-test", "trial_index": 2, "time_elapsed": 24288, "internal_node_id": "0.0-2.0"}}, {"uniqueid": "MTK0517:3ZSANO2JCGEVEHKELI1998DS138SFH", "current_trial": 3, "dateTime": 1511197590073, "trialdata": {"rt": [67921], "responses": ["crystal"], "type": "AUDIO_TEST", "trial_type": "audio-test", "trial_index": 3, "time_elapsed": 92217, "internal_node_id": "0.0-3.0"}}, {"uniqueid": "MTK0517:3ZSANO2JCGEVEHKELI1998DS138SFH", "current_trial": 4, "dateTime": 1511197604546, "trialdata": {"rt": [14464], "responses": ["spice"], "type": "AUDIO_TEST", "trial_type": "audio-test", "trial_index": 4, "time_elapsed": 106690, "internal_node_id": "0.0-4.0"}}, {"uniqueid": "MTK0517:3ZSANO2JCGEVEHKELI1998DS138SFH", "current_trial": 5, "dateTime": 1511197732255, "trialdata": {"rt": 126956, "responses": "{\"Q0\":\"11.30 PM\",\"Q1\":\"8 AM\",\"Q2\":\"5\"}", "type": "SLEEP_SURVEY", "trial_type": "survey-text", "trial_index": 5, "time_elapsed": 234399, "internal_node_id": "0.0-5.0"}}, {"uniqueid": "MTK0517:3ZSANO2JCGEVEHKELI1998DS138SFH", "current_trial": 6, "dateTime": 1511197735990, "trialdata": {"rt": 2732, "key_press": 17, "type": "INSTRUCTIONS", "trial_type": "text", "trial_index": 6, "time_elapsed": 238133, "internal_node_id": "0.0-6.0"}}, {"uniqueid": "MTK0517:3ZSANO2JCGEVEHKELI1998DS138SFH", "current_trial": 7, "dateTime": 1511197770423, "trialdata": {"rt": 33929, "key_press": 32, "type": "INSTRUCTIONS", "trial_type": "text", "trial_index": 7, "time_elapsed": 272567, "internal_node_id": "0.0-7.0"}}, {"uniqueid": "MTK0517:3ZSANO2JCGEVEHKELI1998DS138SFH", "current_trial": 8, "dateTime": 1511197785262, "trialdata": {"rt": 14337, "key_press": 32, "type": "INSTRUCTIONS", "trial_type": "text", "trial_index": 8, "time_elapsed": 287405, "internal_node_id": "0.0-8.0"}}, {"uniqueid": "MTK0517:3ZSANO2JCGEVEHKELI1998DS138SFH", "current_trial": 9, "dateTime": 1511197804273, "trialdata": {"rt": [7212, 12297, 16066], "responses": ["16", "18", "15"], "num1": [9, 5, 4, 4], "num2": [1, 4, 6, 4], "num3": [6, 9, 5, 1], "type": "DISTRACTOR", "conditions": [18, 1200, "v", 18000], "trial": 0, "trial_type": "math-distractor", "trial_index": 9, "time_elapsed": 306417, "internal_node_id": "0.0-9.0"}}, {"uniqueid": "MTK0517:3ZSANO2JCGEVEHKELI1998DS138SFH", "current_trial": 10, "dateTime": 1511197807278, "trialdata": {"rt": -1, "stimulus": "<p id=\"stim\">10</p>", "key_press": -1, "trial_type": "single-stim", "trial_index": 10, "time_elapsed": 309422, "internal_node_id": "0.0-10.0-0.0"}}, {"uniqueid": "MTK0517:3ZSANO2JCGEVEHKELI1998DS138SFH", "current_trial": 11, "dateTime": 1511197808281, "trialdata": {"rt": -1, "stimulus": "<p id=\"stim\">9</p>", "key_press": -1, "trial_type": "single-stim", "trial_index": 11, "time_elapsed": 310425, "internal_node_id": "0.0-10.0-1.0"}}, {"uniqueid": "MTK0517:3ZSANO2JCGEVEHKELI1998DS138SFH", "current_trial": 12, "dateTime": 1511197809284, "trialdata": {"rt": -1, "stimulus": "<p id=\"stim\">8</p>", "key_press": -1, "trial_type": "single-stim", "trial_index": 12, "time_elapsed": 311428, "internal_node_id": "0.0-10.0-2.0"}}, {"uniqueid": "MTK0517:3ZSANO2JCGEVEHKELI1998DS138SFH", "current_trial": 13, "dateTime": 1511197810288, "trialdata": {"rt": -1, "stimulus": "<p id=\"stim\">7</p>", "key_press": -1, "trial_type": "single-stim", "trial_index": 13, "time_elapsed": 312431, "internal_node_id": "0.0-10.0-3.0"}}, {"uniqueid": "MTK0517:3ZSANO2JCGEVEHKELI1998DS138SFH", "current_trial": 14, "dateTime": 1511197811291, "trialdata": {"rt": -1, "stimulus": "<p id=\"stim\">6</p>", "key_press": -1, "trial_type": "single-stim", "trial_index": 14, "time_elapsed": 313434, "internal_node_id": "0.0-10.0-4.0"}}, {"uniqueid": "MTK0517:3ZSANO2JCGEVEHKELI1998DS138SFH", "current_trial": 15, "dateTime": 1511197812293, "trialdata": {"rt": -1, "stimulus": "<p id=\"stim\">5</p>", "key_press": -1, "trial_type": "single-stim", "trial_index": 15, "time_elapsed": 314437, "internal_node_id": "0.0-10.0-5.0"}}, {"uniqueid": "MTK0517:3ZSANO2JCGEVEHKELI1998DS138SFH", "current_trial": 16, "dateTime": 1511197813296, "trialdata": {"rt": -1, "stimulus": "<p id=\"stim\">4</p>", "key_press": -1, "trial_type": "single-stim", "trial_index": 16, "time_elapsed": 315440, "internal_node_id": "0.0-10.0-6.0"}}, {"uniqueid": "MTK0517:3ZSANO2JCGEVEHKELI1998DS138SFH", "current_trial": 17, "dateTime": 1511197814297, "trialdata": {"rt": -1, "stimulus": "<p id=\"stim\">3</p>", "key_press": -1, "trial_type": "single-stim", "trial_index": 17, "time_elapsed": 316441, "internal_node_id": "0.0-10.0-7.0"}}, {"uniqueid": "MTK0517:3ZSANO2JCGEVEHKELI1998DS138SFH", "current_trial": 18, "dateTime": 1511197815299, "trialdata": {"rt": -1, "stimulus": "<p id=\"stim\">2</p>", "key_press": -1, "trial_type": "single-stim", "trial_index": 18, "time_elapsed": 317443, "internal_node_id": "0.0-10.0-8.0"}}, {"uniqueid": "MTK0517:3ZSANO2JCGEVEHKELI1998DS138SFH", "current_trial": 19, "dateTime": 1511197816302, "trialdata": {"rt": -1, "stimulus": "<p id=\"stim\">1</p>", "key_press": -1, "trial_type": "single-stim", "trial_index": 19, "time_elapsed": 318445, "internal_node_id": "0.0-10.0-9.0"}}, {"uniqueid": "MTK0517:3ZSANO2JCGEVEHKELI1998DS138SFH", "current_trial": 20, "dateTime": 1511197817804, "trialdata": {"rt": -1, "stimulus": "<p id=\"stim\">+</p>", "key_press": -1, "type": "FIXATION", "trial_type": "single-stim", "trial_index": 20, "time_elapsed": 319948, "internal_node_id": "0.0-11.0-0.0"}}, {"uniqueid": "MTK0517:3ZSANO2JCGEVEHKELI1998DS138SFH", "current_trial": 21, "dateTime": 1511197819006, "trialdata": {"rt": -1, "stimulus": "<p id=\"stim\">KEEPER</p>", "key_press": -1, "type": "PRES_VIS", "word": "keeper", "wordID": 768, "conditions": [18, 1200, "v", 18000], "trial": 0, "serialpos": 0, "trial_type": "single-stim", "trial_index": 21, "time_elapsed": 321149, "internal_node_id": "0.0-12.0"}}, {"uniqueid": "MTK0517:3ZSANO2JCGEVEHKELI1998DS138SFH", "current_trial": 22, "dateTime": 1511197821187, "trialdata": {"rt": -1, "stimulus": "<p id=\"stim\">CROWN</p>", "key_press": -1, "type": "PRES_VIS", "word": "crown", "wordID": 414, "conditions": [18, 1200, "v", 18000], "trial": 0, "serialpos": 1, "trial_type": "single-stim", "trial_index": 22, "time_elapsed": 323331, "internal_node_id": "0.0-13.0"}}, {"uniqueid": "MTK0517:3ZSANO2JCGEVEHKELI1998DS138SFH", "current_trial": 23, "dateTime": 1511197823565, "trialdata": {"rt": -1, "stimulus": "<p id=\"stim\">LODGE</p>", "key_press": -1, "type": "PRES_VIS", "word": "lodge", "wordID": 838, "conditions": [18, 1200, "v", 18000], "trial": 0, "serialpos": 2, "trial_type": "single-stim", "trial_index": 23, "time_elapsed": 325709, "internal_node_id": "0.0-14.0"}}, {"uniqueid": "MTK0517:3ZSANO2JCGEVEHKELI1998DS138SFH", "current_trial": 24, "dateTime": 1511197825849, "trialdata": {"rt": -1, "stimulus": "<p id=\"stim\">LAGOON</p>", "key_press": -1, "type": "PRES_VIS", "word": "lagoon", "wordID": 794, "conditions": [18, 1200, "v", 18000], "trial": 0, "serialpos": 3, "trial_type": "single-stim", "trial_index": 24, "time_elapsed": 327993, "internal_node_id": "0.0-15.0"}}, {"uniqueid": "MTK0517:3ZSANO2JCGEVEHKELI1998DS138SFH", "current_trial": 25, "dateTime": 1511197827864, "trialdata": {"rt": -1, "stimulus": "<p id=\"stim\">ITEM</p>", "key_press": -1, "type": "PRES_VIS", "word": "item", "wordID": 745, "conditions": [18, 1200, "v", 18000], "trial": 0, "serialpos": 4, "trial_type": "single-stim", "trial_index": 25, "time_elapsed": 330008, "internal_node_id": "0.0-16.0"}}, {"uniqueid": "MTK0517:3ZSANO2JCGEVEHKELI1998DS138SFH", "current_trial": 26, "dateTime": 1511197830021, "trialdata": {"rt": -1, "stimulus": "<p id=\"stim\">LADY</p>", "key_press": -1, "type": "PRES_VIS", "word": "lady", "wordID": 793, "conditions": [18, 1200, "v", 18000], "trial": 0, "serialpos": 5, "trial_type": "single-stim", "trial_index": 26, "time_elapsed": 332165, "internal_node_id": "0.0-17.0"}}, {"uniqueid": "MTK0517:3ZSANO2JCGEVEHKELI1998DS138SFH", "current_trial": 27, "dateTime": 1511197832320, "trialdata": {"rt": -1, "stimulus": "<p id=\"stim\">POET</p>", "key_press": -1, "type": "PRES_VIS", "word": "poet", "wordID": 1094, "conditions": [18, 1200, "v", 18000], "trial": 0, "serialpos": 6, "trial_type": "single-stim", "trial_index": 27, "time_elapsed": 334464, "internal_node_id": "0.0-18.0"}}, {"uniqueid": "MTK0517:3ZSANO2JCGEVEHKELI1998DS138SFH", "current_trial": 28, "dateTime": 1511197834411, "trialdata": {"rt": -1, "stimulus": "<p id=\"stim\">ICING</p>", "key_press": -1, "type": "PRES_VIS", "word": "icing", "wordID": 731, "conditions": [18, 1200, "v", 18000], "trial": 0, "serialpos": 7, "trial_type": "single-stim", "trial_index": 28, "time_elapsed": 336555, "internal_node_id": "0.0-19.0"}}, {"uniqueid": "MTK0517:3ZSANO2JCGEVEHKELI1998DS138SFH", "current_trial": 29, "dateTime": 1511197836640, "trialdata": {"rt": -1, "stimulus": "<p id=\"stim\">MAILBOX</p>", "key_press": -1, "type": "PRES_VIS", "word": "mailbox", "wordID": 856, "conditions": [18, 1200, "v", 18000], "trial": 0, "serialpos": 8, "trial_type": "single-stim", "trial_index": 29, "time_elapsed": 338784, "internal_node_id": "0.0-20.0"}}, {"uniqueid": "MTK0517:3ZSANO2JCGEVEHKELI1998DS138SFH", "current_trial": 30, "dateTime": 1511197838759, "trialdata": {"rt": -1, "stimulus": "<p id=\"stim\">VIKING</p>", "key_press": -1, "type": "PRES_VIS", "word": "viking", "wordID": 1564, "conditions": [18, 1200, "v", 18000], "trial": 0, "serialpos": 9, "trial_type": "single-stim", "trial_index": 30, "time_elapsed": 340903, "internal_node_id": "0.0-21.0"}}, {"uniqueid": "MTK0517:3ZSANO2JCGEVEHKELI1998DS138SFH", "current_trial": 31, "dateTime": 1511197840819, "trialdata": {"rt": -1, "stimulus": "<p id=\"stim\">PERCH</p>", "key_press": -1, "type": "PRES_VIS", "word": "perch", "wordID": 1047, "conditions": [18, 1200, "v", 18000], "trial": 0, "serialpos": 10, "trial_type": "single-stim", "trial_index": 31, "time_elapsed": 342963, "internal_node_id": "0.0-22.0"}}, {"uniqueid": "MTK0517:3ZSANO2JCGEVEHKELI1998DS138SFH", "current_trial": 32, "dateTime": 1511197842897, "trialdata": {"rt": -1, "stimulus": "<p id=\"stim\">PEBBLE</p>", "key_press": -1, "type": "PRES_VIS", "word": "pebble", "wordID": 1034, "conditions": [18, 1200, "v", 18000], "trial": 0, "serialpos": 11, "trial_type": "single-stim", "trial_index": 32, "time_elapsed": 345041, "internal_node_id": "0.0-23.0"}}, {"uniqueid": "MTK0517:3ZSANO2JCGEVEHKELI1998DS138SFH", "current_trial": 33, "dateTime": 1511197844937, "trialdata": {"rt": -1, "stimulus": "<p id=\"stim\">MOTOR</p>", "key_press": -1, "type": "PRES_VIS", "word": "motor", "wordID": 921, "conditions": [18, 1200, "v", 18000], "trial": 0, "serialpos": 12, "trial_type": "single-stim", "trial_index": 33, "time_elapsed": 347080, "internal_node_id": "0.0-24.0"}}, {"uniqueid": "MTK0517:3ZSANO2JCGEVEHKELI1998DS138SFH", "current_trial": 34, "dateTime": 1511197847108, "trialdata": {"rt": -1, "stimulus": "<p id=\"stim\">GLOBE</p>", "key_press": -1, "type": "PRES_VIS", "word": "globe", "wordID": 640, "conditions": [18, 1200, "v", 18000], "trial": 0, "serialpos": 13, "trial_type": "single-stim", "trial_index": 34, "time_elapsed": 349251, "internal_node_id": "0.0-25.0"}}, {"uniqueid": "MTK0517:3ZSANO2JCGEVEHKELI1998DS138SFH", "current_trial": 35, "dateTime": 1511197849467, "trialdata": {"rt": -1, "stimulus": "<p id=\"stim\">NOTEBOOK</p>", "key_press": -1, "type": "PRES_VIS", "word": "notebook", "wordID": 958, "conditions": [18, 1200, "v", 18000], "trial": 0, "serialpos": 14, "trial_type": "single-stim", "trial_index": 35, "time_elapsed": 351611, "internal_node_id": "0.0-26.0"}}, {"uniqueid": "MTK0517:3ZSANO2JCGEVEHKELI1998DS138SFH", "current_trial": 36, "dateTime": 1511197851559, "trialdata": {"rt": -1, "stimulus": "<p id=\"stim\">DORM</p>", "key_press": -1, "type": "PRES_VIS", "word": "dorm", "wordID": 487, "conditions": [18, 1200, "v", 18000], "trial": 0, "serialpos": 15, "trial_type": "single-stim", "trial_index": 36, "time_elapsed": 353703, "internal_node_id": "0.0-27.0"}}, {"uniqueid": "MTK0517:3ZSANO2JCGEVEHKELI1998DS138SFH", "current_trial": 37, "dateTime": 1511197853734, "trialdata": {"rt": -1, "stimulus": "<p id=\"stim\">TAXI</p>", "key_press": -1, "type": "PRES_VIS", "word": "taxi", "wordID": 1437, "conditions": [18, 1200, "v", 18000], "trial": 0, "serialpos": 16, "trial_type": "single-stim", "trial_index": 37, "time_elapsed": 355877, "internal_node_id": "0.0-28.0"}}, {"uniqueid": "MTK0517:3ZSANO2JCGEVEHKELI1998DS138SFH", "current_trial": 38, "dateTime": 1511197856053, "trialdata": {"rt": -1, "stimulus": "<p id=\"stim\">SHOVEL</p>", "key_press": -1, "type": "PRES_VIS", "word": "shovel", "wordID": 1294, "conditions": [18, 1200, "v", 18000], "trial": 0, "serialpos": 17, "trial_type": "single-stim", "trial_index": 38, "time_elapsed": 358196, "internal_node_id": "0.0-29.0"}}, {"uniqueid": "MTK0517:3ZSANO2JCGEVEHKELI1998DS138SFH", "current_trial": 39, "dateTime": 1511197858485, "trialdata": {"rt": -1, "stimulus": "", "key_press": -1, "type": "PRE_RECALL_DELAY", "trial_type": "single-stim", "trial_index": 39, "time_elapsed": 360628, "internal_node_id": "0.0-30.0-0.0"}}, {"uniqueid": "MTK0517:3ZSANO2JCGEVEHKELI1998DS138SFH", "current_trial": 40, "dateTime": 1511197858988, "trialdata": {"rt": -1000, "stimulus": "/static/audio/400Hz.wav", "key_press": -1, "type": "PRE_RECALL_ALERT", "trial_type": "single-audio", "trial_index": 40, "time_elapsed": 361132, "internal_node_id": "0.0-31.0"}}, {"uniqueid": "MTK0517:3ZSANO2JCGEVEHKELI1998DS138SFH", "current_trial": 41, "dateTime": 1511197918993, "trialdata": {"rt": [8792, 9109, 10361, 10562, 15110, 15340, 18558, 23435, 27702, 32416, 36219, 41705, 46431, 55333, 57285], "recwords": ["globe", "", "room", "", "keeper", "", "lady", "pebble", "shovel", "taxi", "lagoon", "knight", "lodge", "lady", "pebb"], "type": "FREE_RECALL", "conditions": [18, 1200, "v", 18000], "trial": 0, "trial_type": "free-recall", "trial_index": 41, "time_elapsed": 421136, "internal_node_id": "0.0-32.0-0.0"}}, {"uniqueid": "MTK0517:3ZSANO2JCGEVEHKELI1998DS138SFH", "current_trial": 42, "dateTime": 1511197922784, "trialdata": {"rt": 1789, "key_press": 32, "type": "INSTRUCTIONS", "trial_type": "text", "trial_index": 42, "time_elapsed": 424927, "internal_node_id": "0.0-33.0"}}, {"uniqueid": "MTK0517:3ZSANO2JCGEVEHKELI1998DS138SFH", "current_trial": 43, "dateTime": 1511197942789, "trialdata": {"rt": [6363, 9627, 13134, 16737], "responses": ["22", "16", "16", "17"], "num1": [6, 7, 5, 5, 9], "num2": [9, 8, 6, 3, 2], "num3": [7, 1, 5, 9, 9], "type": "DISTRACTOR", "conditions": [18, 1200, "a", 18000], "trial": 1, "trial_type": "math-distractor", "trial_index": 43, "time_elapsed": 444933, "internal_node_id": "0.0-34.0"}}, {"uniqueid": "MTK0517:3ZSANO2JCGEVEHKELI1998DS138SFH", "current_trial": 44, "dateTime": 1511197945792, "trialdata": {"rt": -1, "stimulus": "<p id=\"stim\">10</p>", "key_press": -1, "trial_type": "single-stim", "trial_index": 44, "time_elapsed": 447936, "internal_node_id": "0.0-35.0-0.0"}}, {"uniqueid": "MTK0517:3ZSANO2JCGEVEHKELI1998DS138SFH", "current_trial": 45, "dateTime": 1511197946794, "trialdata": {"rt": -1, "stimulus": "<p id=\"stim\">9</p>", "key_press": -1, "trial_type": "single-stim", "trial_index": 45, "time_elapsed": 448937, "internal_node_id": "0.0-35.0-1.0"}}, {"uniqueid": "MTK0517:3ZSANO2JCGEVEHKELI1998DS138SFH", "current_trial": 46, "dateTime": 1511197947796, "trialdata": {"rt": -1, "stimulus": "<p id=\"stim\">8</p>", "key_press": -1, "trial_type": "single-stim", "trial_index": 46, "time_elapsed": 449940, "internal_node_id": "0.0-35.0-2.0"}}, {"uniqueid": "MTK0517:3ZSANO2JCGEVEHKELI1998DS138SFH", "current_trial": 47, "dateTime": 1511197948799, "trialdata": {"rt": -1, "stimulus": "<p id=\"stim\">7</p>", "key_press": -1, "trial_type": "single-stim", "trial_index": 47, "time_elapsed": 450942, "internal_node_id": "0.0-35.0-3.0"}}, {"uniqueid": "MTK0517:3ZSANO2JCGEVEHKELI1998DS138SFH", "current_trial": 48, "dateTime": 1511197949802, "trialdata": {"rt": -1, "stimulus": "<p id=\"stim\">6</p>", "key_press": -1, "trial_type": "single-stim", "trial_index": 48, "time_elapsed": 451946, "internal_node_id": "0.0-35.0-4.0"}}, {"uniqueid": "MTK0517:3ZSANO2JCGEVEHKELI1998DS138SFH", "current_trial": 49, "dateTime": 1511197950804, "trialdata": {"rt": -1, "stimulus": "<p id=\"stim\">5</p>", "key_press": -1, "trial_type": "single-stim", "trial_index": 49, "time_elapsed": 452947, "internal_node_id": "0.0-35.0-5.0"}}, {"uniqueid": "MTK0517:3ZSANO2JCGEVEHKELI1998DS138SFH", "current_trial": 50, "dateTime": 1511197951805, "trialdata": {"rt": -1, "stimulus": "<p id=\"stim\">4</p>", "key_press": -1, "trial_type": "single-stim", "trial_index": 50, "time_elapsed": 453949, "internal_node_id": "0.0-35.0-6.0"}}, {"uniqueid": "MTK0517:3ZSANO2JCGEVEHKELI1998DS138SFH", "current_trial": 51, "dateTime": 1511197952807, "trialdata": {"rt": -1, "stimulus": "<p id=\"stim\">3</p>", "key_press": -1, "trial_type": "single-stim", "trial_index": 51, "time_elapsed": 454950, "internal_node_id": "0.0-35.0-7.0"}}, {"uniqueid": "MTK0517:3ZSANO2JCGEVEHKELI1998DS138SFH", "current_trial": 52, "dateTime": 1511197953818, "trialdata": {"rt": -1, "stimulus": "<p id=\"stim\">2</p>", "key_press": -1, "trial_type": "single-stim", "trial_index": 52, "time_elapsed": 455962, "internal_node_id": "0.0-35.0-8.0"}}, {"uniqueid": "MTK0517:3ZSANO2JCGEVEHKELI1998DS138SFH", "current_trial": 53, "dateTime": 1511197954820, "trialdata": {"rt": -1, "stimulus": "<p id=\"stim\">1</p>", "key_press": -1, "trial_type": "single-stim", "trial_index": 53, "time_elapsed": 456964, "internal_node_id": "0.0-35.0-9.0"}}, {"uniqueid": "MTK0517:3ZSANO2JCGEVEHKELI1998DS138SFH", "current_trial": 54, "dateTime": 1511197956323, "trialdata": {"rt": -1, "stimulus": "<p id=\"stim\">+</p>", "key_press": -1, "type": "FIXATION", "trial_type": "single-stim", "trial_index": 54, "time_elapsed": 458467, "internal_node_id": "0.0-36.0-0.0"}}, {"uniqueid": "MTK0517:3ZSANO2JCGEVEHKELI1998DS138SFH", "current_trial": 55, "dateTime": 1511197958376, "trialdata": {"rt": -1000, "stimulus": "/static/audio/wordpool/JELLY.wav", "key_press": -1, "type": "PRES_AUD", "word": "jelly", "wordID": 754, "conditions": [18, 1200, "a", 18000], "trial": 1, "serialpos": 0, "trial_type": "single-audio", "trial_index": 55, "time_elapsed": 460520, "internal_node_id": "0.0-37.0"}}, {"uniqueid": "MTK0517:3ZSANO2JCGEVEHKELI1998DS138SFH", "current_trial": 56, "dateTime": 1511197960436, "trialdata": {"rt": -1000, "stimulus": "/static/audio/wordpool/RECORD.wav", "key_press": -1, "type": "PRES_AUD", "word": "record", "wordID": 1175, "conditions": [18, 1200, "a", 18000], "trial": 1, "serialpos": 1, "trial_type": "single-audio", "trial_index": 56, "time_elapsed": 462580, "internal_node_id": "0.0-38.0"}}, {"uniqueid": "MTK0517:3ZSANO2JCGEVEHKELI1998DS138SFH", "current_trial": 57, "dateTime": 1511197962614, "trialdata": {"rt": -1000, "stimulus": "/static/audio/wordpool/GUARD.wav", "key_press": -1, "type": "PRES_AUD", "word": "guard", "wordID": 666, "conditions": [18, 1200, "a", 18000], "trial": 1, "serialpos": 2, "trial_type": "single-audio", "trial_index": 57, "time_elapsed": 464758, "internal_node_id": "0.0-39.0"}}, {"uniqueid": "MTK0517:3ZSANO2JCGEVEHKELI1998DS138SFH", "current_trial": 58, "dateTime": 1511197964787, "trialdata": {"rt": -1000, "stimulus": "/static/audio/wordpool/PACKAGE.wav", "key_press": -1, "type": "PRES_AUD", "word": "package", "wordID": 996, "conditions": [18, 1200, "a", 18000], "trial": 1, "serialpos": 3, "trial_type": "single-audio", "trial_index": 58, "time_elapsed": 466931, "internal_node_id": "0.0-40.0"}}, {"uniqueid": "MTK0517:3ZSANO2JCGEVEHKELI1998DS138SFH", "current_trial": 59, "dateTime": 1511197967107, "trialdata": {"rt": -1000, "stimulus": "/static/audio/wordpool/WARDROBE.wav", "key_press": -1, "type": "PRES_AUD", "word": "wardrobe", "wordID": 1586, "conditions": [18, 1200, "a", 18000], "trial": 1, "serialpos": 4, "trial_type": "single-audio", "trial_index": 59, "time_elapsed": 469250, "internal_node_id": "0.0-41.0"}}, {"uniqueid": "MTK0517:3ZSANO2JCGEVEHKELI1998DS138SFH", "current_trial": 60, "dateTime": 1511197969285, "trialdata": {"rt": -1000, "stimulus": "/static/audio/wordpool/LEADER.wav", "key_press": -1, "type": "PRES_AUD", "word": "leader", "wordID": 806, "conditions": [18, 1200, "a", 18000], "trial": 1, "serialpos": 5, "trial_type": "single-audio", "trial_index": 60, "time_elapsed": 471428, "internal_node_id": "0.0-42.0"}}, {"uniqueid": "MTK0517:3ZSANO2JCGEVEHKELI1998DS138SFH", "current_trial": 61, "dateTime": 1511197971596, "trialdata": {"rt": -1000, "stimulus": "/static/audio/wordpool/HUMAN.wav", "key_press": -1, "type": "PRES_AUD", "word": "human", "wordID": 725, "conditions": [18, 1200, "a", 18000], "trial": 1, "serialpos": 6, "trial_type": "single-audio", "trial_index": 61, "time_elapsed": 473740, "internal_node_id": "0.0-43.0"}}, {"uniqueid": "MTK0517:3ZSANO2JCGEVEHKELI1998DS138SFH", "current_trial": 62, "dateTime": 1511197973671, "trialdata": {"rt": -1000, "stimulus": "/static/audio/wordpool/MAILMAN.wav", "key_press": -1, "type": "PRES_AUD", "word": "mailman", "wordID": 857, "conditions": [18, 1200, "a", 18000], "trial": 1, "serialpos": 7, "trial_type": "single-audio", "trial_index": 62, "time_elapsed": 475815, "internal_node_id": "0.0-44.0"}}, {"uniqueid": "MTK0517:3ZSANO2JCGEVEHKELI1998DS138SFH", "current_trial": 63, "dateTime": 1511197975912, "trialdata": {"rt": -1000, "stimulus": "/static/audio/wordpool/BREAST.wav", "key_press": -1, "type": "PRES_AUD", "word": "breast", "wordID": 170, "conditions": [18, 1200, "a", 18000], "trial": 1, "serialpos": 8, "trial_type": "single-audio", "trial_index": 63, "time_elapsed": 478056, "internal_node_id": "0.0-45.0"}}, {"uniqueid": "MTK0517:3ZSANO2JCGEVEHKELI1998DS138SFH", "current_trial": 64, "dateTime": 1511197977937, "trialdata": {"rt": -1000, "stimulus": "/static/audio/wordpool/SAUSAGE.wav", "key_press": -1, "type": "PRES_AUD", "word": "sausage", "wordID": 1237, "conditions": [18, 1200, "a", 18000], "trial": 1, "serialpos": 9, "trial_type": "single-audio", "trial_index": 64, "time_elapsed": 480081, "internal_node_id": "0.0-46.0"}}, {"uniqueid": "MTK0517:3ZSANO2JCGEVEHKELI1998DS138SFH", "current_trial": 65, "dateTime": 1511197980223, "trialdata": {"rt": -1000, "stimulus": "/static/audio/wordpool/CARRIAGE.wav", "key_press": -1, "type": "PRES_AUD", "word": "carriage", "wordID": 247, "conditions": [18, 1200, "a", 18000], "trial": 1, "serialpos": 10, "trial_type": "single-audio", "trial_index": 65, "time_elapsed": 482367, "internal_node_id": "0.0-47.0"}}, {"uniqueid": "MTK0517:3ZSANO2JCGEVEHKELI1998DS138SFH", "current_trial": 66, "dateTime": 1511197982256, "trialdata": {"rt": -1000, "stimulus": "/static/audio/wordpool/FLIPPER.wav", "key_press": -1, "type": "PRES_AUD", "word": "flipper", "wordID": 579, "conditions": [18, 1200, "a", 18000], "trial": 1, "serialpos": 11, "trial_type": "single-audio", "trial_index": 66, "time_elapsed": 484399, "internal_node_id": "0.0-48.0"}}, {"uniqueid": "MTK0517:3ZSANO2JCGEVEHKELI1998DS138SFH", "current_trial": 67, "dateTime": 1511197984490, "trialdata": {"rt": -1000, "stimulus": "/static/audio/wordpool/STALLION.wav", "key_press": -1, "type": "PRES_AUD", "word": "stallion", "wordID": 1368, "conditions": [18, 1200, "a", 18000], "trial": 1, "serialpos": 12, "trial_type": "single-audio", "trial_index": 67, "time_elapsed": 486634, "internal_node_id": "0.0-49.0"}}, {"uniqueid": "MTK0517:3ZSANO2JCGEVEHKELI1998DS138SFH", "current_trial": 68, "dateTime": 1511197986767, "trialdata": {"rt": -1000, "stimulus": "/static/audio/wordpool/GAZELLE.wav", "key_press": -1, "type": "PRES_AUD", "word": "gazelle", "wordID": 627, "conditions": [18, 1200, "a", 18000], "trial": 1, "serialpos": 13, "trial_type": "single-audio", "trial_index": 68, "time_elapsed": 488906, "internal_node_id": "0.0-50.0"}}, {"uniqueid": "MTK0517:3ZSANO2JCGEVEHKELI1998DS138SFH", "current_trial": 69, "dateTime": 1511197989080, "trialdata": {"rt": -1000, "stimulus": "/static/audio/wordpool/NECKLACE.wav", "key_press": -1, "type": "PRES_AUD", "word": "necklace", "wordID": 939, "conditions": [18, 1200, "a", 18000], "trial": 1, "serialpos": 14, "trial_type": "single-audio", "trial_index": 69, "time_elapsed": 491224, "internal_node_id": "0.0-51.0"}}, {"uniqueid": "MTK0517:3ZSANO2JCGEVEHKELI1998DS138SFH", "current_trial": 70, "dateTime": 1511197991338, "trialdata": {"rt": -1000, "stimulus": "/static/audio/wordpool/CONCERT.wav", "key_press": -1, "type": "PRES_AUD", "word": "concert", "wordID": 359, "conditions": [18, 1200, "a", 18000], "trial": 1, "serialpos": 15, "trial_type": "single-audio", "trial_index": 70, "time_elapsed": 493482, "internal_node_id": "0.0-52.0"}}, {"uniqueid": "MTK0517:3ZSANO2JCGEVEHKELI1998DS138SFH", "current_trial": 71, "dateTime": 1511197993539, "trialdata": {"rt": -1000, "stimulus": "/static/audio/wordpool/PARSLEY.wav", "key_press": -1, "type": "PRES_AUD", "word": "parsley", "wordID": 1015, "conditions": [18, 1200, "a", 18000], "trial": 1, "serialpos": 16, "trial_type": "single-audio", "trial_index": 71, "time_elapsed": 495683, "internal_node_id": "0.0-53.0"}}, {"uniqueid": "MTK0517:3ZSANO2JCGEVEHKELI1998DS138SFH", "current_trial": 72, "dateTime": 1511197995928, "trialdata": {"rt": -1000, "stimulus": "/static/audio/wordpool/OUTFIT.wav", "key_press": -1, "type": "PRES_AUD", "word": "outfit", "wordID": 987, "conditions": [18, 1200, "a", 18000], "trial": 1, "serialpos": 17, "trial_type": "single-audio", "trial_index": 72, "time_elapsed": 498072, "internal_node_id": "0.0-54.0"}}, {"uniqueid": "MTK0517:3ZSANO2JCGEVEHKELI1998DS138SFH", "current_trial": 73, "dateTime": 1511197997274, "trialdata": {"rt": -1, "stimulus": "", "key_press": -1, "type": "PRE_RECALL_DELAY", "trial_type": "single-stim", "trial_index": 73, "time_elapsed": 499418, "internal_node_id": "0.0-55.0-0.0"}}, {"uniqueid": "MTK0517:3ZSANO2JCGEVEHKELI1998DS138SFH", "current_trial": 74, "dateTime": 1511197997776, "trialdata": {"rt": -1000, "stimulus": "/static/audio/400Hz.wav", "key_press": -1, "type": "PRE_RECALL_ALERT", "trial_type": "single-audio", "trial_index": 74, "time_elapsed": 499920, "internal_node_id": "0.0-56.0"}}, {"uniqueid": "MTK0517:3ZSANO2JCGEVEHKELI1998DS138SFH", "current_trial": 75, "dateTime": 1511198057785, "trialdata": {"rt": [5432, 7702, 12099, 13738, 15316, 34380, 46234, 48962], "recwords": ["gazelle", "leader", "parsley", "mailman", "concert", "outfit", "breast", "sausage"], "type": "FREE_RECALL", "conditions": [18, 1200, "a", 18000], "trial": 1, "trial_type": "free-recall", "trial_index": 75, "time_elapsed": 559924, "internal_node_id": "0.0-57.0-0.0"}}, {"uniqueid": "MTK0517:3ZSANO2JCGEVEHKELI1998DS138SFH", "current_trial": 76, "dateTime": 1511198063436, "trialdata": {"rt": 3637, "key_press": 32, "type": "INSTRUCTIONS", "trial_type": "text", "trial_index": 76, "time_elapsed": 565569, "internal_node_id": "0.0-58.0"}}, {"uniqueid": "MTK0517:3ZSANO2JCGEVEHKELI1998DS138SFH", "current_trial": 77, "dateTime": 1511198076443, "trialdata": {"rt": [], "responses": [], "num1": [7], "num2": [3], "num3": [8], "type": "DISTRACTOR", "conditions": [24, 800, "v", 12000], "trial": 2, "trial_type": "math-distractor", "trial_index": 77, "time_elapsed": 578587, "internal_node_id": "0.0-59.0"}}, {"uniqueid": "MTK0517:3ZSANO2JCGEVEHKELI1998DS138SFH", "current_trial": 78, "dateTime": 1511198079452, "trialdata": {"rt": -1, "stimulus": "<p id=\"stim\">10</p>", "key_press": -1, "trial_type": "single-stim", "trial_index": 78, "time_elapsed": 581595, "internal_node_id": "0.0-60.0-0.0"}}, {"uniqueid": "MTK0517:3ZSANO2JCGEVEHKELI1998DS138SFH", "current_trial": 79, "dateTime": 1511198080454, "trialdata": {"rt": -1, "stimulus": "<p id=\"stim\">9</p>", "key_press": -1, "trial_type": "single-stim", "trial_index": 79, "time_elapsed": 582598, "internal_node_id": "0.0-60.0-1.0"}}, {"uniqueid": "MTK0517:3ZSANO2JCGEVEHKELI1998DS138SFH", "current_trial": 80, "dateTime": 1511198081456, "trialdata": {"rt": -1, "stimulus": "<p id=\"stim\">8</p>", "key_press": -1, "trial_type": "single-stim", "trial_index": 80, "time_elapsed": 583600, "internal_node_id": "0.0-60.0-2.0"}}, {"uniqueid": "MTK0517:3ZSANO2JCGEVEHKELI1998DS138SFH", "current_trial": 81, "dateTime": 1511198082458, "trialdata": {"rt": -1, "stimulus": "<p id=\"stim\">7</p>", "key_press": -1, "trial_type": "single-stim", "trial_index": 81, "time_elapsed": 584601, "internal_node_id": "0.0-60.0-3.0"}}, {"uniqueid": "MTK0517:3ZSANO2JCGEVEHKELI1998DS138SFH", "current_trial": 82, "dateTime": 1511198083459, "trialdata": {"rt": -1, "stimulus": "<p id=\"stim\">6</p>", "key_press": -1, "trial_type": "single-stim", "trial_index": 82, "time_elapsed": 585603, "internal_node_id": "0.0-60.0-4.0"}}, {"uniqueid": "MTK0517:3ZSANO2JCGEVEHKELI1998DS138SFH", "current_trial": 83, "dateTime": 1511198084462, "trialdata": {"rt": -1, "stimulus": "<p id=\"stim\">5</p>", "key_press": -1, "trial_type": "single-stim", "trial_index": 83, "time_elapsed": 586605, "internal_node_id": "0.0-60.0-5.0"}}, {"uniqueid": "MTK0517:3ZSANO2JCGEVEHKELI1998DS138SFH", "current_trial": 84, "dateTime": 1511198085464, "trialdata": {"rt": -1, "stimulus": "<p id=\"stim\">4</p>", "key_press": -1, "trial_type": "single-stim", "trial_index": 84, "time_elapsed": 587607, "internal_node_id": "0.0-60.0-6.0"}}, {"uniqueid": "MTK0517:3ZSANO2JCGEVEHKELI1998DS138SFH", "current_trial": 85, "dateTime": 1511198086465, "trialdata": {"rt": -1, "stimulus": "<p id=\"stim\">3</p>", "key_press": -1, "trial_type": "single-stim", "trial_index": 85, "time_elapsed": 588609, "internal_node_id": "0.0-60.0-7.0"}}, {"uniqueid": "MTK0517:3ZSANO2JCGEVEHKELI1998DS138SFH", "current_trial": 86, "dateTime": 1511198087467, "trialdata": {"rt": -1, "stimulus": "<p id=\"stim\">2</p>", "key_press": -1, "trial_type": "single-stim", "trial_index": 86, "time_elapsed": 589611, "internal_node_id": "0.0-60.0-8.0"}}, {"uniqueid": "MTK0517:3ZSANO2JCGEVEHKELI1998DS138SFH", "current_trial": 87, "dateTime": 1511198088469, "trialdata": {"rt": -1, "stimulus": "<p id=\"stim\">1</p>", "key_press": -1, "trial_type": "single-stim", "trial_index": 87, "time_elapsed": 590613, "internal_node_id": "0.0-60.0-9.0"}}, {"uniqueid": "MTK0517:3ZSANO2JCGEVEHKELI1998DS138SFH", "current_trial": 88, "dateTime": 1511198089972, "trialdata": {"rt": -1, "stimulus": "<p id=\"stim\">+</p>", "key_press": -1, "type": "FIXATION", "trial_type": "single-stim", "trial_index": 88, "time_elapsed": 592116, "internal_node_id": "0.0-61.0-0.0"}}, {"uniqueid": "MTK0517:3ZSANO2JCGEVEHKELI1998DS138SFH", "current_trial": 89, "dateTime": 1511198090774, "trialdata": {"rt": -1, "stimulus": "<p id=\"stim\">GYMNAST</p>", "key_press": -1, "type": "PRES_VIS", "word": "gymnast", "wordID": 674, "conditions": [24, 800, "v", 12000], "trial": 2, "serialpos": 0, "trial_type": "single-stim", "trial_index": 89, "time_elapsed": 592918, "internal_node_id": "0.0-62.0"}}, {"uniqueid": "MTK0517:3ZSANO2JCGEVEHKELI1998DS138SFH", "current_trial": 90, "dateTime": 1511198092614, "trialdata": {"rt": -1, "stimulus": "<p id=\"stim\">CREATURE</p>", "key_press": -1, "type": "PRES_VIS", "word": "creature", "wordID": 402, "conditions": [24, 800, "v", 12000], "trial": 2, "serialpos": 1, "trial_type": "single-stim", "trial_index": 90, "time_elapsed": 594758, "internal_node_id": "0.0-63.0"}}, {"uniqueid": "MTK0517:3ZSANO2JCGEVEHKELI1998DS138SFH", "current_trial": 91, "dateTime": 1511198094554, "trialdata": {"rt": -1, "stimulus": "<p id=\"stim\">TRANSPLANT</p>", "key_press": -1, "type": "PRES_VIS", "word": "transplant", "wordID": 1495, "conditions": [24, 800, "v", 12000], "trial": 2, "serialpos": 2, "trial_type": "single-stim", "trial_index": 91, "time_elapsed": 596697, "internal_node_id": "0.0-64.0"}}, {"uniqueid": "MTK0517:3ZSANO2JCGEVEHKELI1998DS138SFH", "current_trial": 92, "dateTime": 1511198096495, "trialdata": {"rt": -1, "stimulus": "<p id=\"stim\">MARKER</p>", "key_press": -1, "type": "PRES_VIS", "word": "marker", "wordID": 869, "conditions": [24, 800, "v", 12000], "trial": 2, "serialpos": 3, "trial_type": "single-stim", "trial_index": 92, "time_elapsed": 598639, "internal_node_id": "0.0-65.0"}}, {"uniqueid": "MTK0517:3ZSANO2JCGEVEHKELI1998DS138SFH", "current_trial": 93, "dateTime": 1511198098354, "trialdata": {"rt": -1, "stimulus": "<p id=\"stim\">BEAVER</p>", "key_press": -1, "type": "PRES_VIS", "word": "beaver", "wordID": 108, "conditions": [24, 800, "v", 12000], "trial": 2, "serialpos": 4, "trial_type": "single-stim", "trial_index": 93, "time_elapsed": 600498, "internal_node_id": "0.0-66.0"}}, {"uniqueid": "MTK0517:3ZSANO2JCGEVEHKELI1998DS138SFH", "current_trial": 94, "dateTime": 1511198100131, "trialdata": {"rt": -1, "stimulus": "<p id=\"stim\">ANTLER</p>", "key_press": -1, "type": "PRES_VIS", "word": "antler", "wordID": 28, "conditions": [24, 800, "v", 12000], "trial": 2, "serialpos": 5, "trial_type": "single-stim", "trial_index": 94, "time_elapsed": 602275, "internal_node_id": "0.0-67.0"}}, {"uniqueid": "MTK0517:3ZSANO2JCGEVEHKELI1998DS138SFH", "current_trial": 95, "dateTime": 1511198102076, "trialdata": {"rt": -1, "stimulus": "<p id=\"stim\">SIDEWALK</p>", "key_press": -1, "type": "PRES_VIS", "word": "sidewalk", "wordID": 1302, "conditions": [24, 800, "v", 12000], "trial": 2, "serialpos": 6, "trial_type": "single-stim", "trial_index": 95, "time_elapsed": 604220, "internal_node_id": "0.0-68.0"}}, {"uniqueid": "MTK0517:3ZSANO2JCGEVEHKELI1998DS138SFH", "current_trial": 96, "dateTime": 1511198104072, "trialdata": {"rt": -1, "stimulus": "<p id=\"stim\">WRENCH</p>", "key_press": -1, "type": "PRES_VIS", "word": "wrench", "wordID": 1624, "conditions": [24, 800, "v", 12000], "trial": 2, "serialpos": 7, "trial_type": "single-stim", "trial_index": 96, "time_elapsed": 606216, "internal_node_id": "0.0-69.0"}}, {"uniqueid": "MTK0517:3ZSANO2JCGEVEHKELI1998DS138SFH", "current_trial": 97, "dateTime": 1511198106024, "trialdata": {"rt": -1, "stimulus": "<p id=\"stim\">KITCHEN</p>", "key_press": -1, "type": "PRES_VIS", "word": "kitchen", "wordID": 777, "conditions": [24, 800, "v", 12000], "trial": 2, "serialpos": 8, "trial_type": "single-stim", "trial_index": 97, "time_elapsed": 608168, "internal_node_id": "0.0-70.0"}}, {"uniqueid": "MTK0517:3ZSANO2JCGEVEHKELI1998DS138SFH", "current_trial": 98, "dateTime": 1511198107929, "trialdata": {"rt": -1, "stimulus": "<p id=\"stim\">BASEMENT</p>", "key_press": -1, "type": "PRES_VIS", "word": "basement", "wordID": 93, "conditions": [24, 800, "v", 12000], "trial": 2, "serialpos": 9, "trial_type": "single-stim", "trial_index": 98, "time_elapsed": 610073, "internal_node_id": "0.0-71.0"}}, {"uniqueid": "MTK0517:3ZSANO2JCGEVEHKELI1998DS138SFH", "current_trial": 99, "dateTime": 1511198109906, "trialdata": {"rt": -1, "stimulus": "<p id=\"stim\">VENUS</p>", "key_press": -1, "type": "PRES_VIS", "word": "venus", "wordID": 1556, "conditions": [24, 800, "v", 12000], "trial": 2, "serialpos": 10, "trial_type": "single-stim", "trial_index": 99, "time_elapsed": 612050, "internal_node_id": "0.0-72.0"}}, {"uniqueid": "MTK0517:3ZSANO2JCGEVEHKELI1998DS138SFH", "current_trial": 100, "dateTime": 1511198111678, "trialdata": {"rt": -1, "stimulus": "<p id=\"stim\">KIDNEY</p>", "key_press": -1, "type": "PRES_VIS", "word": "kidney", "wordID": 775, "conditions": [24, 800, "v", 12000], "trial": 2, "serialpos": 11, "trial_type": "single-stim", "trial_index": 100, "time_elapsed": 613822, "internal_node_id": "0.0-73.0"}}, {"uniqueid": "MTK0517:3ZSANO2JCGEVEHKELI1998DS138SFH", "current_trial": 101, "dateTime": 1511198113380, "trialdata": {"rt": -1, "stimulus": "<p id=\"stim\">APPLE</p>", "key_press": -1, "type": "PRES_VIS", "word": "apple", "wordID": 32, "conditions": [24, 800, "v", 12000], "trial": 2, "serialpos": 12, "trial_type": "single-stim", "trial_index": 101, "time_elapsed": 615524, "internal_node_id": "0.0-74.0"}}, {"uniqueid": "MTK0517:3ZSANO2JCGEVEHKELI1998DS138SFH", "current_trial": 102, "dateTime": 1511198115356, "trialdata": {"rt": -1, "stimulus": "<p id=\"stim\">BEAKER</p>", "key_press": -1, "type": "PRES_VIS", "word": "beaker", "wordID": 103, "conditions": [24, 800, "v", 12000], "trial": 2, "serialpos": 13, "trial_type": "single-stim", "trial_index": 102, "time_elapsed": 617500, "internal_node_id": "0.0-75.0"}}, {"uniqueid": "MTK0517:3ZSANO2JCGEVEHKELI1998DS138SFH", "current_trial": 103, "dateTime": 1511198117161, "trialdata": {"rt": -1, "stimulus": "<p id=\"stim\">SERVANT</p>", "key_press": -1, "type": "PRES_VIS", "word": "servant", "wordID": 1270, "conditions": [24, 800, "v", 12000], "trial": 2, "serialpos": 14, "trial_type": "single-stim", "trial_index": 103, "time_elapsed": 619305, "internal_node_id": "0.0-76.0"}}, {"uniqueid": "MTK0517:3ZSANO2JCGEVEHKELI1998DS138SFH", "current_trial": 104, "dateTime": 1511198118887, "trialdata": {"rt": -1, "stimulus": "<p id=\"stim\">DRESS</p>", "key_press": -1, "type": "PRES_VIS", "word": "dress", "wordID": 494, "conditions": [24, 800, "v", 12000], "trial": 2, "serialpos": 15, "trial_type": "single-stim", "trial_index": 104, "time_elapsed": 621031, "internal_node_id": "0.0-77.0"}}, {"uniqueid": "MTK0517:3ZSANO2JCGEVEHKELI1998DS138SFH", "current_trial": 105, "dateTime": 1511198120540, "trialdata": {"rt": -1, "stimulus": "<p id=\"stim\">MUFFIN</p>", "key_press": -1, "type": "PRES_VIS", "word": "muffin", "wordID": 928, "conditions": [24, 800, "v", 12000], "trial": 2, "serialpos": 16, "trial_type": "single-stim", "trial_index": 105, "time_elapsed": 622684, "internal_node_id": "0.0-78.0"}}, {"uniqueid": "MTK0517:3ZSANO2JCGEVEHKELI1998DS138SFH", "current_trial": 106, "dateTime": 1511198122150, "trialdata": {"rt": -1, "stimulus": "<p id=\"stim\">DOUGHNUT</p>", "key_press": -1, "type": "PRES_VIS", "word": "doughnut", "wordID": 489, "conditions": [24, 800, "v", 12000], "trial": 2, "serialpos": 17, "trial_type": "single-stim", "trial_index": 106, "time_elapsed": 624294, "internal_node_id": "0.0-79.0"}}, {"uniqueid": "MTK0517:3ZSANO2JCGEVEHKELI1998DS138SFH", "current_trial": 107, "dateTime": 1511198124117, "trialdata": {"rt": -1, "stimulus": "<p id=\"stim\">LION</p>", "key_press": -1, "type": "PRES_VIS", "word": "lion", "wordID": 826, "conditions": [24, 800, "v", 12000], "trial": 2, "serialpos": 18, "trial_type": "single-stim", "trial_index": 107, "time_elapsed": 626261, "internal_node_id": "0.0-80.0"}}, {"uniqueid": "MTK0517:3ZSANO2JCGEVEHKELI1998DS138SFH", "current_trial": 108, "dateTime": 1511198125923, "trialdata": {"rt": -1, "stimulus": "<p id=\"stim\">SURVEY</p>", "key_press": -1, "type": "PRES_VIS", "word": "survey", "wordID": 1413, "conditions": [24, 800, "v", 12000], "trial": 2, "serialpos": 19, "trial_type": "single-stim", "trial_index": 108, "time_elapsed": 628067, "internal_node_id": "0.0-81.0"}}, {"uniqueid": "MTK0517:3ZSANO2JCGEVEHKELI1998DS138SFH", "current_trial": 109, "dateTime": 1511198127566, "trialdata": {"rt": -1, "stimulus": "<p id=\"stim\">HORNET</p>", "key_press": -1, "type": "PRES_VIS", "word": "hornet", "wordID": 717, "conditions": [24, 800, "v", 12000], "trial": 2, "serialpos": 20, "trial_type": "single-stim", "trial_index": 109, "time_elapsed": 629710, "internal_node_id": "0.0-82.0"}}, {"uniqueid": "MTK0517:3ZSANO2JCGEVEHKELI1998DS138SFH", "current_trial": 110, "dateTime": 1511198129464, "trialdata": {"rt": -1, "stimulus": "<p id=\"stim\">DIVER</p>", "key_press": -1, "type": "PRES_VIS", "word": "diver", "wordID": 475, "conditions": [24, 800, "v", 12000], "trial": 2, "serialpos": 21, "trial_type": "single-stim", "trial_index": 110, "time_elapsed": 631608, "internal_node_id": "0.0-83.0"}}, {"uniqueid": "MTK0517:3ZSANO2JCGEVEHKELI1998DS138SFH", "current_trial": 111, "dateTime": 1511198131272, "trialdata": {"rt": -1, "stimulus": "<p id=\"stim\">TUTU</p>", "key_press": -1, "type": "PRES_VIS", "word": "tutu", "wordID": 1523, "conditions": [24, 800, "v", 12000], "trial": 2, "serialpos": 22, "trial_type": "single-stim", "trial_index": 111, "time_elapsed": 633416, "internal_node_id": "0.0-84.0"}}, {"uniqueid": "MTK0517:3ZSANO2JCGEVEHKELI1998DS138SFH", "current_trial": 112, "dateTime": 1511198133203, "trialdata": {"rt": -1, "stimulus": "<p id=\"stim\">DUST</p>", "key_press": -1, "type": "PRES_VIS", "word": "dust", "wordID": 507, "conditions": [24, 800, "v", 12000], "trial": 2, "serialpos": 23, "trial_type": "single-stim", "trial_index": 112, "time_elapsed": 635347, "internal_node_id": "0.0-85.0"}}, {"uniqueid": "MTK0517:3ZSANO2JCGEVEHKELI1998DS138SFH", "current_trial": 113, "dateTime": 1511198135387, "trialdata": {"rt": -1, "stimulus": "", "key_press": -1, "type": "PRE_RECALL_DELAY", "trial_type": "single-stim", "trial_index": 113, "time_elapsed": 637531, "internal_node_id": "0.0-86.0-0.0"}}, {"uniqueid": "MTK0517:3ZSANO2JCGEVEHKELI1998DS138SFH", "current_trial": 114, "dateTime": 1511198135888, "trialdata": {"rt": -1000, "stimulus": "/static/audio/400Hz.wav", "key_press": -1, "type": "PRE_RECALL_ALERT", "trial_type": "single-audio", "trial_index": 114, "time_elapsed": 638032, "internal_node_id": "0.0-87.0"}}, {"uniqueid": "MTK0517:3ZSANO2JCGEVEHKELI1998DS138SFH", "current_trial": 115, "dateTime": 1511198195896, "trialdata": {"rt": [2871, 4125, 5396, 8603, 10963, 13269, 16279], "recwords": ["diver", "tutu", "dust", "dust", "beaver", "antler", "sidewalk"], "type": "FREE_RECALL", "conditions": [24, 800, "v", 12000], "trial": 2, "trial_type": "free-recall", "trial_index": 115, "time_elapsed": 698035, "internal_node_id": "0.0-88.0-0.0"}}, {"uniqueid": "MTK0517:3ZSANO2JCGEVEHKELI1998DS138SFH", "current_trial": 116, "dateTime": 1511198200181, "trialdata": {"rt": 2283, "key_press": 32, "type": "INSTRUCTIONS", "trial_type": "text", "trial_index": 116, "time_elapsed": 702325, "internal_node_id": "0.0-89.0"}}, {"uniqueid": "MTK0517:3ZSANO2JCGEVEHKELI1998DS138SFH", "current_trial": 117, "dateTime": 1511198226186, "trialdata": {"rt": [3905, 7723, 11267, 15214, 18000, 20824], "responses": ["13", "15", "16", "15", "20", "14"], "num1": [3, 3, 7, 5, 8, 4, 2], "num2": [7, 5, 6, 7, 8, 8, 6], "num3": [3, 7, 3, 3, 4, 2, 3], "type": "DISTRACTOR", "conditions": [12, 800, "a", 24000], "trial": 3, "trial_type": "math-distractor", "trial_index": 117, "time_elapsed": 728330, "internal_node_id": "0.0-90.0"}}, {"uniqueid": "MTK0517:3ZSANO2JCGEVEHKELI1998DS138SFH", "current_trial": 118, "dateTime": 1511198229189, "trialdata": {"rt": -1, "stimulus": "<p id=\"stim\">10</p>", "key_press": -1, "trial_type": "single-stim", "trial_index": 118, "time_elapsed": 731333, "internal_node_id": "0.0-91.0-0.0"}}, {"uniqueid": "MTK0517:3ZSANO2JCGEVEHKELI1998DS138SFH", "current_trial": 119, "dateTime": 1511198230203, "trialdata": {"rt": -1, "stimulus": "<p id=\"stim\">9</p>", "key_press": -1, "trial_type": "single-stim", "trial_index": 119, "time_elapsed": 732347, "internal_node_id": "0.0-91.0-1.0"}}, {"uniqueid": "MTK0517:3ZSANO2JCGEVEHKELI1998DS138SFH", "current_trial": 120, "dateTime": 1511198231205, "trialdata": {"rt": -1, "stimulus": "<p id=\"stim\">8</p>", "key_press": -1, "trial_type": "single-stim", "trial_index": 120, "time_elapsed": 733349, "internal_node_id": "0.0-91.0-2.0"}}, {"uniqueid": "MTK0517:3ZSANO2JCGEVEHKELI1998DS138SFH", "current_trial": 121, "dateTime": 1511198232207, "trialdata": {"rt": -1, "stimulus": "<p id=\"stim\">7</p>", "key_press": -1, "trial_type": "single-stim", "trial_index": 121, "time_elapsed": 734351, "internal_node_id": "0.0-91.0-3.0"}}, {"uniqueid": "MTK0517:3ZSANO2JCGEVEHKELI1998DS138SFH", "current_trial": 122, "dateTime": 1511198233209, "trialdata": {"rt": -1, "stimulus": "<p id=\"stim\">6</p>", "key_press": -1, "trial_type": "single-stim", "trial_index": 122, "time_elapsed": 735352, "internal_node_id": "0.0-91.0-4.0"}}, {"uniqueid": "MTK0517:3ZSANO2JCGEVEHKELI1998DS138SFH", "current_trial": 123, "dateTime": 1511198234211, "trialdata": {"rt": -1, "stimulus": "<p id=\"stim\">5</p>", "key_press": -1, "trial_type": "single-stim", "trial_index": 123, "time_elapsed": 736354, "internal_node_id": "0.0-91.0-5.0"}}, {"uniqueid": "MTK0517:3ZSANO2JCGEVEHKELI1998DS138SFH", "current_trial": 124, "dateTime": 1511198235212, "trialdata": {"rt": -1, "stimulus": "<p id=\"stim\">4</p>", "key_press": -1, "trial_type": "single-stim", "trial_index": 124, "time_elapsed": 737356, "internal_node_id": "0.0-91.0-6.0"}}, {"uniqueid": "MTK0517:3ZSANO2JCGEVEHKELI1998DS138SFH", "current_trial": 125, "dateTime": 1511198236215, "trialdata": {"rt": -1, "stimulus": "<p id=\"stim\">3</p>", "key_press": -1, "trial_type": "single-stim", "trial_index": 125, "time_elapsed": 738359, "internal_node_id": "0.0-91.0-7.0"}}, {"uniqueid": "MTK0517:3ZSANO2JCGEVEHKELI1998DS138SFH", "current_trial": 126, "dateTime": 1511198237218, "trialdata": {"rt": -1, "stimulus": "<p id=\"stim\">2</p>", "key_press": -1, "trial_type": "single-stim", "trial_index": 126, "time_elapsed": 739362, "internal_node_id": "0.0-91.0-8.0"}}, {"uniqueid": "MTK0517:3ZSANO2JCGEVEHKELI1998DS138SFH", "current_trial": 127, "dateTime": 1511198238221, "trialdata": {"rt": -1, "stimulus": "<p id=\"stim\">1</p>", "key_press": -1, "trial_type": "single-stim", "trial_index": 127, "time_elapsed": 740365, "internal_node_id": "0.0-91.0-9.0"}}, {"uniqueid": "MTK0517:3ZSANO2JCGEVEHKELI1998DS138SFH", "current_trial": 128, "dateTime": 1511198239726, "trialdata": {"rt": -1, "stimulus": "<p id=\"stim\">+</p>", "key_press": -1, "type": "FIXATION", "trial_type": "single-stim", "trial_index": 128, "time_elapsed": 741867, "internal_node_id": "0.0-92.0-0.0"}}, {"uniqueid": "MTK0517:3ZSANO2JCGEVEHKELI1998DS138SFH", "current_trial": 129, "dateTime": 1511198241534, "trialdata": {"rt": -1000, "stimulus": "/static/audio/wordpool/MATTRESS.wav", "key_press": -1, "type": "PRES_AUD", "word": "mattress", "wordID": 878, "conditions": [12, 800, "a", 24000], "trial": 3, "serialpos": 0, "trial_type": "single-audio", "trial_index": 129, "time_elapsed": 743677, "internal_node_id": "0.0-93.0"}}, {"uniqueid": "MTK0517:3ZSANO2JCGEVEHKELI1998DS138SFH", "current_trial": 130, "dateTime": 1511198243497, "trialdata": {"rt": -1000, "stimulus": "/static/audio/wordpool/CONVICT.wav", "key_press": -1, "type": "PRES_AUD", "word": "convict", "wordID": 370, "conditions": [12, 800, "a", 24000], "trial": 3, "serialpos": 1, "trial_type": "single-audio", "trial_index": 130, "time_elapsed": 745640, "internal_node_id": "0.0-94.0"}}, {"uniqueid": "MTK0517:3ZSANO2JCGEVEHKELI1998DS138SFH", "current_trial": 131, "dateTime": 1511198245491, "trialdata": {"rt": -1000, "stimulus": "/static/audio/wordpool/BUNNY.wav", "key_press": -1, "type": "PRES_AUD", "word": "bunny", "wordID": 197, "conditions": [12, 800, "a", 24000], "trial": 3, "serialpos": 2, "trial_type": "single-audio", "trial_index": 131, "time_elapsed": 747635, "internal_node_id": "0.0-95.0"}}, {"uniqueid": "MTK0517:3ZSANO2JCGEVEHKELI1998DS138SFH", "current_trial": 132, "dateTime": 1511198247321, "trialdata": {"rt": -1000, "stimulus": "/static/audio/wordpool/PARROT.wav", "key_press": -1, "type": "PRES_AUD", "word": "parrot", "wordID": 1014, "conditions": [12, 800, "a", 24000], "trial": 3, "serialpos": 3, "trial_type": "single-audio", "trial_index": 132, "time_elapsed": 749465, "internal_node_id": "0.0-96.0"}}, {"uniqueid": "MTK0517:3ZSANO2JCGEVEHKELI1998DS138SFH", "current_trial": 133, "dateTime": 1511198249107, "trialdata": {"rt": -1000, "stimulus": "/static/audio/wordpool/FOX.wav", "key_press": -1, "type": "PRES_AUD", "word": "fox", "wordID": 597, "conditions": [12, 800, "a", 24000], "trial": 3, "serialpos": 4, "trial_type": "single-audio", "trial_index": 133, "time_elapsed": 751250, "internal_node_id": "0.0-97.0"}}, {"uniqueid": "MTK0517:3ZSANO2JCGEVEHKELI1998DS138SFH", "current_trial": 134, "dateTime": 1511198250767, "trialdata": {"rt": -1000, "stimulus": "/static/audio/wordpool/COOKBOOK.wav", "key_press": -1, "type": "PRES_AUD", "word": "cookbook", "wordID": 372, "conditions": [12, 800, "a", 24000], "trial": 3, "serialpos": 5, "trial_type": "single-audio", "trial_index": 134, "time_elapsed": 752910, "internal_node_id": "0.0-98.0"}}, {"uniqueid": "MTK0517:3ZSANO2JCGEVEHKELI1998DS138SFH", "current_trial": 135, "dateTime": 1511198252519, "trialdata": {"rt": -1000, "stimulus": "/static/audio/wordpool/ONION.wav", "key_press": -1, "type": "PRES_AUD", "word": "onion", "wordID": 976, "conditions": [12, 800, "a", 24000], "trial": 3, "serialpos": 6, "trial_type": "single-audio", "trial_index": 135, "time_elapsed": 754663, "internal_node_id": "0.0-99.0"}}, {"uniqueid": "MTK0517:3ZSANO2JCGEVEHKELI1998DS138SFH", "current_trial": 136, "dateTime": 1511198254332, "trialdata": {"rt": -1000, "stimulus": "/static/audio/wordpool/COCKTAIL.wav", "key_press": -1, "type": "PRES_AUD", "word": "cocktail", "wordID": 337, "conditions": [12, 800, "a", 24000], "trial": 3, "serialpos": 7, "trial_type": "single-audio", "trial_index": 136, "time_elapsed": 756476, "internal_node_id": "0.0-100.0"}}, {"uniqueid": "MTK0517:3ZSANO2JCGEVEHKELI1998DS138SFH", "current_trial": 137, "dateTime": 1511198256049, "trialdata": {"rt": -1000, "stimulus": "/static/audio/wordpool/SHARK.wav", "key_press": -1, "type": "PRES_AUD", "word": "shark", "wordID": 1274, "conditions": [12, 800, "a", 24000], "trial": 3, "serialpos": 8, "trial_type": "single-audio", "trial_index": 137, "time_elapsed": 758193, "internal_node_id": "0.0-101.0"}}, {"uniqueid": "MTK0517:3ZSANO2JCGEVEHKELI1998DS138SFH", "current_trial": 138, "dateTime": 1511198257689, "trialdata": {"rt": -1000, "stimulus": "/static/audio/wordpool/TROUT.wav", "key_press": -1, "type": "PRES_AUD", "word": "trout", "wordID": 1510, "conditions": [12, 800, "a", 24000], "trial": 3, "serialpos": 9, "trial_type": "single-audio", "trial_index": 138, "time_elapsed": 759833, "internal_node_id": "0.0-102.0"}}, {"uniqueid": "MTK0517:3ZSANO2JCGEVEHKELI1998DS138SFH", "current_trial": 139, "dateTime": 1511198259598, "trialdata": {"rt": -1000, "stimulus": "/static/audio/wordpool/SNACK.wav", "key_press": -1, "type": "PRES_AUD", "word": "snack", "wordID": 1330, "conditions": [12, 800, "a", 24000], "trial": 3, "serialpos": 10, "trial_type": "single-audio", "trial_index": 139, "time_elapsed": 761742, "internal_node_id": "0.0-103.0"}}, {"uniqueid": "MTK0517:3ZSANO2JCGEVEHKELI1998DS138SFH", "current_trial": 140, "dateTime": 1511198261276, "trialdata": {"rt": -1000, "stimulus": "/static/audio/wordpool/PEPPER.wav", "key_press": -1, "type": "PRES_AUD", "word": "pepper", "wordID": 1046, "conditions": [12, 800, "a", 24000], "trial": 3, "serialpos": 11, "trial_type": "single-audio", "trial_index": 140, "time_elapsed": 763420, "internal_node_id": "0.0-104.0"}}, {"uniqueid": "MTK0517:3ZSANO2JCGEVEHKELI1998DS138SFH", "current_trial": 141, "dateTime": 1511198262619, "trialdata": {"rt": -1, "stimulus": "", "key_press": -1, "type": "PRE_RECALL_DELAY", "trial_type": "single-stim", "trial_index": 141, "time_elapsed": 764763, "internal_node_id": "0.0-105.0-0.0"}}, {"uniqueid": "MTK0517:3ZSANO2JCGEVEHKELI1998DS138SFH", "current_trial": 142, "dateTime": 1511198263120, "trialdata": {"rt": -1000, "stimulus": "/static/audio/400Hz.wav", "key_press": -1, "type": "PRE_RECALL_ALERT", "trial_type": "single-audio", "trial_index": 142, "time_elapsed": 765263, "internal_node_id": "0.0-106.0"}}, {"uniqueid": "MTK0517:3ZSANO2JCGEVEHKELI1998DS138SFH", "current_trial": 143, "dateTime": 1511198323126, "trialdata": {"rt": [4677, 6759, 8761, 11030, 15683, 17192, 19326, 21558, 36223, 47584, 55122], "recwords": ["convent", "money", "parent", "fox", "cookbook", "shark", "trout", "snacks", "coctail", "snout", "bunny"], "type": "FREE_RECALL", "conditions": [12, 800, "a", 24000], "trial": 3, "trial_type": "free-recall", "trial_index": 143, "time_elapsed": 825268, "internal_node_id": "0.0-107.0-0.0"}}, {"uniqueid": "MTK0517:3ZSANO2JCGEVEHKELI1998DS138SFH", "current_trial": 144, "dateTime": 1511198326861, "trialdata": {"rt": 1732, "key_press": 32, "type": "INSTRUCTIONS", "trial_type": "text", "trial_index": 144, "time_elapsed": 829005, "internal_node_id": "0.0-108.0"}}, {"uniqueid": "MTK0517:3ZSANO2JCGEVEHKELI1998DS138SFH", "current_trial": 145, "dateTime": 1511198340867, "trialdata": {"rt": [4753], "responses": ["20"], "num1": [9, 9], "num2": [4, 5], "num3": [7, 6], "type": "DISTRACTOR", "conditions": [12, 1600, "v", 12000], "trial": 4, "trial_type": "math-distractor", "trial_index": 145, "time_elapsed": 843011, "internal_node_id": "0.0-109.0"}}, {"uniqueid": "MTK0517:3ZSANO2JCGEVEHKELI1998DS138SFH", "current_trial": 146, "dateTime": 1511198343870, "trialdata": {"rt": -1, "stimulus": "<p id=\"stim\">10</p>", "key_press": -1, "trial_type": "single-stim", "trial_index": 146, "time_elapsed": 846014, "internal_node_id": "0.0-110.0-0.0"}}, {"uniqueid": "MTK0517:3ZSANO2JCGEVEHKELI1998DS138SFH", "current_trial": 147, "dateTime": 1511198344873, "trialdata": {"rt": -1, "stimulus": "<p id=\"stim\">9</p>", "key_press": -1, "trial_type": "single-stim", "trial_index": 147, "time_elapsed": 847017, "internal_node_id": "0.0-110.0-1.0"}}, {"uniqueid": "MTK0517:3ZSANO2JCGEVEHKELI1998DS138SFH", "current_trial": 148, "dateTime": 1511198345875, "trialdata": {"rt": -1, "stimulus": "<p id=\"stim\">8</p>", "key_press": -1, "trial_type": "single-stim", "trial_index": 148, "time_elapsed": 848019, "internal_node_id": "0.0-110.0-2.0"}}, {"uniqueid": "MTK0517:3ZSANO2JCGEVEHKELI1998DS138SFH", "current_trial": 149, "dateTime": 1511198346877, "trialdata": {"rt": -1, "stimulus": "<p id=\"stim\">7</p>", "key_press": -1, "trial_type": "single-stim", "trial_index": 149, "time_elapsed": 849021, "internal_node_id": "0.0-110.0-3.0"}}, {"uniqueid": "MTK0517:3ZSANO2JCGEVEHKELI1998DS138SFH", "current_trial": 150, "dateTime": 1511198347880, "trialdata": {"rt": -1, "stimulus": "<p id=\"stim\">6</p>", "key_press": -1, "trial_type": "single-stim", "trial_index": 150, "time_elapsed": 850024, "internal_node_id": "0.0-110.0-4.0"}}, {"uniqueid": "MTK0517:3ZSANO2JCGEVEHKELI1998DS138SFH", "current_trial": 151, "dateTime": 1511198348882, "trialdata": {"rt": -1, "stimulus": "<p id=\"stim\">5</p>", "key_press": -1, "trial_type": "single-stim", "trial_index": 151, "time_elapsed": 851026, "internal_node_id": "0.0-110.0-5.0"}}, {"uniqueid": "MTK0517:3ZSANO2JCGEVEHKELI1998DS138SFH", "current_trial": 152, "dateTime": 1511198349884, "trialdata": {"rt": -1, "stimulus": "<p id=\"stim\">4</p>", "key_press": -1, "trial_type": "single-stim", "trial_index": 152, "time_elapsed": 852028, "internal_node_id": "0.0-110.0-6.0"}}, {"uniqueid": "MTK0517:3ZSANO2JCGEVEHKELI1998DS138SFH", "current_trial": 153, "dateTime": 1511198350887, "trialdata": {"rt": -1, "stimulus": "<p id=\"stim\">3</p>", "key_press": -1, "trial_type": "single-stim", "trial_index": 153, "time_elapsed": 853031, "internal_node_id": "0.0-110.0-7.0"}}, {"uniqueid": "MTK0517:3ZSANO2JCGEVEHKELI1998DS138SFH", "current_trial": 154, "dateTime": 1511198351890, "trialdata": {"rt": -1, "stimulus": "<p id=\"stim\">2</p>", "key_press": -1, "trial_type": "single-stim", "trial_index": 154, "time_elapsed": 854034, "internal_node_id": "0.0-110.0-8.0"}}, {"uniqueid": "MTK0517:3ZSANO2JCGEVEHKELI1998DS138SFH", "current_trial": 155, "dateTime": 1511198352893, "trialdata": {"rt": -1, "stimulus": "<p id=\"stim\">1</p>", "key_press": -1, "trial_type": "single-stim", "trial_index": 155, "time_elapsed": 855037, "internal_node_id": "0.0-110.0-9.0"}}, {"uniqueid": "MTK0517:3ZSANO2JCGEVEHKELI1998DS138SFH", "current_trial": 156, "dateTime": 1511198354395, "trialdata": {"rt": -1, "stimulus": "<p id=\"stim\">+</p>", "key_press": -1, "type": "FIXATION", "trial_type": "single-stim", "trial_index": 156, "time_elapsed": 856539, "internal_node_id": "0.0-111.0-0.0"}}, {"uniqueid": "MTK0517:3ZSANO2JCGEVEHKELI1998DS138SFH", "current_trial": 157, "dateTime": 1511198355997, "trialdata": {"rt": -1, "stimulus": "<p id=\"stim\">RACKET</p>", "key_press": -1, "type": "PRES_VIS", "word": "racket", "wordID": 1154, "conditions": [12, 1600, "v", 12000], "trial": 4, "serialpos": 0, "trial_type": "single-stim", "trial_index": 157, "time_elapsed": 858141, "internal_node_id": "0.0-112.0"}}, {"uniqueid": "MTK0517:3ZSANO2JCGEVEHKELI1998DS138SFH", "current_trial": 158, "dateTime": 1511198358688, "trialdata": {"rt": -1, "stimulus": "<p id=\"stim\">SCARF</p>", "key_press": -1, "type": "PRES_VIS", "word": "scarf", "wordID": 1245, "conditions": [12, 1600, "v", 12000], "trial": 4, "serialpos": 1, "trial_type": "single-stim", "trial_index": 158, "time_elapsed": 860832, "internal_node_id": "0.0-113.0"}}, {"uniqueid": "MTK0517:3ZSANO2JCGEVEHKELI1998DS138SFH", "current_trial": 159, "dateTime": 1511198361426, "trialdata": {"rt": -1, "stimulus": "<p id=\"stim\">SIBLING</p>", "key_press": -1, "type": "PRES_VIS", "word": "sibling", "wordID": 1300, "conditions": [12, 1600, "v", 12000], "trial": 4, "serialpos": 2, "trial_type": "single-stim", "trial_index": 159, "time_elapsed": 863570, "internal_node_id": "0.0-114.0"}}, {"uniqueid": "MTK0517:3ZSANO2JCGEVEHKELI1998DS138SFH", "current_trial": 160, "dateTime": 1511198364098, "trialdata": {"rt": -1, "stimulus": "<p id=\"stim\">GIRL</p>", "key_press": -1, "type": "PRES_VIS", "word": "girl", "wordID": 636, "conditions": [12, 1600, "v", 12000], "trial": 4, "serialpos": 3, "trial_type": "single-stim", "trial_index": 160, "time_elapsed": 866242, "internal_node_id": "0.0-115.0"}}, {"uniqueid": "MTK0517:3ZSANO2JCGEVEHKELI1998DS138SFH", "current_trial": 161, "dateTime": 1511198366584, "trialdata": {"rt": -1, "stimulus": "<p id=\"stim\">BABY</p>", "key_press": -1, "type": "PRES_VIS", "word": "baby", "wordID": 63, "conditions": [12, 1600, "v", 12000], "trial": 4, "serialpos": 4, "trial_type": "single-stim", "trial_index": 161, "time_elapsed": 868727, "internal_node_id": "0.0-116.0"}}, {"uniqueid": "MTK0517:3ZSANO2JCGEVEHKELI1998DS138SFH", "current_trial": 162, "dateTime": 1511198369028, "trialdata": {"rt": -1, "stimulus": "<p id=\"stim\">LILY</p>", "key_press": -1, "type": "PRES_VIS", "word": "lily", "wordID": 820, "conditions": [12, 1600, "v", 12000], "trial": 4, "serialpos": 5, "trial_type": "single-stim", "trial_index": 162, "time_elapsed": 871172, "internal_node_id": "0.0-117.0"}}, {"uniqueid": "MTK0517:3ZSANO2JCGEVEHKELI1998DS138SFH", "current_trial": 163, "dateTime": 1511198371505, "trialdata": {"rt": -1, "stimulus": "<p id=\"stim\">COTTAGE</p>", "key_press": -1, "type": "PRES_VIS", "word": "cottage", "wordID": 383, "conditions": [12, 1600, "v", 12000], "trial": 4, "serialpos": 6, "trial_type": "single-stim", "trial_index": 163, "time_elapsed": 873649, "internal_node_id": "0.0-118.0"}}, {"uniqueid": "MTK0517:3ZSANO2JCGEVEHKELI1998DS138SFH", "current_trial": 164, "dateTime": 1511198374228, "trialdata": {"rt": -1, "stimulus": "<p id=\"stim\">CHURCH</p>", "key_press": -1, "type": "PRES_VIS", "word": "church", "wordID": 306, "conditions": [12, 1600, "v", 12000], "trial": 4, "serialpos": 7, "trial_type": "single-stim", "trial_index": 164, "time_elapsed": 876372, "internal_node_id": "0.0-119.0"}}, {"uniqueid": "MTK0517:3ZSANO2JCGEVEHKELI1998DS138SFH", "current_trial": 165, "dateTime": 1511198376692, "trialdata": {"rt": -1, "stimulus": "<p id=\"stim\">CASHEW</p>", "key_press": -1, "type": "PRES_VIS", "word": "cashew", "wordID": 252, "conditions": [12, 1600, "v", 12000], "trial": 4, "serialpos": 8, "trial_type": "single-stim", "trial_index": 165, "time_elapsed": 878836, "internal_node_id": "0.0-120.0"}}, {"uniqueid": "MTK0517:3ZSANO2JCGEVEHKELI1998DS138SFH", "current_trial": 166, "dateTime": 1511198379274, "trialdata": {"rt": -1, "stimulus": "<p id=\"stim\">BROTHER</p>", "key_press": -1, "type": "PRES_VIS", "word": "brother", "wordID": 178, "conditions": [12, 1600, "v", 12000], "trial": 4, "serialpos": 9, "trial_type": "single-stim", "trial_index": 166, "time_elapsed": 881418, "internal_node_id": "0.0-121.0"}}, {"uniqueid": "MTK0517:3ZSANO2JCGEVEHKELI1998DS138SFH", "current_trial": 167, "dateTime": 1511198381719, "trialdata": {"rt": -1, "stimulus": "<p id=\"stim\">CHILD</p>", "key_press": -1, "type": "PRES_VIS", "word": "child", "wordID": 298, "conditions": [12, 1600, "v", 12000], "trial": 4, "serialpos": 10, "trial_type": "single-stim", "trial_index": 167, "time_elapsed": 883863, "internal_node_id": "0.0-122.0"}}, {"uniqueid": "MTK0517:3ZSANO2JCGEVEHKELI1998DS138SFH", "current_trial": 168, "dateTime": 1511198384187, "trialdata": {"rt": -1, "stimulus": "<p id=\"stim\">SALMON</p>", "key_press": -1, "type": "PRES_VIS", "word": "salmon", "wordID": 1226, "conditions": [12, 1600, "v", 12000], "trial": 4, "serialpos": 11, "trial_type": "single-stim", "trial_index": 168, "time_elapsed": 886331, "internal_node_id": "0.0-123.0"}}, {"uniqueid": "MTK0517:3ZSANO2JCGEVEHKELI1998DS138SFH", "current_trial": 169, "dateTime": 1511198386497, "trialdata": {"rt": -1, "stimulus": "", "key_press": -1, "type": "PRE_RECALL_DELAY", "trial_type": "single-stim", "trial_index": 169, "time_elapsed": 888641, "internal_node_id": "0.0-124.0-0.0"}}, {"uniqueid": "MTK0517:3ZSANO2JCGEVEHKELI1998DS138SFH", "current_trial": 170, "dateTime": 1511198386998, "trialdata": {"rt": -1000, "stimulus": "/static/audio/400Hz.wav", "key_press": -1, "type": "PRE_RECALL_ALERT", "trial_type": "single-audio", "trial_index": 170, "time_elapsed": 889142, "internal_node_id": "0.0-125.0"}}, {"uniqueid": "MTK0517:3ZSANO2JCGEVEHKELI1998DS138SFH", "current_trial": 171, "dateTime": 1511198447003, "trialdata": {"rt": [3518, 5145, 7161, 8536, 10585, 12255, 15323, 18228, 57737], "recwords": ["racket", "scarf", "sibling", "baby", "lily", "brother", "cottage", "cashew", "rocket"], "type": "FREE_RECALL", "conditions": [12, 1600, "v", 12000], "trial": 4, "trial_type": "free-recall", "trial_index": 171, "time_elapsed": 949145, "internal_node_id": "0.0-126.0-0.0"}}, {"uniqueid": "MTK0517:3ZSANO2JCGEVEHKELI1998DS138SFH", "current_trial": 172, "dateTime": 1511198450457, "trialdata": {"rt": 1452, "key_press": 32, "type": "INSTRUCTIONS", "trial_type": "text", "trial_index": 172, "time_elapsed": 952601, "internal_node_id": "0.0-127.0"}}, {"uniqueid": "MTK0517:3ZSANO2JCGEVEHKELI1998DS138SFH", "current_trial": 173, "dateTime": 1511198464463, "trialdata": {"rt": [3811], "responses": ["6"], "num1": [3, 6], "num2": [1, 6], "num3": [2, 9], "type": "DISTRACTOR", "conditions": [12, 800, "a", 12000], "trial": 5, "trial_type": "math-distractor", "trial_index": 173, "time_elapsed": 966607, "internal_node_id": "0.0-128.0"}}, {"uniqueid": "MTK0517:3ZSANO2JCGEVEHKELI1998DS138SFH", "current_trial": 174, "dateTime": 1511198467466, "trialdata": {"rt": -1, "stimulus": "<p id=\"stim\">10</p>", "key_press": -1, "trial_type": "single-stim", "trial_index": 174, "time_elapsed": 969609, "internal_node_id": "0.0-129.0-0.0"}}, {"uniqueid": "MTK0517:3ZSANO2JCGEVEHKELI1998DS138SFH", "current_trial": 175, "dateTime": 1511198468467, "trialdata": {"rt": -1, "stimulus": "<p id=\"stim\">9</p>", "key_press": -1, "trial_type": "single-stim", "trial_index": 175, "time_elapsed": 970611, "internal_node_id": "0.0-129.0-1.0"}}, {"uniqueid": "MTK0517:3ZSANO2JCGEVEHKELI1998DS138SFH", "current_trial": 176, "dateTime": 1511198469470, "trialdata": {"rt": -1, "stimulus": "<p id=\"stim\">8</p>", "key_press": -1, "trial_type": "single-stim", "trial_index": 176, "time_elapsed": 971613, "internal_node_id": "0.0-129.0-2.0"}}, {"uniqueid": "MTK0517:3ZSANO2JCGEVEHKELI1998DS138SFH", "current_trial": 177, "dateTime": 1511198470472, "trialdata": {"rt": -1, "stimulus": "<p id=\"stim\">7</p>", "key_press": -1, "trial_type": "single-stim", "trial_index": 177, "time_elapsed": 972615, "internal_node_id": "0.0-129.0-3.0"}}, {"uniqueid": "MTK0517:3ZSANO2JCGEVEHKELI1998DS138SFH", "current_trial": 178, "dateTime": 1511198471473, "trialdata": {"rt": -1, "stimulus": "<p id=\"stim\">6</p>", "key_press": -1, "trial_type": "single-stim", "trial_index": 178, "time_elapsed": 973617, "internal_node_id": "0.0-129.0-4.0"}}, {"uniqueid": "MTK0517:3ZSANO2JCGEVEHKELI1998DS138SFH", "current_trial": 179, "dateTime": 1511198472476, "trialdata": {"rt": -1, "stimulus": "<p id=\"stim\">5</p>", "key_press": -1, "trial_type": "single-stim", "trial_index": 179, "time_elapsed": 974619, "internal_node_id": "0.0-129.0-5.0"}}, {"uniqueid": "MTK0517:3ZSANO2JCGEVEHKELI1998DS138SFH", "current_trial": 180, "dateTime": 1511198473478, "trialdata": {"rt": -1, "stimulus": "<p id=\"stim\">4</p>", "key_press": -1, "trial_type": "single-stim", "trial_index": 180, "time_elapsed": 975622, "internal_node_id": "0.0-129.0-6.0"}}, {"uniqueid": "MTK0517:3ZSANO2JCGEVEHKELI1998DS138SFH", "current_trial": 181, "dateTime": 1511198474481, "trialdata": {"rt": -1, "stimulus": "<p id=\"stim\">3</p>", "key_press": -1, "trial_type": "single-stim", "trial_index": 181, "time_elapsed": 976624, "internal_node_id": "0.0-129.0-7.0"}}, {"uniqueid": "MTK0517:3ZSANO2JCGEVEHKELI1998DS138SFH", "current_trial": 182, "dateTime": 1511198475483, "trialdata": {"rt": -1, "stimulus": "<p id=\"stim\">2</p>", "key_press": -1, "trial_type": "single-stim", "trial_index": 182, "time_elapsed": 977626, "internal_node_id": "0.0-129.0-8.0"}}, {"uniqueid": "MTK0517:3ZSANO2JCGEVEHKELI1998DS138SFH", "current_trial": 183, "dateTime": 1511198476485, "trialdata": {"rt": -1, "stimulus": "<p id=\"stim\">1</p>", "key_press": -1, "trial_type": "single-stim", "trial_index": 183, "time_elapsed": 978628, "internal_node_id": "0.0-129.0-9.0"}}, {"uniqueid": "MTK0517:3ZSANO2JCGEVEHKELI1998DS138SFH", "current_trial": 184, "dateTime": 1511198477987, "trialdata": {"rt": -1, "stimulus": "<p id=\"stim\">+</p>", "key_press": -1, "type": "FIXATION", "trial_type": "single-stim", "trial_index": 184, "time_elapsed": 980130, "internal_node_id": "0.0-130.0-0.0"}}, {"uniqueid": "MTK0517:3ZSANO2JCGEVEHKELI1998DS138SFH", "current_trial": 185, "dateTime": 1511198479694, "trialdata": {"rt": -1000, "stimulus": "/static/audio/wordpool/DRIVER.wav", "key_press": -1, "type": "PRES_AUD", "word": "driver", "wordID": 498, "conditions": [12, 800, "a", 12000], "trial": 5, "serialpos": 0, "trial_type": "single-audio", "trial_index": 185, "time_elapsed": 981837, "internal_node_id": "0.0-131.0"}}, {"uniqueid": "MTK0517:3ZSANO2JCGEVEHKELI1998DS138SFH", "current_trial": 186, "dateTime": 1511198481346, "trialdata": {"rt": -1000, "stimulus": "/static/audio/wordpool/ROBBER.wav", "key_press": -1, "type": "PRES_AUD", "word": "robber", "wordID": 1196, "conditions": [12, 800, "a", 12000], "trial": 5, "serialpos": 1, "trial_type": "single-audio", "trial_index": 186, "time_elapsed": 983490, "internal_node_id": "0.0-132.0"}}, {"uniqueid": "MTK0517:3ZSANO2JCGEVEHKELI1998DS138SFH", "current_trial": 187, "dateTime": 1511198483165, "trialdata": {"rt": -1000, "stimulus": "/static/audio/wordpool/SUPPER.wav", "key_press": -1, "type": "PRES_AUD", "word": "supper", "wordID": 1410, "conditions": [12, 800, "a", 12000], "trial": 5, "serialpos": 2, "trial_type": "single-audio", "trial_index": 187, "time_elapsed": 985308, "internal_node_id": "0.0-133.0"}}, {"uniqueid": "MTK0517:3ZSANO2JCGEVEHKELI1998DS138SFH", "current_trial": 188, "dateTime": 1511198484862, "trialdata": {"rt": -1000, "stimulus": "/static/audio/wordpool/TEACHER.wav", "key_press": -1, "type": "PRES_AUD", "word": "teacher", "wordID": 1439, "conditions": [12, 800, "a", 12000], "trial": 5, "serialpos": 3, "trial_type": "single-audio", "trial_index": 188, "time_elapsed": 987006, "internal_node_id": "0.0-134.0"}}, {"uniqueid": "MTK0517:3ZSANO2JCGEVEHKELI1998DS138SFH", "current_trial": 189, "dateTime": 1511198486772, "trialdata": {"rt": -1000, "stimulus": "/static/audio/wordpool/STUDENT.wav", "key_press": -1, "type": "PRES_AUD", "word": "student", "wordID": 1394, "conditions": [12, 800, "a", 12000], "trial": 5, "serialpos": 4, "trial_type": "single-audio", "trial_index": 189, "time_elapsed": 988916, "internal_node_id": "0.0-135.0"}}, {"uniqueid": "MTK0517:3ZSANO2JCGEVEHKELI1998DS138SFH", "current_trial": 190, "dateTime": 1511198488522, "trialdata": {"rt": -1000, "stimulus": "/static/audio/wordpool/TREAT.wav", "key_press": -1, "type": "PRES_AUD", "word": "treat", "wordID": 1500, "conditions": [12, 800, "a", 12000], "trial": 5, "serialpos": 5, "trial_type": "single-audio", "trial_index": 190, "time_elapsed": 990665, "internal_node_id": "0.0-136.0"}}, {"uniqueid": "MTK0517:3ZSANO2JCGEVEHKELI1998DS138SFH", "current_trial": 191, "dateTime": 1511198490465, "trialdata": {"rt": -1000, "stimulus": "/static/audio/wordpool/PIZZA.wav", "key_press": -1, "type": "PRES_AUD", "word": "pizza", "wordID": 1078, "conditions": [12, 800, "a", 12000], "trial": 5, "serialpos": 6, "trial_type": "single-audio", "trial_index": 191, "time_elapsed": 992609, "internal_node_id": "0.0-137.0"}}, {"uniqueid": "MTK0517:3ZSANO2JCGEVEHKELI1998DS138SFH", "current_trial": 192, "dateTime": 1511198492149, "trialdata": {"rt": -1000, "stimulus": "/static/audio/wordpool/SHRUB.wav", "key_press": -1, "type": "PRES_AUD", "word": "shrub", "wordID": 1298, "conditions": [12, 800, "a", 12000], "trial": 5, "serialpos": 7, "trial_type": "single-audio", "trial_index": 192, "time_elapsed": 994293, "internal_node_id": "0.0-138.0"}}, {"uniqueid": "MTK0517:3ZSANO2JCGEVEHKELI1998DS138SFH", "current_trial": 193, "dateTime": 1511198493897, "trialdata": {"rt": -1000, "stimulus": "/static/audio/wordpool/SUITCASE.wav", "key_press": -1, "type": "PRES_AUD", "word": "suitcase", "wordID": 1402, "conditions": [12, 800, "a", 12000], "trial": 5, "serialpos": 8, "trial_type": "single-audio", "trial_index": 193, "time_elapsed": 996038, "internal_node_id": "0.0-139.0"}}, {"uniqueid": "MTK0517:3ZSANO2JCGEVEHKELI1998DS138SFH", "current_trial": 194, "dateTime": 1511198495860, "trialdata": {"rt": -1000, "stimulus": "/static/audio/wordpool/CRITIC.wav", "key_press": -1, "type": "PRES_AUD", "word": "critic", "wordID": 409, "conditions": [12, 800, "a", 12000], "trial": 5, "serialpos": 9, "trial_type": "single-audio", "trial_index": 194, "time_elapsed": 998003, "internal_node_id": "0.0-140.0"}}, {"uniqueid": "MTK0517:3ZSANO2JCGEVEHKELI1998DS138SFH", "current_trial": 195, "dateTime": 1511198497828, "trialdata": {"rt": -1000, "stimulus": "/static/audio/wordpool/FOREST.wav", "key_press": -1, "type": "PRES_AUD", "word": "forest", "wordID": 592, "conditions": [12, 800, "a", 12000], "trial": 5, "serialpos": 10, "trial_type": "single-audio", "trial_index": 195, "time_elapsed": 999971, "internal_node_id": "0.0-141.0"}}, {"uniqueid": "MTK0517:3ZSANO2JCGEVEHKELI1998DS138SFH", "current_trial": 196, "dateTime": 1511198499547, "trialdata": {"rt": -1000, "stimulus": "/static/audio/wordpool/HANDBAG.wav", "key_press": -1, "type": "PRES_AUD", "word": "handbag", "wordID": 683, "conditions": [12, 800, "a", 12000], "trial": 5, "serialpos": 11, "trial_type": "single-audio", "trial_index": 196, "time_elapsed": 1001690, "internal_node_id": "0.0-142.0"}}, {"uniqueid": "MTK0517:3ZSANO2JCGEVEHKELI1998DS138SFH", "current_trial": 197, "dateTime": 1511198500914, "trialdata": {"rt": -1, "stimulus": "", "key_press": -1, "type": "PRE_RECALL_DELAY", "trial_type": "single-stim", "trial_index": 197, "time_elapsed": 1003058, "internal_node_id": "0.0-143.0-0.0"}}, {"uniqueid": "MTK0517:3ZSANO2JCGEVEHKELI1998DS138SFH", "current_trial": 198, "dateTime": 1511198501419, "trialdata": {"rt": -1000, "stimulus": "/static/audio/400Hz.wav", "key_press": -1, "type": "PRE_RECALL_ALERT", "trial_type": "single-audio", "trial_index": 198, "time_elapsed": 1003563, "internal_node_id": "0.0-144.0"}}, {"uniqueid": "MTK0517:3ZSANO2JCGEVEHKELI1998DS138SFH", "current_trial": 199, "dateTime": 1511198561434, "trialdata": {"rt": [4790, 7491, 9150, 13814, 26853, 29959, 37494, 46217, 58677], "recwords": ["robber", "suitcase", "critic", "handbag", "treat", "pizza", "student", "shrub", ""], "type": "FREE_RECALL", "conditions": [12, 800, "a", 12000], "trial": 5, "trial_type": "free-recall", "trial_index": 199, "time_elapsed": 1063567, "internal_node_id": "0.0-145.0-0.0"}}, {"uniqueid": "MTK0517:3ZSANO2JCGEVEHKELI1998DS138SFH", "current_trial": 200, "dateTime": 1511198565310, "trialdata": {"rt": 1874, "key_press": 32, "type": "INSTRUCTIONS", "trial_type": "text", "trial_index": 200, "time_elapsed": 1067454, "internal_node_id": "0.0-146.0"}}, {"uniqueid": "MTK0517:3ZSANO2JCGEVEHKELI1998DS138SFH", "current_trial": 201, "dateTime": 1511198591315, "trialdata": {"rt": [3688, 6265, 9024, 13958, 18373, 23484], "responses": ["11", "10", "5", "21", "18", "20"], "num1": [6, 4, 1, 8, 5, 9, 4], "num2": [1, 4, 3, 4, 9, 8, 9], "num3": [4, 2, 1, 9, 4, 3, 7], "type": "DISTRACTOR", "conditions": [24, 1600, "a", 24000], "trial": 6, "trial_type": "math-distractor", "trial_index": 201, "time_elapsed": 1093458, "internal_node_id": "0.0-147.0"}}, {"uniqueid": "MTK0517:3ZSANO2JCGEVEHKELI1998DS138SFH", "current_trial": 202, "dateTime": 1511198594327, "trialdata": {"rt": -1, "stimulus": "<p id=\"stim\">10</p>", "key_press": -1, "trial_type": "single-stim", "trial_index": 202, "time_elapsed": 1096471, "internal_node_id": "0.0-148.0-0.0"}}, {"uniqueid": "MTK0517:3ZSANO2JCGEVEHKELI1998DS138SFH", "current_trial": 203, "dateTime": 1511198595329, "trialdata": {"rt": -1, "stimulus": "<p id=\"stim\">9</p>", "key_press": -1, "trial_type": "single-stim", "trial_index": 203, "time_elapsed": 1097473, "internal_node_id": "0.0-148.0-1.0"}}, {"uniqueid": "MTK0517:3ZSANO2JCGEVEHKELI1998DS138SFH", "current_trial": 204, "dateTime": 1511198596331, "trialdata": {"rt": -1, "stimulus": "<p id=\"stim\">8</p>", "key_press": -1, "trial_type": "single-stim", "trial_index": 204, "time_elapsed": 1098475, "internal_node_id": "0.0-148.0-2.0"}}, {"uniqueid": "MTK0517:3ZSANO2JCGEVEHKELI1998DS138SFH", "current_trial": 205, "dateTime": 1511198597333, "trialdata": {"rt": -1, "stimulus": "<p id=\"stim\">7</p>", "key_press": -1, "trial_type": "single-stim", "trial_index": 205, "time_elapsed": 1099477, "internal_node_id": "0.0-148.0-3.0"}}, {"uniqueid": "MTK0517:3ZSANO2JCGEVEHKELI1998DS138SFH", "current_trial": 206, "dateTime": 1511198598335, "trialdata": {"rt": -1, "stimulus": "<p id=\"stim\">6</p>", "key_press": -1, "trial_type": "single-stim", "trial_index": 206, "time_elapsed": 1100479, "internal_node_id": "0.0-148.0-4.0"}}, {"uniqueid": "MTK0517:3ZSANO2JCGEVEHKELI1998DS138SFH", "current_trial": 207, "dateTime": 1511198599337, "trialdata": {"rt": -1, "stimulus": "<p id=\"stim\">5</p>", "key_press": -1, "trial_type": "single-stim", "trial_index": 207, "time_elapsed": 1101480, "internal_node_id": "0.0-148.0-5.0"}}, {"uniqueid": "MTK0517:3ZSANO2JCGEVEHKELI1998DS138SFH", "current_trial": 208, "dateTime": 1511198600338, "trialdata": {"rt": -1, "stimulus": "<p id=\"stim\">4</p>", "key_press": -1, "trial_type": "single-stim", "trial_index": 208, "time_elapsed": 1102482, "internal_node_id": "0.0-148.0-6.0"}}, {"uniqueid": "MTK0517:3ZSANO2JCGEVEHKELI1998DS138SFH", "current_trial": 209, "dateTime": 1511198601340, "trialdata": {"rt": -1, "stimulus": "<p id=\"stim\">3</p>", "key_press": -1, "trial_type": "single-stim", "trial_index": 209, "time_elapsed": 1103484, "internal_node_id": "0.0-148.0-7.0"}}, {"uniqueid": "MTK0517:3ZSANO2JCGEVEHKELI1998DS138SFH", "current_trial": 210, "dateTime": 1511198602342, "trialdata": {"rt": -1, "stimulus": "<p id=\"stim\">2</p>", "key_press": -1, "trial_type": "single-stim", "trial_index": 210, "time_elapsed": 1104486, "internal_node_id": "0.0-148.0-8.0"}}, {"uniqueid": "MTK0517:3ZSANO2JCGEVEHKELI1998DS138SFH", "current_trial": 211, "dateTime": 1511198603345, "trialdata": {"rt": -1, "stimulus": "<p id=\"stim\">1</p>", "key_press": -1, "trial_type": "single-stim", "trial_index": 211, "time_elapsed": 1105488, "internal_node_id": "0.0-148.0-9.0"}}, {"uniqueid": "MTK0517:3ZSANO2JCGEVEHKELI1998DS138SFH", "current_trial": 212, "dateTime": 1511198604848, "trialdata": {"rt": -1, "stimulus": "<p id=\"stim\">+</p>", "key_press": -1, "type": "FIXATION", "trial_type": "single-stim", "trial_index": 212, "time_elapsed": 1106991, "internal_node_id": "0.0-149.0-0.0"}}, {"uniqueid": "MTK0517:3ZSANO2JCGEVEHKELI1998DS138SFH", "current_trial": 213, "dateTime": 1511198607609, "trialdata": {"rt": -1000, "stimulus": "/static/audio/wordpool/RELISH.wav", "key_press": -1, "type": "PRES_AUD", "word": "relish", "wordID": 1182, "conditions": [24, 1600, "a", 24000], "trial": 6, "serialpos": 0, "trial_type": "single-audio", "trial_index": 213, "time_elapsed": 1109753, "internal_node_id": "0.0-150.0"}}, {"uniqueid": "MTK0517:3ZSANO2JCGEVEHKELI1998DS138SFH", "current_trial": 214, "dateTime": 1511198610389, "trialdata": {"rt": -1000, "stimulus": "/static/audio/wordpool/SANDWICH.wav", "key_press": -1, "type": "PRES_AUD", "word": "sandwich", "wordID": 1231, "conditions": [24, 1600, "a", 24000], "trial": 6, "serialpos": 1, "trial_type": "single-audio", "trial_index": 214, "time_elapsed": 1112531, "internal_node_id": "0.0-151.0"}}, {"uniqueid": "MTK0517:3ZSANO2JCGEVEHKELI1998DS138SFH", "current_trial": 215, "dateTime": 1511198613069, "trialdata": {"rt": -1000, "stimulus": "/static/audio/wordpool/PROTON.wav", "key_press": -1, "type": "PRES_AUD", "word": "proton", "wordID": 1131, "conditions": [24, 1600, "a", 24000], "trial": 6, "serialpos": 2, "trial_type": "single-audio", "trial_index": 215, "time_elapsed": 1115213, "internal_node_id": "0.0-152.0"}}, {"uniqueid": "MTK0517:3ZSANO2JCGEVEHKELI1998DS138SFH", "current_trial": 216, "dateTime": 1511198615635, "trialdata": {"rt": -1000, "stimulus": "/static/audio/wordpool/VELVET.wav", "key_press": -1, "type": "PRES_AUD", "word": "velvet", "wordID": 1554, "conditions": [24, 1600, "a", 24000], "trial": 6, "serialpos": 3, "trial_type": "single-audio", "trial_index": 216, "time_elapsed": 1117779, "internal_node_id": "0.0-153.0"}}, {"uniqueid": "MTK0517:3ZSANO2JCGEVEHKELI1998DS138SFH", "current_trial": 217, "dateTime": 1511198618288, "trialdata": {"rt": -1000, "stimulus": "/static/audio/wordpool/WIDOW.wav", "key_press": -1, "type": "PRES_AUD", "word": "widow", "wordID": 1607, "conditions": [24, 1600, "a", 24000], "trial": 6, "serialpos": 4, "trial_type": "single-audio", "trial_index": 217, "time_elapsed": 1120432, "internal_node_id": "0.0-154.0"}}, {"uniqueid": "MTK0517:3ZSANO2JCGEVEHKELI1998DS138SFH", "current_trial": 218, "dateTime": 1511198620906, "trialdata": {"rt": -1000, "stimulus": "/static/audio/wordpool/UNCLE.wav", "key_press": -1, "type": "PRES_AUD", "word": "uncle", "wordID": 1535, "conditions": [24, 1600, "a", 24000], "trial": 6, "serialpos": 5, "trial_type": "single-audio", "trial_index": 218, "time_elapsed": 1123050, "internal_node_id": "0.0-155.0"}}, {"uniqueid": "MTK0517:3ZSANO2JCGEVEHKELI1998DS138SFH", "current_trial": 219, "dateTime": 1511198623414, "trialdata": {"rt": -1000, "stimulus": "/static/audio/wordpool/BANKER.wav", "key_press": -1, "type": "PRES_AUD", "word": "banker", "wordID": 83, "conditions": [24, 1600, "a", 24000], "trial": 6, "serialpos": 6, "trial_type": "single-audio", "trial_index": 219, "time_elapsed": 1125558, "internal_node_id": "0.0-156.0"}}, {"uniqueid": "MTK0517:3ZSANO2JCGEVEHKELI1998DS138SFH", "current_trial": 220, "dateTime": 1511198626188, "trialdata": {"rt": -1000, "stimulus": "/static/audio/wordpool/NAPKIN.wav", "key_press": -1, "type": "PRES_AUD", "word": "napkin", "wordID": 936, "conditions": [24, 1600, "a", 24000], "trial": 6, "serialpos": 7, "trial_type": "single-audio", "trial_index": 220, "time_elapsed": 1128332, "internal_node_id": "0.0-157.0"}}, {"uniqueid": "MTK0517:3ZSANO2JCGEVEHKELI1998DS138SFH", "current_trial": 221, "dateTime": 1511198628934, "trialdata": {"rt": -1000, "stimulus": "/static/audio/wordpool/DANCER.wav", "key_press": -1, "type": "PRES_AUD", "word": "dancer", "wordID": 436, "conditions": [24, 1600, "a", 24000], "trial": 6, "serialpos": 8, "trial_type": "single-audio", "trial_index": 221, "time_elapsed": 1131077, "internal_node_id": "0.0-158.0"}}, {"uniqueid": "MTK0517:3ZSANO2JCGEVEHKELI1998DS138SFH", "current_trial": 222, "dateTime": 1511198631431, "trialdata": {"rt": -1000, "stimulus": "/static/audio/wordpool/CANAL.wav", "key_press": -1, "type": "PRES_AUD", "word": "canal", "wordID": 225, "conditions": [24, 1600, "a", 24000], "trial": 6, "serialpos": 9, "trial_type": "single-audio", "trial_index": 222, "time_elapsed": 1133575, "internal_node_id": "0.0-159.0"}}, {"uniqueid": "MTK0517:3ZSANO2JCGEVEHKELI1998DS138SFH", "current_trial": 223, "dateTime": 1511198634135, "trialdata": {"rt": -1000, "stimulus": "/static/audio/wordpool/PLAID.wav", "key_press": -1, "type": "PRES_AUD", "word": "plaid", "wordID": 1079, "conditions": [24, 1600, "a", 24000], "trial": 6, "serialpos": 10, "trial_type": "single-audio", "trial_index": 223, "time_elapsed": 1136279, "internal_node_id": "0.0-160.0"}}, {"uniqueid": "MTK0517:3ZSANO2JCGEVEHKELI1998DS138SFH", "current_trial": 224, "dateTime": 1511198636657, "trialdata": {"rt": -1000, "stimulus": "/static/audio/wordpool/MASK.wav", "key_press": -1, "type": "PRES_AUD", "word": "mask", "wordID": 875, "conditions": [24, 1600, "a", 24000], "trial": 6, "serialpos": 11, "trial_type": "single-audio", "trial_index": 224, "time_elapsed": 1138801, "internal_node_id": "0.0-161.0"}}, {"uniqueid": "MTK0517:3ZSANO2JCGEVEHKELI1998DS138SFH", "current_trial": 225, "dateTime": 1511198639338, "trialdata": {"rt": -1000, "stimulus": "/static/audio/wordpool/SHIRT.wav", "key_press": -1, "type": "PRES_AUD", "word": "shirt", "wordID": 1286, "conditions": [24, 1600, "a", 24000], "trial": 6, "serialpos": 12, "trial_type": "single-audio", "trial_index": 225, "time_elapsed": 1141481, "internal_node_id": "0.0-162.0"}}, {"uniqueid": "MTK0517:3ZSANO2JCGEVEHKELI1998DS138SFH", "current_trial": 226, "dateTime": 1511198641975, "trialdata": {"rt": -1000, "stimulus": "/static/audio/wordpool/HEADBAND.wav", "key_press": -1, "type": "PRES_AUD", "word": "headband", "wordID": 695, "conditions": [24, 1600, "a", 24000], "trial": 6, "serialpos": 13, "trial_type": "single-audio", "trial_index": 226, "time_elapsed": 1144119, "internal_node_id": "0.0-163.0"}}, {"uniqueid": "MTK0517:3ZSANO2JCGEVEHKELI1998DS138SFH", "current_trial": 227, "dateTime": 1511198644574, "trialdata": {"rt": -1000, "stimulus": "/static/audio/wordpool/INFANT.wav", "key_press": -1, "type": "PRES_AUD", "word": "infant", "wordID": 736, "conditions": [24, 1600, "a", 24000], "trial": 6, "serialpos": 14, "trial_type": "single-audio", "trial_index": 227, "time_elapsed": 1146718, "internal_node_id": "0.0-164.0"}}, {"uniqueid": "MTK0517:3ZSANO2JCGEVEHKELI1998DS138SFH", "current_trial": 228, "dateTime": 1511198647130, "trialdata": {"rt": -1000, "stimulus": "/static/audio/wordpool/GLASS.wav", "key_press": -1, "type": "PRES_AUD", "word": "glass", "wordID": 638, "conditions": [24, 1600, "a", 24000], "trial": 6, "serialpos": 15, "trial_type": "single-audio", "trial_index": 228, "time_elapsed": 1149274, "internal_node_id": "0.0-165.0"}}, {"uniqueid": "MTK0517:3ZSANO2JCGEVEHKELI1998DS138SFH", "current_trial": 229, "dateTime": 1511198649565, "trialdata": {"rt": -1000, "stimulus": "/static/audio/wordpool/COFFEE.wav", "key_press": -1, "type": "PRES_AUD", "word": "coffee", "wordID": 340, "conditions": [24, 1600, "a", 24000], "trial": 6, "serialpos": 16, "trial_type": "single-audio", "trial_index": 229, "time_elapsed": 1151709, "internal_node_id": "0.0-166.0"}}, {"uniqueid": "MTK0517:3ZSANO2JCGEVEHKELI1998DS138SFH", "current_trial": 230, "dateTime": 1511198652270, "trialdata": {"rt": -1000, "stimulus": "/static/audio/wordpool/CRIB.wav", "key_press": -1, "type": "PRES_AUD", "word": "crib", "wordID": 406, "conditions": [24, 1600, "a", 24000], "trial": 6, "serialpos": 17, "trial_type": "single-audio", "trial_index": 230, "time_elapsed": 1154414, "internal_node_id": "0.0-167.0"}}, {"uniqueid": "MTK0517:3ZSANO2JCGEVEHKELI1998DS138SFH", "current_trial": 231, "dateTime": 1511198655027, "trialdata": {"rt": -1000, "stimulus": "/static/audio/wordpool/INMATE.wav", "key_press": -1, "type": "PRES_AUD", "word": "inmate", "wordID": 737, "conditions": [24, 1600, "a", 24000], "trial": 6, "serialpos": 18, "trial_type": "single-audio", "trial_index": 231, "time_elapsed": 1157171, "internal_node_id": "0.0-168.0"}}, {"uniqueid": "MTK0517:3ZSANO2JCGEVEHKELI1998DS138SFH", "current_trial": 232, "dateTime": 1511198657550, "trialdata": {"rt": -1000, "stimulus": "/static/audio/wordpool/LIZARD.wav", "key_press": -1, "type": "PRES_AUD", "word": "lizard", "wordID": 833, "conditions": [24, 1600, "a", 24000], "trial": 6, "serialpos": 19, "trial_type": "single-audio", "trial_index": 232, "time_elapsed": 1159694, "internal_node_id": "0.0-169.0"}}, {"uniqueid": "MTK0517:3ZSANO2JCGEVEHKELI1998DS138SFH", "current_trial": 233, "dateTime": 1511198660218, "trialdata": {"rt": -1000, "stimulus": "/static/audio/wordpool/SCALLOP.wav", "key_press": -1, "type": "PRES_AUD", "word": "scallop", "wordID": 1241, "conditions": [24, 1600, "a", 24000], "trial": 6, "serialpos": 20, "trial_type": "single-audio", "trial_index": 233, "time_elapsed": 1162362, "internal_node_id": "0.0-170.0"}}, {"uniqueid": "MTK0517:3ZSANO2JCGEVEHKELI1998DS138SFH", "current_trial": 234, "dateTime": 1511198662983, "trialdata": {"rt": -1000, "stimulus": "/static/audio/wordpool/DRESSER.wav", "key_press": -1, "type": "PRES_AUD", "word": "dresser", "wordID": 495, "conditions": [24, 1600, "a", 24000], "trial": 6, "serialpos": 21, "trial_type": "single-audio", "trial_index": 234, "time_elapsed": 1165127, "internal_node_id": "0.0-171.0"}}, {"uniqueid": "MTK0517:3ZSANO2JCGEVEHKELI1998DS138SFH", "current_trial": 235, "dateTime": 1511198665508, "trialdata": {"rt": -1000, "stimulus": "/static/audio/wordpool/BANJO.wav", "key_press": -1, "type": "PRES_AUD", "word": "banjo", "wordID": 81, "conditions": [24, 1600, "a", 24000], "trial": 6, "serialpos": 22, "trial_type": "single-audio", "trial_index": 235, "time_elapsed": 1167652, "internal_node_id": "0.0-172.0"}}, {"uniqueid": "MTK0517:3ZSANO2JCGEVEHKELI1998DS138SFH", "current_trial": 236, "dateTime": 1511198668295, "trialdata": {"rt": -1000, "stimulus": "/static/audio/wordpool/ASIA.wav", "key_press": -1, "type": "PRES_AUD", "word": "asia", "wordID": 45, "conditions": [24, 1600, "a", 24000], "trial": 6, "serialpos": 23, "trial_type": "single-audio", "trial_index": 236, "time_elapsed": 1170439, "internal_node_id": "0.0-173.0"}}, {"uniqueid": "MTK0517:3ZSANO2JCGEVEHKELI1998DS138SFH", "current_trial": 237, "dateTime": 1511198669606, "trialdata": {"rt": -1, "stimulus": "", "key_press": -1, "type": "PRE_RECALL_DELAY", "trial_type": "single-stim", "trial_index": 237, "time_elapsed": 1171750, "internal_node_id": "0.0-174.0-0.0"}}, {"uniqueid": "MTK0517:3ZSANO2JCGEVEHKELI1998DS138SFH", "current_trial": 238, "dateTime": 1511198670109, "trialdata": {"rt": -1000, "stimulus": "/static/audio/400Hz.wav", "key_press": -1, "type": "PRE_RECALL_ALERT", "trial_type": "single-audio", "trial_index": 238, "time_elapsed": 1172253, "internal_node_id": "0.0-175.0"}}, {"uniqueid": "MTK0517:3ZSANO2JCGEVEHKELI1998DS138SFH", "current_trial": 239, "dateTime": 1511198730123, "trialdata": {"rt": [5891, 8034, 9408, 16986, 19010, 25485, 27873, 31252, 33247, 39847, 49446, 51253, 52430, 53673, 55445], "recwords": ["brush", "sandwich", "asia", "banjo", "inmate", "proton", "velvet", "headband", "infant", "lizard", "uncle", "flag", "mask", "shirt", "dancer"], "type": "FREE_RECALL", "conditions": [24, 1600, "a", 24000], "trial": 6, "trial_type": "free-recall", "trial_index": 239, "time_elapsed": 1232257, "internal_node_id": "0.0-176.0-0.0"}}, {"uniqueid": "MTK0517:3ZSANO2JCGEVEHKELI1998DS138SFH", "current_trial": 240, "dateTime": 1511198733302, "trialdata": {"rt": 1177, "key_press": 32, "type": "INSTRUCTIONS", "trial_type": "text", "trial_index": 240, "time_elapsed": 1235446, "internal_node_id": "0.0-177.0"}}, {"uniqueid": "MTK0517:3ZSANO2JCGEVEHKELI1998DS138SFH", "current_trial": 241, "dateTime": 1511198759307, "trialdata": {"rt": [3329, 5832, 8882, 13157, 16827, 20075, 23628], "responses": ["14", "11", "19", "17", "15", "16", "20"], "num1": [4, 1, 7, 5, 2, 3, 7, 4], "num2": [1, 1, 3, 9, 4, 7, 7, 8], "num3": [9, 9, 9, 3, 9, 6, 6, 3], "type": "DISTRACTOR", "conditions": [12, 800, "v", 24000], "trial": 7, "trial_type": "math-distractor", "trial_index": 241, "time_elapsed": 1261451, "internal_node_id": "0.0-178.0"}}, {"uniqueid": "MTK0517:3ZSANO2JCGEVEHKELI1998DS138SFH", "current_trial": 242, "dateTime": 1511198762309, "trialdata": {"rt": -1, "stimulus": "<p id=\"stim\">10</p>", "key_press": -1, "trial_type": "single-stim", "trial_index": 242, "time_elapsed": 1264453, "internal_node_id": "0.0-179.0-0.0"}}, {"uniqueid": "MTK0517:3ZSANO2JCGEVEHKELI1998DS138SFH", "current_trial": 243, "dateTime": 1511198763312, "trialdata": {"rt": -1, "stimulus": "<p id=\"stim\">9</p>", "key_press": -1, "trial_type": "single-stim", "trial_index": 243, "time_elapsed": 1265455, "internal_node_id": "0.0-179.0-1.0"}}, {"uniqueid": "MTK0517:3ZSANO2JCGEVEHKELI1998DS138SFH", "current_trial": 244, "dateTime": 1511198764314, "trialdata": {"rt": -1, "stimulus": "<p id=\"stim\">8</p>", "key_press": -1, "trial_type": "single-stim", "trial_index": 244, "time_elapsed": 1266458, "internal_node_id": "0.0-179.0-2.0"}}, {"uniqueid": "MTK0517:3ZSANO2JCGEVEHKELI1998DS138SFH", "current_trial": 245, "dateTime": 1511198765316, "trialdata": {"rt": -1, "stimulus": "<p id=\"stim\">7</p>", "key_press": -1, "trial_type": "single-stim", "trial_index": 245, "time_elapsed": 1267459, "internal_node_id": "0.0-179.0-3.0"}}, {"uniqueid": "MTK0517:3ZSANO2JCGEVEHKELI1998DS138SFH", "current_trial": 246, "dateTime": 1511198766318, "trialdata": {"rt": -1, "stimulus": "<p id=\"stim\">6</p>", "key_press": -1, "trial_type": "single-stim", "trial_index": 246, "time_elapsed": 1268461, "internal_node_id": "0.0-179.0-4.0"}}, {"uniqueid": "MTK0517:3ZSANO2JCGEVEHKELI1998DS138SFH", "current_trial": 247, "dateTime": 1511198767320, "trialdata": {"rt": -1, "stimulus": "<p id=\"stim\">5</p>", "key_press": -1, "trial_type": "single-stim", "trial_index": 247, "time_elapsed": 1269463, "internal_node_id": "0.0-179.0-5.0"}}, {"uniqueid": "MTK0517:3ZSANO2JCGEVEHKELI1998DS138SFH", "current_trial": 248, "dateTime": 1511198768322, "trialdata": {"rt": -1, "stimulus": "<p id=\"stim\">4</p>", "key_press": -1, "trial_type": "single-stim", "trial_index": 248, "time_elapsed": 1270466, "internal_node_id": "0.0-179.0-6.0"}}, {"uniqueid": "MTK0517:3ZSANO2JCGEVEHKELI1998DS138SFH", "current_trial": 249, "dateTime": 1511198769324, "trialdata": {"rt": -1, "stimulus": "<p id=\"stim\">3</p>", "key_press": -1, "trial_type": "single-stim", "trial_index": 249, "time_elapsed": 1271467, "internal_node_id": "0.0-179.0-7.0"}}, {"uniqueid": "MTK0517:3ZSANO2JCGEVEHKELI1998DS138SFH", "current_trial": 250, "dateTime": 1511198770326, "trialdata": {"rt": -1, "stimulus": "<p id=\"stim\">2</p>", "key_press": -1, "trial_type": "single-stim", "trial_index": 250, "time_elapsed": 1272470, "internal_node_id": "0.0-179.0-8.0"}}, {"uniqueid": "MTK0517:3ZSANO2JCGEVEHKELI1998DS138SFH", "current_trial": 251, "dateTime": 1511198771329, "trialdata": {"rt": -1, "stimulus": "<p id=\"stim\">1</p>", "key_press": -1, "trial_type": "single-stim", "trial_index": 251, "time_elapsed": 1273472, "internal_node_id": "0.0-179.0-9.0"}}, {"uniqueid": "MTK0517:3ZSANO2JCGEVEHKELI1998DS138SFH", "current_trial": 252, "dateTime": 1511198772831, "trialdata": {"rt": -1, "stimulus": "<p id=\"stim\">+</p>", "key_press": -1, "type": "FIXATION", "trial_type": "single-stim", "trial_index": 252, "time_elapsed": 1274975, "internal_node_id": "0.0-180.0-0.0"}}, {"uniqueid": "MTK0517:3ZSANO2JCGEVEHKELI1998DS138SFH", "current_trial": 253, "dateTime": 1511198773634, "trialdata": {"rt": -1, "stimulus": "<p id=\"stim\">SHORTCAKE</p>", "key_press": -1, "type": "PRES_VIS", "word": "shortcake", "wordID": 1291, "conditions": [12, 800, "v", 24000], "trial": 7, "serialpos": 0, "trial_type": "single-stim", "trial_index": 253, "time_elapsed": 1275778, "internal_node_id": "0.0-181.0"}}, {"uniqueid": "MTK0517:3ZSANO2JCGEVEHKELI1998DS138SFH", "current_trial": 254, "dateTime": 1511198775456, "trialdata": {"rt": -1, "stimulus": "<p id=\"stim\">LAVA</p>", "key_press": -1, "type": "PRES_VIS", "word": "lava", "wordID": 803, "conditions": [12, 800, "v", 24000], "trial": 7, "serialpos": 1, "trial_type": "single-stim", "trial_index": 254, "time_elapsed": 1277600, "internal_node_id": "0.0-182.0"}}, {"uniqueid": "MTK0517:3ZSANO2JCGEVEHKELI1998DS138SFH", "current_trial": 255, "dateTime": 1511198777103, "trialdata": {"rt": -1, "stimulus": "<p id=\"stim\">TYPIST</p>", "key_press": -1, "type": "PRES_VIS", "word": "typist", "wordID": 1531, "conditions": [12, 800, "v", 24000], "trial": 7, "serialpos": 2, "trial_type": "single-stim", "trial_index": 255, "time_elapsed": 1279246, "internal_node_id": "0.0-183.0"}}, {"uniqueid": "MTK0517:3ZSANO2JCGEVEHKELI1998DS138SFH", "current_trial": 256, "dateTime": 1511198779078, "trialdata": {"rt": -1, "stimulus": "<p id=\"stim\">KNAPSACK</p>", "key_press": -1, "type": "PRES_VIS", "word": "knapsack", "wordID": 782, "conditions": [12, 800, "v", 24000], "trial": 7, "serialpos": 3, "trial_type": "single-stim", "trial_index": 256, "time_elapsed": 1281221, "internal_node_id": "0.0-184.0"}}, {"uniqueid": "MTK0517:3ZSANO2JCGEVEHKELI1998DS138SFH", "current_trial": 257, "dateTime": 1511198780944, "trialdata": {"rt": -1, "stimulus": "<p id=\"stim\">BRIEFCASE</p>", "key_press": -1, "type": "PRES_VIS", "word": "briefcase", "wordID": 174, "conditions": [12, 800, "v", 24000], "trial": 7, "serialpos": 4, "trial_type": "single-stim", "trial_index": 257, "time_elapsed": 1283088, "internal_node_id": "0.0-185.0"}}, {"uniqueid": "MTK0517:3ZSANO2JCGEVEHKELI1998DS138SFH", "current_trial": 258, "dateTime": 1511198782725, "trialdata": {"rt": -1, "stimulus": "<p id=\"stim\">SLIDE</p>", "key_press": -1, "type": "PRES_VIS", "word": "slide", "wordID": 1325, "conditions": [12, 800, "v", 24000], "trial": 7, "serialpos": 5, "trial_type": "single-stim", "trial_index": 258, "time_elapsed": 1284869, "internal_node_id": "0.0-186.0"}}, {"uniqueid": "MTK0517:3ZSANO2JCGEVEHKELI1998DS138SFH", "current_trial": 259, "dateTime": 1511198784475, "trialdata": {"rt": -1, "stimulus": "<p id=\"stim\">MONSTER</p>", "key_press": -1, "type": "PRES_VIS", "word": "monster", "wordID": 911, "conditions": [12, 800, "v", 24000], "trial": 7, "serialpos": 6, "trial_type": "single-stim", "trial_index": 259, "time_elapsed": 1286619, "internal_node_id": "0.0-187.0"}}, {"uniqueid": "MTK0517:3ZSANO2JCGEVEHKELI1998DS138SFH", "current_trial": 260, "dateTime": 1511198786136, "trialdata": {"rt": -1, "stimulus": "<p id=\"stim\">THREAD</p>", "key_press": -1, "type": "PRES_VIS", "word": "thread", "wordID": 1459, "conditions": [12, 800, "v", 24000], "trial": 7, "serialpos": 7, "trial_type": "single-stim", "trial_index": 260, "time_elapsed": 1288280, "internal_node_id": "0.0-188.0"}}, {"uniqueid": "MTK0517:3ZSANO2JCGEVEHKELI1998DS138SFH", "current_trial": 261, "dateTime": 1511198787802, "trialdata": {"rt": -1, "stimulus": "<p id=\"stim\">BLENDER</p>", "key_press": -1, "type": "PRES_VIS", "word": "blender", "wordID": 135, "conditions": [12, 800, "v", 24000], "trial": 7, "serialpos": 8, "trial_type": "single-stim", "trial_index": 261, "time_elapsed": 1289946, "internal_node_id": "0.0-189.0"}}, {"uniqueid": "MTK0517:3ZSANO2JCGEVEHKELI1998DS138SFH", "current_trial": 262, "dateTime": 1511198789582, "trialdata": {"rt": -1, "stimulus": "<p id=\"stim\">DONKEY</p>", "key_press": -1, "type": "PRES_VIS", "word": "donkey", "wordID": 483, "conditions": [12, 800, "v", 24000], "trial": 7, "serialpos": 9, "trial_type": "single-stim", "trial_index": 262, "time_elapsed": 1291726, "internal_node_id": "0.0-190.0"}}, {"uniqueid": "MTK0517:3ZSANO2JCGEVEHKELI1998DS138SFH", "current_trial": 263, "dateTime": 1511198791497, "trialdata": {"rt": -1, "stimulus": "<p id=\"stim\">CRATER</p>", "key_press": -1, "type": "PRES_VIS", "word": "crater", "wordID": 399, "conditions": [12, 800, "v", 24000], "trial": 7, "serialpos": 10, "trial_type": "single-stim", "trial_index": 263, "time_elapsed": 1293641, "internal_node_id": "0.0-191.0"}}, {"uniqueid": "MTK0517:3ZSANO2JCGEVEHKELI1998DS138SFH", "current_trial": 264, "dateTime": 1511198793177, "trialdata": {"rt": -1, "stimulus": "<p id=\"stim\">SPONGE</p>", "key_press": -1, "type": "PRES_VIS", "word": "sponge", "wordID": 1354, "conditions": [12, 800, "v", 24000], "trial": 7, "serialpos": 11, "trial_type": "single-stim", "trial_index": 264, "time_elapsed": 1295321, "internal_node_id": "0.0-192.0"}}, {"uniqueid": "MTK0517:3ZSANO2JCGEVEHKELI1998DS138SFH", "current_trial": 265, "dateTime": 1511198795361, "trialdata": {"rt": -1, "stimulus": "", "key_press": -1, "type": "PRE_RECALL_DELAY", "trial_type": "single-stim", "trial_index": 265, "time_elapsed": 1297505, "internal_node_id": "0.0-193.0-0.0"}}, {"uniqueid": "MTK0517:3ZSANO2JCGEVEHKELI1998DS138SFH", "current_trial": 266, "dateTime": 1511198795866, "trialdata": {"rt": -1000, "stimulus": "/static/audio/400Hz.wav", "key_press": -1, "type": "PRE_RECALL_ALERT", "trial_type": "single-audio", "trial_index": 266, "time_elapsed": 1298010, "internal_node_id": "0.0-194.0"}}, {"uniqueid": "MTK0517:3ZSANO2JCGEVEHKELI1998DS138SFH", "current_trial": 267, "dateTime": 1511198855878, "trialdata": {"rt": [5111, 6839, 8258, 12233, 18464, 19500, 20954, 32928, 34867, 40342, 47304], "recwords": ["shortcake", "blender", "lava", "typist", "briefcase", "slide", "thread", "crater", "sponge", "shortcake", "slide"], "type": "FREE_RECALL", "conditions": [12, 800, "v", 24000], "trial": 7, "trial_type": "free-recall", "trial_index": 267, "time_elapsed": 1358014, "internal_node_id": "0.0-195.0-0.0"}}, {"uniqueid": "MTK0517:3ZSANO2JCGEVEHKELI1998DS138SFH", "current_trial": 268, "dateTime": 1511198859973, "trialdata": {"rt": 2094, "key_press": 32, "type": "INSTRUCTIONS", "trial_type": "text", "trial_index": 268, "time_elapsed": 1362117, "internal_node_id": "0.0-196.0"}}, {"uniqueid": "MTK0517:3ZSANO2JCGEVEHKELI1998DS138SFH", "current_trial": 269, "dateTime": 1511198885979, "trialdata": {"rt": [3294, 7486, 11215, 16585, 20135, 23174], "responses": ["13", "15", "15", "16", "12", "18"], "num1": [8, 4, 8, 4, 3, 4, 7], "num2": [3, 5, 3, 7, 8, 5, 1], "num3": [2, 6, 4, 5, 1, 9, 6], "type": "DISTRACTOR", "conditions": [24, 1600, "v", 24000], "trial": 8, "trial_type": "math-distractor", "trial_index": 269, "time_elapsed": 1388123, "internal_node_id": "0.0-197.0"}}, {"uniqueid": "MTK0517:3ZSANO2JCGEVEHKELI1998DS138SFH", "current_trial": 270, "dateTime": 1511198888983, "trialdata": {"rt": -1, "stimulus": "<p id=\"stim\">10</p>", "key_press": -1, "trial_type": "single-stim", "trial_index": 270, "time_elapsed": 1391127, "internal_node_id": "0.0-198.0-0.0"}}, {"uniqueid": "MTK0517:3ZSANO2JCGEVEHKELI1998DS138SFH", "current_trial": 271, "dateTime": 1511198889985, "trialdata": {"rt": -1, "stimulus": "<p id=\"stim\">9</p>", "key_press": -1, "trial_type": "single-stim", "trial_index": 271, "time_elapsed": 1392129, "internal_node_id": "0.0-198.0-1.0"}}, {"uniqueid": "MTK0517:3ZSANO2JCGEVEHKELI1998DS138SFH", "current_trial": 272, "dateTime": 1511198890988, "trialdata": {"rt": -1, "stimulus": "<p id=\"stim\">8</p>", "key_press": -1, "trial_type": "single-stim", "trial_index": 272, "time_elapsed": 1393132, "internal_node_id": "0.0-198.0-2.0"}}, {"uniqueid": "MTK0517:3ZSANO2JCGEVEHKELI1998DS138SFH", "current_trial": 273, "dateTime": 1511198891992, "trialdata": {"rt": -1, "stimulus": "<p id=\"stim\">7</p>", "key_press": -1, "trial_type": "single-stim", "