{"condition": 0, "counterbalance": 1217, "assignmentId": "35K3O9HUACKU4YFWKNH4KR9D1NTEFJ", "workerId": "MTK0689", "hitId": "3PIOQ99R7YTLU2R5I9AK7U85AZAUNS", "currenttrial": 626, "bonus": 0, "data": [{"uniqueid": "MTK0689:35K3O9HUACKU4YFWKNH4KR9D1NTEFJ", "current_trial": 0, "dateTime": 1512594590319, "trialdata": {"rt": 1382, "key_press": 32, "type": "INSTRUCTIONS", "trial_type": "text", "trial_index": 0, "time_elapsed": 1387, "internal_node_id": "0.0-0.0"}}, {"uniqueid": "MTK0689:35K3O9HUACKU4YFWKNH4KR9D1NTEFJ", "current_trial": 1, "dateTime": 1512594594458, "trialdata": {"rt": 4135, "key_press": 175, "type": "INSTRUCTIONS", "trial_type": "text", "trial_index": 1, "time_elapsed": 5527, "internal_node_id": "0.0-1.0"}}, {"uniqueid": "MTK0689:35K3O9HUACKU4YFWKNH4KR9D1NTEFJ", "current_trial": 2, "dateTime": 1512594610400, "trialdata": {"rt": [15915], "responses": ["ocean"], "type": "AUDIO_TEST", "trial_type": "audio-test", "trial_index": 2, "time_elapsed": 21469, "internal_node_id": "0.0-2.0"}}, {"uniqueid": "MTK0689:35K3O9HUACKU4YFWKNH4KR9D1NTEFJ", "current_trial": 3, "dateTime": 1512594616078, "trialdata": {"rt": [5672], "responses": ["crystal"], "type": "AUDIO_TEST", "trial_type": "audio-test", "trial_index": 3, "time_elapsed": 27147, "internal_node_id": "0.0-3.0"}}, {"uniqueid": "MTK0689:35K3O9HUACKU4YFWKNH4KR9D1NTEFJ", "current_trial": 4, "dateTime": 1512594623320, "trialdata": {"rt": [7238], "responses": ["spice"], "type": "AUDIO_TEST", "trial_type": "audio-test", "trial_index": 4, "time_elapsed": 34389, "internal_node_id": "0.0-4.0"}}, {"uniqueid": "MTK0689:35K3O9HUACKU4YFWKNH4KR9D1NTEFJ", "current_trial": 5, "dateTime": 1512594665052, "trialdata": {"rt": 40978, "responses": "{\"Q0\":\"10:00\",\"Q1\":\"7:00\",\"Q2\":\"4\"}", "type": "SLEEP_SURVEY", "trial_type": "survey-text", "trial_index": 5, "time_elapsed": 76121, "internal_node_id": "0.0-5.0"}}, {"uniqueid": "MTK0689:35K3O9HUACKU4YFWKNH4KR9D1NTEFJ", "current_trial": 6, "dateTime": 1512594722941, "trialdata": {"rt": 56887, "key_press": 13, "type": "INSTRUCTIONS", "trial_type": "text", "trial_index": 6, "time_elapsed": 134010, "internal_node_id": "0.0-6.0"}}, {"uniqueid": "MTK0689:35K3O9HUACKU4YFWKNH4KR9D1NTEFJ", "current_trial": 7, "dateTime": 1512594733263, "trialdata": {"rt": 9820, "key_press": 13, "type": "INSTRUCTIONS", "trial_type": "text", "trial_index": 7, "time_elapsed": 144332, "internal_node_id": "0.0-7.0"}}, {"uniqueid": "MTK0689:35K3O9HUACKU4YFWKNH4KR9D1NTEFJ", "current_trial": 8, "dateTime": 1512594738457, "trialdata": {"rt": 4692, "key_press": 13, "type": "INSTRUCTIONS", "trial_type": "text", "trial_index": 8, "time_elapsed": 149526, "internal_node_id": "0.0-8.0"}}, {"uniqueid": "MTK0689:35K3O9HUACKU4YFWKNH4KR9D1NTEFJ", "current_trial": 9, "dateTime": 1512594757468, "trialdata": {"rt": [2719, 4401, 6214, 8240, 11514, 13665, 15837, 17712], "responses": ["16", "9", "12", "18", "25", "20", "20", "13"], "num1": [4, 2, 6, 3, 8, 9, 9, 6, 4], "num2": [7, 2, 1, 8, 9, 2, 4, 6, 9], "num3": [5, 5, 5, 7, 8, 9, 7, 1, 1], "type": "DISTRACTOR", "conditions": [18, 1200, "v", 18000], "trial": 0, "trial_type": "math-distractor", "trial_index": 9, "time_elapsed": 168536, "internal_node_id": "0.0-9.0"}}, {"uniqueid": "MTK0689:35K3O9HUACKU4YFWKNH4KR9D1NTEFJ", "current_trial": 10, "dateTime": 1512594760472, "trialdata": {"rt": -1, "stimulus": "<p id=\"stim\">10</p>", "key_press": -1, "trial_type": "single-stim", "trial_index": 10, "time_elapsed": 171541, "internal_node_id": "0.0-10.0-0.0"}}, {"uniqueid": "MTK0689:35K3O9HUACKU4YFWKNH4KR9D1NTEFJ", "current_trial": 11, "dateTime": 1512594761474, "trialdata": {"rt": -1, "stimulus": "<p id=\"stim\">9</p>", "key_press": -1, "trial_type": "single-stim", "trial_index": 11, "time_elapsed": 172543, "internal_node_id": "0.0-10.0-1.0"}}, {"uniqueid": "MTK0689:35K3O9HUACKU4YFWKNH4KR9D1NTEFJ", "current_trial": 12, "dateTime": 1512594762476, "trialdata": {"rt": -1, "stimulus": "<p id=\"stim\">8</p>", "key_press": -1, "trial_type": "single-stim", "trial_index": 12, "time_elapsed": 173545, "internal_node_id": "0.0-10.0-2.0"}}, {"uniqueid": "MTK0689:35K3O9HUACKU4YFWKNH4KR9D1NTEFJ", "current_trial": 13, "dateTime": 1512594763480, "trialdata": {"rt": -1, "stimulus": "<p id=\"stim\">7</p>", "key_press": -1, "trial_type": "single-stim", "trial_index": 13, "time_elapsed": 174549, "internal_node_id": "0.0-10.0-3.0"}}, {"uniqueid": "MTK0689:35K3O9HUACKU4YFWKNH4KR9D1NTEFJ", "current_trial": 14, "dateTime": 1512594764482, "trialdata": {"rt": -1, "stimulus": "<p id=\"stim\">6</p>", "key_press": -1, "trial_type": "single-stim", "trial_index": 14, "time_elapsed": 175551, "internal_node_id": "0.0-10.0-4.0"}}, {"uniqueid": "MTK0689:35K3O9HUACKU4YFWKNH4KR9D1NTEFJ", "current_trial": 15, "dateTime": 1512594765486, "trialdata": {"rt": -1, "stimulus": "<p id=\"stim\">5</p>", "key_press": -1, "trial_type": "single-stim", "trial_index": 15, "time_elapsed": 176554, "internal_node_id": "0.0-10.0-5.0"}}, {"uniqueid": "MTK0689:35K3O9HUACKU4YFWKNH4KR9D1NTEFJ", "current_trial": 16, "dateTime": 1512594766487, "trialdata": {"rt": -1, "stimulus": "<p id=\"stim\">4</p>", "key_press": -1, "trial_type": "single-stim", "trial_index": 16, "time_elapsed": 177555, "internal_node_id": "0.0-10.0-6.0"}}, {"uniqueid": "MTK0689:35K3O9HUACKU4YFWKNH4KR9D1NTEFJ", "current_trial": 17, "dateTime": 1512594767489, "trialdata": {"rt": -1, "stimulus": "<p id=\"stim\">3</p>", "key_press": -1, "trial_type": "single-stim", "trial_index": 17, "time_elapsed": 178557, "internal_node_id": "0.0-10.0-7.0"}}, {"uniqueid": "MTK0689:35K3O9HUACKU4YFWKNH4KR9D1NTEFJ", "current_trial": 18, "dateTime": 1512594768491, "trialdata": {"rt": -1, "stimulus": "<p id=\"stim\">2</p>", "key_press": -1, "trial_type": "single-stim", "trial_index": 18, "time_elapsed": 179559, "internal_node_id": "0.0-10.0-8.0"}}, {"uniqueid": "MTK0689:35K3O9HUACKU4YFWKNH4KR9D1NTEFJ", "current_trial": 19, "dateTime": 1512594769493, "trialdata": {"rt": 67, "stimulus": "<p id=\"stim\">1</p>", "key_press": 175, "trial_type": "single-stim", "trial_index": 19, "time_elapsed": 180562, "internal_node_id": "0.0-10.0-9.0"}}, {"uniqueid": "MTK0689:35K3O9HUACKU4YFWKNH4KR9D1NTEFJ", "current_trial": 20, "dateTime": 1512594770995, "trialdata": {"rt": -1, "stimulus": "<p id=\"stim\">+</p>", "key_press": -1, "type": "FIXATION", "trial_type": "single-stim", "trial_index": 20, "time_elapsed": 182064, "internal_node_id": "0.0-11.0-0.0"}}, {"uniqueid": "MTK0689:35K3O9HUACKU4YFWKNH4KR9D1NTEFJ", "current_trial": 21, "dateTime": 1512594772198, "trialdata": {"rt": -1, "stimulus": "<p id=\"stim\">WASP</p>", "key_press": -1, "type": "PRES_VIS", "word": "wasp", "wordID": 1592, "conditions": [18, 1200, "v", 18000], "trial": 0, "serialpos": 0, "trial_type": "single-stim", "trial_index": 21, "time_elapsed": 183266, "internal_node_id": "0.0-12.0"}}, {"uniqueid": "MTK0689:35K3O9HUACKU4YFWKNH4KR9D1NTEFJ", "current_trial": 22, "dateTime": 1512594774219, "trialdata": {"rt": -1, "stimulus": "<p id=\"stim\">SHORTCAKE</p>", "key_press": -1, "type": "PRES_VIS", "word": "shortcake", "wordID": 1291, "conditions": [18, 1200, "v", 18000], "trial": 0, "serialpos": 1, "trial_type": "single-stim", "trial_index": 22, "time_elapsed": 185288, "internal_node_id": "0.0-13.0"}}, {"uniqueid": "MTK0689:35K3O9HUACKU4YFWKNH4KR9D1NTEFJ", "current_trial": 23, "dateTime": 1512594776616, "trialdata": {"rt": -1, "stimulus": "<p id=\"stim\">WIDOW</p>", "key_press": -1, "type": "PRES_VIS", "word": "widow", "wordID": 1607, "conditions": [18, 1200, "v", 18000], "trial": 0, "serialpos": 2, "trial_type": "single-stim", "trial_index": 23, "time_elapsed": 187685, "internal_node_id": "0.0-14.0"}}, {"uniqueid": "MTK0689:35K3O9HUACKU4YFWKNH4KR9D1NTEFJ", "current_trial": 24, "dateTime": 1512594778948, "trialdata": {"rt": -1, "stimulus": "<p id=\"stim\">HELMET</p>", "key_press": -1, "type": "PRES_VIS", "word": "helmet", "wordID": 701, "conditions": [18, 1200, "v", 18000], "trial": 0, "serialpos": 3, "trial_type": "single-stim", "trial_index": 24, "time_elapsed": 190017, "internal_node_id": "0.0-15.0"}}, {"uniqueid": "MTK0689:35K3O9HUACKU4YFWKNH4KR9D1NTEFJ", "current_trial": 25, "dateTime": 1512594781310, "trialdata": {"rt": -1, "stimulus": "<p id=\"stim\">TUNNEL</p>", "key_press": -1, "type": "PRES_VIS", "word": "tunnel", "wordID": 1518, "conditions": [18, 1200, "v", 18000], "trial": 0, "serialpos": 4, "trial_type": "single-stim", "trial_index": 25, "time_elapsed": 192379, "internal_node_id": "0.0-16.0"}}, {"uniqueid": "MTK0689:35K3O9HUACKU4YFWKNH4KR9D1NTEFJ", "current_trial": 26, "dateTime": 1512594783646, "trialdata": {"rt": -1, "stimulus": "<p id=\"stim\">HUSBAND</p>", "key_press": -1, "type": "PRES_VIS", "word": "husband", "wordID": 727, "conditions": [18, 1200, "v", 18000], "trial": 0, "serialpos": 5, "trial_type": "single-stim", "trial_index": 26, "time_elapsed": 194715, "internal_node_id": "0.0-17.0"}}, {"uniqueid": "MTK0689:35K3O9HUACKU4YFWKNH4KR9D1NTEFJ", "current_trial": 27, "dateTime": 1512594785697, "trialdata": {"rt": -1, "stimulus": "<p id=\"stim\">NECKLACE</p>", "key_press": -1, "type": "PRES_VIS", "word": "necklace", "wordID": 939, "conditions": [18, 1200, "v", 18000], "trial": 0, "serialpos": 6, "trial_type": "single-stim", "trial_index": 27, "time_elapsed": 196766, "internal_node_id": "0.0-18.0"}}, {"uniqueid": "MTK0689:35K3O9HUACKU4YFWKNH4KR9D1NTEFJ", "current_trial": 28, "dateTime": 1512594787901, "trialdata": {"rt": -1, "stimulus": "<p id=\"stim\">SPIDER</p>", "key_press": -1, "type": "PRES_VIS", "word": "spider", "wordID": 1350, "conditions": [18, 1200, "v", 18000], "trial": 0, "serialpos": 7, "trial_type": "single-stim", "trial_index": 28, "time_elapsed": 198970, "internal_node_id": "0.0-19.0"}}, {"uniqueid": "MTK0689:35K3O9HUACKU4YFWKNH4KR9D1NTEFJ", "current_trial": 29, "dateTime": 1512594790210, "trialdata": {"rt": -1, "stimulus": "<p id=\"stim\">COUSIN</p>", "key_press": -1, "type": "PRES_VIS", "word": "cousin", "wordID": 391, "conditions": [18, 1200, "v", 18000], "trial": 0, "serialpos": 8, "trial_type": "single-stim", "trial_index": 29, "time_elapsed": 201279, "internal_node_id": "0.0-20.0"}}, {"uniqueid": "MTK0689:35K3O9HUACKU4YFWKNH4KR9D1NTEFJ", "current_trial": 30, "dateTime": 1512594792495, "trialdata": {"rt": -1, "stimulus": "<p id=\"stim\">SHARK</p>", "key_press": -1, "type": "PRES_VIS", "word": "shark", "wordID": 1274, "conditions": [18, 1200, "v", 18000], "trial": 0, "serialpos": 9, "trial_type": "single-stim", "trial_index": 30, "time_elapsed": 203563, "internal_node_id": "0.0-21.0"}}, {"uniqueid": "MTK0689:35K3O9HUACKU4YFWKNH4KR9D1NTEFJ", "current_trial": 31, "dateTime": 1512594794627, "trialdata": {"rt": -1, "stimulus": "<p id=\"stim\">MAMMAL</p>", "key_press": -1, "type": "PRES_VIS", "word": "mammal", "wordID": 860, "conditions": [18, 1200, "v", 18000], "trial": 0, "serialpos": 10, "trial_type": "single-stim", "trial_index": 31, "time_elapsed": 205696, "internal_node_id": "0.0-22.0"}}, {"uniqueid": "MTK0689:35K3O9HUACKU4YFWKNH4KR9D1NTEFJ", "current_trial": 32, "dateTime": 1512594796769, "trialdata": {"rt": -1, "stimulus": "<p id=\"stim\">COUNTY</p>", "key_press": -1, "type": "PRES_VIS", "word": "county", "wordID": 388, "conditions": [18, 1200, "v", 18000], "trial": 0, "serialpos": 11, "trial_type": "single-stim", "trial_index": 32, "time_elapsed": 207838, "internal_node_id": "0.0-23.0"}}, {"uniqueid": "MTK0689:35K3O9HUACKU4YFWKNH4KR9D1NTEFJ", "current_trial": 33, "dateTime": 1512594799105, "trialdata": {"rt": -1, "stimulus": "<p id=\"stim\">VICTIM</p>", "key_press": -1, "type": "PRES_VIS", "word": "victim", "wordID": 1561, "conditions": [18, 1200, "v", 18000], "trial": 0, "serialpos": 12, "trial_type": "single-stim", "trial_index": 33, "time_elapsed": 210173, "internal_node_id": "0.0-24.0"}}, {"uniqueid": "MTK0689:35K3O9HUACKU4YFWKNH4KR9D1NTEFJ", "current_trial": 34, "dateTime": 1512594801110, "trialdata": {"rt": -1, "stimulus": "<p id=\"stim\">ROBBER</p>", "key_press": -1, "type": "PRES_VIS", "word": "robber", "wordID": 1196, "conditions": [18, 1200, "v", 18000], "trial": 0, "serialpos": 13, "trial_type": "single-stim", "trial_index": 34, "time_elapsed": 212179, "internal_node_id": "0.0-25.0"}}, {"uniqueid": "MTK0689:35K3O9HUACKU4YFWKNH4KR9D1NTEFJ", "current_trial": 35, "dateTime": 1512594803311, "trialdata": {"rt": -1, "stimulus": "<p id=\"stim\">HAMPER</p>", "key_press": -1, "type": "PRES_VIS", "word": "hamper", "wordID": 681, "conditions": [18, 1200, "v", 18000], "trial": 0, "serialpos": 14, "trial_type": "single-stim", "trial_index": 35, "time_elapsed": 214380, "internal_node_id": "0.0-26.0"}}, {"uniqueid": "MTK0689:35K3O9HUACKU4YFWKNH4KR9D1NTEFJ", "current_trial": 36, "dateTime": 1512594805537, "trialdata": {"rt": -1, "stimulus": "<p id=\"stim\">LEG</p>", "key_press": -1, "type": "PRES_VIS", "word": "leg", "wordID": 808, "conditions": [18, 1200, "v", 18000], "trial": 0, "serialpos": 15, "trial_type": "single-stim", "trial_index": 36, "time_elapsed": 216606, "internal_node_id": "0.0-27.0"}}, {"uniqueid": "MTK0689:35K3O9HUACKU4YFWKNH4KR9D1NTEFJ", "current_trial": 37, "dateTime": 1512594807645, "trialdata": {"rt": -1, "stimulus": "<p id=\"stim\">GLASS</p>", "key_press": -1, "type": "PRES_VIS", "word": "glass", "wordID": 638, "conditions": [18, 1200, "v", 18000], "trial": 0, "serialpos": 16, "trial_type": "single-stim", "trial_index": 37, "time_elapsed": 218714, "internal_node_id": "0.0-28.0"}}, {"uniqueid": "MTK0689:35K3O9HUACKU4YFWKNH4KR9D1NTEFJ", "current_trial": 38, "dateTime": 1512594809822, "trialdata": {"rt": -1, "stimulus": "<p id=\"stim\">ROD</p>", "key_press": -1, "type": "PRES_VIS", "word": "rod", "wordID": 1202, "conditions": [18, 1200, "v", 18000], "trial": 0, "serialpos": 17, "trial_type": "single-stim", "trial_index": 38, "time_elapsed": 220891, "internal_node_id": "0.0-29.0"}}, {"uniqueid": "MTK0689:35K3O9HUACKU4YFWKNH4KR9D1NTEFJ", "current_trial": 39, "dateTime": 1512594811999, "trialdata": {"rt": -1, "stimulus": "", "key_press": -1, "type": "PRE_RECALL_DELAY", "trial_type": "single-stim", "trial_index": 39, "time_elapsed": 223067, "internal_node_id": "0.0-30.0-0.0"}}, {"uniqueid": "MTK0689:35K3O9HUACKU4YFWKNH4KR9D1NTEFJ", "current_trial": 40, "dateTime": 1512594812504, "trialdata": {"rt": -1000, "stimulus": "/static/audio/400Hz.wav", "key_press": -1, "type": "PRE_RECALL_ALERT", "trial_type": "single-audio", "trial_index": 40, "time_elapsed": 223573, "internal_node_id": "0.0-31.0"}}, {"uniqueid": "MTK0689:35K3O9HUACKU4YFWKNH4KR9D1NTEFJ", "current_trial": 41, "dateTime": 1512594872513, "trialdata": {"rt": [2020, 2932, 4672, 6658, 7911, 9650, 11933, 13795], "recwords": ["glass", "rod", "robber", "victim", "leg", "county", "shortcake", "widow"], "type": "FREE_RECALL", "conditions": [18, 1200, "v", 18000], "trial": 0, "trial_type": "free-recall", "trial_index": 41, "time_elapsed": 283577, "internal_node_id": "0.0-32.0-0.0"}}, {"uniqueid": "MTK0689:35K3O9HUACKU4YFWKNH4KR9D1NTEFJ", "current_trial": 42, "dateTime": 1512594875678, "trialdata": {"rt": 1164, "key_press": 32, "type": "INSTRUCTIONS", "trial_type": "text", "trial_index": 42, "time_elapsed": 286747, "internal_node_id": "0.0-33.0"}}, {"uniqueid": "MTK0689:35K3O9HUACKU4YFWKNH4KR9D1NTEFJ", "current_trial": 43, "dateTime": 1512594895685, "trialdata": {"rt": [2123, 3724, 5164, 7212, 9441, 10959, 12965, 14453, 16397], "responses": ["9", "13", "14", "17", "14", "15", "15", "9", "8"], "num1": [4, 1, 9, 6, 1, 3, 3, 3, 1, 5], "num2": [2, 3, 4, 6, 4, 7, 8, 3, 3, 4], "num3": [3, 9, 1, 5, 9, 5, 4, 3, 4, 1], "type": "DISTRACTOR", "conditions": [18, 1200, "a", 18000], "trial": 1, "trial_type": "math-distractor", "trial_index": 43, "time_elapsed": 306753, "internal_node_id": "0.0-34.0"}}, {"uniqueid": "MTK0689:35K3O9HUACKU4YFWKNH4KR9D1NTEFJ", "current_trial": 44, "dateTime": 1512594898687, "trialdata": {"rt": -1, "stimulus": "<p id=\"stim\">10</p>", "key_press": -1, "trial_type": "single-stim", "trial_index": 44, "time_elapsed": 309756, "internal_node_id": "0.0-35.0-0.0"}}, {"uniqueid": "MTK0689:35K3O9HUACKU4YFWKNH4KR9D1NTEFJ", "current_trial": 45, "dateTime": 1512594899690, "trialdata": {"rt": -1, "stimulus": "<p id=\"stim\">9</p>", "key_press": -1, "trial_type": "single-stim", "trial_index": 45, "time_elapsed": 310759, "internal_node_id": "0.0-35.0-1.0"}}, {"uniqueid": "MTK0689:35K3O9HUACKU4YFWKNH4KR9D1NTEFJ", "current_trial": 46, "dateTime": 1512594900692, "trialdata": {"rt": -1, "stimulus": "<p id=\"stim\">8</p>", "key_press": -1, "trial_type": "single-stim", "trial_index": 46, "time_elapsed": 311760, "internal_node_id": "0.0-35.0-2.0"}}, {"uniqueid": "MTK0689:35K3O9HUACKU4YFWKNH4KR9D1NTEFJ", "current_trial": 47, "dateTime": 1512594901696, "trialdata": {"rt": -1, "stimulus": "<p id=\"stim\">7</p>", "key_press": -1, "trial_type": "single-stim", "trial_index": 47, "time_elapsed": 312764, "internal_node_id": "0.0-35.0-3.0"}}, {"uniqueid": "MTK0689:35K3O9HUACKU4YFWKNH4KR9D1NTEFJ", "current_trial": 48, "dateTime": 1512594902698, "trialdata": {"rt": -1, "stimulus": "<p id=\"stim\">6</p>", "key_press": -1, "trial_type": "single-stim", "trial_index": 48, "time_elapsed": 313766, "internal_node_id": "0.0-35.0-4.0"}}, {"uniqueid": "MTK0689:35K3O9HUACKU4YFWKNH4KR9D1NTEFJ", "current_trial": 49, "dateTime": 1512594903699, "trialdata": {"rt": -1, "stimulus": "<p id=\"stim\">5</p>", "key_press": -1, "trial_type": "single-stim", "trial_index": 49, "time_elapsed": 314767, "internal_node_id": "0.0-35.0-5.0"}}, {"uniqueid": "MTK0689:35K3O9HUACKU4YFWKNH4KR9D1NTEFJ", "current_trial": 50, "dateTime": 1512594904702, "trialdata": {"rt": -1, "stimulus": "<p id=\"stim\">4</p>", "key_press": -1, "trial_type": "single-stim", "trial_index": 50, "time_elapsed": 315771, "internal_node_id": "0.0-35.0-6.0"}}, {"uniqueid": "MTK0689:35K3O9HUACKU4YFWKNH4KR9D1NTEFJ", "current_trial": 51, "dateTime": 1512594905703, "trialdata": {"rt": -1, "stimulus": "<p id=\"stim\">3</p>", "key_press": -1, "trial_type": "single-stim", "trial_index": 51, "time_elapsed": 316772, "internal_node_id": "0.0-35.0-7.0"}}, {"uniqueid": "MTK0689:35K3O9HUACKU4YFWKNH4KR9D1NTEFJ", "current_trial": 52, "dateTime": 1512594906706, "trialdata": {"rt": -1, "stimulus": "<p id=\"stim\">2</p>", "key_press": -1, "trial_type": "single-stim", "trial_index": 52, "time_elapsed": 317774, "internal_node_id": "0.0-35.0-8.0"}}, {"uniqueid": "MTK0689:35K3O9HUACKU4YFWKNH4KR9D1NTEFJ", "current_trial": 53, "dateTime": 1512594907708, "trialdata": {"rt": -1, "stimulus": "<p id=\"stim\">1</p>", "key_press": -1, "trial_type": "single-stim", "trial_index": 53, "time_elapsed": 318777, "internal_node_id": "0.0-35.0-9.0"}}, {"uniqueid": "MTK0689:35K3O9HUACKU4YFWKNH4KR9D1NTEFJ", "current_trial": 54, "dateTime": 1512594909209, "trialdata": {"rt": -1, "stimulus": "<p id=\"stim\">+</p>", "key_press": -1, "type": "FIXATION", "trial_type": "single-stim", "trial_index": 54, "time_elapsed": 320278, "internal_node_id": "0.0-36.0-0.0"}}, {"uniqueid": "MTK0689:35K3O9HUACKU4YFWKNH4KR9D1NTEFJ", "current_trial": 55, "dateTime": 1512594911216, "trialdata": {"rt": -1000, "stimulus": "/static/audio/wordpool/TEACHER.wav", "key_press": -1, "type": "PRES_AUD", "word": "teacher", "wordID": 1439, "conditions": [18, 1200, "a", 18000], "trial": 1, "serialpos": 0, "trial_type": "single-audio", "trial_index": 55, "time_elapsed": 322285, "internal_node_id": "0.0-37.0"}}, {"uniqueid": "MTK0689:35K3O9HUACKU4YFWKNH4KR9D1NTEFJ", "current_trial": 56, "dateTime": 1512594913347, "trialdata": {"rt": 1019.9999999999818, "stimulus": "/static/audio/wordpool/FLAG.wav", "key_press": 175, "type": "PRES_AUD", "word": "flag", "wordID": 572, "conditions": [18, 1200, "a", 18000], "trial": 1, "serialpos": 1, "trial_type": "single-audio", "trial_index": 56, "time_elapsed": 324415, "internal_node_id": "0.0-38.0"}}, {"uniqueid": "MTK0689:35K3O9HUACKU4YFWKNH4KR9D1NTEFJ", "current_trial": 57, "dateTime": 1512594915477, "trialdata": {"rt": 30.666666666661513, "stimulus": "/static/audio/wordpool/PEBBLE.wav", "key_press": 175, "type": "PRES_AUD", "word": "pebble", "wordID": 1034, "conditions": [18, 1200, "a", 18000], "trial": 1, "serialpos": 2, "trial_type": "single-audio", "trial_index": 57, "time_elapsed": 326546, "internal_node_id": "0.0-39.0"}}, {"uniqueid": "MTK0689:35K3O9HUACKU4YFWKNH4KR9D1NTEFJ", "current_trial": 58, "dateTime": 1512594917521, "trialdata": {"rt": -1000, "stimulus": "/static/audio/wordpool/COOKBOOK.wav", "key_press": -1, "type": "PRES_AUD", "word": "cookbook", "wordID": 372, "conditions": [18, 1200, "a", 18000], "trial": 1, "serialpos": 3, "trial_type": "single-audio", "trial_index": 58, "time_elapsed": 328590, "internal_node_id": "0.0-40.0"}}, {"uniqueid": "MTK0689:35K3O9HUACKU4YFWKNH4KR9D1NTEFJ", "current_trial": 59, "dateTime": 1512594919852, "trialdata": {"rt": -1000, "stimulus": "/static/audio/wordpool/OUTLAW.wav", "key_press": -1, "type": "PRES_AUD", "word": "outlaw", "wordID": 988, "conditions": [18, 1200, "a", 18000], "trial": 1, "serialpos": 4, "trial_type": "single-audio", "trial_index": 59, "time_elapsed": 330921, "internal_node_id": "0.0-41.0"}}, {"uniqueid": "MTK0689:35K3O9HUACKU4YFWKNH4KR9D1NTEFJ", "current_trial": 60, "dateTime": 1512594922145, "trialdata": {"rt": -1000, "stimulus": "/static/audio/wordpool/QUARTER.wav", "key_press": -1, "type": "PRES_AUD", "word": "quarter", "wordID": 1147, "conditions": [18, 1200, "a", 18000], "trial": 1, "serialpos": 5, "trial_type": "single-audio", "trial_index": 60, "time_elapsed": 333214, "internal_node_id": "0.0-42.0"}}, {"uniqueid": "MTK0689:35K3O9HUACKU4YFWKNH4KR9D1NTEFJ", "current_trial": 61, "dateTime": 1512594924348, "trialdata": {"rt": -1000, "stimulus": "/static/audio/wordpool/COOK.wav", "key_press": -1, "type": "PRES_AUD", "word": "cook", "wordID": 371, "conditions": [18, 1200, "a", 18000], "trial": 1, "serialpos": 6, "trial_type": "single-audio", "trial_index": 61, "time_elapsed": 335417, "internal_node_id": "0.0-43.0"}}, {"uniqueid": "MTK0689:35K3O9HUACKU4YFWKNH4KR9D1NTEFJ", "current_trial": 62, "dateTime": 1512594926437, "trialdata": {"rt": -1000, "stimulus": "/static/audio/wordpool/THREAD.wav", "key_press": -1, "type": "PRES_AUD", "word": "thread", "wordID": 1459, "conditions": [18, 1200, "a", 18000], "trial": 1, "serialpos": 7, "trial_type": "single-audio", "trial_index": 62, "time_elapsed": 337505, "internal_node_id": "0.0-44.0"}}, {"uniqueid": "MTK0689:35K3O9HUACKU4YFWKNH4KR9D1NTEFJ", "current_trial": 63, "dateTime": 1512594928797, "trialdata": {"rt": -1000, "stimulus": "/static/audio/wordpool/SNAIL.wav", "key_press": -1, "type": "PRES_AUD", "word": "snail", "wordID": 1331, "conditions": [18, 1200, "a", 18000], "trial": 1, "serialpos": 8, "trial_type": "single-audio", "trial_index": 63, "time_elapsed": 339866, "internal_node_id": "0.0-45.0"}}, {"uniqueid": "MTK0689:35K3O9HUACKU4YFWKNH4KR9D1NTEFJ", "current_trial": 64, "dateTime": 1512594931135, "trialdata": {"rt": -1000, "stimulus": "/static/audio/wordpool/SPACE.wav", "key_press": -1, "type": "PRES_AUD", "word": "space", "wordID": 1344, "conditions": [18, 1200, "a", 18000], "trial": 1, "serialpos": 9, "trial_type": "single-audio", "trial_index": 64, "time_elapsed": 342204, "internal_node_id": "0.0-46.0"}}, {"uniqueid": "MTK0689:35K3O9HUACKU4YFWKNH4KR9D1NTEFJ", "current_trial": 65, "dateTime": 1512594933466, "trialdata": {"rt": -1000, "stimulus": "/static/audio/wordpool/HANDBAG.wav", "key_press": -1, "type": "PRES_AUD", "word": "handbag", "wordID": 683, "conditions": [18, 1200, "a", 18000], "trial": 1, "serialpos": 10, "trial_type": "single-audio", "trial_index": 65, "time_elapsed": 344535, "internal_node_id": "0.0-47.0"}}, {"uniqueid": "MTK0689:35K3O9HUACKU4YFWKNH4KR9D1NTEFJ", "current_trial": 66, "dateTime": 1512594935846, "trialdata": {"rt": -1000, "stimulus": "/static/audio/wordpool/DANDRUFF.wav", "key_press": -1, "type": "PRES_AUD", "word": "dandruff", "wordID": 438, "conditions": [18, 1200, "a", 18000], "trial": 1, "serialpos": 11, "trial_type": "single-audio", "trial_index": 66, "time_elapsed": 346915, "internal_node_id": "0.0-48.0"}}, {"uniqueid": "MTK0689:35K3O9HUACKU4YFWKNH4KR9D1NTEFJ", "current_trial": 67, "dateTime": 1512594937949, "trialdata": {"rt": -1000, "stimulus": "/static/audio/wordpool/MILK.wav", "key_press": -1, "type": "PRES_AUD", "word": "milk", "wordID": 894, "conditions": [18, 1200, "a", 18000], "trial": 1, "serialpos": 12, "trial_type": "single-audio", "trial_index": 67, "time_elapsed": 349018, "internal_node_id": "0.0-49.0"}}, {"uniqueid": "MTK0689:35K3O9HUACKU4YFWKNH4KR9D1NTEFJ", "current_trial": 68, "dateTime": 1512594940039, "trialdata": {"rt": -1000, "stimulus": "/static/audio/wordpool/DORM.wav", "key_press": -1, "type": "PRES_AUD", "word": "dorm", "wordID": 487, "conditions": [18, 1200, "a", 18000], "trial": 1, "serialpos": 13, "trial_type": "single-audio", "trial_index": 68, "time_elapsed": 351103, "internal_node_id": "0.0-50.0"}}, {"uniqueid": "MTK0689:35K3O9HUACKU4YFWKNH4KR9D1NTEFJ", "current_trial": 69, "dateTime": 1512594942428, "trialdata": {"rt": -1000, "stimulus": "/static/audio/wordpool/CHAPEL.wav", "key_press": -1, "type": "PRES_AUD", "word": "chapel", "wordID": 279, "conditions": [18, 1200, "a", 18000], "trial": 1, "serialpos": 14, "trial_type": "single-audio", "trial_index": 69, "time_elapsed": 353497, "internal_node_id": "0.0-51.0"}}, {"uniqueid": "MTK0689:35K3O9HUACKU4YFWKNH4KR9D1NTEFJ", "current_trial": 70, "dateTime": 1512594944662, "trialdata": {"rt": -1000, "stimulus": "/static/audio/wordpool/ORCHID.wav", "key_press": -1, "type": "PRES_AUD", "word": "orchid", "wordID": 981, "conditions": [18, 1200, "a", 18000], "trial": 1, "serialpos": 15, "trial_type": "single-audio", "trial_index": 70, "time_elapsed": 355731, "internal_node_id": "0.0-52.0"}}, {"uniqueid": "MTK0689:35K3O9HUACKU4YFWKNH4KR9D1NTEFJ", "current_trial": 71, "dateTime": 1512594946815, "trialdata": {"rt": -1000, "stimulus": "/static/audio/wordpool/PIZZA.wav", "key_press": -1, "type": "PRES_AUD", "word": "pizza", "wordID": 1078, "conditions": [18, 1200, "a", 18000], "trial": 1, "serialpos": 16, "trial_type": "single-audio", "trial_index": 71, "time_elapsed": 357884, "internal_node_id": "0.0-53.0"}}, {"uniqueid": "MTK0689:35K3O9HUACKU4YFWKNH4KR9D1NTEFJ", "current_trial": 72, "dateTime": 1512594948943, "trialdata": {"rt": -1000, "stimulus": "/static/audio/wordpool/PIANO.wav", "key_press": -1, "type": "PRES_AUD", "word": "piano", "wordID": 1056, "conditions": [18, 1200, "a", 18000], "trial": 1, "serialpos": 17, "trial_type": "single-audio", "trial_index": 72, "time_elapsed": 360012, "internal_node_id": "0.0-54.0"}}, {"uniqueid": "MTK0689:35K3O9HUACKU4YFWKNH4KR9D1NTEFJ", "current_trial": 73, "dateTime": 1512594950236, "trialdata": {"rt": -1, "stimulus": "", "key_press": -1, "type": "PRE_RECALL_DELAY", "trial_type": "single-stim", "trial_index": 73, "time_elapsed": 361305, "internal_node_id": "0.0-55.0-0.0"}}, {"uniqueid": "MTK0689:35K3O9HUACKU4YFWKNH4KR9D1NTEFJ", "current_trial": 74, "dateTime": 1512594950740, "trialdata": {"rt": -1000, "stimulus": "/static/audio/400Hz.wav", "key_press": -1, "type": "PRE_RECALL_ALERT", "trial_type": "single-audio", "trial_index": 74, "time_elapsed": 361808, "internal_node_id": "0.0-56.0"}}, {"uniqueid": "MTK0689:35K3O9HUACKU4YFWKNH4KR9D1NTEFJ", "current_trial": 75, "dateTime": 1512595010747, "trialdata": {"rt": [1702, 3363, 4969, 6130, 7491, 8608, 11608, 17395, 53638, 55976], "recwords": ["pizza", "piano", "orchid", "dorm", "chapel", "cook", "cookbook", "dandruff", "mo", "milk"], "type": "FREE_RECALL", "conditions": [18, 1200, "a", 18000], "trial": 1, "trial_type": "free-recall", "trial_index": 75, "time_elapsed": 421812, "internal_node_id": "0.0-57.0-0.0"}}, {"uniqueid": "MTK0689:35K3O9HUACKU4YFWKNH4KR9D1NTEFJ", "current_trial": 76, "dateTime": 1512595014458, "trialdata": {"rt": 1705, "key_press": 13, "type": "INSTRUCTIONS", "trial_type": "text", "trial_index": 76, "time_elapsed": 425524, "internal_node_id": "0.0-58.0"}}, {"uniqueid": "MTK0689:35K3O9HUACKU4YFWKNH4KR9D1NTEFJ", "current_trial": 77, "dateTime": 1512595027463, "trialdata": {"rt": [1853, 3441, 5063, 6755, 8651, 10403], "responses": ["15", "9", "16", "12", "9", "17"], "num1": [1, 2, 6, 3, 6, 9, 1], "num2": [5, 4, 1, 3, 1, 6, 9], "num3": [8, 3, 9, 6, 2, 2, 3], "type": "DISTRACTOR", "conditions": [12, 1600, "a", 12000], "trial": 2, "trial_type": "math-distractor", "trial_index": 77, "time_elapsed": 438532, "internal_node_id": "0.0-59.0"}}, {"uniqueid": "MTK0689:35K3O9HUACKU4YFWKNH4KR9D1NTEFJ", "current_trial": 78, "dateTime": 1512595030465, "trialdata": {"rt": -1, "stimulus": "<p id=\"stim\">10</p>", "key_press": -1, "trial_type": "single-stim", "trial_index": 78, "time_elapsed": 441533, "internal_node_id": "0.0-60.0-0.0"}}, {"uniqueid": "MTK0689:35K3O9HUACKU4YFWKNH4KR9D1NTEFJ", "current_trial": 79, "dateTime": 1512595031467, "trialdata": {"rt": -1, "stimulus": "<p id=\"stim\">9</p>", "key_press": -1, "trial_type": "single-stim", "trial_index": 79, "time_elapsed": 442535, "internal_node_id": "0.0-60.0-1.0"}}, {"uniqueid": "MTK0689:35K3O9HUACKU4YFWKNH4KR9D1NTEFJ", "current_trial": 80, "dateTime": 1512595032469, "trialdata": {"rt": -1, "stimulus": "<p id=\"stim\">8</p>", "key_press": -1, "trial_type": "single-stim", "trial_index": 80, "time_elapsed": 443538, "internal_node_id": "0.0-60.0-2.0"}}, {"uniqueid": "MTK0689:35K3O9HUACKU4YFWKNH4KR9D1NTEFJ", "current_trial": 81, "dateTime": 1512595033472, "trialdata": {"rt": -1, "stimulus": "<p id=\"stim\">7</p>", "key_press": -1, "trial_type": "single-stim", "trial_index": 81, "time_elapsed": 444540, "internal_node_id": "0.0-60.0-3.0"}}, {"uniqueid": "MTK0689:35K3O9HUACKU4YFWKNH4KR9D1NTEFJ", "current_trial": 82, "dateTime": 1512595034473, "trialdata": {"rt": -1, "stimulus": "<p id=\"stim\">6</p>", "key_press": -1, "trial_type": "single-stim", "trial_index": 82, "time_elapsed": 445542, "internal_node_id": "0.0-60.0-4.0"}}, {"uniqueid": "MTK0689:35K3O9HUACKU4YFWKNH4KR9D1NTEFJ", "current_trial": 83, "dateTime": 1512595035475, "trialdata": {"rt": -1, "stimulus": "<p id=\"stim\">5</p>", "key_press": -1, "trial_type": "single-stim", "trial_index": 83, "time_elapsed": 446544, "internal_node_id": "0.0-60.0-5.0"}}, {"uniqueid": "MTK0689:35K3O9HUACKU4YFWKNH4KR9D1NTEFJ", "current_trial": 84, "dateTime": 1512595036477, "trialdata": {"rt": -1, "stimulus": "<p id=\"stim\">4</p>", "key_press": -1, "trial_type": "single-stim", "trial_index": 84, "time_elapsed": 447546, "internal_node_id": "0.0-60.0-6.0"}}, {"uniqueid": "MTK0689:35K3O9HUACKU4YFWKNH4KR9D1NTEFJ", "current_trial": 85, "dateTime": 1512595037479, "trialdata": {"rt": -1, "stimulus": "<p id=\"stim\">3</p>", "key_press": -1, "trial_type": "single-stim", "trial_index": 85, "time_elapsed": 448547, "internal_node_id": "0.0-60.0-7.0"}}, {"uniqueid": "MTK0689:35K3O9HUACKU4YFWKNH4KR9D1NTEFJ", "current_trial": 86, "dateTime": 1512595038481, "trialdata": {"rt": -1, "stimulus": "<p id=\"stim\">2</p>", "key_press": -1, "trial_type": "single-stim", "trial_index": 86, "time_elapsed": 449549, "internal_node_id": "0.0-60.0-8.0"}}, {"uniqueid": "MTK0689:35K3O9HUACKU4YFWKNH4KR9D1NTEFJ", "current_trial": 87, "dateTime": 1512595039483, "trialdata": {"rt": -1, "stimulus": "<p id=\"stim\">1</p>", "key_press": -1, "trial_type": "single-stim", "trial_index": 87, "time_elapsed": 450551, "internal_node_id": "0.0-60.0-9.0"}}, {"uniqueid": "MTK0689:35K3O9HUACKU4YFWKNH4KR9D1NTEFJ", "current_trial": 88, "dateTime": 1512595040984, "trialdata": {"rt": -1, "stimulus": "<p id=\"stim\">+</p>", "key_press": -1, "type": "FIXATION", "trial_type": "single-stim", "trial_index": 88, "time_elapsed": 452053, "internal_node_id": "0.0-61.0-0.0"}}, {"uniqueid": "MTK0689:35K3O9HUACKU4YFWKNH4KR9D1NTEFJ", "current_trial": 89, "dateTime": 1512595043501, "trialdata": {"rt": -1000, "stimulus": "/static/audio/wordpool/XEROX.wav", "key_press": -1, "type": "PRES_AUD", "word": "xerox", "wordID": 1627, "conditions": [12, 1600, "a", 12000], "trial": 2, "serialpos": 0, "trial_type": "single-audio", "trial_index": 89, "time_elapsed": 454570, "internal_node_id": "0.0-62.0"}}, {"uniqueid": "MTK0689:35K3O9HUACKU4YFWKNH4KR9D1NTEFJ", "current_trial": 90, "dateTime": 1512595046064, "trialdata": {"rt": -1000, "stimulus": "/static/audio/wordpool/STUDENT.wav", "key_press": -1, "type": "PRES_AUD", "word": "student", "wordID": 1394, "conditions": [12, 1600, "a", 12000], "trial": 2, "serialpos": 1, "trial_type": "single-audio", "trial_index": 90, "time_elapsed": 457133, "internal_node_id": "0.0-63.0"}}, {"uniqueid": "MTK0689:35K3O9HUACKU4YFWKNH4KR9D1NTEFJ", "current_trial": 91, "dateTime": 1512595048469, "trialdata": {"rt": -1000, "stimulus": "/static/audio/wordpool/BUBBLE.wav", "key_press": -1, "type": "PRES_AUD", "word": "bubble", "wordID": 182, "conditions": [12, 1600, "a", 12000], "trial": 2, "serialpos": 2, "trial_type": "single-audio", "trial_index": 91, "time_elapsed": 459538, "internal_node_id": "0.0-64.0"}}, {"uniqueid": "MTK0689:35K3O9HUACKU4YFWKNH4KR9D1NTEFJ", "current_trial": 92, "dateTime": 1512595050965, "trialdata": {"rt": -1000, "stimulus": "/static/audio/wordpool/CANYON.wav", "key_press": -1, "type": "PRES_AUD", "word": "canyon", "wordID": 234, "conditions": [12, 1600, "a", 12000], "trial": 2, "serialpos": 3, "trial_type": "single-audio", "trial_index": 92, "time_elapsed": 462034, "internal_node_id": "0.0-65.0"}}, {"uniqueid": "MTK0689:35K3O9HUACKU4YFWKNH4KR9D1NTEFJ", "current_trial": 93, "dateTime": 1512595053677, "trialdata": {"rt": -1000, "stimulus": "/static/audio/wordpool/COLLEGE.wav", "key_press": -1, "type": "PRES_AUD", "word": "college", "wordID": 345, "conditions": [12, 1600, "a", 12000], "trial": 2, "serialpos": 4, "trial_type": "single-audio", "trial_index": 93, "time_elapsed": 464745, "internal_node_id": "0.0-66.0"}}, {"uniqueid": "MTK0689:35K3O9HUACKU4YFWKNH4KR9D1NTEFJ", "current_trial": 94, "dateTime": 1512595056419, "trialdata": {"rt": -1000, "stimulus": "/static/audio/wordpool/BRACES.wav", "key_press": -1, "type": "PRES_AUD", "word": "braces", "wordID": 163, "conditions": [12, 1600, "a", 12000], "trial": 2, "serialpos": 5, "trial_type": "single-audio", "trial_index": 94, "time_elapsed": 467488, "internal_node_id": "0.0-67.0"}}, {"uniqueid": "MTK0689:35K3O9HUACKU4YFWKNH4KR9D1NTEFJ", "current_trial": 95, "dateTime": 1512595059086, "trialdata": {"rt": -1000, "stimulus": "/static/audio/wordpool/SHORTS.wav", "key_press": -1, "type": "PRES_AUD", "word": "shorts", "wordID": 1292, "conditions": [12, 1600, "a", 12000], "trial": 2, "serialpos": 6, "trial_type": "single-audio", "trial_index": 95, "time_elapsed": 470155, "internal_node_id": "0.0-68.0"}}, {"uniqueid": "MTK0689:35K3O9HUACKU4YFWKNH4KR9D1NTEFJ", "current_trial": 96, "dateTime": 1512595061841, "trialdata": {"rt": -1000, "stimulus": "/static/audio/wordpool/ISLAND.wav", "key_press": -1, "type": "PRES_AUD", "word": "island", "wordID": 744, "conditions": [12, 1600, "a", 12000], "trial": 2, "serialpos": 7, "trial_type": "single-audio", "trial_index": 96, "time_elapsed": 472910, "internal_node_id": "0.0-69.0"}}, {"uniqueid": "MTK0689:35K3O9HUACKU4YFWKNH4KR9D1NTEFJ", "current_trial": 97, "dateTime": 1512595064243, "trialdata": {"rt": -1000, "stimulus": "/static/audio/wordpool/MARINE.wav", "key_press": -1, "type": "PRES_AUD", "word": "marine", "wordID": 868, "conditions": [12, 1600, "a", 12000], "trial": 2, "serialpos": 8, "trial_type": "single-audio", "trial_index": 97, "time_elapsed": 475312, "internal_node_id": "0.0-70.0"}}, {"uniqueid": "MTK0689:35K3O9HUACKU4YFWKNH4KR9D1NTEFJ", "current_trial": 98, "dateTime": 1512595066806, "trialdata": {"rt": -1000, "stimulus": "/static/audio/wordpool/SEAFOOD.wav", "key_press": -1, "type": "PRES_AUD", "word": "seafood", "wordID": 1259, "conditions": [12, 1600, "a", 12000], "trial": 2, "serialpos": 9, "trial_type": "single-audio", "trial_index": 98, "time_elapsed": 477875, "internal_node_id": "0.0-71.0"}}, {"uniqueid": "MTK0689:35K3O9HUACKU4YFWKNH4KR9D1NTEFJ", "current_trial": 99, "dateTime": 1512595069378, "trialdata": {"rt": -1000, "stimulus": "/static/audio/wordpool/PORK.wav", "key_press": -1, "type": "PRES_AUD", "word": "pork", "wordID": 1107, "conditions": [12, 1600, "a", 12000], "trial": 2, "serialpos": 10, "trial_type": "single-audio", "trial_index": 99, "time_elapsed": 480447, "internal_node_id": "0.0-72.0"}}, {"uniqueid": "MTK0689:35K3O9HUACKU4YFWKNH4KR9D1NTEFJ", "current_trial": 100, "dateTime": 1512595072115, "trialdata": {"rt": -1000, "stimulus": "/static/audio/wordpool/NIGHTGOWN.wav", "key_press": -1, "type": "PRES_AUD", "word": "nightgown", "wordID": 952, "conditions": [12, 1600, "a", 12000], "trial": 2, "serialpos": 11, "trial_type": "single-audio", "trial_index": 100, "time_elapsed": 483183, "internal_node_id": "0.0-73.0"}}, {"uniqueid": "MTK0689:35K3O9HUACKU4YFWKNH4KR9D1NTEFJ", "current_trial": 101, "dateTime": 1512595073376, "trialdata": {"rt": -1, "stimulus": "", "key_press": -1, "type": "PRE_RECALL_DELAY", "trial_type": "single-stim", "trial_index": 101, "time_elapsed": 484444, "internal_node_id": "0.0-74.0-0.0"}}, {"uniqueid": "MTK0689:35K3O9HUACKU4YFWKNH4KR9D1NTEFJ", "current_trial": 102, "dateTime": 1512595073877, "trialdata": {"rt": -1000, "stimulus": "/static/audio/400Hz.wav", "key_press": -1, "type": "PRE_RECALL_ALERT", "trial_type": "single-audio", "trial_index": 102, "time_elapsed": 484946, "internal_node_id": "0.0-75.0"}}, {"uniqueid": "MTK0689:35K3O9HUACKU4YFWKNH4KR9D1NTEFJ", "current_trial": 103, "dateTime": 1512595133886, "trialdata": {"rt": [1825, 4241, 6134, 9184, 11163, 13834, 15816, 24842], "recwords": ["marine", "seafood", "xerox", "nightgown", "pork", "student", "college", "bubble"], "type": "FREE_RECALL", "conditions": [12, 1600, "a", 12000], "trial": 2, "trial_type": "free-recall", "trial_index": 103, "time_elapsed": 544948, "internal_node_id": "0.0-76.0-0.0"}}, {"uniqueid": "MTK0689:35K3O9HUACKU4YFWKNH4KR9D1NTEFJ", "current_trial": 104, "dateTime": 1512595136898, "trialdata": {"rt": 1009, "key_press": 32, "type": "INSTRUCTIONS", "trial_type": "text", "trial_index": 104, "time_elapsed": 547967, "internal_node_id": "0.0-77.0"}}, {"uniqueid": "MTK0689:35K3O9HUACKU4YFWKNH4KR9D1NTEFJ", "current_trial": 105, "dateTime": 1512595162904, "trialdata": {"rt": [2069, 4565, 7172, 10153, 11629, 13016, 14785, 16506, 18619, 20175, 21774, 23438], "responses": ["8", "18", "24", "15", "13", "15", "19", "9", "18", "15", "5", "9"], "num1": [4, 7, 8, 4, 2, 3, 6, 1, 5, 7, 1, 5, 4], "num2": [2, 4, 8, 7, 4, 5, 6, 5, 9, 6, 3, 3, 6], "num3": [2, 7, 6, 4, 7, 7, 7, 2, 4, 2, 1, 1, 2], "type": "DISTRACTOR", "conditions": [12, 1600, "v", 24000], "trial": 3, "trial_type": "math-distractor", "trial_index": 105, "time_elapsed": 573972, "internal_node_id": "0.0-78.0"}}, {"uniqueid": "MTK0689:35K3O9HUACKU4YFWKNH4KR9D1NTEFJ", "current_trial": 106, "dateTime": 1512595165907, "trialdata": {"rt": -1, "stimulus": "<p id=\"stim\">10</p>", "key_press": -1, "trial_type": "single-stim", "trial_index": 106, "time_elapsed": 576975, "internal_node_id": "0.0-79.0-0.0"}}, {"uniqueid": "MTK0689:35K3O9HUACKU4YFWKNH4KR9D1NTEFJ", "current_trial": 107, "dateTime": 1512595166909, "trialdata": {"rt": -1, "stimulus": "<p id=\"stim\">9</p>", "key_press": -1, "trial_type": "single-stim", "trial_index": 107, "time_elapsed": 577977, "internal_node_id": "0.0-79.0-1.0"}}, {"uniqueid": "MTK0689:35K3O9HUACKU4YFWKNH4KR9D1NTEFJ", "current_trial": 108, "dateTime": 1512595167910, "trialdata": {"rt": -1, "stimulus": "<p id=\"stim\">8</p>", "key_press": -1, "trial_type": "single-stim", "trial_index": 108, "time_elapsed": 578979, "internal_node_id": "0.0-79.0-2.0"}}, {"uniqueid": "MTK0689:35K3O9HUACKU4YFWKNH4KR9D1NTEFJ", "current_trial": 109, "dateTime": 1512595168912, "trialdata": {"rt": -1, "stimulus": "<p id=\"stim\">7</p>", "key_press": -1, "trial_type": "single-stim", "trial_index": 109, "time_elapsed": 579981, "internal_node_id": "0.0-79.0-3.0"}}, {"uniqueid": "MTK0689:35K3O9HUACKU4YFWKNH4KR9D1NTEFJ", "current_trial": 110, "dateTime": 1512595169914, "trialdata": {"rt": -1, "stimulus": "<p id=\"stim\">6</p>", "key_press": -1, "trial_type": "single-stim", "trial_index": 110, "time_elapsed": 580982, "internal_node_id": "0.0-79.0-4.0"}}, {"uniqueid": "MTK0689:35K3O9HUACKU4YFWKNH4KR9D1NTEFJ", "current_trial": 111, "dateTime": 1512595170916, "trialdata": {"rt": -1, "stimulus": "<p id=\"stim\">5</p>", "key_press": -1, "trial_type": "single-stim", "trial_index": 111, "time_elapsed": 581985, "internal_node_id": "0.0-79.0-5.0"}}, {"uniqueid": "MTK0689:35K3O9HUACKU4YFWKNH4KR9D1NTEFJ", "current_trial": 112, "dateTime": 1512595171917, "trialdata": {"rt": -1, "stimulus": "<p id=\"stim\">4</p>", "key_press": -1, "trial_type": "single-stim", "trial_index": 112, "time_elapsed": 582986, "internal_node_id": "0.0-79.0-6.0"}}, {"uniqueid": "MTK0689:35K3O9HUACKU4YFWKNH4KR9D1NTEFJ", "current_trial": 113, "dateTime": 1512595172929, "trialdata": {"rt": -1, "stimulus": "<p id=\"stim\">3</p>", "key_press": -1, "trial_type": "single-stim", "trial_index": 113, "time_elapsed": 583998, "internal_node_id": "0.0-79.0-7.0"}}, {"uniqueid": "MTK0689:35K3O9HUACKU4YFWKNH4KR9D1NTEFJ", "current_trial": 114, "dateTime": 1512595173932, "trialdata": {"rt": -1, "stimulus": "<p id=\"stim\">2</p>", "key_press": -1, "trial_type": "single-stim", "trial_index": 114, "time_elapsed": 585001, "internal_node_id": "0.0-79.0-8.0"}}, {"uniqueid": "MTK0689:35K3O9HUACKU4YFWKNH4KR9D1NTEFJ", "current_trial": 115, "dateTime": 1512595174934, "trialdata": {"rt": -1, "stimulus": "<p id=\"stim\">1</p>", "key_press": -1, "trial_type": "single-stim", "trial_index": 115, "time_elapsed": 586003, "internal_node_id": "0.0-79.0-9.0"}}, {"uniqueid": "MTK0689:35K3O9HUACKU4YFWKNH4KR9D1NTEFJ", "current_trial": 116, "dateTime": 1512595176436, "trialdata": {"rt": -1, "stimulus": "<p id=\"stim\">+</p>", "key_press": -1, "type": "FIXATION", "trial_type": "single-stim", "trial_index": 116, "time_elapsed": 587504, "internal_node_id": "0.0-80.0-0.0"}}, {"uniqueid": "MTK0689:35K3O9HUACKU4YFWKNH4KR9D1NTEFJ", "current_trial": 117, "dateTime": 1512595178038, "trialdata": {"rt": -1, "stimulus": "<p id=\"stim\">SIDEWALK</p>", "key_press": -1, "type": "PRES_VIS", "word": "sidewalk", "wordID": 1302, "conditions": [12, 1600, "v", 24000], "trial": 3, "serialpos": 0, "trial_type": "single-stim", "trial_index": 117, "time_elapsed": 589106, "internal_node_id": "0.0-81.0"}}, {"uniqueid": "MTK0689:35K3O9HUACKU4YFWKNH4KR9D1NTEFJ", "current_trial": 118, "dateTime": 1512595180709, "trialdata": {"rt": -1, "stimulus": "<p id=\"stim\">BRICK</p>", "key_press": -1, "type": "PRES_VIS", "word": "brick", "wordID": 171, "conditions": [12, 1600, "v", 24000], "trial": 3, "serialpos": 1, "trial_type": "single-stim", "trial_index": 118, "time_elapsed": 591777, "internal_node_id": "0.0-82.0"}}, {"uniqueid": "MTK0689:35K3O9HUACKU4YFWKNH4KR9D1NTEFJ", "current_trial": 119, "dateTime": 1512595183224, "trialdata": {"rt": -1, "stimulus": "<p id=\"stim\">CHEMIST</p>", "key_press": -1, "type": "PRES_VIS", "word": "chemist", "wordID": 291, "conditions": [12, 1600, "v", 24000], "trial": 3, "serialpos": 2, "trial_type": "single-stim", "trial_index": 119, "time_elapsed": 594293, "internal_node_id": "0.0-83.0"}}, {"uniqueid": "MTK0689:35K3O9HUACKU4YFWKNH4KR9D1NTEFJ", "current_trial": 120, "dateTime": 1512595185882, "trialdata": {"rt": -1, "stimulus": "<p id=\"stim\">JUGGLER</p>", "key_press": -1, "type": "PRES_VIS", "word": "juggler", "wordID": 762, "conditions": [12, 1600, "v", 24000], "trial": 3, "serialpos": 3, "trial_type": "single-stim", "trial_index": 120, "time_elapsed": 596951, "internal_node_id": "0.0-84.0"}}, {"uniqueid": "MTK0689:35K3O9HUACKU4YFWKNH4KR9D1NTEFJ", "current_trial": 121, "dateTime": 1512595188514, "trialdata": {"rt": -1, "stimulus": "<p id=\"stim\">HARP</p>", "key_press": -1, "type": "PRES_VIS", "word": "harp", "wordID": 688, "conditions": [12, 1600, "v", 24000], "trial": 3, "serialpos": 4, "trial_type": "single-stim", "trial_index": 121, "time_elapsed": 599582, "internal_node_id": "0.0-85.0"}}, {"uniqueid": "MTK0689:35K3O9HUACKU4YFWKNH4KR9D1NTEFJ", "current_trial": 122, "dateTime": 1512595191059, "trialdata": {"rt": -1, "stimulus": "<p id=\"stim\">BASEMENT</p>", "key_press": -1, "type": "PRES_VIS", "word": "basement", "wordID": 93, "conditions": [12, 1600, "v", 24000], "trial": 3, "serialpos": 5, "trial_type": "single-stim", "trial_index": 122, "time_elapsed": 602127, "internal_node_id": "0.0-86.0"}}, {"uniqueid": "MTK0689:35K3O9HUACKU4YFWKNH4KR9D1NTEFJ", "current_trial": 123, "dateTime": 1512595193703, "trialdata": {"rt": -1, "stimulus": "<p id=\"stim\">KITCHEN</p>", "key_press": -1, "type": "PRES_VIS", "word": "kitchen", "wordID": 777, "conditions": [12, 1600, "v", 24000], "trial": 3, "serialpos": 6, "trial_type": "single-stim", "trial_index": 123, "time_elapsed": 604771, "internal_node_id": "0.0-87.0"}}, {"uniqueid": "MTK0689:35K3O9HUACKU4YFWKNH4KR9D1NTEFJ", "current_trial": 124, "dateTime": 1512595196405, "trialdata": {"rt": -1, "stimulus": "<p id=\"stim\">BURGLAR</p>", "key_press": -1, "type": "PRES_VIS", "word": "burglar", "wordID": 199, "conditions": [12, 1600, "v", 24000], "trial": 3, "serialpos": 7, "trial_type": "single-stim", "trial_index": 124, "time_elapsed": 607473, "internal_node_id": "0.0-88.0"}}, {"uniqueid": "MTK0689:35K3O9HUACKU4YFWKNH4KR9D1NTEFJ", "current_trial": 125, "dateTime": 1512595198900, "trialdata": {"rt": -1, "stimulus": "<p id=\"stim\">STONE</p>", "key_press": -1, "type": "PRES_VIS", "word": "stone", "wordID": 1384, "conditions": [12, 1600, "v", 24000], "trial": 3, "serialpos": 8, "trial_type": "single-stim", "trial_index": 125, "time_elapsed": 609969, "internal_node_id": "0.0-89.0"}}, {"uniqueid": "MTK0689:35K3O9HUACKU4YFWKNH4KR9D1NTEFJ", "current_trial": 126, "dateTime": 1512595201413, "trialdata": {"rt": -1, "stimulus": "<p id=\"stim\">HONEY</p>", "key_press": -1, "type": "PRES_VIS", "word": "honey", "wordID": 712, "conditions": [12, 1600, "v", 24000], "trial": 3, "serialpos": 9, "trial_type": "single-stim", "trial_index": 126, "time_elapsed": 612481, "internal_node_id": "0.0-90.0"}}, {"uniqueid": "MTK0689:35K3O9HUACKU4YFWKNH4KR9D1NTEFJ", "current_trial": 127, "dateTime": 1512595204162, "trialdata": {"rt": -1, "stimulus": "<p id=\"stim\">RUST</p>", "key_press": -1, "type": "PRES_VIS", "word": "rust", "wordID": 1218, "conditions": [12, 1600, "v", 24000], "trial": 3, "serialpos": 10, "trial_type": "single-stim", "trial_index": 127, "time_elapsed": 615231, "internal_node_id": "0.0-91.0"}}, {"uniqueid": "MTK0689:35K3O9HUACKU4YFWKNH4KR9D1NTEFJ", "current_trial": 128, "dateTime": 1512595206755, "trialdata": {"rt": -1, "stimulus": "<p id=\"stim\">AGENT</p>", "key_press": -1, "type": "PRES_VIS", "word": "agent", "wordID": 9, "conditions": [12, 1600, "v", 24000], "trial": 3, "serialpos": 11, "trial_type": "single-stim", "trial_index": 128, "time_elapsed": 617823, "internal_node_id": "0.0-92.0"}}, {"uniqueid": "MTK0689:35K3O9HUACKU4YFWKNH4KR9D1NTEFJ", "current_trial": 129, "dateTime": 1512595209095, "trialdata": {"rt": -1, "stimulus": "", "key_press": -1, "type": "PRE_RECALL_DELAY", "trial_type": "single-stim", "trial_index": 129, "time_elapsed": 620164, "internal_node_id": "0.0-93.0-0.0"}}, {"uniqueid": "MTK0689:35K3O9HUACKU4YFWKNH4KR9D1NTEFJ", "current_trial": 130, "dateTime": 1512595209596, "trialdata": {"rt": -1000, "stimulus": "/static/audio/400Hz.wav", "key_press": -1, "type": "PRE_RECALL_ALERT", "trial_type": "single-audio", "trial_index": 130, "time_elapsed": 620665, "internal_node_id": "0.0-94.0"}}, {"uniqueid": "MTK0689:35K3O9HUACKU4YFWKNH4KR9D1NTEFJ", "current_trial": 131, "dateTime": 1512595269600, "trialdata": {"rt": [1328, 2396, 3635, 4561, 5938, 7817, 9429, 12367, 16429], "recwords": ["agent", "stone", "honey", "rust", "burglar", "kitchen", "basement", "chemist", "juggler"], "type": "FREE_RECALL", "conditions": [12, 1600, "v", 24000], "trial": 3, "trial_type": "free-recall", "trial_index": 131, "time_elapsed": 680667, "internal_node_id": "0.0-95.0-0.0"}}, {"uniqueid": "MTK0689:35K3O9HUACKU4YFWKNH4KR9D1NTEFJ", "current_trial": 132, "dateTime": 1512595272813, "trialdata": {"rt": 1210, "key_press": 32, "type": "INSTRUCTIONS", "trial_type": "text", "trial_index": 132, "time_elapsed": 683882, "internal_node_id": "0.0-96.0"}}, {"uniqueid": "MTK0689:35K3O9HUACKU4YFWKNH4KR9D1NTEFJ", "current_trial": 133, "dateTime": 1512595286820, "trialdata": {"rt": [1718, 3281, 4762, 6548, 8464, 10396], "responses": ["16", "9", "9", "20", "16", "12"], "num1": [1, 1, 7, 7, 2, 2, 1], "num2": [6, 1, 1, 7, 8, 6, 5], "num3": [9, 7, 1, 6, 6, 4, 9], "type": "DISTRACTOR", "conditions": [24, 1600, "a", 12000], "trial": 4, "trial_type": "math-distractor", "trial_index": 133, "time_elapsed": 697889, "internal_node_id": "0.0-97.0"}}, {"uniqueid": "MTK0689:35K3O9HUACKU4YFWKNH4KR9D1NTEFJ", "current_trial": 134, "dateTime": 1512595289823, "trialdata": {"rt": -1, "stimulus": "<p id=\"stim\">10</p>", "key_press": -1, "trial_type": "single-stim", "trial_index": 134, "time_elapsed": 700892, "internal_node_id": "0.0-98.0-0.0"}}, {"uniqueid": "MTK0689:35K3O9HUACKU4YFWKNH4KR9D1NTEFJ", "current_trial": 135, "dateTime": 1512595290826, "trialdata": {"rt": -1, "stimulus": "<p id=\"stim\">9</p>", "key_press": -1, "trial_type": "single-stim", "trial_index": 135, "time_elapsed": 701893, "internal_node_id": "0.0-98.0-1.0"}}, {"uniqueid": "MTK0689:35K3O9HUACKU4YFWKNH4KR9D1NTEFJ", "current_trial": 136, "dateTime": 1512595291827, "trialdata": {"rt": -1, "stimulus": "<p id=\"stim\">8</p>", "key_press": -1, "trial_type": "single-stim", "trial_index": 136, "time_elapsed": 702895, "internal_node_id": "0.0-98.0-2.0"}}, {"uniqueid": "MTK0689:35K3O9HUACKU4YFWKNH4KR9D1NTEFJ", "current_trial": 137, "dateTime": 1512595292828, "trialdata": {"rt": -1, "stimulus": "<p id=\"stim\">7</p>", "key_press": -1, "trial_type": "single-stim", "trial_index": 137, "time_elapsed": 703897, "internal_node_id": "0.0-98.0-3.0"}}, {"uniqueid": "MTK0689:35K3O9HUACKU4YFWKNH4KR9D1NTEFJ", "current_trial": 138, "dateTime": 1512595293831, "trialdata": {"rt": -1, "stimulus": "<p id=\"stim\">6</p>", "key_press": -1, "trial_type": "single-stim", "trial_index": 138, "time_elapsed": 704899, "internal_node_id": "0.0-98.0-4.0"}}, {"uniqueid": "MTK0689:35K3O9HUACKU4YFWKNH4KR9D1NTEFJ", "current_trial": 139, "dateTime": 1512595294831, "trialdata": {"rt": -1, "stimulus": "<p id=\"stim\">5</p>", "key_press": -1, "trial_type": "single-stim", "trial_index": 139, "time_elapsed": 705900, "internal_node_id": "0.0-98.0-5.0"}}, {"uniqueid": "MTK0689:35K3O9HUACKU4YFWKNH4KR9D1NTEFJ", "current_trial": 140, "dateTime": 1512595295834, "trialdata": {"rt": -1, "stimulus": "<p id=\"stim\">4</p>", "key_press": -1, "trial_type": "single-stim", "trial_index": 140, "time_elapsed": 706902, "internal_node_id": "0.0-98.0-6.0"}}, {"uniqueid": "MTK0689:35K3O9HUACKU4YFWKNH4KR9D1NTEFJ", "current_trial": 141, "dateTime": 1512595296836, "trialdata": {"rt": -1, "stimulus": "<p id=\"stim\">3</p>", "key_press": -1, "trial_type": "single-stim", "trial_index": 141, "time_elapsed": 707904, "internal_node_id": "0.0-98.0-7.0"}}, {"uniqueid": "MTK0689:35K3O9HUACKU4YFWKNH4KR9D1NTEFJ", "current_trial": 142, "dateTime": 1512595297837, "trialdata": {"rt": -1, "stimulus": "<p id=\"stim\">2</p>", "key_press": -1, "trial_type": "single-stim", "trial_index": 142, "time_elapsed": 708906, "internal_node_id": "0.0-98.0-8.0"}}, {"uniqueid": "MTK0689:35K3O9HUACKU4YFWKNH4KR9D1NTEFJ", "current_trial": 143, "dateTime": 1512595298840, "trialdata": {"rt": -1, "stimulus": "<p id=\"stim\">1</p>", "key_press": -1, "trial_type": "single-stim", "trial_index": 143, "time_elapsed": 709909, "internal_node_id": "0.0-98.0-9.0"}}, {"uniqueid": "MTK0689:35K3O9HUACKU4YFWKNH4KR9D1NTEFJ", "current_trial": 144, "dateTime": 1512595300342, "trialdata": {"rt": -1, "stimulus": "<p id=\"stim\">+</p>", "key_press": -1, "type": "FIXATION", "trial_type": "single-stim", "trial_index": 144, "time_elapsed": 711410, "internal_node_id": "0.0-99.0-0.0"}}, {"uniqueid": "MTK0689:35K3O9HUACKU4YFWKNH4KR9D1NTEFJ", "current_trial": 145, "dateTime": 1512595302902, "trialdata": {"rt": -1000, "stimulus": "/static/audio/wordpool/AIRPLANE.wav", "key_press": -1, "type": "PRES_AUD", "word": "airplane", "wordID": 11, "conditions": [24, 1600, "a", 12000], "trial": 4, "serialpos": 0, "trial_type": "single-audio", "trial_index": 145, "time_elapsed": 713970, "internal_node_id": "0.0-100.0"}}, {"uniqueid": "MTK0689:35K3O9HUACKU4YFWKNH4KR9D1NTEFJ", "current_trial": 146, "dateTime": 1512595305326, "trialdata": {"rt": -1000, "stimulus": "/static/audio/wordpool/MILDEW.wav", "key_press": -1, "type": "PRES_AUD", "word": "mildew", "wordID": 892, "conditions": [24, 1600, "a", 12000], "trial": 4, "serialpos": 1, "trial_type": "single-audio", "trial_index": 146, "time_elapsed": 716395, "internal_node_id": "0.0-101.0"}}, {"uniqueid": "MTK0689:35K3O9HUACKU4YFWKNH4KR9D1NTEFJ", "current_trial": 147, "dateTime": 1512595307764, "trialdata": {"rt": -1000, "stimulus": "/static/audio/wordpool/POCKET.wav", "key_press": -1, "type": "PRES_AUD", "word": "pocket", "wordID": 1092, "conditions": [24, 1600, "a", 12000], "trial": 4, "serialpos": 2, "trial_type": "single-audio", "trial_index": 147, "time_elapsed": 718833, "internal_node_id": "0.0-102.0"}}, {"uniqueid": "MTK0689:35K3O9HUACKU4YFWKNH4KR9D1NTEFJ", "current_trial": 148, "dateTime": 1512595310233, "trialdata": {"rt": -1000, "stimulus": "/static/audio/wordpool/WAGON.wav", "key_press": -1, "type": "PRES_AUD", "word": "wagon", "wordID": 1577, "conditions": [24, 1600, "a", 12000], "trial": 4, "serialpos": 3, "trial_type": "single-audio", "trial_index": 148, "time_elapsed": 721301, "internal_node_id": "0.0-103.0"}}, {"uniqueid": "MTK0689:35K3O9HUACKU4YFWKNH4KR9D1NTEFJ", "current_trial": 149, "dateTime": 1512595312778, "trialdata": {"rt": -1000, "stimulus": "/static/audio/wordpool/SHOULDER.wav", "key_press": -1, "type": "PRES_AUD", "word": "shoulder", "wordID": 1293, "conditions": [24, 1600, "a", 12000], "trial": 4, "serialpos": 4, "trial_type": "single-audio", "trial_index": 149, "time_elapsed": 723847, "internal_node_id": "0.0-104.0"}}, {"uniqueid": "MTK0689:35K3O9HUACKU4YFWKNH4KR9D1NTEFJ", "current_trial": 150, "dateTime": 1512595315334, "trialdata": {"rt": -1000, "stimulus": "/static/audio/wordpool/DAUGHTER.wav", "key_press": -1, "type": "PRES_AUD", "word": "daughter", "wordID": 441, "conditions": [24, 1600, "a", 12000], "trial": 4, "serialpos": 5, "trial_type": "single-audio", "trial_index": 150, "time_elapsed": 726402, "internal_node_id": "0.0-105.0"}}, {"uniqueid": "MTK0689:35K3O9HUACKU4YFWKNH4KR9D1NTEFJ", "current_trial": 151, "dateTime": 1512595317757, "trialdata": {"rt": -1000, "stimulus": "/static/audio/wordpool/SISTER.wav", "key_press": -1, "type": "PRES_AUD", "word": "sister", "wordID": 1311, "conditions": [24, 1600, "a", 12000], "trial": 4, "serialpos": 6, "trial_type": "single-audio", "trial_index": 151, "time_elapsed": 728826, "internal_node_id": "0.0-106.0"}}, {"uniqueid": "MTK0689:35K3O9HUACKU4YFWKNH4KR9D1NTEFJ", "current_trial": 152, "dateTime": 1512595320498, "trialdata": {"rt": -1000, "stimulus": "/static/audio/wordpool/FUNGUS.wav", "key_press": -1, "type": "PRES_AUD", "word": "fungus", "wordID": 613, "conditions": [24, 1600, "a", 12000], "trial": 4, "serialpos": 7, "trial_type": "single-audio", "trial_index": 152, "time_elapsed": 731567, "internal_node_id": "0.0-107.0"}}, {"uniqueid": "MTK0689:35K3O9HUACKU4YFWKNH4KR9D1NTEFJ", "current_trial": 153, "dateTime": 1512595322942, "trialdata": {"rt": -1000, "stimulus": "/static/audio/wordpool/NAPKIN.wav", "key_press": -1, "type": "PRES_AUD", "word": "napkin", "wordID": 936, "conditions": [24, 1600, "a", 12000], "trial": 4, "serialpos": 8, "trial_type": "single-audio", "trial_index": 153, "time_elapsed": 734011, "internal_node_id": "0.0-108.0"}}, {"uniqueid": "MTK0689:35K3O9HUACKU4YFWKNH4KR9D1NTEFJ", "current_trial": 154, "dateTime": 1512595325462, "trialdata": {"rt": -1000, "stimulus": "/static/audio/wordpool/LEADER.wav", "key_press": -1, "type": "PRES_AUD", "word": "leader", "wordID": 806, "conditions": [24, 1600, "a", 12000], "trial": 4, "serialpos": 9, "trial_type": "single-audio", "trial_index": 154, "time_elapsed": 736530, "internal_node_id": "0.0-109.0"}}, {"uniqueid": "MTK0689:35K3O9HUACKU4YFWKNH4KR9D1NTEFJ", "current_trial": 155, "dateTime": 1512595328057, "trialdata": {"rt": -1000, "stimulus": "/static/audio/wordpool/SANDWICH.wav", "key_press": -1, "type": "PRES_AUD", "word": "sandwich", "wordID": 1231, "conditions": [24, 1600, "a", 12000], "trial": 4, "serialpos": 10, "trial_type": "single-audio", "trial_index": 155, "time_elapsed": 739126, "internal_node_id": "0.0-110.0"}}, {"uniqueid": "MTK0689:35K3O9HUACKU4YFWKNH4KR9D1NTEFJ", "current_trial": 156, "dateTime": 1512595330574, "trialdata": {"rt": -1000, "stimulus": "/static/audio/wordpool/FRUIT.wav", "key_press": -1, "type": "PRES_AUD", "word": "fruit", "wordID": 609, "conditions": [24, 1600, "a", 12000], "trial": 4, "serialpos": 11, "trial_type": "single-audio", "trial_index": 156, "time_elapsed": 741643, "internal_node_id": "0.0-111.0"}}, {"uniqueid": "MTK0689:35K3O9HUACKU4YFWKNH4KR9D1NTEFJ", "current_trial": 157, "dateTime": 1512595333225, "trialdata": {"rt": -1000, "stimulus": "/static/audio/wordpool/WOMAN.wav", "key_press": -1, "type": "PRES_AUD", "word": "woman", "wordID": 1619, "conditions": [24, 1600, "a", 12000], "trial": 4, "serialpos": 12, "trial_type": "single-audio", "trial_index": 157, "time_elapsed": 744294, "internal_node_id": "0.0-112.0"}}, {"uniqueid": "MTK0689:35K3O9HUACKU4YFWKNH4KR9D1NTEFJ", "current_trial": 158, "dateTime": 1512595335847, "trialdata": {"rt": -1000, "stimulus": "/static/audio/wordpool/CHEST.wav", "key_press": -1, "type": "PRES_AUD", "word": "chest", "wordID": 294, "conditions": [24, 1600, "a", 12000], "trial": 4, "serialpos": 13, "trial_type": "single-audio", "trial_index": 158, "time_elapsed": 746916, "internal_node_id": "0.0-113.0"}}, {"uniqueid": "MTK0689:35K3O9HUACKU4YFWKNH4KR9D1NTEFJ", "current_trial": 159, "dateTime": 1512595338424, "trialdata": {"rt": -1000, "stimulus": "/static/audio/wordpool/STICKER.wav", "key_press": -1, "type": "PRES_AUD", "word": "sticker", "wordID": 1381, "conditions": [24, 1600, "a", 12000], "trial": 4, "serialpos": 14, "trial_type": "single-audio", "trial_index": 159, "time_elapsed": 749493, "internal_node_id": "0.0-114.0"}}, {"uniqueid": "MTK0689:35K3O9HUACKU4YFWKNH4KR9D1NTEFJ", "current_trial": 160, "dateTime": 1512595340839, "trialdata": {"rt": -1000, "stimulus": "/static/audio/wordpool/BADGE.wav", "key_press": -1, "type": "PRES_AUD", "word": "badge", "wordID": 67, "conditions": [24, 1600, "a", 12000], "trial": 4, "serialpos": 15, "trial_type": "single-audio", "trial_index": 160, "time_elapsed": 751908, "internal_node_id": "0.0-115.0"}}, {"uniqueid": "MTK0689:35K3O9HUACKU4YFWKNH4KR9D1NTEFJ", "current_trial": 161, "dateTime": 1512595343466, "trialdata": {"rt": -1000, "stimulus": "/static/audio/wordpool/WASHER.wav", "key_press": -1, "type": "PRES_AUD", "word": "washer", "wordID": 1591, "conditions": [24, 1600, "a", 12000], "trial": 4, "serialpos": 16, "trial_type": "single-audio", "trial_index": 161, "time_elapsed": 754535, "internal_node_id": "0.0-116.0"}}, {"uniqueid": "MTK0689:35K3O9HUACKU4YFWKNH4KR9D1NTEFJ", "current_trial": 162, "dateTime": 1512595345980, "trialdata": {"rt": -1000, "stimulus": "/static/audio/wordpool/LADY.wav", "key_press": -1, "type": "PRES_AUD", "word": "lady", "wordID": 793, "conditions": [24, 1600, "a", 12000], "trial": 4, "serialpos": 17, "trial_type": "single-audio", "trial_index": 162, "time_elapsed": 757049, "internal_node_id": "0.0-117.0"}}, {"uniqueid": "MTK0689:35K3O9HUACKU4YFWKNH4KR9D1NTEFJ", "current_trial": 163, "dateTime": 1512595348404, "trialdata": {"rt": -1000, "stimulus": "/static/audio/wordpool/PLATE.wav", "key_press": -1, "type": "PRES_AUD", "word": "plate", "wordID": 1085, "conditions": [24, 1600, "a", 12000], "trial": 4, "serialpos": 18, "trial_type": "single-audio", "trial_index": 163, "time_elapsed": 759473, "internal_node_id": "0.0-118.0"}}, {"uniqueid": "MTK0689:35K3O9HUACKU4YFWKNH4KR9D1NTEFJ", "current_trial": 164, "dateTime": 1512595351025, "trialdata": {"rt": -1000, "stimulus": "/static/audio/wordpool/SNACK.wav", "key_press": -1, "type": "PRES_AUD", "word": "snack", "wordID": 1330, "conditions": [24, 1600, "a", 12000], "trial": 4, "serialpos": 19, "trial_type": "single-audio", "trial_index": 164, "time_elapsed": 762094, "internal_node_id": "0.0-119.0"}}, {"uniqueid": "MTK0689:35K3O9HUACKU4YFWKNH4KR9D1NTEFJ", "current_trial": 165, "dateTime": 1512595353430, "trialdata": {"rt": -1000, "stimulus": "/static/audio/wordpool/YARN.wav", "key_press": -1, "type": "PRES_AUD", "word": "yarn", "wordID": 1630, "conditions": [24, 1600, "a", 12000], "trial": 4, "serialpos": 20, "trial_type": "single-audio", "trial_index": 165, "time_elapsed": 764498, "internal_node_id": "0.0-120.0"}}, {"uniqueid": "MTK0689:35K3O9HUACKU4YFWKNH4KR9D1NTEFJ", "current_trial": 166, "dateTime": 1512595356166, "trialdata": {"rt": -1000, "stimulus": "/static/audio/wordpool/BLENDER.wav", "key_press": -1, "type": "PRES_AUD", "word": "blender", "wordID": 135, "conditions": [24, 1600, "a", 12000], "trial": 4, "serialpos": 21, "trial_type": "single-audio", "trial_index": 166, "time_elapsed": 767235, "internal_node_id": "0.0-121.0"}}, {"uniqueid": "MTK0689:35K3O9HUACKU4YFWKNH4KR9D1NTEFJ", "current_trial": 167, "dateTime": 1512595358888, "trialdata": {"rt": -1000, "stimulus": "/static/audio/wordpool/DOLPHIN.wav", "key_press": -1, "type": "PRES_AUD", "word": "dolphin", "wordID": 482, "conditions": [24, 1600, "a", 12000], "trial": 4, "serialpos": 22, "trial_type": "single-audio", "trial_index": 167, "time_elapsed": 769957, "internal_node_id": "0.0-122.0"}}, {"uniqueid": "MTK0689:35K3O9HUACKU4YFWKNH4KR9D1NTEFJ", "current_trial": 168, "dateTime": 1512595361538, "trialdata": {"rt": -1000, "stimulus": "/static/audio/wordpool/TAXI.wav", "key_press": -1, "type": "PRES_AUD", "word": "taxi", "wordID": 1437, "conditions": [24, 1600, "a", 12000], "trial": 4, "serialpos": 23, "trial_type": "single-audio", "trial_index": 168, "time_elapsed": 772607, "internal_node_id": "0.0-123.0"}}, {"uniqueid": "MTK0689:35K3O9HUACKU4YFWKNH4KR9D1NTEFJ", "current_trial": 169, "dateTime": 1512595362800, "trialdata": {"rt": -1, "stimulus": "", "key_press": -1, "type": "PRE_RECALL_DELAY", "trial_type": "single-stim", "trial_index": 169, "time_elapsed": 773869, "internal_node_id": "0.0-124.0-0.0"}}, {"uniqueid": "MTK0689:35K3O9HUACKU4YFWKNH4KR9D1NTEFJ", "current_trial": 170, "dateTime": 1512595363313, "trialdata": {"rt": -1000, "stimulus": "/static/audio/400Hz.wav", "key_press": -1, "type": "PRE_RECALL_ALERT", "trial_type": "single-audio", "trial_index": 170, "time_elapsed": 774382, "internal_node_id": "0.0-125.0"}}, {"uniqueid": "MTK0689:35K3O9HUACKU4YFWKNH4KR9D1NTEFJ", "current_trial": 171, "dateTime": 1512595423321, "trialdata": {"rt": [1772, 2846, 3908, 6071, 8837, 11553, 12859, 14592, 23475, 44362, 45949], "recwords": ["blender", "plate", "snack", "dolphin", "taxi", "daughter", "lady", "woman", "pocket", "fruit", "sandwich"], "type": "FREE_RECALL", "conditions": [24, 1600, "a", 12000], "trial": 4, "trial_type": "free-recall", "trial_index": 171, "time_elapsed": 834384, "internal_node_id": "0.0-126.0-0.0"}}, {"uniqueid": "MTK0689:35K3O9HUACKU4YFWKNH4KR9D1NTEFJ", "current_trial": 172, "dateTime": 1512595426273, "trialdata": {"rt": 951, "key_press": 32, "type": "INSTRUCTIONS", "trial_type": "text", "trial_index": 172, "time_elapsed": 837342, "internal_node_id": "0.0-127.0"}}, {"uniqueid": "MTK0689:35K3O9HUACKU4YFWKNH4KR9D1NTEFJ", "current_trial": 173, "dateTime": 1512595452278, "trialdata": {"rt": [1655, 3479, 6253, 7774, 9383, 10814, 12723, 14145, 16174, 17738, 19993, 21900, 23605], "responses": ["12", "6", "18", "15", "14", "9", "15", "14", "13", "11", "17", "7", "11"], "num1": [3, 2, 9, 5, 6, 1, 7, 6, 2, 2, 2, 3, 2, 5], "num2": [2, 1, 4, 4, 1, 3, 4, 3, 7, 3, 6, 3, 4, 7], "num3": [7, 3, 5, 6, 7, 5, 4, 5, 4, 6, 9, 1, 5, 8], "type": "DISTRACTOR", "conditions": [24, 800, "v", 24000], "trial": 5, "trial_type": "math-distractor", "trial_index": 173, "time_elapsed": 863347, "internal_node_id": "0.0-128.0"}}, {"uniqueid": "MTK0689:35K3O9HUACKU4YFWKNH4KR9D1NTEFJ", "current_trial": 174, "dateTime": 1512595455281, "trialdata": {"rt": -1, "stimulus": "<p id=\"stim\">10</p>", "key_press": -1, "trial_type": "single-stim", "trial_index": 174, "time_elapsed": 866349, "internal_node_id": "0.0-129.0-0.0"}}, {"uniqueid": "MTK0689:35K3O9HUACKU4YFWKNH4KR9D1NTEFJ", "current_trial": 175, "dateTime": 1512595456283, "trialdata": {"rt": -1, "stimulus": "<p id=\"stim\">9</p>", "key_press": -1, "trial_type": "single-stim", "trial_index": 175, "time_elapsed": 867351, "internal_node_id": "0.0-129.0-1.0"}}, {"uniqueid": "MTK0689:35K3O9HUACKU4YFWKNH4KR9D1NTEFJ", "current_trial": 176, "dateTime": 1512595457285, "trialdata": {"rt": -1, "stimulus": "<p id=\"stim\">8</p>", "key_press": -1, "trial_type": "single-stim", "trial_index": 176, "time_elapsed": 868353, "internal_node_id": "0.0-129.0-2.0"}}, {"uniqueid": "MTK0689:35K3O9HUACKU4YFWKNH4KR9D1NTEFJ", "current_trial": 177, "dateTime": 1512595458288, "trialdata": {"rt": -1, "stimulus": "<p id=\"stim\">7</p>", "key_press": -1, "trial_type": "single-stim", "trial_index": 177, "time_elapsed": 869356, "internal_node_id": "0.0-129.0-3.0"}}, {"uniqueid": "MTK0689:35K3O9HUACKU4YFWKNH4KR9D1NTEFJ", "current_trial": 178, "dateTime": 1512595459290, "trialdata": {"rt": -1, "stimulus": "<p id=\"stim\">6</p>", "key_press": -1, "trial_type": "single-stim", "trial_index": 178, "time_elapsed": 870358, "internal_node_id": "0.0-129.0-4.0"}}, {"uniqueid": "MTK0689:35K3O9HUACKU4YFWKNH4KR9D1NTEFJ", "current_trial": 179, "dateTime": 1512595460292, "trialdata": {"rt": -1, "stimulus": "<p id=\"stim\">5</p>", "key_press": -1, "trial_type": "single-stim", "trial_index": 179, "time_elapsed": 871360, "internal_node_id": "0.0-129.0-5.0"}}, {"uniqueid": "MTK0689:35K3O9HUACKU4YFWKNH4KR9D1NTEFJ", "current_trial": 180, "dateTime": 1512595461293, "trialdata": {"rt": -1, "stimulus": "<p id=\"stim\">4</p>", "key_press": -1, "trial_type": "single-stim", "trial_index": 180, "time_elapsed": 872361, "internal_node_id": "0.0-129.0-6.0"}}, {"uniqueid": "MTK0689:35K3O9HUACKU4YFWKNH4KR9D1NTEFJ", "current_trial": 181, "dateTime": 1512595462295, "trialdata": {"rt": -1, "stimulus": "<p id=\"stim\">3</p>", "key_press": -1, "trial_type": "single-stim", "trial_index": 181, "time_elapsed": 873363, "internal_node_id": "0.0-129.0-7.0"}}, {"uniqueid": "MTK0689:35K3O9HUACKU4YFWKNH4KR9D1NTEFJ", "current_trial": 182, "dateTime": 1512595463297, "trialdata": {"rt": -1, "stimulus": "<p id=\"stim\">2</p>", "key_press": -1, "trial_type": "single-stim", "trial_index": 182, "time_elapsed": 874365, "internal_node_id": "0.0-129.0-8.0"}}, {"uniqueid": "MTK0689:35K3O9HUACKU4YFWKNH4KR9D1NTEFJ", "current_trial": 183, "dateTime": 1512595464299, "trialdata": {"rt": -1, "stimulus": "<p id=\"stim\">1</p>", "key_press": -1, "trial_type": "single-stim", "trial_index": 183, "time_elapsed": 875367, "internal_node_id": "0.0-129.0-9.0"}}, {"uniqueid": "MTK0689:35K3O9HUACKU4YFWKNH4KR9D1NTEFJ", "current_trial": 184, "dateTime": 1512595465801, "trialdata": {"rt": -1, "stimulus": "<p id=\"stim\">+</p>", "key_press": -1, "type": "FIXATION", "trial_type": "single-stim", "trial_index": 184, "time_elapsed": 876870, "internal_node_id": "0.0-130.0-0.0"}}, {"uniqueid": "MTK0689:35K3O9HUACKU4YFWKNH4KR9D1NTEFJ", "current_trial": 185, "dateTime": 1512595466603, "trialdata": {"rt": -1, "stimulus": "<p id=\"stim\">RABBIT</p>", "key_press": -1, "type": "PRES_VIS", "word": "rabbit", "wordID": 1151, "conditions": [24, 800, "v", 24000], "trial": 5, "serialpos": 0, "trial_type": "single-stim", "trial_index": 185, "time_elapsed": 877671, "internal_node_id": "0.0-131.0"}}, {"uniqueid": "MTK0689:35K3O9HUACKU4YFWKNH4KR9D1NTEFJ", "current_trial": 186, "dateTime": 1512595468440, "trialdata": {"rt": -1, "stimulus": "<p id=\"stim\">COUNTRY</p>", "key_press": -1, "type": "PRES_VIS", "word": "country", "wordID": 387, "conditions": [24, 800, "v", 24000], "trial": 5, "serialpos": 1, "trial_type": "single-stim", "trial_index": 186, "time_elapsed": 879508, "internal_node_id": "0.0-132.0"}}, {"uniqueid": "MTK0689:35K3O9HUACKU4YFWKNH4KR9D1NTEFJ", "current_trial": 187, "dateTime": 1512595470368, "trialdata": {"rt": -1, "stimulus": "<p id=\"stim\">WORLD</p>", "key_press": -1, "type": "PRES_VIS", "word": "world", "wordID": 1621, "conditions": [24, 800, "v", 24000], "trial": 5, "serialpos": 2, "trial_type": "single-stim", "trial_index": 187, "time_elapsed": 881436, "internal_node_id": "0.0-133.0"}}, {"uniqueid": "MTK0689:35K3O9HUACKU4YFWKNH4KR9D1NTEFJ", "current_trial": 188, "dateTime": 1512595472131, "trialdata": {"rt": -1, "stimulus": "<p id=\"stim\">OYSTER</p>", "key_press": -1, "type": "PRES_VIS", "word": "oyster", "wordID": 994, "conditions": [24, 800, "v", 24000], "trial": 5, "serialpos": 3, "trial_type": "single-stim", "trial_index": 188, "time_elapsed": 883199, "internal_node_id": "0.0-134.0"}}, {"uniqueid": "MTK0689:35K3O9HUACKU4YFWKNH4KR9D1NTEFJ", "current_trial": 189, "dateTime": 1512595474039, "trialdata": {"rt": -1, "stimulus": "<p id=\"stim\">HEART</p>", "key_press": -1, "type": "PRES_VIS", "word": "heart", "wordID": 696, "conditions": [24, 800, "v", 24000], "trial": 5, "serialpos": 4, "trial_type": "single-stim", "trial_index": 189, "time_elapsed": 885107, "internal_node_id": "0.0-135.0"}}, {"uniqueid": "MTK0689:35K3O9HUACKU4YFWKNH4KR9D1NTEFJ", "current_trial": 190, "dateTime": 1512595475712, "trialdata": {"rt": -1, "stimulus": "<p id=\"stim\">PIGEON</p>", "key_press": -1, "type": "PRES_VIS", "word": "pigeon", "wordID": 1064, "conditions": [24, 800, "v", 24000], "trial": 5, "serialpos": 5, "trial_type": "single-stim", "trial_index": 190, "time_elapsed": 886780, "internal_node_id": "0.0-136.0"}}, {"uniqueid": "MTK0689:35K3O9HUACKU4YFWKNH4KR9D1NTEFJ", "current_trial": 191, "dateTime": 1512595477631, "trialdata": {"rt": -1, "stimulus": "<p id=\"stim\">SLUG</p>", "key_press": -1, "type": "PRES_VIS", "word": "slug", "wordID": 1328, "conditions": [24, 800, "v", 24000], "trial": 5, "serialpos": 6, "trial_type": "single-stim", "trial_index": 191, "time_elapsed": 888700, "internal_node_id": "0.0-137.0"}}, {"uniqueid": "MTK0689:35K3O9HUACKU4YFWKNH4KR9D1NTEFJ", "current_trial": 192, "dateTime": 1512595479389, "trialdata": {"rt": -1, "stimulus": "<p id=\"stim\">SODA</p>", "key_press": -1, "type": "PRES_VIS", "word": "soda", "wordID": 1340, "conditions": [24, 800, "v", 24000], "trial": 5, "serialpos": 7, "trial_type": "single-stim", "trial_index": 192, "time_elapsed": 890458, "internal_node_id": "0.0-138.0"}}, {"uniqueid": "MTK0689:35K3O9HUACKU4YFWKNH4KR9D1NTEFJ", "current_trial": 193, "dateTime": 1512595481282, "trialdata": {"rt": -1, "stimulus": "<p id=\"stim\">RELISH</p>", "key_press": -1, "type": "PRES_VIS", "word": "relish", "wordID": 1182, "conditions": [24, 800, "v", 24000], "trial": 5, "serialpos": 8, "trial_type": "single-stim", "trial_index": 193, "time_elapsed": 892350, "internal_node_id": "0.0-139.0"}}, {"uniqueid": "MTK0689:35K3O9HUACKU4YFWKNH4KR9D1NTEFJ", "current_trial": 194, "dateTime": 1512595483230, "trialdata": {"rt": -1, "stimulus": "<p id=\"stim\">CLOUD</p>", "key_press": -1, "type": "PRES_VIS", "word": "cloud", "wordID": 327, "conditions": [24, 800, "v", 24000], "trial": 5, "serialpos": 9, "trial_type": "single-stim", "trial_index": 194, "time_elapsed": 894299, "internal_node_id": "0.0-140.0"}}, {"uniqueid": "MTK0689:35K3O9HUACKU4YFWKNH4KR9D1NTEFJ", "current_trial": 195, "dateTime": 1512595485197, "trialdata": {"rt": -1, "stimulus": "<p id=\"stim\">KIDNEY</p>", "key_press": -1, "type": "PRES_VIS", "word": "kidney", "wordID": 775, "conditions": [24, 800, "v", 24000], "trial": 5, "serialpos": 10, "trial_type": "single-stim", "trial_index": 195, "time_elapsed": 896266, "internal_node_id": "0.0-141.0"}}, {"uniqueid": "MTK0689:35K3O9HUACKU4YFWKNH4KR9D1NTEFJ", "current_trial": 196, "dateTime": 1512595487198, "trialdata": {"rt": -1, "stimulus": "<p id=\"stim\">POSSUM</p>", "key_press": -1, "type": "PRES_VIS", "word": "possum", "wordID": 1111, "conditions": [24, 800, "v", 24000], "trial": 5, "serialpos": 11, "trial_type": "single-stim", "trial_index": 196, "time_elapsed": 898266, "internal_node_id": "0.0-142.0"}}, {"uniqueid": "MTK0689:35K3O9HUACKU4YFWKNH4KR9D1NTEFJ", "current_trial": 197, "dateTime": 1512595488914, "trialdata": {"rt": -1, "stimulus": "<p id=\"stim\">SCALPEL</p>", "key_press": -1, "type": "PRES_VIS", "word": "scalpel", "wordID": 1242, "conditions": [24, 800, "v", 24000], "trial": 5, "serialpos": 12, "trial_type": "single-stim", "trial_index": 197, "time_elapsed": 899983, "internal_node_id": "0.0-143.0"}}, {"uniqueid": "MTK0689:35K3O9HUACKU4YFWKNH4KR9D1NTEFJ", "current_trial": 198, "dateTime": 1512595490728, "trialdata": {"rt": -1, "stimulus": "<p id=\"stim\">ONION</p>", "key_press": -1, "type": "PRES_VIS", "word": "onion", "wordID": 976, "conditions": [24, 800, "v", 24000], "trial": 5, "serialpos": 13, "trial_type": "single-stim", "trial_index": 198, "time_elapsed": 901797, "internal_node_id": "0.0-144.0"}}, {"uniqueid": "MTK0689:35K3O9HUACKU4YFWKNH4KR9D1NTEFJ", "current_trial": 199, "dateTime": 1512595492659, "trialdata": {"rt": -1, "stimulus": "<p id=\"stim\">ROOSTER</p>", "key_press": -1, "type": "PRES_VIS", "word": "rooster", "wordID": 1208, "conditions": [24, 800, "v", 24000], "trial": 5, "serialpos": 14, "trial_type": "single-stim", "trial_index": 199, "time_elapsed": 903727, "internal_node_id": "0.0-145.0"}}, {"uniqueid": "MTK0689:35K3O9HUACKU4YFWKNH4KR9D1NTEFJ", "current_trial": 200, "dateTime": 1512595494304, "trialdata": {"rt": -1, "stimulus": "<p id=\"stim\">POLICE</p>", "key_press": -1, "type": "PRES_VIS", "word": "police", "wordID": 1097, "conditions": [24, 800, "v", 24000], "trial": 5, "serialpos": 15, "trial_type": "single-stim", "trial_index": 200, "time_elapsed": 905372, "internal_node_id": "0.0-146.0"}}, {"uniqueid": "MTK0689:35K3O9HUACKU4YFWKNH4KR9D1NTEFJ", "current_trial": 201, "dateTime": 1512595496193, "trialdata": {"rt": -1, "stimulus": "<p id=\"stim\">FLUTE</p>", "key_press": -1, "type": "PRES_VIS", "word": "flute", "wordID": 584, "conditions": [24, 800, "v", 24000], "trial": 5, "serialpos": 16, "trial_type": "single-stim", "trial_index": 201, "time_elapsed": 907261, "internal_node_id": "0.0-147.0"}}, {"uniqueid": "MTK0689:35K3O9HUACKU4YFWKNH4KR9D1NTEFJ", "current_trial": 202, "dateTime": 1512595497845, "trialdata": {"rt": -1, "stimulus": "<p id=\"stim\">MISSILE</p>", "key_press": -1, "type": "PRES_VIS", "word": "missile", "wordID": 899, "conditions": [24, 800, "v", 24000], "trial": 5, "serialpos": 17, "trial_type": "single-stim", "trial_index": 202, "time_elapsed": 908913, "internal_node_id": "0.0-148.0"}}, {"uniqueid": "MTK0689:35K3O9HUACKU4YFWKNH4KR9D1NTEFJ", "current_trial": 203, "dateTime": 1512595499820, "trialdata": {"rt": -1, "stimulus": "<p id=\"stim\">VENUS</p>", "key_press": -1, "type": "PRES_VIS", "word": "venus", "wordID": 1556, "conditions": [24, 800, "v", 24000], "trial": 5, "serialpos": 18, "trial_type": "single-stim", "trial_index": 203, "time_elapsed": 910889, "internal_node_id": "0.0-149.0"}}, {"uniqueid": "MTK0689:35K3O9HUACKU4YFWKNH4KR9D1NTEFJ", "current_trial": 204, "dateTime": 1512595501495, "trialdata": {"rt": -1, "stimulus": "<p id=\"stim\">SHOVEL</p>", "key_press": -1, "type": "PRES_VIS", "word": "shovel", "wordID": 1294, "conditions": [24, 800, "v", 24000], "trial": 5, "serialpos": 19, "trial_type": "single-stim", "trial_index": 204, "time_elapsed": 912563, "internal_node_id": "0.0-150.0"}}, {"uniqueid": "MTK0689:35K3O9HUACKU4YFWKNH4KR9D1NTEFJ", "current_trial": 205, "dateTime": 1512595503406, "trialdata": {"rt": -1, "stimulus": "<p id=\"stim\">BULLET</p>", "key_press": -1, "type": "PRES_VIS", "word": "bullet", "wordID": 193, "conditions": [24, 800, "v", 24000], "trial": 5, "serialpos": 20, "trial_type": "single-stim", "trial_index": 205, "time_elapsed": 914474, "internal_node_id": "0.0-151.0"}}, {"uniqueid": "MTK0689:35K3O9HUACKU4YFWKNH4KR9D1NTEFJ", "current_trial": 206, "dateTime": 1512595505193, "trialdata": {"rt": -1, "stimulus": "<p id=\"stim\">EUROPE</p>", "key_press": -1, "type": "PRES_VIS", "word": "europe", "wordID": 540, "conditions": [24, 800, "v", 24000], "trial": 5, "serialpos": 21, "trial_type": "single-stim", "trial_index": 206, "time_elapsed": 916262, "internal_node_id": "0.0-152.0"}}, {"uniqueid": "MTK0689:35K3O9HUACKU4YFWKNH4KR9D1NTEFJ", "current_trial": 207, "dateTime": 1512595506990, "trialdata": {"rt": -1, "stimulus": "<p id=\"stim\">EGYPT</p>", "key_press": -1, "type": "PRES_VIS", "word": "egypt", "wordID": 518, "conditions": [24, 800, "v", 24000], "trial": 5, "serialpos": 22, "trial_type": "single-stim", "trial_index": 207, "time_elapsed": 918059, "internal_node_id": "0.0-153.0"}}, {"uniqueid": "MTK0689:35K3O9HUACKU4YFWKNH4KR9D1NTEFJ", "current_trial": 208, "dateTime": 1512595508680, "trialdata": {"rt": -1, "stimulus": "<p id=\"stim\">BANJO</p>", "key_press": -1, "type": "PRES_VIS", "word": "banjo", "wordID": 81, "conditions": [24, 800, "v", 24000], "trial": 5, "serialpos": 23, "trial_type": "single-stim", "trial_index": 208, "time_elapsed": 919748, "internal_node_id": "0.0-154.0"}}, {"uniqueid": "MTK0689:35K3O9HUACKU4YFWKNH4KR9D1NTEFJ", "current_trial": 209, "dateTime": 1512595511193, "trialdata": {"rt": -1, "stimulus": "", "key_press": -1, "type": "PRE_RECALL_DELAY", "trial_type": "single-stim", "trial_index": 209, "time_elapsed": 922261, "internal_node_id": "0.0-155.0-0.0"}}, {"uniqueid": "MTK0689:35K3O9HUACKU4YFWKNH4KR9D1NTEFJ", "current_trial": 210, "dateTime": 1512595511744, "trialdata": {"rt": -1000, "stimulus": "/static/audio/400Hz.wav", "key_press": -1, "type": "PRE_RECALL_ALERT", "trial_type": "single-audio", "trial_index": 210, "time_elapsed": 922813, "internal_node_id": "0.0-156.0"}}, {"uniqueid": "MTK0689:35K3O9HUACKU4YFWKNH4KR9D1NTEFJ", "current_trial": 211, "dateTime": 1512595571754, "trialdata": {"rt": [1429, 3856, 7804, 10308, 12423, 14736, 16267, 25308], "recwords": ["country", "world", "egypt", "europe", "missile", "rabbit", "banjo", "slug"], "type": "FREE_RECALL", "conditions": [24, 800, "v", 24000], "trial": 5, "trial_type": "free-recall", "trial_index": 211, "time_elapsed": 982816, "internal_node_id": "0.0-157.0-0.0"}}, {"uniqueid": "MTK0689:35K3O9HUACKU4YFWKNH4KR9D1NTEFJ", "current_trial": 212, "dateTime": 1512595581915, "trialdata": {"rt": 8159, "key_press": 32, "type": "INSTRUCTIONS", "trial_type": "text", "trial_index": 212, "time_elapsed": 992984, "internal_node_id": "0.0-158.0"}}, {"uniqueid": "MTK0689:35K3O9HUACKU4YFWKNH4KR9D1NTEFJ", "current_trial": 213, "dateTime": 1512595595919, "trialdata": {"rt": [3457, 4857, 7204, 10935], "responses": ["20", "8", "22", "13"], "num1": [8, 1, 5, 1, 2], "num2": [5, 2, 9, 4, 3], "num3": [7, 5, 8, 8, 4], "type": "DISTRACTOR", "conditions": [12, 800, "a", 12000], "trial": 6, "trial_type": "math-distractor", "trial_index": 213, "time_elapsed": 1006987, "internal_node_id": "0.0-159.0"}}, {"uniqueid": "MTK0689:35K3O9HUACKU4YFWKNH4KR9D1NTEFJ", "current_trial": 214, "dateTime": 1512595598923, "trialdata": {"rt": -1, "stimulus": "<p id=\"stim\">10</p>", "key_press": -1, "trial_type": "single-stim", "trial_index": 214, "time_elapsed": 1009992, "internal_node_id": "0.0-160.0-0.0"}}, {"uniqueid": "MTK0689:35K3O9HUACKU4YFWKNH4KR9D1NTEFJ", "current_trial": 215, "dateTime": 1512595599924, "trialdata": {"rt": -1, "stimulus": "<p id=\"stim\">9</p>", "key_press": -1, "trial_type": "single-stim", "trial_index": 215, "time_elapsed": 1010993, "internal_node_id": "0.0-160.0-1.0"}}, {"uniqueid": "MTK0689:35K3O9HUACKU4YFWKNH4KR9D1NTEFJ", "current_trial": 216, "dateTime": 1512595600928, "trialdata": {"rt": -1, "stimulus": "<p id=\"stim\">8</p>", "key_press": -1, "trial_type": "single-stim", "trial_index": 216, "time_elapsed": 1011997, "internal_node_id": "0.0-160.0-2.0"}}, {"uniqueid": "MTK0689:35K3O9HUACKU4YFWKNH4KR9D1NTEFJ", "current_trial": 217, "dateTime": 1512595601931, "trialdata": {"rt": -1, "stimulus": "<p id=\"stim\">7</p>", "key_press": -1, "trial_type": "single-stim", "trial_index": 217, "time_elapsed": 1013000, "internal_node_id": "0.0-160.0-3.0"}}, {"uniqueid": "MTK0689:35K3O9HUACKU4YFWKNH4KR9D1NTEFJ", "current_trial": 218, "dateTime": 1512595602933, "trialdata": {"rt": -1, "stimulus": "<p id=\"stim\">6</p>", "key_press": -1, "trial_type": "single-stim", "trial_index": 218, "time_elapsed": 1014001, "internal_node_id": "0.0-160.0-4.0"}}, {"uniqueid": "MTK0689:35K3O9HUACKU4YFWKNH4KR9D1NTEFJ", "current_trial": 219, "dateTime": 1512595603935, "trialdata": {"rt": -1, "stimulus": "<p id=\"stim\">5</p>", "key_press": -1, "trial_type": "single-stim", "trial_index": 219, "time_elapsed": 1015003, "internal_node_id": "0.0-160.0-5.0"}}, {"uniqueid": "MTK0689:35K3O9HUACKU4YFWKNH4KR9D1NTEFJ", "current_trial": 220, "dateTime": 1512595604936, "trialdata": {"rt": -1, "stimulus": "<p id=\"stim\">4</p>", "key_press": -1, "trial_type": "single-stim", "trial_index": 220, "time_elapsed": 1016004, "internal_node_id": "0.0-160.0-6.0"}}, {"uniqueid": "MTK0689:35K3O9HUACKU4YFWKNH4KR9D1NTEFJ", "current_trial": 221, "dateTime": 1512595605937, "trialdata": {"rt": -1, "stimulus": "<p id=\"stim\">3</p>", "key_press": -1, "trial_type": "single-stim", "trial_index": 221, "time_elapsed": 1017006, "internal_node_id": "0.0-160.0-7.0"}}, {"uniqueid": "MTK0689:35K3O9HUACKU4YFWKNH4KR9D1NTEFJ", "current_trial": 222, "dateTime": 1512595606938, "trialdata": {"rt": -1, "stimulus": "<p id=\"stim\">2</p>", "key_press": -1, "trial_type": "single-stim", "trial_index": 222, "time_elapsed": 1018007, "internal_node_id": "0.0-160.0-8.0"}}, {"uniqueid": "MTK0689:35K3O9HUACKU4YFWKNH4KR9D1NTEFJ", "current_trial": 223, "dateTime": 1512595607941, "trialdata": {"rt": -1, "stimulus": "<p id=\"stim\">1</p>", "key_press": -1, "trial_type": "single-stim", "trial_index": 223, "time_elapsed": 1019009, "internal_node_id": "0.0-160.0-9.0"}}, {"uniqueid": "MTK0689:35K3O9HUACKU4YFWKNH4KR9D1NTEFJ", "current_trial": 224, "dateTime": 1512595609443, "trialdata": {"rt": -1, "stimulus": "<p id=\"stim\">+</p>", "key_press": -1, "type": "FIXATION", "trial_type": "single-stim", "trial_index": 224, "time_elapsed": 1020512, "internal_node_id": "0.0-161.0-0.0"}}, {"uniqueid": "MTK0689:35K3O9HUACKU4YFWKNH4KR9D1NTEFJ", "current_trial": 225, "dateTime": 1512595611233, "trialdata": {"rt": -1000, "stimulus": "/static/audio/wordpool/INFANT.wav", "key_press": -1, "type": "PRES_AUD", "word": "infant", "wordID": 736, "conditions": [12, 800, "a", 12000], "trial": 6, "serialpos": 0, "trial_type": "single-audio", "trial_index": 225, "time_elapsed": 1022302, "internal_node_id": "0.0-162.0"}}, {"uniqueid": "MTK0689:35K3O9HUACKU4YFWKNH4KR9D1NTEFJ", "current_trial": 226, "dateTime": 1512595613034, "trialdata": {"rt": -1000, "stimulus": "/static/audio/wordpool/PUDDLE.wav", "key_press": -1, "type": "PRES_AUD", "word": "puddle", "wordID": 1139, "conditions": [12, 800, "a", 12000], "trial": 6, "serialpos": 1, "trial_type": "single-audio", "trial_index": 226, "time_elapsed": 1024103, "internal_node_id": "0.0-163.0"}}, {"uniqueid": "MTK0689:35K3O9HUACKU4YFWKNH4KR9D1NTEFJ", "current_trial": 227, "dateTime": 1512595615004, "trialdata": {"rt": -1000, "stimulus": "/static/audio/wordpool/CABBAGE.wav", "key_press": -1, "type": "PRES_AUD", "word": "cabbage", "wordID": 209, "conditions": [12, 800, "a", 12000], "trial": 6, "serialpos": 2, "trial_type": "single-audio", "trial_index": 227, "time_elapsed": 1026073, "internal_node_id": "0.0-164.0"}}, {"uniqueid": "MTK0689:35K3O9HUACKU4YFWKNH4KR9D1NTEFJ", "current_trial": 228, "dateTime": 1512595616931, "trialdata": {"rt": -1000, "stimulus": "/static/audio/wordpool/CHIPMUNK.wav", "key_press": -1, "type": "PRES_AUD", "word": "chipmunk", "wordID": 303, "conditions": [12, 800, "a", 12000], "trial": 6, "serialpos": 3, "trial_type": "single-audio", "trial_index": 228, "time_elapsed": 1028000, "internal_node_id": "0.0-165.0"}}, {"uniqueid": "MTK0689:35K3O9HUACKU4YFWKNH4KR9D1NTEFJ", "current_trial": 229, "dateTime": 1512595618619, "trialdata": {"rt": -1000, "stimulus": "/static/audio/wordpool/DRUG.wav", "key_press": -1, "type": "PRES_AUD", "word": "drug", "wordID": 500, "conditions": [12, 800, "a", 12000], "trial": 6, "serialpos": 4, "trial_type": "single-audio", "trial_index": 229, "time_elapsed": 1029687, "internal_node_id": "0.0-166.0"}}, {"uniqueid": "MTK0689:35K3O9HUACKU4YFWKNH4KR9D1NTEFJ", "current_trial": 230, "dateTime": 1512595620292, "trialdata": {"rt": -1000, "stimulus": "/static/audio/wordpool/SALAD.wav", "key_press": -1, "type": "PRES_AUD", "word": "salad", "wordID": 1223, "conditions": [12, 800, "a", 12000], "trial": 6, "serialpos": 5, "trial_type": "single-audio", "trial_index": 230, "time_elapsed": 1031361, "internal_node_id": "0.0-167.0"}}, {"uniqueid": "MTK0689:35K3O9HUACKU4YFWKNH4KR9D1NTEFJ", "current_trial": 231, "dateTime": 1512595622198, "trialdata": {"rt": -1000, "stimulus": "/static/audio/wordpool/LOVER.wav", "key_press": -1, "type": "PRES_AUD", "word": "lover", "wordID": 845, "conditions": [12, 800, "a", 12000], "trial": 6, "serialpos": 6, "trial_type": "single-audio", "trial_index": 231, "time_elapsed": 1033267, "internal_node_id": "0.0-168.0"}}, {"uniqueid": "MTK0689:35K3O9HUACKU4YFWKNH4KR9D1NTEFJ", "current_trial": 232, "dateTime": 1512595623879, "trialdata": {"rt": -1000, "stimulus": "/static/audio/wordpool/GRAVEL.wav", "key_press": -1, "type": "PRES_AUD", "word": "gravel", "wordID": 658, "conditions": [12, 800, "a", 12000], "trial": 6, "serialpos": 7, "trial_type": "single-audio", "trial_index": 232, "time_elapsed": 1034948, "internal_node_id": "0.0-169.0"}}, {"uniqueid": "MTK0689:35K3O9HUACKU4YFWKNH4KR9D1NTEFJ", "current_trial": 233, "dateTime": 1512595625791, "trialdata": {"rt": -1000, "stimulus": "/static/audio/wordpool/PADDLE.wav", "key_press": -1, "type": "PRES_AUD", "word": "paddle", "wordID": 999, "conditions": [12, 800, "a", 12000], "trial": 6, "serialpos": 8, "trial_type": "single-audio", "trial_index": 233, "time_elapsed": 1036860, "internal_node_id": "0.0-170.0"}}, {"uniqueid": "MTK0689:35K3O9HUACKU4YFWKNH4KR9D1NTEFJ", "current_trial": 234, "dateTime": 1512595627444, "trialdata": {"rt": -1000, "stimulus": "/static/audio/wordpool/HIKER.wav", "key_press": -1, "type": "PRES_AUD", "word": "hiker", "wordID": 707, "conditions": [12, 800, "a", 12000], "trial": 6, "serialpos": 9, "trial_type": "single-audio", "trial_index": 234, "time_elapsed": 1038512, "internal_node_id": "0.0-171.0"}}, {"uniqueid": "MTK0689:35K3O9HUACKU4YFWKNH4KR9D1NTEFJ", "current_trial": 235, "dateTime": 1512595629343, "trialdata": {"rt": -1000, "stimulus": "/static/audio/wordpool/DONKEY.wav", "key_press": -1, "type": "PRES_AUD", "word": "donkey", "wordID": 483, "conditions": [12, 800, "a", 12000], "trial": 6, "serialpos": 10, "trial_type": "single-audio", "trial_index": 235, "time_elapsed": 1040412, "internal_node_id": "0.0-172.0"}}, {"uniqueid": "MTK0689:35K3O9HUACKU4YFWKNH4KR9D1NTEFJ", "current_trial": 236, "dateTime": 1512595631299, "trialdata": {"rt": -1000, "stimulus": "/static/audio/wordpool/CAMEL.wav", "key_press": -1, "type": "PRES_AUD", "word": "camel", "wordID": 222, "conditions": [12, 800, "a", 12000], "trial": 6, "serialpos": 11, "trial_type": "single-audio", "trial_index": 236, "time_elapsed": 1042368, "internal_node_id": "0.0-173.0"}}, {"uniqueid": "MTK0689:35K3O9HUACKU4YFWKNH4KR9D1NTEFJ", "current_trial": 237, "dateTime": 1512595632578, "trialdata": {"rt": -1, "stimulus": "", "key_press": -1, "type": "PRE_RECALL_DELAY", "trial_type": "single-stim", "trial_index": 237, "time_elapsed": 1043647, "internal_node_id": "0.0-174.0-0.0"}}, {"uniqueid": "MTK0689:35K3O9HUACKU4YFWKNH4KR9D1NTEFJ", "current_trial": 238, "dateTime": 1512595633080, "trialdata": {"rt": -1000, "stimulus": "/static/audio/400Hz.wav", "key_press": -1, "type": "PRE_RECALL_ALERT", "trial_type": "single-audio", "trial_index": 238, "time_elapsed": 1044149, "internal_node_id": "0.0-175.0"}}, {"uniqueid": "MTK0689:35K3O9HUACKU4YFWKNH4KR9D1NTEFJ", "current_trial": 239, "dateTime": 1512595693091, "trialdata": {"rt": [1965, 3045, 4549, 5958, 7064, 9515, 11969, 24698, 27550], "recwords": ["gravel", "paddle", "hiker", "donkey", "camel", "puddle", "infant", "lover", "chipmunk"], "type": "FREE_RECALL", "conditions": [12, 800, "a", 12000], "trial": 6, "trial_type": "free-recall", "trial_index": 239, "time_elapsed": 1104153, "internal_node_id": "0.0-176.0-0.0"}}, {"uniqueid": "MTK0689:35K3O9HUACKU4YFWKNH4KR9D1NTEFJ", "current_trial": 240, "dateTime": 1512595695911, "trialdata": {"rt": 818, "key_press": 32, "type": "INSTRUCTIONS", "trial_type": "text", "trial_index": 240, "time_elapsed": 1106980, "internal_node_id": "0.0-177.0"}}, {"uniqueid": "MTK0689:35K3O9HUACKU4YFWKNH4KR9D1NTEFJ", "current_trial": 241, "dateTime": 1512595721917, "trialdata": {"rt": [2088, 3604, 5142, 6815, 8632, 12956, 15207, 17196, 18927, 20823, 22615], "responses": ["19", "16", "16", "6", "11", "18", "18", "15", "17", "18", "22"], "num1": [6, 4, 8, 1, 3, 9, 9, 3, 2, 7, 7, 1], "num2": [7, 4, 1, 1, 1, 1, 6, 3, 8, 2, 8, 7], "num3": [6, 8, 7, 4, 7, 8, 3, 9, 7, 9, 7, 9], "type": "DISTRACTOR", "conditions": [24, 1600, "a", 24000], "trial": 7, "trial_type": "math-distractor", "trial_index": 241, "time_elapsed": 1132986, "internal_node_id": "0.0-178.0"}}, {"uniqueid": "MTK0689:35K3O9HUACKU4YFWKNH4KR9D1NTEFJ", "current_trial": 242, "dateTime": 1512595724920, "trialdata": {"rt": -1, "stimulus": "<p id=\"stim\">10</p>", "key_press": -1, "trial_type": "single-stim", "trial_index": 242, "time_elapsed": 1135988, "internal_node_id": "0.0-179.0-0.0"}}, {"uniqueid": "MTK0689:35K3O9HUACKU4YFWKNH4KR9D1NTEFJ", "current_trial": 243, "dateTime": 1512595725922, "trialdata": {"rt": -1, "stimulus": "<p id=\"stim\">9</p>", "key_press": -1, "trial_type": "single-stim", "trial_index": 243, "time_elapsed": 1136990, "internal_node_id": "0.0-179.0-1.0"}}, {"uniqueid": "MTK0689:35K3O9HUACKU4YFWKNH4KR9D1NTEFJ", "current_trial": 244, "dateTime": 1512595726925, "trialdata": {"rt": -1, "stimulus": "<p id=\"stim\">8</p>", "key_press": -1, "trial_type": "single-stim", "trial_index": 244, "time_elapsed": 1137993, "internal_node_id": "0.0-179.0-2.0"}}, {"uniqueid": "MTK0689:35K3O9HUACKU4YFWKNH4KR9D1NTEFJ", "current_trial": 245, "dateTime": 1512595727931, "trialdata": {"rt": -1, "stimulus": "<p id=\"stim\">7</p>", "key_press": -1, "trial_type": "single-stim", "trial_index": 245, "time_elapsed": 1139000, "internal_node_id": "0.0-179.0-3.0"}}, {"uniqueid": "MTK0689:35K3O9HUACKU4YFWKNH4KR9D1NTEFJ", "current_trial": 246, "dateTime": 1512595728933, "trialdata": {"rt": -1, "stimulus": "<p id=\"stim\">6</p>", "key_press": -1, "trial_type": "single-stim", "trial_index": 246, "time_elapsed": 1140001, "internal_node_id": "0.0-179.0-4.0"}}, {"uniqueid": "MTK0689:35K3O9HUACKU4YFWKNH4KR9D1NTEFJ", "current_trial": 247, "dateTime": 1512595729935, "trialdata": {"rt": -1, "stimulus": "<p id=\"stim\">5</p>", "key_press": -1, "trial_type": "single-stim", "trial_index": 247, "time_elapsed": 1141003, "internal_node_id": "0.0-179.0-5.0"}}, {"uniqueid": "MTK0689:35K3O9HUACKU4YFWKNH4KR9D1NTEFJ", "current_trial": 248, "dateTime": 1512595730937, "trialdata": {"rt": -1, "stimulus": "<p id=\"stim\">4</p>", "key_press": -1, "trial_type": "single-stim", "trial_index": 248, "time_elapsed": 1142006, "internal_node_id": "0.0-179.0-6.0"}}, {"uniqueid": "MTK0689:35K3O9HUACKU4YFWKNH4KR9D1NTEFJ", "current_trial": 249, "dateTime": 1512595731939, "trialdata": {"rt": -1, "stimulus": "<p id=\"stim\">3</p>", "key_press": -1, "trial_type": "single-stim", "trial_index": 249, "time_elapsed": 1143007, "internal_node_id": "0.0-179.0-7.0"}}, {"uniqueid": "MTK0689:35K3O9HUACKU4YFWKNH4KR9D1NTEFJ", "current_trial": 250, "dateTime": 1512595732956, "trialdata": {"rt": -1, "stimulus": "<p id=\"stim\">2</p>", "key_press": -1, "trial_type": "single-stim", "trial_index": 250, "time_elapsed": 1144024, "internal_node_id": "0.0-179.0-8.0"}}, {"uniqueid": "MTK0689:35K3O9HUACKU4YFWKNH4KR9D1NTEFJ", "current_trial": 251, "dateTime": 1512595733957, "trialdata": {"rt": -1, "stimulus": "<p id=\"stim\">1</p>", "key_press": -1, "trial_type": "single-stim", "trial_index": 251, "time_elapsed": 1145026, "internal_node_id": "0.0-179.0-9.0"}}, {"uniqueid": "MTK0689:35K3O9HUACKU4YFWKNH4KR9D1NTEFJ", "current_trial": 252, "dateTime": 1512595735460, "trialdata": {"rt": -1, "stimulus": "<p id=\"stim\">+</p>", "key_press": -1, "type": "FIXATION", "trial_type": "single-stim", "trial_index": 252, "time_elapsed": 1146528, "internal_node_id": "0.0-180.0-0.0"}}, {"uniqueid": "MTK0689:35K3O9HUACKU4YFWKNH4KR9D1NTEFJ", "current_trial": 253, "dateTime": 1512595738047, "trialdata": {"rt": -1000, "stimulus": "/static/audio/wordpool/ZEBRA.wav", "key_press": -1, "type": "PRES_AUD", "word": "zebra", "wordID": 1634, "conditions": [24, 1600, "a", 24000], "trial": 7, "serialpos": 0, "trial_type": "single-audio", "trial_index": 253, "time_elapsed": 1149116, "internal_node_id": "0.0-181.0"}}, {"uniqueid": "MTK0689:35K3O9HUACKU4YFWKNH4KR9D1NTEFJ", "current_trial": 254, "dateTime": 1512595740475, "trialdata": {"rt": -1000, "stimulus": "/static/audio/wordpool/BRIEFCASE.wav", "key_press": -1, "type": "PRES_AUD", "word": "briefcase", "wordID": 174, "conditions": [24, 1600, "a", 24000], "trial": 7, "serialpos": 1, "trial_type": "single-audio", "trial_index": 254, "time_elapsed": 1151544, "internal_node_id": "0.0-182.0"}}, {"uniqueid": "MTK0689:35K3O9HUACKU4YFWKNH4KR9D1NTEFJ", "current_trial": 255, "dateTime": 1512595742951, "trialdata": {"rt": -1000, "stimulus": "/static/audio/wordpool/OINTMENT.wav", "key_press": -1, "type": "PRES_AUD", "word": "ointment", "wordID": 973, "conditions": [24, 1600, "a", 24000], "trial": 7, "serialpos": 2, "trial_type": "single-audio", "trial_index": 255, "time_elapsed": 1154020, "internal_node_id": "0.0-183.0"}}, {"uniqueid": "MTK0689:35K3O9HUACKU4YFWKNH4KR9D1NTEFJ", "current_trial": 256, "dateTime": 1512595745452, "trialdata": {"rt": -1000, "stimulus": "/static/audio/wordpool/FOREST.wav", "key_press": -1, "type": "PRES_AUD", "word": "forest", "wordID": 592, "conditions": [24, 1600, "a", 24000], "trial": 7, "serialpos": 3, "trial_type": "single-audio", "trial_index": 256, "time_elapsed": 1156520, "internal_node_id": "0.0-184.0"}}, {"uniqueid": "MTK0689:35K3O9HUACKU4YFWKNH4KR9D1NTEFJ", "current_trial": 257, "dateTime": 1512595748078, "trialdata": {"rt": -1000, "stimulus": "/static/audio/wordpool/FINGER.wav", "key_press": -1, "type": "PRES_AUD", "word": "finger", "wordID": 566, "conditions": [24, 1600, "a", 24000], "trial": 7, "serialpos": 4, "trial_type": "single-audio", "trial_index": 257, "time_elapsed": 1159146, "internal_node_id": "0.0-185.0"}}, {"uniqueid": "MTK0689:35K3O9HUACKU4YFWKNH4KR9D1NTEFJ", "current_trial": 258, "dateTime": 1512595750486, "trialdata": {"rt": -1000, "stimulus": "/static/audio/wordpool/TOURIST.wav", "key_press": -1, "type": "PRES_AUD", "word": "tourist", "wordID": 1487, "conditions": [24, 1600, "a", 24000], "trial": 7, "serialpos": 5, "trial_type": "single-audio", "trial_index": 258, "time_elapsed": 1161555, "internal_node_id": "0.0-186.0"}}, {"uniqueid": "MTK0689:35K3O9HUACKU4YFWKNH4KR9D1NTEFJ", "current_trial": 259, "dateTime": 1512595753083, "trialdata": {"rt": -1000, "stimulus": "/static/audio/wordpool/PLAID.wav", "key_press": -1, "type": "PRES_AUD", "word": "plaid", "wordID": 1079, "conditions": [24, 1600, "a", 24000], "trial": 7, "serialpos": 6, "trial_type": "single-audio", "trial_index": 259, "time_elapsed": 1164152, "internal_node_id": "0.0-187.0"}}, {"uniqueid": "MTK0689:35K3O9HUACKU4YFWKNH4KR9D1NTEFJ", "current_trial": 260, "dateTime": 1512595755752, "trialdata": {"rt": -1000, "stimulus": "/static/audio/wordpool/BOYFRIEND.wav", "key_press": -1, "type": "PRES_AUD", "word": "boyfriend", "wordID": 161, "conditions": [24, 1600, "a", 24000], "trial": 7, "serialpos": 7, "trial_type": "single-audio", "trial_index": 260, "time_elapsed": 1166821, "internal_node_id": "0.0-188.0"}}, {"uniqueid": "MTK0689:35K3O9HUACKU4YFWKNH4KR9D1NTEFJ", "current_trial": 261, "dateTime": 1512595758336, "trialdata": {"rt": -1000, "stimulus": "/static/audio/wordpool/GIRL.wav", "key_press": -1, "type": "PRES_AUD", "word": "girl", "wordID": 636, "conditions": [24, 1600, "a", 24000], "trial": 7, "serialpos": 8, "trial_type": "single-audio", "trial_index": 261, "time_elapsed": 1169405, "internal_node_id": "0.0-189.0"}}, {"uniqueid": "MTK0689:35K3O9HUACKU4YFWKNH4KR9D1NTEFJ", "current_trial": 262, "dateTime": 1512595761070, "trialdata": {"rt": -1000, "stimulus": "/static/audio/wordpool/HEADBAND.wav", "key_press": -1, "type": "PRES_AUD", "word": "headband", "wordID": 695, "conditions": [24, 1600, "a", 24000], "trial": 7, "serialpos": 9, "trial_type": "single-audio", "trial_index": 262, "time_elapsed": 1172139, "internal_node_id": "0.0-190.0"}}, {"uniqueid": "MTK0689:35K3O9HUACKU4YFWKNH4KR9D1NTEFJ", "current_trial": 263, "dateTime": 1512595763744, "trialdata": {"rt": -1000, "stimulus": "/static/audio/wordpool/BUCKET.wav", "key_press": -1, "type": "PRES_AUD", "word": "bucket", "wordID": 183, "conditions": [24, 1600, "a", 24000], "trial": 7, "serialpos": 10, "trial_type": "single-audio", "trial_index": 263, "time_elapsed": 1174813, "internal_node_id": "0.0-191.0"}}, {"uniqueid": "MTK0689:35K3O9HUACKU4YFWKNH4KR9D1NTEFJ", "current_trial": 264, "dateTime": 1512595766508, "trialdata": {"rt": -1000, "stimulus": "/static/audio/wordpool/WRIST.wav", "key_press": -1, "type": "PRES_AUD", "word": "wrist", "wordID": 1625, "conditions": [24, 1600, "a", 24000], "trial": 7, "serialpos": 11, "trial_type": "single-audio", "trial_index": 264, "time_elapsed": 1177577, "internal_node_id": "0.0-192.0"}}, {"uniqueid": "MTK0689:35K3O9HUACKU4YFWKNH4KR9D1NTEFJ", "current_trial": 265, "dateTime": 1512595769103, "trialdata": {"rt": -1000, "stimulus": "/static/audio/wordpool/CLAM.wav", "key_press": -1, "type": "PRES_AUD", "word": "clam", "wordID": 314, "conditions": [24, 1600, "a", 24000], "trial": 7, "serialpos": 12, "trial_type": "single-audio", "trial_index": 265, "time_elapsed": 1180172, "internal_node_id": "0.0-193.0"}}, {"uniqueid": "MTK0689:35K3O9HUACKU4YFWKNH4KR9D1NTEFJ", "current_trial": 266, "dateTime": 1512595771623, "trialdata": {"rt": -1000, "stimulus": "/static/audio/wordpool/SWIMMER.wav", "key_press": -1, "type": "PRES_AUD", "word": "swimmer", "wordID": 1419, "conditions": [24, 1600, "a", 24000], "trial": 7, "serialpos": 13, "trial_type": "single-audio", "trial_index": 266, "time_elapsed": 1182692, "internal_node_id": "0.0-194.0"}}, {"uniqueid": "MTK0689:35K3O9HUACKU4YFWKNH4KR9D1NTEFJ", "current_trial": 267, "dateTime": 1512595774345, "trialdata": {"rt": -1000, "stimulus": "/static/audio/wordpool/ROCKET.wav", "key_press": -1, "type": "PRES_AUD", "word": "rocket", "wordID": 1201, "conditions": [24, 1600, "a", 24000], "trial": 7, "serialpos": 14, "trial_type": "single-audio", "trial_index": 267, "time_elapsed": 1185414, "internal_node_id": "0.0-195.0"}}, {"uniqueid": "MTK0689:35K3O9HUACKU4YFWKNH4KR9D1NTEFJ", "current_trial": 268, "dateTime": 1512595776879, "trialdata": {"rt": -1000, "stimulus": "/static/audio/wordpool/SCALLOP.wav", "key_press": -1, "type": "PRES_AUD", "word": "scallop", "wordID": 1241, "conditions": [24, 1600, "a", 24000], "trial": 7, "serialpos": 15, "trial_type": "single-audio", "trial_index": 268, "time_elapsed": 1187948, "internal_node_id": "0.0-196.0"}}, {"uniqueid": "MTK0689:35K3O9HUACKU4YFWKNH4KR9D1NTEFJ", "current_trial": 269, "dateTime": 1512595779611, "trialdata": {"rt": -1000, "stimulus": "/static/audio/wordpool/RAZOR.wav", "key_press": -1, "type": "PRES_AUD", "word": "razor", "wordID": 1170, "conditions": [24, 1600, "a", 24000], "trial": 7, "serialpos": 16, "trial_type": "single-audio", "trial_index": 269, "time_elapsed": 1190680, "internal_node_id": "0.0-197.0"}}, {"uniqueid": "MTK0689:35K3O9HUACK