{"condition": 0, "counterbalance": 689, "assignmentId": "3X08E93BHWPU8QT6DCV2EX4NO8766P", "workerId": "MTK0130", "hitId": "3FSEU3P2NR7ET8RG7MWWB3QV3XIRRV", "currenttrial": 625, "bonus": 0, "data": [{"uniqueid": "MTK0130:3X08E93BHWPU8QT6DCV2EX4NO8766P", "current_trial": 0, "dateTime": 1509289718879, "trialdata": {"rt": 2946, "key_press": 86, "type": "INSTRUCTIONS", "trial_type": "text", "trial_index": 0, "time_elapsed": 2951, "internal_node_id": "0.0-0.0"}}, {"uniqueid": "MTK0130:3X08E93BHWPU8QT6DCV2EX4NO8766P", "current_trial": 1, "dateTime": 1509289723764, "trialdata": {"rt": 4882, "key_press": 77, "type": "INSTRUCTIONS", "trial_type": "text", "trial_index": 1, "time_elapsed": 7836, "internal_node_id": "0.0-1.0"}}, {"uniqueid": "MTK0130:3X08E93BHWPU8QT6DCV2EX4NO8766P", "current_trial": 2, "dateTime": 1509289730877, "trialdata": {"rt": [7094], "responses": ["ocean"], "type": "AUDIO_TEST", "trial_type": "audio-test", "trial_index": 2, "time_elapsed": 14950, "internal_node_id": "0.0-2.0"}}, {"uniqueid": "MTK0130:3X08E93BHWPU8QT6DCV2EX4NO8766P", "current_trial": 3, "dateTime": 1509289735040, "trialdata": {"rt": [4158], "responses": ["crystal"], "type": "AUDIO_TEST", "trial_type": "audio-test", "trial_index": 3, "time_elapsed": 19113, "internal_node_id": "0.0-3.0"}}, {"uniqueid": "MTK0130:3X08E93BHWPU8QT6DCV2EX4NO8766P", "current_trial": 4, "dateTime": 1509289738915, "trialdata": {"rt": [3870], "responses": ["spice"], "type": "AUDIO_TEST", "trial_type": "audio-test", "trial_index": 4, "time_elapsed": 22988, "internal_node_id": "0.0-4.0"}}, {"uniqueid": "MTK0130:3X08E93BHWPU8QT6DCV2EX4NO8766P", "current_trial": 5, "dateTime": 1509289740614, "trialdata": {"rt": 947, "key_press": 74, "type": "INSTRUCTIONS", "trial_type": "text", "trial_index": 5, "time_elapsed": 24687, "internal_node_id": "0.0-5.0"}}, {"uniqueid": "MTK0130:3X08E93BHWPU8QT6DCV2EX4NO8766P", "current_trial": 6, "dateTime": 1509289746298, "trialdata": {"rt": 5683, "key_press": 13, "type": "INSTRUCTIONS", "trial_type": "text", "trial_index": 6, "time_elapsed": 30371, "internal_node_id": "0.0-6.0"}}, {"uniqueid": "MTK0130:3X08E93BHWPU8QT6DCV2EX4NO8766P", "current_trial": 7, "dateTime": 1509289749706, "trialdata": {"rt": 3408, "key_press": 13, "type": "INSTRUCTIONS", "trial_type": "text", "trial_index": 7, "time_elapsed": 33779, "internal_node_id": "0.0-7.0"}}, {"uniqueid": "MTK0130:3X08E93BHWPU8QT6DCV2EX4NO8766P", "current_trial": 8, "dateTime": 1509289751915, "trialdata": {"rt": 2207, "key_press": 83, "type": "INSTRUCTIONS", "trial_type": "text", "trial_index": 8, "time_elapsed": 35988, "internal_node_id": "0.0-8.0"}}, {"uniqueid": "MTK0130:3X08E93BHWPU8QT6DCV2EX4NO8766P", "current_trial": 9, "dateTime": 1509289770929, "trialdata": {"rt": [3096, 6553, 8399, 12899, 15502], "responses": ["8", "21", "18", "14", "21"], "num1": [1, 5, 8, 7, 9, 8], "num2": [4, 8, 2, 6, 3, 9], "num3": [3, 8, 8, 1, 9, 9], "type": "DISTRACTOR", "conditions": [18, 1200, "v", 18000], "trial": 0, "trial_type": "math-distractor", "trial_index": 9, "time_elapsed": 55002, "internal_node_id": "0.0-9.0"}}, {"uniqueid": "MTK0130:3X08E93BHWPU8QT6DCV2EX4NO8766P", "current_trial": 10, "dateTime": 1509289773936, "trialdata": {"rt": -1, "stimulus": "<p id=\"stim\">10</p>", "key_press": -1, "trial_type": "single-stim", "trial_index": 10, "time_elapsed": 58009, "internal_node_id": "0.0-10.0-0.0"}}, {"uniqueid": "MTK0130:3X08E93BHWPU8QT6DCV2EX4NO8766P", "current_trial": 11, "dateTime": 1509289774939, "trialdata": {"rt": -1, "stimulus": "<p id=\"stim\">9</p>", "key_press": -1, "trial_type": "single-stim", "trial_index": 11, "time_elapsed": 59012, "internal_node_id": "0.0-10.0-1.0"}}, {"uniqueid": "MTK0130:3X08E93BHWPU8QT6DCV2EX4NO8766P", "current_trial": 12, "dateTime": 1509289775941, "trialdata": {"rt": -1, "stimulus": "<p id=\"stim\">8</p>", "key_press": -1, "trial_type": "single-stim", "trial_index": 12, "time_elapsed": 60014, "internal_node_id": "0.0-10.0-2.0"}}, {"uniqueid": "MTK0130:3X08E93BHWPU8QT6DCV2EX4NO8766P", "current_trial": 13, "dateTime": 1509289776943, "trialdata": {"rt": -1, "stimulus": "<p id=\"stim\">7</p>", "key_press": -1, "trial_type": "single-stim", "trial_index": 13, "time_elapsed": 61016, "internal_node_id": "0.0-10.0-3.0"}}, {"uniqueid": "MTK0130:3X08E93BHWPU8QT6DCV2EX4NO8766P", "current_trial": 14, "dateTime": 1509289777945, "trialdata": {"rt": -1, "stimulus": "<p id=\"stim\">6</p>", "key_press": -1, "trial_type": "single-stim", "trial_index": 14, "time_elapsed": 62018, "internal_node_id": "0.0-10.0-4.0"}}, {"uniqueid": "MTK0130:3X08E93BHWPU8QT6DCV2EX4NO8766P", "current_trial": 15, "dateTime": 1509289778948, "trialdata": {"rt": -1, "stimulus": "<p id=\"stim\">5</p>", "key_press": -1, "trial_type": "single-stim", "trial_index": 15, "time_elapsed": 63021, "internal_node_id": "0.0-10.0-5.0"}}, {"uniqueid": "MTK0130:3X08E93BHWPU8QT6DCV2EX4NO8766P", "current_trial": 16, "dateTime": 1509289779951, "trialdata": {"rt": -1, "stimulus": "<p id=\"stim\">4</p>", "key_press": -1, "trial_type": "single-stim", "trial_index": 16, "time_elapsed": 64024, "internal_node_id": "0.0-10.0-6.0"}}, {"uniqueid": "MTK0130:3X08E93BHWPU8QT6DCV2EX4NO8766P", "current_trial": 17, "dateTime": 1509289780955, "trialdata": {"rt": -1, "stimulus": "<p id=\"stim\">3</p>", "key_press": -1, "trial_type": "single-stim", "trial_index": 17, "time_elapsed": 65028, "internal_node_id": "0.0-10.0-7.0"}}, {"uniqueid": "MTK0130:3X08E93BHWPU8QT6DCV2EX4NO8766P", "current_trial": 18, "dateTime": 1509289781957, "trialdata": {"rt": -1, "stimulus": "<p id=\"stim\">2</p>", "key_press": -1, "trial_type": "single-stim", "trial_index": 18, "time_elapsed": 66030, "internal_node_id": "0.0-10.0-8.0"}}, {"uniqueid": "MTK0130:3X08E93BHWPU8QT6DCV2EX4NO8766P", "current_trial": 19, "dateTime": 1509289782960, "trialdata": {"rt": -1, "stimulus": "<p id=\"stim\">1</p>", "key_press": -1, "trial_type": "single-stim", "trial_index": 19, "time_elapsed": 67033, "internal_node_id": "0.0-10.0-9.0"}}, {"uniqueid": "MTK0130:3X08E93BHWPU8QT6DCV2EX4NO8766P", "current_trial": 20, "dateTime": 1509289784463, "trialdata": {"rt": 187, "stimulus": "<p id=\"stim\">+</p>", "key_press": 16, "type": "FIXATION", "trial_type": "single-stim", "trial_index": 20, "time_elapsed": 68536, "internal_node_id": "0.0-11.0-0.0"}}, {"uniqueid": "MTK0130:3X08E93BHWPU8QT6DCV2EX4NO8766P", "current_trial": 21, "dateTime": 1509289785667, "trialdata": {"rt": -1, "stimulus": "<p id=\"stim\">FLEET</p>", "key_press": -1, "type": "PRES_VIS", "word": "fleet", "wordID": 577, "conditions": [18, 1200, "v", 18000], "trial": 0, "serialpos": 0, "trial_type": "single-stim", "trial_index": 21, "time_elapsed": 69739, "internal_node_id": "0.0-12.0"}}, {"uniqueid": "MTK0130:3X08E93BHWPU8QT6DCV2EX4NO8766P", "current_trial": 22, "dateTime": 1509289787956, "trialdata": {"rt": -1, "stimulus": "<p id=\"stim\">SEAGULL</p>", "key_press": -1, "type": "PRES_VIS", "word": "seagull", "wordID": 1260, "conditions": [18, 1200, "v", 18000], "trial": 0, "serialpos": 1, "trial_type": "single-stim", "trial_index": 22, "time_elapsed": 72029, "internal_node_id": "0.0-13.0"}}, {"uniqueid": "MTK0130:3X08E93BHWPU8QT6DCV2EX4NO8766P", "current_trial": 23, "dateTime": 1509289789971, "trialdata": {"rt": -1, "stimulus": "<p id=\"stim\">TRACTOR</p>", "key_press": -1, "type": "PRES_VIS", "word": "tractor", "wordID": 1492, "conditions": [18, 1200, "v", 18000], "trial": 0, "serialpos": 2, "trial_type": "single-stim", "trial_index": 23, "time_elapsed": 74044, "internal_node_id": "0.0-14.0"}}, {"uniqueid": "MTK0130:3X08E93BHWPU8QT6DCV2EX4NO8766P", "current_trial": 24, "dateTime": 1509289792107, "trialdata": {"rt": -1, "stimulus": "<p id=\"stim\">CURTAIN</p>", "key_press": -1, "type": "PRES_VIS", "word": "curtain", "wordID": 426, "conditions": [18, 1200, "v", 18000], "trial": 0, "serialpos": 3, "trial_type": "single-stim", "trial_index": 24, "time_elapsed": 76180, "internal_node_id": "0.0-15.0"}}, {"uniqueid": "MTK0130:3X08E93BHWPU8QT6DCV2EX4NO8766P", "current_trial": 25, "dateTime": 1509289794309, "trialdata": {"rt": -1, "stimulus": "<p id=\"stim\">LAVA</p>", "key_press": -1, "type": "PRES_VIS", "word": "lava", "wordID": 803, "conditions": [18, 1200, "v", 18000], "trial": 0, "serialpos": 4, "trial_type": "single-stim", "trial_index": 25, "time_elapsed": 78382, "internal_node_id": "0.0-16.0"}}, {"uniqueid": "MTK0130:3X08E93BHWPU8QT6DCV2EX4NO8766P", "current_trial": 26, "dateTime": 1509289796452, "trialdata": {"rt": -1, "stimulus": "<p id=\"stim\">TAXI</p>", "key_press": -1, "type": "PRES_VIS", "word": "taxi", "wordID": 1437, "conditions": [18, 1200, "v", 18000], "trial": 0, "serialpos": 5, "trial_type": "single-stim", "trial_index": 26, "time_elapsed": 80525, "internal_node_id": "0.0-17.0"}}, {"uniqueid": "MTK0130:3X08E93BHWPU8QT6DCV2EX4NO8766P", "current_trial": 27, "dateTime": 1509289798830, "trialdata": {"rt": -1, "stimulus": "<p id=\"stim\">EAGLE</p>", "key_press": -1, "type": "PRES_VIS", "word": "eagle", "wordID": 511, "conditions": [18, 1200, "v", 18000], "trial": 0, "serialpos": 6, "trial_type": "single-stim", "trial_index": 27, "time_elapsed": 82903, "internal_node_id": "0.0-18.0"}}, {"uniqueid": "MTK0130:3X08E93BHWPU8QT6DCV2EX4NO8766P", "current_trial": 28, "dateTime": 1509289801059, "trialdata": {"rt": -1, "stimulus": "<p id=\"stim\">BULLET</p>", "key_press": -1, "type": "PRES_VIS", "word": "bullet", "wordID": 193, "conditions": [18, 1200, "v", 18000], "trial": 0, "serialpos": 7, "trial_type": "single-stim", "trial_index": 28, "time_elapsed": 85132, "internal_node_id": "0.0-19.0"}}, {"uniqueid": "MTK0130:3X08E93BHWPU8QT6DCV2EX4NO8766P", "current_trial": 29, "dateTime": 1509289803367, "trialdata": {"rt": -1, "stimulus": "<p id=\"stim\">GLOBE</p>", "key_press": -1, "type": "PRES_VIS", "word": "globe", "wordID": 640, "conditions": [18, 1200, "v", 18000], "trial": 0, "serialpos": 8, "trial_type": "single-stim", "trial_index": 29, "time_elapsed": 87440, "internal_node_id": "0.0-20.0"}}, {"uniqueid": "MTK0130:3X08E93BHWPU8QT6DCV2EX4NO8766P", "current_trial": 30, "dateTime": 1509289805689, "trialdata": {"rt": -1, "stimulus": "<p id=\"stim\">PLATE</p>", "key_press": -1, "type": "PRES_VIS", "word": "plate", "wordID": 1085, "conditions": [18, 1200, "v", 18000], "trial": 0, "serialpos": 9, "trial_type": "single-stim", "trial_index": 30, "time_elapsed": 89762, "internal_node_id": "0.0-21.0"}}, {"uniqueid": "MTK0130:3X08E93BHWPU8QT6DCV2EX4NO8766P", "current_trial": 31, "dateTime": 1509289808047, "trialdata": {"rt": -1, "stimulus": "<p id=\"stim\">LIVER</p>", "key_press": -1, "type": "PRES_VIS", "word": "liver", "wordID": 832, "conditions": [18, 1200, "v", 18000], "trial": 0, "serialpos": 10, "trial_type": "single-stim", "trial_index": 31, "time_elapsed": 92119, "internal_node_id": "0.0-22.0"}}, {"uniqueid": "MTK0130:3X08E93BHWPU8QT6DCV2EX4NO8766P", "current_trial": 32, "dateTime": 1509289810277, "trialdata": {"rt": -1, "stimulus": "<p id=\"stim\">BRIEFCASE</p>", "key_press": -1, "type": "PRES_VIS", "word": "briefcase", "wordID": 174, "conditions": [18, 1200, "v", 18000], "trial": 0, "serialpos": 11, "trial_type": "single-stim", "trial_index": 32, "time_elapsed": 94350, "internal_node_id": "0.0-23.0"}}, {"uniqueid": "MTK0130:3X08E93BHWPU8QT6DCV2EX4NO8766P", "current_trial": 33, "dateTime": 1509289812509, "trialdata": {"rt": -1, "stimulus": "<p id=\"stim\">GUARD</p>", "key_press": -1, "type": "PRES_VIS", "word": "guard", "wordID": 666, "conditions": [18, 1200, "v", 18000], "trial": 0, "serialpos": 12, "trial_type": "single-stim", "trial_index": 33, "time_elapsed": 96582, "internal_node_id": "0.0-24.0"}}, {"uniqueid": "MTK0130:3X08E93BHWPU8QT6DCV2EX4NO8766P", "current_trial": 34, "dateTime": 1509289814772, "trialdata": {"rt": -1, "stimulus": "<p id=\"stim\">INMATE</p>", "key_press": -1, "type": "PRES_VIS", "word": "inmate", "wordID": 737, "conditions": [18, 1200, "v", 18000], "trial": 0, "serialpos": 13, "trial_type": "single-stim", "trial_index": 34, "time_elapsed": 98845, "internal_node_id": "0.0-25.0"}}, {"uniqueid": "MTK0130:3X08E93BHWPU8QT6DCV2EX4NO8766P", "current_trial": 35, "dateTime": 1509289816902, "trialdata": {"rt": -1, "stimulus": "<p id=\"stim\">FOREST</p>", "key_press": -1, "type": "PRES_VIS", "word": "forest", "wordID": 592, "conditions": [18, 1200, "v", 18000], "trial": 0, "serialpos": 14, "trial_type": "single-stim", "trial_index": 35, "time_elapsed": 100975, "internal_node_id": "0.0-26.0"}}, {"uniqueid": "MTK0130:3X08E93BHWPU8QT6DCV2EX4NO8766P", "current_trial": 36, "dateTime": 1509289819084, "trialdata": {"rt": -1, "stimulus": "<p id=\"stim\">DONKEY</p>", "key_press": -1, "type": "PRES_VIS", "word": "donkey", "wordID": 483, "conditions": [18, 1200, "v", 18000], "trial": 0, "serialpos": 15, "trial_type": "single-stim", "trial_index": 36, "time_elapsed": 103157, "internal_node_id": "0.0-27.0"}}, {"uniqueid": "MTK0130:3X08E93BHWPU8QT6DCV2EX4NO8766P", "current_trial": 37, "dateTime": 1509289821148, "trialdata": {"rt": -1, "stimulus": "<p id=\"stim\">LASER</p>", "key_press": -1, "type": "PRES_VIS", "word": "laser", "wordID": 800, "conditions": [18, 1200, "v", 18000], "trial": 0, "serialpos": 16, "trial_type": "single-stim", "trial_index": 37, "time_elapsed": 105221, "internal_node_id": "0.0-28.0"}}, {"uniqueid": "MTK0130:3X08E93BHWPU8QT6DCV2EX4NO8766P", "current_trial": 38, "dateTime": 1509289823491, "trialdata": {"rt": -1, "stimulus": "<p id=\"stim\">BANKER</p>", "key_press": -1, "type": "PRES_VIS", "word": "banker", "wordID": 83, "conditions": [18, 1200, "v", 18000], "trial": 0, "serialpos": 17, "trial_type": "single-stim", "trial_index": 38, "time_elapsed": 107564, "internal_node_id": "0.0-29.0"}}, {"uniqueid": "MTK0130:3X08E93BHWPU8QT6DCV2EX4NO8766P", "current_trial": 39, "dateTime": 1509289825705, "trialdata": {"rt": -1, "stimulus": "", "key_press": -1, "type": "PRE_RECALL_DELAY", "trial_type": "single-stim", "trial_index": 39, "time_elapsed": 109778, "internal_node_id": "0.0-30.0-0.0"}}, {"uniqueid": "MTK0130:3X08E93BHWPU8QT6DCV2EX4NO8766P", "current_trial": 40, "dateTime": 1509289826210, "trialdata": {"rt": -1000, "stimulus": "/static/audio/400Hz.wav", "key_press": -1, "type": "PRE_RECALL_ALERT", "trial_type": "single-audio", "trial_index": 40, "time_elapsed": 110283, "internal_node_id": "0.0-31.0"}}, {"uniqueid": "MTK0130:3X08E93BHWPU8QT6DCV2EX4NO8766P", "current_trial": 41, "dateTime": 1509289886220, "trialdata": {"rt": [1593, 3530, 4941, 6650, 10824, 12741, 13916, 14394, 15894, 20378, 49994, 50145, 52304, 55151], "recwords": ["laser", "banker", "fleet", "briefcase", "seagull", "forest", "inmate", "", "", "donkey", "", "", "", ""], "type": "FREE_RECALL", "conditions": [18, 1200, "v", 18000], "trial": 0, "trial_type": "free-recall", "trial_index": 41, "time_elapsed": 170287, "internal_node_id": "0.0-32.0-0.0"}}, {"uniqueid": "MTK0130:3X08E93BHWPU8QT6DCV2EX4NO8766P", "current_trial": 42, "dateTime": 1509289889174, "trialdata": {"rt": 938, "key_press": 70, "type": "INSTRUCTIONS", "trial_type": "text", "trial_index": 42, "time_elapsed": 173247, "internal_node_id": "0.0-33.0"}}, {"uniqueid": "MTK0130:3X08E93BHWPU8QT6DCV2EX4NO8766P", "current_trial": 43, "dateTime": 1509289909179, "trialdata": {"rt": [5848, 7399, 10704, 16000, 17692], "responses": ["23", "12", "16", "24", "19"], "num1": [8, 6, 6, 8, 6, 6], "num2": [6, 4, 4, 7, 4, 1], "num3": [9, 2, 6, 9, 9, 2], "type": "DISTRACTOR", "conditions": [18, 1200, "a", 18000], "trial": 1, "trial_type": "math-distractor", "trial_index": 43, "time_elapsed": 193251, "internal_node_id": "0.0-34.0"}}, {"uniqueid": "MTK0130:3X08E93BHWPU8QT6DCV2EX4NO8766P", "current_trial": 44, "dateTime": 1509289912183, "trialdata": {"rt": -1, "stimulus": "<p id=\"stim\">10</p>", "key_press": -1, "trial_type": "single-stim", "trial_index": 44, "time_elapsed": 196256, "internal_node_id": "0.0-35.0-0.0"}}, {"uniqueid": "MTK0130:3X08E93BHWPU8QT6DCV2EX4NO8766P", "current_trial": 45, "dateTime": 1509289913186, "trialdata": {"rt": -1, "stimulus": "<p id=\"stim\">9</p>", "key_press": -1, "trial_type": "single-stim", "trial_index": 45, "time_elapsed": 197259, "internal_node_id": "0.0-35.0-1.0"}}, {"uniqueid": "MTK0130:3X08E93BHWPU8QT6DCV2EX4NO8766P", "current_trial": 46, "dateTime": 1509289914188, "trialdata": {"rt": -1, "stimulus": "<p id=\"stim\">8</p>", "key_press": -1, "trial_type": "single-stim", "trial_index": 46, "time_elapsed": 198260, "internal_node_id": "0.0-35.0-2.0"}}, {"uniqueid": "MTK0130:3X08E93BHWPU8QT6DCV2EX4NO8766P", "current_trial": 47, "dateTime": 1509289915191, "trialdata": {"rt": -1, "stimulus": "<p id=\"stim\">7</p>", "key_press": -1, "trial_type": "single-stim", "trial_index": 47, "time_elapsed": 199264, "internal_node_id": "0.0-35.0-3.0"}}, {"uniqueid": "MTK0130:3X08E93BHWPU8QT6DCV2EX4NO8766P", "current_trial": 48, "dateTime": 1509289916193, "trialdata": {"rt": -1, "stimulus": "<p id=\"stim\">6</p>", "key_press": -1, "trial_type": "single-stim", "trial_index": 48, "time_elapsed": 200266, "internal_node_id": "0.0-35.0-4.0"}}, {"uniqueid": "MTK0130:3X08E93BHWPU8QT6DCV2EX4NO8766P", "current_trial": 49, "dateTime": 1509289917194, "trialdata": {"rt": -1, "stimulus": "<p id=\"stim\">5</p>", "key_press": -1, "trial_type": "single-stim", "trial_index": 49, "time_elapsed": 201267, "internal_node_id": "0.0-35.0-5.0"}}, {"uniqueid": "MTK0130:3X08E93BHWPU8QT6DCV2EX4NO8766P", "current_trial": 50, "dateTime": 1509289918196, "trialdata": {"rt": -1, "stimulus": "<p id=\"stim\">4</p>", "key_press": -1, "trial_type": "single-stim", "trial_index": 50, "time_elapsed": 202269, "internal_node_id": "0.0-35.0-6.0"}}, {"uniqueid": "MTK0130:3X08E93BHWPU8QT6DCV2EX4NO8766P", "current_trial": 51, "dateTime": 1509289919198, "trialdata": {"rt": -1, "stimulus": "<p id=\"stim\">3</p>", "key_press": -1, "trial_type": "single-stim", "trial_index": 51, "time_elapsed": 203271, "internal_node_id": "0.0-35.0-7.0"}}, {"uniqueid": "MTK0130:3X08E93BHWPU8QT6DCV2EX4NO8766P", "current_trial": 52, "dateTime": 1509289920202, "trialdata": {"rt": -1, "stimulus": "<p id=\"stim\">2</p>", "key_press": -1, "trial_type": "single-stim", "trial_index": 52, "time_elapsed": 204275, "internal_node_id": "0.0-35.0-8.0"}}, {"uniqueid": "MTK0130:3X08E93BHWPU8QT6DCV2EX4NO8766P", "current_trial": 53, "dateTime": 1509289921219, "trialdata": {"rt": -1, "stimulus": "<p id=\"stim\">1</p>", "key_press": -1, "trial_type": "single-stim", "trial_index": 53, "time_elapsed": 205292, "internal_node_id": "0.0-35.0-9.0"}}, {"uniqueid": "MTK0130:3X08E93BHWPU8QT6DCV2EX4NO8766P", "current_trial": 54, "dateTime": 1509289922721, "trialdata": {"rt": -1, "stimulus": "<p id=\"stim\">+</p>", "key_press": -1, "type": "FIXATION", "trial_type": "single-stim", "trial_index": 54, "time_elapsed": 206794, "internal_node_id": "0.0-36.0-0.0"}}, {"uniqueid": "MTK0130:3X08E93BHWPU8QT6DCV2EX4NO8766P", "current_trial": 55, "dateTime": 1509289925025, "trialdata": {"rt": -1000, "stimulus": "/static/audio/wordpool/PARTNER.wav", "key_press": -1, "type": "PRES_AUD", "word": "partner", "wordID": 1016, "conditions": [18, 1200, "a", 18000], "trial": 1, "serialpos": 0, "trial_type": "single-audio", "trial_index": 55, "time_elapsed": 209097, "internal_node_id": "0.0-37.0"}}, {"uniqueid": "MTK0130:3X08E93BHWPU8QT6DCV2EX4NO8766P", "current_trial": 56, "dateTime": 1509289927366, "trialdata": {"rt": -1000, "stimulus": "/static/audio/wordpool/HEADBAND.wav", "key_press": -1, "type": "PRES_AUD", "word": "headband", "wordID": 695, "conditions": [18, 1200, "a", 18000], "trial": 1, "serialpos": 1, "trial_type": "single-audio", "trial_index": 56, "time_elapsed": 211439, "internal_node_id": "0.0-38.0"}}, {"uniqueid": "MTK0130:3X08E93BHWPU8QT6DCV2EX4NO8766P", "current_trial": 57, "dateTime": 1509289929716, "trialdata": {"rt": -1000, "stimulus": "/static/audio/wordpool/BLACKBOARD.wav", "key_press": -1, "type": "PRES_AUD", "word": "blackboard", "wordID": 132, "conditions": [18, 1200, "a", 18000], "trial": 1, "serialpos": 2, "trial_type": "single-audio", "trial_index": 57, "time_elapsed": 213789, "internal_node_id": "0.0-39.0"}}, {"uniqueid": "MTK0130:3X08E93BHWPU8QT6DCV2EX4NO8766P", "current_trial": 58, "dateTime": 1509289931804, "trialdata": {"rt": -1000, "stimulus": "/static/audio/wordpool/BACKBONE.wav", "key_press": -1, "type": "PRES_AUD", "word": "backbone", "wordID": 65, "conditions": [18, 1200, "a", 18000], "trial": 1, "serialpos": 3, "trial_type": "single-audio", "trial_index": 58, "time_elapsed": 215877, "internal_node_id": "0.0-40.0"}}, {"uniqueid": "MTK0130:3X08E93BHWPU8QT6DCV2EX4NO8766P", "current_trial": 59, "dateTime": 1509289934084, "trialdata": {"rt": -1000, "stimulus": "/static/audio/wordpool/DRUG.wav", "key_press": -1, "type": "PRES_AUD", "word": "drug", "wordID": 500, "conditions": [18, 1200, "a", 18000], "trial": 1, "serialpos": 4, "trial_type": "single-audio", "trial_index": 59, "time_elapsed": 218157, "internal_node_id": "0.0-41.0"}}, {"uniqueid": "MTK0130:3X08E93BHWPU8QT6DCV2EX4NO8766P", "current_trial": 60, "dateTime": 1509289936254, "trialdata": {"rt": -1000, "stimulus": "/static/audio/wordpool/NOVEL.wav", "key_press": -1, "type": "PRES_AUD", "word": "novel", "wordID": 959, "conditions": [18, 1200, "a", 18000], "trial": 1, "serialpos": 5, "trial_type": "single-audio", "trial_index": 60, "time_elapsed": 220327, "internal_node_id": "0.0-42.0"}}, {"uniqueid": "MTK0130:3X08E93BHWPU8QT6DCV2EX4NO8766P", "current_trial": 61, "dateTime": 1509289938548, "trialdata": {"rt": -1000, "stimulus": "/static/audio/wordpool/WRIST.wav", "key_press": -1, "type": "PRES_AUD", "word": "wrist", "wordID": 1625, "conditions": [18, 1200, "a", 18000], "trial": 1, "serialpos": 6, "trial_type": "single-audio", "trial_index": 61, "time_elapsed": 222621, "internal_node_id": "0.0-43.0"}}, {"uniqueid": "MTK0130:3X08E93BHWPU8QT6DCV2EX4NO8766P", "current_trial": 62, "dateTime": 1509289940588, "trialdata": {"rt": -1000, "stimulus": "/static/audio/wordpool/SPHINX.wav", "key_press": -1, "type": "PRES_AUD", "word": "sphinx", "wordID": 1348, "conditions": [18, 1200, "a", 18000], "trial": 1, "serialpos": 7, "trial_type": "single-audio", "trial_index": 62, "time_elapsed": 224660, "internal_node_id": "0.0-44.0"}}, {"uniqueid": "MTK0130:3X08E93BHWPU8QT6DCV2EX4NO8766P", "current_trial": 63, "dateTime": 1509289942669, "trialdata": {"rt": -1000, "stimulus": "/static/audio/wordpool/GHETTO.wav", "key_press": -1, "type": "PRES_AUD", "word": "ghetto", "wordID": 632, "conditions": [18, 1200, "a", 18000], "trial": 1, "serialpos": 8, "trial_type": "single-audio", "trial_index": 63, "time_elapsed": 226742, "internal_node_id": "0.0-45.0"}}, {"uniqueid": "MTK0130:3X08E93BHWPU8QT6DCV2EX4NO8766P", "current_trial": 64, "dateTime": 1509289944866, "trialdata": {"rt": -1000, "stimulus": "/static/audio/wordpool/WAITRESS.wav", "key_press": -1, "type": "PRES_AUD", "word": "waitress", "wordID": 1580, "conditions": [18, 1200, "a", 18000], "trial": 1, "serialpos": 9, "trial_type": "single-audio", "trial_index": 64, "time_elapsed": 228937, "internal_node_id": "0.0-46.0"}}, {"uniqueid": "MTK0130:3X08E93BHWPU8QT6DCV2EX4NO8766P", "current_trial": 65, "dateTime": 1509289946991, "trialdata": {"rt": -1000, "stimulus": "/static/audio/wordpool/DENTIST.wav", "key_press": -1, "type": "PRES_AUD", "word": "dentist", "wordID": 446, "conditions": [18, 1200, "a", 18000], "trial": 1, "serialpos": 10, "trial_type": "single-audio", "trial_index": 65, "time_elapsed": 231064, "internal_node_id": "0.0-47.0"}}, {"uniqueid": "MTK0130:3X08E93BHWPU8QT6DCV2EX4NO8766P", "current_trial": 66, "dateTime": 1509289949006, "trialdata": {"rt": -1000, "stimulus": "/static/audio/wordpool/BLOCKADE.wav", "key_press": -1, "type": "PRES_AUD", "word": "blockade", "wordID": 136, "conditions": [18, 1200, "a", 18000], "trial": 1, "serialpos": 11, "trial_type": "single-audio", "trial_index": 66, "time_elapsed": 233078, "internal_node_id": "0.0-48.0"}}, {"uniqueid": "MTK0130:3X08E93BHWPU8QT6DCV2EX4NO8766P", "current_trial": 67, "dateTime": 1509289951150, "trialdata": {"rt": -1000, "stimulus": "/static/audio/wordpool/DRAGON.wav", "key_press": -1, "type": "PRES_AUD", "word": "dragon", "wordID": 491, "conditions": [18, 1200, "a", 18000], "trial": 1, "serialpos": 12, "trial_type": "single-audio", "trial_index": 67, "time_elapsed": 235223, "internal_node_id": "0.0-49.0"}}, {"uniqueid": "MTK0130:3X08E93BHWPU8QT6DCV2EX4NO8766P", "current_trial": 68, "dateTime": 1509289953427, "trialdata": {"rt": -1000, "stimulus": "/static/audio/wordpool/PACKAGE.wav", "key_press": -1, "type": "PRES_AUD", "word": "package", "wordID": 996, "conditions": [18, 1200, "a", 18000], "trial": 1, "serialpos": 13, "trial_type": "single-audio", "trial_index": 68, "time_elapsed": 237498, "internal_node_id": "0.0-50.0"}}, {"uniqueid": "MTK0130:3X08E93BHWPU8QT6DCV2EX4NO8766P", "current_trial": 69, "dateTime": 1509289955638, "trialdata": {"rt": -1000, "stimulus": "/static/audio/wordpool/GIFT.wav", "key_press": -1, "type": "PRES_AUD", "word": "gift", "wordID": 634, "conditions": [18, 1200, "a", 18000], "trial": 1, "serialpos": 14, "trial_type": "single-audio", "trial_index": 69, "time_elapsed": 239711, "internal_node_id": "0.0-51.0"}}, {"uniqueid": "MTK0130:3X08E93BHWPU8QT6DCV2EX4NO8766P", "current_trial": 70, "dateTime": 1509289957709, "trialdata": {"rt": -1000, "stimulus": "/static/audio/wordpool/IGLOO.wav", "key_press": -1, "type": "PRES_AUD", "word": "igloo", "wordID": 733, "conditions": [18, 1200, "a", 18000], "trial": 1, "serialpos": 15, "trial_type": "single-audio", "trial_index": 70, "time_elapsed": 241782, "internal_node_id": "0.0-52.0"}}, {"uniqueid": "MTK0130:3X08E93BHWPU8QT6DCV2EX4NO8766P", "current_trial": 71, "dateTime": 1509289959736, "trialdata": {"rt": -1000, "stimulus": "/static/audio/wordpool/BOUQUET.wav", "key_press": -1, "type": "PRES_AUD", "word": "bouquet", "wordID": 156, "conditions": [18, 1200, "a", 18000], "trial": 1, "serialpos": 16, "trial_type": "single-audio", "trial_index": 71, "time_elapsed": 243809, "internal_node_id": "0.0-53.0"}}, {"uniqueid": "MTK0130:3X08E93BHWPU8QT6DCV2EX4NO8766P", "current_trial": 72, "dateTime": 1509289962006, "trialdata": {"rt": -1000, "stimulus": "/static/audio/wordpool/CHAPEL.wav", "key_press": -1, "type": "PRES_AUD", "word": "chapel", "wordID": 279, "conditions": [18, 1200, "a", 18000], "trial": 1, "serialpos": 17, "trial_type": "single-audio", "trial_index": 72, "time_elapsed": 246079, "internal_node_id": "0.0-54.0"}}, {"uniqueid": "MTK0130:3X08E93BHWPU8QT6DCV2EX4NO8766P", "current_trial": 73, "dateTime": 1509289963329, "trialdata": {"rt": -1, "stimulus": "", "key_press": -1, "type": "PRE_RECALL_DELAY", "trial_type": "single-stim", "trial_index": 73, "time_elapsed": 247402, "internal_node_id": "0.0-55.0-0.0"}}, {"uniqueid": "MTK0130:3X08E93BHWPU8QT6DCV2EX4NO8766P", "current_trial": 74, "dateTime": 1509289963831, "trialdata": {"rt": -1000, "stimulus": "/static/audio/400Hz.wav", "key_press": -1, "type": "PRE_RECALL_ALERT", "trial_type": "single-audio", "trial_index": 74, "time_elapsed": 247904, "internal_node_id": "0.0-56.0"}}, {"uniqueid": "MTK0130:3X08E93BHWPU8QT6DCV2EX4NO8766P", "current_trial": 75, "dateTime": 1509290023840, "trialdata": {"rt": [1410, 2372, 3828, 4783, 5591, 9002, 11177, 12224, 13660, 19700, 35203], "recwords": ["igloo", "chapel", "blackboard", "ghetto", "drug", "bouquet", "dentist", "waitress", "partner", "headband", "package"], "type": "FREE_RECALL", "conditions": [18, 1200, "a", 18000], "trial": 1, "trial_type": "free-recall", "trial_index": 75, "time_elapsed": 307906, "internal_node_id": "0.0-57.0-0.0"}}, {"uniqueid": "MTK0130:3X08E93BHWPU8QT6DCV2EX4NO8766P", "current_trial": 76, "dateTime": 1509290113064, "trialdata": {"rt": 87222, "key_press": 76, "type": "INSTRUCTIONS", "trial_type": "text", "trial_index": 76, "time_elapsed": 397137, "internal_node_id": "0.0-58.0"}}, {"uniqueid": "MTK0130:3X08E93BHWPU8QT6DCV2EX4NO8766P", "current_trial": 77, "dateTime": 1509290126068, "trialdata": {"rt": [3333, 5830, 7799, 9861, 11954], "responses": ["16", "15", "13", "13", "7"], "num1": [3, 8, 6, 3, 2, 9], "num2": [8, 3, 3, 8, 3, 6], "num3": [5, 4, 4, 2, 2, 7], "type": "DISTRACTOR", "conditions": [24, 1600, "a", 12000], "trial": 2, "trial_type": "math-distractor", "trial_index": 77, "time_elapsed": 410141, "internal_node_id": "0.0-59.0"}}, {"uniqueid": "MTK0130:3X08E93BHWPU8QT6DCV2EX4NO8766P", "current_trial": 78, "dateTime": 1509290129074, "trialdata": {"rt": -1, "stimulus": "<p id=\"stim\">10</p>", "key_press": -1, "trial_type": "single-stim", "trial_index": 78, "time_elapsed": 413147, "internal_node_id": "0.0-60.0-0.0"}}, {"uniqueid": "MTK0130:3X08E93BHWPU8QT6DCV2EX4NO8766P", "current_trial": 79, "dateTime": 1509290130076, "trialdata": {"rt": -1, "stimulus": "<p id=\"stim\">9</p>", "key_press": -1, "trial_type": "single-stim", "trial_index": 79, "time_elapsed": 414149, "internal_node_id": "0.0-60.0-1.0"}}, {"uniqueid": "MTK0130:3X08E93BHWPU8QT6DCV2EX4NO8766P", "current_trial": 80, "dateTime": 1509290131080, "trialdata": {"rt": -1, "stimulus": "<p id=\"stim\">8</p>", "key_press": -1, "trial_type": "single-stim", "trial_index": 80, "time_elapsed": 415153, "internal_node_id": "0.0-60.0-2.0"}}, {"uniqueid": "MTK0130:3X08E93BHWPU8QT6DCV2EX4NO8766P", "current_trial": 81, "dateTime": 1509290132081, "trialdata": {"rt": -1, "stimulus": "<p id=\"stim\">7</p>", "key_press": -1, "trial_type": "single-stim", "trial_index": 81, "time_elapsed": 416154, "internal_node_id": "0.0-60.0-3.0"}}, {"uniqueid": "MTK0130:3X08E93BHWPU8QT6DCV2EX4NO8766P", "current_trial": 82, "dateTime": 1509290133083, "trialdata": {"rt": -1, "stimulus": "<p id=\"stim\">6</p>", "key_press": -1, "trial_type": "single-stim", "trial_index": 82, "time_elapsed": 417156, "internal_node_id": "0.0-60.0-4.0"}}, {"uniqueid": "MTK0130:3X08E93BHWPU8QT6DCV2EX4NO8766P", "current_trial": 83, "dateTime": 1509290134087, "trialdata": {"rt": -1, "stimulus": "<p id=\"stim\">5</p>", "key_press": -1, "trial_type": "single-stim", "trial_index": 83, "time_elapsed": 418160, "internal_node_id": "0.0-60.0-5.0"}}, {"uniqueid": "MTK0130:3X08E93BHWPU8QT6DCV2EX4NO8766P", "current_trial": 84, "dateTime": 1509290135091, "trialdata": {"rt": -1, "stimulus": "<p id=\"stim\">4</p>", "key_press": -1, "trial_type": "single-stim", "trial_index": 84, "time_elapsed": 419164, "internal_node_id": "0.0-60.0-6.0"}}, {"uniqueid": "MTK0130:3X08E93BHWPU8QT6DCV2EX4NO8766P", "current_trial": 85, "dateTime": 1509290136092, "trialdata": {"rt": -1, "stimulus": "<p id=\"stim\">3</p>", "key_press": -1, "trial_type": "single-stim", "trial_index": 85, "time_elapsed": 420165, "internal_node_id": "0.0-60.0-7.0"}}, {"uniqueid": "MTK0130:3X08E93BHWPU8QT6DCV2EX4NO8766P", "current_trial": 86, "dateTime": 1509290137094, "trialdata": {"rt": -1, "stimulus": "<p id=\"stim\">2</p>", "key_press": -1, "trial_type": "single-stim", "trial_index": 86, "time_elapsed": 421167, "internal_node_id": "0.0-60.0-8.0"}}, {"uniqueid": "MTK0130:3X08E93BHWPU8QT6DCV2EX4NO8766P", "current_trial": 87, "dateTime": 1509290138096, "trialdata": {"rt": -1, "stimulus": "<p id=\"stim\">1</p>", "key_press": -1, "trial_type": "single-stim", "trial_index": 87, "time_elapsed": 422169, "internal_node_id": "0.0-60.0-9.0"}}, {"uniqueid": "MTK0130:3X08E93BHWPU8QT6DCV2EX4NO8766P", "current_trial": 88, "dateTime": 1509290139598, "trialdata": {"rt": -1, "stimulus": "<p id=\"stim\">+</p>", "key_press": -1, "type": "FIXATION", "trial_type": "single-stim", "trial_index": 88, "time_elapsed": 423671, "internal_node_id": "0.0-61.0-0.0"}}, {"uniqueid": "MTK0130:3X08E93BHWPU8QT6DCV2EX4NO8766P", "current_trial": 89, "dateTime": 1509290142218, "trialdata": {"rt": -1000, "stimulus": "/static/audio/wordpool/DINER.wav", "key_press": -1, "type": "PRES_AUD", "word": "diner", "wordID": 466, "conditions": [24, 1600, "a", 12000], "trial": 2, "serialpos": 0, "trial_type": "single-audio", "trial_index": 89, "time_elapsed": 426291, "internal_node_id": "0.0-62.0"}}, {"uniqueid": "MTK0130:3X08E93BHWPU8QT6DCV2EX4NO8766P", "current_trial": 90, "dateTime": 1509290144717, "trialdata": {"rt": -1000, "stimulus": "/static/audio/wordpool/RACKET.wav", "key_press": -1, "type": "PRES_AUD", "word": "racket", "wordID": 1154, "conditions": [24, 1600, "a", 12000], "trial": 2, "serialpos": 1, "trial_type": "single-audio", "trial_index": 90, "time_elapsed": 428790, "internal_node_id": "0.0-63.0"}}, {"uniqueid": "MTK0130:3X08E93BHWPU8QT6DCV2EX4NO8766P", "current_trial": 91, "dateTime": 1509290147185, "trialdata": {"rt": -1000, "stimulus": "/static/audio/wordpool/CUSTARD.wav", "key_press": -1, "type": "PRES_AUD", "word": "custard", "wordID": 428, "conditions": [24, 1600, "a", 12000], "trial": 2, "serialpos": 2, "trial_type": "single-audio", "trial_index": 91, "time_elapsed": 431257, "internal_node_id": "0.0-64.0"}}, {"uniqueid": "MTK0130:3X08E93BHWPU8QT6DCV2EX4NO8766P", "current_trial": 92, "dateTime": 1509290149768, "trialdata": {"rt": -1000, "stimulus": "/static/audio/wordpool/PUDDING.wav", "key_press": -1, "type": "PRES_AUD", "word": "pudding", "wordID": 1138, "conditions": [24, 1600, "a", 12000], "trial": 2, "serialpos": 3, "trial_type": "single-audio", "trial_index": 92, "time_elapsed": 433841, "internal_node_id": "0.0-65.0"}}, {"uniqueid": "MTK0130:3X08E93BHWPU8QT6DCV2EX4NO8766P", "current_trial": 93, "dateTime": 1509290152511, "trialdata": {"rt": -1000, "stimulus": "/static/audio/wordpool/AIRPLANE.wav", "key_press": -1, "type": "PRES_AUD", "word": "airplane", "wordID": 11, "conditions": [24, 1600, "a", 12000], "trial": 2, "serialpos": 4, "trial_type": "single-audio", "trial_index": 93, "time_elapsed": 436583, "internal_node_id": "0.0-66.0"}}, {"uniqueid": "MTK0130:3X08E93BHWPU8QT6DCV2EX4NO8766P", "current_trial": 94, "dateTime": 1509290154971, "trialdata": {"rt": -1000, "stimulus": "/static/audio/wordpool/COIN.wav", "key_press": -1, "type": "PRES_AUD", "word": "coin", "wordID": 342, "conditions": [24, 1600, "a", 12000], "trial": 2, "serialpos": 5, "trial_type": "single-audio", "trial_index": 94, "time_elapsed": 439043, "internal_node_id": "0.0-67.0"}}, {"uniqueid": "MTK0130:3X08E93BHWPU8QT6DCV2EX4NO8766P", "current_trial": 95, "dateTime": 1509290157437, "trialdata": {"rt": -1000, "stimulus": "/static/audio/wordpool/PLIERS.wav", "key_press": -1, "type": "PRES_AUD", "word": "pliers", "wordID": 1088, "conditions": [24, 1600, "a", 12000], "trial": 2, "serialpos": 6, "trial_type": "single-audio", "trial_index": 95, "time_elapsed": 441509, "internal_node_id": "0.0-68.0"}}, {"uniqueid": "MTK0130:3X08E93BHWPU8QT6DCV2EX4NO8766P", "current_trial": 96, "dateTime": 1509290160174, "trialdata": {"rt": -1000, "stimulus": "/static/audio/wordpool/PIZZA.wav", "key_press": -1, "type": "PRES_AUD", "word": "pizza", "wordID": 1078, "conditions": [24, 1600, "a", 12000], "trial": 2, "serialpos": 7, "trial_type": "single-audio", "trial_index": 96, "time_elapsed": 444247, "internal_node_id": "0.0-69.0"}}, {"uniqueid": "MTK0130:3X08E93BHWPU8QT6DCV2EX4NO8766P", "current_trial": 97, "dateTime": 1509290162609, "trialdata": {"rt": -1000, "stimulus": "/static/audio/wordpool/TOASTER.wav", "key_press": -1, "type": "PRES_AUD", "word": "toaster", "wordID": 1471, "conditions": [24, 1600, "a", 12000], "trial": 2, "serialpos": 8, "trial_type": "single-audio", "trial_index": 97, "time_elapsed": 446681, "internal_node_id": "0.0-70.0"}}, {"uniqueid": "MTK0130:3X08E93BHWPU8QT6DCV2EX4NO8766P", "current_trial": 98, "dateTime": 1509290165397, "trialdata": {"rt": -1000, "stimulus": "/static/audio/wordpool/LIGHTNING.wav", "key_press": -1, "type": "PRES_AUD", "word": "lightning", "wordID": 819, "conditions": [24, 1600, "a", 12000], "trial": 2, "serialpos": 9, "trial_type": "single-audio", "trial_index": 98, "time_elapsed": 449469, "internal_node_id": "0.0-71.0"}}, {"uniqueid": "MTK0130:3X08E93BHWPU8QT6DCV2EX4NO8766P", "current_trial": 99, "dateTime": 1509290168016, "trialdata": {"rt": -1000, "stimulus": "/static/audio/wordpool/MARKET.wav", "key_press": -1, "type": "PRES_AUD", "word": "market", "wordID": 870, "conditions": [24, 1600, "a", 12000], "trial": 2, "serialpos": 10, "trial_type": "single-audio", "trial_index": 99, "time_elapsed": 452088, "internal_node_id": "0.0-72.0"}}, {"uniqueid": "MTK0130:3X08E93BHWPU8QT6DCV2EX4NO8766P", "current_trial": 100, "dateTime": 1509290170768, "trialdata": {"rt": -1000, "stimulus": "/static/audio/wordpool/TURTLE.wav", "key_press": -1, "type": "PRES_AUD", "word": "turtle", "wordID": 1521, "conditions": [24, 1600, "a", 12000], "trial": 2, "serialpos": 11, "trial_type": "single-audio", "trial_index": 100, "time_elapsed": 454840, "internal_node_id": "0.0-73.0"}}, {"uniqueid": "MTK0130:3X08E93BHWPU8QT6DCV2EX4NO8766P", "current_trial": 101, "dateTime": 1509290173294, "trialdata": {"rt": -1000, "stimulus": "/static/audio/wordpool/REBEL.wav", "key_press": -1, "type": "PRES_AUD", "word": "rebel", "wordID": 1171, "conditions": [24, 1600, "a", 12000], "trial": 2, "serialpos": 12, "trial_type": "single-audio", "trial_index": 101, "time_elapsed": 457366, "internal_node_id": "0.0-74.0"}}, {"uniqueid": "MTK0130:3X08E93BHWPU8QT6DCV2EX4NO8766P", "current_trial": 102, "dateTime": 1509290176046, "trialdata": {"rt": -1000, "stimulus": "/static/audio/wordpool/PENGUIN.wav", "key_press": -1, "type": "PRES_AUD", "word": "penguin", "wordID": 1043, "conditions": [24, 1600, "a", 12000], "trial": 2, "serialpos": 13, "trial_type": "single-audio", "trial_index": 102, "time_elapsed": 460119, "internal_node_id": "0.0-75.0"}}, {"uniqueid": "MTK0130:3X08E93BHWPU8QT6DCV2EX4NO8766P", "current_trial": 103, "dateTime": 1509290178477, "trialdata": {"rt": -1000, "stimulus": "/static/audio/wordpool/CANAL.wav", "key_press": -1, "type": "PRES_AUD", "word": "canal", "wordID": 225, "conditions": [24, 1600, "a", 12000], "trial": 2, "serialpos": 14, "trial_type": "single-audio", "trial_index": 103, "time_elapsed": 462545, "internal_node_id": "0.0-76.0"}}, {"uniqueid": "MTK0130:3X08E93BHWPU8QT6DCV2EX4NO8766P", "current_trial": 104, "dateTime": 1509290181266, "trialdata": {"rt": -1000, "stimulus": "/static/audio/wordpool/RIVER.wav", "key_press": -1, "type": "PRES_AUD", "word": "river", "wordID": 1193, "conditions": [24, 1600, "a", 12000], "trial": 2, "serialpos": 15, "trial_type": "single-audio", "trial_index": 104, "time_elapsed": 465339, "internal_node_id": "0.0-77.0"}}, {"uniqueid": "MTK0130:3X08E93BHWPU8QT6DCV2EX4NO8766P", "current_trial": 105, "dateTime": 1509290183732, "trialdata": {"rt": -1000, "stimulus": "/static/audio/wordpool/BUNNY.wav", "key_press": -1, "type": "PRES_AUD", "word": "bunny", "wordID": 197, "conditions": [24, 1600, "a", 12000], "trial": 2, "serialpos": 16, "trial_type": "single-audio", "trial_index": 105, "time_elapsed": 467805, "internal_node_id": "0.0-78.0"}}, {"uniqueid": "MTK0130:3X08E93BHWPU8QT6DCV2EX4NO8766P", "current_trial": 106, "dateTime": 1509290186509, "trialdata": {"rt": -1000, "stimulus": "/static/audio/wordpool/LION.wav", "key_press": -1, "type": "PRES_AUD", "word": "lion", "wordID": 826, "conditions": [24, 1600, "a", 12000], "trial": 2, "serialpos": 17, "trial_type": "single-audio", "trial_index": 106, "time_elapsed": 470582, "internal_node_id": "0.0-79.0"}}, {"uniqueid": "MTK0130:3X08E93BHWPU8QT6DCV2EX4NO8766P", "current_trial": 107, "dateTime": 1509290188925, "trialdata": {"rt": -1000, "stimulus": "/static/audio/wordpool/PIGEON.wav", "key_press": -1, "type": "PRES_AUD", "word": "pigeon", "wordID": 1064, "conditions": [24, 1600, "a", 12000], "trial": 2, "serialpos": 18, "trial_type": "single-audio", "trial_index": 107, "time_elapsed": 472998, "internal_node_id": "0.0-80.0"}}, {"uniqueid": "MTK0130:3X08E93BHWPU8QT6DCV2EX4NO8766P", "current_trial": 108, "dateTime": 1509290191663, "trialdata": {"rt": -1000, "stimulus": "/static/audio/wordpool/OMELET.wav", "key_press": -1, "type": "PRES_AUD", "word": "omelet", "wordID": 975, "conditions": [24, 1600, "a", 12000], "trial": 2, "serialpos": 19, "trial_type": "single-audio", "trial_index": 108, "time_elapsed": 475736, "internal_node_id": "0.0-81.0"}}, {"uniqueid": "MTK0130:3X08E93BHWPU8QT6DCV2EX4NO8766P", "current_trial": 109, "dateTime": 1509290194183, "trialdata": {"rt": -1000, "stimulus": "/static/audio/wordpool/MASK.wav", "key_press": -1, "type": "PRES_AUD", "word": "mask", "wordID": 875, "conditions": [24, 1600, "a", 12000], "trial": 2, "serialpos": 20, "trial_type": "single-audio", "trial_index": 109, "time_elapsed": 478256, "internal_node_id": "0.0-82.0"}}, {"uniqueid": "MTK0130:3X08E93BHWPU8QT6DCV2EX4NO8766P", "current_trial": 110, "dateTime": 1509290196605, "trialdata": {"rt": -1000, "stimulus": "/static/audio/wordpool/PORK.wav", "key_press": -1, "type": "PRES_AUD", "word": "pork", "wordID": 1107, "conditions": [24, 1600, "a", 12000], "trial": 2, "serialpos": 21, "trial_type": "single-audio", "trial_index": 110, "time_elapsed": 480678, "internal_node_id": "0.0-83.0"}}, {"uniqueid": "MTK0130:3X08E93BHWPU8QT6DCV2EX4NO8766P", "current_trial": 111, "dateTime": 1509290199024, "trialdata": {"rt": -1000, "stimulus": "/static/audio/wordpool/POET.wav", "key_press": -1, "type": "PRES_AUD", "word": "poet", "wordID": 1094, "conditions": [24, 1600, "a", 12000], "trial": 2, "serialpos": 22, "trial_type": "single-audio", "trial_index": 111, "time_elapsed": 483097, "internal_node_id": "0.0-84.0"}}, {"uniqueid": "MTK0130:3X08E93BHWPU8QT6DCV2EX4NO8766P", "current_trial": 112, "dateTime": 1509290201748, "trialdata": {"rt": -1000, "stimulus": "/static/audio/wordpool/TYPIST.wav", "key_press": -1, "type": "PRES_AUD", "word": "typist", "wordID": 1531, "conditions": [24, 1600, "a", 12000], "trial": 2, "serialpos": 23, "trial_type": "single-audio", "trial_index": 112, "time_elapsed": 485821, "internal_node_id": "0.0-85.0"}}, {"uniqueid": "MTK0130:3X08E93BHWPU8QT6DCV2EX4NO8766P", "current_trial": 113, "dateTime": 1509290203145, "trialdata": {"rt": -1, "stimulus": "", "key_press": -1, "type": "PRE_RECALL_DELAY", "trial_type": "single-stim", "trial_index": 113, "time_elapsed": 487218, "internal_node_id": "0.0-86.0-0.0"}}, {"uniqueid": "MTK0130:3X08E93BHWPU8QT6DCV2EX4NO8766P", "current_trial": 114, "dateTime": 1509290203647, "trialdata": {"rt": -1000, "stimulus": "/static/audio/400Hz.wav", "key_press": -1, "type": "PRE_RECALL_ALERT", "trial_type": "single-audio", "trial_index": 114, "time_elapsed": 487720, "internal_node_id": "0.0-87.0"}}, {"uniqueid": "MTK0130:3X08E93BHWPU8QT6DCV2EX4NO8766P", "current_trial": 115, "dateTime": 1509290263660, "trialdata": {"rt": [1108, 1948, 2988, 4008, 4764, 7165, 14788, 22749, 24074, 37357], "recwords": ["poet", "typist", "lion", "bunny", "diner", "omelette", "coin", "turtle", "rubble", "mask"], "type": "FREE_RECALL", "conditions": [24, 1600, "a", 12000], "trial": 2, "trial_type": "free-recall", "trial_index": 115, "time_elapsed": 547726, "internal_node_id": "0.0-88.0-0.0"}}, {"uniqueid": "MTK0130:3X08E93BHWPU8QT6DCV2EX4NO8766P", "current_trial": 116, "dateTime": 1509290268153, "trialdata": {"rt": 2488, "key_press": 83, "type": "INSTRUCTIONS", "trial_type": "text", "trial_index": 116, "time_elapsed": 552226, "internal_node_id": "0.0-89.0"}}, {"uniqueid": "MTK0130:3X08E93BHWPU8QT6DCV2EX4NO8766P", "current_trial": 117, "dateTime": 1509290294160, "trialdata": {"rt": [2214, 4224, 6857, 9869, 11374, 17120, 19209, 22302, 23902], "responses": ["10", "13", "14", "19", "14", "21", "16", "16", "9"], "num1": [3, 2, 6, 5, 6, 6, 1, 3, 4, 1], "num2": [4, 9, 3, 6, 4, 8, 8, 5, 4, 4], "num3": [3, 2, 5, 8, 4, 7, 7, 8, 1, 5], "type": "DISTRACTOR", "conditions": [12, 1600, "a", 24000], "trial": 3, "trial_type": "math-distractor", "trial_index": 117, "time_elapsed": 578232, "internal_node_id": "0.0-90.0"}}, {"uniqueid": "MTK0130:3X08E93BHWPU8QT6DCV2EX4NO8766P", "current_trial": 118, "dateTime": 1509290297163, "trialdata": {"rt": -1, "stimulus": "<p id=\"stim\">10</p>", "key_press": -1, "trial_type": "single-stim", "trial_index": 118, "time_elapsed": 581235, "internal_node_id": "0.0-91.0-0.0"}}, {"uniqueid": "MTK0130:3X08E93BHWPU8QT6DCV2EX4NO8766P", "current_trial": 119, "dateTime": 1509290298165, "trialdata": {"rt": -1, "stimulus": "<p id=\"stim\">9</p>", "key_press": -1, "trial_type": "single-stim", "trial_index": 119, "time_elapsed": 582238, "internal_node_id": "0.0-91.0-1.0"}}, {"uniqueid": "MTK0130:3X08E93BHWPU8QT6DCV2EX4NO8766P", "current_trial": 120, "dateTime": 1509290299167, "trialdata": {"rt": -1, "stimulus": "<p id=\"stim\">8</p>", "key_press": -1, "trial_type": "single-stim", "trial_index": 120, "time_elapsed": 583239, "internal_node_id": "0.0-91.0-2.0"}}, {"uniqueid": "MTK0130:3X08E93BHWPU8QT6DCV2EX4NO8766P", "current_trial": 121, "dateTime": 1509290300170, "trialdata": {"rt": -1, "stimulus": "<p id=\"stim\">7</p>", "key_press": -1, "trial_type": "single-stim", "trial_index": 121, "time_elapsed": 584243, "internal_node_id": "0.0-91.0-3.0"}}, {"uniqueid": "MTK0130:3X08E93BHWPU8QT6DCV2EX4NO8766P", "current_trial": 122, "dateTime": 1509290301173, "trialdata": {"rt": -1, "stimulus": "<p id=\"stim\">6</p>", "key_press": -1, "trial_type": "single-stim", "trial_index": 122, "time_elapsed": 585245, "internal_node_id": "0.0-91.0-4.0"}}, {"uniqueid": "MTK0130:3X08E93BHWPU8QT6DCV2EX4NO8766P", "current_trial": 123, "dateTime": 1509290302175, "trialdata": {"rt": -1, "stimulus": "<p id=\"stim\">5</p>", "key_press": -1, "trial_type": "single-stim", "trial_index": 123, "time_elapsed": 586248, "internal_node_id": "0.0-91.0-5.0"}}, {"uniqueid": "MTK0130:3X08E93BHWPU8QT6DCV2EX4NO8766P", "current_trial": 124, "dateTime": 1509290303176, "trialdata": {"rt": -1, "stimulus": "<p id=\"stim\">4</p>", "key_press": -1, "trial_type": "single-stim", "trial_index": 124, "time_elapsed": 587249, "internal_node_id": "0.0-91.0-6.0"}}, {"uniqueid": "MTK0130:3X08E93BHWPU8QT6DCV2EX4NO8766P", "current_trial": 125, "dateTime": 1509290304178, "trialdata": {"rt": -1, "stimulus": "<p id=\"stim\">3</p>", "key_press": -1, "trial_type": "single-stim", "trial_index": 125, "time_elapsed": 588251, "internal_node_id": "0.0-91.0-7.0"}}, {"uniqueid": "MTK0130:3X08E93BHWPU8QT6DCV2EX4NO8766P", "current_trial": 126, "dateTime": 1509290305180, "trialdata": {"rt": -1, "stimulus": "<p id=\"stim\">2</p>", "key_press": -1, "trial_type": "single-stim", "trial_index": 126, "time_elapsed": 589253, "internal_node_id": "0.0-91.0-8.0"}}, {"uniqueid": "MTK0130:3X08E93BHWPU8QT6DCV2EX4NO8766P", "current_trial": 127, "dateTime": 1509290306183, "trialdata": {"rt": -1, "stimulus": "<p id=\"stim\">1</p>", "key_press": -1, "trial_type": "single-stim", "trial_index": 127, "time_elapsed": 590256, "internal_node_id": "0.0-91.0-9.0"}}, {"uniqueid": "MTK0130:3X08E93BHWPU8QT6DCV2EX4NO8766P", "current_trial": 128, "dateTime": 1509290307686, "trialdata": {"rt": -1, "stimulus": "<p id=\"stim\">+</p>", "key_press": -1, "type": "FIXATION", "trial_type": "single-stim", "trial_index": 128, "time_elapsed": 591758, "internal_node_id": "0.0-92.0-0.0"}}, {"uniqueid": "MTK0130:3X08E93BHWPU8QT6DCV2EX4NO8766P", "current_trial": 129, "dateTime": 1509290310183, "trialdata": {"rt": -1000, "stimulus": "/static/audio/wordpool/CLIMBER.wav", "key_press": -1, "type": "PRES_AUD", "word": "climber", "wordID": 322, "conditions": [12, 1600, "a", 24000], "trial": 3, "serialpos": 0, "trial_type": "single-audio", "trial_index": 129, "time_elapsed": 594255, "internal_node_id": "0.0-93.0"}}, {"uniqueid": "MTK0130:3X08E93BHWPU8QT6DCV2EX4NO8766P", "current_trial": 130, "dateTime": 1509290312912, "trialdata": {"rt": -1000, "stimulus": "/static/audio/wordpool/BOYFRIEND.wav", "key_press": -1, "type": "PRES_AUD", "word": "boyfriend", "wordID": 161, "conditions": [12, 1600, "a", 24000], "trial": 3, "serialpos": 1, "trial_type": "single-audio", "trial_index": 130, "time_elapsed": 596984, "internal_node_id": "0.0-94.0"}}, {"uniqueid": "MTK0130:3X08E93BHWPU8QT6DCV2EX4NO8766P", "current_trial": 131, "dateTime": 1509290315348, "trialdata": {"rt": -1000, "stimulus": "/static/audio/wordpool/SISTER.wav", "key_press": -1, "type": "PRES_AUD", "word": "sister", "wordID": 1311, "conditions": [12, 1600, "a", 24000], "trial": 3, "serialpos": 2, "trial_type": "single-audio", "trial_index": 131, "time_elapsed": 599421, "internal_node_id": "0.0-95.0"}}, {"uniqueid": "MTK0130:3X08E93BHWPU8QT6DCV2EX4NO8766P", "current_trial": 132, "dateTime": 1509290317770, "trialdata": {"rt": -1000, "stimulus": "/static/audio/wordpool/DAISY.wav", "key_press": -1, "type": "PRES_AUD", "word": "daisy", "wordID": 434, "conditions": [12, 1600, "a", 24000], "trial": 3, "serialpos": 3, "trial_type": "single-audio", "trial_index": 132, "time_elapsed": 601843, "internal_node_id": "0.0-96.0"}}, {"uniqueid": "MTK0130:3X08E93BHWPU8QT6DCV2EX4NO8766P", "current_trial": 133, "dateTime": 1509290320475, "trialdata": {"rt": -1000, "stimulus": "/static/audio/wordpool/BINDER.wav", "key_press": -1, "type": "PRES_AUD", "word": "binder", "wordID": 126, "conditions": [12, 1600, "a", 24000], "trial": 3, "serialpos": 4, "trial_type": "single-audio", "trial_index": 133, "time_elapsed": 604547, "internal_node_id": "0.0-97.0"}}, {"uniqueid": "MTK0130:3X08E93BHWPU8QT6DCV2EX4NO8766P", "current_trial": 134, "dateTime": 1509290323202, "trialdata": {"rt": -1000, "stimulus": "/static/audio/wordpool/YACHT.wav", "key_press": -1, "type": "PRES_AUD", "word": "yacht", "wordID": 1628, "conditions": [12, 1600, "a", 24000], "trial": 3, "serialpos": 5, "trial_type": "single-audio", "trial_index": 134, "time_elapsed": 607275, "internal_node_id": "0.0-98.0"}}, {"uniqueid": "MTK0130:3X08E93BHWPU8QT6DCV2EX4NO8766P", "current_trial": 135, "dateTime": 1509290325742, "trialdata": {"rt": -1000, "stimulus": "/static/audio/wordpool/POLICE.wav", "key_press": -1, "type": "PRES_AUD", "word": "police", "wordID": 1097, "conditions": [12, 1600, "a", 24000], "trial": 3, "serialpos": 6, "trial_type": "single-audio", "trial_index": 135, "time_elapsed": 609815, "internal_node_id": "0.0-99.0"}}, {"uniqueid": "MTK0130:3X08E93BHWPU8QT6DCV2EX4NO8766P", "current_trial": 136, "dateTime": 1509290328427, "trialdata": {"rt": -1000, "stimulus": "/static/audio/wordpool/ASIA.wav", "key_press": -1, "type": "PRES_AUD", "word": "asia", "wordID": 45, "conditions": [12, 1600, "a", 24000], "trial": 3, "serialpos": 7, "trial_type": "single-audio", "trial_index": 136, "time_elapsed": 612500, "internal_node_id": "0.0-100.0"}}, {"uniqueid": "MTK0130:3X08E93BHWPU8QT6DCV2EX4NO8766P", "current_trial": 137, "dateTime": 1509290330969, "trialdata": {"rt": -1000, "stimulus": "/static/audio/wordpool/ISLAND.wav", "key_press": -1, "type": "PRES_AUD", "word": "island", "wordID": 744, "conditions": [12, 1600, "a", 24000], "trial": 3, "serialpos": 8, "trial_type": "single-audio", "trial_index": 137, "time_elapsed": 615042, "internal_node_id": "0.0-101.0"}}, {"uniqueid": "MTK0130:3X08E93BHWPU8QT6DCV2EX4NO8766P", "current_trial": 138, "dateTime": 1509290333538, "trialdata": {"rt": -1000, "stimulus": "/static/audio/wordpool/COUNTY.wav", "key_press": -1, "type": "PRES_AUD", "word": "county", "wordID": 388, "conditions": [12, 1600, "a", 24000], "trial": 3, "serialpos": 9, "trial_type": "single-audio", "trial_index": 138, "time_elapsed": 617611, "internal_node_id": "0.0-102.0"}}, {"uniqueid": "MTK0130:3X08E93BHWPU8QT6DCV2EX4NO8766P", "current_trial": 139, "dateTime": 1509290336162, "trialdata": {"rt": -1000, "stimulus": "/static/audio/wordpool/SHERIFF.wav", "key_press": -1, "type": "PRES_AUD", "word": "sheriff", "wordID": 1283, "conditions": [12, 1600, "a", 24000], "trial": 3, "serialpos": 10, "trial_type": "single-audio", "trial_index": 139, "time_elapsed": 620234, "internal_node_id": "0.0-103.0"}}, {"uniqueid": "MTK0130:3X08E93BHWPU8QT6DCV2EX4NO8766P", "current_trial": 140, "dateTime": 1509290338613, "trialdata": {"rt": -1000, "stimulus": "/static/audio/wordpool/BROTHER.wav", "key_press": -1, "type": "PRES_AUD", "word": "brother", "wordID": 178, "conditions": [12, 1600, "a", 24000], "trial": 3, "serialpos": 11, "trial_type": "single-audio", "trial_index": 140, "time_elapsed": 622685, "internal_node_id": "0.0-104.0"}}, {"uniqueid": "MTK0130:3X08E93BHWPU8QT6DCV2EX4NO8766P", "current_trial": 141, "dateTime": 1509290339913, "trialdata": {"rt": -1, "stimulus": "", "key_press": -1, "type": "PRE_RECALL_DELAY", "trial_type": "single-stim", "trial_index": 141, "time_elapsed": 623986, "internal_node_id": "0.0-105.0-0.0"}}, {"uniqueid": "MTK0130:3X08E93BHWPU8QT6DCV2EX4NO8766P", "current_trial": 142, "dateTime": 1509290340415, "trialdata": {"rt": -1000, "stimulus": "/static/audio/400Hz.wav", "key_press": -1, "type": "PRE_RECALL_ALERT", "trial_type": "single-audio", "trial_index": 142, "time_elapsed": 624488, "internal_node_id": "0.0-106.0"}}, {"uniqueid": "MTK0130:3X08E93BHWPU8QT6DCV2EX4NO8766P", "current_trial": 143, "dateTime": 1509290400422, "trialdata": {"rt": [1418, 2783, 4466, 5187, 6468, 7090, 9447, 14928, 22548], "recwords": ["county", "sheriff", "brother", "sister", "boyfriend", "asia", "climate", "police", "island"], "type": "FREE_RECALL", "conditions": [12, 1600, "a", 24000], "trial": 3, "trial_type": "free-recall", "trial_index": 143, "time_elapsed": 684492, "internal_node_id": "0.0-107.0-0.0"}}, {"uniqueid": "MTK0130:3X08E93BHWPU8QT6DCV2EX4NO8766P", "current_trial": 144, "dateTime": 1509290403186, "trialdata": {"rt": 762, "key_press": 78, "type": "INSTRUCTIONS", "trial_type": "text", "trial_index": 144, "time_elapsed": 687259, "internal_node_id": "0.0-108.0"}}, {"uniqueid": "MTK0130:3X08E93BHWPU8QT6DCV2EX4NO8766P", "current_trial": 145, "dateTime": 1509290417193, "trialdata": {"rt": [2697, 4523, 7385, 9199, 10706], "responses": ["14", "18", "11", "13", "13"], "num1": [8, 6, 3, 5, 9, 9], "num2": [4, 4, 2, 5, 1, 4], "num3": [2, 8, 6, 3, 3, 7], "type": "DISTRACTOR", "conditions": [12, 1600, "v", 12000], "trial": 4, "trial_type": "math-distractor", "trial_index": 145, "time_elapsed": 701266, "internal_node_id": "0.0-109.0"}}, {"uniqueid": "MTK0130:3X08E93BHWPU8QT6DCV2EX4NO8766P", "current_trial": 146, "dateTime": 1509290420198, "trialdata": {"rt": -1, "stimulus": "<p id=\"stim\">10</p>", "key_press": -1, "trial_type": "single-stim", "trial_index": 146, "time_elapsed": 704271, "internal_node_id": "0.0-110.0-0.0"}}, {"uniqueid": "MTK0130:3X08E93BHWPU8QT6DCV2EX4NO8766P", "current_trial": 147, "dateTime": 1509290421201, "trialdata": {"rt": -1, "stimulus": "<p id=\"stim\">9</p>", "key_press": -1, "trial_type": "single-stim", "trial_index": 147, "time_elapsed": 705274, "internal_node_id": "0.0-110.0-1.0"}}, {"uniqueid": "MTK0130:3X08E93BHWPU8QT6DCV2EX4NO8766P", "current_trial": 148, "dateTime": 1509290422203, "trialdata": {"rt": -1, "stimulus": "<p id=\"stim\">8</p>", "key_press": -1, "trial_type": "single-stim", "trial_index": 148, "time_elapsed": 706276, "internal_node_id": "0.0-110.0-2.0"}}, {"uniqueid": "MTK0130:3X08E93BHWPU8QT6DCV2EX4NO8766P", "current_trial": 149, "dateTime": 1509290423207, "trialdata": {"rt": -1, "stimulus": "<p id=\"stim\">7</p>", "key_press": -1, "trial_type": "single-stim", "trial_index": 149, "time_elapsed": 707280, "internal_node_id": "0.0-110.0-3.0"}}, {"uniqueid": "MTK0130:3X08E93BHWPU8QT6DCV2EX4NO8766P", "current_trial": 150, "dateTime": 1509290424209, "trialdata": {"rt": -1, "stimulus": "<p id=\"stim\">6</p>", "key_press": -1, "trial_type": "single-stim", "trial_index": 150, "time_elapsed": 708281, "internal_node_id": "0.0-110.0-4.0"}}, {"uniqueid": "MTK0130:3X08E93BHWPU8QT6DCV2EX4NO8766P", "current_trial": 151, "dateTime": 1509290425212, "trialdata": {"rt": -1, "stimulus": "<p id=\"stim\">5</p>", "key_press": -1, "trial_type": "single-stim", "trial_index": 151, "time_elapsed": 709285, "internal_node_id": "0.0-110.0-5.0"}}, {"uniqueid": "MTK0130:3X08E93BHWPU8QT6DCV2EX4NO8766P", "current_trial": 152, "dateTime": 1509290426216, "trialdata": {"rt": -1, "stimulus": "<p id=\"stim\">4</p>", "key_press": -1, "trial_type": "single-stim", "trial_index": 152, "time_elapsed": 710289, "internal_node_id": "0.0-110.0-6.0"}}, {"uniqueid": "MTK0130:3X08E93BHWPU8QT6DCV2EX4NO8766P", "current_trial": 153, "dateTime": 1509290427219, "trialdata": {"rt": -1, "stimulus": "<p id=\"stim\">3</p>", "key_press": -1, "trial_type": "single-stim", "trial_index": 153, "time_elapsed": 711292, "internal_node_id": "0.0-110.0-7.0"}}, {"uniqueid": "MTK0130:3X08E93BHWPU8QT6DCV2EX4NO8766P", "current_trial": 154, "dateTime": 1509290428224, "trialdata": {"rt": -1, "stimulus": "<p id=\"stim\">2</p>", "key_press": -1, "trial_type": "single-stim", "trial_index": 154, "time_elapsed": 712297, "internal_node_id": "0.0-110.0-8.0"}}, {"uniqueid": "MTK0130:3X08E93BHWPU8QT6DCV2EX4NO8766P", "current_trial": 155, "dateTime": 1509290429228, "trialdata": {"rt": -1, "stimulus": "<p id=\"stim\">1</p>", "key_press": -1, "trial_type": "single-stim", "trial_index": 155, "time_elapsed": 713301, "internal_node_id": "0.0-110.0-9.0"}}, {"uniqueid": "MTK0130:3X08E93BHWPU8QT6DCV2EX4NO8766P", "current_trial": 156, "dateTime": 1509290430732, "trialdata": {"rt": -1, "stimulus": "<p id=\"stim\">+</p>", "key_press": -1, "type": "FIXATION", "trial_type": "single-stim", "trial_index": 156, "time_elapsed": 714805, "internal_node_id": "0.0-111.0-0.0"}}, {"uniqueid": "MTK0130:3X08E93BHWPU8QT6DCV2EX4NO8766P", "current_trial": 157, "dateTime": 1509290432334, "trialdata": {"rt": -1, "stimulus": "<p id=\"stim\">APPLE</p>", "key_press": -1, "type": "PRES_VIS", "word": "apple", "wordID": 32, "conditions": [12, 1600, "v", 12000], "trial": 4, "serialpos": 0, "trial_type": "single-stim", "trial_index": 157, "time_elapsed": 716407, "internal_node_id": "0.0-112.0"}}, {"uniqueid": "MTK0130:3X08E93BHWPU8QT6DCV2EX4NO8766P", "current_trial": 158, "dateTime": 1509290434808, "trialdata": {"rt": -1, "stimulus": "<p id=\"stim\">COLLEGE</p>", "key_press": -1, "type": "PRES_VIS", "word": "college", "wordID": 345, "conditions": [12, 1600, "v", 12000], "trial": 4, "serialpos": 1, "trial_type": "single-stim", "trial_index": 158, "time_elapsed": 718881, "internal_node_id": "0.0-113.0"}}, {"uniqueid": "MTK0130:3X08E93BHWPU8QT6DCV2EX4NO8766P", "current_trial": 159, "dateTime": 1509290437498, "trialdata": {"rt": -1, "stimulus": "<p id=\"stim\">CHILD</p>", "key_press": -1, "type": "PRES_VIS", "word": "child", "wordID": 298, "conditions": [12, 1600, "v", 12000], "trial": 4, "serialpos": 2, "trial_type": "single-stim", "trial_index": 159, "time_elapsed": 721571, "internal_node_id": "0.0-114.0"}}, {"uniqueid": "MTK0130:3X08E93BHWPU8QT6DCV2EX4NO8766P", "current_trial": 160, "dateTime": 1509290440292, "trialdata": {"rt": -1, "stimulus": "<p id=\"stim\">CRIB</p>", "key_press": -1, "type": "PRES_VIS", "word": "crib", "wordID": 406, "conditions": [12, 1600, "v", 12000], "trial": 4, "serialpos": 3, "trial_type": "single-stim", "trial_index": 160, "time_elapsed": 724365, "internal_node_id": "0.0-115.0"}}, {"uniqueid": "MTK0130:3X08E93BHWPU8QT6DCV2EX4NO8766P", "current_trial": 161, "dateTime": 1509290442987, "trialdata": {"rt": -1, "stimulus": "<p id=\"stim\">FILM</p>", "key_press": -1, "type": "PRES_VIS", "word": "film", "wordID": 564, "conditions": [12, 1600, "v", 12000], "trial": 4, "serialpos": 4, "trial_type": "single-stim", "trial_index": 161, "time_elapsed": 727060, "internal_node_id": "0.0-116.0"}}, {"uniqueid": "MTK0130:3X08E93BHWPU8QT6DCV2EX4NO8766P", "current_trial": 162, "dateTime": 1509290445747, "trialdata": {"rt": -1, "stimulus": "<p id=\"stim\">OZONE</p>", "key_press": -1, "type": "PRES_VIS", "word": "ozone", "wordID": 995, "conditions": [12, 1600, "v", 12000], "trial": 4, "serialpos": 5, "trial_type": "single-stim", "trial_index": 162, "time_elapsed": 729820, "internal_node_id": "0.0-117.0"}}, {"uniqueid": "MTK0130:3X08E93BHWPU8QT6DCV2EX4NO8766P", "current_trial": 163, "dateTime": 1509290448442, "trialdata": {"rt": -1, "stimulus": "<p id=\"stim\">PADDING</p>", "key_press": -1, "type": "PRES_VIS", "word": "padding", "wordID": 998, "conditions": [12, 1600, "v", 12000], "trial": 4, "serialpos": 6, "trial_type": "single-stim", "trial_index": 163, "time_elapsed": 732514, "internal_node_id": "0.0-118.0"}}, {"uniqueid": "MTK0130:3X08E93BHWPU8QT6DCV2EX4NO8766P", "current_trial": 164, "dateTime": 1509290451048, "trialdata": {"rt": -1, "stimulus": "<p id=\"stim\">CELLAR</p>", "key_press": -1, "type": "PRES_VIS", "word": "cellar", "wordID": 266, "conditions": [12, 1600, "v", 12000], "trial": 4, "serialpos": 7, "trial_type": "single-stim", "trial_index": 164, "time_elapsed": 735120, "internal_node_id": "0.0-119.0"}}, {"uniqueid": "MTK0130:3X08E93BHWPU8QT6DCV2EX4NO8766P", "current_trial": 165, "dateTime": 1509290453599, "trialdata": {"rt": -1, "stimulus": "<p id=\"stim\">BADGE</p>", "key_press": -1, "type": "PRES_VIS", "word": "badge", "wordID": 67, "conditions": [12, 1600, "v", 12000], "trial": 4, "serialpos": 8, "trial_type": "single-stim", "trial_index": 165, "time_elapsed": 737671, "internal_node_id": "0.0-120.0"}}, {"uniqueid": "MTK0130:3X08E93BHWPU8QT6DCV2EX4NO8766P", "current_trial": 166, "dateTime": 1509290456374, "trialdata": {"rt": -1, "stimulus": "<p id=\"stim\">STICKER</p>", "key_press": -1, "type": "PRES_VIS", "word": "sticker", "wordID": 1381, "conditions": [12, 1600, "v", 12000], "trial": 4, "serialpos": 9, "trial_type": "single-stim", "trial_index": 166, "time_elapsed": 740447, "internal_node_id": "0.0-121.0"}}, {"uniqueid": "MTK0130:3X08E93BHWPU8QT6DCV2EX4NO8766P", "current_trial": 167, "dateTime": 1509290459000, "trialdata": {"rt": -1, "stimulus": "<p id=\"stim\">LAGOON</p>", "key_press": -1, "type": "PRES_VIS", "word": "lagoon", "wordID": 794, "conditions": [12, 1600, "v", 12000], "trial": 4, "serialpos": 10, "trial_type": "single-stim", "trial_index": 167, "time_elapsed": 743073, "internal_node_id": "0.0-122.0"}}, {"uniqueid": "MTK0130:3X08E93BHWPU8QT6DCV2EX4NO8766P", "current_trial": 168, "dateTime": 1509290461796, "trialdata": {"rt": -1, "stimulus": "<p id=\"stim\">BASEMENT</p>", "key_press": -1, "type": "PRES_VIS", "word": "basement", "wordID": 93, "conditions": [12, 1600, "v", 12000], "trial": 4, "serialpos": 11, "trial_type": "single-stim", "trial_index": 168, "time_elapsed": 745869, "internal_node_id": "0.0-123.0"}}, {"uniqueid": "MTK0130:3X08E93BHWPU8QT6DCV2EX4NO8766P", "current_trial": 169, "dateTime": 1509290463997, "trialdata": {"rt": -1, "stimulus": "", "key_press": -1, "type": "PRE_RECALL_DELAY", "trial_type": "single-stim", "trial_index": 169, "time_elapsed": 748069, "internal_node_id": "0.0-124.0-0.0"}}, {"uniqueid": "MTK0130:3X08E93BHWPU8QT6DCV2EX4NO8766P", "current_trial": 170, "dateTime": 1509290464500, "trialdata": {"rt": -1000, "stimulus": "/static/audio/400Hz.wav", "key_press": -1, "type": "PRE_RECALL_ALERT", "trial_type": "single-audio", "trial_index": 170, "time_elapsed": 748572, "internal_node_id": "0.0-125.0"}}, {"uniqueid": "MTK0130:3X08E93BHWPU8QT6DCV2EX4NO8766P", "current_trial": 171, "dateTime": 1509290524512, "trialdata": {"rt": [1489, 2661, 3669, 4365, 5230, 7872, 9136], "recwords": ["cellar", "basement", "lagoon", "child", "crib", "apple", "college"], "type": "FREE_RECALL", "conditions": [12, 1600, "v", 12000], "trial": 4, "trial_type": "free-recall", "trial_index": 171, "time_elapsed": 808580, "internal_node_id": "0.0-126.0-0.0"}}, {"uniqueid": "MTK0130:3X08E93BHWPU8QT6DCV2EX4NO8766P", "current_trial": 172, "dateTime": 1509290527262, "trialdata": {"rt": 746, "key_press": 83, "type": "INSTRUCTIONS", "trial_type": "text", "trial_index": 172, "time_elapsed": 811333, "internal_node_id": "0.0-127.0"}}, {"uniqueid": "MTK0130:3X08E93BHWPU8QT6DCV2EX4NO8766P", "current_trial": 173, "dateTime": 1509290553268, "trialdata": {"rt": [2195, 5711, 7614, 10725, 14120, 16198, 19033, 23875], "responses": ["17", "20", "12", "21", "13", "13", "12", "13"], "num1": [3, 8, 1, 5, 4, 5, 4, 5, 6], "num2": [7, 9, 5, 7, 2, 4, 4, 3, 2], "num3": [7, 3, 6, 9, 7, 4, 4, 5, 9], "type": "DISTRACTOR", "conditions": [12, 800, "a", 24000], "trial": 5, "trial_type": "math-distractor", "trial_index": 173, "time_elapsed": 837341, "internal_node_id": "0.0-128.0"}}, {"uniqueid": "MTK0130:3X08E93BHWPU8QT6DCV2EX4NO8766P", "current_trial": 174, "dateTime": 1509290556272, "trialdata": {"rt": -1, "stimulus": "<p id=\"stim\">10</p>", "key_press": -1, "trial_type": "single-stim", "trial_index": 174, "time_elapsed": 840345, "internal_node_id": "0.0-129.0-0.0"}}, {"uniqueid": "MTK0130:3X08E93BHWPU8QT6DCV2EX4NO8766P", "current_trial": 175, "dateTime": 1509290557273, "trialdata": {"rt": -1, "stimulus": "<p id=\"stim\">9</p>", "key_press": -1, "trial_type": "single-stim", "trial_index": 175, "time_elapsed": 841346, "internal_node_id": "0.0-129.0-1.0"}}, {"uniqueid": "MTK0130:3X08E93BHWPU8QT6DCV2EX4NO8766P", "current_trial": 176, "dateTime": 1509290558275, "trialdata": {"rt": -1, "stimulus": "<p id=\"stim\">8</p>", "key_press": -1, "trial_type": "single-stim", "trial_index": 176, "time_elapsed": 842348, "internal_node_id": "0.0-129.0-2.0"}}, {"uniqueid": "MTK0130:3X08E93BHWPU8QT6DCV2EX4NO8766P", "current_trial": 177, "dateTime": 1509290559296, "trialdata": {"rt": -1, "stimulus": "<p id=\"stim\">7</p>", "key_press": -1, "trial_type": "single-stim", "trial_index": 177, "time_elapsed": 843368, "internal_node_id": "0.0-129.0-3.0"}}, {"uniqueid": "MTK0130:3X08E93BHWPU8QT6DCV2EX4NO8766P", "current_trial": 178, "dateTime": 1509290560298, "trialdata": {"rt": -1, "stimulus": "<p id=\"stim\">6</p>", "key_press": -1, "trial_type": "single-stim", "trial_index": 178, "time_elapsed": 844371, "internal_node_id": "0.0-129.0-4.0"}}, {"uniqueid": "MTK0130:3X08E93BHWPU8QT6DCV2EX4NO8766P", "current_trial": 179, "dateTime": 1509290561301, "trialdata": {"rt": -1, "stimulus": "<p id=\"stim\">5</p>", "key_press": -1, "trial_type": "single-stim", "trial_index": 179, "time_elapsed": 845374, "internal_node_id": "0.0-129.0-5.0"}}, {"uniqueid": "MTK0130:3X08E93BHWPU8QT6DCV2EX4NO8766P", "current_trial": 180, "dateTime": 1509290562303, "trialdata": {"rt": -1, "stimulus": "<p id=\"stim\">4</p>", "key_press": -1, "trial_type": "single-stim", "trial_index": 180, "time_elapsed": 846376, "internal_node_id": "0.0-129.0-6.0"}}, {"uniqueid": "MTK0130:3X08E93BHWPU8QT6DCV2EX4NO8766P", "current_trial": 181, "dateTime": 1509290563304, "trialdata": {"rt": -1, "stimulus": "<p id=\"stim\">3</p>", "key_press": -1, "trial_type": "single-stim", "trial_index": 181, "time_elapsed": 847377, "internal_node_id": "0.0-129.0-7.0"}}, {"uniqueid": "MTK0130:3X08E93BHWPU8QT6DCV2EX4NO8766P", "current_trial": 182, "dateTime": 1509290564305, "trialdata": {"rt": -1, "stimulus": "<p id=\"stim\">2</p>", "key_press": -1, "trial_type": "single-stim", "trial_index": 182, "time_elapsed": 848378, "internal_node_id": "0.0-129.0-8.0"}}, {"uniqueid": "MTK0130:3X08E93BHWPU8QT6DCV2EX4NO8766P", "current_trial": 183, "dateTime": 1509290565342, "trialdata": {"rt": -1, "stimulus": "<p id=\"stim\">1</p>", "key_press": -1, "trial_type": "single-stim", "trial_index": 183, "time_elapsed": 849415, "internal_node_id": "0.0-129.0-9.0"}}, {"uniqueid": "MTK0130:3X08E93BHWPU8QT6DCV2EX4NO8766P", "current_trial": 184, "dateTime": 1509290566845, "trialdata": {"rt": -1, "stimulus": "<p id=\"stim\">+</p>", "key_press": -1, "type": "FIXATION", "trial_type": "single-stim", "trial_index": 184, "time_elapsed": 850918, "internal_node_id": "0.0-130.0-0.0"}}, {"uniqueid": "MTK0130:3X08E93BHWPU8QT6DCV2EX4NO8766P", "current_trial": 185, "dateTime": 1509290568544, "trialdata": {"rt": -1000, "stimulus": "/static/audio/wordpool/MILK.wav", "key_press": -1, "type": "PRES_AUD", "word": "milk", "wordID": 894, "conditions": [12, 800, "a", 24000], "trial": 5, "serialpos": 0, "trial_type": "single-audio", "trial_index": 185, "time_elapsed": 852617, "internal_node_id": "0.0-131.0"}}, {"uniqueid": "MTK0130:3X08E93BHWPU8QT6DCV2EX4NO8766P", "current_trial": 186, "dateTime": 1509290570173, "trialdata": {"rt": -1000, "stimulus": "/static/audio/wordpool/NECKLACE.wav", "key_press": -1, "type": "PRES_AUD", "word": "necklace", "wordID": 939, "conditions": [12, 800, "a", 24000], "trial": 5, "serialpos": 1, "trial_type": "single-audio", "trial_index": 186, "time_elapsed": 854246, "internal_node_id": "0.0-132.0"}}, {"uniqueid": "MTK0130:3X08E93BHWPU8QT6DCV2EX4NO8766P", "current_trial": 187, "dateTime": 1509290571971, "trialdata": {"rt": -1000, "stimulus": "/static/audio/wordpool/SUNRISE.wav", "key_press": -1, "type": "PRES_AUD", "word": "sunrise", "wordID": 1406, "conditions": [12, 800, "a", 24000], "trial": 5, "serialpos": 2, "trial_type": "single-audio", "trial_index": 187, "time_elapsed": 856044, "internal_node_id": "0.0-133.0"}}, {"uniqueid": "MTK0130:3X08E93BHWPU8QT6DCV2EX4NO8766P", "current_trial": 188, "dateTime": 1509290573583, "trialdata": {"rt": -1000, "stimulus": "/static/audio/wordpool/PICNIC.wav", "key_press": -1, "type": "PRES_AUD", "word": "picnic", "wordID": 1059, "conditions": [12, 800, "a", 24000], "trial": 5, "serialpos": 3, "trial_type": "single-audio", "trial_index": 188, "time_elapsed": 857656, "internal_node_id": "0.0-134.0"}}, {"uniqueid": "MTK0130:3X08E93BHWPU8QT6DCV2EX4NO8766P", "current_trial": 189, "dateTime": 1509290575356, "trialdata": {"rt": -1000, "stimulus": "/static/audio/wordpool/STONE.wav", "key_press": -1, "type": "PRES_AUD", "word": "stone", "wordID": 1384, "conditions": [12, 800, "a", 24000], "trial": 5, "serialpos": 4, "trial_type": "single-audio", "trial_index": 189, "time_elapsed": 859428, "internal_node_id": "0.0-135.0"}}, {"uniqueid": "MTK0130:3X08E93BHWPU8QT6DCV2EX4NO8766P", "current_trial": 190, "dateTime": 1509290577058, "trialdata": {"rt": -1000, "stimulus": "/static/audio/wordpool/COMPASS.wav", "key_press": -1, "type": "PRES_AUD", "word": "compass", "wordID": 357, "conditions": [12, 800, "a", 24000], "trial": 5, "serialpos": 5, "trial_type": "single-audio", "trial_index": 190, "time_elapsed": 861130, "internal_node_id": "0.0-136.0"}}, {"uniqueid": "MTK0130:3X08E93BHWPU8QT6DCV2EX4NO8766P", "current_trial": 191, "dateTime": 1509290579053, "trialdata": {"rt": -1000, "stimulus": "/static/audio/wordpool/FLAG.wav", "key_press": -1, "type": "PRES_AUD", "word": "flag", "wordID": 572, "conditions": [12, 800, "a", 24000], "trial": 5, "serialpos": 6, "trial_type": "single-audio", "trial_index": 191, "time_elapsed": 863125, "internal_node_id": "0.0-137.0"}}, {"uniqueid": "MTK0130:3X08E93BHWPU8QT6DCV2EX4NO8766P", "current_trial": 192, "dateTime": 1509290580687, "trialdata": {"rt": -1000, "stimulus": "/static/audio/wordpool/AGENT.wav", "key_press": -1, "type": "PRES_AUD", "word": "agent", "wordID": 9, "conditions": [12, 800, "a", 24000], "trial": 5, "serialpos": 7, "trial_type": "single-audio", "trial_index": 192, "time_elapsed": 864760, "internal_node_id": "0.0-138.0"}}, {"uniqueid": "MTK0130:3X08E93BHWPU8QT6DCV2EX4NO8766P", "current_trial": 193, "dateTime": 1509290582579, "trialdata": {"rt": -1000, "stimulus": "/static/audio/wordpool/SPARROW.wav", "key_press": -1, "type": "PRES_AUD", "word": "sparrow", "wordID": 1346, "conditions": [12, 800, "a", 24000], "trial": 5, "serialpos": 8, "trial_type": "single-audio", "trial_index": 193, "time_elapsed": 866652, "internal_node_id": "0.0-139.0"}}, {"uniqueid": "MTK0130:3X08E93BHWPU8QT6DCV2EX4NO8766P", "current_trial": 194, "dateTime": 1509290584210, "trialdata": {"rt": -1000, "stimulus": "/static/audio/wordpool/HORNET.wav", "key_press": -1, "type": "PRES_AUD", "word": "hornet", "wordID": 717, "conditions": [12, 800, "a", 24000], "trial": 5, "serialpos": 9, "trial_type": "single-audio", "trial_index": 194, "time_elapsed": 868282, "internal_node_id": "0.0-140.0"}}, {"uniqueid": "MTK0130:3X08E93BHWPU8QT6DCV2EX4NO8766P", "current_trial": 195, "dateTime": 1509290586119, "trialdata": {"rt": -1000, "stimulus": "/static/audio/wordpool/WASP.wav", "key_press": -1, "type": "PRES_AUD", "word": "wasp", "wordID": 1592, "conditions": [12, 800, "a", 24000], "trial": 5, "serialpos": 10, "trial_type": "single-audio", "trial_index": 195, "time_elapsed": 870192, "internal_node_id": "0.0-141.0"}}, {"uniqueid": "MTK0130:3X08E93BHWPU8QT6DCV2EX4NO8766P", "current_trial": 196, "dateTime": 1509290587778, "trialdata": {"rt": -1000, "stimulus": "/static/audio/wordpool/ROBIN.wav", "key_press": -1, "type": "PRES_AUD", "word": "robin", "wordID": 1198, "conditions": [12, 800, "a", 24000], "trial": 5, "serialpos": 11, "trial_type": "single-audio", "trial_index": 196, "time_elapsed": 871850, "internal_node_id": "0.0-142.0"}}, {"uniqueid": "MTK0130:3X08E93BHWPU8QT6DCV2EX4NO8766P", "current_trial": 197, "dateTime": 1509290589031, "trialdata": {"rt": -1, "stimulus": "", "key_press": -1, "type": "PRE_RECALL_DELAY", "trial_type": "single-stim", "trial_index": 197, "time_elapsed": 873104, "internal_node_id": "0.0-143.0-0.0"}}, {"uniqueid": "MTK0130:3X08E93BHWPU8QT6DCV2EX4NO8766P", "current_trial": 198, "dateTime": 1509290589534, "trialdata": {"rt": -1000, "stimulus": "/static/audio/400Hz.wav", "key_press": -1, "type": "PRE_RECALL_ALERT", "trial_type": "single-audio", "trial_index": 198, "time_elapsed": 873607, "internal_node_id": "0.0-144.0"}}, {"uniqueid": "MTK0130:3X08E93BHWPU8QT6DCV2EX4NO8766P", "current_trial": 199, "dateTime": 1509290649550, "trialdata": {"rt": [1904, 2849, 3867, 4639, 7155, 8498, 13917, 30776, 33465], "recwords": ["robin", "sparrow", "picnic", "stone", "milk", "robin", "agent", "wasp", "hornet"], "type": "FREE_RECALL", "conditions": [12, 800, "a", 24000], "trial": 5, "trial_type": "free-recall", "trial_index": 199, "time_elapsed": 933612, "internal_node_id": "0.0-145.0-0.0"}}, {"uniqueid": "MTK0130:3X08E93BHWPU8QT6DCV2EX4NO8766P", "current_trial": 200, "dateTime": 1509290654212, "trialdata": {"rt": 2659, "key_press": 65, "type": "INSTRUCTIONS", "trial_type": "text", "trial_index": 200, "time_elapsed": 938285, "internal_node_id": "0.0-146.0"}}, {"uniqueid": "MTK0130:3X08E93BHWPU8QT6DCV2EX4NO8766P", "current_trial": 201, "dateTime": 1509290668222, "trialdata": {"rt": [2511, 4093, 6395, 9799], "responses": ["15", "12", "9", "15"], "num1": [8, 6, 1, 1, 9], "num2": [3, 3, 1, 6, 5], "num3": [4, 3, 7, 8, 7], "type": "DISTRACTOR", "conditions": [24, 1600, "v", 12000], "trial": 6, "trial_type": "math-distractor", "trial_index": 201, "time_elapsed": 952294, "internal_node_id": "0.0-147.0"}}, {"uniqueid": "MTK0130:3X08E93BHWPU8QT6DCV2EX4NO8766P", "current_trial": 202, "dateTime": 1509290671230, "trialdata": {"rt": -1, "stimulus": "<p id=\"stim\">10</p>", "key_press": -1, "trial_type": "single-stim", "trial_index": 202, "time_elapsed": 955303, "internal_node_id": "0.0-148.0-0.0"}}, {"uniqueid": "MTK0130:3X08E93BHWPU8QT6DCV2EX4NO8766P", "current_trial": 203, "dateTime": 1509290672253, "trialdata": {"rt": -1, "stimulus": "<p id=\"stim\">9</p>", "key_press": -1, "trial_type": "single-stim", "trial_index": 203, "time_elapsed": 956326, "internal_node_id": "0.0-148.0-1.0"}}, {"uniqueid": "MTK0130:3X08E93BHWPU8QT6DCV2EX4NO8766P", "current_trial": 204, "dateTime": 1509290673254, "trialdata": {"rt": -1, "stimulus": "<p id=\"stim\">8</p>", "key_press": -1, "trial_type": "single-stim", "trial_index": 204, "time_elapsed": 957327, "internal_node_id": "0.0-148.0-2.0"}}, {"uniqueid": "MTK0130:3X08E93BHWPU8QT6DCV2EX4NO8766P", "current_trial": 205, "dateTime": 1509290674257, "trialdata": {"rt": -1, "stimulus": "<p id=\"stim\">7</p>", "key_press": -1, "trial_type": "single-stim", "trial_index": 205, "time_elapsed": 958330, "internal_node_id": "0.0-148.0-3.0"}}, {"uniqueid": "MTK0130:3X08E93BHWPU8QT6DCV2EX4NO8766P", "current_trial": 206, "dateTime": 1509290675259, "trialdata": {"rt": -1, "stimulus": "<p id=\"stim\">6</p>", "key_press": -1, "trial_type": "single-stim", "trial_index": 206, "time_elapsed": 959331, "internal_node_id": "0.0-148.0-4.0"}}, {"uniqueid": "MTK0130:3X08E93BHWPU8QT6DCV2EX4NO8766P", "current_trial": 207, "dateTime": 1509290676262, "trialdata": {"rt": -1, "stimulus": "<p id=\"stim\">5</p>", "key_press": -1, "trial_type": "single-stim", "trial_index": 207, "time_elapsed": 960335, "internal_node_id": "0.0-148.0-5.0"}}, {"uniqueid": "MTK0130:3X08E93BHWPU8QT6DCV2EX4NO8766P", "current_trial": 208, "dateTime": 1509290677296, "trialdata": {"rt": -1, "stimulus": "<p id=\"stim\">4</p>", "key_press": -1, "trial_type": "single-stim", "trial_index": 208, "time_elapsed": 961369, "internal_node_id": "0.0-148.0-6.0"}}, {"uniqueid": "MTK0130:3X08E93BHWPU8QT6DCV2EX4NO8766P", "current_trial": 209, "dateTime": 1509290678299, "trialdata": {"rt": -1, "stimulus": "<p id=\"stim\">3</p>", "key_press": -1, "trial_type": "single-stim", "trial_index": 209, "time_elapsed": 962372, "internal_node_id": "0.0-148.0-7.0"}}, {"uniqueid": "MTK0130:3X08E93BHWPU8QT6DCV2EX4NO8766P", "current_trial": 210, "dateTime": 1509290679307, "trialdata": {"rt": -1, "stimulus": "<p id=\"stim\">2</p>", "key_press": -1, "trial_type": "single-stim", "trial_index": 210, "time_elapsed": 963375, "internal_node_id": "0.0-148.0-8.0"}}, {"uniqueid": "MTK0130:3X08E93BHWPU8QT6DCV2EX4NO8766P", "current_trial": 211, "dateTime": 1509290680309, "trialdata": {"rt": -1, "stimulus": "<p id=\"stim\">1</p>", "key_press": -1, "trial_type": "single-stim", "trial_index": 211, "time_elapsed": 964382, "internal_node_id": "0.0-148.0-9.0"}}, {"uniqueid": "MTK0130:3X08E93BHWPU8QT6DCV2EX4NO8766P", "current_trial": 212, "dateTime": 1509290681811, "trialdata": {"rt": -1, "stimulus": "<p id=\"stim\">+</p>", "key_press": -1, "type": "FIXATION", "trial_type": "single-stim", "trial_index": 212, "time_elapsed": 965884, "internal_node_id": "0.0-149.0-0.0"}}, {"uniqueid": "MTK0130:3X08E93BHWPU8QT6DCV2EX4NO8766P", "current_trial": 213, "dateTime": 1509290683413, "trialdata": {"rt": -1, "stimulus": "<p id=\"stim\">SIDEWALK</p>", "key_press": -1, "type": "PRES_VIS", "word": "sidewalk", "wordID": 1302, "conditions": [24, 1600, "v", 12000], "trial": 6, "serialpos": 0, "trial_type": "single-stim", "trial_index": 213, "time_elapsed": 967486, "internal_node_id": "0.0-150.0"}}, {"uniqueid": "MTK0130:3X08E93BHWPU8QT6DCV2EX4NO8766P", "current_trial": 214, "dateTime": 1509290685923, "trialdata": {"rt": -1, "stimulus": "<p id=\"stim\">PLAZA</p>", "key_press": -1, "type": "PRES_VIS", "word": "plaza", "wordID": 1087, "conditions": [24, 1600, "v", 12000], "trial": 6, "serialpos": 1, "trial_type": "single-stim", "trial_index": 214, "time_elapsed": 969996, "internal_node_id": "0.0-151.0"}}, {"uniqueid": "MTK0130:3X08E93BHWPU8QT6DCV2EX4NO8766P", "current_trial": 215, "dateTime": 1509290688432, "trialdata": {"rt": -1, "stimulus": "<p id=\"stim\">MUFFIN</p>", "key_press": -1, "type": "PRES_VIS", "word": "muffin", "wordID": 928, "conditions": [24, 1600, "v", 12000], "trial": 6, "serialpos": 2, "trial_type": "single-stim", "trial_index": 215, "time_elapsed": 972504, "internal_node_id": "0.0-152.0"}}, {"uniqueid": "MTK0130:3X08E93BHWPU8QT6DCV2EX4NO8766P", "current_trial": 216, "dateTime": 1509290690960, "trialdata": {"rt": -1, "stimulus": "<p id=\"stim\">GRAVE</p>", "key_press": -1, "type": "PRES_VIS", "word": "grave", "wordID": 657, "conditions": [24, 1600, "v", 12000], "trial": 6, "serialpos": 3, "trial_type": "single-stim", "trial_index": 216, "time_elapsed": 975033, "internal_node_id": "0.0-153.0"}}, {"uniqueid": "MTK0130:3X08E93BHWPU8QT6DCV2EX4NO8766P", "current_trial": 217, "dateTime": 1509290693549, "trialdata": {"rt": -1, "stimulus": "<p id=\"stim\">COUSIN</p>", "key_press": -1, "type": "PRES_VIS", "word": "cousin", "wordID": 391, "conditions": [24, 1600, "v", 12000], "trial": 6, "serialpos": 4, "trial_type": "single-stim", "trial_index": 217, "time_elapsed": 977622, "internal_node_id": "0.0-154.0"}}, {"uniqueid": "MTK0130:3X08E93BHWPU8QT6DCV2EX4NO8766P", "current_trial": 218, "dateTime": 1509290696095, "trialdata": {"rt": -1, "stimulus": "<p id=\"stim\">SNACK</p>", "key_press": -1, "type": "PRES_VIS", "word": "snack", "wordID": 1330, "conditions": [24, 1600, "v", 12000], "trial": 6, "serialpos": 5, "trial_type": "single-stim", "trial_index": 218, "time_elapsed": 980168, "internal_node_id": "0.0-155.0"}}, {"uniqueid": "MTK0130:3X08E93BHWPU8QT6DCV2EX4NO8766P", "current_trial": 219, "dateTime": 1509290698803, "trialdata": {"rt": -1, "stimulus": "<p id=\"stim\">MOTOR</p>", "key_press": -1, "type": "PRES_VIS", "word": "motor", "wordID": 921, "conditions": [24, 1600, "v", 12000], "trial": 6, "serialpos": 6, "trial_type": "single-stim", "trial_index": 219, "time_elapsed": 982875, "internal_node_id": "0.0-156.0"}}, {"uniqueid": "MTK0130:3X08E93BHWPU8QT6DCV2EX4NO8766P", "current_trial": 220, "dateTime": 1509290701365, "trialdata": {"rt": -1, "stimulus": "<p id=\"stim\">LETTUCE</p>", "key_press": -1, "type": "PRES_VIS", "word": "lettuce", "wordID": 813, "conditions": [24, 1600, "v", 12000], "trial": 6, "serialpos": 7, "trial_type": "single-stim", "trial_index": 220, "time_elapsed": 985437, "internal_node_id": "0.0-157.0"}}, {"uniqueid": "MTK0130:3X08E93BHWPU8QT6DCV2EX4NO8766P", "current_trial": 221, "dateTime": 1509290704022, "trialdata": {"rt": -1, "stimulus": "<p id=\"stim\">DIME</p>", "key_press": -1, "type": "PRES_VIS", "word": "dime", "wordID": 465, "conditions": [24, 1600, "v", 12000], "trial": 6, "serialpos": 8, "trial_type": "single-stim", "trial_index": 221, "time_elapsed": 988094, "internal_node_id": "0.0-158.0"}}, {"uniqueid": "MTK0130:3X08E93BHWPU8QT6DCV2EX4NO8766P", "current_trial": 222, "dateTime": 1509290706692, "trialdata": {"rt": -1, "stimulus": "<p id=\"stim\">CRATER</p>", "key_press": -1, "type": "PRES_VIS", "word": "crater", "wordID": 399, "conditions": [24, 1600, "v", 12000], "trial": 6, "serialpos": 9, "trial_type": "single-stim", "trial_index": 222, "time_elapsed": 990764, "internal_node_id": "0.0-159.0"}}, {"uniqueid": "MTK0130:3X08E93BHWPU8QT6DCV2EX4NO8766P", "current_trial": 223, "dateTime": 1509290709414, "trialdata": {"rt": -1, "stimulus": "<p id=\"stim\">SHRUB</p>", "key_press": -1, "type": "PRES_VIS", "word": "shrub", "wordID": 1298, "conditions": [24, 1600, "v", 12000], "trial": 6, "serialpos": 10, "trial_type": "single-stim", "trial_index": 223, "time_elapsed": 993484, "internal_node_id": "0.0-160.0"}}, {"uniqueid": "MTK0130:3X08E93BHWPU8QT6DCV2EX4NO8766P", "current_trial": 224, "dateTime": 1509290712090, "trialdata": {"rt": -1, "stimulus": "<p id=\"stim\">BODY</p>", "key_press": -1, "type": "PRES_VIS", "word": "body", "wordID": 144, "conditions": [24, 1600, "v", 12000], "trial": 6, "serialpos": 11, "trial_type": "single-stim", "trial_index": 224, "time_elapsed": 996161, "internal_node_id": "0.0-161.0"}}, {"uniqueid": "MTK0130:3X08E93BHWPU8QT6DCV2EX4NO8766P", "current_trial": 225, "dateTime": 1509290714695, "trialdata": {"rt": -1, "stimulus": "<p id=\"stim\">PRINCESS</p>", "key_press": -1, "type": "PRES_VIS", "word": "princess", "wordID": 1124, "conditions": [24, 1600, "v", 12000], "trial": 6, "serialpos": 12, "trial_type": "single-stim", "trial_index": 225, "time_elapsed": 998768, "internal_node_id": "0.0-162.0"}}, {"uniqueid": "MTK0130:3X08E93BHWPU8QT6DCV2EX4NO8766P", "current_trial": 226, "dateTime": 1509290717374, "trialdata": {"rt": -1, "stimulus": "<p id=\"stim\">DIVER</p>", "key_press": -1, "type": "PRES_VIS", "word": "diver", "wordID": 475, "conditions": [24, 1600, "v", 12000], "trial": 6, "serialpos": 13, "trial_type": "single-stim", "trial_index": 226, "time_elapsed": 1001447, "internal_node_id": "0.0-163.0"}}, {"uniqueid": "MTK0130:3X08E93BHWPU8QT6DCV2EX4NO8766P", "current_trial": 227, "dateTime": 1509290719891, "trialdata": {"rt": -1, "stimulus": "<p id=\"stim\">CASKET</p>", "key_press": -1, "type": "PRES_VIS", "word": "casket", "wordID": 254, "conditions": [24, 1600, "v", 12000], "trial": 6, "serialpos": 14, "trial_type": "single-stim", "trial_index": 227, "time_elapsed": 1003964, "internal_node_id": "0.0-164.0"}}, {"uniqueid": "MTK0130:3X08E93BHWPU8QT6DCV2EX4NO8766P", "current_trial": 228, "dateTime": 1509290722323, "trialdata": {"rt": -1, "stimulus": "<p id=\"stim\">REPORT</p>", "key_press": -1, "type": "PRES_VIS", "word": "report", "wordID": 1183, "conditions": [24, 1600, "v", 12000], "trial": 6, "serialpos": 15, "trial_type": "single-stim", "trial_index": 228, "time_elapsed": 1006396, "internal_node_id": "0.0-165.0"}}, {"uniqueid": "MTK0130:3X08E93BHWPU8QT6DCV2EX4NO8766P", "current_trial": 229, "dateTime": 1509290724788, "trialdata": {"rt": -1, "stimulus": "<p id=\"stim\">SURVEY</p>", "key_press": -1, "type": "PRES_VIS", "word": "survey", "wordID": 1413, "conditions": [24, 1600, "v", 12000], "trial": 6, "serialpos": 16, "trial_type": "single-stim", "trial_index": 229, "time_elapsed": 1008861, "internal_node_id": "0.0-166.0"}}, {"uniqueid": "MTK0130:3X08E93BHWPU8QT6DCV2EX4NO8766P", "current_trial": 230, "dateTime": 1509290727269, "trialdata": {"rt": -1, "stimulus": "<p id=\"stim\">LEG</p>", "key_press": -1, "type": "PRES_VIS", "word": "leg", "wordID": 808, "conditions": [24, 1600, "v", 12000], "trial": 6, "serialpos": 17, "trial_type": "single-stim", "trial_index": 230, "time_elapsed": 1011341, "internal_node_id": "0.0-167.0"}}, {"uniqueid": "MTK0130:3X08E93BHWPU8QT6DCV2EX4NO8766P", "current_trial": 231, "dateTime": 1509290729908, "trialdata": {"rt": -1, "stimulus": "<p id=\"stim\">SEAL</p>", "key_press": -1, "type": "PRES_VIS", "word": "seal", "wordID": 1261, "conditions": [24, 1600, "v", 12000], "trial": 6, "serialpos": 18, "trial_type": "single-stim", "trial_index": 231, "time_elapsed": 1013981, "internal_node_id": "0.0-168.0"}}, {"uniqueid": "MTK0130:3X08E93BHWPU8QT6DCV2EX4NO8766P", "current_trial": 232, "dateTime": 1509290732527, "trialdata": {"rt": -1, "stimulus": "<p id=\"stim\">MARKER</p>", "key_press": -1, "type": "PRES_VIS", "word": "marker", "wordID": 869, "conditions": [24, 1600, "v", 12000], "trial": 6, "serialpos": 19, "trial_type": "single-stim", "trial_index": 232, "time_elapsed": 1016600, "internal_node_id": "0.0-169.0"}}, {"uniqueid": "MTK0130:3X08E93BHWPU8QT6DCV2EX4NO8766P", "current_trial": 233, "dateTime": 1509290735095, "trialdata": {"rt": -1, "stimulus": "<p id=\"stim\">WIFE</p>", "key_press": -1, "type": "PRES_VIS", "word": "wife", "wordID": 1608, "conditions": [24, 1600, "v", 12000], "trial": 6, "serialpos": 20, "trial_type": "single-stim", "trial_index": 233, "time_elapsed": 1019168, "internal_node_id": "0.0-170.0"}}, {"uniqueid": "MTK0130:3X08E93BHWPU8QT6DCV2EX4NO8766P", "current_trial": 234, "dateTime": 1509290737690, "trialdata": {"rt": -1, "stimulus": "<p id=\"stim\">NIGHTGOWN</p>", "key_press": -1, "type": "PRES_VIS", "word": "nightgown", "wordID": 952, "conditions": [24, 1600, "v", 12000], "trial": 6, "serialpos": 21, "trial_type": "single-stim", "trial_index": 234, "time_elapsed": 1021763, "internal_node_id": "0.0-171.0"}}, {"uniqueid": "MTK0130:3X08E93BHWPU8QT6DCV2EX4NO8766P", "current_trial": 235, "dateTime": 1509290740319, "trialdata": {"rt": -1, "stimulus": "<p id=\"stim\">CANYON</p>", "key_press": -1, "type": "PRES_VIS", "word": "canyon", "wordID": 234, "conditions": [24, 1600, "v", 12000], "trial": 6, "serialpos": 22, "trial_type": "single-stim", "trial_index": 235, "time_elapsed": 1024392, "internal_node_id": "0.0-172.0"}}, {"uniqueid": "MTK0130:3X08E93BHWPU8QT6DCV2EX4NO8766P", "current_trial": 236, "dateTime": 1509290742862, "trialdata": {"rt": -1, "stimulus": "<p id=\"stim\">SHOULDER</p>", "key_press": -1, "type": "PRES_VIS", "word": "shoulder", "wordID": 1293, "conditions": [24, 1600, "v", 12000], "trial": 6, "serialpos": 23, "trial_type": "single-stim", "trial_index": 236, "time_elapsed": 1026935, "internal_node_id": "0.0-173.0"}}, {"uniqueid": "MTK0130:3X08E93BHWPU8QT6DCV2EX4NO8766P", "current_trial": 237, "dateTime": 1509290745108, "trialdata": {"rt": -1, "stimulus": "", "key_press": -1, "type": "PRE_RECALL_DELAY", "trial_type": "single-stim", "trial_index": 237, "time_elapsed": 1029181, "internal_node_id": "0.0-174.0-0.0"}}, {"uniqueid": "MTK0130:3X08E93BHWPU8QT6DCV2EX4NO8766P", "current_trial": 238, "dateTime": 1509290745613, "trialdata": {"rt": -1000, "stimulus": "/static/audio/400Hz.wav", "key_press": -1, "type": "PRE_RECALL_ALERT", "trial_type": "single-audio", "trial_index": 238, "time_elapsed": 1029686, "internal_node_id": "0.0-175.0"}}, {"uniqueid": "MTK0130:3X08E93BHWPU8QT6DCV2EX4NO8766P", "current_trial": 239, "dateTime": 1509290805622, "trialdata": {"rt": [1047, 2181, 3418, 4245, 4939, 6834, 14030, 15281, 16553, 23664, 39353], "recwords": ["leg", "shoulder", "canyon", "crater", "wife", "dime", "plaza", "basement", "sidewalk", "muffin", "princess"], "type": "FREE_RECALL", "conditions": [24, 1600, "v", 12000], "trial": 6, "trial_type": "free-recall", "trial_index": 239, "time_elapsed": 1089689, "internal_node_id": "0.0-176.0-0.0"}}, {"uniqueid": "MTK0130:3X08E93BHWPU8QT6DCV2EX4NO8766P", "current_trial": 240, "dateTime": 1509290809282, "trialdata": {"rt": 1657, "key_press": 68, "type": "INSTRUCTIONS", "trial_type": "text", "trial_index": 240, "time_elapsed": 1093355, "internal_node_id": "0.0-177.0"}}, {"uniqueid": "MTK0130:3X08E93BHWPU8QT6DCV2EX4NO8766P", "current_trial": 241, "dateTime": 1509290835309, "trialdata": {"rt": [2116, 5639, 8303, 10326, 12719, 16135, 19008, 22268], "responses": ["18", "18", "16", "12", "16", "24", "11", "188"], "num1": [1, 8, 3, 1, 1, 9, 2, 5, 4], "num2": [8, 9, 4, 2, 9, 6, 5, 4, 1], "num3": [9, 1, 9, 9, 6, 9, 4, 9, 8], "type": "DISTRACTOR", "conditions": [24, 800, "a", 24000], "trial": 7, "trial_type": "math-distractor", "trial_index": 241, "time_elapsed": 1119381, "internal_node_id": "0.0-178.0"}}, {"uniqueid": "MTK0130:3X08E93BHWPU8QT6DCV2EX4NO8766P", "current_trial": 242, "dateTime": 1509290838313, "trialdata": {"rt": -1, "stimulus": "<p id=\"stim\">10</p>", "key_press": -1, "trial_type": "single-stim", "trial_index": 242, "time_elapsed": 1122386, "internal_node_id": "0.0-179.0-0.0"}}, {"uniqueid": "MTK0130:3X08E93BHWPU8QT6DCV2EX4NO8766P", "current_trial": 243, "dateTime": 1509290839358, "trialdata": {"rt": -1, "stimulus": "<p id=\"stim\">9</p>", "key_press": -1, "trial_type": "single-stim", "trial_index": 243, "time_elapsed": 1123431, "internal_node_id": "0.0-179.0-1.0"}}, {"uniqueid": "MTK0130:3X08E93BHWPU8QT6DCV2EX4NO8766P", "current_trial": 244, "dateTime": 1509290840360, "trialdata": {"rt": -1, "stimulus": "<p id=\"stim\">8</p>", "key_press": -1, "trial_type": "single-stim", "trial_index": 244, "time_elapsed": 1124432, "internal_node_id": "0.0-179.0-2.0"}}, {"uniqueid": "MTK0130:3X08E93BHWPU8QT6DCV2EX4NO8766P", "current_trial": 245, "dateTime": 1509290841363, "trialdata": {"rt": -1, "stimulus": "<p id=\"stim\">7</p>", "key_press": -1, "trial_type": "single-stim", "trial_index": 245, "time_elapsed": 1125436, "internal_node_id": "0.0-179.0-3.0"}}, {"uniqueid": "MTK0130:3X08E93BHWPU8QT6DCV2EX4NO8766P", "current_trial": 246, "dateTime": 1509290842366, "trialdata": {"rt": -1, "stimulus": "<p id=\"stim\">6</p>", "key_press": -1, "trial_type": "single-stim", "trial_index": 246, "time_elapsed": 1126439, "internal_node_id": "0.0-179.0-4.0"}}, {"uniqueid": "MTK0130:3X08E93BHWPU8QT6DCV2EX4NO8766P", "current_trial": 247, "dateTime": 1509290843373, "trialdata": {"rt": -1, "stimulus": "<p id=\"stim\">5</p>", "key_press": -1, "trial_type": "single-stim", "trial_index": 247, "time_elapsed": 1127441, "internal_node_id": "0.0-179.0-5.0"}}, {"uniqueid": "MTK0130:3X08E93BHWPU8QT6DCV2EX4NO8766P", "current_trial": 248, "dateTime": 1509290844378, "trialdata": {"rt": -1, "stimulus": "<p id=\"stim\">4</p>", "key_press": -1, "trial_type": "single-stim", "trial_index": 248, "time_elapsed": 1128451, "internal_node_id": "0.0-179.0-6.0"}}, {"uniqueid": "MTK0130:3X08E93BHWPU8QT6DCV2EX4NO8766P", "current_trial": 249, "dateTime": 1509290845380, "trialdata": {"rt": -1, "stimulus": "<p id=\"stim\">3</p>", "key_press": -1, "trial_type": "single-stim", "trial_index": 249, "time_elapsed": 1129453, "internal_node_id": "0.0-179.0-7.0"}}, {"uniqueid": "MTK0130:3X08E93BHWPU8QT6DCV2EX4NO8766P", "current_trial": 250, "dateTime": 1509290846383, "trialdata": {"rt": -1, "stimulus": "<p id=\"stim\">2</p>", "key_press": -1, "trial_type": "single-stim", "trial_index": 250, "time_elapsed": 1130456, "internal_node_id": "0.0-179.0-8.0"}}, {"uniqueid": "MTK0130:3X08E93BHWPU8QT6DCV2EX4NO8766P", "current_trial": 251, "dateTime": 1509290847385, "trialdata": {"rt": -1, "stimulus": "<p id=\"stim\">1</p>", "key_press": -1, "trial_type": "single-stim", "trial_index": 251, "time_elapsed": 1131458, "internal_node_id": "0.0-179.0-9.0"}}, {"uniqueid": "MTK0130:3X08E93BHWPU8QT6DCV2EX4NO8766P", "current_trial": 252, "dateTime": 1509290848888, "trialdata": {"rt": -1, "stimulus": "<p id=\"stim\">+</p>", "key_press": -1, "type": "FIXATION", "trial_type": "single-stim", "trial_index": 252, "time_elapsed": 1132961, "internal_node_id": "0.0-180.0-0.0"}}, {"uniqueid": "MTK0130:3X08E93BHWPU8QT6DCV2EX4NO8766P", "current_trial": 253, "dateTime": 1509290850545, "trialdata": {"rt": -1000, "stimulus": "/static/audio/wordpool/POSTAGE.wav", "key_press": -1, "type": "PRES_AUD", "word": "postage", "wordID": 1112, "conditions": [24, 800, "a", 24000], "trial": 7, "serialpos": 0, "trial_type": "single-audio", "trial_index": 253, "time_elapsed": 1134618, "internal_node_id": "0.0-181.0"}}, {"uniqueid": "MTK0130:3X08E93BHWPU8QT6DCV2EX4NO8766P", "current_trial": 254, "dateTime": 1509290852163, "trialdata": {"rt": -1000, "stimulus": "/static/audio/wordpool/PUPPY.wav", "key_press": -1, "type": "PRES_AUD", "word": "puppy", "wordID": 1143, "conditions": [24, 800, "a", 24000], "trial": 7, "serialpos": 1, "trial_type": "single-audio", "trial_index": 254, "time_elapsed": 1136236, "internal_node_id": "0.0-182.0"}}, {"uniqueid": "MTK0130:3X08E93BHWPU8QT6DCV2EX4NO8766P", "current_trial": 255, "dateTime": 1509290854064, "trialdata": {"rt": -1000, "stimulus": "/static/audio/wordpool/RECEIPT.wav", "key_press": -1, "type": "PRES_AUD", "word": "receipt", "wordID": 1172, "conditions": [24, 800, "a", 24000], "trial": 7, "serialpos": 2, "trial_type": "single-audio", "trial_index": 255, "time_elapsed": 1138137, "internal_node_id": "0.0-183.0"}}, {"uniqueid": "MTK0130:3X08E93BHWPU8QT6DCV2EX4NO8766P", "current_trial": 256, "dateTime": 1509290855849, "trialdata": {"rt": -1000, "stimulus": "/static/audio/wordpool/NOMAD.wav", "key_press": -1, "type": "PRES_AUD", "word": "nomad", "wordID": 954, "conditions": [24, 800, "a", 24000], "trial": 7, "serialpos": 3, "trial_type": "single-audio", "trial_index": 256, "time_elapsed": 1139922, "internal_node_id": "0.0-184.0"}}, {"uniqueid": "MTK0130:3X08E93BHWPU8QT6DCV2EX4NO8766P", "current_trial": 257, "dateTime": 1509290857537, "trialdata": {"rt": -1000, "stimulus": "/static/audio/wordpool/TREAT.wav", "key_press": -1, "type": "PRES_AUD", "word": "treat", "wordID": 1500, "conditions": [24, 800, "a", 24000], "trial": 7, "serialpos": 4, "trial_type": "single-audio", "trial_index": 257, "time_elapsed": 1141610, "internal_node_id": "0.0-185.0"}}, {"uniqueid": "MTK0130:3X08E93BHWPU8QT6DCV2EX4NO8766P", "current_trial": 258, "dateTime": 1509290859348, "trialdata": {"rt": -1000, "stimulus": "/static/audio/wordpool/COUNTRY.wav", "key_press": -1, "type": "PRES_AUD", "word": "country", "wordID": 387, "conditions": [24, 800, "a", 24000], "trial": 7, "serialpos": 5, "trial_type": "single-audio", "trial_index": 258, "time_elapsed": 1143421, "internal_node_id": "0.0-186.0"}}, {"uniqueid": "MTK0130:3X08E93BHWPU8QT6DCV2EX4NO8766P", "current_trial": 259, "dateTime": 1509290861299, "trialdata": {"rt": -1000, "stimulus": "/static/audio/wordpool/SPOON.wav", "key_press": -1, "type": "PRES_AUD", "word": "spoon", "wordID": 1356, "conditions": [24, 800, "a", 24000], "trial": 7, "serialpos": 6, "trial_type": "single-audio", "trial_index": 259, "time_elapsed": 1145371, "internal_node_id": "0.0-187.0"}}, {"uniqueid": "MTK0130:3X08E93BHWPU8QT6DCV2EX4NO8766P", "current_trial": 260, "dateTime": 1509290863140, "trialdata": {"rt": -1000, "stimulus": "/static/audio/wordpool/CABBAGE.wav", "key_press": -1, "type": "PRES_AUD", "word": "cabbage", "wordID": 209, "conditions": [24, 800, "a", 24000], "trial": 7, "serialpos": 7, "trial_type": "single-audio", "trial_index": 260, "time_elapsed": 1147213, "internal_node_id": "0.0-188.0"}}, {"uniqueid": "MTK0130:3X08E93BHWPU8QT6DCV2EX4NO8766P", "current_trial": 261, "dateTime": 1509290865039, "trialdata": {"rt": -1000, "stimulus": "/static/audio/wordpool/SODA.wav", "key_press": -1, "type": "PRES_AUD", "word": "soda", "wordID": 1340, "conditions": [24, 800, "a", 24000], "trial": 7, "serialpos": 8, "trial_type": "single-audio", "trial_index": 261, "time_elapsed": 1149112, "internal_node_id": "0.0-189.0"}}, {"uniqueid": "MTK0130:3X08E93BHWPU8QT6DCV2EX4NO8766P", "current_trial": 262, "dateTime": 1509290866684, "trialdata": {"rt": -1000, "stimulus": "/static/audio/wordpool/COFFEE.wav", "key_press": -1, "type": "PRES_AUD", "word": "coffee", "wordID": 340, "conditions": [24, 800, "a", 24000], "trial": 7, "serialpos": 9, "trial_type": "single-audio", "trial_index": 262, "time_elapsed": 1150757, "internal_node_id": "0.0-190.0"}}, {"uniqueid": "MTK0130:3X08E93BHWPU8QT6DCV2EX4NO8766P", "current_trial": 263, "dateTime": 1509290868470, "trialdata": {"rt": -1000, "stimulus": "/static/audio/wordpool/ITEM.wav", "key_press": -1, "type": "PRES_AUD", "word": "item", "wordID": 745, "conditions": [24, 800, "a", 24000], "trial": 7, "serialpos": 10, "trial_type": "single-audio", "trial_index": 263, "time_elapsed": 1152543, "internal_node_id": "0.0-191.0"}}, {"uniqueid": "MTK0130:3X08E93BHWPU8QT6DCV2EX4NO8766P", "current_trial": 264, "dateTime": 1509290870471, "trialdata": {"rt": -1000, "stimulus": "/static/audio/wordpool/BABY.wav", "key_press": -1, "type": "PRES_AUD", "word": "baby", "wordID": 63, "conditions": [24, 800, "a", 24000], "trial": 7, "serialpos": 11, "trial_type": "single-audio", "trial_index": 264, "time_elapsed": 1154543, "internal_node_id": "0.0-192.0"}}, {"uniqueid": "MTK0130:3X08E93BHWPU8QT6DCV2EX4NO8766P", "current_trial": 265, "dateTime": 1509290872117, "trialdata": {"rt": -1000, "stimulus": "/static/audio/wordpool/GARDEN.wav", "key_press": -1, "type": "PRES_AUD", "word": "garden", "wordID": 622, "conditions": [24, 800, "a", 24000], "trial": 7, "serialpos": 12, "trial_type": "single-audio", "trial_index": 265, "time_elapsed": 1156190, "internal_node_id": "0.0-193.0"}}, {"uniqueid": "MTK0130:3X08E93BHWPU8QT6DCV2EX4NO8766P", "current_trial": 266, "dateTime": 1509290873830, "trialdata": {"rt": -1000, "stimulus": "/static/audio/wordpool/CREATURE.wav", "key_press": -1, "type": "PRES_AUD", "word": "creature", "wordID": 402, "conditions": [24, 800, "a", 24000], "trial": 7, "serialpos": 13, "trial_type": "single-audio", "trial_index": 266, "time_elapsed": 1157903, "internal_node_id": "0.0-194.0"}}, {"uniqueid": "MTK0130:3X08E93BHWPU8QT6DCV2EX4NO8766P", "current_trial": 267, "dateTime": 1509290875815, "trialdata": {"rt": -1000, "stimulus": "/static/audio/wordpool/SHARK.wav", "key_press": -1, "type": "PRES_AUD", "word": "shark", "wordID": 1274, "conditions": [24, 800, "a", 24000], "trial": 7, "serialpos": 14, "trial_type": "single-audio", "trial_index": 267, "time_elapsed": 1159888, "internal_node_id": "0.0-195.0"}}, {"uniqueid": "MTK0130:3X08E93BHWPU8QT6DCV2EX4NO8766P", "current_trial": 268, "dateTime": 1509290877552, "trialdata": {"rt": -1000, "stimulus": "/static/audio/wordpool/MAMMAL.wav", "key_press": -1, "type": "PRES_AUD", "word": "mammal", "wordID": 860, "conditions": [24, 800, "a", 24000], "trial": 7, "serialpos": 15, "trial_type": "single-audio", "trial_index": 268, "time_elapsed": 1161624, "internal_node_id": "0.0-196.0"}}, {"uniqueid": "MTK0130:3X08E93BHWPU8QT6DCV2EX4NO8766P", "current_trial": 269, "dateTime": 1509290879484, "trialdata": {"rt": -1000, "stimulus": "/static/audio/wordpool/HATCHET.wav", "key_press": -1, "type": "PRES_AUD", "word": "hatchet", "wordID": 690, "conditions": [24, 800, "a", 24000], "trial": 7, "serialpos": 16, "trial_type": "single-audio", "trial_index": 269, "time_elapsed": 1163556, "internal_node_id": "0.0-197.0"}}, {"uniqueid": "MTK0130:3X08E93BHWPU8QT6DCV2EX4NO8766P", "current_trial": 270, "dateTime": 1509290881450, "trialdata": {"rt": -1000, "stimulus": "/static/audio/wordpool/FRIEND.wav", "key_press": -1, "type": "PRES_AUD", "word": "friend", "wordID": 605, "conditions": [24, 800, "a", 24000], "trial": 7, "serialpos": 17, "trial_type": "single-audio", "trial_index": 270, "time_elapsed": 1165523, "internal_node_id": "0.0-198.0"}}, {"uniqueid": "MTK0130:3X08E93BHWPU8QT6DCV2EX4NO8766