{"condition": 0, "counterbalance": 2287, "assignmentId": "33OOO72IVISPQ5DJJGGYB7OB8SLCTA", "workerId": "MTK0959", "hitId": "33W1NHWFYHS0BEQZLSV4XLTC12QZT8", "currenttrial": 626, "bonus": 0, "data": [{"uniqueid": "MTK0959:33OOO72IVISPQ5DJJGGYB7OB8SLCTA", "current_trial": 0, "dateTime": 1512937003858, "trialdata": {"rt": 1800, "key_press": 32, "type": "INSTRUCTIONS", "trial_type": "text", "trial_index": 0, "time_elapsed": 1803, "internal_node_id": "0.0-0.0"}}, {"uniqueid": "MTK0959:33OOO72IVISPQ5DJJGGYB7OB8SLCTA", "current_trial": 1, "dateTime": 1512937013336, "trialdata": {"rt": 9476, "key_press": 32, "type": "INSTRUCTIONS", "trial_type": "text", "trial_index": 1, "time_elapsed": 11281, "internal_node_id": "0.0-1.0"}}, {"uniqueid": "MTK0959:33OOO72IVISPQ5DJJGGYB7OB8SLCTA", "current_trial": 2, "dateTime": 1512937035449, "trialdata": {"rt": [22104], "responses": ["ocean"], "type": "AUDIO_TEST", "trial_type": "audio-test", "trial_index": 2, "time_elapsed": 33395, "internal_node_id": "0.0-2.0"}}, {"uniqueid": "MTK0959:33OOO72IVISPQ5DJJGGYB7OB8SLCTA", "current_trial": 3, "dateTime": 1512937064856, "trialdata": {"rt": [13341, 29400], "responses": ["pistol", "crystal"], "type": "AUDIO_TEST", "trial_type": "audio-test", "trial_index": 3, "time_elapsed": 62801, "internal_node_id": "0.0-3.0"}}, {"uniqueid": "MTK0959:33OOO72IVISPQ5DJJGGYB7OB8SLCTA", "current_trial": 4, "dateTime": 1512937070734, "trialdata": {"rt": [5874], "responses": ["spice"], "type": "AUDIO_TEST", "trial_type": "audio-test", "trial_index": 4, "time_elapsed": 68680, "internal_node_id": "0.0-4.0"}}, {"uniqueid": "MTK0959:33OOO72IVISPQ5DJJGGYB7OB8SLCTA", "current_trial": 5, "dateTime": 1512937083626, "trialdata": {"rt": 12139, "responses": "{\"Q0\":\"10\",\"Q1\":\"7\",\"Q2\":\"5\"}", "type": "SLEEP_SURVEY", "trial_type": "survey-text", "trial_index": 5, "time_elapsed": 81572, "internal_node_id": "0.0-5.0"}}, {"uniqueid": "MTK0959:33OOO72IVISPQ5DJJGGYB7OB8SLCTA", "current_trial": 6, "dateTime": 1512937106447, "trialdata": {"rt": 21819, "key_press": 32, "type": "INSTRUCTIONS", "trial_type": "text", "trial_index": 6, "time_elapsed": 104393, "internal_node_id": "0.0-6.0"}}, {"uniqueid": "MTK0959:33OOO72IVISPQ5DJJGGYB7OB8SLCTA", "current_trial": 7, "dateTime": 1512937114257, "trialdata": {"rt": 7307, "key_press": 32, "type": "INSTRUCTIONS", "trial_type": "text", "trial_index": 7, "time_elapsed": 112203, "internal_node_id": "0.0-7.0"}}, {"uniqueid": "MTK0959:33OOO72IVISPQ5DJJGGYB7OB8SLCTA", "current_trial": 8, "dateTime": 1512937119653, "trialdata": {"rt": 4892, "key_press": 32, "type": "INSTRUCTIONS", "trial_type": "text", "trial_index": 8, "time_elapsed": 117599, "internal_node_id": "0.0-8.0"}}, {"uniqueid": "MTK0959:33OOO72IVISPQ5DJJGGYB7OB8SLCTA", "current_trial": 9, "dateTime": 1512937138705, "trialdata": {"rt": [3944, 5975, 9380, 12863, 15693], "responses": ["11", "7", "19", "17", "17"], "num1": [1, 1, 7, 6, 4, 3], "num2": [5, 5, 5, 6, 9, 8], "num3": [5, 1, 7, 5, 4, 1], "type": "DISTRACTOR", "conditions": [18, 1200, "v", 18000], "trial": 0, "trial_type": "math-distractor", "trial_index": 9, "time_elapsed": 136650, "internal_node_id": "0.0-9.0"}}, {"uniqueid": "MTK0959:33OOO72IVISPQ5DJJGGYB7OB8SLCTA", "current_trial": 10, "dateTime": 1512937141708, "trialdata": {"rt": -1, "stimulus": "<p id=\"stim\">10</p>", "key_press": -1, "trial_type": "single-stim", "trial_index": 10, "time_elapsed": 139654, "internal_node_id": "0.0-10.0-0.0"}}, {"uniqueid": "MTK0959:33OOO72IVISPQ5DJJGGYB7OB8SLCTA", "current_trial": 11, "dateTime": 1512937142709, "trialdata": {"rt": -1, "stimulus": "<p id=\"stim\">9</p>", "key_press": -1, "trial_type": "single-stim", "trial_index": 11, "time_elapsed": 140655, "internal_node_id": "0.0-10.0-1.0"}}, {"uniqueid": "MTK0959:33OOO72IVISPQ5DJJGGYB7OB8SLCTA", "current_trial": 12, "dateTime": 1512937143711, "trialdata": {"rt": -1, "stimulus": "<p id=\"stim\">8</p>", "key_press": -1, "trial_type": "single-stim", "trial_index": 12, "time_elapsed": 141657, "internal_node_id": "0.0-10.0-2.0"}}, {"uniqueid": "MTK0959:33OOO72IVISPQ5DJJGGYB7OB8SLCTA", "current_trial": 13, "dateTime": 1512937144713, "trialdata": {"rt": -1, "stimulus": "<p id=\"stim\">7</p>", "key_press": -1, "trial_type": "single-stim", "trial_index": 13, "time_elapsed": 142659, "internal_node_id": "0.0-10.0-3.0"}}, {"uniqueid": "MTK0959:33OOO72IVISPQ5DJJGGYB7OB8SLCTA", "current_trial": 14, "dateTime": 1512937145719, "trialdata": {"rt": -1, "stimulus": "<p id=\"stim\">6</p>", "key_press": -1, "trial_type": "single-stim", "trial_index": 14, "time_elapsed": 143665, "internal_node_id": "0.0-10.0-4.0"}}, {"uniqueid": "MTK0959:33OOO72IVISPQ5DJJGGYB7OB8SLCTA", "current_trial": 15, "dateTime": 1512937146745, "trialdata": {"rt": -1, "stimulus": "<p id=\"stim\">5</p>", "key_press": -1, "trial_type": "single-stim", "trial_index": 15, "time_elapsed": 144691, "internal_node_id": "0.0-10.0-5.0"}}, {"uniqueid": "MTK0959:33OOO72IVISPQ5DJJGGYB7OB8SLCTA", "current_trial": 16, "dateTime": 1512937147763, "trialdata": {"rt": -1, "stimulus": "<p id=\"stim\">4</p>", "key_press": -1, "trial_type": "single-stim", "trial_index": 16, "time_elapsed": 145709, "internal_node_id": "0.0-10.0-6.0"}}, {"uniqueid": "MTK0959:33OOO72IVISPQ5DJJGGYB7OB8SLCTA", "current_trial": 17, "dateTime": 1512937148764, "trialdata": {"rt": -1, "stimulus": "<p id=\"stim\">3</p>", "key_press": -1, "trial_type": "single-stim", "trial_index": 17, "time_elapsed": 146710, "internal_node_id": "0.0-10.0-7.0"}}, {"uniqueid": "MTK0959:33OOO72IVISPQ5DJJGGYB7OB8SLCTA", "current_trial": 18, "dateTime": 1512937149766, "trialdata": {"rt": -1, "stimulus": "<p id=\"stim\">2</p>", "key_press": -1, "trial_type": "single-stim", "trial_index": 18, "time_elapsed": 147712, "internal_node_id": "0.0-10.0-8.0"}}, {"uniqueid": "MTK0959:33OOO72IVISPQ5DJJGGYB7OB8SLCTA", "current_trial": 19, "dateTime": 1512937150767, "trialdata": {"rt": -1, "stimulus": "<p id=\"stim\">1</p>", "key_press": -1, "trial_type": "single-stim", "trial_index": 19, "time_elapsed": 148713, "internal_node_id": "0.0-10.0-9.0"}}, {"uniqueid": "MTK0959:33OOO72IVISPQ5DJJGGYB7OB8SLCTA", "current_trial": 20, "dateTime": 1512937152269, "trialdata": {"rt": -1, "stimulus": "<p id=\"stim\">+</p>", "key_press": -1, "type": "FIXATION", "trial_type": "single-stim", "trial_index": 20, "time_elapsed": 150215, "internal_node_id": "0.0-11.0-0.0"}}, {"uniqueid": "MTK0959:33OOO72IVISPQ5DJJGGYB7OB8SLCTA", "current_trial": 21, "dateTime": 1512937153470, "trialdata": {"rt": -1, "stimulus": "<p id=\"stim\">PUDDLE</p>", "key_press": -1, "type": "PRES_VIS", "word": "puddle", "wordID": 1139, "conditions": [18, 1200, "v", 18000], "trial": 0, "serialpos": 0, "trial_type": "single-stim", "trial_index": 21, "time_elapsed": 151416, "internal_node_id": "0.0-12.0"}}, {"uniqueid": "MTK0959:33OOO72IVISPQ5DJJGGYB7OB8SLCTA", "current_trial": 22, "dateTime": 1512937155752, "trialdata": {"rt": -1, "stimulus": "<p id=\"stim\">PICTURE</p>", "key_press": -1, "type": "PRES_VIS", "word": "picture", "wordID": 1060, "conditions": [18, 1200, "v", 18000], "trial": 0, "serialpos": 1, "trial_type": "single-stim", "trial_index": 22, "time_elapsed": 153698, "internal_node_id": "0.0-13.0"}}, {"uniqueid": "MTK0959:33OOO72IVISPQ5DJJGGYB7OB8SLCTA", "current_trial": 23, "dateTime": 1512937157817, "trialdata": {"rt": -1, "stimulus": "<p id=\"stim\">GLASS</p>", "key_press": -1, "type": "PRES_VIS", "word": "glass", "wordID": 638, "conditions": [18, 1200, "v", 18000], "trial": 0, "serialpos": 2, "trial_type": "single-stim", "trial_index": 23, "time_elapsed": 155763, "internal_node_id": "0.0-14.0"}}, {"uniqueid": "MTK0959:33OOO72IVISPQ5DJJGGYB7OB8SLCTA", "current_trial": 24, "dateTime": 1512937160104, "trialdata": {"rt": -1, "stimulus": "<p id=\"stim\">GRAVE</p>", "key_press": -1, "type": "PRES_VIS", "word": "grave", "wordID": 657, "conditions": [18, 1200, "v", 18000], "trial": 0, "serialpos": 3, "trial_type": "single-stim", "trial_index": 24, "time_elapsed": 158050, "internal_node_id": "0.0-15.0"}}, {"uniqueid": "MTK0959:33OOO72IVISPQ5DJJGGYB7OB8SLCTA", "current_trial": 25, "dateTime": 1512937162254, "trialdata": {"rt": -1, "stimulus": "<p id=\"stim\">FLIPPER</p>", "key_press": -1, "type": "PRES_VIS", "word": "flipper", "wordID": 579, "conditions": [18, 1200, "v", 18000], "trial": 0, "serialpos": 4, "trial_type": "single-stim", "trial_index": 25, "time_elapsed": 160200, "internal_node_id": "0.0-16.0"}}, {"uniqueid": "MTK0959:33OOO72IVISPQ5DJJGGYB7OB8SLCTA", "current_trial": 26, "dateTime": 1512937164668, "trialdata": {"rt": -1, "stimulus": "<p id=\"stim\">LEG</p>", "key_press": -1, "type": "PRES_VIS", "word": "leg", "wordID": 808, "conditions": [18, 1200, "v", 18000], "trial": 0, "serialpos": 5, "trial_type": "single-stim", "trial_index": 26, "time_elapsed": 162613, "internal_node_id": "0.0-17.0"}}, {"uniqueid": "MTK0959:33OOO72IVISPQ5DJJGGYB7OB8SLCTA", "current_trial": 27, "dateTime": 1512937166719, "trialdata": {"rt": -1, "stimulus": "<p id=\"stim\">SHELF</p>", "key_press": -1, "type": "PRES_VIS", "word": "shelf", "wordID": 1279, "conditions": [18, 1200, "v", 18000], "trial": 0, "serialpos": 6, "trial_type": "single-stim", "trial_index": 27, "time_elapsed": 164665, "internal_node_id": "0.0-18.0"}}, {"uniqueid": "MTK0959:33OOO72IVISPQ5DJJGGYB7OB8SLCTA", "current_trial": 28, "dateTime": 1512937169050, "trialdata": {"rt": -1, "stimulus": "<p id=\"stim\">CABIN</p>", "key_press": -1, "type": "PRES_VIS", "word": "cabin", "wordID": 210, "conditions": [18, 1200, "v", 18000], "trial": 0, "serialpos": 7, "trial_type": "single-stim", "trial_index": 28, "time_elapsed": 166996, "internal_node_id": "0.0-19.0"}}, {"uniqueid": "MTK0959:33OOO72IVISPQ5DJJGGYB7OB8SLCTA", "current_trial": 29, "dateTime": 1512937171300, "trialdata": {"rt": -1, "stimulus": "<p id=\"stim\">STREAM</p>", "key_press": -1, "type": "PRES_VIS", "word": "stream", "wordID": 1391, "conditions": [18, 1200, "v", 18000], "trial": 0, "serialpos": 8, "trial_type": "single-stim", "trial_index": 29, "time_elapsed": 169246, "internal_node_id": "0.0-20.0"}}, {"uniqueid": "MTK0959:33OOO72IVISPQ5DJJGGYB7OB8SLCTA", "current_trial": 30, "dateTime": 1512937173331, "trialdata": {"rt": -1, "stimulus": "<p id=\"stim\">WITNESS</p>", "key_press": -1, "type": "PRES_VIS", "word": "witness", "wordID": 1617, "conditions": [18, 1200, "v", 18000], "trial": 0, "serialpos": 9, "trial_type": "single-stim", "trial_index": 30, "time_elapsed": 171277, "internal_node_id": "0.0-21.0"}}, {"uniqueid": "MTK0959:33OOO72IVISPQ5DJJGGYB7OB8SLCTA", "current_trial": 31, "dateTime": 1512937175485, "trialdata": {"rt": -1, "stimulus": "<p id=\"stim\">PORK</p>", "key_press": -1, "type": "PRES_VIS", "word": "pork", "wordID": 1107, "conditions": [18, 1200, "v", 18000], "trial": 0, "serialpos": 10, "trial_type": "single-stim", "trial_index": 31, "time_elapsed": 173431, "internal_node_id": "0.0-22.0"}}, {"uniqueid": "MTK0959:33OOO72IVISPQ5DJJGGYB7OB8SLCTA", "current_trial": 32, "dateTime": 1512937177820, "trialdata": {"rt": -1, "stimulus": "<p id=\"stim\">CHAUFFEUR</p>", "key_press": -1, "type": "PRES_VIS", "word": "chauffeur", "wordID": 282, "conditions": [18, 1200, "v", 18000], "trial": 0, "serialpos": 11, "trial_type": "single-stim", "trial_index": 32, "time_elapsed": 175766, "internal_node_id": "0.0-23.0"}}, {"uniqueid": "MTK0959:33OOO72IVISPQ5DJJGGYB7OB8SLCTA", "current_trial": 33, "dateTime": 1512937179996, "trialdata": {"rt": -1, "stimulus": "<p id=\"stim\">PARROT</p>", "key_press": -1, "type": "PRES_VIS", "word": "parrot", "wordID": 1014, "conditions": [18, 1200, "v", 18000], "trial": 0, "serialpos": 12, "trial_type": "single-stim", "trial_index": 33, "time_elapsed": 177942, "internal_node_id": "0.0-24.0"}}, {"uniqueid": "MTK0959:33OOO72IVISPQ5DJJGGYB7OB8SLCTA", "current_trial": 34, "dateTime": 1512937182227, "trialdata": {"rt": -1, "stimulus": "<p id=\"stim\">CONVICT</p>", "key_press": -1, "type": "PRES_VIS", "word": "convict", "wordID": 370, "conditions": [18, 1200, "v", 18000], "trial": 0, "serialpos": 13, "trial_type": "single-stim", "trial_index": 34, "time_elapsed": 180173, "internal_node_id": "0.0-25.0"}}, {"uniqueid": "MTK0959:33OOO72IVISPQ5DJJGGYB7OB8SLCTA", "current_trial": 35, "dateTime": 1512937184339, "trialdata": {"rt": -1, "stimulus": "<p id=\"stim\">PEPPER</p>", "key_press": -1, "type": "PRES_VIS", "word": "pepper", "wordID": 1046, "conditions": [18, 1200, "v", 18000], "trial": 0, "serialpos": 14, "trial_type": "single-stim", "trial_index": 35, "time_elapsed": 182285, "internal_node_id": "0.0-26.0"}}, {"uniqueid": "MTK0959:33OOO72IVISPQ5DJJGGYB7OB8SLCTA", "current_trial": 36, "dateTime": 1512937186577, "trialdata": {"rt": -1, "stimulus": "<p id=\"stim\">VENUS</p>", "key_press": -1, "type": "PRES_VIS", "word": "venus", "wordID": 1556, "conditions": [18, 1200, "v", 18000], "trial": 0, "serialpos": 15, "trial_type": "single-stim", "trial_index": 36, "time_elapsed": 184523, "internal_node_id": "0.0-27.0"}}, {"uniqueid": "MTK0959:33OOO72IVISPQ5DJJGGYB7OB8SLCTA", "current_trial": 37, "dateTime": 1512937188963, "trialdata": {"rt": -1, "stimulus": "<p id=\"stim\">CRITIC</p>", "key_press": -1, "type": "PRES_VIS", "word": "critic", "wordID": 409, "conditions": [18, 1200, "v", 18000], "trial": 0, "serialpos": 16, "trial_type": "single-stim", "trial_index": 37, "time_elapsed": 186909, "internal_node_id": "0.0-28.0"}}, {"uniqueid": "MTK0959:33OOO72IVISPQ5DJJGGYB7OB8SLCTA", "current_trial": 38, "dateTime": 1512937191353, "trialdata": {"rt": -1, "stimulus": "<p id=\"stim\">MILK</p>", "key_press": -1, "type": "PRES_VIS", "word": "milk", "wordID": 894, "conditions": [18, 1200, "v", 18000], "trial": 0, "serialpos": 17, "trial_type": "single-stim", "trial_index": 38, "time_elapsed": 189299, "internal_node_id": "0.0-29.0"}}, {"uniqueid": "MTK0959:33OOO72IVISPQ5DJJGGYB7OB8SLCTA", "current_trial": 39, "dateTime": 1512937193609, "trialdata": {"rt": -1, "stimulus": "", "key_press": -1, "type": "PRE_RECALL_DELAY", "trial_type": "single-stim", "trial_index": 39, "time_elapsed": 191555, "internal_node_id": "0.0-30.0-0.0"}}, {"uniqueid": "MTK0959:33OOO72IVISPQ5DJJGGYB7OB8SLCTA", "current_trial": 40, "dateTime": 1512937194113, "trialdata": {"rt": -1000, "stimulus": "/static/audio/400Hz.wav", "key_press": -1, "type": "PRE_RECALL_ALERT", "trial_type": "single-audio", "trial_index": 40, "time_elapsed": 192059, "internal_node_id": "0.0-31.0"}}, {"uniqueid": "MTK0959:33OOO72IVISPQ5DJJGGYB7OB8SLCTA", "current_trial": 41, "dateTime": 1512937254118, "trialdata": {"rt": [3307, 7686, 9883, 13474, 17009, 19843, 26714, 29233, 31485, 31925, 45512, 47732, 48023, 48530, 48740], "recwords": ["milk", "grave", "pepper", "leg", "shelf", "picture", "star", "people", "", "", "group", "", "", "", ""], "type": "FREE_RECALL", "conditions": [18, 1200, "v", 18000], "trial": 0, "trial_type": "free-recall", "trial_index": 41, "time_elapsed": 252062, "internal_node_id": "0.0-32.0-0.0"}}, {"uniqueid": "MTK0959:33OOO72IVISPQ5DJJGGYB7OB8SLCTA", "current_trial": 42, "dateTime": 1512937257861, "trialdata": {"rt": 1740, "key_press": 32, "type": "INSTRUCTIONS", "trial_type": "text", "trial_index": 42, "time_elapsed": 255807, "internal_node_id": "0.0-33.0"}}, {"uniqueid": "MTK0959:33OOO72IVISPQ5DJJGGYB7OB8SLCTA", "current_trial": 43, "dateTime": 1512937277863, "trialdata": {"rt": [2534, 5374, 8304, 9979, 13188, 16248], "responses": ["16", "16", "10", "12", "12", "22"], "num1": [2, 4, 3, 1, 1, 8, 1], "num2": [7, 8, 3, 2, 7, 9, 6], "num3": [7, 4, 4, 9, 4, 5, 8], "type": "DISTRACTOR", "conditions": [18, 1200, "a", 18000], "trial": 1, "trial_type": "math-distractor", "trial_index": 43, "time_elapsed": 275809, "internal_node_id": "0.0-34.0"}}, {"uniqueid": "MTK0959:33OOO72IVISPQ5DJJGGYB7OB8SLCTA", "current_trial": 44, "dateTime": 1512937280881, "trialdata": {"rt": -1, "stimulus": "<p id=\"stim\">10</p>", "key_press": -1, "trial_type": "single-stim", "trial_index": 44, "time_elapsed": 278827, "internal_node_id": "0.0-35.0-0.0"}}, {"uniqueid": "MTK0959:33OOO72IVISPQ5DJJGGYB7OB8SLCTA", "current_trial": 45, "dateTime": 1512937281882, "trialdata": {"rt": -1, "stimulus": "<p id=\"stim\">9</p>", "key_press": -1, "trial_type": "single-stim", "trial_index": 45, "time_elapsed": 279828, "internal_node_id": "0.0-35.0-1.0"}}, {"uniqueid": "MTK0959:33OOO72IVISPQ5DJJGGYB7OB8SLCTA", "current_trial": 46, "dateTime": 1512937282884, "trialdata": {"rt": -1, "stimulus": "<p id=\"stim\">8</p>", "key_press": -1, "trial_type": "single-stim", "trial_index": 46, "time_elapsed": 280830, "internal_node_id": "0.0-35.0-2.0"}}, {"uniqueid": "MTK0959:33OOO72IVISPQ5DJJGGYB7OB8SLCTA", "current_trial": 47, "dateTime": 1512937283885, "trialdata": {"rt": -1, "stimulus": "<p id=\"stim\">7</p>", "key_press": -1, "trial_type": "single-stim", "trial_index": 47, "time_elapsed": 281831, "internal_node_id": "0.0-35.0-3.0"}}, {"uniqueid": "MTK0959:33OOO72IVISPQ5DJJGGYB7OB8SLCTA", "current_trial": 48, "dateTime": 1512937284886, "trialdata": {"rt": -1, "stimulus": "<p id=\"stim\">6</p>", "key_press": -1, "trial_type": "single-stim", "trial_index": 48, "time_elapsed": 282832, "internal_node_id": "0.0-35.0-4.0"}}, {"uniqueid": "MTK0959:33OOO72IVISPQ5DJJGGYB7OB8SLCTA", "current_trial": 49, "dateTime": 1512937285887, "trialdata": {"rt": -1, "stimulus": "<p id=\"stim\">5</p>", "key_press": -1, "trial_type": "single-stim", "trial_index": 49, "time_elapsed": 283833, "internal_node_id": "0.0-35.0-5.0"}}, {"uniqueid": "MTK0959:33OOO72IVISPQ5DJJGGYB7OB8SLCTA", "current_trial": 50, "dateTime": 1512937286889, "trialdata": {"rt": -1, "stimulus": "<p id=\"stim\">4</p>", "key_press": -1, "trial_type": "single-stim", "trial_index": 50, "time_elapsed": 284835, "internal_node_id": "0.0-35.0-6.0"}}, {"uniqueid": "MTK0959:33OOO72IVISPQ5DJJGGYB7OB8SLCTA", "current_trial": 51, "dateTime": 1512937287890, "trialdata": {"rt": -1, "stimulus": "<p id=\"stim\">3</p>", "key_press": -1, "trial_type": "single-stim", "trial_index": 51, "time_elapsed": 285836, "internal_node_id": "0.0-35.0-7.0"}}, {"uniqueid": "MTK0959:33OOO72IVISPQ5DJJGGYB7OB8SLCTA", "current_trial": 52, "dateTime": 1512937288891, "trialdata": {"rt": -1, "stimulus": "<p id=\"stim\">2</p>", "key_press": -1, "trial_type": "single-stim", "trial_index": 52, "time_elapsed": 286837, "internal_node_id": "0.0-35.0-8.0"}}, {"uniqueid": "MTK0959:33OOO72IVISPQ5DJJGGYB7OB8SLCTA", "current_trial": 53, "dateTime": 1512937289893, "trialdata": {"rt": -1, "stimulus": "<p id=\"stim\">1</p>", "key_press": -1, "trial_type": "single-stim", "trial_index": 53, "time_elapsed": 287839, "internal_node_id": "0.0-35.0-9.0"}}, {"uniqueid": "MTK0959:33OOO72IVISPQ5DJJGGYB7OB8SLCTA", "current_trial": 54, "dateTime": 1512937291429, "trialdata": {"rt": -1, "stimulus": "<p id=\"stim\">+</p>", "key_press": -1, "type": "FIXATION", "trial_type": "single-stim", "trial_index": 54, "time_elapsed": 289375, "internal_node_id": "0.0-36.0-0.0"}}, {"uniqueid": "MTK0959:33OOO72IVISPQ5DJJGGYB7OB8SLCTA", "current_trial": 55, "dateTime": 1512937293548, "trialdata": {"rt": -1000, "stimulus": "/static/audio/wordpool/HELMET.wav", "key_press": -1, "type": "PRES_AUD", "word": "helmet", "wordID": 701, "conditions": [18, 1200, "a", 18000], "trial": 1, "serialpos": 0, "trial_type": "single-audio", "trial_index": 55, "time_elapsed": 291493, "internal_node_id": "0.0-37.0"}}, {"uniqueid": "MTK0959:33OOO72IVISPQ5DJJGGYB7OB8SLCTA", "current_trial": 56, "dateTime": 1512937295796, "trialdata": {"rt": -1000, "stimulus": "/static/audio/wordpool/CROWN.wav", "key_press": -1, "type": "PRES_AUD", "word": "crown", "wordID": 414, "conditions": [18, 1200, "a", 18000], "trial": 1, "serialpos": 1, "trial_type": "single-audio", "trial_index": 56, "time_elapsed": 293742, "internal_node_id": "0.0-38.0"}}, {"uniqueid": "MTK0959:33OOO72IVISPQ5DJJGGYB7OB8SLCTA", "current_trial": 57, "dateTime": 1512937297855, "trialdata": {"rt": -1000, "stimulus": "/static/audio/wordpool/OUTDOORS.wav", "key_press": -1, "type": "PRES_AUD", "word": "outdoors", "wordID": 986, "conditions": [18, 1200, "a", 18000], "trial": 1, "serialpos": 2, "trial_type": "single-audio", "trial_index": 57, "time_elapsed": 295801, "internal_node_id": "0.0-39.0"}}, {"uniqueid": "MTK0959:33OOO72IVISPQ5DJJGGYB7OB8SLCTA", "current_trial": 58, "dateTime": 1512937300122, "trialdata": {"rt": -1000, "stimulus": "/static/audio/wordpool/SOFTBALL.wav", "key_press": -1, "type": "PRES_AUD", "word": "softball", "wordID": 1342, "conditions": [18, 1200, "a", 18000], "trial": 1, "serialpos": 3, "trial_type": "single-audio", "trial_index": 58, "time_elapsed": 298068, "internal_node_id": "0.0-40.0"}}, {"uniqueid": "MTK0959:33OOO72IVISPQ5DJJGGYB7OB8SLCTA", "current_trial": 59, "dateTime": 1512937302155, "trialdata": {"rt": -1000, "stimulus": "/static/audio/wordpool/SEAFOOD.wav", "key_press": -1, "type": "PRES_AUD", "word": "seafood", "wordID": 1259, "conditions": [18, 1200, "a", 18000], "trial": 1, "serialpos": 4, "trial_type": "single-audio", "trial_index": 59, "time_elapsed": 300101, "internal_node_id": "0.0-41.0"}}, {"uniqueid": "MTK0959:33OOO72IVISPQ5DJJGGYB7OB8SLCTA", "current_trial": 60, "dateTime": 1512937304553, "trialdata": {"rt": -1000, "stimulus": "/static/audio/wordpool/GLOBE.wav", "key_press": -1, "type": "PRES_AUD", "word": "globe", "wordID": 640, "conditions": [18, 1200, "a", 18000], "trial": 1, "serialpos": 5, "trial_type": "single-audio", "trial_index": 60, "time_elapsed": 302499, "internal_node_id": "0.0-42.0"}}, {"uniqueid": "MTK0959:33OOO72IVISPQ5DJJGGYB7OB8SLCTA", "current_trial": 61, "dateTime": 1512937306715, "trialdata": {"rt": -1000, "stimulus": "/static/audio/wordpool/SPOON.wav", "key_press": -1, "type": "PRES_AUD", "word": "spoon", "wordID": 1356, "conditions": [18, 1200, "a", 18000], "trial": 1, "serialpos": 6, "trial_type": "single-audio", "trial_index": 61, "time_elapsed": 304660, "internal_node_id": "0.0-43.0"}}, {"uniqueid": "MTK0959:33OOO72IVISPQ5DJJGGYB7OB8SLCTA", "current_trial": 62, "dateTime": 1512937309006, "trialdata": {"rt": -1000, "stimulus": "/static/audio/wordpool/RATTLE.wav", "key_press": -1, "type": "PRES_AUD", "word": "rattle", "wordID": 1169, "conditions": [18, 1200, "a", 18000], "trial": 1, "serialpos": 7, "trial_type": "single-audio", "trial_index": 62, "time_elapsed": 306952, "internal_node_id": "0.0-44.0"}}, {"uniqueid": "MTK0959:33OOO72IVISPQ5DJJGGYB7OB8SLCTA", "current_trial": 63, "dateTime": 1512937311282, "trialdata": {"rt": -1000, "stimulus": "/static/audio/wordpool/TUNNEL.wav", "key_press": -1, "type": "PRES_AUD", "word": "tunnel", "wordID": 1518, "conditions": [18, 1200, "a", 18000], "trial": 1, "serialpos": 8, "trial_type": "single-audio", "trial_index": 63, "time_elapsed": 309228, "internal_node_id": "0.0-45.0"}}, {"uniqueid": "MTK0959:33OOO72IVISPQ5DJJGGYB7OB8SLCTA", "current_trial": 64, "dateTime": 1512937313287, "trialdata": {"rt": -1000, "stimulus": "/static/audio/wordpool/MISSILE.wav", "key_press": -1, "type": "PRES_AUD", "word": "missile", "wordID": 899, "conditions": [18, 1200, "a", 18000], "trial": 1, "serialpos": 9, "trial_type": "single-audio", "trial_index": 64, "time_elapsed": 311233, "internal_node_id": "0.0-46.0"}}, {"uniqueid": "MTK0959:33OOO72IVISPQ5DJJGGYB7OB8SLCTA", "current_trial": 65, "dateTime": 1512937315501, "trialdata": {"rt": -1000, "stimulus": "/static/audio/wordpool/FOREHEAD.wav", "key_press": -1, "type": "PRES_AUD", "word": "forehead", "wordID": 591, "conditions": [18, 1200, "a", 18000], "trial": 1, "serialpos": 10, "trial_type": "single-audio", "trial_index": 65, "time_elapsed": 313446, "internal_node_id": "0.0-47.0"}}, {"uniqueid": "MTK0959:33OOO72IVISPQ5DJJGGYB7OB8SLCTA", "current_trial": 66, "dateTime": 1512937317514, "trialdata": {"rt": -1000, "stimulus": "/static/audio/wordpool/SIBLING.wav", "key_press": -1, "type": "PRES_AUD", "word": "sibling", "wordID": 1300, "conditions": [18, 1200, "a", 18000], "trial": 1, "serialpos": 11, "trial_type": "single-audio", "trial_index": 66, "time_elapsed": 315460, "internal_node_id": "0.0-48.0"}}, {"uniqueid": "MTK0959:33OOO72IVISPQ5DJJGGYB7OB8SLCTA", "current_trial": 67, "dateTime": 1512937319881, "trialdata": {"rt": -1000, "stimulus": "/static/audio/wordpool/ROCKET.wav", "key_press": -1, "type": "PRES_AUD", "word": "rocket", "wordID": 1201, "conditions": [18, 1200, "a", 18000], "trial": 1, "serialpos": 12, "trial_type": "single-audio", "trial_index": 67, "time_elapsed": 317827, "internal_node_id": "0.0-49.0"}}, {"uniqueid": "MTK0959:33OOO72IVISPQ5DJJGGYB7OB8SLCTA", "current_trial": 68, "dateTime": 1512937321989, "trialdata": {"rt": -1000, "stimulus": "/static/audio/wordpool/MONEY.wav", "key_press": -1, "type": "PRES_AUD", "word": "money", "wordID": 907, "conditions": [18, 1200, "a", 18000], "trial": 1, "serialpos": 13, "trial_type": "single-audio", "trial_index": 68, "time_elapsed": 319933, "internal_node_id": "0.0-50.0"}}, {"uniqueid": "MTK0959:33OOO72IVISPQ5DJJGGYB7OB8SLCTA", "current_trial": 69, "dateTime": 1512937324182, "trialdata": {"rt": -1000, "stimulus": "/static/audio/wordpool/KNAPSACK.wav", "key_press": -1, "type": "PRES_AUD", "word": "knapsack", "wordID": 782, "conditions": [18, 1200, "a", 18000], "trial": 1, "serialpos": 14, "trial_type": "single-audio", "trial_index": 69, "time_elapsed": 322128, "internal_node_id": "0.0-51.0"}}, {"uniqueid": "MTK0959:33OOO72IVISPQ5DJJGGYB7OB8SLCTA", "current_trial": 70, "dateTime": 1512937326206, "trialdata": {"rt": -1000, "stimulus": "/static/audio/wordpool/LIGHTNING.wav", "key_press": -1, "type": "PRES_AUD", "word": "lightning", "wordID": 819, "conditions": [18, 1200, "a", 18000], "trial": 1, "serialpos": 15, "trial_type": "single-audio", "trial_index": 70, "time_elapsed": 324152, "internal_node_id": "0.0-52.0"}}, {"uniqueid": "MTK0959:33OOO72IVISPQ5DJJGGYB7OB8SLCTA", "current_trial": 71, "dateTime": 1512937328382, "trialdata": {"rt": -1000, "stimulus": "/static/audio/wordpool/TYPIST.wav", "key_press": -1, "type": "PRES_AUD", "word": "typist", "wordID": 1531, "conditions": [18, 1200, "a", 18000], "trial": 1, "serialpos": 16, "trial_type": "single-audio", "trial_index": 71, "time_elapsed": 326327, "internal_node_id": "0.0-53.0"}}, {"uniqueid": "MTK0959:33OOO72IVISPQ5DJJGGYB7OB8SLCTA", "current_trial": 72, "dateTime": 1512937330515, "trialdata": {"rt": -1000, "stimulus": "/static/audio/wordpool/GIFT.wav", "key_press": -1, "type": "PRES_AUD", "word": "gift", "wordID": 634, "conditions": [18, 1200, "a", 18000], "trial": 1, "serialpos": 17, "trial_type": "single-audio", "trial_index": 72, "time_elapsed": 328461, "internal_node_id": "0.0-54.0"}}, {"uniqueid": "MTK0959:33OOO72IVISPQ5DJJGGYB7OB8SLCTA", "current_trial": 73, "dateTime": 1512937331816, "trialdata": {"rt": -1, "stimulus": "", "key_press": -1, "type": "PRE_RECALL_DELAY", "trial_type": "single-stim", "trial_index": 73, "time_elapsed": 329762, "internal_node_id": "0.0-55.0-0.0"}}, {"uniqueid": "MTK0959:33OOO72IVISPQ5DJJGGYB7OB8SLCTA", "current_trial": 74, "dateTime": 1512937332318, "trialdata": {"rt": -1000, "stimulus": "/static/audio/400Hz.wav", "key_press": -1, "type": "PRE_RECALL_ALERT", "trial_type": "single-audio", "trial_index": 74, "time_elapsed": 330264, "internal_node_id": "0.0-56.0"}}, {"uniqueid": "MTK0959:33OOO72IVISPQ5DJJGGYB7OB8SLCTA", "current_trial": 75, "dateTime": 1512937392322, "trialdata": {"rt": [3737, 5043, 6910, 8191, 11631, 20987, 27280], "recwords": ["gift", "typist", "seafood", "outdoors", "sibling", "typist", "ocean"], "type": "FREE_RECALL", "conditions": [18, 1200, "a", 18000], "trial": 1, "trial_type": "free-recall", "trial_index": 75, "time_elapsed": 390266, "internal_node_id": "0.0-57.0-0.0"}}, {"uniqueid": "MTK0959:33OOO72IVISPQ5DJJGGYB7OB8SLCTA", "current_trial": 76, "dateTime": 1512937396657, "trialdata": {"rt": 2322, "key_press": 32, "type": "INSTRUCTIONS", "trial_type": "text", "trial_index": 76, "time_elapsed": 394600, "internal_node_id": "0.0-58.0"}}, {"uniqueid": "MTK0959:33OOO72IVISPQ5DJJGGYB7OB8SLCTA", "current_trial": 77, "dateTime": 1512937409712, "trialdata": {"rt": [3454, 7289, 9486, 11600], "responses": ["9", "15", "10", "15"], "num1": [1, 6, 5, 2, 2], "num2": [3, 8, 1, 5, 4], "num3": [5, 1, 4, 8, 5], "type": "DISTRACTOR", "conditions": [12, 1600, "v", 12000], "trial": 2, "trial_type": "math-distractor", "trial_index": 77, "time_elapsed": 407658, "internal_node_id": "0.0-59.0"}}, {"uniqueid": "MTK0959:33OOO72IVISPQ5DJJGGYB7OB8SLCTA", "current_trial": 78, "dateTime": 1512937412715, "trialdata": {"rt": -1, "stimulus": "<p id=\"stim\">10</p>", "key_press": -1, "trial_type": "single-stim", "trial_index": 78, "time_elapsed": 410661, "internal_node_id": "0.0-60.0-0.0"}}, {"uniqueid": "MTK0959:33OOO72IVISPQ5DJJGGYB7OB8SLCTA", "current_trial": 79, "dateTime": 1512937413716, "trialdata": {"rt": -1, "stimulus": "<p id=\"stim\">9</p>", "key_press": -1, "trial_type": "single-stim", "trial_index": 79, "time_elapsed": 411662, "internal_node_id": "0.0-60.0-1.0"}}, {"uniqueid": "MTK0959:33OOO72IVISPQ5DJJGGYB7OB8SLCTA", "current_trial": 80, "dateTime": 1512937414718, "trialdata": {"rt": -1, "stimulus": "<p id=\"stim\">8</p>", "key_press": -1, "trial_type": "single-stim", "trial_index": 80, "time_elapsed": 412664, "internal_node_id": "0.0-60.0-2.0"}}, {"uniqueid": "MTK0959:33OOO72IVISPQ5DJJGGYB7OB8SLCTA", "current_trial": 81, "dateTime": 1512937415719, "trialdata": {"rt": -1, "stimulus": "<p id=\"stim\">7</p>", "key_press": -1, "trial_type": "single-stim", "trial_index": 81, "time_elapsed": 413665, "internal_node_id": "0.0-60.0-3.0"}}, {"uniqueid": "MTK0959:33OOO72IVISPQ5DJJGGYB7OB8SLCTA", "current_trial": 82, "dateTime": 1512937416720, "trialdata": {"rt": -1, "stimulus": "<p id=\"stim\">6</p>", "key_press": -1, "trial_type": "single-stim", "trial_index": 82, "time_elapsed": 414666, "internal_node_id": "0.0-60.0-4.0"}}, {"uniqueid": "MTK0959:33OOO72IVISPQ5DJJGGYB7OB8SLCTA", "current_trial": 83, "dateTime": 1512937417721, "trialdata": {"rt": -1, "stimulus": "<p id=\"stim\">5</p>", "key_press": -1, "trial_type": "single-stim", "trial_index": 83, "time_elapsed": 415666, "internal_node_id": "0.0-60.0-5.0"}}, {"uniqueid": "MTK0959:33OOO72IVISPQ5DJJGGYB7OB8SLCTA", "current_trial": 84, "dateTime": 1512937418722, "trialdata": {"rt": -1, "stimulus": "<p id=\"stim\">4</p>", "key_press": -1, "trial_type": "single-stim", "trial_index": 84, "time_elapsed": 416667, "internal_node_id": "0.0-60.0-6.0"}}, {"uniqueid": "MTK0959:33OOO72IVISPQ5DJJGGYB7OB8SLCTA", "current_trial": 85, "dateTime": 1512937419723, "trialdata": {"rt": -1, "stimulus": "<p id=\"stim\">3</p>", "key_press": -1, "trial_type": "single-stim", "trial_index": 85, "time_elapsed": 417669, "internal_node_id": "0.0-60.0-7.0"}}, {"uniqueid": "MTK0959:33OOO72IVISPQ5DJJGGYB7OB8SLCTA", "current_trial": 86, "dateTime": 1512937420725, "trialdata": {"rt": -1, "stimulus": "<p id=\"stim\">2</p>", "key_press": -1, "trial_type": "single-stim", "trial_index": 86, "time_elapsed": 418671, "internal_node_id": "0.0-60.0-8.0"}}, {"uniqueid": "MTK0959:33OOO72IVISPQ5DJJGGYB7OB8SLCTA", "current_trial": 87, "dateTime": 1512937421727, "trialdata": {"rt": -1, "stimulus": "<p id=\"stim\">1</p>", "key_press": -1, "trial_type": "single-stim", "trial_index": 87, "time_elapsed": 419673, "internal_node_id": "0.0-60.0-9.0"}}, {"uniqueid": "MTK0959:33OOO72IVISPQ5DJJGGYB7OB8SLCTA", "current_trial": 88, "dateTime": 1512937423228, "trialdata": {"rt": -1, "stimulus": "<p id=\"stim\">+</p>", "key_press": -1, "type": "FIXATION", "trial_type": "single-stim", "trial_index": 88, "time_elapsed": 421174, "internal_node_id": "0.0-61.0-0.0"}}, {"uniqueid": "MTK0959:33OOO72IVISPQ5DJJGGYB7OB8SLCTA", "current_trial": 89, "dateTime": 1512937424830, "trialdata": {"rt": -1, "stimulus": "<p id=\"stim\">HARP</p>", "key_press": -1, "type": "PRES_VIS", "word": "harp", "wordID": 688, "conditions": [12, 1600, "v", 12000], "trial": 2, "serialpos": 0, "trial_type": "single-stim", "trial_index": 89, "time_elapsed": 422776, "internal_node_id": "0.0-62.0"}}, {"uniqueid": "MTK0959:33OOO72IVISPQ5DJJGGYB7OB8SLCTA", "current_trial": 90, "dateTime": 1512937427557, "trialdata": {"rt": -1, "stimulus": "<p id=\"stim\">EYELASH</p>", "key_press": -1, "type": "PRES_VIS", "word": "eyelash", "wordID": 545, "conditions": [12, 1600, "v", 12000], "trial": 2, "serialpos": 1, "trial_type": "single-stim", "trial_index": 90, "time_elapsed": 425503, "internal_node_id": "0.0-63.0"}}, {"uniqueid": "MTK0959:33OOO72IVISPQ5DJJGGYB7OB8SLCTA", "current_trial": 91, "dateTime": 1512937430141, "trialdata": {"rt": -1, "stimulus": "<p id=\"stim\">COMPASS</p>", "key_press": -1, "type": "PRES_VIS", "word": "compass", "wordID": 357, "conditions": [12, 1600, "v", 12000], "trial": 2, "serialpos": 2, "trial_type": "single-stim", "trial_index": 91, "time_elapsed": 428087, "internal_node_id": "0.0-64.0"}}, {"uniqueid": "MTK0959:33OOO72IVISPQ5DJJGGYB7OB8SLCTA", "current_trial": 92, "dateTime": 1512937432869, "trialdata": {"rt": -1, "stimulus": "<p id=\"stim\">BANJO</p>", "key_press": -1, "type": "PRES_VIS", "word": "banjo", "wordID": 81, "conditions": [12, 1600, "v", 12000], "trial": 2, "serialpos": 3, "trial_type": "single-stim", "trial_index": 92, "time_elapsed": 430815, "internal_node_id": "0.0-65.0"}}, {"uniqueid": "MTK0959:33OOO72IVISPQ5DJJGGYB7OB8SLCTA", "current_trial": 93, "dateTime": 1512937435337, "trialdata": {"rt": -1, "stimulus": "<p id=\"stim\">BEAVER</p>", "key_press": -1, "type": "PRES_VIS", "word": "beaver", "wordID": 108, "conditions": [12, 1600, "v", 12000], "trial": 2, "serialpos": 4, "trial_type": "single-stim", "trial_index": 93, "time_elapsed": 433283, "internal_node_id": "0.0-66.0"}}, {"uniqueid": "MTK0959:33OOO72IVISPQ5DJJGGYB7OB8SLCTA", "current_trial": 94, "dateTime": 1512937437843, "trialdata": {"rt": -1, "stimulus": "<p id=\"stim\">REPORT</p>", "key_press": -1, "type": "PRES_VIS", "word": "report", "wordID": 1183, "conditions": [12, 1600, "v", 12000], "trial": 2, "serialpos": 5, "trial_type": "single-stim", "trial_index": 94, "time_elapsed": 435789, "internal_node_id": "0.0-67.0"}}, {"uniqueid": "MTK0959:33OOO72IVISPQ5DJJGGYB7OB8SLCTA", "current_trial": 95, "dateTime": 1512937440571, "trialdata": {"rt": -1, "stimulus": "<p id=\"stim\">SURVEY</p>", "key_press": -1, "type": "PRES_VIS", "word": "survey", "wordID": 1413, "conditions": [12, 1600, "v", 12000], "trial": 2, "serialpos": 6, "trial_type": "single-stim", "trial_index": 95, "time_elapsed": 438517, "internal_node_id": "0.0-68.0"}}, {"uniqueid": "MTK0959:33OOO72IVISPQ5DJJGGYB7OB8SLCTA", "current_trial": 96, "dateTime": 1512937443131, "trialdata": {"rt": -1, "stimulus": "<p id=\"stim\">SCARECROW</p>", "key_press": -1, "type": "PRES_VIS", "word": "scarecrow", "wordID": 1244, "conditions": [12, 1600, "v", 12000], "trial": 2, "serialpos": 7, "trial_type": "single-stim", "trial_index": 96, "time_elapsed": 441077, "internal_node_id": "0.0-69.0"}}, {"uniqueid": "MTK0959:33OOO72IVISPQ5DJJGGYB7OB8SLCTA", "current_trial": 97, "dateTime": 1512937445894, "trialdata": {"rt": -1, "stimulus": "<p id=\"stim\">ACTOR</p>", "key_press": -1, "type": "PRES_VIS", "word": "actor", "wordID": 4, "conditions": [12, 1600, "v", 12000], "trial": 2, "serialpos": 8, "trial_type": "single-stim", "trial_index": 97, "time_elapsed": 443840, "internal_node_id": "0.0-70.0"}}, {"uniqueid": "MTK0959:33OOO72IVISPQ5DJJGGYB7OB8SLCTA", "current_trial": 98, "dateTime": 1512937448520, "trialdata": {"rt": -1, "stimulus": "<p id=\"stim\">LACE</p>", "key_press": -1, "type": "PRES_VIS", "word": "lace", "wordID": 791, "conditions": [12, 1600, "v", 12000], "trial": 2, "serialpos": 9, "trial_type": "single-stim", "trial_index": 98, "time_elapsed": 446466, "internal_node_id": "0.0-71.0"}}, {"uniqueid": "MTK0959:33OOO72IVISPQ5DJJGGYB7OB8SLCTA", "current_trial": 99, "dateTime": 1512937451040, "trialdata": {"rt": -1, "stimulus": "<p id=\"stim\">LILY</p>", "key_press": -1, "type": "PRES_VIS", "word": "lily", "wordID": 820, "conditions": [12, 1600, "v", 12000], "trial": 2, "serialpos": 10, "trial_type": "single-stim", "trial_index": 99, "time_elapsed": 448986, "internal_node_id": "0.0-72.0"}}, {"uniqueid": "MTK0959:33OOO72IVISPQ5DJJGGYB7OB8SLCTA", "current_trial": 100, "dateTime": 1512937453751, "trialdata": {"rt": -1, "stimulus": "<p id=\"stim\">COSTUME</p>", "key_press": -1, "type": "PRES_VIS", "word": "costume", "wordID": 382, "conditions": [12, 1600, "v", 12000], "trial": 2, "serialpos": 11, "trial_type": "single-stim", "trial_index": 100, "time_elapsed": 451697, "internal_node_id": "0.0-73.0"}}, {"uniqueid": "MTK0959:33OOO72IVISPQ5DJJGGYB7OB8SLCTA", "current_trial": 101, "dateTime": 1512937455865, "trialdata": {"rt": -1, "stimulus": "", "key_press": -1, "type": "PRE_RECALL_DELAY", "trial_type": "single-stim", "trial_index": 101, "time_elapsed": 453811, "internal_node_id": "0.0-74.0-0.0"}}, {"uniqueid": "MTK0959:33OOO72IVISPQ5DJJGGYB7OB8SLCTA", "current_trial": 102, "dateTime": 1512937456367, "trialdata": {"rt": -1000, "stimulus": "/static/audio/400Hz.wav", "key_press": -1, "type": "PRE_RECALL_ALERT", "trial_type": "single-audio", "trial_index": 102, "time_elapsed": 454313, "internal_node_id": "0.0-75.0"}}, {"uniqueid": "MTK0959:33OOO72IVISPQ5DJJGGYB7OB8SLCTA", "current_trial": 103, "dateTime": 1512937516372, "trialdata": {"rt": [4571, 6687, 8717, 11829, 13810, 16910, 19102, 20850, 24679], "recwords": ["banjo", "beaver", "report", "survey", "costume", "lace", "scarecrow", "actor", "lily"], "type": "FREE_RECALL", "conditions": [12, 1600, "v", 12000], "trial": 2, "trial_type": "free-recall", "trial_index": 103, "time_elapsed": 514316, "internal_node_id": "0.0-76.0-0.0"}}, {"uniqueid": "MTK0959:33OOO72IVISPQ5DJJGGYB7OB8SLCTA", "current_trial": 104, "dateTime": 1512937522069, "trialdata": {"rt": 3695, "key_press": 32, "type": "INSTRUCTIONS", "trial_type": "text", "trial_index": 104, "time_elapsed": 520014, "internal_node_id": "0.0-77.0"}}, {"uniqueid": "MTK0959:33OOO72IVISPQ5DJJGGYB7OB8SLCTA", "current_trial": 105, "dateTime": 1512937548074, "trialdata": {"rt": [3518, 8654, 10563, 13588, 17654, 20851], "responses": ["21", "16", "8", "9", "16", "14"], "num1": [5, 6, 5, 3, 1, 5, 7], "num2": [8, 7, 2, 4, 8, 2, 4], "num3": [9, 5, 1, 2, 7, 7, 5], "type": "DISTRACTOR", "conditions": [12, 1600, "a", 24000], "trial": 3, "trial_type": "math-distractor", "trial_index": 105, "time_elapsed": 546020, "internal_node_id": "0.0-78.0"}}, {"uniqueid": "MTK0959:33OOO72IVISPQ5DJJGGYB7OB8SLCTA", "current_trial": 106, "dateTime": 1512937551078, "trialdata": {"rt": -1, "stimulus": "<p id=\"stim\">10</p>", "key_press": -1, "trial_type": "single-stim", "trial_index": 106, "time_elapsed": 549024, "internal_node_id": "0.0-79.0-0.0"}}, {"uniqueid": "MTK0959:33OOO72IVISPQ5DJJGGYB7OB8SLCTA", "current_trial": 107, "dateTime": 1512937552080, "trialdata": {"rt": -1, "stimulus": "<p id=\"stim\">9</p>", "key_press": -1, "trial_type": "single-stim", "trial_index": 107, "time_elapsed": 550026, "internal_node_id": "0.0-79.0-1.0"}}, {"uniqueid": "MTK0959:33OOO72IVISPQ5DJJGGYB7OB8SLCTA", "current_trial": 108, "dateTime": 1512937553081, "trialdata": {"rt": -1, "stimulus": "<p id=\"stim\">8</p>", "key_press": -1, "trial_type": "single-stim", "trial_index": 108, "time_elapsed": 551027, "internal_node_id": "0.0-79.0-2.0"}}, {"uniqueid": "MTK0959:33OOO72IVISPQ5DJJGGYB7OB8SLCTA", "current_trial": 109, "dateTime": 1512937554082, "trialdata": {"rt": -1, "stimulus": "<p id=\"stim\">7</p>", "key_press": -1, "trial_type": "single-stim", "trial_index": 109, "time_elapsed": 552028, "internal_node_id": "0.0-79.0-3.0"}}, {"uniqueid": "MTK0959:33OOO72IVISPQ5DJJGGYB7OB8SLCTA", "current_trial": 110, "dateTime": 1512937555084, "trialdata": {"rt": -1, "stimulus": "<p id=\"stim\">6</p>", "key_press": -1, "trial_type": "single-stim", "trial_index": 110, "time_elapsed": 553030, "internal_node_id": "0.0-79.0-4.0"}}, {"uniqueid": "MTK0959:33OOO72IVISPQ5DJJGGYB7OB8SLCTA", "current_trial": 111, "dateTime": 1512937556085, "trialdata": {"rt": -1, "stimulus": "<p id=\"stim\">5</p>", "key_press": -1, "trial_type": "single-stim", "trial_index": 111, "time_elapsed": 554031, "internal_node_id": "0.0-79.0-5.0"}}, {"uniqueid": "MTK0959:33OOO72IVISPQ5DJJGGYB7OB8SLCTA", "current_trial": 112, "dateTime": 1512937557087, "trialdata": {"rt": -1, "stimulus": "<p id=\"stim\">4</p>", "key_press": -1, "trial_type": "single-stim", "trial_index": 112, "time_elapsed": 555033, "internal_node_id": "0.0-79.0-6.0"}}, {"uniqueid": "MTK0959:33OOO72IVISPQ5DJJGGYB7OB8SLCTA", "current_trial": 113, "dateTime": 1512937558088, "trialdata": {"rt": -1, "stimulus": "<p id=\"stim\">3</p>", "key_press": -1, "trial_type": "single-stim", "trial_index": 113, "time_elapsed": 556034, "internal_node_id": "0.0-79.0-7.0"}}, {"uniqueid": "MTK0959:33OOO72IVISPQ5DJJGGYB7OB8SLCTA", "current_trial": 114, "dateTime": 1512937559098, "trialdata": {"rt": -1, "stimulus": "<p id=\"stim\">2</p>", "key_press": -1, "trial_type": "single-stim", "trial_index": 114, "time_elapsed": 557044, "internal_node_id": "0.0-79.0-8.0"}}, {"uniqueid": "MTK0959:33OOO72IVISPQ5DJJGGYB7OB8SLCTA", "current_trial": 115, "dateTime": 1512937560099, "trialdata": {"rt": -1, "stimulus": "<p id=\"stim\">1</p>", "key_press": -1, "trial_type": "single-stim", "trial_index": 115, "time_elapsed": 558045, "internal_node_id": "0.0-79.0-9.0"}}, {"uniqueid": "MTK0959:33OOO72IVISPQ5DJJGGYB7OB8SLCTA", "current_trial": 116, "dateTime": 1512937561601, "trialdata": {"rt": -1, "stimulus": "<p id=\"stim\">+</p>", "key_press": -1, "type": "FIXATION", "trial_type": "single-stim", "trial_index": 116, "time_elapsed": 559547, "internal_node_id": "0.0-80.0-0.0"}}, {"uniqueid": "MTK0959:33OOO72IVISPQ5DJJGGYB7OB8SLCTA", "current_trial": 117, "dateTime": 1512937564004, "trialdata": {"rt": -1000, "stimulus": "/static/audio/wordpool/LODGE.wav", "key_press": -1, "type": "PRES_AUD", "word": "lodge", "wordID": 838, "conditions": [12, 1600, "a", 24000], "trial": 3, "serialpos": 0, "trial_type": "single-audio", "trial_index": 117, "time_elapsed": 561950, "internal_node_id": "0.0-81.0"}}, {"uniqueid": "MTK0959:33OOO72IVISPQ5DJJGGYB7OB8SLCTA", "current_trial": 118, "dateTime": 1512937566484, "trialdata": {"rt": -1000, "stimulus": "/static/audio/wordpool/BUCKET.wav", "key_press": -1, "type": "PRES_AUD", "word": "bucket", "wordID": 183, "conditions": [12, 1600, "a", 24000], "trial": 3, "serialpos": 1, "trial_type": "single-audio", "trial_index": 118, "time_elapsed": 564430, "internal_node_id": "0.0-82.0"}}, {"uniqueid": "MTK0959:33OOO72IVISPQ5DJJGGYB7OB8SLCTA", "current_trial": 119, "dateTime": 1512937569084, "trialdata": {"rt": -1000, "stimulus": "/static/audio/wordpool/FIDDLE.wav", "key_press": -1, "type": "PRES_AUD", "word": "fiddle", "wordID": 560, "conditions": [12, 1600, "a", 24000], "trial": 3, "serialpos": 2, "trial_type": "single-audio", "trial_index": 119, "time_elapsed": 567030, "internal_node_id": "0.0-83.0"}}, {"uniqueid": "MTK0959:33OOO72IVISPQ5DJJGGYB7OB8SLCTA", "current_trial": 120, "dateTime": 1512937571880, "trialdata": {"rt": -1000, "stimulus": "/static/audio/wordpool/TAXI.wav", "key_press": -1, "type": "PRES_AUD", "word": "taxi", "wordID": 1437, "conditions": [12, 1600, "a", 24000], "trial": 3, "serialpos": 3, "trial_type": "single-audio", "trial_index": 120, "time_elapsed": 569826, "internal_node_id": "0.0-84.0"}}, {"uniqueid": "MTK0959:33OOO72IVISPQ5DJJGGYB7OB8SLCTA", "current_trial": 121, "dateTime": 1512937574592, "trialdata": {"rt": -1000, "stimulus": "/static/audio/wordpool/TABLE.wav", "key_press": -1, "type": "PRES_AUD", "word": "table", "wordID": 1425, "conditions": [12, 1600, "a", 24000], "trial": 3, "serialpos": 4, "trial_type": "single-audio", "trial_index": 121, "time_elapsed": 572538, "internal_node_id": "0.0-85.0"}}, {"uniqueid": "MTK0959:33OOO72IVISPQ5DJJGGYB7OB8SLCTA", "current_trial": 122, "dateTime": 1512937577268, "trialdata": {"rt": -1000, "stimulus": "/static/audio/wordpool/TROMBONE.wav", "key_press": -1, "type": "PRES_AUD", "word": "trombone", "wordID": 1507, "conditions": [12, 1600, "a", 24000], "trial": 3, "serialpos": 5, "trial_type": "single-audio", "trial_index": 122, "time_elapsed": 575214, "internal_node_id": "0.0-86.0"}}, {"uniqueid": "MTK0959:33OOO72IVISPQ5DJJGGYB7OB8SLCTA", "current_trial": 123, "dateTime": 1512937579686, "trialdata": {"rt": -1000, "stimulus": "/static/audio/wordpool/CRIB.wav", "key_press": -1, "type": "PRES_AUD", "word": "crib", "wordID": 406, "conditions": [12, 1600, "a", 24000], "trial": 3, "serialpos": 6, "trial_type": "single-audio", "trial_index": 123, "time_elapsed": 577632, "internal_node_id": "0.0-87.0"}}, {"uniqueid": "MTK0959:33OOO72IVISPQ5DJJGGYB7OB8SLCTA", "current_trial": 124, "dateTime": 1512937582424, "trialdata": {"rt": -1000, "stimulus": "/static/audio/wordpool/BUG.wav", "key_press": -1, "type": "PRES_AUD", "word": "bug", "wordID": 186, "conditions": [12, 1600, "a", 24000], "trial": 3, "serialpos": 7, "trial_type": "single-audio", "trial_index": 124, "time_elapsed": 580370, "internal_node_id": "0.0-88.0"}}, {"uniqueid": "MTK0959:33OOO72IVISPQ5DJJGGYB7OB8SLCTA", "current_trial": 125, "dateTime": 1512937585091, "trialdata": {"rt": -1000, "stimulus": "/static/audio/wordpool/VIRUS.wav", "key_press": -1, "type": "PRES_AUD", "word": "virus", "wordID": 1571, "conditions": [12, 1600, "a", 24000], "trial": 3, "serialpos": 8, "trial_type": "single-audio", "trial_index": 125, "time_elapsed": 583036, "internal_node_id": "0.0-89.0"}}, {"uniqueid": "MTK0959:33OOO72IVISPQ5DJJGGYB7OB8SLCTA", "current_trial": 126, "dateTime": 1512937587548, "trialdata": {"rt": -1000, "stimulus": "/static/audio/wordpool/SPOUSE.wav", "key_press": -1, "type": "PRES_AUD", "word": "spouse", "wordID": 1357, "conditions": [12, 1600, "a", 24000], "trial": 3, "serialpos": 9, "trial_type": "single-audio", "trial_index": 126, "time_elapsed": 585494, "internal_node_id": "0.0-90.0"}}, {"uniqueid": "MTK0959:33OOO72IVISPQ5DJJGGYB7OB8SLCTA", "current_trial": 127, "dateTime": 1512937590340, "trialdata": {"rt": -1000, "stimulus": "/static/audio/wordpool/PECAN.wav", "key_press": -1, "type": "PRES_AUD", "word": "pecan", "wordID": 1035, "conditions": [12, 1600, "a", 24000], "trial": 3, "serialpos": 10, "trial_type": "single-audio", "trial_index": 127, "time_elapsed": 588286, "internal_node_id": "0.0-91.0"}}, {"uniqueid": "MTK0959:33OOO72IVISPQ5DJJGGYB7OB8SLCTA", "current_trial": 128, "dateTime": 1512937592945, "trialdata": {"rt": -1000, "stimulus": "/static/audio/wordpool/FLOWER.wav", "key_press": -1, "type": "PRES_AUD", "word": "flower", "wordID": 583, "conditions": [12, 1600, "a", 24000], "trial": 3, "serialpos": 11, "trial_type": "single-audio", "trial_index": 128, "time_elapsed": 590891, "internal_node_id": "0.0-92.0"}}, {"uniqueid": "MTK0959:33OOO72IVISPQ5DJJGGYB7OB8SLCTA", "current_trial": 129, "dateTime": 1512937594295, "trialdata": {"rt": -1, "stimulus": "", "key_press": -1, "type": "PRE_RECALL_DELAY", "trial_type": "single-stim", "trial_index": 129, "time_elapsed": 592241, "internal_node_id": "0.0-93.0-0.0"}}, {"uniqueid": "MTK0959:33OOO72IVISPQ5DJJGGYB7OB8SLCTA", "current_trial": 130, "dateTime": 1512937594797, "trialdata": {"rt": -1000, "stimulus": "/static/audio/400Hz.wav", "key_press": -1, "type": "PRE_RECALL_ALERT", "trial_type": "single-audio", "trial_index": 130, "time_elapsed": 592743, "internal_node_id": "0.0-94.0"}}, {"uniqueid": "MTK0959:33OOO72IVISPQ5DJJGGYB7OB8SLCTA", "current_trial": 131, "dateTime": 1512937654801, "trialdata": {"rt": [4814, 7275, 10010, 12303, 15075, 17320, 21162, 22670], "recwords": ["flower", "pecan", "fiddle", "taxi", "teepee", "virus", "bug", "crib"], "type": "FREE_RECALL", "conditions": [12, 1600, "a", 24000], "trial": 3, "trial_type": "free-recall", "trial_index": 131, "time_elapsed": 652745, "internal_node_id": "0.0-95.0-0.0"}}, {"uniqueid": "MTK0959:33OOO72IVISPQ5DJJGGYB7OB8SLCTA", "current_trial": 132, "dateTime": 1512937658230, "trialdata": {"rt": 1427, "key_press": 32, "type": "INSTRUCTIONS", "trial_type": "text", "trial_index": 132, "time_elapsed": 656176, "internal_node_id": "0.0-96.0"}}, {"uniqueid": "MTK0959:33OOO72IVISPQ5DJJGGYB7OB8SLCTA", "current_trial": 133, "dateTime": 1512937672233, "trialdata": {"rt": [2492, 5372, 6974, 9081, 11028], "responses": ["11", "16", "12", "22", "9"], "num1": [9, 5, 9, 9, 1, 1], "num2": [1, 3, 1, 9, 4, 5], "num3": [1, 8, 2, 4, 4, 7], "type": "DISTRACTOR", "conditions": [24, 1600, "v", 12000], "trial": 4, "trial_type": "math-distractor", "trial_index": 133, "time_elapsed": 670179, "internal_node_id": "0.0-97.0"}}, {"uniqueid": "MTK0959:33OOO72IVISPQ5DJJGGYB7OB8SLCTA", "current_trial": 134, "dateTime": 1512937675241, "trialdata": {"rt": -1, "stimulus": "<p id=\"stim\">10</p>", "key_press": -1, "trial_type": "single-stim", "trial_index": 134, "time_elapsed": 673187, "internal_node_id": "0.0-98.0-0.0"}}, {"uniqueid": "MTK0959:33OOO72IVISPQ5DJJGGYB7OB8SLCTA", "current_trial": 135, "dateTime": 1512937676243, "trialdata": {"rt": -1, "stimulus": "<p id=\"stim\">9</p>", "key_press": -1, "trial_type": "single-stim", "trial_index": 135, "time_elapsed": 674189, "internal_node_id": "0.0-98.0-1.0"}}, {"uniqueid": "MTK0959:33OOO72IVISPQ5DJJGGYB7OB8SLCTA", "current_trial": 136, "dateTime": 1512937677246, "trialdata": {"rt": -1, "stimulus": "<p id=\"stim\">8</p>", "key_press": -1, "trial_type": "single-stim", "trial_index": 136, "time_elapsed": 675192, "internal_node_id": "0.0-98.0-2.0"}}, {"uniqueid": "MTK0959:33OOO72IVISPQ5DJJGGYB7OB8SLCTA", "current_trial": 137, "dateTime": 1512937678253, "trialdata": {"rt": -1, "stimulus": "<p id=\"stim\">7</p>", "key_press": -1, "trial_type": "single-stim", "trial_index": 137, "time_elapsed": 676199, "internal_node_id": "0.0-98.0-3.0"}}, {"uniqueid": "MTK0959:33OOO72IVISPQ5DJJGGYB7OB8SLCTA", "current_trial": 138, "dateTime": 1512937679254, "trialdata": {"rt": -1, "stimulus": "<p id=\"stim\">6</p>", "key_press": -1, "trial_type": "single-stim", "trial_index": 138, "time_elapsed": 677200, "internal_node_id": "0.0-98.0-4.0"}}, {"uniqueid": "MTK0959:33OOO72IVISPQ5DJJGGYB7OB8SLCTA", "current_trial": 139, "dateTime": 1512937680256, "trialdata": {"rt": -1, "stimulus": "<p id=\"stim\">5</p>", "key_press": -1, "trial_type": "single-stim", "trial_index": 139, "time_elapsed": 678202, "internal_node_id": "0.0-98.0-5.0"}}, {"uniqueid": "MTK0959:33OOO72IVISPQ5DJJGGYB7OB8SLCTA", "current_trial": 140, "dateTime": 1512937681257, "trialdata": {"rt": -1, "stimulus": "<p id=\"stim\">4</p>", "key_press": -1, "trial_type": "single-stim", "trial_index": 140, "time_elapsed": 679203, "internal_node_id": "0.0-98.0-6.0"}}, {"uniqueid": "MTK0959:33OOO72IVISPQ5DJJGGYB7OB8SLCTA", "current_trial": 141, "dateTime": 1512937682258, "trialdata": {"rt": -1, "stimulus": "<p id=\"stim\">3</p>", "key_press": -1, "trial_type": "single-stim", "trial_index": 141, "time_elapsed": 680204, "internal_node_id": "0.0-98.0-7.0"}}, {"uniqueid": "MTK0959:33OOO72IVISPQ5DJJGGYB7OB8SLCTA", "current_trial": 142, "dateTime": 1512937683260, "trialdata": {"rt": -1, "stimulus": "<p id=\"stim\">2</p>", "key_press": -1, "trial_type": "single-stim", "trial_index": 142, "time_elapsed": 681206, "internal_node_id": "0.0-98.0-8.0"}}, {"uniqueid": "MTK0959:33OOO72IVISPQ5DJJGGYB7OB8SLCTA", "current_trial": 143, "dateTime": 1512937684261, "trialdata": {"rt": -1, "stimulus": "<p id=\"stim\">1</p>", "key_press": -1, "trial_type": "single-stim", "trial_index": 143, "time_elapsed": 682207, "internal_node_id": "0.0-98.0-9.0"}}, {"uniqueid": "MTK0959:33OOO72IVISPQ5DJJGGYB7OB8SLCTA", "current_trial": 144, "dateTime": 1512937685763, "trialdata": {"rt": -1, "stimulus": "<p id=\"stim\">+</p>", "key_press": -1, "type": "FIXATION", "trial_type": "single-stim", "trial_index": 144, "time_elapsed": 683709, "internal_node_id": "0.0-99.0-0.0"}}, {"uniqueid": "MTK0959:33OOO72IVISPQ5DJJGGYB7OB8SLCTA", "current_trial": 145, "dateTime": 1512937687364, "trialdata": {"rt": -1, "stimulus": "<p id=\"stim\">PIZZA</p>", "key_press": -1, "type": "PRES_VIS", "word": "pizza", "wordID": 1078, "conditions": [24, 1600, "v", 12000], "trial": 4, "serialpos": 0, "trial_type": "single-stim", "trial_index": 145, "time_elapsed": 685310, "internal_node_id": "0.0-100.0"}}, {"uniqueid": "MTK0959:33OOO72IVISPQ5DJJGGYB7OB8SLCTA", "current_trial": 146, "dateTime": 1512937689794, "trialdata": {"rt": -1, "stimulus": "<p id=\"stim\">CYCLONE</p>", "key_press": -1, "type": "PRES_VIS", "word": "cyclone", "wordID": 430, "conditions": [24, 1600, "v", 12000], "trial": 4, "serialpos": 1, "trial_type": "single-stim", "trial_index": 146, "time_elapsed": 687739, "internal_node_id": "0.0-101.0"}}, {"uniqueid": "MTK0959:33OOO72IVISPQ5DJJGGYB7OB8SLCTA", "current_trial": 147, "dateTime": 1512937692309, "trialdata": {"rt": -1, "stimulus": "<p id=\"stim\">MARS</p>", "key_press": -1, "type": "PRES_VIS", "word": "mars", "wordID": 872, "conditions": [24, 1600, "v", 12000], "trial": 4, "serialpos": 2, "trial_type": "single-stim", "trial_index": 147, "time_elapsed": 690255, "internal_node_id": "0.0-102.0"}}, {"uniqueid": "MTK0959:33OOO72IVISPQ5DJJGGYB7OB8SLCTA", "current_trial": 148, "dateTime": 1512937694752, "trialdata": {"rt": -1, "stimulus": "<p id=\"stim\">DRAWING</p>", "key_press": -1, "type": "PRES_VIS", "word": "drawing", "wordID": 493, "conditions": [24, 1600, "v", 12000], "trial": 4, "serialpos": 3, "trial_type": "single-stim", "trial_index": 148, "time_elapsed": 692698, "internal_node_id": "0.0-103.0"}}, {"uniqueid": "MTK0959:33OOO72IVISPQ5DJJGGYB7OB8SLCTA", "current_trial": 149, "dateTime": 1512937697515, "trialdata": {"rt": -1, "stimulus": "<p id=\"stim\">KITCHEN</p>", "key_press": -1, "type": "PRES_VIS", "word": "kitchen", "wordID": 777, "conditions": [24, 1600, "v", 12000], "trial": 4, "serialpos": 4, "trial_type": "single-stim", "trial_index": 149, "time_elapsed": 695461, "internal_node_id": "0.0-104.0"}}, {"uniqueid": "MTK0959:33OOO72IVISPQ5DJJGGYB7OB8SLCTA", "current_trial": 150, "dateTime": 1512937700015, "trialdata": {"rt": -1, "stimulus": "<p id=\"stim\">MUSTARD</p>", "key_press": -1, "type": "PRES_VIS", "word": "mustard", "wordID": 934, "conditions": [24, 1600, "v", 12000], "trial": 4, "serialpos": 5, "trial_type": "single-stim", "trial_index": 150, "time_elapsed": 697961, "internal_node_id": "0.0-105.0"}}, {"uniqueid": "MTK0959:33OOO72IVISPQ5DJJGGYB7OB8SLCTA", "current_trial": 151, "dateTime": 1512937702710, "trialdata": {"rt": -1, "stimulus": "<p id=\"stim\">SCARF</p>", "key_press": -1, "type": "PRES_VIS", "word": "scarf", "wordID": 1245, "conditions": [24, 1600, "v", 12000], "trial": 4, "serialpos": 6, "trial_type": "single-stim", "trial_index": 151, "time_elapsed": 700656, "internal_node_id": "0.0-106.0"}}, {"uniqueid": "MTK0959:33OOO72IVISPQ5DJJGGYB7OB8SLCTA", "current_trial": 152, "dateTime": 1512937705279, "trialdata": {"rt": -1, "stimulus": "<p id=\"stim\">CUPBOARD</p>", "key_press": -1, "type": "PRES_VIS", "word": "cupboard", "wordID": 424, "conditions": [24, 1600, "v", 12000], "trial": 4, "serialpos": 7, "trial_type": "single-stim", "trial_index": 152, "time_elapsed": 703225, "internal_node_id": "0.0-107.0"}}, {"uniqueid": "MTK0959:33OOO72IVISPQ5DJJGGYB7OB8SLCTA", "current_trial": 153, "dateTime": 1512937707860, "trialdata": {"rt": -1, "stimulus": "<p id=\"stim\">NOTEBOOK</p>", "key_press": -1, "type": "PRES_VIS", "word": "notebook", "wordID": 958, "conditions": [24, 1600, "v", 12000], "trial": 4, "serialpos": 8, "trial_type": "single-stim", "trial_index": 153, "time_elapsed": 705806, "internal_node_id": "0.0-108.0"}}, {"uniqueid": "MTK0959:33OOO72IVISPQ5DJJGGYB7OB8SLCTA", "current_trial": 154, "dateTime": 1512937710385, "trialdata": {"rt": -1, "stimulus": "<p id=\"stim\">HOOD</p>", "key_press": -1, "type": "PRES_VIS", "word": "hood", "wordID": 713, "conditions": [24, 1600, "v", 12000], "trial": 4, "serialpos": 9, "trial_type": "single-stim", "trial_index": 154, "time_elapsed": 708331, "internal_node_id": "0.0-109.0"}}, {"uniqueid": "MTK0959:33OOO72IVISPQ5DJJGGYB7OB8SLCTA", "current_trial": 155, "dateTime": 1512937712870, "trialdata": {"rt": -1, "stimulus": "<p id=\"stim\">GARLIC</p>", "key_press": -1, "type": "PRES_VIS", "word": "garlic", "wordID": 623, "conditions": [24, 1600, "v", 12000], "trial": 4, "serialpos": 10, "trial_type": "single-stim", "trial_index": 155, "time_elapsed": 710816, "internal_node_id": "0.0-110.0"}}, {"uniqueid": "MTK0959:33OOO72IVISPQ5DJJGGYB7OB8SLCTA", "current_trial": 156, "dateTime": 1512937715547, "trialdata": {"rt": -1, "stimulus": "<p id=\"stim\">PARSLEY</p>", "key_press": -1, "type": "PRES_VIS", "word": "parsley", "wordID": 1015, "conditions": [24, 1600, "v", 12000], "trial": 4, "serialpos": 11, "trial_type": "single-stim", "trial_index": 156, "time_elapsed": 713493, "internal_node_id": "0.0-111.0"}}, {"uniqueid": "MTK0959:33OOO72IVISPQ5DJJGGYB7OB8SLCTA", "current_trial": 157, "dateTime": 1512937717997, "trialdata": {"rt": -1, "stimulus": "<p id=\"stim\">COFFEE</p>", "key_press": -1, "type": "PRES_VIS", "word": "coffee", "wordID": 340, "conditions": [24, 1600, "v", 12000], "trial": 4, "serialpos": 12, "trial_type": "single-stim", "trial_index": 157, "time_elapsed": 715943, "internal_node_id": "0.0-112.0"}}, {"uniqueid": "MTK0959:33OOO72IVISPQ5DJJGGYB7OB8SLCTA", "current_trial": 158, "dateTime": 1512937720521, "trialdata": {"rt": -1, "stimulus": "<p id=\"stim\">LONDON</p>", "key_press": -1, "type": "PRES_VIS", "word": "london", "wordID": 842, "conditions": [24, 1600, "v", 12000], "trial": 4, "serialpos": 13, "trial_type": "single-stim", "trial_index": 158, "time_elapsed": 718467, "internal_node_id": "0.0-113.0"}}, {"uniqueid": "MTK0959:33OOO72IVISPQ5DJJGGYB7OB8SLCTA", "current_trial": 159, "dateTime": 1512937723166, "trialdata": {"rt": -1, "stimulus": "<p id=\"stim\">LADY</p>", "key_press": -1, "type": "PRES_VIS", "word": "lady", "wordID": 793, "conditions": [24, 1600, "v", 12000], "trial": 4, "serialpos": 14, "trial_type": "single-stim", "trial_index": 159, "time_elapsed": 721112, "internal_node_id": "0.0-114.0"}}, {"uniqueid": "MTK0959:33OOO72IVISPQ5DJJGGYB7OB8SLCTA", "current_trial": 160, "dateTime": 1512937725937, "trialdata": {"rt": -1, "stimulus": "<p id=\"stim\">FRAGRANCE</p>", "key_press": -1, "type": "PRES_VIS", "word": "fragrance", "wordID": 598, "conditions": [24, 1600, "v", 12000], "trial": 4, "serialpos": 15, "trial_type": "single-stim", "trial_index": 160, "time_elapsed": 723883, "internal_node_id": "0.0-115.0"}}, {"uniqueid": "MTK0959:33OOO72IVISPQ5DJJGGYB7OB8SLCTA", "current_trial": 161, "dateTime": 1512937728436, "trialdata": {"rt": -1, "stimulus": "<p id=\"stim\">BEAST</p>", "key_press": -1, "type": "PRES_VIS", "word": "beast", "wordID": 107, "conditions": [24, 1600, "v", 12000], "trial": 4, "serialpos": 16, "trial_type": "single-stim", "trial_index": 161, "time_elapsed": 726382, "internal_node_id": "0.0-116.0"}}, {"uniqueid": "MTK0959:33OOO72IVISPQ5DJJGGYB7OB8SLCTA", "current_trial": 162, "dateTime": 1512937730877, "trialdata": {"rt": -1, "stimulus": "<p id=\"stim\">CREATURE</p>", "key_press": -1, "type": "PRES_VIS", "word": "creature", "wordID": 402, "conditions": [24, 1600, "v", 12000], "trial": 4, "serialpos": 17, "trial_type": "single-stim", "trial_index": 162, "time_elapsed": 728823, "internal_node_id": "0.0-117.0"}}, {"uniqueid": "MTK0959:33OOO72IVISPQ5DJJGGYB7OB8SLCTA", "current_trial": 163, "dateTime": 1512937733452, "trialdata": {"rt": -1, "stimulus": "<p id=\"stim\">RUG</p>", "key_press": -1, "type": "PRES_VIS", "word": "rug", "wordID": 1214, "conditions": [24, 1600, "v", 12000], "trial": 4, "serialpos": 18, "trial_type": "single-stim", "trial_index": 163, "time_elapsed": 731398, "internal_node_id": "0.0-118.0"}}, {"uniqueid": "MTK0959:33OOO72IVISPQ5DJJGGYB7OB8SLCTA", "current_trial": 164, "dateTime": 1512937736137, "trialdata": {"rt": -1, "stimulus": "<p id=\"stim\">FRANCE</p>", "key_press": -1, "type": "PRES_VIS", "word": "france", "wordID": 600, "conditions": [24, 1600, "v", 12000], "trial": 4, "serialpos": 19, "trial_type": "single-stim", "trial_index": 164, "time_elapsed": 734083, "internal_node_id": "0.0-119.0"}}, {"uniqueid": "MTK0959:33OOO72IVISPQ5DJJGGYB7OB8SLCTA", "current_trial": 165, "dateTime": 1512937738795, "trialdata": {"rt": -1, "stimulus": "<p id=\"stim\">LAPEL</p>", "key_press": -1, "type": "PRES_VIS", "word": "lapel", "wordID": 799, "conditions": [24, 1600, "v", 12000], "trial": 4, "serialpos": 20, "trial_type": "single-stim", "trial_index": 165, "time_elapsed": 736741, "internal_node_id": "0.0-120.0"}}, {"uniqueid": "MTK0959:33OOO72IVISPQ5DJJGGYB7OB8SLCTA", "current_trial": 166, "dateTime": 1512937741261, "trialdata": {"rt": -1, "stimulus": "<p id=\"stim\">ULCER</p>", "key_press": -1, "type": "PRES_VIS", "word": "ulcer", "wordID": 1532, "conditions": [24, 1600, "v", 12000], "trial": 4, "serialpos": 21, "trial_type": "single-stim", "trial_index": 166, "time_elapsed": 739207, "internal_node_id": "0.0-121.0"}}, {"uniqueid": "MTK0959:33OOO72IVISPQ5DJJGGYB7OB8SLCTA", "current_trial": 167, "dateTime": 1512937743820, "trialdata": {"rt": -1, "stimulus": "<p id=\"stim\">PLAID</p>", "key_press": -1, "type": "PRES_VIS", "word": "plaid", "wordID": 1079, "conditions": [24, 1600, "v", 12000], "trial": 4, "serialpos": 22, "trial_type": "single-stim", "trial_index": 167, "time_elapsed": 741766, "internal_node_id": "0.0-122.0"}}, {"uniqueid": "MTK0959:33OOO72IVISPQ5DJJGGYB7OB8SLCTA", "current_trial": 168, "dateTime": 1512937746242, "trialdata": {"rt": -1, "stimulus": "<p id=\"stim\">SANDWICH</p>", "key_press": -1, "type": "PRES_VIS", "word": "sandwich", "wordID": 1231, "conditions": [24, 1600, "v", 12000], "trial": 4, "serialpos": 23, "trial_type": "single-stim", "trial_index": 168, "time_elapsed": 744188, "internal_node_id": "0.0-123.0"}}, {"uniqueid": "MTK0959:33OOO72IVISPQ5DJJGGYB7OB8SLCTA", "current_trial": 169, "dateTime": 1512937748541, "trialdata": {"rt": -1, "stimulus": "", "key_press": -1, "type": "PRE_RECALL_DELAY", "trial_type": "single-stim", "trial_index": 169, "time_elapsed": 746487, "internal_node_id": "0.0-124.0-0.0"}}, {"uniqueid": "MTK0959:33OOO72IVISPQ5DJJGGYB7OB8SLCTA", "current_trial": 170, "dateTime": 1512937749043, "trialdata": {"rt": -1000, "stimulus": "/static/audio/400Hz.wav", "key_press": -1, "type": "PRE_RECALL_ALERT", "trial_type": "single-audio", "trial_index": 170, "time_elapsed": 746988, "internal_node_id": "0.0-125.0"}}, {"uniqueid": "MTK0959:33OOO72IVISPQ5DJJGGYB7OB8SLCTA", "current_trial": 171, "dateTime": 1512937809047, "trialdata": {"rt": [2981, 5244, 6870, 8651, 10759, 17190, 19293, 21468, 22876, 25229, 30038, 32118, 32930, 37825], "recwords": ["pizza", "lapel", "lady", "beast", "garlic", "kitchen", "scarf", "mars", "drawing", "cupboard", "sandwich", "france", "rug", "coffee"], "type": "FREE_RECALL", "conditions": [24, 1600, "v", 12000], "trial": 4, "trial_type": "free-recall", "trial_index": 171, "time_elapsed": 806991, "internal_node_id": "0.0-126.0-0.0"}}, {"uniqueid": "MTK0959:33OOO72IVISPQ5DJJGGYB7OB8SLCTA", "current_trial": 172, "dateTime": 1512937814287, "trialdata": {"rt": 3238, "key_press": 32, "type": "INSTRUCTIONS", "trial_type": "text", "trial_index": 172, "time_elapsed": 812233, "internal_node_id": "0.0-127.0"}}, {"uniqueid": "MTK0959:33OOO72IVISPQ5DJJGGYB7OB8SLCTA", "current_trial": 173, "dateTime": 1512937828292, "trialdata": {"rt": [4879, 10495], "responses": ["14", "18"], "num1": [7, 6, 3], "num2": [4, 8, 4], "num3": [4, 7, 8], "type": "DISTRACTOR", "conditions": [24, 1600, "a", 12000], "trial": 5, "trial_type": "math-distractor", "trial_index": 173, "time_elapsed": 826238, "internal_node_id": "0.0-128.0"}}, {"uniqueid": "MTK0959:33OOO72IVISPQ5DJJGGYB7OB8SLCTA", "current_trial": 174, "dateTime": 1512937831294, "trialdata": {"rt": -1, "stimulus": "<p id=\"stim\">10</p>", "key_press": -1, "trial_type": "single-stim", "trial_index": 174, "time_elapsed": 829240, "internal_node_id": "0.0-129.0-0.0"}}, {"uniqueid": "MTK0959:33OOO72IVISPQ5DJJGGYB7OB8SLCTA", "current_trial": 175, "dateTime": 1512937832295, "trialdata": {"rt": -1, "stimulus": "<p id=\"stim\">9</p>", "key_press": -1, "trial_type": "single-stim", "trial_index": 175, "time_elapsed": 830241, "internal_node_id": "0.0-129.0-1.0"}}, {"uniqueid": "MTK0959:33OOO72IVISPQ5DJJGGYB7OB8SLCTA", "current_trial": 176, "dateTime": 1512937833296, "trialdata": {"rt": -1, "stimulus": "<p id=\"stim\">8</p>", "key_press": -1, "trial_type": "single-stim", "trial_index": 176, "time_elapsed": 831242, "internal_node_id": "0.0-129.0-2.0"}}, {"uniqueid": "MTK0959:33OOO72IVISPQ5DJJGGYB7OB8SLCTA", "current_trial": 177, "dateTime": 1512937834298, "trialdata": {"rt": -1, "stimulus": "<p id=\"stim\">7</p>", "key_press": -1, "trial_type": "single-stim", "trial_index": 177, "time_elapsed": 832244, "internal_node_id": "0.0-129.0-3.0"}}, {"uniqueid": "MTK0959:33OOO72IVISPQ5DJJGGYB7OB8SLCTA", "current_trial": 178, "dateTime": 1512937835299, "trialdata": {"rt": -1, "stimulus": "<p id=\"stim\">6</p>", "key_press": -1, "trial_type": "single-stim", "trial_index": 178, "time_elapsed": 833245, "internal_node_id": "0.0-129.0-4.0"}}, {"uniqueid": "MTK0959:33OOO72IVISPQ5DJJGGYB7OB8SLCTA", "current_trial": 179, "dateTime": 1512937836300, "trialdata": {"rt": -1, "stimulus": "<p id=\"stim\">5</p>", "key_press": -1, "trial_type": "single-stim", "trial_index": 179, "time_elapsed": 834246, "internal_node_id": "0.0-129.0-5.0"}}, {"uniqueid": "MTK0959:33OOO72IVISPQ5DJJGGYB7OB8SLCTA", "current_trial": 180, "dateTime": 1512937837302, "trialdata": {"rt": -1, "stimulus": "<p id=\"stim\">4</p>", "key_press": -1, "trial_type": "single-stim", "trial_index": 180, "time_elapsed": 835248, "internal_node_id": "0.0-129.0-6.0"}}, {"uniqueid": "MTK0959:33OOO72IVISPQ5DJJGGYB7OB8SLCTA", "current_trial": 181, "dateTime": 1512937838303, "trialdata": {"rt": -1, "stimulus": "<p id=\"stim\">3</p>", "key_press": -1, "trial_type": "single-stim", "trial_index": 181, "time_elapsed": 836249, "internal_node_id": "0.0-129.0-7.0"}}, {"uniqueid": "MTK0959:33OOO72IVISPQ5DJJGGYB7OB8SLCTA", "current_trial": 182, "dateTime": 1512937839304, "trialdata": {"rt": -1, "stimulus": "<p id=\"stim\">2</p>", "key_press": -1, "trial_type": "single-stim", "trial_index": 182, "time_elapsed": 837250, "internal_node_id": "0.0-129.0-8.0"}}, {"uniqueid": "MTK0959:33OOO72IVISPQ5DJJGGYB7OB8SLCTA", "current_trial": 183, "dateTime": 1512937840313, "trialdata": {"rt": -1, "stimulus": "<p id=\"stim\">1</p>", "key_press": -1, "trial_type": "single-stim", "trial_index": 183, "time_elapsed": 838259, "internal_node_id": "0.0-129.0-9.0"}}, {"uniqueid": "MTK0959:33OOO72IVISPQ5DJJGGYB7OB8SLCTA", "current_trial": 184, "dateTime": 1512937841816, "trialdata": {"rt": -1, "stimulus": "<p id=\"stim\">+</p>", "key_press": -1, "type": "FIXATION", "trial_type": "single-stim", "trial_index": 184, "time_elapsed": 839762, "internal_node_id": "0.0-130.0-0.0"}}, {"uniqueid": "MTK0959:33OOO72IVISPQ5DJJGGYB7OB8SLCTA", "current_trial": 185, "dateTime": 1512937844247, "trialdata": {"rt": -1000, "stimulus": "/static/audio/wordpool/SALAD.wav", "key_press": -1, "type": "PRES_AUD", "word": "salad", "wordID": 1223, "conditions": [24, 1600, "a", 12000], "trial": 5, "serialpos": 0, "trial_type": "single-audio", "trial_index": 185, "time_elapsed": 842193, "internal_node_id": "0.0-131.0"}}, {"uniqueid": "MTK0959:33OOO72IVISPQ5DJJGGYB7OB8SLCTA", "current_trial": 186, "dateTime": 1512937846915, "trialdata": {"rt": -1000, "stimulus": "/static/audio/wordpool/ANTLER.wav", "key_press": -1, "type": "PRES_AUD", "word": "antler", "wordID": 28, "conditions": [24, 1600, "a", 12000], "trial": 5, "serialpos": 1, "trial_type": "single-audio", "trial_index": 186, "time_elapsed": 844861, "internal_node_id": "0.0-132.0"}}, {"uniqueid": "MTK0959:33OOO72IVISPQ5DJJGGYB7OB8SLCTA", "current_trial": 187, "dateTime": 1512937849357, "trialdata": {"rt": -1000, "stimulus": "/static/audio/wordpool/HUMAN.wav", "key_press": -1, "type": "PRES_AUD", "word": "human", "wordID": 725, "conditions": [24, 1600, "a", 12000], "trial": 5, "serialpos": 2, "trial_type": "single-audio", "trial_index": 187, "time_elapsed": 847303, "internal_node_id": "0.0-133.0"}}, {"uniqueid": "MTK0959:33OOO72IVISPQ5DJJGGYB7OB8SLCTA", "current_trial": 188, "dateTime": 1512937851799, "trialdata": {"rt": -1000, "stimulus": "/static/audio/wordpool/STAMP.wav", "key_press": -1, "type": "PRES_AUD", "word": "stamp", "wordID": 1369, "conditions": [24, 1600, "a", 12000], "trial": 5, "serialpos": 3, "trial_type": "single-audio", "trial_index": 188, "time_elapsed": 849745, "internal_node_id": "0.0-134.0"}}, {"uniqueid": "MTK0959:33OOO72IVISPQ5DJJGGYB7OB8SLCTA", "current_trial": 189, "dateTime": 1512937854536, "trialdata": {"rt": -1000, "stimulus": "/static/audio/wordpool/PILOT.wav", "key_press": -1, "type": "PRES_AUD", "word": "pilot", "wordID": 1069, "conditions": [24, 1600, "a", 12000], "trial": 5, "serialpos": 4, "trial_type": "single-audio", "trial_index": 189, "time_elapsed": 852482, "internal_node_id": "0.0-135.0"}}, {"uniqueid": "MTK0959:33OOO72IVISPQ5DJJGGYB7OB8SLCTA", "current_trial": 190, "dateTime": 1512937857087, "trialdata": {"rt": -1000, "stimulus": "/static/audio/wordpool/DIVER.wav", "key_press": -1, "type": "PRES_AUD", "word": "diver", "wordID": 475, "conditions": [24, 1600, "a", 12000], "trial": 5, "serialpos": 5, "trial_type": "single-audio", "trial_index": 190, "time_elapsed": 855033, "internal_node_id": "0.0-136.0"}}, {"uniqueid": "MTK0959:33OOO72IVISPQ5DJJGGYB7OB8SLCTA", "current_trial": 191, "dateTime": 1512937859589, "trialdata": {"rt": -1000, "stimulus": "/static/audio/wordpool/TWIG.wav", "key_press": -1, "type": "PRES_AUD", "word": "twig", "wordID": 1526, "conditions": [24, 1600, "a", 12000], "trial": 5, "serialpos": 6, "trial_type": "single-audio", "trial_index": 191, "time_elapsed": 857535, "internal_node_id": "0.0-137.0"}}, {"uniqueid": "MTK0959:33OOO72IVISPQ5DJJGGYB7OB8SLCTA", "current_trial": 192, "dateTime": 1512937862204, "trialdata": {"rt": -1000, "stimulus": "/static/audio/wordpool/CHAPEL.wav", "key_press": -1, "type": "PRES_AUD", "word": "chapel", "wordID": 279, "conditions": [24, 1600, "a", 12000], "trial": 5, "serialpos": 7, "trial_type": "single-audio", "trial_index": 192, "time_elapsed": 860150, "internal_node_id": "0.0-138.0"}}, {"uniqueid": "MTK0959:33OOO72IVISPQ5DJJGGYB7OB8SLCTA", "current_trial": 193, "dateTime": 1512937864677, "trialdata": {"rt": -1000, "stimulus": "/static/audio/wordpool/SCISSORS.wav", "key_press": -1, "type": "PRES_AUD", "word": "scissors", "wordID": 1249, "conditions": [24, 1600, "a", 12000], "trial": 5, "serialpos": 8, "trial_type": "single-audio", "trial_index": 193, "time_elapsed": 862623, "internal_node_id": "0.0-139.0"}}, {"uniqueid": "MTK0959:33OOO72IVISPQ5DJJGGYB7OB8SLCTA", "current_trial": 194, "dateTime": 1512937867291, "trialdata": {"rt": -1000, "stimulus": "/static/audio/wordpool/RAZOR.wav", "key_press": -1, "type": "PRES_AUD", "word": "razor", "wordID": 1170, "conditions": [24, 1600, "a", 12000], "trial": 5, "serialpos": 9, "trial_type": "single-audio", "trial_index": 194, "time_elapsed": 865237, "internal_node_id": "0.0-140.0"}}, {"uniqueid": "MTK0959:33OOO72IVISPQ5DJJGGYB7OB8SLCTA", "current_trial": 195, "dateTime": 1512937870025, "trialdata": {"rt": -1000, "stimulus": "/static/audio/wordpool/FARMER.wav", "key_press": -1, "type": "PRES_AUD", "word": "farmer", "wordID": 552, "conditions": [24, 1600, "a", 12000], "trial": 5, "serialpos": 10, "trial_type": "single-audio", "trial_index": 195, "time_elapsed": 867971, "internal_node_id": "0.0-141.0"}}, {"uniqueid": "MTK0959:33OOO72IVISPQ5DJJGGYB7OB8SLCTA", "current_trial": 196, "dateTime": 1512937872632, "trialdata": {"rt": -1000, "stimulus": "/static/audio/wordpool/CHURCH.wav", "key_press": -1, "type": "PRES_AUD", "word": "church", "wordID": 306, "conditions": [24, 1600, "a", 12000], "trial": 5, "serialpos": 11, "trial_type": "single-audio", "trial_index": 196, "time_elapsed": 870578, "internal_node_id": "0.0-142.0"}}, {"uniqueid": "MTK0959:33OOO72IVISPQ5DJJGGYB7OB8SLCTA", "current_trial": 197, "dateTime": 1512937875206, "trialdata": {"rt": -1000, "stimulus": "/static/audio/wordpool/CHAMPAGNE.wav", "key_press": -1, "type": "PRES_AUD", "word": "champagne", "wordID": 277, "conditions": [24, 1600, "a", 12000], "trial": 5, "serialpos": 12, "trial_type": "single-audio", "trial_index": 197, "time_elapsed": 873152, "internal_node_id": "0.0-143.0"}}, {"uniqueid": "MTK0959:33OOO72IVISPQ5DJJGGYB7OB8SLCTA", "current_trial": 198, "dateTime": 1512937877833, "trialdata": {"rt": -1000, "stimulus": "/static/audio/wordpool/RABBIT.wav", "key_press": -1, "type": "PRES_AUD", "word": "rabbit", "wordID": 1151, "conditions": [24, 1600, "a", 12000], "trial": 5, "serialpos": 13, "trial_type": "single-audio", "trial_index": 198, "time_elapsed": 875779, "internal_node_id": "0.0-144.0"}}, {"uniqueid": "MTK0959:33OOO72IVISPQ5DJJGGYB7OB8SLCTA", "current_trial": 199, "dateTime": 1512937880322, "trialdata": {"rt": -1000, "stimulus": "/static/audio/wordpool/PEBBLE.wav", "key_press": -1, "type": "PRES_AUD", "word": "pebble", "wordID": 1034, "conditions": [24, 1600, "a", 12000], "trial": 5, "serialpos": 14, "trial_type": "single-audio", "trial_index": 199, "time_elapsed": 878268, "internal_node_id": "0.0-145.0"}}, {"uniqueid": "MTK0959:33OOO72IVISPQ5DJJGGYB7OB8SLCTA", "current_trial": 200, "dateTime": 1512937882758, "trialdata": {"rt": -1000, "stimulus": "/static/audio/wordpool/PLAZA.wav", "key_press": -1, "type": "PRES_AUD", "word": "plaza", "wordID": 1087, "conditions": [24, 1600, "a", 12000], "trial": 5, "serialpos": 15, "trial_type": "single-audio", "trial_index": 200, "time_elapsed": 880704, "internal_node_id": "0.0-146.0"}}, {"uniqueid": "MTK0959:33OOO72IVISPQ5DJJGGYB7OB8SLCTA", "current_trial": 201, "dateTime": 1512937885474, "trialdata": {"rt": -1000, "stimulus": "/static/audio/wordpool/SIDEWALK.wav", "key_press": -1, "type": "PRES_AUD", "word": "sidewalk", "wordID": 1302, "conditions": [24, 1600, "a", 12000], "trial": 5, "serialpos": 16, "trial_type": "single-audio", "trial_index": 201, "time_elapsed": 883420, "internal_node_id": "0.0-147.0"}}, {"uniqueid": "MTK0959:33OOO72IVISPQ5DJJGGYB7OB8SLCTA", "current_trial": 202, "dateTime": 1512937888179, "trialdata": {"rt": -1000, "stimulus": "/static/audio/wordpool/CRAYON.wav", "key_press": -1, "type": "PRES_AUD", "word": "crayon", "wordID": 400, "conditions": [24, 1600, "a", 12000], "trial": 5, "serialpos": 17, "trial_type": "single-audio", "trial_index": 202, "time_elapsed": 886125, "internal_node_id": "0.0-148.0"}}, {"uniqueid": "MTK0959:33OOO72IVISPQ5DJJGGYB7OB8SLCTA", "current_trial": 203, "dateTime": 1512937890952, "trialdata": {"rt": -1000, "stimulus": "/static/audio/wordpool/SCALPEL.wav", "key_press": -1, "type": "PRES_AUD", "word": "scalpel", "wordID": 1242, "conditions": [24, 1600, "a", 12000], "trial": 5, "serialpos": 18, "trial_type": "single-audio", "trial_index": 203, "time_elapsed": 888897, "internal_node_id": "0.0-149.0"}}, {"uniqueid": "MTK0959:33OOO72IVISPQ5DJJGGYB7OB8SLCTA", "current_trial": 204, "dateTime": 1512937893383, "trialdata": {"rt": -1000, "stimulus": "/static/audio/wordpool/MISTER.wav", "key_press": -1, "type": "PRES_AUD", "word": "mister", "wordID": 900, "conditions": [24, 1600, "a", 12000], "trial": 5, "serialpos": 19, "trial_type": "single-audio", "trial_index": 204, "time_elapsed": 891329, "internal_node_id": "0.0-150.0"}}, {"uniqueid": "MTK0959:33OOO72IVISPQ5DJJGGYB7OB8SLCTA", "current_trial": 205, "dateTime": 1512937895956, "trialdata": {"rt": -1000, "stimulus": "/static/audio/wordpool/NOVEL.wav", "key_press": -1, "type": "PRES_AUD", "word": "novel", "wordID": 959, "conditions": [24, 1600, "a", 12000], "trial": 5, "serialpos": 20, "trial_type": "single-audio", "trial_index": 205, "time_elapsed": 893902, "internal_node_id": "0.0-151.0"}}, {"uniqueid": "MTK0959:33OOO72IVISPQ5DJJGGYB7OB8SLCTA", "current_trial": 206, "dateTime": 1512937898717, "trialdata": {"rt": -1000, "stimulus": "/static/audio/wordpool/CHIPMUNK.wav", "key_press": -1, "type": "PRES_AUD", "word": "chipmunk", "wordID": 303, "conditions": [24, 1600, "a", 12000], "trial": 5, "serialpos": 21, "trial_type": "single-audio", "trial_index": 206, "time_elapsed": 896663, "internal_node_id": "0.0-152.0"}}, {"uniqueid": "MTK0959:33OOO72IVISPQ5DJJGGYB7OB8SLCTA", "current_trial": 207, "dateTime": 1512937901377, "trialdata": {"rt": -1000, "stimulus": "/static/audio/wordpool/PLATE.wav", "key_press": -1, "type": "PRES_AUD", "word": "plate", "wordID": 1085, "conditions": [24, 1600, "a", 12000], "trial": 5, "serialpos": 22, "trial_type": "single-audio", "trial_index": 207, "time_elapsed": 899323, "internal_node_id": "0.0-153.0"}}, {"uniqueid": "MTK0959:33OOO72IVISPQ5DJJGGYB7OB8SLCTA", "current_trial": 208, "dateTime": 1512937904015, "trialdata": {"rt": -1000, "stimulus": "/static/audio/wordpool/QUAIL.wav", "key_press": -1, "type": "PRES_AUD", "word": "quail", "wordID": 1146, "conditions": [24, 1600, "a", 12000], "trial": 5, "serialpos": 23, "trial_type": "single-audio", "trial_index": 208, "time_elapsed": 901961, "internal_node_id": "0.0-154.0"}}, {"uniqueid": "MTK0959:33OOO72IVISPQ5DJJGGYB7OB8SLCTA", "current_trial": 209, "dateTime": 1512937905361, "trialdata": {"rt": -1, "stimulus": "", "key_press": -1, "type": "PRE_RECALL_DELAY", "trial_type": "single-stim", "trial_index": 209, "time_elapsed": 903306, "internal_node_id": "0.0-155.0-0.0"}}, {"uniqueid": "MTK0959:33OOO72IVISPQ5DJJGGYB7OB8SLCTA", "current_trial": 210, "dateTime": 1512937905865, "trialdata": {"rt": -1000, "stimulus": "/static/audio/400Hz.wav", "key_press": -1, "type": "PRE_RECALL_ALERT", "trial_type": "single-audio", "trial_index": 210, "time_elapsed": 903811, "internal_node_id": "0.0-156.0"}}, {"uniqueid": "MTK0959:33OOO72IVISPQ5DJJGGYB7OB8SLCTA", "current_trial": 211, "dateTime": 1512937965890, "trialdata": {"rt": [9652, 19061, 23161, 27104, 32877, 36761, 41684, 45923, 49336, 53313], "recwords": ["mister", "diver", "scissor", "apron", "scapel", "novel", "pebble", "stamp", "antler", "plaza"], "type": "FREE_RECALL", "conditions": [24, 1600, "a", 12000], "trial": 5, "trial_type": "free-recall", "trial_index": 211, "time_elapsed": 963828, "internal_node_id": "0.0-157.0-0.0"}}, {"uniqueid": "MTK0959:33OOO72IVISPQ5DJJGGYB7OB8SLCTA", "current_trial": 212, "dateTime": 1512937978888, "trialdata": {"rt": 10995, "key_press": 32, "type": "INSTRUCTIONS", "trial_type": "text", "trial_index": 212, "time_elapsed": 976834, "internal_node_id": "0.0-158.0"}}, {"uniqueid": "MTK0959:33OOO72IVISPQ5DJJGGYB7OB8SLCTA", "current_trial": 213, "dateTime": 1512937992891, "trialdata": {"rt": [3409, 5621, 7199, 9375], "responses": ["9", "13", "11", "13"], "num1": [3, 9, 1, 8, 4], "num2": [1, 1, 5, 2, 6], "num3": [5, 3, 5, 3, 3], "type": "DISTRACTOR", "conditions": [24, 800, "a", 12000], "trial": 6, "trial_type": "math-distractor", "trial_index": 213, "time_elapsed": 990837, "internal_node_id": "0.0-159.0"}}, {"uniqueid": "MTK0959:33OOO72IVISPQ5DJJGGYB7OB8SLCTA", "current_trial": 214, "dateTime": 1512937995895, "trialdata": {"rt": -1, "stimulus": "<p id=\"stim\">10</p>", "key_press": -1, "trial_type": "single-stim", "trial_index": 214, "time_elapsed": 993841, "internal_node_id": "0.0-160.0-0.0"}}, {"uniqueid": "MTK0959:33OOO72IVISPQ5DJJGGYB7OB8SLCTA", "current_trial": 215, "dateTime": 1512937996897, "trialdata": {"rt": -1, "stimulus": "<p id=\"stim\">9</p>", "key_press": -1, "trial_type": "single-stim", "trial_index": 215, "time_elapsed": 994843, "internal_node_id": "0.0-160.0-1.0"}}, {"uniqueid": "MTK0959:33OOO72IVISPQ5DJJGGYB7OB8SLCTA", "current_trial": 216, "dateTime": 1512937997898, "trialdata": {"rt": -1, "stimulus": "<p id=\"stim\">8</p>", "key_press": -1, "trial_type": "single-stim", "trial_index": 216, "time_elapsed": 995844, "internal_node_id": "0.0-160.0-2.0"}}, {"uniqueid": "MTK0959:33OOO72IVISPQ5DJJGGYB7OB8SLCTA", "current_trial": 217, "dateTime": 1512937998900, "trialdata": {"rt": -1, "stimulus": "<p id=\"stim\">7</p>", "key_press": -1, "trial_type": "single-stim", "trial_index": 217, "time_elapsed": 996846, "internal_node_id": "0.0-160.0-3.0"}}, {"uniqueid": "MTK0959:33OOO72IVISPQ5DJJGGYB7OB8SLCTA", "current_trial": 218, "dateTime": 1512937999901, "trialdata": {"rt": -1, "stimulus": "<p id=\"stim\">6</p>", "key_press": -1, "trial_type": "single-stim", "trial_index": 218, "time_elapsed": 997847, "internal_node_id": "0.0-160.0-4.0"}}, {"uniqueid": "MTK0959:33OOO72IVISPQ5DJJGGYB7OB8SLCTA", "current_trial": 219, "dateTime": 1512938000904, "trialdata": {"rt": -1, "stimulus": "<p id=\"stim\">5</p>", "key_press": -1, "trial_type": "single-stim", "trial_index": 219, "time_elapsed": 998850, "internal_node_id": "0.0-160.0-5.0"}}, {"uniqueid": "MTK0959:33OOO72IVISPQ5DJJGGYB7OB8SLCTA", "current_trial": 220, "dateTime": 1512938001905, "trialdata": {"rt": -1, "stimulus": "<p id=\"stim\">4</p>", "key_press": -1, "trial_type": "single-stim", "trial_index": 220, "time_elapsed": 999851, "internal_node_id": "0.0-160.0-6.0"}}, {"uniqueid": "MTK0959:33OOO72IVISPQ5DJJGGYB7OB8SLCTA", "current_trial": 221, "dateTime": 1512938002906, "trialdata": {"rt": -1, "stimulus": "<p id=\"stim\">3</p>", "key_press": -1, "trial_type": "single-stim", "trial_index": 221, "time_elapsed": 1000852, "internal_node_id": "0.0-160.0-7.0"}}, {"uniqueid": "MTK0959:33OOO72IVISPQ5DJJGGYB7OB8SLCTA", "current_trial": 222, "dateTime": 1512938003907, "trialdata": {"rt": -1, "stimulus": "<p id=\"stim\">2</p>", "key_press": -1, "trial_type": "single-stim", "trial_index": 222, "time_elapsed": 1001853, "internal_node_id": "0.0-160.0-8.0"}}, {"uniqueid": "MTK0959:33OOO72IVISPQ5DJJGGYB7OB8SLCTA", "current_trial": 223, "dateTime": 1512938004908, "trialdata": {"rt": -1, "stimulus": "<p id=\"stim\">1</p>", "key_press": -1, "trial_type": "single-stim", "trial_index": 223, "time_elapsed": 1002854, "internal_node_id": "0.0-160.0-9.0"}}, {"uniqueid": "MTK0959:33OOO72IVISPQ5DJJGGYB7OB8SLCTA", "current_trial": 224, "dateTime": 1512938006410, "trialdata": {"rt": -1, "stimulus": "<p id=\"stim\">+</p>", "key_press": -1, "type": "FIXATION", "trial_type": "single-stim", "trial_index": 224, "time_elapsed": 1004356, "internal_node_id": "0.0-161.0-0.0"}}, {"uniqueid": "MTK0959:33OOO72IVISPQ5DJJGGYB7OB8SLCTA", "current_trial": 225, "dateTime": 1512938008044, "trialdata": {"rt": -1000, "stimulus": "/static/audio/wordpool/LOVER.wav", "key_press": -1, "type": "PRES_AUD", "word": "lover", "wordID": 845, "conditions": [24, 800, "a", 12000], "trial": 6, "serialpos": 0, "trial_type": "single-audio", "trial_index": 225, "time_elapsed": 1005990, "internal_node_id": "0.0-162.0"}}, {"uniqueid": "MTK0959:33OOO72IVISPQ5DJJGGYB7OB8SLCTA", "current_trial": 226, "dateTime": 1512938009854, "trialdata": {"rt": -1000, "stimulus": "/static/audio/wordpool/PANTHER.wav", "key_press": -1, "type": "PRES_AUD", "word": "panther", "wordID": 1008, "conditions": [24, 800, "a", 12000], "trial": 6, "serialpos": 1, "trial_type": "single-audio", "trial_index": 226, "time_elapsed": 1007800, "internal_node_id": "0.0-163.0"}}, {"uniqueid": "MTK0959:33OOO72IVISPQ5DJJGGYB7OB8SLCTA", "current_trial": 227, "dateTime": 1512938011544, "trialdata": {"rt": -1000, "stimulus": "/static/audio/wordpool/CLAMP.wav", "key_press": -1, "type": "PRES_AUD", "word": "clamp", "wordID": 315, "conditions": [24, 800, "a", 12000], "trial": 6, "serialpos": 2, "trial_type": "single-audio", "trial_index": 227, "time_elapsed": 1009490, "internal_node_id": "0.0-164.0"}}, {"uniqueid": "MTK0959:33OOO72IVISPQ5DJJGGYB7OB8SLCTA", "current_trial": 228, "dateTime": 1512938013354, "trialdata": {"rt": -1000, "stimulus": "/static/audio/wordpool/COLLEGE.wav", "key_press": -1, "type": "PRES_AUD", "word": "college", "wordID": 345, "conditions": [24, 800, "a", 12000], "trial": 6, "serialpos": 3, "trial_type": "single-audio", "trial_index": 228, "time_elapsed": 1011300, "internal_node_id": "0.0-165.0"}}, {"uniqueid": "MTK0959:33OOO72IVISPQ5DJJGGYB7OB8SLCTA", "current_trial": 229, "dateTime": 1512938015337, "trialdata": {"rt": -1000, "stimulus": "/static/audio/wordpool/ICING.wav", "key_press": -1, "type": "PRES_AUD", "word": "icing", "wordID": 731, "conditions": [24, 800, "a", 12000], "trial": 6, "serialpos": 4, "trial_type": "single-audio", "trial_index": 229, "time_elapsed": 1013283, "internal_node_id": "0.0-166.0"}}, {"uniqueid": "MTK0959:33OOO72IVISPQ5DJJGGYB7OB8SLCTA", "current_trial": 230, "dateTime": 1512938017159, "trialdata": {"rt": -1000, "stimulus": "/static/audio/wordpool/PISTON.wav", "key_press": -1, "type": "PRES_AUD", "word": "piston", "wordID": 1075, "conditions": [24, 800, "a", 12000], "trial": 6, "serialpos": 5, "trial_type": "single-audio", "trial_index": 230, "time_elapsed": 1015104, "internal_node_id": "0.0-167.0"}}, {"uniqueid": "MTK0959:33OOO72IVISPQ5DJJGGYB7OB8SLCTA", "current_trial": 231, "dateTime": 1512938018985, "trialdata": {"rt": -1000, "stimulus": "/static/audio/wordpool/LEOPARD.wav", "key_press": -1, "type": "PRES_AUD", "word": "leopard", "wordID": 811, "conditions": [24, 800, "a", 12000], "trial": 6, "serialpos": 6, "trial_type": "single-audio", "trial_index": 231, "time_elapsed": 1016931, "internal_node_id": "0.0-168.0"}}, {"uniqueid": "MTK0959:33OOO72IVISPQ5DJJGGYB7OB8SLCTA", "current_trial": 232, "dateTime": 1512938020776, "trialdata": {"rt": -1000, "stimulus": "/static/audio/wordpool/CLOCK.wav", "key_press": -1, "type": "PRES_AUD", "word": "clock", "wordID": 324, "conditions": [24, 800, "a", 12000], "trial": 6, "serialpos": 7, "trial_type": "single-audio", "trial_index": 232, "time_elapsed": 1018721, "internal_node_id": "0.0-169.0"}}, {"uniqueid": "MTK0959:33OOO72IVISPQ5DJJGGYB7OB8SLCTA", "current_trial": 233, "dateTime": 1512938022511, "trialdata": {"rt": -1000, "stimulus": "/static/audio/wordpool/FRAME.wav", "key_press": -1, "type": "PRES_AUD", "word": "frame", "wordID": 599, "conditions": [24, 800, "a", 12000], "trial": 6, "serialpos": 8, "trial_type": "single-audio", "trial_index": 233, "time_elapsed": 1020457, "internal_node_id": "0.0-170.0"}}, {"uniqueid": "MTK0959:33OOO72IVISPQ5DJJGGYB7OB8SLCTA", "current_trial": 234, "dateTime": 1512938024325, "trialdata": {"rt": -1000, "stimulus": "/static/audio/wordpool/OYSTER.wav", "key_press": -1, "type": "PRES_AUD", "word": "oyster", "wordID": 994, "conditions": [24, 800, "a", 12000], "trial": 6, "serialpos": 9, "trial_type": "single-audio", "trial_index": 234, "time_elapsed": 1022271, "internal_node_id": "0.0-171.0"}}, {"uniqueid": "MTK0959:33OOO72IVISPQ5DJJGGYB7OB8SLCTA", "current_trial": 235, "dateTime": 1512938025992, "trialdata": {"rt": -1000, "stimulus": "/static/audio/wordpool/SCALLOP.wav", "key_press": -1, "type": "PRES_AUD", "word": "scallop", "wordID": 1241, "conditions": [24, 800, "a", 12000], "trial": 6, "serialpos": 10, "trial_type": "single-audio", "trial_index": 235, "time_elapsed": 1023937, "internal_node_id": "0.0-172.0"}}, {"uniqueid": "MTK0959:33OOO72IVISPQ5DJJGGYB7OB8SLCTA", "current_trial": 236, "dateTime": 1512938027836, "trialdata": {"rt": -1000, "stimulus": "/static/audio/wordpool/CUSTARD.wav", "key_press": -1, "type": "PRES_AUD", "word": "custard", "wordID": 428, "conditions": [24, 800, "a", 12000], "trial": 6, "serialpos": 11, "trial_type": "single-audio", "trial_index": 236, "time_elapsed": 1025782, "internal_node_id": "0.0-173.0"}}, {"uniqueid": "MTK0959:33OOO72IVISPQ5DJJGGYB7OB8SLCTA", "current_trial": 237, "dateTime": 1512938029509, "trialdata": {"rt": -1000, "stimulus": "/static/audio/wordpool/ROD.wav", "key_press": -1, "type": "PRES_AUD", "word": "rod", "wordID": 1202, "conditions": [24, 800, "a", 12000], "trial": 6, "serialpos": 12, "trial_type": "single-audio", "trial_index": 237, "time_elapsed": 1027455, "internal_node_id": "0.0-174.0"}}, {"uniqueid": "MTK0959:33OOO72IVISPQ5DJJGGYB7OB8SLCTA", "current_trial": 238, "dateTime": 1512938031258, "trialdata": {"rt": -1000, "stimulus": "/static/audio/wordpool/SPOOL.wav", "key_press": -1, "type": "PRES_AUD", "word": "spool", "wordID": 1355, "conditions": [24, 800, "a", 12000], "trial": 6, "serialpos": 13, "trial_type": "single-audio", "trial_index": 238, "time_elapsed": 1029204, "internal_node_id": "0.0-175.0"}}, {"uniqueid": "MTK0959:33OOO72IVISPQ5DJJGGYB7OB8SLCTA", "current_trial": 239, "dateTime": 1512938033100, "trialdata": {"rt": -1000, "stimulus": "/static/audio/wordpool/POPCORN.wav", "key_press": -1, "type": "PRES_AUD", "word": "popcorn", "wordID": 1103, "conditions": [24, 800, "a", 12000], "trial": 6, "serialpos": 14, "trial_type": "single-audio", "trial_index": 239, "time_elapsed": 1031046, "internal_node_id": "0.0-176.0"}}, {"uniqueid": "MTK0959:33OOO72IVISPQ5DJJGGYB7OB8SLCTA", "current_trial": 240, "dateTime": 1512938034941, "trialdata": {"rt": -1000, "stimulus": "/static/audio/wordpool/GROUND.wav", "key_press": -1, "type": "PRES_AUD", "word": "ground", "wordID": 665, "conditions": [24, 800, "a", 12000], "trial": 6, "serialpos": 15, "trial_type": "single-audio", "trial_index": 240, "time_elapsed": 1032887, "internal_node_id": "0.0-177.0"}}, {"uniqueid": "MTK0959:33OOO72IVISPQ5DJJGGYB7OB8SLCTA", "current_trial": 241, "dateTime": 1512938036584, "trialdata": {"rt": -1000, "stimulus": "/static/audio/wordpool/CANYON.wav", "key_press": -1, "type": "PRES_AUD", "word": "canyon", "wordID": 234, "conditions": [24, 800, "a", 12000], "trial": 6, "serialpos": 16, "trial_type": "single-audio", "trial_index": 241, "time_elapsed": 1034530, "internal_node_id": "0.0-178.0"}}, {"uniqueid": "MTK0959:33OOO72IVISPQ5DJJGGYB7OB8SLCTA", "current_trial": 242, "dateTime": 1512938038240, "trialdata": {"rt": -1000, "stimulus": "/static/audio/wordpool/TRENCH.wav", "key_press": -1, "type": "PRES_AUD", "word": "trench", "wordID": 1502, "conditions": [24, 800, "a", 12000], "trial": 6, "serialpos": 17, "trial_type": "single-audio", "trial_index": 242, "time_elapsed": 1036186, "internal_node_id": "0.0-179.0"}}, {"uniqueid": "MTK0959:33OOO72IVISPQ5DJJGGYB7OB8SLCTA", "current_trial": 243, "dateTime": 1512938040113, "trialdata": {"rt": -1000, "stimulus": "/static/audio/wordpool/COUNTY.wav", "key_press": -1, "type": "PRES_AUD", "word": "county", "wordID": 388, "conditions": [24, 800, "a", 12000], "trial": 6, "serialpos": 18, "trial_type": "single-audio", "trial_index": 243, "time_elapsed": 1038059, "internal_node_id": "0.0-180.0"}}, {"uniqueid": "MTK0959:33OOO72IVISPQ5DJJGGYB7OB8SLCTA", "current_trial": 244, "dateTime": 1512938041791, "trialdata": {"rt": -1000, "stimulus": "/static/audio/wordpool/TREAT.wav", "key_press": -1, "type": "PRES_AUD", "word": "treat", "wordID": 1500, "conditions": [24, 800, "a", 12000], "trial": 6, "serialpos": 19, "trial_type": "single-audio", "trial_index": 244, "time_elapsed": 1039737, "internal_node_id": "0.0-181.0"}}, {"uniqueid": "MTK0959:33OOO72IVISPQ5DJJGGYB7OB8SLCTA", "current_trial": 245, "dateTime": 1512938043502, "trialdata": {"rt": -1000, "stimulus": "/static/audio/wordpool/COOK.wav", "key_press": -1, "type": "PRES_AUD", "word": "cook", "wordID": 371, "conditions": [24, 800, "a", 12000], "trial": 6, "serialpos": 20, "trial_type": "single-audio", "trial_index": 245, "time_elapsed": 1041448, "internal_node_id": "0.0-182.0"}}, {"uniqueid": "MTK0959:33OOO72IVISPQ5DJJGGYB7OB8SLCTA", "current_trial": 246, "dateTime": 1512938045199, "trialdata": {"rt": -1000, "stimulus": "/static/audio/wordpool/JELLO.wav", "key_press": -1, "type": "PRES_AUD", "word": "jello", "wordID": 753, "conditions": [24, 800, "a", 12000], "trial": 6, "serialpos": 21, "trial_type": "single-audio", "trial_index": 246, "time_elapsed": 1043145, "internal_node_id": "0.0-183.0"}}, {"uniqueid": "MTK0959:33OOO72IVISPQ5DJJGGYB7OB8SLCTA", "current_trial": 247, "dateTime": 1512938047125, "trialdata": {"rt": -1000, "stimulus": "/static/audio/wordpool/SNACK.wav", "key_press": -1, "type": "PRES_AUD", "word": "snack", "wordID": 1330, "conditions": [24, 800, "a", 12000], "trial": 6, "serialpos": 22, "trial_type": "single-audio", "trial_index": 247, "time_elapsed": 1045070, "internal_node_id": "0.0-184.0"}}, {"uniqueid": "MTK0959:33OOO72IVISPQ5DJJGGYB7OB8SLCTA", "current_trial": 248, "dateTime": 1512938048805, "trialdata": {"rt": -1000, "stimulus": "/static/audio/wordpool/GRAVEL.wav", "key_press": -1, "type": "PRES_AUD", "word": "gravel", "wordID": 658, "conditions": [24, 800, "a", 12000], "trial": 6, "serialpos": 23, "trial_type": "single-audio", "trial_index": 248, "time_elapsed": 1046751, "internal_node_id": "0.0-185.0"}}, {"uniqueid": "MTK0959:33OOO72IVISPQ5DJJGGYB7OB8SLCTA", "current_trial": 249, "dateTime": 1512938050198, "trialdata": {"rt": -1, "stimulus": "", "key_press": -1, "type": "PRE_RECALL_DELAY", "trial_type": "single-stim", "trial_index": 249, "time_elapsed": 1048144, "internal_node_id": "0.0-186.0-0.0"}}, {"uniqueid": "MTK0959:33OOO72IVISPQ5DJJGGYB7OB8SLCTA", "current_trial": 250, "dateTime": 1512938050699, "trialdata": {"rt": -1000, "stimulus": "/static/audio/400Hz.wav", "key_press": -1, "type": "PRE_RECALL_ALERT", "trial_type": "single-audio", "trial_index": 250, "time_elapsed": 1048645, "internal_node_id": "0.0-187.0"}}, {"uniqueid": "MTK0959:33OOO72IVISPQ5DJJGGYB7OB8SLCTA", "current_trial": 251, "dateTime": 1512938110704, "trialdata": {"rt": [6412, 8952, 13046, 17169, 19883, 24125, 29775, 32308, 36070, 37593], "recwords": ["panther", "jello", "treat", "county", "spool", "popcorn", "oyster", "clock", "college", "icing"], "type": "FREE_RECALL", "conditions": [24, 800, "a", 12000], "trial": 6, "trial_type": "free-recall", "trial_index": 251, "time_elapsed": 1108647, "internal_node_id": "0.0-188.0-0.0"}}, {"uniqueid": "MTK0959:33OOO72IVISPQ5DJJGGYB7OB8SLCTA", "current_trial": 252, "dateTime": 1512938114853, "trialdata": {"rt": 2148, "key_press": 32, "type": "INSTRUCTIONS", "trial_type": "text", "trial_index": 252, "time_elapsed": 1112799, "internal_node_id": "0.0-189.0"}}, {"uniqueid": "MTK0959:33OOO72IVISPQ5DJJGGYB7OB8SLCTA", "current_trial": 253, "dateTime": 1512938128856, "trialdata": {"rt": [3226, 4634, 8921, 11368], "responses": ["8", "3", "20", "20"], "num1": [2, 1, 7, 3, 9], "num2": [4, 1, 6, 8, 7], "num3": [2, 1, 7, 7, 9], "type": "DISTRACTOR", "conditions": [12, 800, "v", 12000], "trial": 7, "trial_type": "math-distractor", "trial_index": 253, "time_elapsed": 1126802, "internal_node_id": "0.0-190.0"}}, {"uniqueid": "MTK0959:33OOO72IVISPQ5DJJGGYB7OB8SLCTA", "current_trial": 254, "dateTime": 1512938131858, "trialdata": {"rt": -1, "stimulus": "<p id=\"stim\">10</p>", "key_press": -1, "trial_type": "single-stim", "trial_index": 254, "time_elapsed": 1129804, "internal_node_id": "0.0-191.0-0.0"}}, {"uniqueid": "MTK0959:33OOO72IVISPQ5DJJGGYB7OB8SLCTA", "current_trial": 255, "dateTime": 1512938132859, "trialdata": {"rt": -1, "stimulus": "<p id=\"stim\">9</p>", "key_press": -1, "trial_type": "single-stim", "trial_index": 255, "time_elapsed": 1130805, "internal_node_id": "0.0-191.0-1.0"}}, {"uniqueid": "MTK0959:33OOO72IVISPQ5DJJGGYB7OB8SLCTA", "current_trial": 256, "dateTime": 1512938133861, "trialdata": {"rt": -1, "stimulus": "<p id=\"stim\">8</p>", "key_press": -1, "trial_type": "single-stim", "trial_index": 256, "time_elapsed": 1131807, "internal_node_id": "0.0-191.0-2.0"}}, {"uniqueid": "MTK0959:33OOO72IVISPQ5DJJGGYB7OB8SLCTA", "current_trial": 257, "dateTime": 1512938134862, "trialdata": {"rt": -1, "stimulus": "<p id=\"stim\">7</p>", "key_press": -1, "trial_type": "single-stim", "trial_index": 257, "time_elapsed": 1132808, "internal_node_id": "0.0-191.0-3.0"}}, {"uniqueid": "MTK0959:33OOO72IVISPQ5DJJGGYB7OB8SLCTA", "current_trial": 258, "dateTime": 1512938135863, "trialdata": {"rt": -1, "stimulus": "<p id=\"stim\">6</p>", "key_press": -1, "trial_type": "single-stim", "trial_index": 258, "time_elapsed": 1133809, "internal_node_id": "0.0-191.0-4.0"}}, {"uniqueid": "MTK0959:33OOO72IVISPQ5DJJGGYB7OB8SLCTA", "current_trial": 259, "dateTime": 1512938136874, "trialdata": {"rt": -1, "stimulus": "<p id=\"stim\">5</p>", "key_press": -1, "trial_type": "single-stim", "trial_index": 259, "time_elapsed": 1134820, "internal_node_id": "0.0-191.0-5.0"}}, {"uniqueid": "MTK0959:33OOO72IVISPQ5DJJGGYB7OB8SLCTA", "current_trial": 260, "dateTime": 1512938137874, "trialdata": {"rt": -1, "stimulus": "<p id=\"stim\">4</p>", "key_press": -1, "trial_type": "single-stim", "trial_index": 260, "time_elapsed": 1135820, "internal_node_id": "0.0-191.0-6.0"}}, {"uniqueid": "MTK0959:33OOO72IVISPQ5DJJGGYB7OB8SLCTA", "current_trial": 261, "dateTime": 1512938138875, "trialdata": {"rt": -1, "stimulus": "<p id=\"stim\">3</p>", "key_press": -1, "trial_type": "single-stim", "trial_index": 261, "time_elapsed": 1136821, "internal_node_id": "0.0-191.0-7.0"}}, {"uniqueid": "MTK0959:33OOO72IVISPQ5DJJGGYB7OB8SLCTA", "current_trial": 262, "dateTime": 1512938139877, "trialdata": {"rt": -1, "stimulus": "<p id=\"stim\">2</p>", "key_press": -1, "trial_type": "single-stim", "trial_index": 262, "time_elapsed": 1137823, "internal_node_id": "0.0-191.0-8.0"}}, {"uniqueid": "MTK0959:33OOO72IVISPQ5DJJGGYB7OB8SLCTA", "current_trial": 263, "dateTime": 1512938140879, "trialdata": {"rt": -1, "stimulus": "<p id=\"stim\">1</p>", "key_press": -1, "trial_type": "single-stim", "trial_index": 263, "time_elapsed": 1138825, "internal_node_id": "0.0-191.0-9.0"}}, {"uniqueid": "MTK0959:33OOO72IVISPQ5DJJGGYB7OB8SLCTA", "current_trial": 264, "dateTime": 1512938142381, "trialdata": {"rt": -1, "stimulus": "<p id=\"stim\">+</p>", "key_press": -1, "type": "FIXATION", "trial_type": "single-stim", "trial_index": 264, "time_elapsed": 1140327, "internal_node_id": "0.0-192.0-0.0"}}, {"uniqueid": "MTK0959:33OOO72IVISPQ5DJJGGYB7OB8SLCTA", "current_trial": 265, "dateTime": 1512938143183, "trialdata": {"rt": -1, "stimulus": "<p id=\"stim\">ASIA</p>", "key_press": -1, "type": "PRES_VIS", "word": "asia", "wordID": 45, "conditions": [12, 800, "v", 12000], "trial": 7, "serialpos": 0, "trial_type": "single-stim", "trial_index": 265, "time_elapsed": 1141129, "internal_node_id": "0.0-193.0"}}, {"uniqueid": "MTK0959:33OOO72IVISPQ5DJJGGYB7OB8SLCTA", "current_trial": 266, "dateTime": 1512938145036, "trialdata": {"rt": -1, "stimulus": "<p id=\"stim\">BLUEPRINT</p>", "key_press": -1, "type": "PRES_VIS", "word": "blueprint", "wordID": 141, "conditions": [12, 800, "v", 12000], "trial": 7, "serialpos": 1, "trial_type": "single-stim", "trial_index": 266, "time_elapsed": 1142982, "internal_node_id": "0.0-194.0"}}, {"uniqueid": "MTK0959:33OOO72IVISPQ5DJJGGYB7OB8SLCTA", "current_trial": 267, "dateTime": 1512938146663, "trialdata": {"rt": -1, "stimulus": "<p id=\"stim\">NAPKIN</p>", "key_press": -1, "type": "PRES_VIS", "word": "napkin", "wordID": 936, "conditions": [12, 800, "v", 12000], "trial": 7, "serialpos": 2, "trial_type": "single-stim", "trial_index": 267, "time_elapsed": 1144609, "internal_node_id": "0.0-195.0"}}, {"uniqueid": "MTK0959:33OOO72IVISPQ5DJJGGYB7OB8SLCTA", "current_trial": 268, "dateTime": 1512938148485, "trialdata": {"rt": -1, "stimulus": "<p id=\"stim\">PERMIT</p>", "key_press": -1, "type": "PRES_VIS", "word": "permit", "wordID": 1050, "conditions": [12, 800, "v", 12000], "trial": 7, "serialpos": 3, "trial_type": "single-stim", "trial_index": 268, "time_elapsed": 1146431, "internal_node_id": "0.0-196.0"}}, {"uniqueid": "MTK0959:33OOO72IVISPQ5DJJGGYB7OB8SLCTA", "current_trial": 269, "dateTime": 1512938150158, "trialdata": {"rt": -1, "stimulus": "<p id=\"stim\">PIGEON</p>", "key_press": -1, "type": "PRES_VIS", "word": "pigeon", "wordID": 1064, "conditions": [12, 800, "v", 12000], "trial": 7, "serialpos": 4, "trial_type": "single-stim", "trial_index": 269, "time_elapsed": 1148104, "internal_node_id": "0.0-197.0"}}, {"uniqueid": "MTK0959:33OOO72IVISPQ5DJJGGYB7OB8SLCTA", "current_trial": 270, "dateTime": 1512938152003, "trialdata": {"rt": -1, "stimulus": "<p id=\"stim\">RAFT</p>", "key_press": -1, "type": "PRES_VIS", "word": "raft", "wordID": 1158, "conditions": [12, 800, "v", 12000], "trial": 7, "serialpos": 5, "trial_type": "single-stim", "trial_index": 270, "time_elapsed": 1149949, "internal_node_id": "0.0-198.0"}}, {"uniqueid": "MTK0959:33OOO72IVISPQ5DJJGGYB7OB8SLCTA", "current_trial": 271, "dateTime": 1512938153729, "trialdata": {"rt": -1, "stimulus": "<p id=\"stim\">HOOK</p>", "key_press": -1, "type": "PRES_VIS", "word": "hook", "wordID": 714, "conditions": [12, 800, "v", 