{"condition": 0, "counterbalance": 634, "assignmentId": "358010RM5F0S6VS3F7C0Q2X64ENVX9", "workerId": "MTK0578", "hitId": "306W7JMRYY5LVWVVCG46K7QMW8PB83", "currenttrial": 626, "bonus": 0, "data": [{"uniqueid": "MTK0578:358010RM5F0S6VS3F7C0Q2X64ENVX9", "current_trial": 0, "dateTime": 1511217140154, "trialdata": {"rt": 2965, "key_press": 75, "type": "INSTRUCTIONS", "trial_type": "text", "trial_index": 0, "time_elapsed": 2975, "internal_node_id": "0.0-0.0"}}, {"uniqueid": "MTK0578:358010RM5F0S6VS3F7C0Q2X64ENVX9", "current_trial": 1, "dateTime": 1511217165181, "trialdata": {"rt": 25021, "key_press": 175, "type": "INSTRUCTIONS", "trial_type": "text", "trial_index": 1, "time_elapsed": 28008, "internal_node_id": "0.0-1.0"}}, {"uniqueid": "MTK0578:358010RM5F0S6VS3F7C0Q2X64ENVX9", "current_trial": 2, "dateTime": 1511217175837, "trialdata": {"rt": [9041], "responses": ["ocean"], "type": "AUDIO_TEST", "trial_type": "audio-test", "trial_index": 2, "time_elapsed": 38664, "internal_node_id": "0.0-2.0"}}, {"uniqueid": "MTK0578:358010RM5F0S6VS3F7C0Q2X64ENVX9", "current_trial": 3, "dateTime": 1511217188811, "trialdata": {"rt": [12914], "responses": ["crystal"], "type": "AUDIO_TEST", "trial_type": "audio-test", "trial_index": 3, "time_elapsed": 51638, "internal_node_id": "0.0-3.0"}}, {"uniqueid": "MTK0578:358010RM5F0S6VS3F7C0Q2X64ENVX9", "current_trial": 4, "dateTime": 1511217192993, "trialdata": {"rt": [4158], "responses": ["spice"], "type": "AUDIO_TEST", "trial_type": "audio-test", "trial_index": 4, "time_elapsed": 55820, "internal_node_id": "0.0-4.0"}}, {"uniqueid": "MTK0578:358010RM5F0S6VS3F7C0Q2X64ENVX9", "current_trial": 5, "dateTime": 1511217223367, "trialdata": {"rt": 29605, "responses": "{\"Q0\":\"9:00\",\"Q1\":\"7:00\",\"Q2\":\"5\"}", "type": "SLEEP_SURVEY", "trial_type": "survey-text", "trial_index": 5, "time_elapsed": 86194, "internal_node_id": "0.0-5.0"}}, {"uniqueid": "MTK0578:358010RM5F0S6VS3F7C0Q2X64ENVX9", "current_trial": 6, "dateTime": 1511217263999, "trialdata": {"rt": 39624, "key_press": 74, "type": "INSTRUCTIONS", "trial_type": "text", "trial_index": 6, "time_elapsed": 126826, "internal_node_id": "0.0-6.0"}}, {"uniqueid": "MTK0578:358010RM5F0S6VS3F7C0Q2X64ENVX9", "current_trial": 7, "dateTime": 1511217277355, "trialdata": {"rt": 12852, "key_press": 72, "type": "INSTRUCTIONS", "trial_type": "text", "trial_index": 7, "time_elapsed": 140182, "internal_node_id": "0.0-7.0"}}, {"uniqueid": "MTK0578:358010RM5F0S6VS3F7C0Q2X64ENVX9", "current_trial": 8, "dateTime": 1511217285042, "trialdata": {"rt": 7155, "key_press": 74, "type": "INSTRUCTIONS", "trial_type": "text", "trial_index": 8, "time_elapsed": 147869, "internal_node_id": "0.0-8.0"}}, {"uniqueid": "MTK0578:358010RM5F0S6VS3F7C0Q2X64ENVX9", "current_trial": 9, "dateTime": 1511217304094, "trialdata": {"rt": [13929], "responses": ["10"], "num1": [3, 7], "num2": [3, 7], "num3": [4, 7], "type": "DISTRACTOR", "conditions": [18, 1200, "a", 18000], "trial": 0, "trial_type": "math-distractor", "trial_index": 9, "time_elapsed": 166921, "internal_node_id": "0.0-9.0"}}, {"uniqueid": "MTK0578:358010RM5F0S6VS3F7C0Q2X64ENVX9", "current_trial": 10, "dateTime": 1511217307097, "trialdata": {"rt": -1, "stimulus": "<p id=\"stim\">10</p>", "key_press": -1, "trial_type": "single-stim", "trial_index": 10, "time_elapsed": 169924, "internal_node_id": "0.0-10.0-0.0"}}, {"uniqueid": "MTK0578:358010RM5F0S6VS3F7C0Q2X64ENVX9", "current_trial": 11, "dateTime": 1511217308103, "trialdata": {"rt": -1, "stimulus": "<p id=\"stim\">9</p>", "key_press": -1, "trial_type": "single-stim", "trial_index": 11, "time_elapsed": 170930, "internal_node_id": "0.0-10.0-1.0"}}, {"uniqueid": "MTK0578:358010RM5F0S6VS3F7C0Q2X64ENVX9", "current_trial": 12, "dateTime": 1511217309107, "trialdata": {"rt": -1, "stimulus": "<p id=\"stim\">8</p>", "key_press": -1, "trial_type": "single-stim", "trial_index": 12, "time_elapsed": 171934, "internal_node_id": "0.0-10.0-2.0"}}, {"uniqueid": "MTK0578:358010RM5F0S6VS3F7C0Q2X64ENVX9", "current_trial": 13, "dateTime": 1511217310107, "trialdata": {"rt": -1, "stimulus": "<p id=\"stim\">7</p>", "key_press": -1, "trial_type": "single-stim", "trial_index": 13, "time_elapsed": 172934, "internal_node_id": "0.0-10.0-3.0"}}, {"uniqueid": "MTK0578:358010RM5F0S6VS3F7C0Q2X64ENVX9", "current_trial": 14, "dateTime": 1511217311113, "trialdata": {"rt": -1, "stimulus": "<p id=\"stim\">6</p>", "key_press": -1, "trial_type": "single-stim", "trial_index": 14, "time_elapsed": 173940, "internal_node_id": "0.0-10.0-4.0"}}, {"uniqueid": "MTK0578:358010RM5F0S6VS3F7C0Q2X64ENVX9", "current_trial": 15, "dateTime": 1511217312132, "trialdata": {"rt": -1, "stimulus": "<p id=\"stim\">5</p>", "key_press": -1, "trial_type": "single-stim", "trial_index": 15, "time_elapsed": 174955, "internal_node_id": "0.0-10.0-5.0"}}, {"uniqueid": "MTK0578:358010RM5F0S6VS3F7C0Q2X64ENVX9", "current_trial": 16, "dateTime": 1511217313132, "trialdata": {"rt": -1, "stimulus": "<p id=\"stim\">4</p>", "key_press": -1, "trial_type": "single-stim", "trial_index": 16, "time_elapsed": 175959, "internal_node_id": "0.0-10.0-6.0"}}, {"uniqueid": "MTK0578:358010RM5F0S6VS3F7C0Q2X64ENVX9", "current_trial": 17, "dateTime": 1511217314132, "trialdata": {"rt": -1, "stimulus": "<p id=\"stim\">3</p>", "key_press": -1, "trial_type": "single-stim", "trial_index": 17, "time_elapsed": 176959, "internal_node_id": "0.0-10.0-7.0"}}, {"uniqueid": "MTK0578:358010RM5F0S6VS3F7C0Q2X64ENVX9", "current_trial": 18, "dateTime": 1511217315150, "trialdata": {"rt": -1, "stimulus": "<p id=\"stim\">2</p>", "key_press": -1, "trial_type": "single-stim", "trial_index": 18, "time_elapsed": 177976, "internal_node_id": "0.0-10.0-8.0"}}, {"uniqueid": "MTK0578:358010RM5F0S6VS3F7C0Q2X64ENVX9", "current_trial": 19, "dateTime": 1511217316188, "trialdata": {"rt": -1, "stimulus": "<p id=\"stim\">1</p>", "key_press": -1, "trial_type": "single-stim", "trial_index": 19, "time_elapsed": 179015, "internal_node_id": "0.0-10.0-9.0"}}, {"uniqueid": "MTK0578:358010RM5F0S6VS3F7C0Q2X64ENVX9", "current_trial": 20, "dateTime": 1511217317702, "trialdata": {"rt": -1, "stimulus": "<p id=\"stim\">+</p>", "key_press": -1, "type": "FIXATION", "trial_type": "single-stim", "trial_index": 20, "time_elapsed": 180529, "internal_node_id": "0.0-11.0-0.0"}}, {"uniqueid": "MTK0578:358010RM5F0S6VS3F7C0Q2X64ENVX9", "current_trial": 21, "dateTime": 1511217319983, "trialdata": {"rt": -1000, "stimulus": "/static/audio/wordpool/POCKET.wav", "key_press": -1, "type": "PRES_AUD", "word": "pocket", "wordID": 1092, "conditions": [18, 1200, "a", 18000], "trial": 0, "serialpos": 0, "trial_type": "single-audio", "trial_index": 21, "time_elapsed": 182810, "internal_node_id": "0.0-12.0"}}, {"uniqueid": "MTK0578:358010RM5F0S6VS3F7C0Q2X64ENVX9", "current_trial": 22, "dateTime": 1511217322119, "trialdata": {"rt": 1878.6666666666747, "stimulus": "/static/audio/wordpool/ARMY.wav", "key_press": 175, "type": "PRES_AUD", "word": "army", "wordID": 38, "conditions": [18, 1200, "a", 18000], "trial": 0, "serialpos": 1, "trial_type": "single-audio", "trial_index": 22, "time_elapsed": 184946, "internal_node_id": "0.0-13.0"}}, {"uniqueid": "MTK0578:358010RM5F0S6VS3F7C0Q2X64ENVX9", "current_trial": 23, "dateTime": 1511217324425, "trialdata": {"rt": -38.66666666664287, "stimulus": "/static/audio/wordpool/TART.wav", "key_press": 175, "type": "PRES_AUD", "word": "tart", "wordID": 1435, "conditions": [18, 1200, "a", 18000], "trial": 0, "serialpos": 2, "trial_type": "single-audio", "trial_index": 23, "time_elapsed": 187252, "internal_node_id": "0.0-14.0"}}, {"uniqueid": "MTK0578:358010RM5F0S6VS3F7C0Q2X64ENVX9", "current_trial": 24, "dateTime": 1511217326722, "trialdata": {"rt": 147.99999999999613, "stimulus": "/static/audio/wordpool/ZIPPER.wav", "key_press": 175, "type": "PRES_AUD", "word": "zipper", "wordID": 1635, "conditions": [18, 1200, "a", 18000], "trial": 0, "serialpos": 3, "trial_type": "single-audio", "trial_index": 24, "time_elapsed": 189549, "internal_node_id": "0.0-15.0"}}, {"uniqueid": "MTK0578:358010RM5F0S6VS3F7C0Q2X64ENVX9", "current_trial": 25, "dateTime": 1511217328954, "trialdata": {"rt": -1000, "stimulus": "/static/audio/wordpool/PICTURE.wav", "key_press": -1, "type": "PRES_AUD", "word": "picture", "wordID": 1060, "conditions": [18, 1200, "a", 18000], "trial": 0, "serialpos": 4, "trial_type": "single-audio", "trial_index": 25, "time_elapsed": 191781, "internal_node_id": "0.0-16.0"}}, {"uniqueid": "MTK0578:358010RM5F0S6VS3F7C0Q2X64ENVX9", "current_trial": 26, "dateTime": 1511217330966, "trialdata": {"rt": -1000, "stimulus": "/static/audio/wordpool/OUTFIT.wav", "key_press": -1, "type": "PRES_AUD", "word": "outfit", "wordID": 987, "conditions": [18, 1200, "a", 18000], "trial": 0, "serialpos": 5, "trial_type": "single-audio", "trial_index": 26, "time_elapsed": 193793, "internal_node_id": "0.0-17.0"}}, {"uniqueid": "MTK0578:358010RM5F0S6VS3F7C0Q2X64ENVX9", "current_trial": 27, "dateTime": 1511217333130, "trialdata": {"rt": -1000, "stimulus": "/static/audio/wordpool/SIDEWALK.wav", "key_press": -1, "type": "PRES_AUD", "word": "sidewalk", "wordID": 1302, "conditions": [18, 1200, "a", 18000], "trial": 0, "serialpos": 6, "trial_type": "single-audio", "trial_index": 27, "time_elapsed": 195957, "internal_node_id": "0.0-18.0"}}, {"uniqueid": "MTK0578:358010RM5F0S6VS3F7C0Q2X64ENVX9", "current_trial": 28, "dateTime": 1511217335250, "trialdata": {"rt": -1000, "stimulus": "/static/audio/wordpool/SWORD.wav", "key_press": -1, "type": "PRES_AUD", "word": "sword", "wordID": 1422, "conditions": [18, 1200, "a", 18000], "trial": 0, "serialpos": 7, "trial_type": "single-audio", "trial_index": 28, "time_elapsed": 198077, "internal_node_id": "0.0-19.0"}}, {"uniqueid": "MTK0578:358010RM5F0S6VS3F7C0Q2X64ENVX9", "current_trial": 29, "dateTime": 1511217337456, "trialdata": {"rt": -1000, "stimulus": "/static/audio/wordpool/BUREAU.wav", "key_press": -1, "type": "PRES_AUD", "word": "bureau", "wordID": 198, "conditions": [18, 1200, "a", 18000], "trial": 0, "serialpos": 8, "trial_type": "single-audio", "trial_index": 29, "time_elapsed": 200282, "internal_node_id": "0.0-20.0"}}, {"uniqueid": "MTK0578:358010RM5F0S6VS3F7C0Q2X64ENVX9", "current_trial": 30, "dateTime": 1511217339851, "trialdata": {"rt": -1000, "stimulus": "/static/audio/wordpool/HUMAN.wav", "key_press": -1, "type": "PRES_AUD", "word": "human", "wordID": 725, "conditions": [18, 1200, "a", 18000], "trial": 0, "serialpos": 9, "trial_type": "single-audio", "trial_index": 30, "time_elapsed": 202678, "internal_node_id": "0.0-21.0"}}, {"uniqueid": "MTK0578:358010RM5F0S6VS3F7C0Q2X64ENVX9", "current_trial": 31, "dateTime": 1511217341963, "trialdata": {"rt": -1000, "stimulus": "/static/audio/wordpool/COMPASS.wav", "key_press": -1, "type": "PRES_AUD", "word": "compass", "wordID": 357, "conditions": [18, 1200, "a", 18000], "trial": 0, "serialpos": 10, "trial_type": "single-audio", "trial_index": 31, "time_elapsed": 204790, "internal_node_id": "0.0-22.0"}}, {"uniqueid": "MTK0578:358010RM5F0S6VS3F7C0Q2X64ENVX9", "current_trial": 32, "dateTime": 1511217344349, "trialdata": {"rt": -1000, "stimulus": "/static/audio/wordpool/SUPPER.wav", "key_press": -1, "type": "PRES_AUD", "word": "supper", "wordID": 1410, "conditions": [18, 1200, "a", 18000], "trial": 0, "serialpos": 11, "trial_type": "single-audio", "trial_index": 32, "time_elapsed": 207175, "internal_node_id": "0.0-23.0"}}, {"uniqueid": "MTK0578:358010RM5F0S6VS3F7C0Q2X64ENVX9", "current_trial": 33, "dateTime": 1511217346754, "trialdata": {"rt": -1000, "stimulus": "/static/audio/wordpool/PREACHER.wav", "key_press": -1, "type": "PRES_AUD", "word": "preacher", "wordID": 1118, "conditions": [18, 1200, "a", 18000], "trial": 0, "serialpos": 12, "trial_type": "single-audio", "trial_index": 33, "time_elapsed": 209581, "internal_node_id": "0.0-24.0"}}, {"uniqueid": "MTK0578:358010RM5F0S6VS3F7C0Q2X64ENVX9", "current_trial": 34, "dateTime": 1511217348826, "trialdata": {"rt": -1000, "stimulus": "/static/audio/wordpool/BELLY.wav", "key_press": -1, "type": "PRES_AUD", "word": "belly", "wordID": 118, "conditions": [18, 1200, "a", 18000], "trial": 0, "serialpos": 13, "trial_type": "single-audio", "trial_index": 34, "time_elapsed": 211652, "internal_node_id": "0.0-25.0"}}, {"uniqueid": "MTK0578:358010RM5F0S6VS3F7C0Q2X64ENVX9", "current_trial": 35, "dateTime": 1511217351217, "trialdata": {"rt": -1000, "stimulus": "/static/audio/wordpool/CUSTARD.wav", "key_press": -1, "type": "PRES_AUD", "word": "custard", "wordID": 428, "conditions": [18, 1200, "a", 18000], "trial": 0, "serialpos": 14, "trial_type": "single-audio", "trial_index": 35, "time_elapsed": 214044, "internal_node_id": "0.0-26.0"}}, {"uniqueid": "MTK0578:358010RM5F0S6VS3F7C0Q2X64ENVX9", "current_trial": 36, "dateTime": 1511217353363, "trialdata": {"rt": -1000, "stimulus": "/static/audio/wordpool/CASHEW.wav", "key_press": -1, "type": "PRES_AUD", "word": "cashew", "wordID": 252, "conditions": [18, 1200, "a", 18000], "trial": 0, "serialpos": 15, "trial_type": "single-audio", "trial_index": 36, "time_elapsed": 216190, "internal_node_id": "0.0-27.0"}}, {"uniqueid": "MTK0578:358010RM5F0S6VS3F7C0Q2X64ENVX9", "current_trial": 37, "dateTime": 1511217355740, "trialdata": {"rt": -1000, "stimulus": "/static/audio/wordpool/BUGGY.wav", "key_press": -1, "type": "PRES_AUD", "word": "buggy", "wordID": 187, "conditions": [18, 1200, "a", 18000], "trial": 0, "serialpos": 16, "trial_type": "single-audio", "trial_index": 37, "time_elapsed": 218567, "internal_node_id": "0.0-28.0"}}, {"uniqueid": "MTK0578:358010RM5F0S6VS3F7C0Q2X64ENVX9", "current_trial": 38, "dateTime": 1511217357927, "trialdata": {"rt": -1000, "stimulus": "/static/audio/wordpool/COCOON.wav", "key_press": -1, "type": "PRES_AUD", "word": "cocoon", "wordID": 338, "conditions": [18, 1200, "a", 18000], "trial": 0, "serialpos": 17, "trial_type": "single-audio", "trial_index": 38, "time_elapsed": 220754, "internal_node_id": "0.0-29.0"}}, {"uniqueid": "MTK0578:358010RM5F0S6VS3F7C0Q2X64ENVX9", "current_trial": 39, "dateTime": 1511217359224, "trialdata": {"rt": -1, "stimulus": "", "key_press": -1, "type": "PRE_RECALL_DELAY", "trial_type": "single-stim", "trial_index": 39, "time_elapsed": 222051, "internal_node_id": "0.0-30.0-0.0"}}, {"uniqueid": "MTK0578:358010RM5F0S6VS3F7C0Q2X64ENVX9", "current_trial": 40, "dateTime": 1511217359735, "trialdata": {"rt": -1000, "stimulus": "/static/audio/400Hz.wav", "key_press": -1, "type": "PRE_RECALL_ALERT", "trial_type": "single-audio", "trial_index": 40, "time_elapsed": 222562, "internal_node_id": "0.0-31.0"}}, {"uniqueid": "MTK0578:358010RM5F0S6VS3F7C0Q2X64ENVX9", "current_trial": 41, "dateTime": 1511217419767, "trialdata": {"rt": [4094, 6522, 8786, 13336, 24438], "recwords": ["custard", "buggy", "cocoon", "zipper", "store"], "type": "FREE_RECALL", "conditions": [18, 1200, "a", 18000], "trial": 0, "trial_type": "free-recall", "trial_index": 41, "time_elapsed": 282581, "internal_node_id": "0.0-32.0-0.0"}}, {"uniqueid": "MTK0578:358010RM5F0S6VS3F7C0Q2X64ENVX9", "current_trial": 42, "dateTime": 1511217424009, "trialdata": {"rt": 2224, "key_press": 71, "type": "INSTRUCTIONS", "trial_type": "text", "trial_index": 42, "time_elapsed": 286836, "internal_node_id": "0.0-33.0"}}, {"uniqueid": "MTK0578:358010RM5F0S6VS3F7C0Q2X64ENVX9", "current_trial": 43, "dateTime": 1511217444021, "trialdata": {"rt": [4533, 8034, 10256, 12558, 16060], "responses": ["15", "15", "14", "14", "19"], "num1": [9, 5, 2, 5, 7, 7], "num2": [4, 9, 9, 8, 8, 9], "num3": [2, 1, 3, 1, 4, 6], "type": "DISTRACTOR", "conditions": [18, 1200, "v", 18000], "trial": 1, "trial_type": "math-distractor", "trial_index": 43, "time_elapsed": 306848, "internal_node_id": "0.0-34.0"}}, {"uniqueid": "MTK0578:358010RM5F0S6VS3F7C0Q2X64ENVX9", "current_trial": 44, "dateTime": 1511217447032, "trialdata": {"rt": -1, "stimulus": "<p id=\"stim\">10</p>", "key_press": -1, "trial_type": "single-stim", "trial_index": 44, "time_elapsed": 309859, "internal_node_id": "0.0-35.0-0.0"}}, {"uniqueid": "MTK0578:358010RM5F0S6VS3F7C0Q2X64ENVX9", "current_trial": 45, "dateTime": 1511217448033, "trialdata": {"rt": -1, "stimulus": "<p id=\"stim\">9</p>", "key_press": -1, "trial_type": "single-stim", "trial_index": 45, "time_elapsed": 310860, "internal_node_id": "0.0-35.0-1.0"}}, {"uniqueid": "MTK0578:358010RM5F0S6VS3F7C0Q2X64ENVX9", "current_trial": 46, "dateTime": 1511217449033, "trialdata": {"rt": -1, "stimulus": "<p id=\"stim\">8</p>", "key_press": -1, "trial_type": "single-stim", "trial_index": 46, "time_elapsed": 311860, "internal_node_id": "0.0-35.0-2.0"}}, {"uniqueid": "MTK0578:358010RM5F0S6VS3F7C0Q2X64ENVX9", "current_trial": 47, "dateTime": 1511217450040, "trialdata": {"rt": -1, "stimulus": "<p id=\"stim\">7</p>", "key_press": -1, "trial_type": "single-stim", "trial_index": 47, "time_elapsed": 312867, "internal_node_id": "0.0-35.0-3.0"}}, {"uniqueid": "MTK0578:358010RM5F0S6VS3F7C0Q2X64ENVX9", "current_trial": 48, "dateTime": 1511217451051, "trialdata": {"rt": -1, "stimulus": "<p id=\"stim\">6</p>", "key_press": -1, "trial_type": "single-stim", "trial_index": 48, "time_elapsed": 313878, "internal_node_id": "0.0-35.0-4.0"}}, {"uniqueid": "MTK0578:358010RM5F0S6VS3F7C0Q2X64ENVX9", "current_trial": 49, "dateTime": 1511217452051, "trialdata": {"rt": -1, "stimulus": "<p id=\"stim\">5</p>", "key_press": -1, "trial_type": "single-stim", "trial_index": 49, "time_elapsed": 314878, "internal_node_id": "0.0-35.0-5.0"}}, {"uniqueid": "MTK0578:358010RM5F0S6VS3F7C0Q2X64ENVX9", "current_trial": 50, "dateTime": 1511217453052, "trialdata": {"rt": -1, "stimulus": "<p id=\"stim\">4</p>", "key_press": -1, "trial_type": "single-stim", "trial_index": 50, "time_elapsed": 315879, "internal_node_id": "0.0-35.0-6.0"}}, {"uniqueid": "MTK0578:358010RM5F0S6VS3F7C0Q2X64ENVX9", "current_trial": 51, "dateTime": 1511217454053, "trialdata": {"rt": -1, "stimulus": "<p id=\"stim\">3</p>", "key_press": -1, "trial_type": "single-stim", "trial_index": 51, "time_elapsed": 316880, "internal_node_id": "0.0-35.0-7.0"}}, {"uniqueid": "MTK0578:358010RM5F0S6VS3F7C0Q2X64ENVX9", "current_trial": 52, "dateTime": 1511217455054, "trialdata": {"rt": -1, "stimulus": "<p id=\"stim\">2</p>", "key_press": -1, "trial_type": "single-stim", "trial_index": 52, "time_elapsed": 317881, "internal_node_id": "0.0-35.0-8.0"}}, {"uniqueid": "MTK0578:358010RM5F0S6VS3F7C0Q2X64ENVX9", "current_trial": 53, "dateTime": 1511217456055, "trialdata": {"rt": -1, "stimulus": "<p id=\"stim\">1</p>", "key_press": -1, "trial_type": "single-stim", "trial_index": 53, "time_elapsed": 318882, "internal_node_id": "0.0-35.0-9.0"}}, {"uniqueid": "MTK0578:358010RM5F0S6VS3F7C0Q2X64ENVX9", "current_trial": 54, "dateTime": 1511217457561, "trialdata": {"rt": -1, "stimulus": "<p id=\"stim\">+</p>", "key_press": -1, "type": "FIXATION", "trial_type": "single-stim", "trial_index": 54, "time_elapsed": 320388, "internal_node_id": "0.0-36.0-0.0"}}, {"uniqueid": "MTK0578:358010RM5F0S6VS3F7C0Q2X64ENVX9", "current_trial": 55, "dateTime": 1511217458764, "trialdata": {"rt": -1, "stimulus": "<p id=\"stim\">HIGHWAY</p>", "key_press": -1, "type": "PRES_VIS", "word": "highway", "wordID": 706, "conditions": [18, 1200, "v", 18000], "trial": 1, "serialpos": 0, "trial_type": "single-stim", "trial_index": 55, "time_elapsed": 321591, "internal_node_id": "0.0-37.0"}}, {"uniqueid": "MTK0578:358010RM5F0S6VS3F7C0Q2X64ENVX9", "current_trial": 56, "dateTime": 1511217460950, "trialdata": {"rt": -1, "stimulus": "<p id=\"stim\">UMPIRE</p>", "key_press": -1, "type": "PRES_VIS", "word": "umpire", "wordID": 1534, "conditions": [18, 1200, "v", 18000], "trial": 1, "serialpos": 1, "trial_type": "single-stim", "trial_index": 56, "time_elapsed": 323777, "internal_node_id": "0.0-38.0"}}, {"uniqueid": "MTK0578:358010RM5F0S6VS3F7C0Q2X64ENVX9", "current_trial": 57, "dateTime": 1511217462970, "trialdata": {"rt": -1, "stimulus": "<p id=\"stim\">FOREST</p>", "key_press": -1, "type": "PRES_VIS", "word": "forest", "wordID": 592, "conditions": [18, 1200, "v", 18000], "trial": 1, "serialpos": 2, "trial_type": "single-stim", "trial_index": 57, "time_elapsed": 325797, "internal_node_id": "0.0-39.0"}}, {"uniqueid": "MTK0578:358010RM5F0S6VS3F7C0Q2X64ENVX9", "current_trial": 58, "dateTime": 1511217465073, "trialdata": {"rt": -1, "stimulus": "<p id=\"stim\">UNCLE</p>", "key_press": -1, "type": "PRES_VIS", "word": "uncle", "wordID": 1535, "conditions": [18, 1200, "v", 18000], "trial": 1, "serialpos": 3, "trial_type": "single-stim", "trial_index": 58, "time_elapsed": 327900, "internal_node_id": "0.0-40.0"}}, {"uniqueid": "MTK0578:358010RM5F0S6VS3F7C0Q2X64ENVX9", "current_trial": 59, "dateTime": 1511217467094, "trialdata": {"rt": -1, "stimulus": "<p id=\"stim\">VICTIM</p>", "key_press": -1, "type": "PRES_VIS", "word": "victim", "wordID": 1561, "conditions": [18, 1200, "v", 18000], "trial": 1, "serialpos": 4, "trial_type": "single-stim", "trial_index": 59, "time_elapsed": 329921, "internal_node_id": "0.0-41.0"}}, {"uniqueid": "MTK0578:358010RM5F0S6VS3F7C0Q2X64ENVX9", "current_trial": 60, "dateTime": 1511217469347, "trialdata": {"rt": -1, "stimulus": "<p id=\"stim\">DAUGHTER</p>", "key_press": -1, "type": "PRES_VIS", "word": "daughter", "wordID": 441, "conditions": [18, 1200, "v", 18000], "trial": 1, "serialpos": 5, "trial_type": "single-stim", "trial_index": 60, "time_elapsed": 332170, "internal_node_id": "0.0-42.0"}}, {"uniqueid": "MTK0578:358010RM5F0S6VS3F7C0Q2X64ENVX9", "current_trial": 61, "dateTime": 1511217471624, "trialdata": {"rt": -1, "stimulus": "<p id=\"stim\">RIVER</p>", "key_press": -1, "type": "PRES_VIS", "word": "river", "wordID": 1193, "conditions": [18, 1200, "v", 18000], "trial": 1, "serialpos": 6, "trial_type": "single-stim", "trial_index": 61, "time_elapsed": 334431, "internal_node_id": "0.0-43.0"}}, {"uniqueid": "MTK0578:358010RM5F0S6VS3F7C0Q2X64ENVX9", "current_trial": 62, "dateTime": 1511217473834, "trialdata": {"rt": -1, "stimulus": "<p id=\"stim\">GARLIC</p>", "key_press": -1, "type": "PRES_VIS", "word": "garlic", "wordID": 623, "conditions": [18, 1200, "v", 18000], "trial": 1, "serialpos": 7, "trial_type": "single-stim", "trial_index": 62, "time_elapsed": 336660, "internal_node_id": "0.0-44.0"}}, {"uniqueid": "MTK0578:358010RM5F0S6VS3F7C0Q2X64ENVX9", "current_trial": 63, "dateTime": 1511217475853, "trialdata": {"rt": -1, "stimulus": "<p id=\"stim\">TREAT</p>", "key_press": -1, "type": "PRES_VIS", "word": "treat", "wordID": 1500, "conditions": [18, 1200, "v", 18000], "trial": 1, "serialpos": 8, "trial_type": "single-stim", "trial_index": 63, "time_elapsed": 338676, "internal_node_id": "0.0-45.0"}}, {"uniqueid": "MTK0578:358010RM5F0S6VS3F7C0Q2X64ENVX9", "current_trial": 64, "dateTime": 1511217478240, "trialdata": {"rt": -1, "stimulus": "<p id=\"stim\">COIN</p>", "key_press": -1, "type": "PRES_VIS", "word": "coin", "wordID": 342, "conditions": [18, 1200, "v", 18000], "trial": 1, "serialpos": 9, "trial_type": "single-stim", "trial_index": 64, "time_elapsed": 341067, "internal_node_id": "0.0-46.0"}}, {"uniqueid": "MTK0578:358010RM5F0S6VS3F7C0Q2X64ENVX9", "current_trial": 65, "dateTime": 1511217480615, "trialdata": {"rt": -1, "stimulus": "<p id=\"stim\">TYPIST</p>", "key_press": -1, "type": "PRES_VIS", "word": "typist", "wordID": 1531, "conditions": [18, 1200, "v", 18000], "trial": 1, "serialpos": 10, "trial_type": "single-stim", "trial_index": 65, "time_elapsed": 343438, "internal_node_id": "0.0-47.0"}}, {"uniqueid": "MTK0578:358010RM5F0S6VS3F7C0Q2X64ENVX9", "current_trial": 66, "dateTime": 1511217482637, "trialdata": {"rt": -1, "stimulus": "<p id=\"stim\">STUDENT</p>", "key_press": -1, "type": "PRES_VIS", "word": "student", "wordID": 1394, "conditions": [18, 1200, "v", 18000], "trial": 1, "serialpos": 11, "trial_type": "single-stim", "trial_index": 66, "time_elapsed": 345464, "internal_node_id": "0.0-48.0"}}, {"uniqueid": "MTK0578:358010RM5F0S6VS3F7C0Q2X64ENVX9", "current_trial": 67, "dateTime": 1511217484875, "trialdata": {"rt": -1, "stimulus": "<p id=\"stim\">CHEMIST</p>", "key_press": -1, "type": "PRES_VIS", "word": "chemist", "wordID": 291, "conditions": [18, 1200, "v", 18000], "trial": 1, "serialpos": 12, "trial_type": "single-stim", "trial_index": 67, "time_elapsed": 347702, "internal_node_id": "0.0-49.0"}}, {"uniqueid": "MTK0578:358010RM5F0S6VS3F7C0Q2X64ENVX9", "current_trial": 68, "dateTime": 1511217487136, "trialdata": {"rt": -1, "stimulus": "<p id=\"stim\">CASHIER</p>", "key_press": -1, "type": "PRES_VIS", "word": "cashier", "wordID": 253, "conditions": [18, 1200, "v", 18000], "trial": 1, "serialpos": 13, "trial_type": "single-stim", "trial_index": 68, "time_elapsed": 349951, "internal_node_id": "0.0-50.0"}}, {"uniqueid": "MTK0578:358010RM5F0S6VS3F7C0Q2X64ENVX9", "current_trial": 69, "dateTime": 1511217489443, "trialdata": {"rt": -1, "stimulus": "<p id=\"stim\">DRINK</p>", "key_press": -1, "type": "PRES_VIS", "word": "drink", "wordID": 497, "conditions": [18, 1200, "v", 18000], "trial": 1, "serialpos": 14, "trial_type": "single-stim", "trial_index": 69, "time_elapsed": 352270, "internal_node_id": "0.0-51.0"}}, {"uniqueid": "MTK0578:358010RM5F0S6VS3F7C0Q2X64ENVX9", "current_trial": 70, "dateTime": 1511217491721, "trialdata": {"rt": -1, "stimulus": "<p id=\"stim\">RATTLE</p>", "key_press": -1, "type": "PRES_VIS", "word": "rattle", "wordID": 1169, "conditions": [18, 1200, "v", 18000], "trial": 1, "serialpos": 15, "trial_type": "single-stim", "trial_index": 70, "time_elapsed": 354548, "internal_node_id": "0.0-52.0"}}, {"uniqueid": "MTK0578:358010RM5F0S6VS3F7C0Q2X64ENVX9", "current_trial": 71, "dateTime": 1511217493799, "trialdata": {"rt": -1, "stimulus": "<p id=\"stim\">MARKET</p>", "key_press": -1, "type": "PRES_VIS", "word": "market", "wordID": 870, "conditions": [18, 1200, "v", 18000], "trial": 1, "serialpos": 16, "trial_type": "single-stim", "trial_index": 71, "time_elapsed": 356625, "internal_node_id": "0.0-53.0"}}, {"uniqueid": "MTK0578:358010RM5F0S6VS3F7C0Q2X64ENVX9", "current_trial": 72, "dateTime": 1511217495961, "trialdata": {"rt": -1, "stimulus": "<p id=\"stim\">ACTRESS</p>", "key_press": -1, "type": "PRES_VIS", "word": "actress", "wordID": 5, "conditions": [18, 1200, "v", 18000], "trial": 1, "serialpos": 17, "trial_type": "single-stim", "trial_index": 72, "time_elapsed": 358788, "internal_node_id": "0.0-54.0"}}, {"uniqueid": "MTK0578:358010RM5F0S6VS3F7C0Q2X64ENVX9", "current_trial": 73, "dateTime": 1511217498267, "trialdata": {"rt": -1, "stimulus": "", "key_press": -1, "type": "PRE_RECALL_DELAY", "trial_type": "single-stim", "trial_index": 73, "time_elapsed": 361094, "internal_node_id": "0.0-55.0-0.0"}}, {"uniqueid": "MTK0578:358010RM5F0S6VS3F7C0Q2X64ENVX9", "current_trial": 74, "dateTime": 1511217498769, "trialdata": {"rt": -1000, "stimulus": "/static/audio/400Hz.wav", "key_press": -1, "type": "PRE_RECALL_ALERT", "trial_type": "single-audio", "trial_index": 74, "time_elapsed": 361596, "internal_node_id": "0.0-56.0"}}, {"uniqueid": "MTK0578:358010RM5F0S6VS3F7C0Q2X64ENVX9", "current_trial": 75, "dateTime": 1511217558792, "trialdata": {"rt": [4254, 5978, 9450, 12350, 13802, 16895], "recwords": ["cashier", "drink", "river", "typist", "chemist", "student"], "type": "FREE_RECALL", "conditions": [18, 1200, "v", 18000], "trial": 1, "trial_type": "free-recall", "trial_index": 75, "time_elapsed": 421611, "internal_node_id": "0.0-57.0-0.0"}}, {"uniqueid": "MTK0578:358010RM5F0S6VS3F7C0Q2X64ENVX9", "current_trial": 76, "dateTime": 1511217564516, "trialdata": {"rt": 3689, "key_press": 13, "type": "INSTRUCTIONS", "trial_type": "text", "trial_index": 76, "time_elapsed": 427315, "internal_node_id": "0.0-58.0"}}, {"uniqueid": "MTK0578:358010RM5F0S6VS3F7C0Q2X64ENVX9", "current_trial": 77, "dateTime": 1511217589600, "trialdata": {"rt": [3458, 7639, 9610, 15861, 19665, 22203], "responses": ["16", "27", "12", "27", "13", "11"], "num1": [4, 8, 5, 9, 2, 6, 2], "num2": [8, 9, 5, 9, 4, 1, 5], "num3": [4, 9, 2, 8, 7, 4, 7], "type": "DISTRACTOR", "conditions": [12, 1600, "a", 24000], "trial": 2, "trial_type": "math-distractor", "trial_index": 77, "time_elapsed": 452427, "internal_node_id": "0.0-59.0"}}, {"uniqueid": "MTK0578:358010RM5F0S6VS3F7C0Q2X64ENVX9", "current_trial": 78, "dateTime": 1511217592607, "trialdata": {"rt": -1, "stimulus": "<p id=\"stim\">10</p>", "key_press": -1, "trial_type": "single-stim", "trial_index": 78, "time_elapsed": 455434, "internal_node_id": "0.0-60.0-0.0"}}, {"uniqueid": "MTK0578:358010RM5F0S6VS3F7C0Q2X64ENVX9", "current_trial": 79, "dateTime": 1511217593629, "trialdata": {"rt": -1, "stimulus": "<p id=\"stim\">9</p>", "key_press": -1, "trial_type": "single-stim", "trial_index": 79, "time_elapsed": 456449, "internal_node_id": "0.0-60.0-1.0"}}, {"uniqueid": "MTK0578:358010RM5F0S6VS3F7C0Q2X64ENVX9", "current_trial": 80, "dateTime": 1511217594639, "trialdata": {"rt": -1, "stimulus": "<p id=\"stim\">8</p>", "key_press": -1, "trial_type": "single-stim", "trial_index": 80, "time_elapsed": 457465, "internal_node_id": "0.0-60.0-2.0"}}, {"uniqueid": "MTK0578:358010RM5F0S6VS3F7C0Q2X64ENVX9", "current_trial": 81, "dateTime": 1511217595641, "trialdata": {"rt": -1, "stimulus": "<p id=\"stim\">7</p>", "key_press": -1, "trial_type": "single-stim", "trial_index": 81, "time_elapsed": 458468, "internal_node_id": "0.0-60.0-3.0"}}, {"uniqueid": "MTK0578:358010RM5F0S6VS3F7C0Q2X64ENVX9", "current_trial": 82, "dateTime": 1511217596651, "trialdata": {"rt": -1, "stimulus": "<p id=\"stim\">6</p>", "key_press": -1, "trial_type": "single-stim", "trial_index": 82, "time_elapsed": 459478, "internal_node_id": "0.0-60.0-4.0"}}, {"uniqueid": "MTK0578:358010RM5F0S6VS3F7C0Q2X64ENVX9", "current_trial": 83, "dateTime": 1511217597656, "trialdata": {"rt": -1, "stimulus": "<p id=\"stim\">5</p>", "key_press": -1, "trial_type": "single-stim", "trial_index": 83, "time_elapsed": 460483, "internal_node_id": "0.0-60.0-5.0"}}, {"uniqueid": "MTK0578:358010RM5F0S6VS3F7C0Q2X64ENVX9", "current_trial": 84, "dateTime": 1511217598661, "trialdata": {"rt": -1, "stimulus": "<p id=\"stim\">4</p>", "key_press": -1, "trial_type": "single-stim", "trial_index": 84, "time_elapsed": 461488, "internal_node_id": "0.0-60.0-6.0"}}, {"uniqueid": "MTK0578:358010RM5F0S6VS3F7C0Q2X64ENVX9", "current_trial": 85, "dateTime": 1511217599675, "trialdata": {"rt": -1, "stimulus": "<p id=\"stim\">3</p>", "key_press": -1, "trial_type": "single-stim", "trial_index": 85, "time_elapsed": 462502, "internal_node_id": "0.0-60.0-7.0"}}, {"uniqueid": "MTK0578:358010RM5F0S6VS3F7C0Q2X64ENVX9", "current_trial": 86, "dateTime": 1511217600685, "trialdata": {"rt": -1, "stimulus": "<p id=\"stim\">2</p>", "key_press": -1, "trial_type": "single-stim", "trial_index": 86, "time_elapsed": 463512, "internal_node_id": "0.0-60.0-8.0"}}, {"uniqueid": "MTK0578:358010RM5F0S6VS3F7C0Q2X64ENVX9", "current_trial": 87, "dateTime": 1511217601691, "trialdata": {"rt": -1, "stimulus": "<p id=\"stim\">1</p>", "key_press": -1, "trial_type": "single-stim", "trial_index": 87, "time_elapsed": 464517, "internal_node_id": "0.0-60.0-9.0"}}, {"uniqueid": "MTK0578:358010RM5F0S6VS3F7C0Q2X64ENVX9", "current_trial": 88, "dateTime": 1511217603191, "trialdata": {"rt": -1, "stimulus": "<p id=\"stim\">+</p>", "key_press": -1, "type": "FIXATION", "trial_type": "single-stim", "trial_index": 88, "time_elapsed": 466018, "internal_node_id": "0.0-61.0-0.0"}}, {"uniqueid": "MTK0578:358010RM5F0S6VS3F7C0Q2X64ENVX9", "current_trial": 89, "dateTime": 1511217605672, "trialdata": {"rt": -1000, "stimulus": "/static/audio/wordpool/RUST.wav", "key_press": -1, "type": "PRES_AUD", "word": "rust", "wordID": 1218, "conditions": [12, 1600, "a", 24000], "trial": 2, "serialpos": 0, "trial_type": "single-audio", "trial_index": 89, "time_elapsed": 468498, "internal_node_id": "0.0-62.0"}}, {"uniqueid": "MTK0578:358010RM5F0S6VS3F7C0Q2X64ENVX9", "current_trial": 90, "dateTime": 1511217608225, "trialdata": {"rt": -1000, "stimulus": "/static/audio/wordpool/PARTNER.wav", "key_press": -1, "type": "PRES_AUD", "word": "partner", "wordID": 1016, "conditions": [12, 1600, "a", 24000], "trial": 2, "serialpos": 1, "trial_type": "single-audio", "trial_index": 90, "time_elapsed": 471052, "internal_node_id": "0.0-63.0"}}, {"uniqueid": "MTK0578:358010RM5F0S6VS3F7C0Q2X64ENVX9", "current_trial": 91, "dateTime": 1511217610730, "trialdata": {"rt": -1000, "stimulus": "/static/audio/wordpool/WIFE.wav", "key_press": -1, "type": "PRES_AUD", "word": "wife", "wordID": 1608, "conditions": [12, 1600, "a", 24000], "trial": 2, "serialpos": 2, "trial_type": "single-audio", "trial_index": 91, "time_elapsed": 473557, "internal_node_id": "0.0-64.0"}}, {"uniqueid": "MTK0578:358010RM5F0S6VS3F7C0Q2X64ENVX9", "current_trial": 92, "dateTime": 1511217613211, "trialdata": {"rt": -1000, "stimulus": "/static/audio/wordpool/TRUCK.wav", "key_press": -1, "type": "PRES_AUD", "word": "truck", "wordID": 1511, "conditions": [12, 1600, "a", 24000], "trial": 2, "serialpos": 3, "trial_type": "single-audio", "trial_index": 92, "time_elapsed": 476038, "internal_node_id": "0.0-65.0"}}, {"uniqueid": "MTK0578:358010RM5F0S6VS3F7C0Q2X64ENVX9", "current_trial": 93, "dateTime": 1511217615643, "trialdata": {"rt": -1000, "stimulus": "/static/audio/wordpool/DRIVER.wav", "key_press": -1, "type": "PRES_AUD", "word": "driver", "wordID": 498, "conditions": [12, 1600, "a", 24000], "trial": 2, "serialpos": 4, "trial_type": "single-audio", "trial_index": 93, "time_elapsed": 478470, "internal_node_id": "0.0-66.0"}}, {"uniqueid": "MTK0578:358010RM5F0S6VS3F7C0Q2X64ENVX9", "current_trial": 94, "dateTime": 1511217618226, "trialdata": {"rt": -1000, "stimulus": "/static/audio/wordpool/POSSUM.wav", "key_press": -1, "type": "PRES_AUD", "word": "possum", "wordID": 1111, "conditions": [12, 1600, "a", 24000], "trial": 2, "serialpos": 5, "trial_type": "single-audio", "trial_index": 94, "time_elapsed": 481053, "internal_node_id": "0.0-67.0"}}, {"uniqueid": "MTK0578:358010RM5F0S6VS3F7C0Q2X64ENVX9", "current_trial": 95, "dateTime": 1511217620641, "trialdata": {"rt": -1000, "stimulus": "/static/audio/wordpool/JOURNAL.wav", "key_press": -1, "type": "PRES_AUD", "word": "journal", "wordID": 759, "conditions": [12, 1600, "a", 24000], "trial": 2, "serialpos": 6, "trial_type": "single-audio", "trial_index": 95, "time_elapsed": 483468, "internal_node_id": "0.0-68.0"}}, {"uniqueid": "MTK0578:358010RM5F0S6VS3F7C0Q2X64ENVX9", "current_trial": 96, "dateTime": 1511217623259, "trialdata": {"rt": -1000, "stimulus": "/static/audio/wordpool/POET.wav", "key_press": -1, "type": "PRES_AUD", "word": "poet", "wordID": 1094, "conditions": [12, 1600, "a", 24000], "trial": 2, "serialpos": 7, "trial_type": "single-audio", "trial_index": 96, "time_elapsed": 486086, "internal_node_id": "0.0-69.0"}}, {"uniqueid": "MTK0578:358010RM5F0S6VS3F7C0Q2X64ENVX9", "current_trial": 97, "dateTime": 1511217625841, "trialdata": {"rt": -1000, "stimulus": "/static/audio/wordpool/DASHBOARD.wav", "key_press": -1, "type": "PRES_AUD", "word": "dashboard", "wordID": 440, "conditions": [12, 1600, "a", 24000], "trial": 2, "serialpos": 8, "trial_type": "single-audio", "trial_index": 97, "time_elapsed": 488668, "internal_node_id": "0.0-70.0"}}, {"uniqueid": "MTK0578:358010RM5F0S6VS3F7C0Q2X64ENVX9", "current_trial": 98, "dateTime": 1511217628424, "trialdata": {"rt": -1000, "stimulus": "/static/audio/wordpool/FEMALE.wav", "key_press": -1, "type": "PRES_AUD", "word": "female", "wordID": 558, "conditions": [12, 1600, "a", 24000], "trial": 2, "serialpos": 9, "trial_type": "single-audio", "trial_index": 98, "time_elapsed": 491251, "internal_node_id": "0.0-71.0"}}, {"uniqueid": "MTK0578:358010RM5F0S6VS3F7C0Q2X64ENVX9", "current_trial": 99, "dateTime": 1511217630828, "trialdata": {"rt": -1000, "stimulus": "/static/audio/wordpool/HOSTESS.wav", "key_press": -1, "type": "PRES_AUD", "word": "hostess", "wordID": 722, "conditions": [12, 1600, "a", 24000], "trial": 2, "serialpos": 10, "trial_type": "single-audio", "trial_index": 99, "time_elapsed": 493655, "internal_node_id": "0.0-72.0"}}, {"uniqueid": "MTK0578:358010RM5F0S6VS3F7C0Q2X64ENVX9", "current_trial": 100, "dateTime": 1511217633538, "trialdata": {"rt": -1000, "stimulus": "/static/audio/wordpool/COUSIN.wav", "key_press": -1, "type": "PRES_AUD", "word": "cousin", "wordID": 391, "conditions": [12, 1600, "a", 24000], "trial": 2, "serialpos": 11, "trial_type": "single-audio", "trial_index": 100, "time_elapsed": 496365, "internal_node_id": "0.0-73.0"}}, {"uniqueid": "MTK0578:358010RM5F0S6VS3F7C0Q2X64ENVX9", "current_trial": 101, "dateTime": 1511217634847, "trialdata": {"rt": -1, "stimulus": "", "key_press": -1, "type": "PRE_RECALL_DELAY", "trial_type": "single-stim", "trial_index": 101, "time_elapsed": 497674, "internal_node_id": "0.0-74.0-0.0"}}, {"uniqueid": "MTK0578:358010RM5F0S6VS3F7C0Q2X64ENVX9", "current_trial": 102, "dateTime": 1511217635357, "trialdata": {"rt": -1000, "stimulus": "/static/audio/400Hz.wav", "key_press": -1, "type": "PRE_RECALL_ALERT", "trial_type": "single-audio", "trial_index": 102, "time_elapsed": 498184, "internal_node_id": "0.0-75.0"}}, {"uniqueid": "MTK0578:358010RM5F0S6VS3F7C0Q2X64ENVX9", "current_trial": 103, "dateTime": 1511217695395, "trialdata": {"rt": [2916, 4953, 6196, 9531, 12041, 15825, 17160, 21011, 23112], "recwords": ["rust", "partner", "driver", "journal", "poet", "dashboard", "female", "hostess", "cousin"], "type": "FREE_RECALL", "conditions": [12, 1600, "a", 24000], "trial": 2, "trial_type": "free-recall", "trial_index": 103, "time_elapsed": 558210, "internal_node_id": "0.0-76.0-0.0"}}, {"uniqueid": "MTK0578:358010RM5F0S6VS3F7C0Q2X64ENVX9", "current_trial": 104, "dateTime": 1511217699311, "trialdata": {"rt": 1915, "key_press": 74, "type": "INSTRUCTIONS", "trial_type": "text", "trial_index": 104, "time_elapsed": 562138, "internal_node_id": "0.0-77.0"}}, {"uniqueid": "MTK0578:358010RM5F0S6VS3F7C0Q2X64ENVX9", "current_trial": 105, "dateTime": 1511217713321, "trialdata": {"rt": [3410, 6621, 8515, 10938], "responses": ["21", "19", "11", "17"], "num1": [8, 9, 3, 8, 7], "num2": [7, 3, 6, 3, 5], "num3": [6, 6, 2, 5, 2], "type": "DISTRACTOR", "conditions": [12, 800, "a", 12000], "trial": 3, "trial_type": "math-distractor", "trial_index": 105, "time_elapsed": 576148, "internal_node_id": "0.0-78.0"}}, {"uniqueid": "MTK0578:358010RM5F0S6VS3F7C0Q2X64ENVX9", "current_trial": 106, "dateTime": 1511217716335, "trialdata": {"rt": -1, "stimulus": "<p id=\"stim\">10</p>", "key_press": -1, "trial_type": "single-stim", "trial_index": 106, "time_elapsed": 579162, "internal_node_id": "0.0-79.0-0.0"}}, {"uniqueid": "MTK0578:358010RM5F0S6VS3F7C0Q2X64ENVX9", "current_trial": 107, "dateTime": 1511217717335, "trialdata": {"rt": -1, "stimulus": "<p id=\"stim\">9</p>", "key_press": -1, "trial_type": "single-stim", "trial_index": 107, "time_elapsed": 580162, "internal_node_id": "0.0-79.0-1.0"}}, {"uniqueid": "MTK0578:358010RM5F0S6VS3F7C0Q2X64ENVX9", "current_trial": 108, "dateTime": 1511217718335, "trialdata": {"rt": -1, "stimulus": "<p id=\"stim\">8</p>", "key_press": -1, "trial_type": "single-stim", "trial_index": 108, "time_elapsed": 581162, "internal_node_id": "0.0-79.0-2.0"}}, {"uniqueid": "MTK0578:358010RM5F0S6VS3F7C0Q2X64ENVX9", "current_trial": 109, "dateTime": 1511217719335, "trialdata": {"rt": -1, "stimulus": "<p id=\"stim\">7</p>", "key_press": -1, "trial_type": "single-stim", "trial_index": 109, "time_elapsed": 582162, "internal_node_id": "0.0-79.0-3.0"}}, {"uniqueid": "MTK0578:358010RM5F0S6VS3F7C0Q2X64ENVX9", "current_trial": 110, "dateTime": 1511217720336, "trialdata": {"rt": -1, "stimulus": "<p id=\"stim\">6</p>", "key_press": -1, "trial_type": "single-stim", "trial_index": 110, "time_elapsed": 583163, "internal_node_id": "0.0-79.0-4.0"}}, {"uniqueid": "MTK0578:358010RM5F0S6VS3F7C0Q2X64ENVX9", "current_trial": 111, "dateTime": 1511217721353, "trialdata": {"rt": -1, "stimulus": "<p id=\"stim\">5</p>", "key_press": -1, "trial_type": "single-stim", "trial_index": 111, "time_elapsed": 584180, "internal_node_id": "0.0-79.0-5.0"}}, {"uniqueid": "MTK0578:358010RM5F0S6VS3F7C0Q2X64ENVX9", "current_trial": 112, "dateTime": 1511217722355, "trialdata": {"rt": -1, "stimulus": "<p id=\"stim\">4</p>", "key_press": -1, "trial_type": "single-stim", "trial_index": 112, "time_elapsed": 585182, "internal_node_id": "0.0-79.0-6.0"}}, {"uniqueid": "MTK0578:358010RM5F0S6VS3F7C0Q2X64ENVX9", "current_trial": 113, "dateTime": 1511217723359, "trialdata": {"rt": -1, "stimulus": "<p id=\"stim\">3</p>", "key_press": -1, "trial_type": "single-stim", "trial_index": 113, "time_elapsed": 586186, "internal_node_id": "0.0-79.0-7.0"}}, {"uniqueid": "MTK0578:358010RM5F0S6VS3F7C0Q2X64ENVX9", "current_trial": 114, "dateTime": 1511217724362, "trialdata": {"rt": -1, "stimulus": "<p id=\"stim\">2</p>", "key_press": -1, "trial_type": "single-stim", "trial_index": 114, "time_elapsed": 587189, "internal_node_id": "0.0-79.0-8.0"}}, {"uniqueid": "MTK0578:358010RM5F0S6VS3F7C0Q2X64ENVX9", "current_trial": 115, "dateTime": 1511217725366, "trialdata": {"rt": -1, "stimulus": "<p id=\"stim\">1</p>", "key_press": -1, "trial_type": "single-stim", "trial_index": 115, "time_elapsed": 588193, "internal_node_id": "0.0-79.0-9.0"}}, {"uniqueid": "MTK0578:358010RM5F0S6VS3F7C0Q2X64ENVX9", "current_trial": 116, "dateTime": 1511217726931, "trialdata": {"rt": -1, "stimulus": "<p id=\"stim\">+</p>", "key_press": -1, "type": "FIXATION", "trial_type": "single-stim", "trial_index": 116, "time_elapsed": 589754, "internal_node_id": "0.0-80.0-0.0"}}, {"uniqueid": "MTK0578:358010RM5F0S6VS3F7C0Q2X64ENVX9", "current_trial": 117, "dateTime": 1511217728682, "trialdata": {"rt": -1000, "stimulus": "/static/audio/wordpool/PLIERS.wav", "key_press": -1, "type": "PRES_AUD", "word": "pliers", "wordID": 1088, "conditions": [12, 800, "a", 12000], "trial": 3, "serialpos": 0, "trial_type": "single-audio", "trial_index": 117, "time_elapsed": 591508, "internal_node_id": "0.0-81.0"}}, {"uniqueid": "MTK0578:358010RM5F0S6VS3F7C0Q2X64ENVX9", "current_trial": 118, "dateTime": 1511217730397, "trialdata": {"rt": -1000, "stimulus": "/static/audio/wordpool/ROBBER.wav", "key_press": -1, "type": "PRES_AUD", "word": "robber", "wordID": 1196, "conditions": [12, 800, "a", 12000], "trial": 3, "serialpos": 1, "trial_type": "single-audio", "trial_index": 118, "time_elapsed": 593224, "internal_node_id": "0.0-82.0"}}, {"uniqueid": "MTK0578:358010RM5F0S6VS3F7C0Q2X64ENVX9", "current_trial": 119, "dateTime": 1511217732184, "trialdata": {"rt": -1000, "stimulus": "/static/audio/wordpool/BLOCKADE.wav", "key_press": -1, "type": "PRES_AUD", "word": "blockade", "wordID": 136, "conditions": [12, 800, "a", 12000], "trial": 3, "serialpos": 2, "trial_type": "single-audio", "trial_index": 119, "time_elapsed": 595011, "internal_node_id": "0.0-83.0"}}, {"uniqueid": "MTK0578:358010RM5F0S6VS3F7C0Q2X64ENVX9", "current_trial": 120, "dateTime": 1511217733994, "trialdata": {"rt": -1000, "stimulus": "/static/audio/wordpool/FIDDLE.wav", "key_press": -1, "type": "PRES_AUD", "word": "fiddle", "wordID": 560, "conditions": [12, 800, "a", 12000], "trial": 3, "serialpos": 3, "trial_type": "single-audio", "trial_index": 120, "time_elapsed": 596821, "internal_node_id": "0.0-84.0"}}, {"uniqueid": "MTK0578:358010RM5F0S6VS3F7C0Q2X64ENVX9", "current_trial": 121, "dateTime": 1511217735895, "trialdata": {"rt": -1000, "stimulus": "/static/audio/wordpool/CLIMBER.wav", "key_press": -1, "type": "PRES_AUD", "word": "climber", "wordID": 322, "conditions": [12, 800, "a", 12000], "trial": 3, "serialpos": 4, "trial_type": "single-audio", "trial_index": 121, "time_elapsed": 598721, "internal_node_id": "0.0-85.0"}}, {"uniqueid": "MTK0578:358010RM5F0S6VS3F7C0Q2X64ENVX9", "current_trial": 122, "dateTime": 1511217737765, "trialdata": {"rt": -1000, "stimulus": "/static/audio/wordpool/WAITER.wav", "key_press": -1, "type": "PRES_AUD", "word": "waiter", "wordID": 1579, "conditions": [12, 800, "a", 12000], "trial": 3, "serialpos": 5, "trial_type": "single-audio", "trial_index": 122, "time_elapsed": 600592, "internal_node_id": "0.0-86.0"}}, {"uniqueid": "MTK0578:358010RM5F0S6VS3F7C0Q2X64ENVX9", "current_trial": 123, "dateTime": 1511217739718, "trialdata": {"rt": -1000, "stimulus": "/static/audio/wordpool/SPOON.wav", "key_press": -1, "type": "PRES_AUD", "word": "spoon", "wordID": 1356, "conditions": [12, 800, "a", 12000], "trial": 3, "serialpos": 6, "trial_type": "single-audio", "trial_index": 123, "time_elapsed": 602541, "internal_node_id": "0.0-87.0"}}, {"uniqueid": "MTK0578:358010RM5F0S6VS3F7C0Q2X64ENVX9", "current_trial": 124, "dateTime": 1511217741477, "trialdata": {"rt": -1000, "stimulus": "/static/audio/wordpool/GYMNAST.wav", "key_press": -1, "type": "PRES_AUD", "word": "gymnast", "wordID": 674, "conditions": [12, 800, "a", 12000], "trial": 3, "serialpos": 7, "trial_type": "single-audio", "trial_index": 124, "time_elapsed": 604304, "internal_node_id": "0.0-88.0"}}, {"uniqueid": "MTK0578:358010RM5F0S6VS3F7C0Q2X64ENVX9", "current_trial": 125, "dateTime": 1511217743291, "trialdata": {"rt": -1000, "stimulus": "/static/audio/wordpool/SWIMMER.wav", "key_press": -1, "type": "PRES_AUD", "word": "swimmer", "wordID": 1419, "conditions": [12, 800, "a", 12000], "trial": 3, "serialpos": 8, "trial_type": "single-audio", "trial_index": 125, "time_elapsed": 606118, "internal_node_id": "0.0-89.0"}}, {"uniqueid": "MTK0578:358010RM5F0S6VS3F7C0Q2X64ENVX9", "current_trial": 126, "dateTime": 1511217745059, "trialdata": {"rt": -1000, "stimulus": "/static/audio/wordpool/LION.wav", "key_press": -1, "type": "PRES_AUD", "word": "lion", "wordID": 826, "conditions": [12, 800, "a", 12000], "trial": 3, "serialpos": 9, "trial_type": "single-audio", "trial_index": 126, "time_elapsed": 607886, "internal_node_id": "0.0-90.0"}}, {"uniqueid": "MTK0578:358010RM5F0S6VS3F7C0Q2X64ENVX9", "current_trial": 127, "dateTime": 1511217747044, "trialdata": {"rt": -1000, "stimulus": "/static/audio/wordpool/SLOPE.wav", "key_press": -1, "type": "PRES_AUD", "word": "slope", "wordID": 1327, "conditions": [12, 800, "a", 12000], "trial": 3, "serialpos": 10, "trial_type": "single-audio", "trial_index": 127, "time_elapsed": 609870, "internal_node_id": "0.0-91.0"}}, {"uniqueid": "MTK0578:358010RM5F0S6VS3F7C0Q2X64ENVX9", "current_trial": 128, "dateTime": 1511217748848, "trialdata": {"rt": -1000, "stimulus": "/static/audio/wordpool/TROMBONE.wav", "key_press": -1, "type": "PRES_AUD", "word": "trombone", "wordID": 1507, "conditions": [12, 800, "a", 12000], "trial": 3, "serialpos": 11, "trial_type": "single-audio", "trial_index": 128, "time_elapsed": 611675, "internal_node_id": "0.0-92.0"}}, {"uniqueid": "MTK0578:358010RM5F0S6VS3F7C0Q2X64ENVX9", "current_trial": 129, "dateTime": 1511217750211, "trialdata": {"rt": -1, "stimulus": "", "key_press": -1, "type": "PRE_RECALL_DELAY", "trial_type": "single-stim", "trial_index": 129, "time_elapsed": 613037, "internal_node_id": "0.0-93.0-0.0"}}, {"uniqueid": "MTK0578:358010RM5F0S6VS3F7C0Q2X64ENVX9", "current_trial": 130, "dateTime": 1511217750714, "trialdata": {"rt": -1000, "stimulus": "/static/audio/400Hz.wav", "key_press": -1, "type": "PRE_RECALL_ALERT", "trial_type": "single-audio", "trial_index": 130, "time_elapsed": 613540, "internal_node_id": "0.0-94.0"}}, {"uniqueid": "MTK0578:358010RM5F0S6VS3F7C0Q2X64ENVX9", "current_trial": 131, "dateTime": 1511217810752, "trialdata": {"rt": [6043, 9529, 11221, 14063, 15859, 17627, 18823, 20778, 22491], "recwords": ["robber", "climber", "waiter", "spoon", "gymist", "swimmer", "lion", "slope", "trompone"], "type": "FREE_RECALL", "conditions": [12, 800, "a", 12000], "trial": 3, "trial_type": "free-recall", "trial_index": 131, "time_elapsed": 673555, "internal_node_id": "0.0-95.0-0.0"}}, {"uniqueid": "MTK0578:358010RM5F0S6VS3F7C0Q2X64ENVX9", "current_trial": 132, "dateTime": 1511217815524, "trialdata": {"rt": 2771, "key_press": 76, "type": "INSTRUCTIONS", "trial_type": "text", "trial_index": 132, "time_elapsed": 678351, "internal_node_id": "0.0-96.0"}}, {"uniqueid": "MTK0578:358010RM5F0S6VS3F7C0Q2X64ENVX9", "current_trial": 133, "dateTime": 1511217841558, "trialdata": {"rt": [2463, 6169, 8999, 12881, 19605, 22542], "responses": ["", "", "", "", "12", "14"], "num1": [5, 4, 5, 6, 9, 3, 8], "num2": [8, 4, 9, 7, 1, 7, 6], "num3": [1, 6, 6, 4, 2, 4, 5], "type": "DISTRACTOR", "conditions": [24, 1600, "v", 24000], "trial": 4, "trial_type": "math-distractor", "trial_index": 133, "time_elapsed": 704385, "internal_node_id": "0.0-97.0"}}, {"uniqueid": "MTK0578:358010RM5F0S6VS3F7C0Q2X64ENVX9", "current_trial": 134, "dateTime": 1511217844595, "trialdata": {"rt": -1, "stimulus": "<p id=\"stim\">10</p>", "key_press": -1, "trial_type": "single-stim", "trial_index": 134, "time_elapsed": 707418, "internal_node_id": "0.0-98.0-0.0"}}, {"uniqueid": "MTK0578:358010RM5F0S6VS3F7C0Q2X64ENVX9", "current_trial": 135, "dateTime": 1511217845671, "trialdata": {"rt": -1, "stimulus": "<p id=\"stim\">9</p>", "key_press": -1, "trial_type": "single-stim", "trial_index": 135, "time_elapsed": 708493, "internal_node_id": "0.0-98.0-1.0"}}, {"uniqueid": "MTK0578:358010RM5F0S6VS3F7C0Q2X64ENVX9", "current_trial": 136, "dateTime": 1511217846778, "trialdata": {"rt": -1, "stimulus": "<p id=\"stim\">8</p>", "key_press": -1, "trial_type": "single-stim", "trial_index": 136, "time_elapsed": 709605, "internal_node_id": "0.0-98.0-2.0"}}, {"uniqueid": "MTK0578:358010RM5F0S6VS3F7C0Q2X64ENVX9", "current_trial": 137, "dateTime": 1511217847803, "trialdata": {"rt": -1, "stimulus": "<p id=\"stim\">7</p>", "key_press": -1, "trial_type": "single-stim", "trial_index": 137, "time_elapsed": 710629, "internal_node_id": "0.0-98.0-3.0"}}, {"uniqueid": "MTK0578:358010RM5F0S6VS3F7C0Q2X64ENVX9", "current_trial": 138, "dateTime": 1511217848953, "trialdata": {"rt": -1, "stimulus": "<p id=\"stim\">6</p>", "key_press": -1, "trial_type": "single-stim", "trial_index": 138, "time_elapsed": 711780, "internal_node_id": "0.0-98.0-4.0"}}, {"uniqueid": "MTK0578:358010RM5F0S6VS3F7C0Q2X64ENVX9", "current_trial": 139, "dateTime": 1511217849959, "trialdata": {"rt": -1, "stimulus": "<p id=\"stim\">5</p>", "key_press": -1, "trial_type": "single-stim", "trial_index": 139, "time_elapsed": 712786, "internal_node_id": "0.0-98.0-5.0"}}, {"uniqueid": "MTK0578:358010RM5F0S6VS3F7C0Q2X64ENVX9", "current_trial": 140, "dateTime": 1511217850962, "trialdata": {"rt": -1, "stimulus": "<p id=\"stim\">4</p>", "key_press": -1, "trial_type": "single-stim", "trial_index": 140, "time_elapsed": 713789, "internal_node_id": "0.0-98.0-6.0"}}, {"uniqueid": "MTK0578:358010RM5F0S6VS3F7C0Q2X64ENVX9", "current_trial": 141, "dateTime": 1511217852033, "trialdata": {"rt": -1, "stimulus": "<p id=\"stim\">3</p>", "key_press": -1, "trial_type": "single-stim", "trial_index": 141, "time_elapsed": 714860, "internal_node_id": "0.0-98.0-7.0"}}, {"uniqueid": "MTK0578:358010RM5F0S6VS3F7C0Q2X64ENVX9", "current_trial": 142, "dateTime": 1511217853035, "trialdata": {"rt": -1, "stimulus": "<p id=\"stim\">2</p>", "key_press": -1, "trial_type": "single-stim", "trial_index": 142, "time_elapsed": 715862, "internal_node_id": "0.0-98.0-8.0"}}, {"uniqueid": "MTK0578:358010RM5F0S6VS3F7C0Q2X64ENVX9", "current_trial": 143, "dateTime": 1511217854058, "trialdata": {"rt": -1, "stimulus": "<p id=\"stim\">1</p>", "key_press": -1, "trial_type": "single-stim", "trial_index": 143, "time_elapsed": 716884, "internal_node_id": "0.0-98.0-9.0"}}, {"uniqueid": "MTK0578:358010RM5F0S6VS3F7C0Q2X64ENVX9", "current_trial": 144, "dateTime": 1511217855576, "trialdata": {"rt": -1, "stimulus": "<p id=\"stim\">+</p>", "key_press": -1, "type": "FIXATION", "trial_type": "single-stim", "trial_index": 144, "time_elapsed": 718403, "internal_node_id": "0.0-99.0-0.0"}}, {"uniqueid": "MTK0578:358010RM5F0S6VS3F7C0Q2X64ENVX9", "current_trial": 145, "dateTime": 1511217857177, "trialdata": {"rt": -1, "stimulus": "<p id=\"stim\">GIRL</p>", "key_press": -1, "type": "PRES_VIS", "word": "girl", "wordID": 636, "conditions": [24, 1600, "v", 24000], "trial": 4, "serialpos": 0, "trial_type": "single-stim", "trial_index": 145, "time_elapsed": 720004, "internal_node_id": "0.0-100.0"}}, {"uniqueid": "MTK0578:358010RM5F0S6VS3F7C0Q2X64ENVX9", "current_trial": 146, "dateTime": 1511217859855, "trialdata": {"rt": -1, "stimulus": "<p id=\"stim\">PLUTO</p>", "key_press": -1, "type": "PRES_VIS", "word": "pluto", "wordID": 1091, "conditions": [24, 1600, "v", 24000], "trial": 4, "serialpos": 1, "trial_type": "single-stim", "trial_index": 146, "time_elapsed": 722682, "internal_node_id": "0.0-101.0"}}, {"uniqueid": "MTK0578:358010RM5F0S6VS3F7C0Q2X64ENVX9", "current_trial": 147, "dateTime": 1511217862662, "trialdata": {"rt": -1, "stimulus": "<p id=\"stim\">LEG</p>", "key_press": -1, "type": "PRES_VIS", "word": "leg", "wordID": 808, "conditions": [24, 1600, "v", 24000], "trial": 4, "serialpos": 2, "trial_type": "single-stim", "trial_index": 147, "time_elapsed": 725489, "internal_node_id": "0.0-102.0"}}, {"uniqueid": "MTK0578:358010RM5F0S6VS3F7C0Q2X64ENVX9", "current_trial": 148, "dateTime": 1511217865336, "trialdata": {"rt": -1, "stimulus": "<p id=\"stim\">CARRIAGE</p>", "key_press": -1, "type": "PRES_VIS", "word": "carriage", "wordID": 247, "conditions": [24, 1600, "v", 24000], "trial": 4, "serialpos": 3, "trial_type": "single-stim", "trial_index": 148, "time_elapsed": 728163, "internal_node_id": "0.0-103.0"}}, {"uniqueid": "MTK0578:358010RM5F0S6VS3F7C0Q2X64ENVX9", "current_trial": 149, "dateTime": 1511217867852, "trialdata": {"rt": -1, "stimulus": "<p id=\"stim\">SHIRT</p>", "key_press": -1, "type": "PRES_VIS", "word": "shirt", "wordID": 1286, "conditions": [24, 1600, "v", 24000], "trial": 4, "serialpos": 4, "trial_type": "single-stim", "trial_index": 149, "time_elapsed": 730679, "internal_node_id": "0.0-104.0"}}, {"uniqueid": "MTK0578:358010RM5F0S6VS3F7C0Q2X64ENVX9", "current_trial": 150, "dateTime": 1511217870267, "trialdata": {"rt": -1, "stimulus": "<p id=\"stim\">TOMBSTONE</p>", "key_press": -1, "type": "PRES_VIS", "word": "tombstone", "wordID": 1477, "conditions": [24, 1600, "v", 24000], "trial": 4, "serialpos": 5, "trial_type": "single-stim", "trial_index": 150, "time_elapsed": 733094, "internal_node_id": "0.0-105.0"}}, {"uniqueid": "MTK0578:358010RM5F0S6VS3F7C0Q2X64ENVX9", "current_trial": 151, "dateTime": 1511217872842, "trialdata": {"rt": -1, "stimulus": "<p id=\"stim\">INMATE</p>", "key_press": -1, "type": "PRES_VIS", "word": "inmate", "wordID": 737, "conditions": [24, 1600, "v", 24000], "trial": 4, "serialpos": 6, "trial_type": "single-stim", "trial_index": 151, "time_elapsed": 735669, "internal_node_id": "0.0-106.0"}}, {"uniqueid": "MTK0578:358010RM5F0S6VS3F7C0Q2X64ENVX9", "current_trial": 152, "dateTime": 1511217875348, "trialdata": {"rt": -1, "stimulus": "<p id=\"stim\">RABBIT</p>", "key_press": -1, "type": "PRES_VIS", "word": "rabbit", "wordID": 1151, "conditions": [24, 1600, "v", 24000], "trial": 4, "serialpos": 7, "trial_type": "single-stim", "trial_index": 152, "time_elapsed": 738175, "internal_node_id": "0.0-107.0"}}, {"uniqueid": "MTK0578:358010RM5F0S6VS3F7C0Q2X64ENVX9", "current_trial": 153, "dateTime": 1511217877910, "trialdata": {"rt": -1, "stimulus": "<p id=\"stim\">BEEF</p>", "key_press": -1, "type": "PRES_VIS", "word": "beef", "wordID": 112, "conditions": [24, 1600, "v", 24000], "trial": 4, "serialpos": 8, "trial_type": "single-stim", "trial_index": 153, "time_elapsed": 740729, "internal_node_id": "0.0-108.0"}}, {"uniqueid": "MTK0578:358010RM5F0S6VS3F7C0Q2X64ENVX9", "current_trial": 154, "dateTime": 1511217880642, "trialdata": {"rt": -1, "stimulus": "<p id=\"stim\">MAILBOX</p>", "key_press": -1, "type": "PRES_VIS", "word": "mailbox", "wordID": 856, "conditions": [24, 1600, "v", 24000], "trial": 4, "serialpos": 9, "trial_type": "single-stim", "trial_index": 154, "time_elapsed": 743465, "internal_node_id": "0.0-109.0"}}, {"uniqueid": "MTK0578:358010RM5F0S6VS3F7C0Q2X64ENVX9", "current_trial": 155, "dateTime": 1511217883318, "trialdata": {"rt": -1, "stimulus": "<p id=\"stim\">MAILMAN</p>", "key_press": -1, "type": "PRES_VIS", "word": "mailman", "wordID": 857, "conditions": [24, 1600, "v", 24000], "trial": 4, "serialpos": 10, "trial_type": "single-stim", "trial_index": 155, "time_elapsed": 746145, "internal_node_id": "0.0-110.0"}}, {"uniqueid": "MTK0578:358010RM5F0S6VS3F7C0Q2X64ENVX9", "current_trial": 156, "dateTime": 1511217886093, "trialdata": {"rt": -1, "stimulus": "<p id=\"stim\">SCARF</p>", "key_press": -1, "type": "PRES_VIS", "word": "scarf", "wordID": 1245, "conditions": [24, 1600, "v", 24000], "trial": 4, "serialpos": 11, "trial_type": "single-stim", "trial_index": 156, "time_elapsed": 748916, "internal_node_id": "0.0-111.0"}}, {"uniqueid": "MTK0578:358010RM5F0S6VS3F7C0Q2X64ENVX9", "current_trial": 157, "dateTime": 1511217888993, "trialdata": {"rt": -1, "stimulus": "<p id=\"stim\">ASIA</p>", "key_press": -1, "type": "PRES_VIS", "word": "asia", "wordID": 45, "conditions": [24, 1600, "v", 24000], "trial": 4, "serialpos": 12, "trial_type": "single-stim", "trial_index": 157, "time_elapsed": 751820, "internal_node_id": "0.0-112.0"}}, {"uniqueid": "MTK0578:358010RM5F0S6VS3F7C0Q2X64ENVX9", "current_trial": 158, "dateTime": 1511217891819, "trialdata": {"rt": -1, "stimulus": "<p id=\"stim\">COUCH</p>", "key_press": -1, "type": "PRES_VIS", "word": "couch", "wordID": 385, "conditions": [24, 1600, "v", 24000], "trial": 4, "serialpos": 13, "trial_type": "single-stim", "trial_index": 158, "time_elapsed": 754642, "internal_node_id": "0.0-113.0"}}, {"uniqueid": "MTK0578:358010RM5F0S6VS3F7C0Q2X64ENVX9", "current_trial": 159, "dateTime": 1511217894298, "trialdata": {"rt": -1, "stimulus": "<p id=\"stim\">RELISH</p>", "key_press": -1, "type": "PRES_VIS", "word": "relish", "wordID": 1182, "conditions": [24, 1600, "v", 24000], "trial": 4, "serialpos": 14, "trial_type": "single-stim", "trial_index": 159, "time_elapsed": 757125, "internal_node_id": "0.0-114.0"}}, {"uniqueid": "MTK0578:358010RM5F0S6VS3F7C0Q2X64ENVX9", "current_trial": 160, "dateTime": 1511217896721, "trialdata": {"rt": -1, "stimulus": "<p id=\"stim\">TAXI</p>", "key_press": -1, "type": "PRES_VIS", "word": "taxi", "wordID": 1437, "conditions": [24, 1600, "v", 24000], "trial": 4, "serialpos": 15, "trial_type": "single-stim", "trial_index": 160, "time_elapsed": 759548, "internal_node_id": "0.0-115.0"}}, {"uniqueid": "MTK0578:358010RM5F0S6VS3F7C0Q2X64ENVX9", "current_trial": 161, "dateTime": 1511217899472, "trialdata": {"rt": -1, "stimulus": "<p id=\"stim\">JAPAN</p>", "key_press": -1, "type": "PRES_VIS", "word": "japan", "wordID": 748, "conditions": [24, 1600, "v", 24000], "trial": 4, "serialpos": 16, "trial_type": "single-stim", "trial_index": 161, "time_elapsed": 762299, "internal_node_id": "0.0-116.0"}}, {"uniqueid": "MTK0578:358010RM5F0S6VS3F7C0Q2X64ENVX9", "current_trial": 162, "dateTime": 1511217902310, "trialdata": {"rt": -1, "stimulus": "<p id=\"stim\">GAVEL</p>", "key_press": -1, "type": "PRES_VIS", "word": "gavel", "wordID": 626, "conditions": [24, 1600, "v", 24000], "trial": 4, "serialpos": 17, "trial_type": "single-stim", "trial_index": 162, "time_elapsed": 765137, "internal_node_id": "0.0-117.0"}}, {"uniqueid": "MTK0578:358010RM5F0S6VS3F7C0Q2X64ENVX9", "current_trial": 163, "dateTime": 1511217904920, "trialdata": {"rt": -1, "stimulus": "<p id=\"stim\">HEDGE</p>", "key_press": -1, "type": "PRES_VIS", "word": "hedge", "wordID": 698, "conditions": [24, 1600, "v", 24000], "trial": 4, "serialpos": 18, "trial_type": "single-stim", "trial_index": 163, "time_elapsed": 767747, "internal_node_id": "0.0-118.0"}}, {"uniqueid": "MTK0578:358010RM5F0S6VS3F7C0Q2X64ENVX9", "current_trial": 164, "dateTime": 1511217907370, "trialdata": {"rt": -1, "stimulus": "<p id=\"stim\">HELMET</p>", "key_press": -1, "type": "PRES_VIS", "word": "helmet", "wordID": 701, "conditions": [24, 1600, "v", 24000], "trial": 4, "serialpos": 19, "trial_type": "single-stim", "trial_index": 164, "time_elapsed": 770197, "internal_node_id": "0.0-119.0"}}, {"uniqueid": "MTK0578:358010RM5F0S6VS3F7C0Q2X64ENVX9", "current_trial": 165, "dateTime": 1511217909906, "trialdata": {"rt": -1, "stimulus": "<p id=\"stim\">PLASTER</p>", "key_press": -1, "type": "PRES_VIS", "word": "plaster", "wordID": 1084, "conditions": [24, 1600, "v", 24000], "trial": 4, "serialpos": 20, "trial_type": "single-stim", "trial_index": 165, "time_elapsed": 772733, "internal_node_id": "0.0-120.0"}}, {"uniqueid": "MTK0578:358010RM5F0S6VS3F7C0Q2X64ENVX9", "current_trial": 166, "dateTime": 1511217912642, "trialdata": {"rt": -1, "stimulus": "<p id=\"stim\">BLOUSE</p>", "key_press": -1, "type": "PRES_VIS", "word": "blouse", "wordID": 138, "conditions": [24, 1600, "v", 24000], "trial": 4, "serialpos": 21, "trial_type": "single-stim", "trial_index": 166, "time_elapsed": 775465, "internal_node_id": "0.0-121.0"}}, {"uniqueid": "MTK0578:358010RM5F0S6VS3F7C0Q2X64ENVX9", "current_trial": 167, "dateTime": 1511217915414, "trialdata": {"rt": -1, "stimulus": "<p id=\"stim\">DENIM</p>", "key_press": -1, "type": "PRES_VIS", "word": "denim", "wordID": 445, "conditions": [24, 1600, "v", 24000], "trial": 4, "serialpos": 22, "trial_type": "single-stim", "trial_index": 167, "time_elapsed": 778241, "internal_node_id": "0.0-122.0"}}, {"uniqueid": "MTK0578:358010RM5F0S6VS3F7C0Q2X64ENVX9", "current_trial": 168, "dateTime": 1511217918096, "trialdata": {"rt": -1, "stimulus": "<p id=\"stim\">CRAYON</p>", "key_press": -1, "type": "PRES_VIS", "word": "crayon", "wordID": 400, "conditions": [24, 1600, "v", 24000], "trial": 4, "serialpos": 23, "trial_type": "single-stim", "trial_index": 168, "time_elapsed": 780923, "internal_node_id": "0.0-123.0"}}, {"uniqueid": "MTK0578:358010RM5F0S6VS3F7C0Q2X64ENVX9", "current_trial": 169, "dateTime": 1511217920602, "trialdata": {"rt": -1, "stimulus": "", "key_press": -1, "type": "PRE_RECALL_DELAY", "trial_type": "single-stim", "trial_index": 169, "time_elapsed": 783429, "internal_node_id": "0.0-124.0-0.0"}}, {"uniqueid": "MTK0578:358010RM5F0S6VS3F7C0Q2X64ENVX9", "current_trial": 170, "dateTime": 1511217921114, "trialdata": {"rt": -1000, "stimulus": "/static/audio/400Hz.wav", "key_press": -1, "type": "PRE_RECALL_ALERT", "trial_type": "single-audio", "trial_index": 170, "time_elapsed": 783941, "internal_node_id": "0.0-125.0"}}, {"uniqueid": "MTK0578:358010RM5F0S6VS3F7C0Q2X64ENVX9", "current_trial": 171, "dateTime": 1511217981152, "trialdata": {"rt": [2455, 4336, 5618, 8484, 10291, 12961, 14966, 20690], "recwords": ["girl", "pluto", "couch", "crayo", "inmate", "mailbox", "mailman", "tomstone"], "type": "FREE_RECALL", "conditions": [24, 1600, "v", 24000], "trial": 4, "trial_type": "free-recall", "trial_index": 171, "time_elapsed": 843963, "internal_node_id": "0.0-126.0-0.0"}}, {"uniqueid": "MTK0578:358010RM5F0S6VS3F7C0Q2X64ENVX9", "current_trial": 172, "dateTime": 1511217995616, "trialdata": {"rt": 12456, "key_press": 75, "type": "INSTRUCTIONS", "trial_type": "text", "trial_index": 172, "time_elapsed": 858443, "internal_node_id": "0.0-127.0"}}, {"uniqueid": "MTK0578:358010RM5F0S6VS3F7C0Q2X64ENVX9", "current_trial": 173, "dateTime": 1511218009644, "trialdata": {"rt": [2767, 5364, 7786, 9205], "responses": ["16", "15", "14", ""], "num1": [5, 7, 2, 1, 6], "num2": [5, 4, 9, 9, 6], "num3": [6, 4, 3, 4, 4], "type": "DISTRACTOR", "conditions": [24, 800, "v", 12000], "trial": 5, "trial_type": "math-distractor", "trial_index": 173, "time_elapsed": 872471, "internal_node_id": "0.0-128.0"}}, {"uniqueid": "MTK0578:358010RM5F0S6VS3F7C0Q2X64ENVX9", "current_trial": 174, "dateTime": 1511218012657, "trialdata": {"rt": -1, "stimulus": "<p id=\"stim\">10</p>", "key_press": -1, "trial_type": "single-stim", "trial_index": 174, "time_elapsed": 875476, "internal_node_id": "0.0-129.0-0.0"}}, {"uniqueid": "MTK0578:358010RM5F0S6VS3F7C0Q2X64ENVX9", "current_trial": 175, "dateTime": 1511218013662, "trialdata": {"rt": -1, "stimulus": "<p id=\"stim\">9</p>", "key_press": -1, "trial_type": "single-stim", "trial_index": 175, "time_elapsed": 876489, "internal_node_id": "0.0-129.0-1.0"}}, {"uniqueid": "MTK0578:358010RM5F0S6VS3F7C0Q2X64ENVX9", "current_trial": 176, "dateTime": 1511218014664, "trialdata": {"rt": -1, "stimulus": "<p id=\"stim\">8</p>", "key_press": -1, "trial_type": "single-stim", "trial_index": 176, "time_elapsed": 877491, "internal_node_id": "0.0-129.0-2.0"}}, {"uniqueid": "MTK0578:358010RM5F0S6VS3F7C0Q2X64ENVX9", "current_trial": 177, "dateTime": 1511218015664, "trialdata": {"rt": -1, "stimulus": "<p id=\"stim\">7</p>", "key_press": -1, "trial_type": "single-stim", "trial_index": 177, "time_elapsed": 878491, "internal_node_id": "0.0-129.0-3.0"}}, {"uniqueid": "MTK0578:358010RM5F0S6VS3F7C0Q2X64ENVX9", "current_trial": 178, "dateTime": 1511218016680, "trialdata": {"rt": -1, "stimulus": "<p id=\"stim\">6</p>", "key_press": -1, "trial_type": "single-stim", "trial_index": 178, "time_elapsed": 879507, "internal_node_id": "0.0-129.0-4.0"}}, {"uniqueid": "MTK0578:358010RM5F0S6VS3F7C0Q2X64ENVX9", "current_trial": 179, "dateTime": 1511218017680, "trialdata": {"rt": -1, "stimulus": "<p id=\"stim\">5</p>", "key_press": -1, "trial_type": "single-stim", "trial_index": 179, "time_elapsed": 880507, "internal_node_id": "0.0-129.0-5.0"}}, {"uniqueid": "MTK0578:358010RM5F0S6VS3F7C0Q2X64ENVX9", "current_trial": 180, "dateTime": 1511218018692, "trialdata": {"rt": -1, "stimulus": "<p id=\"stim\">4</p>", "key_press": -1, "trial_type": "single-stim", "trial_index": 180, "time_elapsed": 881515, "internal_node_id": "0.0-129.0-6.0"}}, {"uniqueid": "MTK0578:358010RM5F0S6VS3F7C0Q2X64ENVX9", "current_trial": 181, "dateTime": 1511218019694, "trialdata": {"rt": -1, "stimulus": "<p id=\"stim\">3</p>", "key_press": -1, "trial_type": "single-stim", "trial_index": 181, "time_elapsed": 882521, "internal_node_id": "0.0-129.0-7.0"}}, {"uniqueid": "MTK0578:358010RM5F0S6VS3F7C0Q2X64ENVX9", "current_trial": 182, "dateTime": 1511218020701, "trialdata": {"rt": -1, "stimulus": "<p id=\"stim\">2</p>", "key_press": -1, "trial_type": "single-stim", "trial_index": 182, "time_elapsed": 883524, "internal_node_id": "0.0-129.0-8.0"}}, {"uniqueid": "MTK0578:358010RM5F0S6VS3F7C0Q2X64ENVX9", "current_trial": 183, "dateTime": 1511218021705, "trialdata": {"rt": -1, "stimulus": "<p id=\"stim\">1</p>", "key_press": -1, "trial_type": "single-stim", "trial_index": 183, "time_elapsed": 884532, "internal_node_id": "0.0-129.0-9.0"}}, {"uniqueid": "MTK0578:358010RM5F0S6VS3F7C0Q2X64ENVX9", "current_trial": 184, "dateTime": 1511218023207, "trialdata": {"rt": -1, "stimulus": "<p id=\"stim\">+</p>", "key_press": -1, "type": "FIXATION", "trial_type": "single-stim", "trial_index": 184, "time_elapsed": 886034, "internal_node_id": "0.0-130.0-0.0"}}, {"uniqueid": "MTK0578:358010RM5F0S6VS3F7C0Q2X64ENVX9", "current_trial": 185, "dateTime": 1511218024011, "trialdata": {"rt": -1, "stimulus": "<p id=\"stim\">CANDY</p>", "key_press": -1, "type": "PRES_VIS", "word": "candy", "wordID": 229, "conditions": [24, 800, "v", 12000], "trial": 5, "serialpos": 0, "trial_type": "single-stim", "trial_index": 185, "time_elapsed": 886838, "internal_node_id": "0.0-131.0"}}, {"uniqueid": "MTK0578:358010RM5F0S6VS3F7C0Q2X64ENVX9", "current_trial": 186, "dateTime": 1511218025692, "trialdata": {"rt": -1, "stimulus": "<p id=\"stim\">WITNESS</p>", "key_press": -1, "type": "PRES_VIS", "word": "witness", "wordID": 1617, "conditions": [24, 800, "v", 12000], "trial": 5, "serialpos": 1, "trial_type": "single-stim", "trial_index": 186, "time_elapsed": 888519, "internal_node_id": "0.0-132.0"}}, {"uniqueid": "MTK0578:358010RM5F0S6VS3F7C0Q2X64ENVX9", "current_trial": 187, "dateTime": 1511218027677, "trialdata": {"rt": -1, "stimulus": "<p id=\"stim\">HORNET</p>", "key_press": -1, "type": "PRES_VIS", "word": "hornet", "wordID": 717, "conditions": [24, 800, "v", 12000], "trial": 5, "serialpos": 2, "trial_type": "single-stim", "trial_index": 187, "time_elapsed": 890496, "internal_node_id": "0.0-133.0"}}, {"uniqueid": "MTK0578:358010RM5F0S6VS3F7C0Q2X64ENVX9", "current_trial": 188, "dateTime": 1511218029458, "trialdata": {"rt": -1, "stimulus": "<p id=\"stim\">RADISH</p>", "key_press": -1, "type": "PRES_VIS", "word": "radish", "wordID": 1157, "conditions": [24, 800, "v", 12000], "trial": 5, "serialpos": 3, "trial_type": "single-stim", "trial_index": 188, "time_elapsed": 892285, "internal_node_id": "0.0-134.0"}}, {"uniqueid": "MTK0578:358010RM5F0S6VS3F7C0Q2X64ENVX9", "current_trial": 189, "dateTime": 1511218031273, "trialdata": {"rt": -1, "stimulus": "<p id=\"stim\">SALAD</p>", "key_press": -1, "type": "PRES_VIS", "word": "salad", "wordID": 1223, "conditions": [24, 800, "v", 12000], "trial": 5, "serialpos": 4, "trial_type": "single-stim", "trial_index": 189, "time_elapsed": 894100, "internal_node_id": "0.0-135.0"}}, {"uniqueid": "MTK0578:358010RM5F0S6VS3F7C0Q2X64ENVX9", "current_trial": 190, "dateTime": 1511218033251, "trialdata": {"rt": -1, "stimulus": "<p id=\"stim\">SNACK</p>", "key_press": -1, "type": "PRES_VIS", "word": "snack", "wordID": 1330, "conditions": [24, 800, "v", 12000], "trial": 5, "serialpos": 5, "trial_type": "single-stim", "trial_index": 190, "time_elapsed": 896078, "internal_node_id": "0.0-136.0"}}, {"uniqueid": "MTK0578:358010RM5F0S6VS3F7C0Q2X64ENVX9", "current_trial": 191, "dateTime": 1511218034967, "trialdata": {"rt": -1, "stimulus": "<p id=\"stim\">HOOD</p>", "key_press": -1, "type": "PRES_VIS", "word": "hood", "wordID": 713, "conditions": [24, 800, "v", 12000], "trial": 5, "serialpos": 6, "trial_type": "single-stim", "trial_index": 191, "time_elapsed": 897794, "internal_node_id": "0.0-137.0"}}, {"uniqueid": "MTK0578:358010RM5F0S6VS3F7C0Q2X64ENVX9", "current_trial": 192, "dateTime": 1511218036833, "trialdata": {"rt": -1, "stimulus": "<p id=\"stim\">THIEF</p>", "key_press": -1, "type": "PRES_VIS", "word": "thief", "wordID": 1455, "conditions": [24, 800, "v", 12000], "trial": 5, "serialpos": 7, "trial_type": "single-stim", "trial_index": 192, "time_elapsed": 899660, "internal_node_id": "0.0-138.0"}}, {"uniqueid": "MTK0578:358010RM5F0S6VS3F7C0Q2X64ENVX9", "current_trial": 193, "dateTime": 1511218038595, "trialdata": {"rt": -1, "stimulus": "<p id=\"stim\">PECAN</p>", "key_press": -1, "type": "PRES_VIS", "word": "pecan", "wordID": 1035, "conditions": [24, 800, "v", 12000], "trial": 5, "serialpos": 8, "trial_type": "single-stim", "trial_index": 193, "time_elapsed": 901418, "internal_node_id": "0.0-139.0"}}, {"uniqueid": "MTK0578:358010RM5F0S6VS3F7C0Q2X64ENVX9", "current_trial": 194, "dateTime": 1511218040389, "trialdata": {"rt": -1, "stimulus": "<p id=\"stim\">SIBLING</p>", "key_press": -1, "type": "PRES_VIS", "word": "sibling", "wordID": 1300, "conditions": [24, 800, "v", 12000], "trial": 5, "serialpos": 9, "trial_type": "single-stim", "trial_index": 194, "time_elapsed": 903216, "internal_node_id": "0.0-140.0"}}, {"uniqueid": "MTK0578:358010RM5F0S6VS3F7C0Q2X64ENVX9", "current_trial": 195, "dateTime": 1511218042049, "trialdata": {"rt": -1, "stimulus": "<p id=\"stim\">CUPBOARD</p>", "key_press": -1, "type": "PRES_VIS", "word": "cupboard", "wordID": 424, "conditions": [24, 800, "v", 12000], "trial": 5, "serialpos": 10, "trial_type": "single-stim", "trial_index": 195, "time_elapsed": 904876, "internal_node_id": "0.0-141.0"}}, {"uniqueid": "MTK0578:358010RM5F0S6VS3F7C0Q2X64ENVX9", "current_trial": 196, "dateTime": 1511218043989, "trialdata": {"rt": -1, "stimulus": "<p id=\"stim\">BUCKET</p>", "key_press": -1, "type": "PRES_VIS", "word": "bucket", "wordID": 183, "conditions": [24, 800, "v", 12000], "trial": 5, "serialpos": 11, "trial_type": "single-stim", "trial_index": 196, "time_elapsed": 906812, "internal_node_id": "0.0-142.0"}}, {"uniqueid": "MTK0578:358010RM5F0S6VS3F7C0Q2X64ENVX9", "current_trial": 197, "dateTime": 1511218045757, "trialdata": {"rt": -1, "stimulus": "<p id=\"stim\">QUAIL</p>", "key_press": -1, "type": "PRES_VIS", "word": "quail", "wordID": 1146, "conditions": [24, 800, "v", 12000], "trial": 5, "serialpos": 12, "trial_type": "single-stim", "trial_index": 197, "time_elapsed": 908584, "internal_node_id": "0.0-143.0"}}, {"uniqueid": "MTK0578:358010RM5F0S6VS3F7C0Q2X64ENVX9", "current_trial": 198, "dateTime": 1511218047378, "trialdata": {"rt": -1, "stimulus": "<p id=\"stim\">CRAB</p>", "key_press": -1, "type": "PRES_VIS", "word": "crab", "wordID": 396, "conditions": [24, 800, "v", 12000], "trial": 5, "serialpos": 13, "trial_type": "single-stim", "trial_index": 198, "time_elapsed": 910205, "internal_node_id": "0.0-144.0"}}, {"uniqueid": "MTK0578:358010RM5F0S6VS3F7C0Q2X64ENVX9", "current_trial": 199, "dateTime": 1511218049369, "trialdata": {"rt": -1, "stimulus": "<p id=\"stim\">SPOUSE</p>", "key_press": -1, "type": "PRES_VIS", "word": "spouse", "wordID": 1357, "conditions": [24, 800, "v", 12000], "trial": 5, "serialpos": 14, "trial_type": "single-stim", "trial_index": 199, "time_elapsed": 912196, "internal_node_id": "0.0-145.0"}}, {"uniqueid": "MTK0578:358010RM5F0S6VS3F7C0Q2X64ENVX9", "current_trial": 200, "dateTime": 1511218051018, "trialdata": {"rt": -1, "stimulus": "<p id=\"stim\">SALMON</p>", "key_press": -1, "type": "PRES_VIS", "word": "salmon", "wordID": 1226, "conditions": [24, 800, "v", 12000], "trial": 5, "serialpos": 15, "trial_type": "single-stim", "trial_index": 200, "time_elapsed": 913845, "internal_node_id": "0.0-146.0"}}, {"uniqueid": "MTK0578:358010RM5F0S6VS3F7C0Q2X64ENVX9", "current_trial": 201, "dateTime": 1511218052762, "trialdata": {"rt": -1, "stimulus": "<p id=\"stim\">SCALLOP</p>", "key_press": -1, "type": "PRES_VIS", "word": "scallop", "wordID": 1241, "conditions": [24, 800, "v", 12000], "trial": 5, "serialpos": 16, "trial_type": "single-stim", "trial_index": 201, "time_elapsed": 915585, "internal_node_id": "0.0-147.0"}}, {"uniqueid": "MTK0578:358010RM5F0S6VS3F7C0Q2X64ENVX9", "current_trial": 202, "dateTime": 1511218054409, "trialdata": {"rt": -1, "stimulus": "<p id=\"stim\">DRUG</p>", "key_press": -1, "type": "PRES_VIS", "word": "drug", "wordID": 500, "conditions": [24, 800, "v", 12000], "trial": 5, "serialpos": 17, "trial_type": "single-stim", "trial_index": 202, "time_elapsed": 917236, "internal_node_id": "0.0-148.0"}}, {"uniqueid": "MTK0578:358010RM5F0S6VS3F7C0Q2X64ENVX9", "current_trial": 203, "dateTime": 1511218056349, "trialdata": {"rt": -1, "stimulus": "<p id=\"stim\">MAMMAL</p>", "key_press": -1, "type": "PRES_VIS", "word": "mammal", "wordID": 860, "conditions": [24, 800, "v", 12000], "trial": 5, "serialpos": 18, "trial_type": "single-stim", "trial_index": 203, "time_elapsed": 919176, "internal_node_id": "0.0-149.0"}}, {"uniqueid": "MTK0578:358010RM5F0S6VS3F7C0Q2X64ENVX9", "current_trial": 204, "dateTime": 1511218058080, "trialdata": {"rt": -1, "stimulus": "<p id=\"stim\">ISLAND</p>", "key_press": -1, "type": "PRES_VIS", "word": "island", "wordID": 744, "conditions": [24, 800, "v", 12000], "trial": 5, "serialpos": 19, "trial_type": "single-stim", "trial_index": 204, "time_elapsed": 920903, "internal_node_id": "0.0-150.0"}}, {"uniqueid": "MTK0578:358010RM5F0S6VS3F7C0Q2X64ENVX9", "current_trial": 205, "dateTime": 1511218059869, "trialdata": {"rt": -1, "stimulus": "<p id=\"stim\">CREVICE</p>", "key_press": -1, "type": "PRES_VIS", "word": "crevice", "wordID": 404, "conditions": [24, 800, "v", 12000], "trial": 5, "serialpos": 20, "trial_type": "single-stim", "trial_index": 205, "time_elapsed": 922696, "internal_node_id": "0.0-151.0"}}, {"uniqueid": "MTK0578:358010RM5F0S6VS3F7C0Q2X64ENVX9", "current_trial": 206, "dateTime": 1511218061752, "trialdata": {"rt": -1, "stimulus": "<p id=\"stim\">EGYPT</p>", "key_press": -1, "type": "PRES_VIS", "word": "egypt", "wordID": 518, "conditions": [24, 800, "v", 12000], "trial": 5, "serialpos": 21, "trial_type": "single-stim", "trial_index": 206, "time_elapsed": 924579, "internal_node_id": "0.0-152.0"}}, {"uniqueid": "MTK0578:358010RM5F0S6VS3F7C0Q2X64ENVX9", "current_trial": 207, "dateTime": 1511218063743, "trialdata": {"rt": -1, "stimulus": "<p id=\"stim\">OYSTER</p>", "key_press": -1, "type": "PRES_VIS", "word": "oyster", "wordID": 994, "conditions": [24, 800, "v", 12000], "trial": 5, "serialpos": 22, "trial_type": "single-stim", "trial_index": 207, "time_elapsed": 926569, "internal_node_id": "0.0-153.0"}}, {"uniqueid": "MTK0578:358010RM5F0S6VS3F7C0Q2X64ENVX9", "current_trial": 208, "dateTime": 1511218065417, "trialdata": {"rt": -1, "stimulus": "<p id=\"stim\">LUNCH</p>", "key_press": -1, "type": "PRES_VIS", "word": "lunch", "wordID": 848, "conditions": [24, 800, "v", 12000], "trial": 5, "serialpos": 23, "trial_type": "single-stim", "trial_index": 208, "time_elapsed": 928244, "internal_node_id": "0.0-154.0"}}, {"uniqueid": "MTK0578:358010RM5F0S6VS3F7C0Q2X64ENVX9", "current_trial": 209, "dateTime": 1511218067819, "trialdata": {"rt": -1, "stimulus": "", "key_press": -1, "type": "PRE_RECALL_DELAY", "trial_type": "single-stim", "trial_index": 209, "time_elapsed": 930646, "internal_node_id": "0.0-155.0-0.0"}}, {"uniqueid": "MTK0578:358010RM5F0S6VS3F7C0Q2X64ENVX9", "current_trial": 210, "dateTime": 1511218068327, "trialdata": {"rt": -1000, "stimulus": "/static/audio/400Hz.wav", "key_press": -1, "type": "PRE_RECALL_ALERT", "trial_type": "single-audio", "trial_index": 210, "time_elapsed": 931154, "internal_node_id": "0.0-156.0"}}, {"uniqueid": "MTK0578:358010RM5F0S6VS3F7C0Q2X64ENVX9", "current_trial": 211, "dateTime": 1511218128358, "trialdata": {"rt": [3647, 6501, 7606, 8930, 10277, 11518, 14603, 16244, 17480, 19762], "recwords": ["candy", "salad", "hood", "thief", "pecan", "bucket", "crab", "spouse", "drug", "lunch"], "type": "FREE_RECALL", "conditions": [24, 800, "v", 12000], "trial": 5, "trial_type": "free-recall", "trial_index": 211, "time_elapsed": 991165, "internal_node_id": "0.0-157.0-0.0"}}, {"uniqueid": "MTK0578:358010RM5F0S6VS3F7C0Q2X64ENVX9", "current_trial": 212, "dateTime": 1511218132230, "trialdata": {"rt": 1864, "key_press": 13, "type": "INSTRUCTIONS", "trial_type": "text", "trial_index": 212, "time_elapsed": 995053, "internal_node_id": "0.0-158.0"}}, {"uniqueid": "MTK0578:358010RM5F0S6VS3F7C0Q2X64ENVX9", "current_trial": 213, "dateTime": 1511218146241, "trialdata": {"rt": [3101, 5694, 8769], "responses": ["14", "55", "1"], "num1": [2, 6, 5, 7], "num2": [8, 9, 4, 5], "num3": [4, 4, 8, 7], "type": "DISTRACTOR", "conditions": [12, 1600, "v", 12000], "trial": 6, "trial_type": "math-distractor", "trial_index": 213, "time_elapsed": 1009068, "internal_node_id": "0.0-159.0"}}, {"uniqueid": "MTK0578:358010RM5F0S6VS3F7C0Q2X64ENVX9", "current_trial": 214, "dateTime": 1511218149243, "trialdata": {"rt": -1, "stimulus": "<p id=\"stim\">10</p>", "key_press": -1, "trial_type": "single-stim", "trial_index": 214, "time_elapsed": 1012070, "internal_node_id": "0.0-160.0-0.0"}}, {"uniqueid": "MTK0578:358010RM5F0S6VS3F7C0Q2X64ENVX9", "current_trial": 215, "dateTime": 1511218150284, "trialdata": {"rt": -1, "stimulus": "<p id=\"stim\">9</p>", "key_press": -1, "trial_type": "single-stim", "trial_index": 215, "time_elapsed": 1013111, "internal_node_id": "0.0-160.0-1.0"}}, {"uniqueid": "MTK0578:358010RM5F0S6VS3F7C0Q2X64ENVX9", "current_trial": 216, "dateTime": 1511218151285, "trialdata": {"rt": -1, "stimulus": "<p id=\"stim\">8</p>", "key_press": -1, "trial_type": "single-stim", "trial_index": 216, "time_elapsed": 1014112, "internal_node_id": "0.0-160.0-2.0"}}, {"uniqueid": "MTK0578:358010RM5F0S6VS3F7C0Q2X64ENVX9", "current_trial": 217, "dateTime": 1511218152323, "trialdata": {"rt": -1, "stimulus": "<p id=\"stim\">7</p>", "key_press": -1, "trial_type": "single-stim", "trial_index": 217, "time_elapsed": 1015150, "internal_node_id": "0.0-160.0-3.0"}}, {"uniqueid": "MTK0578:358010RM5F0S6VS3F7C0Q2X64ENVX9", "current_trial": 218, "dateTime": 1511218153334, "trialdata": {"rt": -1, "stimulus": "<p id=\"stim\">6</p>", "key_press": -1, "trial_type": "single-stim", "trial_index": 218, "time_elapsed": 1016157, "internal_node_id": "0.0-160.0-4.0"}}, {"uniqueid": "MTK0578:358010RM5F0S6VS3F7C0Q2X64ENVX9", "current_trial": 219, "dateTime": 1511218154334, "trialdata": {"rt": -1, "stimulus": "<p id=\"stim\">5</p>", "key_press": -1, "trial_type": "single-stim", "trial_index": 219, "time_elapsed": 1017161, "internal_node_id": "0.0-160.0-5.0"}}, {"uniqueid": "MTK0578:358010RM5F0S6VS3F7C0Q2X64ENVX9", "current_trial": 220, "dateTime": 1511218155342, "trialdata": {"rt": -1, "stimulus": "<p id=\"stim\">4</p>", "key_press": -1, "trial_type": "single-stim", "trial_index": 220, "time_elapsed": 1018169, "internal_node_id": "0.0-160.0-6.0"}}, {"uniqueid": "MTK0578:358010RM5F0S6VS3F7C0Q2X64ENVX9", "current_trial": 221, "dateTime": 1511218156350, "trialdata": {"rt": -1, "stimulus": "<p id=\"stim\">3</p>", "key_press": -1, "trial_type": "single-stim", "trial_index": 221, "time_elapsed": 1019177, "internal_node_id": "0.0-160.0-7.0"}}, {"uniqueid": "MTK0578:358010RM5F0S6VS3F7C0Q2X64ENVX9", "current_trial": 222, "dateTime": 1511218157362, "trialdata": {"rt": -1, "stimulus": "<p id=\"stim\">2</p>", "key_press": -1, "trial_type": "single-stim", "trial_index": 222, "time_elapsed": 1020185, "internal_node_id": "0.0-160.0-8.0"}}, {"uniqueid": "MTK0578:358010RM5F0S6VS3F7C0Q2X64ENVX9", "current_trial": 223, "dateTime": 1511218158364, "trialdata": {"rt": -1, "stimulus": "<p id=\"stim\">1</p>", "key_press": -1, "trial_type": "single-stim", "trial_index": 223, "time_elapsed": 1021191, "internal_node_id": "0.0-160.0-9.0"}}, {"uniqueid": "MTK0578:358010RM5F0S6VS3F7C0Q2X64ENVX9", "current_trial": 224, "dateTime": 1511218159866, "trialdata": {"rt": -1, "stimulus": "<p id=\"stim\">+</p>", "key_press": -1, "type": "FIXATION", "trial_type": "single-stim", "trial_index": 224, "time_elapsed": 1022693, "internal_node_id": "0.0-161.0-0.0"}}, {"uniqueid": "MTK0578:358010RM5F0S6VS3F7C0Q2X64ENVX9", "current_trial": 225, "dateTime": 1511218161467, "trialdata": {"rt": -1, "stimulus": "<p id=\"stim\">QUEEN</p>", "key_press": -1, "type": "PRES_VIS", "word": "queen", "wordID": 1148, "conditions": [12, 1600, "v", 12000], "trial": 6, "serialpos": 0, "trial_type": "single-stim", "trial_index": 225, "time_elapsed": 1024294, "internal_node_id": "0.0-162.0"}}, {"uniqueid": "MTK0578:358010RM5F0S6VS3F7C0Q2X64ENVX9", "current_trial": 226, "dateTime": 1511218164059, "trialdata": {"rt": -1, "stimulus": "<p id=\"stim\">BROTHER</p>", "key_press": -1, "type": "PRES_VIS", "word": "brother", "wordID": 178, "conditions": [12, 1600, "v", 12000], "trial": 6, "serialpos": 1, "trial_type": "single-stim", "trial_index": 226, "time_elapsed": 1026882, "internal_node_id": "0.0-163.0"}}, {"uniqueid": "MTK0578:358010RM5F0S6VS3F7C0Q2X64ENVX9", "current_trial": 227, "dateTime": 1511218166647, "trialdata": {"rt": -1, "stimulus": "<p id=\"stim\">SKILLET</p>", "key_press": -1, "type": "PRES_VIS", "word": "skillet", "wordID": 1316, "conditions": [12, 1600, "v", 12000], "trial": 6, "serialpos": 2, "trial_type": "single-stim", "trial_index": 227, "time_elapsed": 1029474, "internal_node_id": "0.0-164.0"}}, {"uniqueid": "MTK0578:358010RM5F0S6VS3F7C0Q2X64ENVX9", "current_trial": 228, "dateTime": 1511218169333, "trialdata": {"rt": -1, "stimulus": "<p id=\"stim\">TRACTOR</p>", "key_press": -1, "type": "PRES_VIS", "word": "tractor", "wordID": 1492, "conditions": [12, 1600, "v", 12000], "trial": 6, "serialpos": 3, "trial_type": "single-stim", "trial_index": 228, "time_elapsed": 1032160, "internal_node_id": "0.0-165.0"}}, {"uniqueid": "MTK0578:358010RM5F0S6VS3F7C0Q2X64ENVX9", "current_trial": 229, "dateTime": 1511218172024, "trialdata": {"rt": -1, "stimulus": "<p id=\"stim\">PAPER</p>", "key_press": -1, "type": "PRES_VIS", "word": "paper", "wordID": 1010, "conditions": [12, 1600, "v", 12000], "trial": 6, "serialpos": 4, "trial_type": "single-stim", "trial_index": 229, "time_elapsed": 1034851, "internal_node_id": "0.0-166.0"}}, {"uniqueid": "MTK0578:358010RM5F0S6VS3F7C0Q2X64ENVX9", "current_trial": 230, "dateTime": 1511218174802, "trialdata": {"rt": -1, "stimulus": "<p id=\"stim\">WAITRESS</p>", "key_press": -1, "type": "PRES_VIS", "word": "waitress", "wordID": 1580, "conditions": [12, 1600, "v", 12000], "trial": 6, "serialpos": 5, "trial_type": "single-stim", "trial_index": 230, "time_elapsed": 1037629, "internal_node_id": "0.0-167.0"}}, {"uniqueid": "MTK0578:358010RM5F0S6VS3F7C0Q2X64ENVX9", "current_trial": 231, "dateTime": 1511218177412, "trialdata": {"rt": -1, "stimulus": "<p id=\"stim\">BRIEFCASE</p>", "key_press": -1, "type": "PRES_VIS", "word": "briefcase", "wordID": 174, "conditions": [12, 1600, "v", 12000], "trial": 6, "serialpos": 6, "trial_type": "single-stim", "trial_index": 231, "time_elapsed": 1040239, "internal_node_id": "0.0-168.0"}}, {"uniqueid": "MTK0578:358010RM5F0S6VS3F7C0Q2X64ENVX9", "current_trial": 232, "dateTime": 1511218179894, "trialdata": {"rt": -1, "stimulus": "<p id=\"stim\">STICKER</p>", "key_press": -1, "type": "PRES_VIS", "word": "sticker", "wordID": 1381, "conditions": [12, 1600, "v", 12000], "trial": 6, "serialpos": 7, "trial_type": "single-stim", "trial_index": 232, "time_elapsed": 1042721, "internal_node_id": "0.0-169.0"}}, {"uniqueid": "MTK0578:358010RM5F0S6VS3F7C0Q2X64ENVX9", "current_trial": 233, "dateTime": 1511218182602, "trialdata": {"rt": -1, "stimulus": "<p id=\"stim\">VALVE</p>", "key_press": -1, "type": "PRES_VIS", "word": "valve", "wordID": 1545, "conditions": [12, 1600, "v", 12000], "trial": 6, "serialpos": 8, "trial_type": "single-stim", "trial_index": 233, "time_elapsed": 1045425, "internal_node_id": "0.0-170.0"}}, {"uniqueid": "MTK0578:358010RM5F0S6VS3F7C0Q2X64ENVX9", "current_trial": 234, "dateTime": 1511218185309, "trialdata": {"rt": -1, "stimulus": "<p id=\"stim\">PISTON</p>", "key_press": -1, "type": "PRES_VIS", "word": "piston", "wordID": 1075, "conditions": [12, 1600, "v", 12000], "trial": 6, "serialpos": 9, "trial_type": "single-stim", "trial_index": 234, "time_elapsed": 1048136, "internal_node_id": "0.0-171.0"}}, {"uniqueid": "MTK0578:358010RM5F0S6VS3F7C0Q2X64ENVX9", "current_trial": 235, "dateTime": 1511218187916, "trialdata": {"rt": -1, "stimulus": "<p id=\"stim\">FRAGRANCE</p>", "key_press": -1, "type": "PRES_VIS", "word": "fragrance", "wordID": 598, "conditions": [12, 1600, "v", 12000], "trial": 6, "serialpos": 10, "trial_type": "single-stim", "trial_index": 235, "time_elapsed": 1050739, "internal_node_id": "0.0-172.0"}}, {"uniqueid": "MTK0578:358010RM5F0S6VS3F7C0Q2X64ENVX9", "current_trial": 236, "dateTime": 1511218190680, "trialdata": {"rt": -1, "stimulus": "<p id=\"stim\">HUSBAND</p>", "key_press": -1, "type": "PRES_VIS", "word": "husband", "wordID": 727, "conditions": [12, 1600, "v", 12000], "trial": 6, "serialpos": 11, "trial_type": "single-stim", "trial_index": 236, "time_elapsed": 1053507, "internal_node_id": "0.0-173.0"}}, {"uniqueid": "MTK0578:358010RM5F0S6VS3F7C0Q2X64ENVX9", "current_trial": 237, "dateTime": 1511218192986, "trialdata": {"rt": -1, "stimulus": "", "key_press": -1, "type": "PRE_RECALL_DELAY", "trial_type": "single-stim", "trial_index": 237, "time_elapsed": 1055813, "internal_node_id": "0.0-174.0-0.0"}}, {"uniqueid": "MTK0578:358010RM5F0S6VS3F7C0Q2X64ENVX9", "current_trial": 238, "dateTime": 1511218193500, "trialdata": {"rt": -1000, "stimulus": "/static/audio/400Hz.wav", "key_press": -1, "type": "PRE_RECALL_ALERT", "trial_type": "single-audio", "trial_index": 238, "time_elapsed": 1056327, "internal_node_id": "0.0-175.0"}}, {"uniqueid": "MTK0578:358010RM5F0S6VS3F7C0Q2X64ENVX9", "current_trial": 239, "dateTime": 1511218253573, "trialdata": {"rt": [2479, 3935, 5523, 6953, 8985, 10521, 11762, 13780, 16347], "recwords": ["queen", "brother", "skillet", "paper", "waitress", "sticker", "valve", "fragrance", "husband"], "type": "FREE_RECALL", "conditions": [12, 1600, "v", 12000], "trial": 6, "trial_type": "free-recall", "trial_index": 239, "time_elapsed": 1116380, "internal_node_id": "0.0-176.0-0.0"}}, {"uniqueid": "MTK0578:358010RM5F0S6VS3F7C0Q2X64ENVX9", "current_trial": 240, "dateTime": 1511218256004, "trialdata": {"rt": 429, "key_press": 74, "type": "INSTRUCTIONS", "trial_type": "text", "trial_index": 240, "time_elapsed": 1118831, "internal_node_id": "0.0-177.0"}}, {"uniqueid": "MTK0578:358010RM5F0S6VS3F7C0Q2X64ENVX9", "current_trial": 241, "dateTime": 1511218270018, "trialdata": {"rt": [3919, 6581, 8582], "responses": ["16", "17", "14"], "num1": [9, 3, 1, 6], "num2": [1, 7, 6, 8], "num3": [6, 7, 7, 8], "type": "DISTRACTOR", "conditions": [24, 1600, "v", 12000], "trial": 7, "trial_type": "math-distractor", "trial_index": 241, "time_elapsed": 1132841, "internal_node_id": "0.0-178.0"}}, {"uniqueid": "MTK0578:358010RM5F0S6VS3F7C0Q2X64ENVX9", "current_trial": 242, "dateTime": 1511218273027, "trialdata": {"rt": -1, "stimulus": "<p id=\"stim\">10</p>", "key_press": -1, "trial_type": "single-stim", "trial_index": 242, "time_elapsed": 1135854, "internal_node_id": "0.0-179.0-0.0"}}, {"uniqueid": "MTK0578:358010RM5F0S6VS3F7C0Q2X64ENVX9", "current_trial": 243, "dateTime": 1511218274031, "trialdata": {"rt": -1, "stimulus": "<p id=\"stim\">9</p>", "key_press": -1, "trial_type": "single-stim", "trial_index": 243, "time_elapsed": 1136858, "internal_node_id": "0.0-179.0-1.0"}}, {"uniqueid": "MTK0578:358010RM5F0S6VS3F7C0Q2X64ENVX9", "current_trial": 244, "dateTime": 1511218275033, "trialdata": {"rt": -1, "stimulus": "<p id=\"stim\">8</p>", "key_press": -1, "trial_type": "single-stim", "trial_index": 244, "time_elapsed": 1137860, "internal_node_id": "0.0-179.0-2.0"}}, {"uniqueid": "MTK0578:358010RM5F0S6VS3F7C0Q2X64ENVX9", "current_trial": 245, "dateTime": 1511218276033, "trialdata": {"rt": -1, "stimulus": "<p id=\"stim\">7</p>", "key_press": -1, "trial_type": "single-stim", "trial_index": 245, "time_elapsed": 1138860, "internal_node_id": "0.0-179.0-3.0"}}, {"uniqueid": "MTK0578:358010RM5F0S6VS3F7C0Q2X64ENVX9", "current_trial": 246, "dateTime": 1511218277033, "trialdata": {"rt": -1, "stimulus": "<p id=\"stim\">6</p>", "key_press": -1, "trial_type": "single-stim", "trial_index": 246, "time_elapsed": 1139860, "internal_node_id": "0.0-179.0-4.0"}}, {"uniqueid": "MTK0578:358010RM5F0S6VS3F7C0Q2X64ENVX9", "current_trial": 247, "dateTime": 1511218278035, "trialdata": {"rt": -1, "stimulus": "<p id=\"stim\">5</p>", "key_press": -1, "trial_type": "single-stim", "trial_index": 247, "time_elapsed": 1140862, "internal_node_id": "0.0-179.0-5.0"}}, {"uniqueid": "MTK0578:358010RM5F0S6VS3F7C0Q2X64ENVX9", "current_trial": 248, "dateTime": 1511218279037, "trialdata": {"rt": -1, "stimulus": "<p id=\"stim\">4</p>", "key_press": -1, "trial_type": "single-stim", "trial_index": 248, "time_elapsed": 1141864, "internal_node_id": "0.0-179.0-6.0"}}, {"uniqueid": "MTK0578:358010RM5F0S6VS3F7C0Q2X64ENVX9", "current_trial": 249, "dateTime": 1511218280042, "trialdata": {"rt": -1, "stimulus": "<p id=\"stim\">3</p>", "key_press": -1, "trial_type": "single-stim", "trial_index": 249, "time_elapsed": 1142869, "internal_node_id": "0.0-179.0-7.0"}}, {"uniqueid": "MTK0578:358010RM5F0S6VS3F7C0Q2X64ENVX9", "current_trial": 250, "dateTime": 1511218281042, "trialdata": {"rt": -1, "stimulus": "<p id=\"stim\">2</p>", "key_press": -1, "trial_type": "single-stim", "trial_index": 250, "time_elapsed": 1143869, "internal_node_id": "0.0-179.0-8.0"}}, {"uniqueid": "MTK0578:358010RM5F0S6VS3F7C0Q2X64ENVX9", "current_trial": 251, "dateTime": 1511218282046, "trialdata": {"rt": -1, "stimulus": "<p id=\"stim\">1</p>", "key_press": -1, "trial_type": "single-stim", "trial_index": 251, "time_elapsed": 1144873, "internal_node_id": "0.0-179.0-9.0"}}, {"uniqueid": "MTK0578:358010RM5F0S6VS3F7C0Q2X64ENVX9", "current_trial": 252, "dateTime": 1511218283563, "trialdata": {"rt": -1, "stimulus": "<p id=\"stim\">+</p>", "key_press": -1, "type": "FIXATION", "trial_type": "single-stim", "trial_index": 252, "time_elapsed": 1146390, "internal_node_id": "0.0-180.0-0.0"}}, {"uniqueid": "MTK0578:358010RM5F0S6VS3F7C0Q2X64ENVX9", "current_trial": 253, "dateTime": 1511218285166, "trialdata": {"rt": -1, "stimulus": "<p id=\"stim\">LOVER</p>", "key_press": -1, "type": "PRES_VIS", "word": "lover", "wordID": 845, "conditions": [24, 1600, "v", 12000], "trial": 7, "serialpos": 0, "trial_type": "single-stim", "trial_index": 253, "time_elapsed": 1147993, "internal_node_id": "0.0-181.0"}}, {"uniqueid": "MTK0578:358010RM5F0S6VS3F7C0Q2X64ENVX9", "current_trial": 254, "dateTime": 1511218287717, "trialdata": {"rt": -1, "stimulus": "<p id=\"stim\">CATCHER</p>", "key_press": -1, "type": "PRES_VIS", "word": "catcher", "wordID": 257, "conditions": [24, 1600, "v", 12000], "trial": 7, "serialpos": 1, "trial_type": "single-stim", "trial_index": 254, "time_elapsed": 1150544, "internal_node_id": "0.0-182.0"}}, {"uniqueid": "MTK0578:358010RM5F0S6VS3F7C0Q2X64ENVX9", "current_trial": 255, "dateTime": 1511218290439, "trialdata": {"rt": -1, "stimulus": "<p id=\"stim\">HANDBAG</p>", "key_press": -1, "type": "PRES_VIS", "word": "handbag", "wordID": 683, "conditions": [24, 1600, "v", 12000], "trial": 7, "serialpos": 2, "trial_type": "single-stim", "trial_index": 255, "time_elapsed": 1153266, "internal_node_id": "0.0-183.0"}}, {"uniqueid": "MTK0578:358010RM5F0S6VS3F7C0Q2X64ENVX9", "current_trial": 256, "dateTime": 1511218292929, "trialdata": {"rt": -1, "stimulus": "<p id=\"stim\">NECKLACE</p>", "key_press": -1, "type": "PRES_VIS", "word": "necklace", "wordID": 939, "conditions": [24, 1600, "v", 12000], "trial": 7, "serialpos": 3, "trial_type": "single-stim", "trial_index": 256, "time_elapsed": 1155756, "internal_node_id": "0.0-184.0"}}, {"uniqueid": "MTK0578:358010RM5F0S6VS3F7C0Q2X64ENVX9", "current_trial": 257, "dateTime": 1511218295601, "trialdata": {"rt": -1, "stimulus": "<p id=\"stim\">COFFEE</p>", "key_press": -1, "type": "PRES_VIS", "word": "coffee", "wordID": 340, "conditions": [24, 1600, "v", 12000], "trial": 7, "serialpos": 4, "trial_type": "single-stim", "trial_index": 257, "time_elapsed": 1158428, "internal_node_id": "0.0-185.0"}}, {"uniqueid": "MTK0578:358010RM5F0S6VS3F7C0Q2X64ENVX9", "current_trial": 258, "dateTime": 1511218298267, "trialdata": {"rt": -1, "stimulus": "<p id=\"stim\">GARBAGE</p>", "key_press": -1, "type": "PRES_VIS", "word": "garbage", "wordID": 621, "conditions": [24, 1600, "v", 12000], "trial": 7, "serialpos": 5, "trial_type": "single-stim", "trial_index": 258, "time_elapsed": 1161094, "internal_node_id": "0.0-186.0"}}, {"uniqueid": "MTK0578:358010RM5F0S6VS3F7C0Q2X64ENVX9", "current_trial": 259, "dateTime": 1511218301049, "trialdata": {"rt": -1, "stimulus": "<p id=\"stim\">PISTOL</p>", "key_press": -1, "type": "PRES_VIS", "word": "pistol", "wordID": 1074, "conditions": [24, 1600, "v", 12000], "trial": 7, "serialpos": 6, "trial_type": "single-stim", "trial_index": 259, "time_elapsed": 1163876, "internal_node_id": "0.0-187.0"}}, {"uniqueid": "MTK0578:358010RM5F0S6VS3F7C0Q2X64ENVX9", "current_trial": 260, "dateTime": 1511218303550, "trialdata": {"rt": -1, "stimulus": "<p id=\"stim\">CHEST</p>", "key_press": -1, "type": "PRES_VIS", "word": "chest", "wordID": 294, "conditions": [24, 1600, "v", 12000], "trial": 7, "serialpos": 7, "trial_type": "single-stim", "trial_index": 260, "time_elapsed": 1166377, "internal_node_id": "0.0-188.0"}}, {"uniqueid": "MTK0578:358010RM5F0S6VS3F7C0Q2X64ENVX9", "current_trial": 261, "dateTime": 1511218306153, "trialdata": {"rt": -1, "stimulus": "<p id=\"stim\">TOURIST</p>", "key_press": -1, "type": "PRES_VIS", "word": "tourist", "wordID": 1487, "conditions": [24, 1600, "v", 12000], "trial": 7, "serialpos": 8, "trial_type": "single-stim", "trial_index": 261, "time_elapsed": 1168980, "internal_node_id": "0.0-189.0"}}, {"uniqueid": "MTK0578:358010RM5F0S6VS3F7C0Q2X64ENVX9", "current_trial": 262, "dateTime": 1511218308572, "trialdata": {"rt": -1, "stimulus": "<p id=\"stim\">KNIFE</p>", "key_press": -1, "type": "PRES_VIS", "word": "knife", "wordID": 784, "conditions": [24, 1600, "v", 12000], "trial": 7, "serialpos": 9, "trial_type": "single-stim", "trial_index": 262, "time_elapsed": 1171399, "internal_node_id": "0.0-190.0"}}, {"uniqueid": "MTK0578:358010RM5F0S6VS3F7C0Q2X64ENVX9", "current_trial": 263, "dateTime": 1511218311011, "trialdata": {"rt": -1, "stimulus": "<p id=\"stim\">GHETTO</p>", "key_press": -1, "type": "PRES_VIS", "word": "ghetto", "wordID": 632, "conditions": [24, 1600, "v", 12000], "trial": 7, "serialpos": 10, "trial_type": "single-stim", "trial_index": 263, "time_elapsed": 1173838, "internal_node_id": "0.0-191.0"}}, {"uniqueid": "MTK0578:358010RM5F0S6VS3F7C0Q2X64ENVX9", "current_trial": 264, "dateTime": 1511218313505, "trialdata": {"rt": -1, "stimulus": "<p id=\"stim\">LODGE</p>", "key_press": -1, "type": "PRES_VIS", "word": "lodge", "wordID": 838, "conditions": [24, 1600, "v", 12000], "trial": 7, "serialpos": 11, "trial_type": "single-stim", "trial_index": 264, "time_elapsed": 1176332, "internal_node_id": "0.0-192.0"}}, {"uniqueid": "MTK0578:358010RM5F0S6VS3F7C0Q2X64ENVX9", "current_trial": 265, "dateTime": 1511218315924, "trialdata": {"rt": -1, "stimulus": "<p id=\"stim\">HAMPER</p>", "key_press": -1, "type": "PRES_VIS", "word": "hamper", "wordID": 681, "conditions": [24, 1600, "v", 12000], "trial": 7, "serialpos": 12, "trial_type": "single-stim", "trial_index": 265, "time_elapsed": 1178747, "internal_node_id": "0.0-193.0"}}, {"uniqueid": "MTK0578:358010RM5F0S6VS3F7C0Q2X64ENVX9", "current_trial": 266, "dateTime": 1511218318409, "trialdata": {"rt": -1, "stimulus": "<p id=\"stim\">SPIDER</p>", "key_press": -1, "type": "PRES_VIS", "word": "spider", "wordID": 1350, "conditions": [24, 1600, "v", 12000], "trial": 7, "serialpos": 13, "trial_type": "single-stim", "trial_index": 266, "time_elapsed": 1181236, "internal_node_id": "0.0-194.0"}}, {"uniqueid": "MTK0578:358010RM5F0S6VS3F7C0Q2X64ENVX9", "current_trial": 267, "dateTime": 1511218320943, "trialdata": {"rt": -1, "stimulus": "<p id=\"stim\">LIZARD</p>", "key_press": -1, "type": "PRES_VIS", "word": "lizard", "wordID": 833, "conditions": [24, 1600, "v", 12000], "trial": 7, "serialpos": 14, "trial_type": "single-stim", "trial_index": 267, "time_elapsed": 1183770, "internal_node_id": "0.0-195.0"}}, {"uniqueid": "MTK0578:358010RM5F0S6VS3F7C0Q2X64ENVX9", "current_trial": 268, "dateTime": 1511218323499, "trialdata": {"rt": -1, "stimulus": "<p id=\"stim\">CHIPMUNK</p>", "key_press": -1, "type": "PRES_VIS", "word": "chipmunk", "wordID": 303, "conditions": [24, 1600, "v", 12000], "trial": 7, "serialpos": 15, "trial_type": "single-stim", "trial_index": 268, "time_elapsed": 1186326, "internal_node_id": "0.0-196.0"}}, {"uniqueid": "MTK0578:358010RM5F0S6VS3F7C0Q2X64ENVX9", "current_trial": 269, "dateTime": 1511218326223, "trialdata": {"rt": -1, "stimulus": "<p id=\"stim\">JUNGLE</p>", "key_press": -1, "type": "PRES_VIS", "word": "jungle", "wordID": 763, "conditions": [24, 1600, "v", 12000], "trial": 7, "serialpos": 16, "trial_type": "single-stim", "trial_index": 269, "time_elapsed": 1189050, "internal_node_id": "0.0-197.0"}}, {"uniqueid": "MTK0578:358010RM5F0S6VS3F7C0Q2X64ENVX9", "current_trial": 270, "dateTime": 1511218328713, "trialdata": {"rt": -1, "stimulus": "<p id=\"stim\">GLOVE</p>", "key_press": -1, "type": "PRES_VIS", "word": "glove", "wordID": 641, "conditions": [24, 1600, "v", 12000], "trial": 7, "serialpos": 17, "trial_type": "single-stim", "trial_index": 270, "time_elapsed": 1191540, "internal_node_id": "0.0-198.0"}}, {"uniqueid": "MTK0578:358010RM5F0S6VS3F7C0Q2X64ENVX9", "current_trial": 271, "dateTime": 1511218331400, "trialdata": {"rt": -1, "stimulus": "<p id=\"stim\">MARSH</p>", "key_press": -1, "type": "PRES_VIS", "word": "marsh", "wordID": 873, "conditions": [24, 1600, "v", 12000], "trial": 7, "serialpos": 18, "trial_type": "single-stim", "trial_index": 271, "time_elapsed": 1194227, "internal_node_id": "0.0-199.0"}}, {"uniqueid": "MTK0578:358010RM5F0S6VS3F7C0Q2X64ENVX9", "current_trial": 272, "dateTime": 1511218334057, "trialdata": {"rt": -1, "stimulus": "<p id=\"stim\">PIGEON</p>", "key_press": -1, "type": "PRES_VIS", "word": "pigeon", "wordID": 1064, "conditions": [24, 1600, "v", 12000], "trial": 7, "serialpos": 19, "trial_type": "single-stim", "trial_index": 272, "time_elapsed": 1196884, "internal_node_id": "0.0-200.0"}}, {"uniqueid": "MTK0578:358010RM5F0S6VS3F7C0Q2X64ENVX9", "current_trial": 273, "dateTime": 1511218336553, "trialdata": {"rt": -1, "st