{"condition": 0, "counterbalance": 150, "assignmentId": "3FIJLY1B6VBY1P4MT1XFE38HEW6PFT", "workerId": "MTK0358", "hitId": "39AYGO6AFFR0SR14MRCHROUP7WR6N3", "currenttrial": 626, "bonus": 0, "data": [{"uniqueid": "MTK0358:3FIJLY1B6VBY1P4MT1XFE38HEW6PFT", "current_trial": 0, "dateTime": 1510772675693, "trialdata": {"rt": 202140, "key_press": 32, "type": "INSTRUCTIONS", "trial_type": "text", "trial_index": 0, "time_elapsed": 202145, "internal_node_id": "0.0-0.0"}}, {"uniqueid": "MTK0358:3FIJLY1B6VBY1P4MT1XFE38HEW6PFT", "current_trial": 1, "dateTime": 1510772692610, "trialdata": {"rt": 16915, "key_press": 175, "type": "INSTRUCTIONS", "trial_type": "text", "trial_index": 1, "time_elapsed": 219064, "internal_node_id": "0.0-1.0"}}, {"uniqueid": "MTK0358:3FIJLY1B6VBY1P4MT1XFE38HEW6PFT", "current_trial": 2, "dateTime": 1510772717622, "trialdata": {"rt": [24964], "responses": ["ocean"], "type": "AUDIO_TEST", "trial_type": "audio-test", "trial_index": 2, "time_elapsed": 244076, "internal_node_id": "0.0-2.0"}}, {"uniqueid": "MTK0358:3FIJLY1B6VBY1P4MT1XFE38HEW6PFT", "current_trial": 3, "dateTime": 1510772723658, "trialdata": {"rt": [6027], "responses": ["crystal"], "type": "AUDIO_TEST", "trial_type": "audio-test", "trial_index": 3, "time_elapsed": 250112, "internal_node_id": "0.0-3.0"}}, {"uniqueid": "MTK0358:3FIJLY1B6VBY1P4MT1XFE38HEW6PFT", "current_trial": 4, "dateTime": 1510772728947, "trialdata": {"rt": [5280], "responses": ["spice"], "type": "AUDIO_TEST", "trial_type": "audio-test", "trial_index": 4, "time_elapsed": 255401, "internal_node_id": "0.0-4.0"}}, {"uniqueid": "MTK0358:3FIJLY1B6VBY1P4MT1XFE38HEW6PFT", "current_trial": 5, "dateTime": 1510772745869, "trialdata": {"rt": 16168, "responses": "{\"Q0\":\"10pm\",\"Q1\":\"7am\",\"Q2\":\"5\"}", "type": "SLEEP_SURVEY", "trial_type": "survey-text", "trial_index": 5, "time_elapsed": 272323, "internal_node_id": "0.0-5.0"}}, {"uniqueid": "MTK0358:3FIJLY1B6VBY1P4MT1XFE38HEW6PFT", "current_trial": 6, "dateTime": 1510772784441, "trialdata": {"rt": 37570, "key_press": 32, "type": "INSTRUCTIONS", "trial_type": "text", "trial_index": 6, "time_elapsed": 310895, "internal_node_id": "0.0-6.0"}}, {"uniqueid": "MTK0358:3FIJLY1B6VBY1P4MT1XFE38HEW6PFT", "current_trial": 7, "dateTime": 1510772800759, "trialdata": {"rt": 15817, "key_press": 32, "type": "INSTRUCTIONS", "trial_type": "text", "trial_index": 7, "time_elapsed": 327213, "internal_node_id": "0.0-7.0"}}, {"uniqueid": "MTK0358:3FIJLY1B6VBY1P4MT1XFE38HEW6PFT", "current_trial": 8, "dateTime": 1510772804372, "trialdata": {"rt": 3111, "key_press": 32, "type": "INSTRUCTIONS", "trial_type": "text", "trial_index": 8, "time_elapsed": 330826, "internal_node_id": "0.0-8.0"}}, {"uniqueid": "MTK0358:3FIJLY1B6VBY1P4MT1XFE38HEW6PFT", "current_trial": 9, "dateTime": 1510772823381, "trialdata": {"rt": [6793, 17233], "responses": ["18", "14"], "num1": [2, 3, 1], "num2": [7, 5, 1], "num3": [9, 6, 7], "type": "DISTRACTOR", "conditions": [18, 1200, "v", 18000], "trial": 0, "trial_type": "math-distractor", "trial_index": 9, "time_elapsed": 349835, "internal_node_id": "0.0-9.0"}}, {"uniqueid": "MTK0358:3FIJLY1B6VBY1P4MT1XFE38HEW6PFT", "current_trial": 10, "dateTime": 1510772826383, "trialdata": {"rt": -1, "stimulus": "<p id=\"stim\">10</p>", "key_press": -1, "trial_type": "single-stim", "trial_index": 10, "time_elapsed": 352837, "internal_node_id": "0.0-10.0-0.0"}}, {"uniqueid": "MTK0358:3FIJLY1B6VBY1P4MT1XFE38HEW6PFT", "current_trial": 11, "dateTime": 1510772827385, "trialdata": {"rt": -1, "stimulus": "<p id=\"stim\">9</p>", "key_press": -1, "trial_type": "single-stim", "trial_index": 11, "time_elapsed": 353839, "internal_node_id": "0.0-10.0-1.0"}}, {"uniqueid": "MTK0358:3FIJLY1B6VBY1P4MT1XFE38HEW6PFT", "current_trial": 12, "dateTime": 1510772828386, "trialdata": {"rt": -1, "stimulus": "<p id=\"stim\">8</p>", "key_press": -1, "trial_type": "single-stim", "trial_index": 12, "time_elapsed": 354840, "internal_node_id": "0.0-10.0-2.0"}}, {"uniqueid": "MTK0358:3FIJLY1B6VBY1P4MT1XFE38HEW6PFT", "current_trial": 13, "dateTime": 1510772829386, "trialdata": {"rt": -1, "stimulus": "<p id=\"stim\">7</p>", "key_press": -1, "trial_type": "single-stim", "trial_index": 13, "time_elapsed": 355840, "internal_node_id": "0.0-10.0-3.0"}}, {"uniqueid": "MTK0358:3FIJLY1B6VBY1P4MT1XFE38HEW6PFT", "current_trial": 14, "dateTime": 1510772830388, "trialdata": {"rt": -1, "stimulus": "<p id=\"stim\">6</p>", "key_press": -1, "trial_type": "single-stim", "trial_index": 14, "time_elapsed": 356842, "internal_node_id": "0.0-10.0-4.0"}}, {"uniqueid": "MTK0358:3FIJLY1B6VBY1P4MT1XFE38HEW6PFT", "current_trial": 15, "dateTime": 1510772831389, "trialdata": {"rt": -1, "stimulus": "<p id=\"stim\">5</p>", "key_press": -1, "trial_type": "single-stim", "trial_index": 15, "time_elapsed": 357843, "internal_node_id": "0.0-10.0-5.0"}}, {"uniqueid": "MTK0358:3FIJLY1B6VBY1P4MT1XFE38HEW6PFT", "current_trial": 16, "dateTime": 1510772832391, "trialdata": {"rt": -1, "stimulus": "<p id=\"stim\">4</p>", "key_press": -1, "trial_type": "single-stim", "trial_index": 16, "time_elapsed": 358845, "internal_node_id": "0.0-10.0-6.0"}}, {"uniqueid": "MTK0358:3FIJLY1B6VBY1P4MT1XFE38HEW6PFT", "current_trial": 17, "dateTime": 1510772833392, "trialdata": {"rt": -1, "stimulus": "<p id=\"stim\">3</p>", "key_press": -1, "trial_type": "single-stim", "trial_index": 17, "time_elapsed": 359846, "internal_node_id": "0.0-10.0-7.0"}}, {"uniqueid": "MTK0358:3FIJLY1B6VBY1P4MT1XFE38HEW6PFT", "current_trial": 18, "dateTime": 1510772834394, "trialdata": {"rt": -1, "stimulus": "<p id=\"stim\">2</p>", "key_press": -1, "trial_type": "single-stim", "trial_index": 18, "time_elapsed": 360848, "internal_node_id": "0.0-10.0-8.0"}}, {"uniqueid": "MTK0358:3FIJLY1B6VBY1P4MT1XFE38HEW6PFT", "current_trial": 19, "dateTime": 1510772835396, "trialdata": {"rt": -1, "stimulus": "<p id=\"stim\">1</p>", "key_press": -1, "trial_type": "single-stim", "trial_index": 19, "time_elapsed": 361850, "internal_node_id": "0.0-10.0-9.0"}}, {"uniqueid": "MTK0358:3FIJLY1B6VBY1P4MT1XFE38HEW6PFT", "current_trial": 20, "dateTime": 1510772836897, "trialdata": {"rt": -1, "stimulus": "<p id=\"stim\">+</p>", "key_press": -1, "type": "FIXATION", "trial_type": "single-stim", "trial_index": 20, "time_elapsed": 363351, "internal_node_id": "0.0-11.0-0.0"}}, {"uniqueid": "MTK0358:3FIJLY1B6VBY1P4MT1XFE38HEW6PFT", "current_trial": 21, "dateTime": 1510772838100, "trialdata": {"rt": -1, "stimulus": "<p id=\"stim\">LIGHTNING</p>", "key_press": -1, "type": "PRES_VIS", "word": "lightning", "wordID": 819, "conditions": [18, 1200, "v", 18000], "trial": 0, "serialpos": 0, "trial_type": "single-stim", "trial_index": 21, "time_elapsed": 364553, "internal_node_id": "0.0-12.0"}}, {"uniqueid": "MTK0358:3FIJLY1B6VBY1P4MT1XFE38HEW6PFT", "current_trial": 22, "dateTime": 1510772840157, "trialdata": {"rt": -1, "stimulus": "<p id=\"stim\">LASER</p>", "key_press": -1, "type": "PRES_VIS", "word": "laser", "wordID": 800, "conditions": [18, 1200, "v", 18000], "trial": 0, "serialpos": 1, "trial_type": "single-stim", "trial_index": 22, "time_elapsed": 366610, "internal_node_id": "0.0-13.0"}}, {"uniqueid": "MTK0358:3FIJLY1B6VBY1P4MT1XFE38HEW6PFT", "current_trial": 23, "dateTime": 1510772842255, "trialdata": {"rt": -1, "stimulus": "<p id=\"stim\">SMOG</p>", "key_press": -1, "type": "PRES_VIS", "word": "smog", "wordID": 1329, "conditions": [18, 1200, "v", 18000], "trial": 0, "serialpos": 2, "trial_type": "single-stim", "trial_index": 23, "time_elapsed": 368708, "internal_node_id": "0.0-14.0"}}, {"uniqueid": "MTK0358:3FIJLY1B6VBY1P4MT1XFE38HEW6PFT", "current_trial": 24, "dateTime": 1510772844401, "trialdata": {"rt": -1, "stimulus": "<p id=\"stim\">DRUG</p>", "key_press": -1, "type": "PRES_VIS", "word": "drug", "wordID": 500, "conditions": [18, 1200, "v", 18000], "trial": 0, "serialpos": 3, "trial_type": "single-stim", "trial_index": 24, "time_elapsed": 370855, "internal_node_id": "0.0-15.0"}}, {"uniqueid": "MTK0358:3FIJLY1B6VBY1P4MT1XFE38HEW6PFT", "current_trial": 25, "dateTime": 1510772846700, "trialdata": {"rt": -1, "stimulus": "<p id=\"stim\">LOVER</p>", "key_press": -1, "type": "PRES_VIS", "word": "lover", "wordID": 845, "conditions": [18, 1200, "v", 18000], "trial": 0, "serialpos": 4, "trial_type": "single-stim", "trial_index": 25, "time_elapsed": 373154, "internal_node_id": "0.0-16.0"}}, {"uniqueid": "MTK0358:3FIJLY1B6VBY1P4MT1XFE38HEW6PFT", "current_trial": 26, "dateTime": 1510772848704, "trialdata": {"rt": -1, "stimulus": "<p id=\"stim\">KNIFE</p>", "key_press": -1, "type": "PRES_VIS", "word": "knife", "wordID": 784, "conditions": [18, 1200, "v", 18000], "trial": 0, "serialpos": 5, "trial_type": "single-stim", "trial_index": 26, "time_elapsed": 375158, "internal_node_id": "0.0-17.0"}}, {"uniqueid": "MTK0358:3FIJLY1B6VBY1P4MT1XFE38HEW6PFT", "current_trial": 27, "dateTime": 1510772850805, "trialdata": {"rt": -1, "stimulus": "<p id=\"stim\">DOLPHIN</p>", "key_press": -1, "type": "PRES_VIS", "word": "dolphin", "wordID": 482, "conditions": [18, 1200, "v", 18000], "trial": 0, "serialpos": 6, "trial_type": "single-stim", "trial_index": 27, "time_elapsed": 377258, "internal_node_id": "0.0-18.0"}}, {"uniqueid": "MTK0358:3FIJLY1B6VBY1P4MT1XFE38HEW6PFT", "current_trial": 28, "dateTime": 1510772853191, "trialdata": {"rt": -1, "stimulus": "<p id=\"stim\">TAXI</p>", "key_press": -1, "type": "PRES_VIS", "word": "taxi", "wordID": 1437, "conditions": [18, 1200, "v", 18000], "trial": 0, "serialpos": 7, "trial_type": "single-stim", "trial_index": 28, "time_elapsed": 379645, "internal_node_id": "0.0-19.0"}}, {"uniqueid": "MTK0358:3FIJLY1B6VBY1P4MT1XFE38HEW6PFT", "current_trial": 29, "dateTime": 1510772855450, "trialdata": {"rt": -1, "stimulus": "<p id=\"stim\">FRAME</p>", "key_press": -1, "type": "PRES_VIS", "word": "frame", "wordID": 599, "conditions": [18, 1200, "v", 18000], "trial": 0, "serialpos": 8, "trial_type": "single-stim", "trial_index": 29, "time_elapsed": 381904, "internal_node_id": "0.0-20.0"}}, {"uniqueid": "MTK0358:3FIJLY1B6VBY1P4MT1XFE38HEW6PFT", "current_trial": 30, "dateTime": 1510772857680, "trialdata": {"rt": -1, "stimulus": "<p id=\"stim\">PERFUME</p>", "key_press": -1, "type": "PRES_VIS", "word": "perfume", "wordID": 1048, "conditions": [18, 1200, "v", 18000], "trial": 0, "serialpos": 9, "trial_type": "single-stim", "trial_index": 30, "time_elapsed": 384134, "internal_node_id": "0.0-21.0"}}, {"uniqueid": "MTK0358:3FIJLY1B6VBY1P4MT1XFE38HEW6PFT", "current_trial": 31, "dateTime": 1510772859884, "trialdata": {"rt": -1, "stimulus": "<p id=\"stim\">GANGSTER</p>", "key_press": -1, "type": "PRES_VIS", "word": "gangster", "wordID": 619, "conditions": [18, 1200, "v", 18000], "trial": 0, "serialpos": 10, "trial_type": "single-stim", "trial_index": 31, "time_elapsed": 386338, "internal_node_id": "0.0-22.0"}}, {"uniqueid": "MTK0358:3FIJLY1B6VBY1P4MT1XFE38HEW6PFT", "current_trial": 32, "dateTime": 1510772862230, "trialdata": {"rt": -1, "stimulus": "<p id=\"stim\">DRIVER</p>", "key_press": -1, "type": "PRES_VIS", "word": "driver", "wordID": 498, "conditions": [18, 1200, "v", 18000], "trial": 0, "serialpos": 11, "trial_type": "single-stim", "trial_index": 32, "time_elapsed": 388684, "internal_node_id": "0.0-23.0"}}, {"uniqueid": "MTK0358:3FIJLY1B6VBY1P4MT1XFE38HEW6PFT", "current_trial": 33, "dateTime": 1510772864610, "trialdata": {"rt": -1, "stimulus": "<p id=\"stim\">SPOON</p>", "key_press": -1, "type": "PRES_VIS", "word": "spoon", "wordID": 1356, "conditions": [18, 1200, "v", 18000], "trial": 0, "serialpos": 12, "trial_type": "single-stim", "trial_index": 33, "time_elapsed": 391064, "internal_node_id": "0.0-24.0"}}, {"uniqueid": "MTK0358:3FIJLY1B6VBY1P4MT1XFE38HEW6PFT", "current_trial": 34, "dateTime": 1510772866652, "trialdata": {"rt": -1, "stimulus": "<p id=\"stim\">TEMPLE</p>", "key_press": -1, "type": "PRES_VIS", "word": "temple", "wordID": 1447, "conditions": [18, 1200, "v", 18000], "trial": 0, "serialpos": 13, "trial_type": "single-stim", "trial_index": 34, "time_elapsed": 393106, "internal_node_id": "0.0-25.0"}}, {"uniqueid": "MTK0358:3FIJLY1B6VBY1P4MT1XFE38HEW6PFT", "current_trial": 35, "dateTime": 1510772868747, "trialdata": {"rt": -1, "stimulus": "<p id=\"stim\">DOUGHNUT</p>", "key_press": -1, "type": "PRES_VIS", "word": "doughnut", "wordID": 489, "conditions": [18, 1200, "v", 18000], "trial": 0, "serialpos": 14, "trial_type": "single-stim", "trial_index": 35, "time_elapsed": 395201, "internal_node_id": "0.0-26.0"}}, {"uniqueid": "MTK0358:3FIJLY1B6VBY1P4MT1XFE38HEW6PFT", "current_trial": 36, "dateTime": 1510772871066, "trialdata": {"rt": -1, "stimulus": "<p id=\"stim\">HEART</p>", "key_press": -1, "type": "PRES_VIS", "word": "heart", "wordID": 696, "conditions": [18, 1200, "v", 18000], "trial": 0, "serialpos": 15, "trial_type": "single-stim", "trial_index": 36, "time_elapsed": 397520, "internal_node_id": "0.0-27.0"}}, {"uniqueid": "MTK0358:3FIJLY1B6VBY1P4MT1XFE38HEW6PFT", "current_trial": 37, "dateTime": 1510772873288, "trialdata": {"rt": -1, "stimulus": "<p id=\"stim\">CANDY</p>", "key_press": -1, "type": "PRES_VIS", "word": "candy", "wordID": 229, "conditions": [18, 1200, "v", 18000], "trial": 0, "serialpos": 16, "trial_type": "single-stim", "trial_index": 37, "time_elapsed": 399741, "internal_node_id": "0.0-28.0"}}, {"uniqueid": "MTK0358:3FIJLY1B6VBY1P4MT1XFE38HEW6PFT", "current_trial": 38, "dateTime": 1510772875351, "trialdata": {"rt": -1, "stimulus": "<p id=\"stim\">ORANGE</p>", "key_press": -1, "type": "PRES_VIS", "word": "orange", "wordID": 979, "conditions": [18, 1200, "v", 18000], "trial": 0, "serialpos": 17, "trial_type": "single-stim", "trial_index": 38, "time_elapsed": 401805, "internal_node_id": "0.0-29.0"}}, {"uniqueid": "MTK0358:3FIJLY1B6VBY1P4MT1XFE38HEW6PFT", "current_trial": 39, "dateTime": 1510772877753, "trialdata": {"rt": -1, "stimulus": "", "key_press": -1, "type": "PRE_RECALL_DELAY", "trial_type": "single-stim", "trial_index": 39, "time_elapsed": 404207, "internal_node_id": "0.0-30.0-0.0"}}, {"uniqueid": "MTK0358:3FIJLY1B6VBY1P4MT1XFE38HEW6PFT", "current_trial": 40, "dateTime": 1510772878270, "trialdata": {"rt": -1000, "stimulus": "/static/audio/400Hz.wav", "key_press": -1, "type": "PRE_RECALL_ALERT", "trial_type": "single-audio", "trial_index": 40, "time_elapsed": 404724, "internal_node_id": "0.0-31.0"}}, {"uniqueid": "MTK0358:3FIJLY1B6VBY1P4MT1XFE38HEW6PFT", "current_trial": 41, "dateTime": 1510772938279, "trialdata": {"rt": [4663, 7423, 9319, 11388, 13953, 16772, 26437, 34245, 48378], "recwords": ["lightning", "gangster", "lover", "smog", "heart", "driver", "frame", "candle", "purfume"], "type": "FREE_RECALL", "conditions": [18, 1200, "v", 18000], "trial": 0, "trial_type": "free-recall", "trial_index": 41, "time_elapsed": 464729, "internal_node_id": "0.0-32.0-0.0"}}, {"uniqueid": "MTK0358:3FIJLY1B6VBY1P4MT1XFE38HEW6PFT", "current_trial": 42, "dateTime": 1510772945081, "trialdata": {"rt": 4800, "key_press": 32, "type": "INSTRUCTIONS", "trial_type": "text", "trial_index": 42, "time_elapsed": 471535, "internal_node_id": "0.0-33.0"}}, {"uniqueid": "MTK0358:3FIJLY1B6VBY1P4MT1XFE38HEW6PFT", "current_trial": 43, "dateTime": 1510772965084, "trialdata": {"rt": [8755, 12546, 14995], "responses": ["18", "11", "13"], "num1": [5, 2, 2, 9], "num2": [7, 3, 2, 6], "num3": [6, 6, 9, 9], "type": "DISTRACTOR", "conditions": [18, 1200, "a", 18000], "trial": 1, "trial_type": "math-distractor", "trial_index": 43, "time_elapsed": 491538, "internal_node_id": "0.0-34.0"}}, {"uniqueid": "MTK0358:3FIJLY1B6VBY1P4MT1XFE38HEW6PFT", "current_trial": 44, "dateTime": 1510772968086, "trialdata": {"rt": -1, "stimulus": "<p id=\"stim\">10</p>", "key_press": -1, "trial_type": "single-stim", "trial_index": 44, "time_elapsed": 494540, "internal_node_id": "0.0-35.0-0.0"}}, {"uniqueid": "MTK0358:3FIJLY1B6VBY1P4MT1XFE38HEW6PFT", "current_trial": 45, "dateTime": 1510772969088, "trialdata": {"rt": -1, "stimulus": "<p id=\"stim\">9</p>", "key_press": -1, "trial_type": "single-stim", "trial_index": 45, "time_elapsed": 495542, "internal_node_id": "0.0-35.0-1.0"}}, {"uniqueid": "MTK0358:3FIJLY1B6VBY1P4MT1XFE38HEW6PFT", "current_trial": 46, "dateTime": 1510772970090, "trialdata": {"rt": -1, "stimulus": "<p id=\"stim\">8</p>", "key_press": -1, "trial_type": "single-stim", "trial_index": 46, "time_elapsed": 496544, "internal_node_id": "0.0-35.0-2.0"}}, {"uniqueid": "MTK0358:3FIJLY1B6VBY1P4MT1XFE38HEW6PFT", "current_trial": 47, "dateTime": 1510772971092, "trialdata": {"rt": -1, "stimulus": "<p id=\"stim\">7</p>", "key_press": -1, "trial_type": "single-stim", "trial_index": 47, "time_elapsed": 497546, "internal_node_id": "0.0-35.0-3.0"}}, {"uniqueid": "MTK0358:3FIJLY1B6VBY1P4MT1XFE38HEW6PFT", "current_trial": 48, "dateTime": 1510772972094, "trialdata": {"rt": -1, "stimulus": "<p id=\"stim\">6</p>", "key_press": -1, "trial_type": "single-stim", "trial_index": 48, "time_elapsed": 498548, "internal_node_id": "0.0-35.0-4.0"}}, {"uniqueid": "MTK0358:3FIJLY1B6VBY1P4MT1XFE38HEW6PFT", "current_trial": 49, "dateTime": 1510772973095, "trialdata": {"rt": -1, "stimulus": "<p id=\"stim\">5</p>", "key_press": -1, "trial_type": "single-stim", "trial_index": 49, "time_elapsed": 499549, "internal_node_id": "0.0-35.0-5.0"}}, {"uniqueid": "MTK0358:3FIJLY1B6VBY1P4MT1XFE38HEW6PFT", "current_trial": 50, "dateTime": 1510772974097, "trialdata": {"rt": -1, "stimulus": "<p id=\"stim\">4</p>", "key_press": -1, "trial_type": "single-stim", "trial_index": 50, "time_elapsed": 500551, "internal_node_id": "0.0-35.0-6.0"}}, {"uniqueid": "MTK0358:3FIJLY1B6VBY1P4MT1XFE38HEW6PFT", "current_trial": 51, "dateTime": 1510772975099, "trialdata": {"rt": -1, "stimulus": "<p id=\"stim\">3</p>", "key_press": -1, "trial_type": "single-stim", "trial_index": 51, "time_elapsed": 501553, "internal_node_id": "0.0-35.0-7.0"}}, {"uniqueid": "MTK0358:3FIJLY1B6VBY1P4MT1XFE38HEW6PFT", "current_trial": 52, "dateTime": 1510772976100, "trialdata": {"rt": -1, "stimulus": "<p id=\"stim\">2</p>", "key_press": -1, "trial_type": "single-stim", "trial_index": 52, "time_elapsed": 502554, "internal_node_id": "0.0-35.0-8.0"}}, {"uniqueid": "MTK0358:3FIJLY1B6VBY1P4MT1XFE38HEW6PFT", "current_trial": 53, "dateTime": 1510772977102, "trialdata": {"rt": -1, "stimulus": "<p id=\"stim\">1</p>", "key_press": -1, "trial_type": "single-stim", "trial_index": 53, "time_elapsed": 503556, "internal_node_id": "0.0-35.0-9.0"}}, {"uniqueid": "MTK0358:3FIJLY1B6VBY1P4MT1XFE38HEW6PFT", "current_trial": 54, "dateTime": 1510772978603, "trialdata": {"rt": -1, "stimulus": "<p id=\"stim\">+</p>", "key_press": -1, "type": "FIXATION", "trial_type": "single-stim", "trial_index": 54, "time_elapsed": 505057, "internal_node_id": "0.0-36.0-0.0"}}, {"uniqueid": "MTK0358:3FIJLY1B6VBY1P4MT1XFE38HEW6PFT", "current_trial": 55, "dateTime": 1510772980829, "trialdata": {"rt": -1000, "stimulus": "/static/audio/wordpool/KIDNEY.wav", "key_press": -1, "type": "PRES_AUD", "word": "kidney", "wordID": 775, "conditions": [18, 1200, "a", 18000], "trial": 1, "serialpos": 0, "trial_type": "single-audio", "trial_index": 55, "time_elapsed": 507282, "internal_node_id": "0.0-37.0"}}, {"uniqueid": "MTK0358:3FIJLY1B6VBY1P4MT1XFE38HEW6PFT", "current_trial": 56, "dateTime": 1510772982944, "trialdata": {"rt": -1000, "stimulus": "/static/audio/wordpool/BLENDER.wav", "key_press": -1, "type": "PRES_AUD", "word": "blender", "wordID": 135, "conditions": [18, 1200, "a", 18000], "trial": 1, "serialpos": 1, "trial_type": "single-audio", "trial_index": 56, "time_elapsed": 509398, "internal_node_id": "0.0-38.0"}}, {"uniqueid": "MTK0358:3FIJLY1B6VBY1P4MT1XFE38HEW6PFT", "current_trial": 57, "dateTime": 1510772985190, "trialdata": {"rt": -1000, "stimulus": "/static/audio/wordpool/RUG.wav", "key_press": -1, "type": "PRES_AUD", "word": "rug", "wordID": 1214, "conditions": [18, 1200, "a", 18000], "trial": 1, "serialpos": 2, "trial_type": "single-audio", "trial_index": 57, "time_elapsed": 511643, "internal_node_id": "0.0-39.0"}}, {"uniqueid": "MTK0358:3FIJLY1B6VBY1P4MT1XFE38HEW6PFT", "current_trial": 58, "dateTime": 1510772987390, "trialdata": {"rt": -1000, "stimulus": "/static/audio/wordpool/HONEY.wav", "key_press": -1, "type": "PRES_AUD", "word": "honey", "wordID": 712, "conditions": [18, 1200, "a", 18000], "trial": 1, "serialpos": 3, "trial_type": "single-audio", "trial_index": 58, "time_elapsed": 513843, "internal_node_id": "0.0-40.0"}}, {"uniqueid": "MTK0358:3FIJLY1B6VBY1P4MT1XFE38HEW6PFT", "current_trial": 59, "dateTime": 1510772989698, "trialdata": {"rt": -1000, "stimulus": "/static/audio/wordpool/FRECKLE.wav", "key_press": -1, "type": "PRES_AUD", "word": "freckle", "wordID": 601, "conditions": [18, 1200, "a", 18000], "trial": 1, "serialpos": 4, "trial_type": "single-audio", "trial_index": 59, "time_elapsed": 516151, "internal_node_id": "0.0-41.0"}}, {"uniqueid": "MTK0358:3FIJLY1B6VBY1P4MT1XFE38HEW6PFT", "current_trial": 60, "dateTime": 1510772991756, "trialdata": {"rt": -1000, "stimulus": "/static/audio/wordpool/INFANT.wav", "key_press": -1, "type": "PRES_AUD", "word": "infant", "wordID": 736, "conditions": [18, 1200, "a", 18000], "trial": 1, "serialpos": 5, "trial_type": "single-audio", "trial_index": 60, "time_elapsed": 518209, "internal_node_id": "0.0-42.0"}}, {"uniqueid": "MTK0358:3FIJLY1B6VBY1P4MT1XFE38HEW6PFT", "current_trial": 61, "dateTime": 1510772994091, "trialdata": {"rt": -1000, "stimulus": "/static/audio/wordpool/CANYON.wav", "key_press": -1, "type": "PRES_AUD", "word": "canyon", "wordID": 234, "conditions": [18, 1200, "a", 18000], "trial": 1, "serialpos": 6, "trial_type": "single-audio", "trial_index": 61, "time_elapsed": 520545, "internal_node_id": "0.0-43.0"}}, {"uniqueid": "MTK0358:3FIJLY1B6VBY1P4MT1XFE38HEW6PFT", "current_trial": 62, "dateTime": 1510772996488, "trialdata": {"rt": -1000, "stimulus": "/static/audio/wordpool/STREAM.wav", "key_press": -1, "type": "PRES_AUD", "word": "stream", "wordID": 1391, "conditions": [18, 1200, "a", 18000], "trial": 1, "serialpos": 7, "trial_type": "single-audio", "trial_index": 62, "time_elapsed": 522941, "internal_node_id": "0.0-44.0"}}, {"uniqueid": "MTK0358:3FIJLY1B6VBY1P4MT1XFE38HEW6PFT", "current_trial": 63, "dateTime": 1510772998830, "trialdata": {"rt": -1000, "stimulus": "/static/audio/wordpool/SHORTCAKE.wav", "key_press": -1, "type": "PRES_AUD", "word": "shortcake", "wordID": 1291, "conditions": [18, 1200, "a", 18000], "trial": 1, "serialpos": 8, "trial_type": "single-audio", "trial_index": 63, "time_elapsed": 525284, "internal_node_id": "0.0-45.0"}}, {"uniqueid": "MTK0358:3FIJLY1B6VBY1P4MT1XFE38HEW6PFT", "current_trial": 64, "dateTime": 1510773001187, "trialdata": {"rt": -1000, "stimulus": "/static/audio/wordpool/DASHBOARD.wav", "key_press": -1, "type": "PRES_AUD", "word": "dashboard", "wordID": 440, "conditions": [18, 1200, "a", 18000], "trial": 1, "serialpos": 9, "trial_type": "single-audio", "trial_index": 64, "time_elapsed": 527641, "internal_node_id": "0.0-46.0"}}, {"uniqueid": "MTK0358:3FIJLY1B6VBY1P4MT1XFE38HEW6PFT", "current_trial": 65, "dateTime": 1510773003207, "trialdata": {"rt": -1000, "stimulus": "/static/audio/wordpool/BELLY.wav", "key_press": -1, "type": "PRES_AUD", "word": "belly", "wordID": 118, "conditions": [18, 1200, "a", 18000], "trial": 1, "serialpos": 10, "trial_type": "single-audio", "trial_index": 65, "time_elapsed": 529661, "internal_node_id": "0.0-47.0"}}, {"uniqueid": "MTK0358:3FIJLY1B6VBY1P4MT1XFE38HEW6PFT", "current_trial": 66, "dateTime": 1510773005229, "trialdata": {"rt": -1000, "stimulus": "/static/audio/wordpool/DRESSER.wav", "key_press": -1, "type": "PRES_AUD", "word": "dresser", "wordID": 495, "conditions": [18, 1200, "a", 18000], "trial": 1, "serialpos": 11, "trial_type": "single-audio", "trial_index": 66, "time_elapsed": 531683, "internal_node_id": "0.0-48.0"}}, {"uniqueid": "MTK0358:3FIJLY1B6VBY1P4MT1XFE38HEW6PFT", "current_trial": 67, "dateTime": 1510773007597, "trialdata": {"rt": -1000, "stimulus": "/static/audio/wordpool/STONE.wav", "key_press": -1, "type": "PRES_AUD", "word": "stone", "wordID": 1384, "conditions": [18, 1200, "a", 18000], "trial": 1, "serialpos": 12, "trial_type": "single-audio", "trial_index": 67, "time_elapsed": 534050, "internal_node_id": "0.0-49.0"}}, {"uniqueid": "MTK0358:3FIJLY1B6VBY1P4MT1XFE38HEW6PFT", "current_trial": 68, "dateTime": 1510773009766, "trialdata": {"rt": -1000, "stimulus": "/static/audio/wordpool/HUMAN.wav", "key_press": -1, "type": "PRES_AUD", "word": "human", "wordID": 725, "conditions": [18, 1200, "a", 18000], "trial": 1, "serialpos": 13, "trial_type": "single-audio", "trial_index": 68, "time_elapsed": 536217, "internal_node_id": "0.0-50.0"}}, {"uniqueid": "MTK0358:3FIJLY1B6VBY1P4MT1XFE38HEW6PFT", "current_trial": 69, "dateTime": 1510773012102, "trialdata": {"rt": -1000, "stimulus": "/static/audio/wordpool/BACKBONE.wav", "key_press": -1, "type": "PRES_AUD", "word": "backbone", "wordID": 65, "conditions": [18, 1200, "a", 18000], "trial": 1, "serialpos": 14, "trial_type": "single-audio", "trial_index": 69, "time_elapsed": 538556, "internal_node_id": "0.0-51.0"}}, {"uniqueid": "MTK0358:3FIJLY1B6VBY1P4MT1XFE38HEW6PFT", "current_trial": 70, "dateTime": 1510773014245, "trialdata": {"rt": -1000, "stimulus": "/static/audio/wordpool/SHELTER.wav", "key_press": -1, "type": "PRES_AUD", "word": "shelter", "wordID": 1281, "conditions": [18, 1200, "a", 18000], "trial": 1, "serialpos": 15, "trial_type": "single-audio", "trial_index": 70, "time_elapsed": 540699, "internal_node_id": "0.0-52.0"}}, {"uniqueid": "MTK0358:3FIJLY1B6VBY1P4MT1XFE38HEW6PFT", "current_trial": 71, "dateTime": 1510773016403, "trialdata": {"rt": -1000, "stimulus": "/static/audio/wordpool/FINGER.wav", "key_press": -1, "type": "PRES_AUD", "word": "finger", "wordID": 566, "conditions": [18, 1200, "a", 18000], "trial": 1, "serialpos": 16, "trial_type": "single-audio", "trial_index": 71, "time_elapsed": 542857, "internal_node_id": "0.0-53.0"}}, {"uniqueid": "MTK0358:3FIJLY1B6VBY1P4MT1XFE38HEW6PFT", "current_trial": 72, "dateTime": 1510773018706, "trialdata": {"rt": -1000, "stimulus": "/static/audio/wordpool/STAR.wav", "key_press": -1, "type": "PRES_AUD", "word": "star", "wordID": 1372, "conditions": [18, 1200, "a", 18000], "trial": 1, "serialpos": 17, "trial_type": "single-audio", "trial_index": 72, "time_elapsed": 545160, "internal_node_id": "0.0-54.0"}}, {"uniqueid": "MTK0358:3FIJLY1B6VBY1P4MT1XFE38HEW6PFT", "current_trial": 73, "dateTime": 1510773019998, "trialdata": {"rt": -1, "stimulus": "", "key_press": -1, "type": "PRE_RECALL_DELAY", "trial_type": "single-stim", "trial_index": 73, "time_elapsed": 546452, "internal_node_id": "0.0-55.0-0.0"}}, {"uniqueid": "MTK0358:3FIJLY1B6VBY1P4MT1XFE38HEW6PFT", "current_trial": 74, "dateTime": 1510773020502, "trialdata": {"rt": -1000, "stimulus": "/static/audio/400Hz.wav", "key_press": -1, "type": "PRE_RECALL_ALERT", "trial_type": "single-audio", "trial_index": 74, "time_elapsed": 546954, "internal_node_id": "0.0-56.0"}}, {"uniqueid": "MTK0358:3FIJLY1B6VBY1P4MT1XFE38HEW6PFT", "current_trial": 75, "dateTime": 1510773080511, "trialdata": {"rt": [3760, 6466, 8216, 10588, 12490, 15066, 20190, 26200, 37754], "recwords": ["kidney", "backbone", "finger", "star", "dresser", "canyon", "shortcake", "honey", "star"], "type": "FREE_RECALL", "conditions": [18, 1200, "a", 18000], "trial": 1, "trial_type": "free-recall", "trial_index": 75, "time_elapsed": 606961, "internal_node_id": "0.0-57.0-0.0"}}, {"uniqueid": "MTK0358:3FIJLY1B6VBY1P4MT1XFE38HEW6PFT", "current_trial": 76, "dateTime": 1510773085172, "trialdata": {"rt": 2651, "key_press": 32, "type": "INSTRUCTIONS", "trial_type": "text", "trial_index": 76, "time_elapsed": 611618, "internal_node_id": "0.0-58.0"}}, {"uniqueid": "MTK0358:3FIJLY1B6VBY1P4MT1XFE38HEW6PFT", "current_trial": 77, "dateTime": 1510773110177, "trialdata": {"rt": [2581, 9337, 15793, 20508], "responses": ["11", "18", "21", "16"], "num1": [1, 6, 4, 3, 5], "num2": [1, 7, 9, 9, 3], "num3": [9, 5, 8, 4, 2], "type": "DISTRACTOR", "conditions": [12, 1600, "a", 24000], "trial": 2, "trial_type": "math-distractor", "trial_index": 77, "time_elapsed": 636631, "internal_node_id": "0.0-59.0"}}, {"uniqueid": "MTK0358:3FIJLY1B6VBY1P4MT1XFE38HEW6PFT", "current_trial": 78, "dateTime": 1510773113179, "trialdata": {"rt": -1, "stimulus": "<p id=\"stim\">10</p>", "key_press": -1, "trial_type": "single-stim", "trial_index": 78, "time_elapsed": 639632, "internal_node_id": "0.0-60.0-0.0"}}, {"uniqueid": "MTK0358:3FIJLY1B6VBY1P4MT1XFE38HEW6PFT", "current_trial": 79, "dateTime": 1510773114180, "trialdata": {"rt": -1, "stimulus": "<p id=\"stim\">9</p>", "key_press": -1, "trial_type": "single-stim", "trial_index": 79, "time_elapsed": 640634, "internal_node_id": "0.0-60.0-1.0"}}, {"uniqueid": "MTK0358:3FIJLY1B6VBY1P4MT1XFE38HEW6PFT", "current_trial": 80, "dateTime": 1510773115182, "trialdata": {"rt": -1, "stimulus": "<p id=\"stim\">8</p>", "key_press": -1, "trial_type": "single-stim", "trial_index": 80, "time_elapsed": 641636, "internal_node_id": "0.0-60.0-2.0"}}, {"uniqueid": "MTK0358:3FIJLY1B6VBY1P4MT1XFE38HEW6PFT", "current_trial": 81, "dateTime": 1510773116185, "trialdata": {"rt": -1, "stimulus": "<p id=\"stim\">7</p>", "key_press": -1, "trial_type": "single-stim", "trial_index": 81, "time_elapsed": 642639, "internal_node_id": "0.0-60.0-3.0"}}, {"uniqueid": "MTK0358:3FIJLY1B6VBY1P4MT1XFE38HEW6PFT", "current_trial": 82, "dateTime": 1510773117187, "trialdata": {"rt": -1, "stimulus": "<p id=\"stim\">6</p>", "key_press": -1, "trial_type": "single-stim", "trial_index": 82, "time_elapsed": 643641, "internal_node_id": "0.0-60.0-4.0"}}, {"uniqueid": "MTK0358:3FIJLY1B6VBY1P4MT1XFE38HEW6PFT", "current_trial": 83, "dateTime": 1510773118188, "trialdata": {"rt": -1, "stimulus": "<p id=\"stim\">5</p>", "key_press": -1, "trial_type": "single-stim", "trial_index": 83, "time_elapsed": 644642, "internal_node_id": "0.0-60.0-5.0"}}, {"uniqueid": "MTK0358:3FIJLY1B6VBY1P4MT1XFE38HEW6PFT", "current_trial": 84, "dateTime": 1510773119189, "trialdata": {"rt": -1, "stimulus": "<p id=\"stim\">4</p>", "key_press": -1, "trial_type": "single-stim", "trial_index": 84, "time_elapsed": 645643, "internal_node_id": "0.0-60.0-6.0"}}, {"uniqueid": "MTK0358:3FIJLY1B6VBY1P4MT1XFE38HEW6PFT", "current_trial": 85, "dateTime": 1510773120190, "trialdata": {"rt": -1, "stimulus": "<p id=\"stim\">3</p>", "key_press": -1, "trial_type": "single-stim", "trial_index": 85, "time_elapsed": 646644, "internal_node_id": "0.0-60.0-7.0"}}, {"uniqueid": "MTK0358:3FIJLY1B6VBY1P4MT1XFE38HEW6PFT", "current_trial": 86, "dateTime": 1510773121192, "trialdata": {"rt": -1, "stimulus": "<p id=\"stim\">2</p>", "key_press": -1, "trial_type": "single-stim", "trial_index": 86, "time_elapsed": 647646, "internal_node_id": "0.0-60.0-8.0"}}, {"uniqueid": "MTK0358:3FIJLY1B6VBY1P4MT1XFE38HEW6PFT", "current_trial": 87, "dateTime": 1510773122193, "trialdata": {"rt": -1, "stimulus": "<p id=\"stim\">1</p>", "key_press": -1, "trial_type": "single-stim", "trial_index": 87, "time_elapsed": 648647, "internal_node_id": "0.0-60.0-9.0"}}, {"uniqueid": "MTK0358:3FIJLY1B6VBY1P4MT1XFE38HEW6PFT", "current_trial": 88, "dateTime": 1510773123695, "trialdata": {"rt": -1, "stimulus": "<p id=\"stim\">+</p>", "key_press": -1, "type": "FIXATION", "trial_type": "single-stim", "trial_index": 88, "time_elapsed": 650149, "internal_node_id": "0.0-61.0-0.0"}}, {"uniqueid": "MTK0358:3FIJLY1B6VBY1P4MT1XFE38HEW6PFT", "current_trial": 89, "dateTime": 1510773126458, "trialdata": {"rt": -1000, "stimulus": "/static/audio/wordpool/SALAD.wav", "key_press": -1, "type": "PRES_AUD", "word": "salad", "wordID": 1223, "conditions": [12, 1600, "a", 24000], "trial": 2, "serialpos": 0, "trial_type": "single-audio", "trial_index": 89, "time_elapsed": 652912, "internal_node_id": "0.0-62.0"}}, {"uniqueid": "MTK0358:3FIJLY1B6VBY1P4MT1XFE38HEW6PFT", "current_trial": 90, "dateTime": 1510773128883, "trialdata": {"rt": -1000, "stimulus": "/static/audio/wordpool/TOASTER.wav", "key_press": -1, "type": "PRES_AUD", "word": "toaster", "wordID": 1471, "conditions": [12, 1600, "a", 24000], "trial": 2, "serialpos": 1, "trial_type": "single-audio", "trial_index": 90, "time_elapsed": 655337, "internal_node_id": "0.0-63.0"}}, {"uniqueid": "MTK0358:3FIJLY1B6VBY1P4MT1XFE38HEW6PFT", "current_trial": 91, "dateTime": 1510773131395, "trialdata": {"rt": -1000, "stimulus": "/static/audio/wordpool/GRAPE.wav", "key_press": -1, "type": "PRES_AUD", "word": "grape", "wordID": 653, "conditions": [12, 1600, "a", 24000], "trial": 2, "serialpos": 2, "trial_type": "single-audio", "trial_index": 91, "time_elapsed": 657849, "internal_node_id": "0.0-64.0"}}, {"uniqueid": "MTK0358:3FIJLY1B6VBY1P4MT1XFE38HEW6PFT", "current_trial": 92, "dateTime": 1510773133826, "trialdata": {"rt": -1000, "stimulus": "/static/audio/wordpool/PUPPY.wav", "key_press": -1, "type": "PRES_AUD", "word": "puppy", "wordID": 1143, "conditions": [12, 1600, "a", 24000], "trial": 2, "serialpos": 3, "trial_type": "single-audio", "trial_index": 92, "time_elapsed": 660280, "internal_node_id": "0.0-65.0"}}, {"uniqueid": "MTK0358:3FIJLY1B6VBY1P4MT1XFE38HEW6PFT", "current_trial": 93, "dateTime": 1510773136526, "trialdata": {"rt": -1000, "stimulus": "/static/audio/wordpool/LAGOON.wav", "key_press": -1, "type": "PRES_AUD", "word": "lagoon", "wordID": 794, "conditions": [12, 1600, "a", 24000], "trial": 2, "serialpos": 4, "trial_type": "single-audio", "trial_index": 93, "time_elapsed": 662979, "internal_node_id": "0.0-66.0"}}, {"uniqueid": "MTK0358:3FIJLY1B6VBY1P4MT1XFE38HEW6PFT", "current_trial": 94, "dateTime": 1510773139135, "trialdata": {"rt": -1000, "stimulus": "/static/audio/wordpool/BUCKET.wav", "key_press": -1, "type": "PRES_AUD", "word": "bucket", "wordID": 183, "conditions": [12, 1600, "a", 24000], "trial": 2, "serialpos": 5, "trial_type": "single-audio", "trial_index": 94, "time_elapsed": 665589, "internal_node_id": "0.0-67.0"}}, {"uniqueid": "MTK0358:3FIJLY1B6VBY1P4MT1XFE38HEW6PFT", "current_trial": 95, "dateTime": 1510773141759, "trialdata": {"rt": -1000, "stimulus": "/static/audio/wordpool/GAVEL.wav", "key_press": -1, "type": "PRES_AUD", "word": "gavel", "wordID": 626, "conditions": [12, 1600, "a", 24000], "trial": 2, "serialpos": 6, "trial_type": "single-audio", "trial_index": 95, "time_elapsed": 668213, "internal_node_id": "0.0-68.0"}}, {"uniqueid": "MTK0358:3FIJLY1B6VBY1P4MT1XFE38HEW6PFT", "current_trial": 96, "dateTime": 1510773144203, "trialdata": {"rt": -1000, "stimulus": "/static/audio/wordpool/KITCHEN.wav", "key_press": -1, "type": "PRES_AUD", "word": "kitchen", "wordID": 777, "conditions": [12, 1600, "a", 24000], "trial": 2, "serialpos": 7, "trial_type": "single-audio", "trial_index": 96, "time_elapsed": 670657, "internal_node_id": "0.0-69.0"}}, {"uniqueid": "MTK0358:3FIJLY1B6VBY1P4MT1XFE38HEW6PFT", "current_trial": 97, "dateTime": 1510773146759, "trialdata": {"rt": -1000, "stimulus": "/static/audio/wordpool/BASEMENT.wav", "key_press": -1, "type": "PRES_AUD", "word": "basement", "wordID": 93, "conditions": [12, 1600, "a", 24000], "trial": 2, "serialpos": 8, "trial_type": "single-audio", "trial_index": 97, "time_elapsed": 673213, "internal_node_id": "0.0-70.0"}}, {"uniqueid": "MTK0358:3FIJLY1B6VBY1P4MT1XFE38HEW6PFT", "current_trial": 98, "dateTime": 1510773149545, "trialdata": {"rt": -1000, "stimulus": "/static/audio/wordpool/BARLEY.wav", "key_press": -1, "type": "PRES_AUD", "word": "barley", "wordID": 87, "conditions": [12, 1600, "a", 24000], "trial": 2, "serialpos": 9, "trial_type": "single-audio", "trial_index": 98, "time_elapsed": 675998, "internal_node_id": "0.0-71.0"}}, {"uniqueid": "MTK0358:3FIJLY1B6VBY1P4MT1XFE38HEW6PFT", "current_trial": 99, "dateTime": 1510773152282, "trialdata": {"rt": -1000, "stimulus": "/static/audio/wordpool/LAPEL.wav", "key_press": -1, "type": "PRES_AUD", "word": "lapel", "wordID": 799, "conditions": [12, 1600, "a", 24000], "trial": 2, "serialpos": 10, "trial_type": "single-audio", "trial_index": 99, "time_elapsed": 678736, "internal_node_id": "0.0-72.0"}}, {"uniqueid": "MTK0358:3FIJLY1B6VBY1P4MT1XFE38HEW6PFT", "current_trial": 100, "dateTime": 1510773154705, "trialdata": {"rt": -1000, "stimulus": "/static/audio/wordpool/COOKBOOK.wav", "key_press": -1, "type": "PRES_AUD", "word": "cookbook", "wordID": 372, "conditions": [12, 1600, "a", 24000], "trial": 2, "serialpos": 11, "trial_type": "single-audio", "trial_index": 100, "time_elapsed": 681158, "internal_node_id": "0.0-73.0"}}, {"uniqueid": "MTK0358:3FIJLY1B6VBY1P4MT1XFE38HEW6PFT", "current_trial": 101, "dateTime": 1510773156013, "trialdata": {"rt": -1, "stimulus": "", "key_press": -1, "type": "PRE_RECALL_DELAY", "trial_type": "single-stim", "trial_index": 101, "time_elapsed": 682466, "internal_node_id": "0.0-74.0-0.0"}}, {"uniqueid": "MTK0358:3FIJLY1B6VBY1P4MT1XFE38HEW6PFT", "current_trial": 102, "dateTime": 1510773156515, "trialdata": {"rt": -1000, "stimulus": "/static/audio/400Hz.wav", "key_press": -1, "type": "PRE_RECALL_ALERT", "trial_type": "single-audio", "trial_index": 102, "time_elapsed": 682969, "internal_node_id": "0.0-75.0"}}, {"uniqueid": "MTK0358:3FIJLY1B6VBY1P4MT1XFE38HEW6PFT", "current_trial": 103, "dateTime": 1510773216523, "trialdata": {"rt": [6290, 8736, 16522, 18688, 21202, 23555, 26071, 32578], "recwords": ["cookbook", "lapel", "barley", "puppy", "grape", "salad", "toaster", "bucket"], "type": "FREE_RECALL", "conditions": [12, 1600, "a", 24000], "trial": 2, "trial_type": "free-recall", "trial_index": 103, "time_elapsed": 742973, "internal_node_id": "0.0-76.0-0.0"}}, {"uniqueid": "MTK0358:3FIJLY1B6VBY1P4MT1XFE38HEW6PFT", "current_trial": 104, "dateTime": 1510773220372, "trialdata": {"rt": 1848, "key_press": 32, "type": "INSTRUCTIONS", "trial_type": "text", "trial_index": 104, "time_elapsed": 746826, "internal_node_id": "0.0-77.0"}}, {"uniqueid": "MTK0358:3FIJLY1B6VBY1P4MT1XFE38HEW6PFT", "current_trial": 105, "dateTime": 1510773246376, "trialdata": {"rt": [2856, 14697, 18080, 21495], "responses": ["17", "16", "7", "11"], "num1": [9, 4, 2, 6, 9], "num2": [1, 4, 1, 3, 6], "num3": [7, 7, 4, 2, 6], "type": "DISTRACTOR", "conditions": [12, 1600, "v", 24000], "trial": 3, "trial_type": "math-distractor", "trial_index": 105, "time_elapsed": 772830, "internal_node_id": "0.0-78.0"}}, {"uniqueid": "MTK0358:3FIJLY1B6VBY1P4MT1XFE38HEW6PFT", "current_trial": 106, "dateTime": 1510773249378, "trialdata": {"rt": -1, "stimulus": "<p id=\"stim\">10</p>", "key_press": -1, "trial_type": "single-stim", "trial_index": 106, "time_elapsed": 775832, "internal_node_id": "0.0-79.0-0.0"}}, {"uniqueid": "MTK0358:3FIJLY1B6VBY1P4MT1XFE38HEW6PFT", "current_trial": 107, "dateTime": 1510773250380, "trialdata": {"rt": -1, "stimulus": "<p id=\"stim\">9</p>", "key_press": -1, "trial_type": "single-stim", "trial_index": 107, "time_elapsed": 776834, "internal_node_id": "0.0-79.0-1.0"}}, {"uniqueid": "MTK0358:3FIJLY1B6VBY1P4MT1XFE38HEW6PFT", "current_trial": 108, "dateTime": 1510773251382, "trialdata": {"rt": -1, "stimulus": "<p id=\"stim\">8</p>", "key_press": -1, "trial_type": "single-stim", "trial_index": 108, "time_elapsed": 777836, "internal_node_id": "0.0-79.0-2.0"}}, {"uniqueid": "MTK0358:3FIJLY1B6VBY1P4MT1XFE38HEW6PFT", "current_trial": 109, "dateTime": 1510773252383, "trialdata": {"rt": -1, "stimulus": "<p id=\"stim\">7</p>", "key_press": -1, "trial_type": "single-stim", "trial_index": 109, "time_elapsed": 778837, "internal_node_id": "0.0-79.0-3.0"}}, {"uniqueid": "MTK0358:3FIJLY1B6VBY1P4MT1XFE38HEW6PFT", "current_trial": 110, "dateTime": 1510773253384, "trialdata": {"rt": -1, "stimulus": "<p id=\"stim\">6</p>", "key_press": -1, "trial_type": "single-stim", "trial_index": 110, "time_elapsed": 779838, "internal_node_id": "0.0-79.0-4.0"}}, {"uniqueid": "MTK0358:3FIJLY1B6VBY1P4MT1XFE38HEW6PFT", "current_trial": 111, "dateTime": 1510773254386, "trialdata": {"rt": -1, "stimulus": "<p id=\"stim\">5</p>", "key_press": -1, "trial_type": "single-stim", "trial_index": 111, "time_elapsed": 780840, "internal_node_id": "0.0-79.0-5.0"}}, {"uniqueid": "MTK0358:3FIJLY1B6VBY1P4MT1XFE38HEW6PFT", "current_trial": 112, "dateTime": 1510773255388, "trialdata": {"rt": -1, "stimulus": "<p id=\"stim\">4</p>", "key_press": -1, "trial_type": "single-stim", "trial_index": 112, "time_elapsed": 781842, "internal_node_id": "0.0-79.0-6.0"}}, {"uniqueid": "MTK0358:3FIJLY1B6VBY1P4MT1XFE38HEW6PFT", "current_trial": 113, "dateTime": 1510773256391, "trialdata": {"rt": -1, "stimulus": "<p id=\"stim\">3</p>", "key_press": -1, "trial_type": "single-stim", "trial_index": 113, "time_elapsed": 782845, "internal_node_id": "0.0-79.0-7.0"}}, {"uniqueid": "MTK0358:3FIJLY1B6VBY1P4MT1XFE38HEW6PFT", "current_trial": 114, "dateTime": 1510773257396, "trialdata": {"rt": -1, "stimulus": "<p id=\"stim\">2</p>", "key_press": -1, "trial_type": "single-stim", "trial_index": 114, "time_elapsed": 783847, "internal_node_id": "0.0-79.0-8.0"}}, {"uniqueid": "MTK0358:3FIJLY1B6VBY1P4MT1XFE38HEW6PFT", "current_trial": 115, "dateTime": 1510773258398, "trialdata": {"rt": -1, "stimulus": "<p id=\"stim\">1</p>", "key_press": -1, "trial_type": "single-stim", "trial_index": 115, "time_elapsed": 784852, "internal_node_id": "0.0-79.0-9.0"}}, {"uniqueid": "MTK0358:3FIJLY1B6VBY1P4MT1XFE38HEW6PFT", "current_trial": 116, "dateTime": 1510773259900, "trialdata": {"rt": -1, "stimulus": "<p id=\"stim\">+</p>", "key_press": -1, "type": "FIXATION", "trial_type": "single-stim", "trial_index": 116, "time_elapsed": 786354, "internal_node_id": "0.0-80.0-0.0"}}, {"uniqueid": "MTK0358:3FIJLY1B6VBY1P4MT1XFE38HEW6PFT", "current_trial": 117, "dateTime": 1510773261503, "trialdata": {"rt": -1, "stimulus": "<p id=\"stim\">COOK</p>", "key_press": -1, "type": "PRES_VIS", "word": "cook", "wordID": 371, "conditions": [12, 1600, "v", 24000], "trial": 3, "serialpos": 0, "trial_type": "single-stim", "trial_index": 117, "time_elapsed": 787957, "internal_node_id": "0.0-81.0"}}, {"uniqueid": "MTK0358:3FIJLY1B6VBY1P4MT1XFE38HEW6PFT", "current_trial": 118, "dateTime": 1510773264242, "trialdata": {"rt": -1, "stimulus": "<p id=\"stim\">EYELASH</p>", "key_press": -1, "type": "PRES_VIS", "word": "eyelash", "wordID": 545, "conditions": [12, 1600, "v", 24000], "trial": 3, "serialpos": 1, "trial_type": "single-stim", "trial_index": 118, "time_elapsed": 790696, "internal_node_id": "0.0-82.0"}}, {"uniqueid": "MTK0358:3FIJLY1B6VBY1P4MT1XFE38HEW6PFT", "current_trial": 119, "dateTime": 1510773266977, "trialdata": {"rt": -1, "stimulus": "<p id=\"stim\">LAVA</p>", "key_press": -1, "type": "PRES_VIS", "word": "lava", "wordID": 803, "conditions": [12, 1600, "v", 24000], "trial": 3, "serialpos": 2, "trial_type": "single-stim", "trial_index": 119, "time_elapsed": 793431, "internal_node_id": "0.0-83.0"}}, {"uniqueid": "MTK0358:3FIJLY1B6VBY1P4MT1XFE38HEW6PFT", "current_trial": 120, "dateTime": 1510773269400, "trialdata": {"rt": -1, "stimulus": "<p id=\"stim\">CRATER</p>", "key_press": -1, "type": "PRES_VIS", "word": "crater", "wordID": 399, "conditions": [12, 1600, "v", 24000], "trial": 3, "serialpos": 3, "trial_type": "single-stim", "trial_index": 120, "time_elapsed": 795854, "internal_node_id": "0.0-84.0"}}, {"uniqueid": "MTK0358:3FIJLY1B6VBY1P4MT1XFE38HEW6PFT", "current_trial": 121, "dateTime": 1510773271936, "trialdata": {"rt": -1, "stimulus": "<p id=\"stim\">HOOK</p>", "key_press": -1, "type": "PRES_VIS", "word": "hook", "wordID": 714, "conditions": [12, 1600, "v", 24000], "trial": 3, "serialpos": 4, "trial_type": "single-stim", "trial_index": 121, "time_elapsed": 798390, "internal_node_id": "0.0-85.0"}}, {"uniqueid": "MTK0358:3FIJLY1B6VBY1P4MT1XFE38HEW6PFT", "current_trial": 122, "dateTime": 1510773274563, "trialdata": {"rt": -1, "stimulus": "<p id=\"stim\">PACKAGE</p>", "key_press": -1, "type": "PRES_VIS", "word": "package", "wordID": 996, "conditions": [12, 1600, "v", 24000], "trial": 3, "serialpos": 5, "trial_type": "single-stim", "trial_index": 122, "time_elapsed": 801017, "internal_node_id": "0.0-86.0"}}, {"uniqueid": "MTK0358:3FIJLY1B6VBY1P4MT1XFE38HEW6PFT", "current_trial": 123, "dateTime": 1510773277147, "trialdata": {"rt": -1, "stimulus": "<p id=\"stim\">FLIPPER</p>", "key_press": -1, "type": "PRES_VIS", "word": "flipper", "wordID": 579, "conditions": [12, 1600, "v", 24000], "trial": 3, "serialpos": 6, "trial_type": "single-stim", "trial_index": 123, "time_elapsed": 803601, "internal_node_id": "0.0-87.0"}}, {"uniqueid": "MTK0358:3FIJLY1B6VBY1P4MT1XFE38HEW6PFT", "current_trial": 124, "dateTime": 1510773279577, "trialdata": {"rt": -1, "stimulus": "<p id=\"stim\">SCALPEL</p>", "key_press": -1, "type": "PRES_VIS", "word": "scalpel", "wordID": 1242, "conditions": [12, 1600, "v", 24000], "trial": 3, "serialpos": 7, "trial_type": "single-stim", "trial_index": 124, "time_elapsed": 806031, "internal_node_id": "0.0-88.0"}}, {"uniqueid": "MTK0358:3FIJLY1B6VBY1P4MT1XFE38HEW6PFT", "current_trial": 125, "dateTime": 1510773282092, "trialdata": {"rt": -1, "stimulus": "<p id=\"stim\">GRILL</p>", "key_press": -1, "type": "PRES_VIS", "word": "grill", "wordID": 660, "conditions": [12, 1600, "v", 24000], "trial": 3, "serialpos": 8, "trial_type": "single-stim", "trial_index": 125, "time_elapsed": 808546, "internal_node_id": "0.0-89.0"}}, {"uniqueid": "MTK0358:3FIJLY1B6VBY1P4MT1XFE38HEW6PFT", "current_trial": 126, "dateTime": 1510773284638, "trialdata": {"rt": -1, "stimulus": "<p id=\"stim\">PLAYGROUND</p>", "key_press": -1, "type": "PRES_VIS", "word": "playground", "wordID": 1086, "conditions": [12, 1600, "v", 24000], "trial": 3, "serialpos": 9, "trial_type": "single-stim", "trial_index": 126, "time_elapsed": 811092, "internal_node_id": "0.0-90.0"}}, {"uniqueid": "MTK0358:3FIJLY1B6VBY1P4MT1XFE38HEW6PFT", "current_trial": 127, "dateTime": 1510773287119, "trialdata": {"rt": -1, "stimulus": "<p id=\"stim\">SOFTBALL</p>", "key_press": -1, "type": "PRES_VIS", "word": "softball", "wordID": 1342, "conditions": [12, 1600, "v", 24000], "trial": 3, "serialpos": 10, "trial_type": "single-stim", "trial_index": 127, "time_elapsed": 813573, "internal_node_id": "0.0-91.0"}}, {"uniqueid": "MTK0358:3FIJLY1B6VBY1P4MT1XFE38HEW6PFT", "current_trial": 128, "dateTime": 1510773289847, "trialdata": {"rt": -1, "stimulus": "<p id=\"stim\">PUDDLE</p>", "key_press": -1, "type": "PRES_VIS", "word": "puddle", "wordID": 1139, "conditions": [12, 1600, "v", 24000], "trial": 3, "serialpos": 11, "trial_type": "single-stim", "trial_index": 128, "time_elapsed": 816301, "internal_node_id": "0.0-92.0"}}, {"uniqueid": "MTK0358:3FIJLY1B6VBY1P4MT1XFE38HEW6PFT", "current_trial": 129, "dateTime": 1510773292222, "trialdata": {"rt": -1, "stimulus": "", "key_press": -1, "type": "PRE_RECALL_DELAY", "trial_type": "single-stim", "trial_index": 129, "time_elapsed": 818676, "internal_node_id": "0.0-93.0-0.0"}}, {"uniqueid": "MTK0358:3FIJLY1B6VBY1P4MT1XFE38HEW6PFT", "current_trial": 130, "dateTime": 1510773292723, "trialdata": {"rt": -1000, "stimulus": "/static/audio/400Hz.wav", "key_press": -1, "type": "PRE_RECALL_ALERT", "trial_type": "single-audio", "trial_index": 130, "time_elapsed": 819177, "internal_node_id": "0.0-94.0"}}, {"uniqueid": "MTK0358:3FIJLY1B6VBY1P4MT1XFE38HEW6PFT", "current_trial": 131, "dateTime": 1510773352731, "trialdata": {"rt": [4285, 6838, 8326, 11212, 22276, 24690], "recwords": ["puddle", "playground", "hook", "scalpel", "lava", "cook"], "type": "FREE_RECALL", "conditions": [12, 1600, "v", 24000], "trial": 3, "trial_type": "free-recall", "trial_index": 131, "time_elapsed": 879181, "internal_node_id": "0.0-95.0-0.0"}}, {"uniqueid": "MTK0358:3FIJLY1B6VBY1P4MT1XFE38HEW6PFT", "current_trial": 132, "dateTime": 1510773356465, "trialdata": {"rt": 1732, "key_press": 32, "type": "INSTRUCTIONS", "trial_type": "text", "trial_index": 132, "time_elapsed": 882919, "internal_node_id": "0.0-96.0"}}, {"uniqueid": "MTK0358:3FIJLY1B6VBY1P4MT1XFE38HEW6PFT", "current_trial": 133, "dateTime": 1510773382469, "trialdata": {"rt": [4137, 12331, 16435, 21935], "responses": ["20", "18", "13", "10"], "num1": [2, 8, 6, 3, 1], "num2": [9, 6, 5, 5, 9], "num3": [9, 4, 2, 2, 3], "type": "DISTRACTOR", "conditions": [24, 800, "a", 24000], "trial": 4, "trial_type": "math-distractor", "trial_index": 133, "time_elapsed": 908923, "internal_node_id": "0.0-97.0"}}, {"uniqueid": "MTK0358:3FIJLY1B6VBY1P4MT1XFE38HEW6PFT", "current_trial": 134, "dateTime": 1510773385472, "trialdata": {"rt": -1, "stimulus": "<p id=\"stim\">10</p>", "key_press": -1, "trial_type": "single-stim", "trial_index": 134, "time_elapsed": 911926, "internal_node_id": "0.0-98.0-0.0"}}, {"uniqueid": "MTK0358:3FIJLY1B6VBY1P4MT1XFE38HEW6PFT", "current_trial": 135, "dateTime": 1510773386472, "trialdata": {"rt": -1, "stimulus": "<p id=\"stim\">9</p>", "key_press": -1, "trial_type": "single-stim", "trial_index": 135, "time_elapsed": 912926, "internal_node_id": "0.0-98.0-1.0"}}, {"uniqueid": "MTK0358:3FIJLY1B6VBY1P4MT1XFE38HEW6PFT", "current_trial": 136, "dateTime": 1510773387474, "trialdata": {"rt": -1, "stimulus": "<p id=\"stim\">8</p>", "key_press": -1, "trial_type": "single-stim", "trial_index": 136, "time_elapsed": 913928, "internal_node_id": "0.0-98.0-2.0"}}, {"uniqueid": "MTK0358:3FIJLY1B6VBY1P4MT1XFE38HEW6PFT", "current_trial": 137, "dateTime": 1510773388475, "trialdata": {"rt": -1, "stimulus": "<p id=\"stim\">7</p>", "key_press": -1, "trial_type": "single-stim", "trial_index": 137, "time_elapsed": 914929, "internal_node_id": "0.0-98.0-3.0"}}, {"uniqueid": "MTK0358:3FIJLY1B6VBY1P4MT1XFE38HEW6PFT", "current_trial": 138, "dateTime": 1510773389476, "trialdata": {"rt": -1, "stimulus": "<p id=\"stim\">6</p>", "key_press": -1, "trial_type": "single-stim", "trial_index": 138, "time_elapsed": 915930, "internal_node_id": "0.0-98.0-4.0"}}, {"uniqueid": "MTK0358:3FIJLY1B6VBY1P4MT1XFE38HEW6PFT", "current_trial": 139, "dateTime": 1510773390478, "trialdata": {"rt": -1, "stimulus": "<p id=\"stim\">5</p>", "key_press": -1, "trial_type": "single-stim", "trial_index": 139, "time_elapsed": 916932, "internal_node_id": "0.0-98.0-5.0"}}, {"uniqueid": "MTK0358:3FIJLY1B6VBY1P4MT1XFE38HEW6PFT", "current_trial": 140, "dateTime": 1510773391480, "trialdata": {"rt": -1, "stimulus": "<p id=\"stim\">4</p>", "key_press": -1, "trial_type": "single-stim", "trial_index": 140, "time_elapsed": 917933, "internal_node_id": "0.0-98.0-6.0"}}, {"uniqueid": "MTK0358:3FIJLY1B6VBY1P4MT1XFE38HEW6PFT", "current_trial": 141, "dateTime": 1510773392481, "trialdata": {"rt": -1, "stimulus": "<p id=\"stim\">3</p>", "key_press": -1, "trial_type": "single-stim", "trial_index": 141, "time_elapsed": 918935, "internal_node_id": "0.0-98.0-7.0"}}, {"uniqueid": "MTK0358:3FIJLY1B6VBY1P4MT1XFE38HEW6PFT", "current_trial": 142, "dateTime": 1510773393483, "trialdata": {"rt": -1, "stimulus": "<p id=\"stim\">2</p>", "key_press": -1, "trial_type": "single-stim", "trial_index": 142, "time_elapsed": 919937, "internal_node_id": "0.0-98.0-8.0"}}, {"uniqueid": "MTK0358:3FIJLY1B6VBY1P4MT1XFE38HEW6PFT", "current_trial": 143, "dateTime": 1510773394484, "trialdata": {"rt": -1, "stimulus": "<p id=\"stim\">1</p>", "key_press": -1, "trial_type": "single-stim", "trial_index": 143, "time_elapsed": 920938, "internal_node_id": "0.0-98.0-9.0"}}, {"uniqueid": "MTK0358:3FIJLY1B6VBY1P4MT1XFE38HEW6PFT", "current_trial": 144, "dateTime": 1510773395986, "trialdata": {"rt": -1, "stimulus": "<p id=\"stim\">+</p>", "key_press": -1, "type": "FIXATION", "trial_type": "single-stim", "trial_index": 144, "time_elapsed": 922439, "internal_node_id": "0.0-99.0-0.0"}}, {"uniqueid": "MTK0358:3FIJLY1B6VBY1P4MT1XFE38HEW6PFT", "current_trial": 145, "dateTime": 1510773397693, "trialdata": {"rt": -1000, "stimulus": "/static/audio/wordpool/OUTFIT.wav", "key_press": -1, "type": "PRES_AUD", "word": "outfit", "wordID": 987, "conditions": [24, 800, "a", 24000], "trial": 4, "serialpos": 0, "trial_type": "single-audio", "trial_index": 145, "time_elapsed": 924146, "internal_node_id": "0.0-100.0"}}, {"uniqueid": "MTK0358:3FIJLY1B6VBY1P4MT1XFE38HEW6PFT", "current_trial": 146, "dateTime": 1510773399632, "trialdata": {"rt": -1000, "stimulus": "/static/audio/wordpool/PEPPER.wav", "key_press": -1, "type": "PRES_AUD", "word": "pepper", "wordID": 1046, "conditions": [24, 800, "a", 24000], "trial": 4, "serialpos": 1, "trial_type": "single-audio", "trial_index": 146, "time_elapsed": 926086, "internal_node_id": "0.0-101.0"}}, {"uniqueid": "MTK0358:3FIJLY1B6VBY1P4MT1XFE38HEW6PFT", "current_trial": 147, "dateTime": 1510773401477, "trialdata": {"rt": -1000, "stimulus": "/static/audio/wordpool/PISTOL.wav", "key_press": -1, "type": "PRES_AUD", "word": "pistol", "wordID": 1074, "conditions": [24, 800, "a", 24000], "trial": 4, "serialpos": 2, "trial_type": "single-audio", "trial_index": 147, "time_elapsed": 927930, "internal_node_id": "0.0-102.0"}}, {"uniqueid": "MTK0358:3FIJLY1B6VBY1P4MT1XFE38HEW6PFT", "current_trial": 148, "dateTime": 1510773403233, "trialdata": {"rt": -1000, "stimulus": "/static/audio/wordpool/SLUG.wav", "key_press": -1, "type": "PRES_AUD", "word": "slug", "wordID": 1328, "conditions": [24, 800, "a", 24000], "trial": 4, "serialpos": 3, "trial_type": "single-audio", "trial_index": 148, "time_elapsed": 929686, "internal_node_id": "0.0-103.0"}}, {"uniqueid": "MTK0358:3FIJLY1B6VBY1P4MT1XFE38HEW6PFT", "current_trial": 149, "dateTime": 1510773404948, "trialdata": {"rt": -1000, "stimulus": "/static/audio/wordpool/PLUTO.wav", "key_press": -1, "type": "PRES_AUD", "word": "pluto", "wordID": 1091, "conditions": [24, 800, "a", 24000], "trial": 4, "serialpos": 4, "trial_type": "single-audio", "trial_index": 149, "time_elapsed": 931401, "internal_node_id": "0.0-104.0"}}, {"uniqueid": "MTK0358:3FIJLY1B6VBY1P4MT1XFE38HEW6PFT", "current_trial": 150, "dateTime": 1510773406700, "trialdata": {"rt": -1000, "stimulus": "/static/audio/wordpool/SUMMIT.wav", "key_press": -1, "type": "PRES_AUD", "word": "summit", "wordID": 1404, "conditions": [24, 800, "a", 24000], "trial": 4, "serialpos": 5, "trial_type": "single-audio", "trial_index": 150, "time_elapsed": 933154, "internal_node_id": "0.0-105.0"}}, {"uniqueid": "MTK0358:3FIJLY1B6VBY1P4MT1XFE38HEW6PFT", "current_trial": 151, "dateTime": 1510773408330, "trialdata": {"rt": -1000, "stimulus": "/static/audio/wordpool/ROCKET.wav", "key_press": -1, "type": "PRES_AUD", "word": "rocket", "wordID": 1201, "conditions": [24, 800, "a", 24000], "trial": 4, "serialpos": 6, "trial_type": "single-audio", "trial_index": 151, "time_elapsed": 934783, "internal_node_id": "0.0-106.0"}}, {"uniqueid": "MTK0358:3FIJLY1B6VBY1P4MT1XFE38HEW6PFT", "current_trial": 152, "dateTime": 1510773410215, "trialdata": {"rt": -1000, "stimulus": "/static/audio/wordpool/MISSILE.wav", "key_press": -1, "type": "PRES_AUD", "word": "missile", "wordID": 899, "conditions": [24, 800, "a", 24000], "trial": 4, "serialpos": 7, "trial_type": "single-audio", "trial_index": 152, "time_elapsed": 936669, "internal_node_id": "0.0-107.0"}}, {"uniqueid": "MTK0358:3FIJLY1B6VBY1P4MT1XFE38HEW6PFT", "current_trial": 153, "dateTime": 1510773412033, "trialdata": {"rt": -1000, "stimulus": "/static/audio/wordpool/PARSLEY.wav", "key_press": -1, "type": "PRES_AUD", "word": "parsley", "wordID": 1015, "conditions": [24, 800, "a", 24000], "trial": 4, "serialpos": 8, "trial_type": "single-audio", "trial_index": 153, "time_elapsed": 938486, "internal_node_id": "0.0-108.0"}}, {"uniqueid": "MTK0358:3FIJLY1B6VBY1P4MT1XFE38HEW6PFT", "current_trial": 154, "dateTime": 1510773413733, "trialdata": {"rt": -1000, "stimulus": "/static/audio/wordpool/WORLD.wav", "key_press": -1, "type": "PRES_AUD", "word": "world", "wordID": 1621, "conditions": [24, 800, "a", 24000], "trial": 4, "serialpos": 9, "trial_type": "single-audio", "trial_index": 154, "time_elapsed": 940187, "internal_node_id": "0.0-109.0"}}, {"uniqueid": "MTK0358:3FIJLY1B6VBY1P4MT1XFE38HEW6PFT", "current_trial": 155, "dateTime": 1510773415574, "trialdata": {"rt": -1000, "stimulus": "/static/audio/wordpool/OMELET.wav", "key_press": -1, "type": "PRES_AUD", "word": "omelet", "wordID": 975, "conditions": [24, 800, "a", 24000], "trial": 4, "serialpos": 10, "trial_type": "single-audio", "trial_index": 155, "time_elapsed": 942027, "internal_node_id": "0.0-110.0"}}, {"uniqueid": "MTK0358:3FIJLY1B6VBY1P4MT1XFE38HEW6PFT", "current_trial": 156, "dateTime": 1510773417553, "trialdata": {"rt": -1000, "stimulus": "/static/audio/wordpool/TABLET.wav", "key_press": -1, "type": "PRES_AUD", "word": "tablet", "wordID": 1426, "conditions": [24, 800, "a", 24000], "trial": 4, "serialpos": 11, "trial_type": "single-audio", "trial_index": 156, "time_elapsed": 944007, "internal_node_id": "0.0-111.0"}}, {"uniqueid": "MTK0358:3FIJLY1B6VBY1P4MT1XFE38HEW6PFT", "current_trial": 157, "dateTime": 1510773419167, "trialdata": {"rt": -1000, "stimulus": "/static/audio/wordpool/SHARK.wav", "key_press": -1, "type": "PRES_AUD", "word": "shark", "wordID": 1274, "conditions": [24, 800, "a", 24000], "trial": 4, "serialpos": 12, "trial_type": "single-audio", "trial_index": 157, "time_elapsed": 945621, "internal_node_id": "0.0-112.0"}}, {"uniqueid": "MTK0358:3FIJLY1B6VBY1P4MT1XFE38HEW6PFT", "current_trial": 158, "dateTime": 1510773420828, "trialdata": {"rt": -1000, "stimulus": "/static/audio/wordpool/TWIG.wav", "key_press": -1, "type": "PRES_AUD", "word": "twig", "wordID": 1526, "conditions": [24, 800, "a", 24000], "trial": 4, "serialpos": 13, "trial_type": "single-audio", "trial_index": 158, "time_elapsed": 947282, "internal_node_id": "0.0-113.0"}}, {"uniqueid": "MTK0358:3FIJLY1B6VBY1P4MT1XFE38HEW6PFT", "current_trial": 159, "dateTime": 1510773422714, "trialdata": {"rt": -1000, "stimulus": "/static/audio/wordpool/SUBWAY.wav", "key_press": -1, "type": "PRES_AUD", "word": "subway", "wordID": 1399, "conditions": [24, 800, "a", 24000], "trial": 4, "serialpos": 14, "trial_type": "single-audio", "trial_index": 159, "time_elapsed": 949168, "internal_node_id": "0.0-114.0"}}, {"uniqueid": "MTK0358:3FIJLY1B6VBY1P4MT1XFE38HEW6PFT", "current_trial": 160, "dateTime": 1510773424509, "trialdata": {"rt": -1000, "stimulus": "/static/audio/wordpool/PLIERS.wav", "key_press": -1, "type": "PRES_AUD", "word": "pliers", "wordID": 1088, "conditions": [24, 800, "a", 24000], "trial": 4, "serialpos": 15, "trial_type": "single-audio", "trial_index": 160, "time_elapsed": 950963, "internal_node_id": "0.0-115.0"}}, {"uniqueid": "MTK0358:3FIJLY1B6VBY1P4MT1XFE38HEW6PFT", "current_trial": 161, "dateTime": 1510773426465, "trialdata": {"rt": -1000, "stimulus": "/static/audio/wordpool/BRACES.wav", "key_press": -1, "type": "PRES_AUD", "word": "braces", "wordID": 163, "conditions": [24, 800, "a", 24000], "trial": 4, "serialpos": 16, "trial_type": "single-audio", "trial_index": 161, "time_elapsed": 952919, "internal_node_id": "0.0-116.0"}}, {"uniqueid": "MTK0358:3FIJLY1B6VBY1P4MT1XFE38HEW6PFT", "current_trial": 162, "dateTime": 1510773428191, "trialdata": {"rt": -1000, "stimulus": "/static/audio/wordpool/MAMMAL.wav", "key_press": -1, "type": "PRES_AUD", "word": "mammal", "wordID": 860, "conditions": [24, 800, "a", 24000], "trial": 4, "serialpos": 17, "trial_type": "single-audio", "trial_index": 162, "time_elapsed": 954645, "internal_node_id": "0.0-117.0"}}, {"uniqueid": "MTK0358:3FIJLY1B6VBY1P4MT1XFE38HEW6PFT", "current_trial": 163, "dateTime": 1510773430091, "trialdata": {"rt": -1000, "stimulus": "/static/audio/wordpool/FRUIT.wav", "key_press": -1, "type": "PRES_AUD", "word": "fruit", "wordID": 609, "conditions": [24, 800, "a", 24000], "trial": 4, "serialpos": 18, "trial_type": "single-audio", "trial_index": 163, "time_elapsed": 956545, "internal_node_id": "0.0-118.0"}}, {"uniqueid": "MTK0358:3FIJLY1B6VBY1P4MT1XFE38HEW6PFT", "current_trial": 164, "dateTime": 1510773432042, "trialdata": {"rt": -1000, "stimulus": "/static/audio/wordpool/TOMBSTONE.wav", "key_press": -1, "type": "PRES_AUD", "word": "tombstone", "wordID": 1477, "conditions": [24, 800, "a", 24000], "trial": 4, "serialpos": 19, "trial_type": "single-audio", "trial_index": 164, "time_elapsed": 958496, "internal_node_id": "0.0-119.0"}}, {"uniqueid": "MTK0358:3FIJLY1B6VBY1P4MT1XFE38HEW6PFT", "current_trial": 165, "dateTime": 1510773433984, "trialdata": {"rt": -1000, "stimulus": "/static/audio/wordpool/CASKET.wav", "key_press": -1, "type": "PRES_AUD", "word": "casket", "wordID": 254, "conditions": [24, 800, "a", 24000], "trial": 4, "serialpos": 20, "trial_type": "single-audio", "trial_index": 165, "time_elapsed": 960438, "internal_node_id": "0.0-120.0"}}, {"uniqueid": "MTK0358:3FIJLY1B6VBY1P4MT1XFE38HEW6PFT", "current_trial": 166, "dateTime": 1510773435716, "trialdata": {"rt": -1000, "stimulus": "/static/audio/wordpool/LUMBER.wav", "key_press": -1, "type": "PRES_AUD", "word": "lumber", "wordID": 847, "conditions": [24, 800, "a", 24000], "trial": 4, "serialpos": 21, "trial_type": "single-audio", "trial_index": 166, "time_elapsed": 962170, "internal_node_id": "0.0-121.0"}}, {"uniqueid": "MTK0358:3FIJLY1B6VBY1P4MT1XFE38HEW6PFT", "current_trial": 167, "dateTime": 1510773437698, "trialdata": {"rt": -1000, "stimulus": "/static/audio/wordpool/COTTAGE.wav", "key_press": -1, "type": "PRES_AUD", "word": "cottage", "wordID": 383, "conditions": [24, 800, "a", 24000], "trial": 4, "serialpos": 22, "trial_type": "single-audio", "trial_index": 167, "time_elapsed": 964151, "internal_node_id": "0.0-122.0"}}, {"uniqueid": "MTK0358:3FIJLY1B6VBY1P4MT1XFE38HEW6PFT", "current_trial": 168, "dateTime": 1510773439443, "trialdata": {"rt": -1000, "stimulus": "/static/audio/wordpool/HORNET.wav", "key_press": -1, "type": "PRES_AUD", "word": "hornet", "wordID": 717, "conditions": [24, 800, "a", 24000], "trial": 4, "serialpos": 23, "trial_type": "single-audio", "trial_index": 168, "time_elapsed": 965897, "internal_node_id": "0.0-123.0"}}, {"uniqueid": "MTK0358:3FIJLY1B6VBY1P4MT1XFE38HEW6PFT", "current_trial": 169, "dateTime": 1510773440741, "trialdata": {"rt": -1, "stimulus": "", "key_press": -1, "type": "PRE_RECALL_DELAY", "trial_type": "single-stim", "trial_index": 169, "time_elapsed": 967192, "internal_node_id": "0.0-124.0-0.0"}}, {"uniqueid": "MTK0358:3FIJLY1B6VBY1P4MT1XFE38HEW6PFT", "current_trial": 170, "dateTime": 1510773441243, "trialdata": {"rt": -1000, "stimulus": "/static/audio/400Hz.wav", "key_press": -1, "type": "PRE_RECALL_ALERT", "trial_type": "single-audio", "trial_index": 170, "time_elapsed": 967696, "internal_node_id": "0.0-125.0"}}, {"uniqueid": "MTK0358:3FIJLY1B6VBY1P4MT1XFE38HEW6PFT", "current_trial": 171, "dateTime": 1510773501252, "trialdata": {"rt": [3749, 5406, 7665, 13018, 16329, 18617, 24895, 26728, 33124], "recwords": ["hornet", "cottage", "lumber", "braces", "pliers", "twig", "tombstone", "casket", "hornet"], "type": "FREE_RECALL", "conditions": [24, 800, "a", 24000], "trial": 4, "trial_type": "free-recall", "trial_index": 171, "time_elapsed": 1027702, "internal_node_id": "0.0-126.0-0.0"}}, {"uniqueid": "MTK0358:3FIJLY1B6VBY1P4MT1XFE38HEW6PFT", "current_trial": 172, "dateTime": 1510773509256, "trialdata": {"rt": 6002, "key_press": 32, "type": "INSTRUCTIONS", "trial_type": "text", "trial_index": 172, "time_elapsed": 1035710, "internal_node_id": "0.0-127.0"}}, {"uniqueid": "MTK0358:3FIJLY1B6VBY1P4MT1XFE38HEW6PFT", "current_trial": 173, "dateTime": 1510773523259, "trialdata": {"rt": [2848, 7601], "responses": ["14", "19"], "num1": [5, 9, 5], "num2": [4, 4, 4], "num3": [5, 6, 3], "type": "DISTRACTOR", "conditions": [12, 800, "v", 12000], "trial": 5, "trial_type": "math-distractor", "trial_index": 173, "time_elapsed": 1049713, "internal_node_id": "0.0-128.0"}}, {"uniqueid": "MTK0358:3FIJLY1B6VBY1P4MT1XFE38HEW6PFT", "current_trial": 174, "dateTime": 1510773526261, "trialdata": {"rt": -1, "stimulus": "<p id=\"stim\">10</p>", "key_press": -1, "trial_type": "single-stim", "trial_index": 174, "time_elapsed": 1052715, "internal_node_id": "0.0-129.0-0.0"}}, {"uniqueid": "MTK0358:3FIJLY1B6VBY1P4MT1XFE38HEW6PFT", "current_trial": 175, "dateTime": 1510773527263, "trialdata": {"rt": -1, "stimulus": "<p id=\"stim\">9</p>", "key_press": -1, "trial_type": "single-stim", "trial_index": 175, "time_elapsed": 1053717, "internal_node_id": "0.0-129.0-1.0"}}, {"uniqueid": "MTK0358:3FIJLY1B6VBY1P4MT1XFE38HEW6PFT", "current_trial": 176, "dateTime": 1510773528265, "trialdata": {"rt": -1, "stimulus": "<p id=\"stim\">8</p>", "key_press": -1, "trial_type": "single-stim", "trial_index": 176, "time_elapsed": 1054719, "internal_node_id": "0.0-129.0-2.0"}}, {"uniqueid": "MTK0358:3FIJLY1B6VBY1P4MT1XFE38HEW6PFT", "current_trial": 177, "dateTime": 1510773529266, "trialdata": {"rt": -1, "stimulus": "<p id=\"stim\">7</p>", "key_press": -1, "trial_type": "single-stim", "trial_index": 177, "time_elapsed": 1055720, "internal_node_id": "0.0-129.0-3.0"}}, {"uniqueid": "MTK0358:3FIJLY1B6VBY1P4MT1XFE38HEW6PFT", "current_trial": 178, "dateTime": 1510773530268, "trialdata": {"rt": -1, "stimulus": "<p id=\"stim\">6</p>", "key_press": -1, "trial_type": "single-stim", "trial_index": 178, "time_elapsed": 1056722, "internal_node_id": "0.0-129.0-4.0"}}, {"uniqueid": "MTK0358:3FIJLY1B6VBY1P4MT1XFE38HEW6PFT", "current_trial": 179, "dateTime": 1510773531270, "trialdata": {"rt": -1, "stimulus": "<p id=\"stim\">5</p>", "key_press": -1, "trial_type": "single-stim", "trial_index": 179, "time_elapsed": 1057724, "internal_node_id": "0.0-129.0-5.0"}}, {"uniqueid": "MTK0358:3FIJLY1B6VBY1P4MT1XFE38HEW6PFT", "current_trial": 180, "dateTime": 1510773532272, "trialdata": {"rt": -1, "stimulus": "<p id=\"stim\">4</p>", "key_press": -1, "trial_type": "single-stim", "trial_index": 180, "time_elapsed": 1058726, "internal_node_id": "0.0-129.0-6.0"}}, {"uniqueid": "MTK0358:3FIJLY1B6VBY1P4MT1XFE38HEW6PFT", "current_trial": 181, "dateTime": 1510773533273, "trialdata": {"rt": -1, "stimulus": "<p id=\"stim\">3</p>", "key_press": -1, "trial_type": "single-stim", "trial_index": 181, "time_elapsed": 1059727, "internal_node_id": "0.0-129.0-7.0"}}, {"uniqueid": "MTK0358:3FIJLY1B6VBY1P4MT1XFE38HEW6PFT", "current_trial": 182, "dateTime": 1510773534274, "trialdata": {"rt": -1, "stimulus": "<p id=\"stim\">2</p>", "key_press": -1, "trial_type": "single-stim", "trial_index": 182, "time_elapsed": 1060728, "internal_node_id": "0.0-129.0-8.0"}}, {"uniqueid": "MTK0358:3FIJLY1B6VBY1P4MT1XFE38HEW6PFT", "current_trial": 183, "dateTime": 1510773535275, "trialdata": {"rt": -1, "stimulus": "<p id=\"stim\">1</p>", "key_press": -1, "trial_type": "single-stim", "trial_index": 183, "time_elapsed": 1061729, "internal_node_id": "0.0-129.0-9.0"}}, {"uniqueid": "MTK0358:3FIJLY1B6VBY1P4MT1XFE38HEW6PFT", "current_trial": 184, "dateTime": 1510773536777, "trialdata": {"rt": -1, "stimulus": "<p id=\"stim\">+</p>", "key_press": -1, "type": "FIXATION", "trial_type": "single-stim", "trial_index": 184, "time_elapsed": 1063231, "internal_node_id": "0.0-130.0-0.0"}}, {"uniqueid": "MTK0358:3FIJLY1B6VBY1P4MT1XFE38HEW6PFT", "current_trial": 185, "dateTime": 1510773537579, "trialdata": {"rt": -1, "stimulus": "<p id=\"stim\">ZIPPER</p>", "key_press": -1, "type": "PRES_VIS", "word": "zipper", "wordID": 1635, "conditions": [12, 800, "v", 12000], "trial": 5, "serialpos": 0, "trial_type": "single-stim", "trial_index": 185, "time_elapsed": 1064033, "internal_node_id": "0.0-131.0"}}, {"uniqueid": "MTK0358:3FIJLY1B6VBY1P4MT1XFE38HEW6PFT", "current_trial": 186, "dateTime": 1510773539425, "trialdata": {"rt": -1, "stimulus": "<p id=\"stim\">LONDON</p>", "key_press": -1, "type": "PRES_VIS", "word": "london", "wordID": 842, "conditions": [12, 800, "v", 12000], "trial": 5, "serialpos": 1, "trial_type": "single-stim", "trial_index": 186, "time_elapsed": 1065879, "internal_node_id": "0.0-132.0"}}, {"uniqueid": "MTK0358:3FIJLY1B6VBY1P4MT1XFE38HEW6PFT", "current_trial": 187, "dateTime": 1510773541127, "trialdata": {"rt": -1, "stimulus": "<p id=\"stim\">GLOVE</p>", "key_press": -1, "type": "PRES_VIS", "word": "glove", "wordID": 641, "conditions": [12, 800, "v", 12000], "trial": 5, "serialpos": 2, "trial_type": "single-stim", "trial_index": 187, "time_elapsed": 1067581, "internal_node_id": "0.0-133.0"}}, {"uniqueid": "MTK0358:3FIJLY1B6VBY1P4MT1XFE38HEW6PFT", "current_trial": 188, "dateTime": 1510773542777, "trialdata": {"rt": -1, "stimulus": "<p id=\"stim\">UNCLE</p>", "key_press": -1, "type": "PRES_VIS", "word": "uncle", "wordID": 1535, "conditions": [12, 800, "v", 12000], "trial": 5, "serialpos": 3, "trial_type": "single-stim", "trial_index": 188, "time_elapsed": 1069231, "internal_node_id": "0.0-134.0"}}, {"uniqueid": "MTK0358:3FIJLY1B6VBY1P4MT1XFE38HEW6PFT", "current_trial": 189, "dateTime": 1510773544492, "trialdata": {"rt": -1, "stimulus": "<p id=\"stim\">CONVICT</p>", "key_press": -1, "type": "PRES_VIS", "word": "convict", "wordID": 370, "conditions": [12, 800, "v", 12000], "trial": 5, "serialpos": 4, "trial_type": "single-stim", "trial_index": 189, "time_elapsed": 1070946, "internal_node_id": "0.0-135.0"}}, {"uniqueid": "MTK0358:3FIJLY1B6VBY1P4MT1XFE38HEW6PFT", "current_trial": 190, "dateTime": 1510773546120, "trialdata": {"rt": -1, "stimulus": "<p id=\"stim\">SPHINX</p>", "key_press": -1, "type": "PRES_VIS", "word": "sphinx", "wordID": 1348, "conditions": [12, 800, "v", 12000], "trial": 5, "serialpos": 5, "trial_type": "single-stim", "trial_index": 190, "time_elapsed": 1072574, "internal_node_id": "0.0-136.0"}}, {"uniqueid": "MTK0358:3FIJLY1B6VBY1P4MT1XFE38HEW6PFT", "current_trial": 191, "dateTime": 1510773548048, "trialdata": {"rt": -1, "stimulus": "<p id=\"stim\">SIDEWALK</p>", "key_press": -1, "type": "PRES_VIS", "word": "sidewalk", "wordID": 1302, "conditions": [12, 800, "v", 12000], "trial": 5, "serialpos": 6, "trial_type": "single-stim", "trial_index": 191, "time_elapsed": 1074502, "internal_node_id": "0.0-137.0"}}, {"uniqueid": "MTK0358:3FIJLY1B6VBY1P4MT1XFE38HEW6PFT", "current_trial": 192, "dateTime": 1510773549704, "trialdata": {"rt": -1, "stimulus": "<p id=\"stim\">TURNIP</p>", "key_press": -1, "type": "PRES_VIS", "word": "turnip", "wordID": 1520, "conditions": [12, 800, "v", 12000], "trial": 5, "serialpos": 7, "trial_type": "single-stim", "trial_index": 192, "time_elapsed": 1076158, "internal_node_id": "0.0-138.0"}}, {"uniqueid": "MTK0358:3FIJLY1B6VBY1P4MT1XFE38HEW6PFT", "current_trial": 193, "dateTime": 1510773551412, "trialdata": {"rt": -1, "stimulus": "<p id=\"stim\">CABBAGE</p>", "key_press": -1, "type": "PRES_VIS", "word": "cabbage", "wordID": 209, "conditions": [12, 800, "v", 12000], "trial": 5, "serialpos": 8, "trial_type": "single-stim", "trial_index": 193, "time_elapsed": 1077866, "internal_node_id": "0.0-139.0"}}, {"uniqueid": "MTK0358:3FIJLY1B6VBY1P4MT1XFE38HEW6PFT", "current_trial": 194, "dateTime": 1510773553351, "trialdata": {"rt": -1, "stimulus": "<p id=\"stim\">BRIEFCASE</p>", "key_press": -1, "type": "PRES_VIS", "word": "briefcase", "wordID": 174, "conditions": [12, 800, "v", 12000], "trial": 5, "serialpos": 9, "trial_type": "single-stim", "trial_index": 194, "time_elapsed": 1079805, "internal_node_id": "0.0-140.0"}}, {"uniqueid": "MTK0358:3FIJLY1B6VBY1P4MT1XFE38HEW6PFT", "current_trial": 195, "dateTime": 1510773555228, "trialdata": {"rt": -1, "stimulus": "<p id=\"stim\">TERMITE</p>", "key_press": -1, "type": "PRES_VIS", "word": "termite", "wordID": 1450, "conditions": [12, 800, "v", 12000], "trial": 5, "serialpos": 10, "trial_type": "single-stim", "trial_index": 195, "time_elapsed": 1081682, "internal_node_id": "0.0-141.0"}}, {"uniqueid": "MTK0358:3FIJLY1B6VBY1P4MT1XFE38HEW6PFT", "current_trial": 196, "dateTime": 1510773556930, "trialdata": {"rt": -1, "stimulus": "<p id=\"stim\">PLAZA</p>", "key_press": -1, "type": "PRES_VIS", "word": "plaza", "wordID": 1087, "conditions": [12, 800, "v", 12000], "trial": 5, "serialpos": 11, "trial_type": "single-stim", "trial_index": 196, "time_elapsed": 1083384, "internal_node_id": "0.0-142.0"}}, {"uniqueid": "MTK0358:3FIJLY1B6VBY1P4MT1XFE38HEW6PFT", "current_trial": 197, "dateTime": 1510773559325, "trialdata": {"rt": -1, "stimulus": "", "key_press": -1, "type": "PRE_RECALL_DELAY", "trial_type": "single-stim", "trial_index": 197, "time_elapsed": 1085779, "internal_node_id": "0.0-143.0-0.0"}}, {"uniqueid": "MTK0358:3FIJLY1B6VBY1P4MT1XFE38HEW6PFT", "current_trial": 198, "dateTime": 1510773559826, "trialdata": {"rt": -1000, "stimulus": "/static/audio/400Hz.wav", "key_press": -1, "type": "PRE_RECALL_ALERT", "trial_type": "single-audio", "trial_index": 198, "time_elapsed": 1086280, "internal_node_id": "0.0-144.0"}}, {"uniqueid": "MTK0358:3FIJLY1B6VBY1P4MT1XFE38HEW6PFT", "current_trial": 199, "dateTime": 1510773619839, "trialdata": {"rt": [2758, 5522, 8601, 10926, 18509, 38709], "recwords": ["plaza", "briefcase", "turnip", "cabbage", "sphinx", "pizza"], "type": "FREE_RECALL", "conditions": [12, 800, "v", 12000], "trial": 5, "trial_type": "free-recall", "trial_index": 199, "time_elapsed": 1146285, "internal_node_id": "0.0-145.0-0.0"}}, {"uniqueid": "MTK0358:3FIJLY1B6VBY1P4MT1XFE38HEW6PFT", "current_trial": 200, "dateTime": 1510773626685, "trialdata": {"rt": 4845, "key_press": 32, "type": "INSTRUCTIONS", "trial_type": "text", "trial_index": 200, "time_elapsed": 1153139, "internal_node_id": "0.0-146.0"}}, {"uniqueid": "MTK0358:3FIJLY1B6VBY1P4MT1XFE38HEW6PFT", "current_trial": 201, "dateTime": 1510773640691, "trialdata": {"rt": [4426, 8710], "responses": ["17", "20"], "num1": [2, 9, 7], "num2": [7, 3, 8], "num3": [8, 8, 3], "type": "DISTRACTOR", "conditions": [24, 1600, "v", 12000], "trial": 6, "trial_type": "math-distractor", "trial_index": 201, "time_elapsed": 1167144, "internal_node_id": "0.0-147.0"}}, {"uniqueid": "MTK0358:3FIJLY1B6VBY1P4MT1XFE38HEW6PFT", "current_trial": 202, "dateTime": 1510773643695, "trialdata": {"rt": -1, "stimulus": "<p id=\"stim\">10</p>", "key_press": -1, "trial_type": "single-stim", "trial_index": 202, "time_elapsed": 1170149, "internal_node_id": "0.0-148.0-0.0"}}, {"uniqueid": "MTK0358:3FIJLY1B6VBY1P4MT1XFE38HEW6PFT", "current_trial": 203, "dateTime": 1510773644696, "trialdata": {"rt": -1, "stimulus": "<p id=\"stim\">9</p>", "key_press": -1, "trial_type": "single-stim", "trial_index": 203, "time_elapsed": 1171150, "internal_node_id": "0.0-148.0-1.0"}}, {"uniqueid": "MTK0358:3FIJLY1B6VBY1P4MT1XFE38HEW6PFT", "current_trial": 204, "dateTime": 1510773645698, "trialdata": {"rt": -1, "stimulus": "<p id=\"stim\">8</p>", "key_press": -1, "trial_type": "single-stim", "trial_index": 204, "time_elapsed": 1172152, "internal_node_id": "0.0-148.0-2.0"}}, {"uniqueid": "MTK0358:3FIJLY1B6VBY1P4MT1XFE38HEW6PFT", "current_trial": 205, "dateTime": 1510773646700, "trialdata": {"rt": -1, "stimulus": "<p id=\"stim\">7</p>", "key_press": -1, "trial_type": "single-stim", "trial_index": 205, "time_elapsed": 1173154, "internal_node_id": "0.0-148.0-3.0"}}, {"uniqueid": "MTK0358:3FIJLY1B6VBY1P4MT1XFE38HEW6PFT", "current_trial": 206, "dateTime": 1510773647700, "trialdata": {"rt": -1, "stimulus": "<p id=\"stim\">6</p>", "key_press": -1, "trial_type": "single-stim", "trial_index": 206, "time_elapsed": 1174154, "internal_node_id": "0.0-148.0-4.0"}}, {"uniqueid": "MTK0358:3FIJLY1B6VBY1P4MT1XFE38HEW6PFT", "current_trial": 207, "dateTime": 1510773648702, "trialdata": {"rt": -1, "stimulus": "<p id=\"stim\">5</p>", "key_press": -1, "trial_type": "single-stim", "trial_index": 207, "time_elapsed": 1175156, "internal_node_id": "0.0-148.0-5.0"}}, {"uniqueid": "MTK0358:3FIJLY1B6VBY1P4MT1XFE38HEW6PFT", "current_trial": 208, "dateTime": 1510773649702, "trialdata": {"rt": -1, "stimulus": "<p id=\"stim\">4</p>", "key_press": -1, "trial_type": "single-stim", "trial_index": 208, "time_elapsed": 1176156, "internal_node_id": "0.0-148.0-6.0"}}, {"uniqueid": "MTK0358:3FIJLY1B6VBY1P4MT1XFE38HEW6PFT", "current_trial": 209, "dateTime": 1510773650703, "trialdata": {"rt": -1, "stimulus": "<p id=\"stim\">3</p>", "key_press": -1, "trial_type": "single-stim", "trial_index": 209, "time_elapsed": 1177156, "internal_node_id": "0.0-148.0-7.0"}}, {"uniqueid": "MTK0358:3FIJLY1B6VBY1P4MT1XFE38HEW6PFT", "current_trial": 210, "dateTime": 1510773651705, "trialdata": {"rt": -1, "stimulus": "<p id=\"stim\">2</p>", "key_press": -1, "trial_type": "single-stim", "trial_index": 210, "time_elapsed": 1178159, "internal_node_id": "0.0-148.0-8.0"}}, {"uniqueid": "MTK0358:3FIJLY1B6VBY1P4MT1XFE38HEW6PFT", "current_trial": 211, "dateTime": 1510773652706, "trialdata": {"rt": -1, "stimulus": "<p id=\"stim\">1</p>", "key_press": -1, "trial_type": "single-stim", "trial_index": 211, "time_elapsed": 1179160, "internal_node_id": "0.0-148.0-9.0"}}, {"uniqueid": "MTK0358:3FIJLY1B6VBY1P4MT1XFE38HEW6PFT", "current_trial": 212, "dateTime": 1510773654209, "trialdata": {"rt": -1, "stimulus": "<p id=\"stim\">+</p>", "key_press": -1, "type": "FIXATION", "trial_type": "single-stim", "trial_index": 212, "time_elapsed": 1180663, "internal_node_id": "0.0-149.0-0.0"}}, {"uniqueid": "MTK0358:3FIJLY1B6VBY1P4MT1XFE38HEW6PFT", "current_trial": 213, "dateTime": 1510773655810, "trialdata": {"rt": -1, "stimulus": "<p id=\"stim\">PLATE</p>", "key_press": -1, "type": "PRES_VIS", "word": "plate", "wordID": 1085, "conditions": [24, 1600, "v", 12000], "trial": 6, "serialpos": 0, "trial_type": "single-stim", "trial_index": 213, "time_elapsed": 1182264, "internal_node_id": "0.0-150.0"}}, {"uniqueid": "MTK0358:3FIJLY1B6VBY1P4MT1XFE38HEW6PFT", "current_trial": 214, "dateTime": 1510773658224, "trialdata": {"rt": -1, "stimulus": "<p id=\"stim\">BINDER</p>", "key_press": -1, "type": "PRES_VIS", "word": "binder", "wordID": 126, "conditions": [24, 1600, "v", 12000], "trial": 6, "serialpos": 1, "trial_type": "single-stim", "trial_index": 214, "time_elapsed": 1184678, "internal_node_id": "0.0-151.0"}}, {"uniqueid": "MTK0358:3FIJLY1B6VBY1P4MT1XFE38HEW6PFT", "current_trial": 215, "dateTime": 1510773660678, "trialdata": {"rt": -1, "stimulus": "<p id=\"stim\">NAPKIN</p>", "key_press": -1, "type": "PRES_VIS", "word": "napkin", "wordID": 936, "conditions": [24, 1600, "v", 12000], "trial": 6, "serialpos": 2, "trial_type": "single-stim", "trial_index": 215, "time_elapsed": 1187132, "internal_node_id": "0.0-152.0"}}, {"uniqueid": "MTK0358:3FIJLY1B6VBY1P4MT1XFE38HEW6PFT", "current_trial": 216, "dateTime": 1510773663469, "trialdata": {"rt": -1, "stimulus": "<p id=\"stim\">TROMBONE</p>", "key_press": -1, "type": "PRES_VIS", "word": "trombone", "wordID": 1507, "conditions": [24, 1600, "v", 12000], "trial": 6, "serialpos": 3, "trial_type": "single-stim", "trial_index": 216, "time_elapsed": 1189923, "internal_node_id": "0.0-153.0"}}, {"uniqueid": "MTK0358:3FIJLY1B6VBY1P4MT1XFE38HEW6PFT", "current_trial": 217, "dateTime": 1510773666005, "trialdata": {"rt": -1, "stimulus": "<p id=\"stim\">PALACE</p>", "key_press": -1, "type": "PRES_VIS", "word": "palace", "wordID": 1005, "conditions": [24, 1600, "v", 12000], "trial": 6, "serialpos": 4, "trial_type": "single-stim", "trial_index": 217, "time_elapsed": 1192459, "internal_node_id": "0.0-154.0"}}, {"uniqueid": "MTK0358:3FIJLY1B6VBY1P4MT1XFE38HEW6PFT", "current_trial": 218, "dateTime": 1510773668575, "trialdata": {"rt": -1, "stimulus": "<p id=\"stim\">CLIMBER</p>", "key_press": -1, "type": "PRES_VIS", "word": "climber", "wordID": 322, "conditions": [24, 1600, "v", 12000], "trial": 6, "serialpos": 5, "trial_type": "single-stim", "trial_index": 218, "time_elapsed": 1195029, "internal_node_id": "0.0-155.0"}}, {"uniqueid": "MTK0358:3FIJLY1B6VBY1P4MT1XFE38HEW6PFT", "current_trial": 219, "dateTime": 1510773671355, "trialdata": {"rt": -1, "stimulus": "<p id=\"stim\">KETCHUP</p>", "key_press": -1, "type": "PRES_VIS", "word": "ketchup", "wordID": 770, "conditions": [24, 1600, "v", 12000], "trial": 6, "serialpos": 6, "trial_type": "single-stim", "trial_index": 219, "time_elapsed": 1197809, "internal_node_id": "0.0-156.0"}}, {"uniqueid": "MTK0358:3FIJLY1B6VBY1P4MT1XFE38HEW6PFT", "current_trial": 220, "dateTime": 1510773673789, "trialdata": {"rt": -1, "stimulus": "<p id=\"stim\">SAUSAGE</p>", "key_press": -1, "type": "PRES_VIS", "word": "sausage", "wordID": 1237, "conditions": [24, 1600, "v", 12000], "trial": 6, "serialpos": 7, "trial_type": "single-stim", "trial_index": 220, "time_elapsed": 1200243, "internal_node_id": "0.0-157.0"}}, {"uniqueid": "MTK0358:3FIJLY1B6VBY1P4MT1XFE38HEW6PFT", "current_trial": 221, "dateTime": 1510773676518, "trialdata": {"rt": -1, "stimulus": "<p id=\"stim\">CUSTARD</p>", "key_press": -1, "type": "PRES_VIS", "word": "custard", "wordID": 428, "conditions": [24, 1600, "v", 12000], "trial": 6, "serialpos": 8, "trial_type": "single-stim", "trial_index": 221, "time_elapsed": 1202972, "internal_node_id": "0.0-158.0"}}, {"uniqueid": "MTK0358:3FIJLY1B6VBY1P4MT1XFE38HEW6PFT", "current_trial": 222, "dateTime": 1510773679245, "trialdata": {"rt": -1, "stimulus": "<p id=\"stim\">GUITAR</p>", "key_press": -1, "type": "PRES_VIS", "word": "guitar", "wordID": 669, "conditions": [24, 1600, "v", 12000], "trial": 6, "serialpos": 9, "trial_type": "single-stim", "trial_index": 222, "time_elapsed": 1205699, "internal_node_id": "0.0-159.0"}}, {"uniqueid": "MTK0358:3FIJLY1B6VBY1P4MT1XFE38HEW6PFT", "current_trial": 223, "dateTime": 1510773681919, "trialdata": {"rt": -1, "stimulus": "<p id=\"stim\">STATUE</p>", "key_press": -1, "type": "PRES_VIS", "word": "statue", "wordID": 1373, "conditions": [24, 1600, "v", 12000], "trial": 6, "serialpos": 10, "trial_type": "single-stim", "trial_index": 223, "time_elapsed": 1208373, "internal_node_id": "0.0-160.0"}}, {"uniqueid": "MTK0358:3FIJLY1B6VBY1P4MT1XFE38HEW6PFT", "current_trial": 224, "dateTime": 1510773684573, "trialdata": {"rt": -1, "stimulus": "<p id=\"stim\">SERVANT</p>", "key_press": -1, "type": "PRES_VIS", "word": "servant", "wordID": 1270, "conditions": [24, 1600, "v", 12000], "trial": 6, "serialpos": 11, "trial_type": "single-stim", "trial_index": 224, "time_elapsed": 1211027, "internal_node_id": "0.0-161.0"}}, {"uniqueid": "MTK0358:3FIJLY1B6VBY1P4MT1XFE38HEW6PFT", "current_trial": 225, "dateTime": 1510773687319, "trialdata": {"rt": -1, "stimulus": "<p id=\"stim\">VENUS</p>", "key_press": -1, "type": "PRES_VIS", "word": "venus", "wordID": 1556, "conditions": [24, 1600, "v", 12000], "trial": 6, "serialpos": 12, "trial_type": "single-stim", "trial_index": 225, "time_elapsed": 1213773, "internal_node_id": "0.0-162.0"}}, {"uniqueid": "MTK0358:3FIJLY1B6VBY1P4MT1XFE38HEW6PFT", "current_trial": 226, "dateTime": 1510773689968, "trialdata": {"rt": -1, "stimulus": "<p id=\"stim\">ROD</p>", "key_press": -1, "type": "PRES_VIS", "word": "rod", "wordID": 1202, "conditions": [24, 1600, "v", 12000], "trial": 6, "serialpos": 13, "trial_type": "single-stim", "trial_index": 226, "time_elapsed": 1216422, "internal_node_id": "0.0-163.0"}}, {"uniqueid": "MTK0358:3FIJLY1B6VBY1P4MT1XFE38HEW6PFT", "current_trial": 227, "dateTime": 1510773692486, "trialdata": {"rt": -1, "stimulus": "<p id=\"stim\">ELBOW</p>", "key_press": -1, "type": "PRES_VIS", "word": "elbow", "wordID": 519, "conditions": [24, 1600, "v", 12000], "trial": 6, "serialpos": 14, "trial_type": "single-stim", "trial_index": 227, "time_elapsed": 1218940, "internal_node_id": "0.0-164.0"}}, {"uniqueid": "MTK0358:3FIJLY1B6VBY1P4MT1XFE38HEW6PFT", "current_trial": 228, "dateTime": 1510773694928, "trialdata": {"rt": -1, "stimulus": "<p id=\"stim\">WRIST</p>", "key_press": -1, "type": "PRES_VIS", "word": "wrist", "wordID": 1625, "conditions": [24, 1600, "v", 12000], "trial": 6, "serialpos": 15, "trial_type": "single-stim", "trial_index": 228, "time_elapsed": 1221382, "internal_node_id": "0.0-165.0"}}, {"uniqueid": "MTK0358:3FIJLY1B6VBY1P4MT1XFE38HEW6PFT", "current_trial": 229, "dateTime": 1510773697397, "trialdata": {"rt": -1, "stimulus": "<p id=\"stim\">WITNESS</p>", "key_press": -1, "type": "PRES_VIS", "word": "witness", "wordID": 1617, "conditions": [24, 1600, "v", 12000], "trial": 6, "serialpos": 16, "trial_type": "single-stim", "trial_index": 229, "time_elapsed": 1223851, "internal_node_id": "0.0-166.0"}}, {"uniqueid": "MTK0358:3FIJLY1B6VBY1P4MT1XFE38HEW6PFT", "current_trial": 230, "dateTime": 1510773699968, "trialdata": {"rt": -1, "stimulus": "<p id=\"stim\">PIGMENT</p>", "key_press": -1, "type": "PRES_VIS", "word": "pigment", "wordID": 1065, "conditions": [24, 1600, "v", 12000], "trial": 6, "serialpos": 17, "trial_type": "single-stim", "trial_index": 230, "time_elapsed": 1226422, "internal_node_id": "0.0-167.0"}}, {"uniqueid": "MTK0358:3FIJLY1B6VBY1P4MT1XFE38HEW6PFT", "current_trial": 231, "dateTime": 1510773702494, "trialdata": {"rt": -1, "stimulus": "<p id=\"stim\">TYPIST</p>", "key_press": -1, "type": "PRES_VIS", "word": "typist", "wordID": 1531, "conditions": [24, 1600, "v", 12000], "trial": 6, "serialpos": 18, "trial_type": "single-stim", "trial_index": 231, "time_elapsed": 1228948, "internal_node_id": "0.0-168.0"}}, {"uniqueid": "MTK0358:3FIJLY1B6VBY1P4MT1XFE38HEW6PFT", "current_trial": 232, "dateTime": 1510773705217, "trialdata": {"rt": -1, "stimulus": "<p id=\"stim\">TRACTOR</p>", "key_press": -1, "type": "PRES_VIS", "word": "tractor", "wordID": 1492, "conditions": [24, 1600, "v", 12000], "trial": 6, "serialpos": 19, "trial_type": "single-stim", "trial_index": 232, "time_elapsed": 1231671, "internal_node_id": "0.0-169.0"}}, {"uniqueid": "MTK0358:3FIJLY1B6VBY1P4MT1XFE38HEW6PFT", "current_trial": 233, "dateTime": 1510773707718, "trialdata": {"rt": -1, "stimulus": "<p id=\"stim\">SHIRT</p>", "key_press": -1, "type": "PRES_VIS", "word": "shirt", "wordID": 1286, "conditions": [24, 1600, "v", 12000], "trial": 6, "serialpos": 20, "trial_type": "single-stim", "trial_index": 233, "time_elapsed": 1234172, "internal_node_id": "0.0-170.0"}}, {"uniqueid": "MTK0358:3FIJLY1B6VBY1P4MT1XFE38HEW6PFT", "current_trial": 234, "dateTime": 1510773710128, "trialdata": {"rt": -1, "stimulus": "<p id=\"stim\">CRUTCH</p>", "key_press": -1, "type": "PRES_VIS", "word": "crutch", "wordID": 416, "conditions": [24, 1600, "v", 12000], "trial": 6, "serialpos": 21, "trial_type": "single-stim", "trial_index": 234, "time_elapsed": 1236582, "internal_node_id": "0.0-171.0"}}, {"uniqueid": "MTK0358:3FIJLY1B6VBY1P4MT1XFE38HEW6PFT", "current_trial": 235, "dateTime": 1510773712772, "trialdata": {"rt": -1, "stimulus": "<p id=\"stim\">PADDLE</p>", "key_press": -1, "type": "PRES_VIS", "word": "paddle", "wordID": 999, "conditions": [24, 1600, "v", 12000], "trial": 6, "serialpos": 22, "trial_type": "single-stim", "trial_index": 235, "time_elapsed": 1239226, "internal_node_id": "0.0-172.0"}}, {"uniqueid": "MTK0358:3FIJLY1B6VBY1P4MT1XFE38HEW6PFT", "current_trial": 236, "dateTime": 1510773715478, "trialdata": {"rt": -1, "stimulus": "<p id=\"stim\">SCARF</p>", "key_press": -1, "type": "PRES_VIS", "word": "scarf", "wordID": 1245, "conditions": [24, 1600, "v", 12000], "trial": 6, "serialpos": 23, "trial_type": "single-stim", "trial_index": 236, "time_elapsed": 1241932, "internal_node_id": "0.0-173.0"}}, {"uniqueid": "MTK0358:3FIJLY1B6VBY1P4MT1XFE38HEW6PFT", "current_trial": 237, "dateTime": 1510773717826, "trialdata": {"rt": -1, "stimulus": "", "key_press": -1, "type": "PRE_RECALL_DELAY", "trial_type": "single-stim", "trial_index": 237, "time_elapsed": 1244280, "internal_node_id": "0.0-174.0-0.0"}}, {"uniqueid": "MTK0358:3FIJLY1B6VBY1P4MT1XFE38HEW6PFT", "current_trial": 238, "dateTime": 1510773718328, "trialdata": {"rt": -1000, "stimulus": "/static/audio/400Hz.wav", "key_press": -1, "type": "PRE_RECALL_ALERT", "trial_type": "single-audio", "trial_index": 238, "time_elapsed": 1244781, "internal_node_id": "0.0-175.0"}}, {"uniqueid": "MTK0358:3FIJLY1B6VBY1P4MT1XFE38HEW6PFT", "current_trial": 239, "dateTime": 1510773778340, "trialdata": {"rt": [3320, 4991, 9956, 12438, 15471, 20940, 24818, 29532, 31909, 43410], "recwords": ["paddle", "scarf", "servant", "wrist", "custard", "wrist", "elbow", "pigment", "statue", "stand"], "type": "FREE_RECALL", "conditions": [24, 1600, "v", 12000], "trial": 6, "trial_type": "free-recall", "trial_index": 239, "time_elapsed": 1304786, "internal_node_id": "0.0-176.0-0.0"}}, {"uniqueid": "MTK0358:3FIJLY1B6VBY1P4MT1XFE38HEW6PFT", "current_trial": 240, "dateTime": 1510773781444, "trialdata": {"rt": 1102, "key_press": 32, "type": "INSTRUCTIONS", "trial_type": "text", "trial_index": 240, "time_elapsed": 1307898, "internal_node_id": "0.0-177.0"}}, {"uniqueid": "MTK0358:3FIJLY1B6VBY1P4MT1XFE38HEW6PFT", "current_trial": 241, "dateTime": 1510773807449, "trialdata": {"rt": [3396, 7144, 10288, 13004, 17043, 20850], "responses": ["9", "13", "9", "12", "12", "16"], "num1": [1, 5, 3, 5, 6, 3, 8], "num2": [7, 4, 1, 1, 3, 8, 6], "num3": [1, 4, 5, 6, 3, 5, 8], "type": "DISTRACTOR", "conditions": [12, 800, "a", 24000], "trial": 7, "trial_type": "math-distractor", "trial_index": 241, "time_elapsed": 1333903, "internal_node_id": "0.0-178.0"}}, {"uniqueid": "MTK0358:3FIJLY1B6VBY1P4MT1XFE38HEW6PFT", "current_trial": 242, "dateTime": 1510773810451, "trialdata": {"rt": -1, "stimulus": "<p id=\"stim\">10</p>", "key_press": -1, "trial_type": "single-stim", "trial_index": 242, "time_elapsed": 1336905, "internal_node_id": "0.0-179.0-0.0"}}, {"uniqueid": "MTK0358:3FIJLY1B6VBY1P4MT1XFE38HEW6PFT", "current_trial": 243, "dateTime": 1510773811452, "trialdata": {"rt": -1, "stimulus": "<p id=\"stim\">9</p>", "key_press": -1, "trial_type": "single-stim", "trial_index": 243, "time_elapsed": 1337906, "internal_node_id": "0.0-179.0-1.0"}}, {"uniqueid": "MTK0358:3FIJLY1B6VBY1P4MT1XFE38HEW6PFT", "current_trial": 244, "dateTime": 1510773812453, "trialdata": {"rt": -1, "stimulus": "<p id=\"stim\">8</p>", "key_press": -1, "trial_type": "single-stim", "trial_index": 244, "time_elapsed": 1338907, "internal_node_id": "0.0-179.0-2.0"}}, {"uniqueid": "MTK0358:3FIJLY1B6VBY1P4MT1XFE38HEW6PFT", "current_trial": 245, "dateTime": 1510773813454, "trialdata": {"rt": -1, "stimulus": "<p id=\"stim\">7</p>", "key_press": -1, "trial_type": "single-stim", "trial_index": 245, "time_elapsed": 1339908, "internal_node_id": "0.0-179.0-3.0"}}, {"uniqueid": "MTK0358:3FIJLY1B6VBY1P4MT1XFE38HEW6PFT", "current_trial": 246, "dateTime": 1510773814455, "trialdata": {"rt": -1, "stimulus": "<p id=\"stim\">6</p>", "key_press": -1, "trial_type": "single-stim", "trial_index": 246, "time_elapsed": 1340909, "internal_node_id": "0.0-179.0-4.0"}}, {"uniqueid": "MTK0358:3FIJLY1B6VBY1P4MT1XFE38HEW6PFT", "current_trial": 247, "dateTime": 1510773815457, "trialdata": {"rt": -1, "stimulus": "<p id=\"stim\">5</p>", "key_press": -1, "trial_type": "single-stim", "trial_index": 247, "time_elapsed": 1341910, "internal_node_id": "0.0-179.0-5.0"}}, {"uniqueid": "MTK0358:3FIJLY1B6VBY1P4MT1XFE38HEW6PFT", "current_trial": 248, "dateTime": 1510773816457, "trialdata": {"rt": -1, "stimulus": "<p id=\"stim\">4</p>", "key_press": -1, "trial_type": "single-stim", "trial_index": 248, "time_elapsed": 1342911, "internal_node_id": "0.0-179.0-6.0"}}, {"uniqueid": "MTK0358:3FIJLY1B6VBY1P4MT1XFE38HEW6PFT", "current_trial": 249, "dateTime": 1510773817458, "trialdata": {"rt": -1, "stimulus": "<p id=\"stim\">3</p>", "key_press": -1, "trial_type": "single-stim", "trial_index": 249, "time_elapsed": 1343912, "internal_node_id": "0.0-179.0-7.0"}}, {"uniqueid": "MTK0358:3FIJLY1B6VBY1P4MT1XFE38HEW6PFT", "current_trial": 250, "dateTime": 1510773818460, "trialdata": {"rt": -1, "stimulus": "<p id=\"stim\">2</p>", "key_press": -1, "trial_type": "single-stim", "trial_index": 250, "time_elapsed": 1344914, "internal_node_id": "0.0-179.0-8.0"}}, {"uniqueid": "MTK0358:3FIJLY1B6VBY1P4MT1XFE38HEW6PFT", "current_trial": 251, "dateTime": 1510773819462, "trialdata": {"rt": -1, "stimulus": "<p id=\"stim\">1</p>", "key_press": -1, "trial_type": "single-stim", "trial_index": 251, "time_elapsed": 1345916, "internal_node_id": "0.0-179.0-9.0"}}, {"uniqueid": "MTK0358:3FIJLY1B6VBY1P4MT1XFE38HEW6PFT", "current_trial": 252, "dateTime": 1510773820964, "trialdata": {"rt": -1, "stimulus": "<p id=\"stim\">+</p>", "key_press": -1, "type": "FIXATION", "trial_type": "single-stim", "trial_index": 252, "time_elapsed": 1347418, "internal_node_id": "0.0-180.0-0.0"}}, {"uniqueid": "MTK0358:3FIJLY1B6VBY1P4MT1XFE38HEW6PFT", "current_trial": 253, "dateTime": 1510773822806, "trialdata": {"rt": -1000, "stimulus": "/static/audio/wordpool/PIANO.wav", "key_press": -1, "type": "PRES_AUD", "word": "piano", "wordID": 1056, "conditions": [12, 800, "a", 24000], "trial": 7, "serialpos": 0, "trial_type": "single-audio", "trial_index": 253, "time_elapsed": 1349259, "internal_node_id": "0.0-181.0"}}, {"uniqueid": "MTK0358:3FIJLY1B6VBY1P4MT1XFE38HEW6PFT", "current_trial": 254, "dateTime": 1510773824728, "trialdata": {"rt": -1000, "stimulus": "/static/audio/wordpool/SNACK.wav", "key_press": -1, "type": "PRES_AUD", "word": "snack", "wordID": 1330, "conditions": [12, 800, "a", 24000], "trial": 7, "serialpos": 1, "trial_type": "single-audio", "trial_index": 254, "time_elapsed": 1351181, "internal_node_id": "0.0-182.0"}}, {"uniqueid": "MTK0358:3FIJLY1B6VBY1P4MT1XFE38HEW6PFT", "current_trial": 255, "dateTime": 1510773826575, "trialdata": {"rt": -1000, "stimulus": "/static/audio/wordpool/SANDWICH.wav", "key_press": -1, "type": "PRES_AUD", "word": "sandwich", "wordID": 1231, "conditions": [12, 800, "a", 24000], "trial": 7, "serialpos": 2, "trial_type": "single-audio", "trial_index": 255, "time_elapsed": 1353029, "internal_node_id": "0.0-183.0"}}, {"uniqueid": "MTK0358:3FIJLY1B6VBY1P4MT1XFE38HEW6PFT", "current_trial": 256, "dateTime": 1510773828234, "trialdata": {"rt": -1000, "stimulus": "/static/audio/wordpool/TUBA.wav", "key_press": -1, "type": "PRES_AUD", "word": "tuba", "wordID": 1514, "conditions": [12, 800, "a", 24000], "trial": 7, "serialpos": 3, "trial_type": "single-audio", "trial_index": 256, "time_elapsed": 1354688, "internal_node_id": "0.0-184.0"}}, {"uniqueid": "MTK0358:3FIJLY1B6VBY1P4MT1XFE38HEW6PFT", "current_trial": 257, "dateTime": 1510773829900, "trialdata": {"rt": -1000, "stimulus": "/static/audio/wordpool/SIBLING.wav", "key_press": -1, "type": "PRES_AUD", "word": "sibling", "wordID": 1300, "conditions": [12, 800, "a", 24000], "trial": 7, "serialpos": 4, "trial_type": "single-audio", "trial_index": 257, "time_elapsed": 1356354, "internal_node_id": "0.0-185.0"}}, {"uniqueid": "MTK0358:3FIJLY1B6VBY1P4MT1XFE38HEW6PFT", "current_trial": 258, "dateTime": 1510773831615, "trialdata": {"rt": -1000, "stimulus": "/static/audio/wordpool/BLOUSE.wav", "key_press": -1, "type": "PRES_AUD", "word": "blouse", "wordID": 138, "conditions": [12, 800, "a", 24000], "trial": 7, "serialpos": 5, "trial_type": "single-audio", "trial_index": 258, "time_elapsed": 1358069, "internal_node_id": "0.0-186.0"}}, {"uniqueid": "MTK0358:3FIJLY1B6VBY1P4MT1XFE38HEW6PFT", "current_trial": 259, "dateTime": 1510773833300, "trialdata": {"rt": -1000, "stimulus": "/static/audio/wordpool/TILE.wav", "key_press": -1, "type": "PRES_AUD", "word": "tile", "wordID": 1467, "conditions": [12, 800, "a", 24000], "trial": 7, "serialpos": 6, "trial_type": "single-audio", "trial_index": 259, "time_elapsed": 1359754, "internal_node_id": "0.0-187.0"}}, {"uniqueid": "MTK0358:3FIJLY1B6VBY1P4MT1XFE38HEW6PFT", "current_trial": 260, "dateTime": 1510773835283, "trialdata": {"rt": -1000, "stimulus": "/static/audio/wordpool/SPIDER.wav", "key_press": -1, "type": "PRES_AUD", "word": "spider", "wordID": 1350, "conditions": [12, 800, "a", 24000], "trial": 7, "serialpos": 7, "trial_type": "single-audio", "trial_index": 260, "time_elapsed": 1361736, "internal_node_id": "0.0-188.0"}}, {"uniqueid": "MTK0358:3FIJLY1B6VBY1P4MT1XFE38HEW6PFT", "current_trial": 261, "dateTime": 1510773837168, "trialdata": {"rt": -1000, "stimulus": "/static/audio/wordpool/STOVE.wav", "key_press": -1, "type": "PRES_AUD", "word": "stove", "wordID": 1387, "conditions": [12, 800, "a", 24000], "trial": 7, "serialpos": 8, "trial_type": "single-audio", "trial_index": 261, "time_elapsed": 1363622, "internal_node_id": "0.0-189.0"}}, {"uniqueid": "MTK0358:3FIJLY1B6VBY1P4MT1XFE38HEW6PFT", "current_trial": 262, "dateTime": 1510773839159, "trialdata": {"rt": -1000, "stimulus": "/static/audio/wordpool/FUNGUS.wav", "key_press": -1, "type": "PRES_AUD", "word": "fungus", "wordID": 613, "conditions": [12, 800, "a", 24000], "trial": 7, "serialpos": 9, "trial_type": "single-audio", "trial_index": 262, "time_elapsed": 1365613, "internal_node_id": "0.0-190.0"}}, {"uniqueid": "MTK0358:3FIJLY1B6VBY1P4MT1XFE38HEW6PFT", "current_trial": 263, "dateTime": 1510773840962, "trialdata": {"rt": -1000, "stimulus": "/static/audio/wordpool/TABLE.wav", "key_press": -1, "type": "PRES_AUD", "word": "table", "wordID": 1425, "conditions": [12, 800, "a", 24000], "trial": 7, "serialpos": 10, "trial_type": "single-audio", "trial_index": 263, "time_elapsed": 1367416, "internal_node_id": "0.0-191.0"}}, {"uniqueid": "MTK0358:3FIJLY1B6VBY1P4MT1XFE38HEW6PFT", "current_trial": 264, "dateTime": 1510773842617, "trialdata": {"rt": -1000, "stimulus": "/static/audio/wordpool/COUSIN.wav", "key_press": -1, "type": "PRES_AUD", "word": "cousin", "wordID": 391, "conditions": [12, 800, "a", 24000], "trial": 7, "serialpos": 11, "trial_type": "single-audio", "trial_index": 264, "time_elapsed": 1369071, "internal_node_id": "0.0-192.0"}}, {"uniqueid": "MTK0358:3FIJLY1B6VBY1P4MT1XFE38HEW6PFT", "current_trial": 265, "dateTime": 1510773843835, "trialdata": {"rt": -1, "stimulus": "", "key_press": -1, "type": "PRE_RECALL_DELAY", "trial_type": "single-stim", "trial_index": 265, "time_elapsed": 1370289, "internal_node_id": "0.0-193.0-0.0"}}, {"uniqueid": "MTK0358:3FIJLY1B6VBY1P4MT1XFE38HEW6PFT", "current_trial": 266, "dateTime": 1510773844337, "trialdata": {"rt": -1000, "stimulus": "/static/audio/400Hz.wav", "key_press": -1, "type": "PRE_RECALL_ALERT", "trial_type": "single-audio", "trial_index": 266, "time_elapsed": 1370791, "internal_node_id": "0.0-194.0"}}, {"uniqueid": "MTK0358:3FIJLY1B6VBY1P4MT1XFE38HEW6PFT", "current_trial": 267, "dateTime": 1510773904346, "trialdata": {"rt": [3841, 5533, 8614, 10510, 11672, 16472], "recwords": ["sibling", "blouse", "cousin", "spider", "tuba", "piano"], "type": "FREE_RECALL", "conditions": [12, 800, "a", 24000], "trial": 7, "trial_type": "free-recall", "trial_index": 267, "time_elapsed": 1430794, "internal_node_id": "0.0-195.0-0.0"}}, {"uniqueid": "MTK0358:3FIJLY1B6VBY1P4MT1XFE38HEW6PFT", "current_trial": 268, "dateTime": 1510773908002, "trialdata": {"rt": 1654, "key_press": 32, "type": "INSTRUCTIONS", "trial_type": "text", "trial_index": 268, "time_elapsed": 1434455, "internal_node_id": "0.0-196.0"}}, {"uniqueid": "MTK0358:3FIJLY1B6VBY1P4MT1XFE38HEW6PFT", "current_trial": 269, "dateTime": 1510773934008, "trialdata": {"rt": [8989, 11903, 15077, 17424, 19941, 23258], "responses": ["16", "19", "19", "16", "14", "16"], "num1": [4, 5, 8, 5, 8, 7, 7], "num2": [5, 5, 5, 5, 2, 7, 9], "num3": [7, 9, 6, 6, 4, 2, 5], "type": "DISTRACTOR", "conditions": [24, 800, "v", 24000], "trial": 8, "trial_type": "math-distractor", "trial_index": 269, "time_elapsed": 1460460, "internal_node_id": "0.0-197.0"}}, {"uniqueid": "MTK0358:3FIJLY1B6VBY1P4MT1XFE38HEW6PFT", "current_trial": 270, "dateTime": 1510773937012, "trialdata": {"rt": -1, "stimulus": "<p id=\"stim\">10</p>", "key_press": -1, "trial_type": "single-stim", "trial_index": 270, "time_elapsed": 1463464, "internal_node_id": "0.0-198.0-0.0"}}, {"uniqueid": "MTK0358:3FIJLY1B6VBY1P4MT1XFE38HEW6PFT", "current_trial": 271, "dateTime": 1510773938015, "trialdata": {"rt": -1, "stimulus": "<p id=\"stim\">9</p>", "key_press": -1, "trial_type": "single-stim", "trial_index": 271, "time_elapsed": 1464469, "internal_node_id": "0.0-198.0-1.0"}}, {"uniqueid": "MTK0358:3FIJLY1B6VBY1P4MT1XFE38HEW6PFT", "current_trial": 272, "dateTime": 1510773939017, "trialdata": {"rt": -1, "stimulus": "<p id=\"stim\">8</p>", "key_press": -1, "trial_type": "single-stim", "trial_index": 272, "time_elapsed": 1465470, "internal_node_id": "0.0-198.0-2.0"}}, {"uniqueid": "MTK0358:3FIJLY1B6VBY1P4MT1XFE38HEW6PFT", "current_trial": 273, "dateTime": 1510773940019, "trialdata": {"rt": -1, "stimulus": "<p id=\"stim\">7</p>", "key_press": -1, "trial_type": "single-stim", "trial_index": 273, "time_elapsed": 1466473, "internal_node_id": "0.0-198.0-3.0"}}, {"uniqueid": "MTK0358:3FIJLY1B6VBY1P4MT1XFE38HEW6PFT", "current_trial": 274, "dateTime": 1510773941020, "trialdata": {"rt": -1, "stimulus": "<p id=\"stim\">6</p>", "key_press": -1, "trial_type": "single-stim", "trial_inde