{"condition": 0, "counterbalance": 308, "assignmentId": "3VZLGYJEYMH9FFXDG413B8A2QDKZXE", "workerId": "MTK0079", "hitId": "322ZSN9Z5GRK8H2A0Z5E3PG3Z3I4TN", "currenttrial": 625, "bonus": 0, "data": [{"uniqueid": "MTK0079:3VZLGYJEYMH9FFXDG413B8A2QDKZXE", "current_trial": 0, "dateTime": 1509131444884, "trialdata": {"rt": 2316, "key_press": 32, "type": "INSTRUCTIONS", "trial_type": "text", "trial_index": 0, "time_elapsed": 2319, "internal_node_id": "0.0-0.0"}}, {"uniqueid": "MTK0079:3VZLGYJEYMH9FFXDG413B8A2QDKZXE", "current_trial": 1, "dateTime": 1509131468210, "trialdata": {"rt": 23325, "key_press": 32, "type": "INSTRUCTIONS", "trial_type": "text", "trial_index": 1, "time_elapsed": 25646, "internal_node_id": "0.0-1.0"}}, {"uniqueid": "MTK0079:3VZLGYJEYMH9FFXDG413B8A2QDKZXE", "current_trial": 2, "dateTime": 1509131473794, "trialdata": {"rt": [5571], "responses": ["ocean"], "type": "AUDIO_TEST", "trial_type": "audio-test", "trial_index": 2, "time_elapsed": 31229, "internal_node_id": "0.0-2.0"}}, {"uniqueid": "MTK0079:3VZLGYJEYMH9FFXDG413B8A2QDKZXE", "current_trial": 3, "dateTime": 1509131478770, "trialdata": {"rt": [4974], "responses": ["crystal"], "type": "AUDIO_TEST", "trial_type": "audio-test", "trial_index": 3, "time_elapsed": 36206, "internal_node_id": "0.0-3.0"}}, {"uniqueid": "MTK0079:3VZLGYJEYMH9FFXDG413B8A2QDKZXE", "current_trial": 4, "dateTime": 1509131482737, "trialdata": {"rt": [3966], "responses": ["spice"], "type": "AUDIO_TEST", "trial_type": "audio-test", "trial_index": 4, "time_elapsed": 40173, "internal_node_id": "0.0-4.0"}}, {"uniqueid": "MTK0079:3VZLGYJEYMH9FFXDG413B8A2QDKZXE", "current_trial": 5, "dateTime": 1509131485714, "trialdata": {"rt": 2225, "key_press": 32, "type": "INSTRUCTIONS", "trial_type": "text", "trial_index": 5, "time_elapsed": 43150, "internal_node_id": "0.0-5.0"}}, {"uniqueid": "MTK0079:3VZLGYJEYMH9FFXDG413B8A2QDKZXE", "current_trial": 6, "dateTime": 1509131556257, "trialdata": {"rt": 70543, "key_press": 32, "type": "INSTRUCTIONS", "trial_type": "text", "trial_index": 6, "time_elapsed": 113693, "internal_node_id": "0.0-6.0"}}, {"uniqueid": "MTK0079:3VZLGYJEYMH9FFXDG413B8A2QDKZXE", "current_trial": 7, "dateTime": 1509131602466, "trialdata": {"rt": 46208, "key_press": 32, "type": "INSTRUCTIONS", "trial_type": "text", "trial_index": 7, "time_elapsed": 159902, "internal_node_id": "0.0-7.0"}}, {"uniqueid": "MTK0079:3VZLGYJEYMH9FFXDG413B8A2QDKZXE", "current_trial": 8, "dateTime": 1509131732882, "trialdata": {"rt": 130415, "key_press": 32, "type": "INSTRUCTIONS", "trial_type": "text", "trial_index": 8, "time_elapsed": 290318, "internal_node_id": "0.0-8.0"}}, {"uniqueid": "MTK0079:3VZLGYJEYMH9FFXDG413B8A2QDKZXE", "current_trial": 9, "dateTime": 1509131751890, "trialdata": {"rt": [3906, 5762, 8034, 11026, 13410, 15890, 17842], "responses": ["17", "18", "1", "10", "13", "15", "14"], "num1": [9, 5, 1, 2, 2, 4, 8, 5], "num2": [5, 5, 7, 1, 2, 3, 2, 2], "num3": [3, 8, 2, 7, 9, 8, 4, 7], "type": "DISTRACTOR", "conditions": [18, 1200, "a", 18000], "trial": 0, "trial_type": "math-distractor", "trial_index": 9, "time_elapsed": 309326, "internal_node_id": "0.0-9.0"}}, {"uniqueid": "MTK0079:3VZLGYJEYMH9FFXDG413B8A2QDKZXE", "current_trial": 10, "dateTime": 1509131754894, "trialdata": {"rt": -1, "stimulus": "<p id=\"stim\">10</p>", "key_press": -1, "trial_type": "single-stim", "trial_index": 10, "time_elapsed": 312330, "internal_node_id": "0.0-10.0-0.0"}}, {"uniqueid": "MTK0079:3VZLGYJEYMH9FFXDG413B8A2QDKZXE", "current_trial": 11, "dateTime": 1509131755897, "trialdata": {"rt": -1, "stimulus": "<p id=\"stim\">9</p>", "key_press": -1, "trial_type": "single-stim", "trial_index": 11, "time_elapsed": 313333, "internal_node_id": "0.0-10.0-1.0"}}, {"uniqueid": "MTK0079:3VZLGYJEYMH9FFXDG413B8A2QDKZXE", "current_trial": 12, "dateTime": 1509131756899, "trialdata": {"rt": -1, "stimulus": "<p id=\"stim\">8</p>", "key_press": -1, "trial_type": "single-stim", "trial_index": 12, "time_elapsed": 314335, "internal_node_id": "0.0-10.0-2.0"}}, {"uniqueid": "MTK0079:3VZLGYJEYMH9FFXDG413B8A2QDKZXE", "current_trial": 13, "dateTime": 1509131757901, "trialdata": {"rt": -1, "stimulus": "<p id=\"stim\">7</p>", "key_press": -1, "trial_type": "single-stim", "trial_index": 13, "time_elapsed": 315337, "internal_node_id": "0.0-10.0-3.0"}}, {"uniqueid": "MTK0079:3VZLGYJEYMH9FFXDG413B8A2QDKZXE", "current_trial": 14, "dateTime": 1509131758902, "trialdata": {"rt": -1, "stimulus": "<p id=\"stim\">6</p>", "key_press": -1, "trial_type": "single-stim", "trial_index": 14, "time_elapsed": 316338, "internal_node_id": "0.0-10.0-4.0"}}, {"uniqueid": "MTK0079:3VZLGYJEYMH9FFXDG413B8A2QDKZXE", "current_trial": 15, "dateTime": 1509131759904, "trialdata": {"rt": -1, "stimulus": "<p id=\"stim\">5</p>", "key_press": -1, "trial_type": "single-stim", "trial_index": 15, "time_elapsed": 317340, "internal_node_id": "0.0-10.0-5.0"}}, {"uniqueid": "MTK0079:3VZLGYJEYMH9FFXDG413B8A2QDKZXE", "current_trial": 16, "dateTime": 1509131760905, "trialdata": {"rt": -1, "stimulus": "<p id=\"stim\">4</p>", "key_press": -1, "trial_type": "single-stim", "trial_index": 16, "time_elapsed": 318341, "internal_node_id": "0.0-10.0-6.0"}}, {"uniqueid": "MTK0079:3VZLGYJEYMH9FFXDG413B8A2QDKZXE", "current_trial": 17, "dateTime": 1509131761907, "trialdata": {"rt": -1, "stimulus": "<p id=\"stim\">3</p>", "key_press": -1, "trial_type": "single-stim", "trial_index": 17, "time_elapsed": 319343, "internal_node_id": "0.0-10.0-7.0"}}, {"uniqueid": "MTK0079:3VZLGYJEYMH9FFXDG413B8A2QDKZXE", "current_trial": 18, "dateTime": 1509131762909, "trialdata": {"rt": -1, "stimulus": "<p id=\"stim\">2</p>", "key_press": -1, "trial_type": "single-stim", "trial_index": 18, "time_elapsed": 320345, "internal_node_id": "0.0-10.0-8.0"}}, {"uniqueid": "MTK0079:3VZLGYJEYMH9FFXDG413B8A2QDKZXE", "current_trial": 19, "dateTime": 1509131763911, "trialdata": {"rt": -1, "stimulus": "<p id=\"stim\">1</p>", "key_press": -1, "trial_type": "single-stim", "trial_index": 19, "time_elapsed": 321347, "internal_node_id": "0.0-10.0-9.0"}}, {"uniqueid": "MTK0079:3VZLGYJEYMH9FFXDG413B8A2QDKZXE", "current_trial": 20, "dateTime": 1509131765412, "trialdata": {"rt": -1, "stimulus": "<p id=\"stim\">+</p>", "key_press": -1, "type": "FIXATION", "trial_type": "single-stim", "trial_index": 20, "time_elapsed": 322848, "internal_node_id": "0.0-11.0-0.0"}}, {"uniqueid": "MTK0079:3VZLGYJEYMH9FFXDG413B8A2QDKZXE", "current_trial": 21, "dateTime": 1509131767505, "trialdata": {"rt": -1000, "stimulus": "/static/audio/wordpool/SCRIBBLE.wav", "key_press": -1, "type": "PRES_AUD", "word": "scribble", "wordID": 1255, "conditions": [18, 1200, "a", 18000], "trial": 0, "serialpos": 0, "trial_type": "single-audio", "trial_index": 21, "time_elapsed": 324941, "internal_node_id": "0.0-12.0"}}, {"uniqueid": "MTK0079:3VZLGYJEYMH9FFXDG413B8A2QDKZXE", "current_trial": 22, "dateTime": 1509131769554, "trialdata": {"rt": -1000, "stimulus": "/static/audio/wordpool/CLOTHES.wav", "key_press": -1, "type": "PRES_AUD", "word": "clothes", "wordID": 326, "conditions": [18, 1200, "a", 18000], "trial": 0, "serialpos": 1, "trial_type": "single-audio", "trial_index": 22, "time_elapsed": 326990, "internal_node_id": "0.0-13.0"}}, {"uniqueid": "MTK0079:3VZLGYJEYMH9FFXDG413B8A2QDKZXE", "current_trial": 23, "dateTime": 1509131771930, "trialdata": {"rt": -1000, "stimulus": "/static/audio/wordpool/SALT.wav", "key_press": -1, "type": "PRES_AUD", "word": "salt", "wordID": 1228, "conditions": [18, 1200, "a", 18000], "trial": 0, "serialpos": 2, "trial_type": "single-audio", "trial_index": 23, "time_elapsed": 329366, "internal_node_id": "0.0-14.0"}}, {"uniqueid": "MTK0079:3VZLGYJEYMH9FFXDG413B8A2QDKZXE", "current_trial": 24, "dateTime": 1509131774127, "trialdata": {"rt": -1000, "stimulus": "/static/audio/wordpool/CANAL.wav", "key_press": -1, "type": "PRES_AUD", "word": "canal", "wordID": 225, "conditions": [18, 1200, "a", 18000], "trial": 0, "serialpos": 3, "trial_type": "single-audio", "trial_index": 24, "time_elapsed": 331563, "internal_node_id": "0.0-15.0"}}, {"uniqueid": "MTK0079:3VZLGYJEYMH9FFXDG413B8A2QDKZXE", "current_trial": 25, "dateTime": 1509131776444, "trialdata": {"rt": -1000, "stimulus": "/static/audio/wordpool/PAPER.wav", "key_press": -1, "type": "PRES_AUD", "word": "paper", "wordID": 1010, "conditions": [18, 1200, "a", 18000], "trial": 0, "serialpos": 4, "trial_type": "single-audio", "trial_index": 25, "time_elapsed": 333880, "internal_node_id": "0.0-16.0"}}, {"uniqueid": "MTK0079:3VZLGYJEYMH9FFXDG413B8A2QDKZXE", "current_trial": 26, "dateTime": 1509131778729, "trialdata": {"rt": -1000, "stimulus": "/static/audio/wordpool/GIRL.wav", "key_press": -1, "type": "PRES_AUD", "word": "girl", "wordID": 636, "conditions": [18, 1200, "a", 18000], "trial": 0, "serialpos": 5, "trial_type": "single-audio", "trial_index": 26, "time_elapsed": 336165, "internal_node_id": "0.0-17.0"}}, {"uniqueid": "MTK0079:3VZLGYJEYMH9FFXDG413B8A2QDKZXE", "current_trial": 27, "dateTime": 1509131780969, "trialdata": {"rt": -1000, "stimulus": "/static/audio/wordpool/TILE.wav", "key_press": -1, "type": "PRES_AUD", "word": "tile", "wordID": 1467, "conditions": [18, 1200, "a", 18000], "trial": 0, "serialpos": 6, "trial_type": "single-audio", "trial_index": 27, "time_elapsed": 338405, "internal_node_id": "0.0-18.0"}}, {"uniqueid": "MTK0079:3VZLGYJEYMH9FFXDG413B8A2QDKZXE", "current_trial": 28, "dateTime": 1509131783085, "trialdata": {"rt": -1000, "stimulus": "/static/audio/wordpool/JUGGLER.wav", "key_press": -1, "type": "PRES_AUD", "word": "juggler", "wordID": 762, "conditions": [18, 1200, "a", 18000], "trial": 0, "serialpos": 7, "trial_type": "single-audio", "trial_index": 28, "time_elapsed": 340521, "internal_node_id": "0.0-19.0"}}, {"uniqueid": "MTK0079:3VZLGYJEYMH9FFXDG413B8A2QDKZXE", "current_trial": 29, "dateTime": 1509131785403, "trialdata": {"rt": -1000, "stimulus": "/static/audio/wordpool/ATLAS.wav", "key_press": -1, "type": "PRES_AUD", "word": "atlas", "wordID": 52, "conditions": [18, 1200, "a", 18000], "trial": 0, "serialpos": 8, "trial_type": "single-audio", "trial_index": 29, "time_elapsed": 342839, "internal_node_id": "0.0-20.0"}}, {"uniqueid": "MTK0079:3VZLGYJEYMH9FFXDG413B8A2QDKZXE", "current_trial": 30, "dateTime": 1509131787434, "trialdata": {"rt": -1000, "stimulus": "/static/audio/wordpool/PARTNER.wav", "key_press": -1, "type": "PRES_AUD", "word": "partner", "wordID": 1016, "conditions": [18, 1200, "a", 18000], "trial": 0, "serialpos": 9, "trial_type": "single-audio", "trial_index": 30, "time_elapsed": 344870, "internal_node_id": "0.0-21.0"}}, {"uniqueid": "MTK0079:3VZLGYJEYMH9FFXDG413B8A2QDKZXE", "current_trial": 31, "dateTime": 1509131789574, "trialdata": {"rt": -1000, "stimulus": "/static/audio/wordpool/TRIBE.wav", "key_press": -1, "type": "PRES_AUD", "word": "tribe", "wordID": 1504, "conditions": [18, 1200, "a", 18000], "trial": 0, "serialpos": 10, "trial_type": "single-audio", "trial_index": 31, "time_elapsed": 347010, "internal_node_id": "0.0-22.0"}}, {"uniqueid": "MTK0079:3VZLGYJEYMH9FFXDG413B8A2QDKZXE", "current_trial": 32, "dateTime": 1509131791889, "trialdata": {"rt": -1000, "stimulus": "/static/audio/wordpool/CRICKET.wav", "key_press": -1, "type": "PRES_AUD", "word": "cricket", "wordID": 407, "conditions": [18, 1200, "a", 18000], "trial": 0, "serialpos": 11, "trial_type": "single-audio", "trial_index": 32, "time_elapsed": 349325, "internal_node_id": "0.0-23.0"}}, {"uniqueid": "MTK0079:3VZLGYJEYMH9FFXDG413B8A2QDKZXE", "current_trial": 33, "dateTime": 1509131793892, "trialdata": {"rt": -1000, "stimulus": "/static/audio/wordpool/RADISH.wav", "key_press": -1, "type": "PRES_AUD", "word": "radish", "wordID": 1157, "conditions": [18, 1200, "a", 18000], "trial": 0, "serialpos": 12, "trial_type": "single-audio", "trial_index": 33, "time_elapsed": 351328, "internal_node_id": "0.0-24.0"}}, {"uniqueid": "MTK0079:3VZLGYJEYMH9FFXDG413B8A2QDKZXE", "current_trial": 34, "dateTime": 1509131796229, "trialdata": {"rt": -1000, "stimulus": "/static/audio/wordpool/FILM.wav", "key_press": -1, "type": "PRES_AUD", "word": "film", "wordID": 564, "conditions": [18, 1200, "a", 18000], "trial": 0, "serialpos": 13, "trial_type": "single-audio", "trial_index": 34, "time_elapsed": 353665, "internal_node_id": "0.0-25.0"}}, {"uniqueid": "MTK0079:3VZLGYJEYMH9FFXDG413B8A2QDKZXE", "current_trial": 35, "dateTime": 1509131798475, "trialdata": {"rt": -1000, "stimulus": "/static/audio/wordpool/WARDROBE.wav", "key_press": -1, "type": "PRES_AUD", "word": "wardrobe", "wordID": 1586, "conditions": [18, 1200, "a", 18000], "trial": 0, "serialpos": 14, "trial_type": "single-audio", "trial_index": 35, "time_elapsed": 355911, "internal_node_id": "0.0-26.0"}}, {"uniqueid": "MTK0079:3VZLGYJEYMH9FFXDG413B8A2QDKZXE", "current_trial": 36, "dateTime": 1509131800805, "trialdata": {"rt": -1000, "stimulus": "/static/audio/wordpool/SIDEWALK.wav", "key_press": -1, "type": "PRES_AUD", "word": "sidewalk", "wordID": 1302, "conditions": [18, 1200, "a", 18000], "trial": 0, "serialpos": 15, "trial_type": "single-audio", "trial_index": 36, "time_elapsed": 358241, "internal_node_id": "0.0-27.0"}}, {"uniqueid": "MTK0079:3VZLGYJEYMH9FFXDG413B8A2QDKZXE", "current_trial": 37, "dateTime": 1509131803086, "trialdata": {"rt": -1000, "stimulus": "/static/audio/wordpool/ROCKET.wav", "key_press": -1, "type": "PRES_AUD", "word": "rocket", "wordID": 1201, "conditions": [18, 1200, "a", 18000], "trial": 0, "serialpos": 16, "trial_type": "single-audio", "trial_index": 37, "time_elapsed": 360522, "internal_node_id": "0.0-28.0"}}, {"uniqueid": "MTK0079:3VZLGYJEYMH9FFXDG413B8A2QDKZXE", "current_trial": 38, "dateTime": 1509131805216, "trialdata": {"rt": -1000, "stimulus": "/static/audio/wordpool/PLIERS.wav", "key_press": -1, "type": "PRES_AUD", "word": "pliers", "wordID": 1088, "conditions": [18, 1200, "a", 18000], "trial": 0, "serialpos": 17, "trial_type": "single-audio", "trial_index": 38, "time_elapsed": 362652, "internal_node_id": "0.0-29.0"}}, {"uniqueid": "MTK0079:3VZLGYJEYMH9FFXDG413B8A2QDKZXE", "current_trial": 39, "dateTime": 1509131806575, "trialdata": {"rt": -1, "stimulus": "", "key_press": -1, "type": "PRE_RECALL_DELAY", "trial_type": "single-stim", "trial_index": 39, "time_elapsed": 364011, "internal_node_id": "0.0-30.0-0.0"}}, {"uniqueid": "MTK0079:3VZLGYJEYMH9FFXDG413B8A2QDKZXE", "current_trial": 40, "dateTime": 1509131807078, "trialdata": {"rt": -1000, "stimulus": "/static/audio/400Hz.wav", "key_press": -1, "type": "PRE_RECALL_ALERT", "trial_type": "single-audio", "trial_index": 40, "time_elapsed": 364514, "internal_node_id": "0.0-31.0"}}, {"uniqueid": "MTK0079:3VZLGYJEYMH9FFXDG413B8A2QDKZXE", "current_trial": 41, "dateTime": 1509131867084, "trialdata": {"rt": [4425, 5721, 7769, 8825, 11210, 14681, 16985, 19081, 20681, 23145, 25785, 33865], "recwords": ["pliers", "cricket", "scribble", "tile", "pliers", "sidewalk", "paper", "tile", "juggler", "canal", "rocket", "atlas"], "type": "FREE_RECALL", "conditions": [18, 1200, "a", 18000], "trial": 0, "trial_type": "free-recall", "trial_index": 41, "time_elapsed": 424518, "internal_node_id": "0.0-32.0-0.0"}}, {"uniqueid": "MTK0079:3VZLGYJEYMH9FFXDG413B8A2QDKZXE", "current_trial": 42, "dateTime": 1509131870674, "trialdata": {"rt": 1588, "key_press": 32, "type": "INSTRUCTIONS", "trial_type": "text", "trial_index": 42, "time_elapsed": 428110, "internal_node_id": "0.0-33.0"}}, {"uniqueid": "MTK0079:3VZLGYJEYMH9FFXDG413B8A2QDKZXE", "current_trial": 43, "dateTime": 1509131890677, "trialdata": {"rt": [2607, 4591, 9055, 11007, 12816, 14719, 16607], "responses": ["18", "11", "21", "12", "17", "12", "16"], "num1": [1, 1, 9, 5, 2, 1, 8, 1], "num2": [9, 5, 5, 4, 8, 6, 7, 5], "num3": [8, 5, 7, 3, 7, 5, 1, 8], "type": "DISTRACTOR", "conditions": [18, 1200, "v", 18000], "trial": 1, "trial_type": "math-distractor", "trial_index": 43, "time_elapsed": 448113, "internal_node_id": "0.0-34.0"}}, {"uniqueid": "MTK0079:3VZLGYJEYMH9FFXDG413B8A2QDKZXE", "current_trial": 44, "dateTime": 1509131893678, "trialdata": {"rt": -1, "stimulus": "<p id=\"stim\">10</p>", "key_press": -1, "trial_type": "single-stim", "trial_index": 44, "time_elapsed": 451114, "internal_node_id": "0.0-35.0-0.0"}}, {"uniqueid": "MTK0079:3VZLGYJEYMH9FFXDG413B8A2QDKZXE", "current_trial": 45, "dateTime": 1509131894680, "trialdata": {"rt": -1, "stimulus": "<p id=\"stim\">9</p>", "key_press": -1, "trial_type": "single-stim", "trial_index": 45, "time_elapsed": 452116, "internal_node_id": "0.0-35.0-1.0"}}, {"uniqueid": "MTK0079:3VZLGYJEYMH9FFXDG413B8A2QDKZXE", "current_trial": 46, "dateTime": 1509131895682, "trialdata": {"rt": -1, "stimulus": "<p id=\"stim\">8</p>", "key_press": -1, "trial_type": "single-stim", "trial_index": 46, "time_elapsed": 453118, "internal_node_id": "0.0-35.0-2.0"}}, {"uniqueid": "MTK0079:3VZLGYJEYMH9FFXDG413B8A2QDKZXE", "current_trial": 47, "dateTime": 1509131896684, "trialdata": {"rt": -1, "stimulus": "<p id=\"stim\">7</p>", "key_press": -1, "trial_type": "single-stim", "trial_index": 47, "time_elapsed": 454120, "internal_node_id": "0.0-35.0-3.0"}}, {"uniqueid": "MTK0079:3VZLGYJEYMH9FFXDG413B8A2QDKZXE", "current_trial": 48, "dateTime": 1509131897684, "trialdata": {"rt": -1, "stimulus": "<p id=\"stim\">6</p>", "key_press": -1, "trial_type": "single-stim", "trial_index": 48, "time_elapsed": 455120, "internal_node_id": "0.0-35.0-4.0"}}, {"uniqueid": "MTK0079:3VZLGYJEYMH9FFXDG413B8A2QDKZXE", "current_trial": 49, "dateTime": 1509131898687, "trialdata": {"rt": -1, "stimulus": "<p id=\"stim\">5</p>", "key_press": -1, "trial_type": "single-stim", "trial_index": 49, "time_elapsed": 456123, "internal_node_id": "0.0-35.0-5.0"}}, {"uniqueid": "MTK0079:3VZLGYJEYMH9FFXDG413B8A2QDKZXE", "current_trial": 50, "dateTime": 1509131899689, "trialdata": {"rt": -1, "stimulus": "<p id=\"stim\">4</p>", "key_press": -1, "trial_type": "single-stim", "trial_index": 50, "time_elapsed": 457124, "internal_node_id": "0.0-35.0-6.0"}}, {"uniqueid": "MTK0079:3VZLGYJEYMH9FFXDG413B8A2QDKZXE", "current_trial": 51, "dateTime": 1509131900690, "trialdata": {"rt": -1, "stimulus": "<p id=\"stim\">3</p>", "key_press": -1, "trial_type": "single-stim", "trial_index": 51, "time_elapsed": 458126, "internal_node_id": "0.0-35.0-7.0"}}, {"uniqueid": "MTK0079:3VZLGYJEYMH9FFXDG413B8A2QDKZXE", "current_trial": 52, "dateTime": 1509131901692, "trialdata": {"rt": -1, "stimulus": "<p id=\"stim\">2</p>", "key_press": -1, "trial_type": "single-stim", "trial_index": 52, "time_elapsed": 459127, "internal_node_id": "0.0-35.0-8.0"}}, {"uniqueid": "MTK0079:3VZLGYJEYMH9FFXDG413B8A2QDKZXE", "current_trial": 53, "dateTime": 1509131902693, "trialdata": {"rt": -1, "stimulus": "<p id=\"stim\">1</p>", "key_press": -1, "trial_type": "single-stim", "trial_index": 53, "time_elapsed": 460129, "internal_node_id": "0.0-35.0-9.0"}}, {"uniqueid": "MTK0079:3VZLGYJEYMH9FFXDG413B8A2QDKZXE", "current_trial": 54, "dateTime": 1509131904194, "trialdata": {"rt": -1, "stimulus": "<p id=\"stim\">+</p>", "key_press": -1, "type": "FIXATION", "trial_type": "single-stim", "trial_index": 54, "time_elapsed": 461630, "internal_node_id": "0.0-36.0-0.0"}}, {"uniqueid": "MTK0079:3VZLGYJEYMH9FFXDG413B8A2QDKZXE", "current_trial": 55, "dateTime": 1509131905396, "trialdata": {"rt": -1, "stimulus": "<p id=\"stim\">NEUTRON</p>", "key_press": -1, "type": "PRES_VIS", "word": "neutron", "wordID": 946, "conditions": [18, 1200, "v", 18000], "trial": 1, "serialpos": 0, "trial_type": "single-stim", "trial_index": 55, "time_elapsed": 462832, "internal_node_id": "0.0-37.0"}}, {"uniqueid": "MTK0079:3VZLGYJEYMH9FFXDG413B8A2QDKZXE", "current_trial": 56, "dateTime": 1509131907493, "trialdata": {"rt": -1, "stimulus": "<p id=\"stim\">LETTUCE</p>", "key_press": -1, "type": "PRES_VIS", "word": "lettuce", "wordID": 813, "conditions": [18, 1200, "v", 18000], "trial": 1, "serialpos": 1, "trial_type": "single-stim", "trial_index": 56, "time_elapsed": 464929, "internal_node_id": "0.0-38.0"}}, {"uniqueid": "MTK0079:3VZLGYJEYMH9FFXDG413B8A2QDKZXE", "current_trial": 57, "dateTime": 1509131909551, "trialdata": {"rt": -1, "stimulus": "<p id=\"stim\">PARENT</p>", "key_press": -1, "type": "PRES_VIS", "word": "parent", "wordID": 1012, "conditions": [18, 1200, "v", 18000], "trial": 1, "serialpos": 2, "trial_type": "single-stim", "trial_index": 57, "time_elapsed": 466987, "internal_node_id": "0.0-39.0"}}, {"uniqueid": "MTK0079:3VZLGYJEYMH9FFXDG413B8A2QDKZXE", "current_trial": 58, "dateTime": 1509131911585, "trialdata": {"rt": -1, "stimulus": "<p id=\"stim\">MONEY</p>", "key_press": -1, "type": "PRES_VIS", "word": "money", "wordID": 907, "conditions": [18, 1200, "v", 18000], "trial": 1, "serialpos": 3, "trial_type": "single-stim", "trial_index": 58, "time_elapsed": 469021, "internal_node_id": "0.0-40.0"}}, {"uniqueid": "MTK0079:3VZLGYJEYMH9FFXDG413B8A2QDKZXE", "current_trial": 59, "dateTime": 1509131913606, "trialdata": {"rt": -1, "stimulus": "<p id=\"stim\">SCOTCH</p>", "key_press": -1, "type": "PRES_VIS", "word": "scotch", "wordID": 1250, "conditions": [18, 1200, "v", 18000], "trial": 1, "serialpos": 4, "trial_type": "single-stim", "trial_index": 59, "time_elapsed": 471042, "internal_node_id": "0.0-41.0"}}, {"uniqueid": "MTK0079:3VZLGYJEYMH9FFXDG413B8A2QDKZXE", "current_trial": 60, "dateTime": 1509131915846, "trialdata": {"rt": -1, "stimulus": "<p id=\"stim\">LEADER</p>", "key_press": -1, "type": "PRES_VIS", "word": "leader", "wordID": 806, "conditions": [18, 1200, "v", 18000], "trial": 1, "serialpos": 5, "trial_type": "single-stim", "trial_index": 60, "time_elapsed": 473282, "internal_node_id": "0.0-42.0"}}, {"uniqueid": "MTK0079:3VZLGYJEYMH9FFXDG413B8A2QDKZXE", "current_trial": 61, "dateTime": 1509131918013, "trialdata": {"rt": -1, "stimulus": "<p id=\"stim\">SPOUSE</p>", "key_press": -1, "type": "PRES_VIS", "word": "spouse", "wordID": 1357, "conditions": [18, 1200, "v", 18000], "trial": 1, "serialpos": 6, "trial_type": "single-stim", "trial_index": 61, "time_elapsed": 475449, "internal_node_id": "0.0-43.0"}}, {"uniqueid": "MTK0079:3VZLGYJEYMH9FFXDG413B8A2QDKZXE", "current_trial": 62, "dateTime": 1509131920217, "trialdata": {"rt": -1, "stimulus": "<p id=\"stim\">SUNSET</p>", "key_press": -1, "type": "PRES_VIS", "word": "sunset", "wordID": 1407, "conditions": [18, 1200, "v", 18000], "trial": 1, "serialpos": 7, "trial_type": "single-stim", "trial_index": 62, "time_elapsed": 477653, "internal_node_id": "0.0-44.0"}}, {"uniqueid": "MTK0079:3VZLGYJEYMH9FFXDG413B8A2QDKZXE", "current_trial": 63, "dateTime": 1509131922507, "trialdata": {"rt": -1, "stimulus": "<p id=\"stim\">BRIEFCASE</p>", "key_press": -1, "type": "PRES_VIS", "word": "briefcase", "wordID": 174, "conditions": [18, 1200, "v", 18000], "trial": 1, "serialpos": 8, "trial_type": "single-stim", "trial_index": 63, "time_elapsed": 479943, "internal_node_id": "0.0-45.0"}}, {"uniqueid": "MTK0079:3VZLGYJEYMH9FFXDG413B8A2QDKZXE", "current_trial": 64, "dateTime": 1509131924633, "trialdata": {"rt": -1, "stimulus": "<p id=\"stim\">FLESH</p>", "key_press": -1, "type": "PRES_VIS", "word": "flesh", "wordID": 578, "conditions": [18, 1200, "v", 18000], "trial": 1, "serialpos": 9, "trial_type": "single-stim", "trial_index": 64, "time_elapsed": 482069, "internal_node_id": "0.0-46.0"}}, {"uniqueid": "MTK0079:3VZLGYJEYMH9FFXDG413B8A2QDKZXE", "current_trial": 65, "dateTime": 1509131926924, "trialdata": {"rt": -1, "stimulus": "<p id=\"stim\">BLUEPRINT</p>", "key_press": -1, "type": "PRES_VIS", "word": "blueprint", "wordID": 141, "conditions": [18, 1200, "v", 18000], "trial": 1, "serialpos": 10, "trial_type": "single-stim", "trial_index": 65, "time_elapsed": 484360, "internal_node_id": "0.0-47.0"}}, {"uniqueid": "MTK0079:3VZLGYJEYMH9FFXDG413B8A2QDKZXE", "current_trial": 66, "dateTime": 1509131929299, "trialdata": {"rt": -1, "stimulus": "<p id=\"stim\">COMPASS</p>", "key_press": -1, "type": "PRES_VIS", "word": "compass", "wordID": 357, "conditions": [18, 1200, "v", 18000], "trial": 1, "serialpos": 11, "trial_type": "single-stim", "trial_index": 66, "time_elapsed": 486735, "internal_node_id": "0.0-48.0"}}, {"uniqueid": "MTK0079:3VZLGYJEYMH9FFXDG413B8A2QDKZXE", "current_trial": 67, "dateTime": 1509131931585, "trialdata": {"rt": -1, "stimulus": "<p id=\"stim\">WIDOW</p>", "key_press": -1, "type": "PRES_VIS", "word": "widow", "wordID": 1607, "conditions": [18, 1200, "v", 18000], "trial": 1, "serialpos": 12, "trial_type": "single-stim", "trial_index": 67, "time_elapsed": 489021, "internal_node_id": "0.0-49.0"}}, {"uniqueid": "MTK0079:3VZLGYJEYMH9FFXDG413B8A2QDKZXE", "current_trial": 68, "dateTime": 1509131933700, "trialdata": {"rt": -1, "stimulus": "<p id=\"stim\">BUNNY</p>", "key_press": -1, "type": "PRES_VIS", "word": "bunny", "wordID": 197, "conditions": [18, 1200, "v", 18000], "trial": 1, "serialpos": 13, "trial_type": "single-stim", "trial_index": 68, "time_elapsed": 491133, "internal_node_id": "0.0-50.0"}}, {"uniqueid": "MTK0079:3VZLGYJEYMH9FFXDG413B8A2QDKZXE", "current_trial": 69, "dateTime": 1509131935974, "trialdata": {"rt": -1, "stimulus": "<p id=\"stim\">TWEEZERS</p>", "key_press": -1, "type": "PRES_VIS", "word": "tweezers", "wordID": 1525, "conditions": [18, 1200, "v", 18000], "trial": 1, "serialpos": 14, "trial_type": "single-stim", "trial_index": 69, "time_elapsed": 493410, "internal_node_id": "0.0-51.0"}}, {"uniqueid": "MTK0079:3VZLGYJEYMH9FFXDG413B8A2QDKZXE", "current_trial": 70, "dateTime": 1509131938256, "trialdata": {"rt": -1, "stimulus": "<p id=\"stim\">TUNNEL</p>", "key_press": -1, "type": "PRES_VIS", "word": "tunnel", "wordID": 1518, "conditions": [18, 1200, "v", 18000], "trial": 1, "serialpos": 15, "trial_type": "single-stim", "trial_index": 70, "time_elapsed": 495692, "internal_node_id": "0.0-52.0"}}, {"uniqueid": "MTK0079:3VZLGYJEYMH9FFXDG413B8A2QDKZXE", "current_trial": 71, "dateTime": 1509131940474, "trialdata": {"rt": -1, "stimulus": "<p id=\"stim\">COCOON</p>", "key_press": -1, "type": "PRES_VIS", "word": "cocoon", "wordID": 338, "conditions": [18, 1200, "v", 18000], "trial": 1, "serialpos": 16, "trial_type": "single-stim", "trial_index": 71, "time_elapsed": 497910, "internal_node_id": "0.0-53.0"}}, {"uniqueid": "MTK0079:3VZLGYJEYMH9FFXDG413B8A2QDKZXE", "current_trial": 72, "dateTime": 1509131942574, "trialdata": {"rt": -1, "stimulus": "<p id=\"stim\">CANDY</p>", "key_press": -1, "type": "PRES_VIS", "word": "candy", "wordID": 229, "conditions": [18, 1200, "v", 18000], "trial": 1, "serialpos": 17, "trial_type": "single-stim", "trial_index": 72, "time_elapsed": 500010, "internal_node_id": "0.0-54.0"}}, {"uniqueid": "MTK0079:3VZLGYJEYMH9FFXDG413B8A2QDKZXE", "current_trial": 73, "dateTime": 1509131945016, "trialdata": {"rt": -1, "stimulus": "", "key_press": -1, "type": "PRE_RECALL_DELAY", "trial_type": "single-stim", "trial_index": 73, "time_elapsed": 502452, "internal_node_id": "0.0-55.0-0.0"}}, {"uniqueid": "MTK0079:3VZLGYJEYMH9FFXDG413B8A2QDKZXE", "current_trial": 74, "dateTime": 1509131945518, "trialdata": {"rt": -1000, "stimulus": "/static/audio/400Hz.wav", "key_press": -1, "type": "PRE_RECALL_ALERT", "trial_type": "single-audio", "trial_index": 74, "time_elapsed": 502954, "internal_node_id": "0.0-56.0"}}, {"uniqueid": "MTK0079:3VZLGYJEYMH9FFXDG413B8A2QDKZXE", "current_trial": 75, "dateTime": 1509132005522, "trialdata": {"rt": [4962, 7089, 9170, 10529, 11810, 12945, 14545, 15985, 18226, 19570, 21649, 25073], "recwords": ["candy", "cocoon", "scotch", "leader", "widow", "bunny", "neutron", "lettuce", "sunset", "spouse", "flesh", "tunnel"], "type": "FREE_RECALL", "conditions": [18, 1200, "v", 18000], "trial": 1, "trial_type": "free-recall", "trial_index": 75, "time_elapsed": 562956, "internal_node_id": "0.0-57.0-0.0"}}, {"uniqueid": "MTK0079:3VZLGYJEYMH9FFXDG413B8A2QDKZXE", "current_trial": 76, "dateTime": 1509132018018, "trialdata": {"rt": 10494, "key_press": 32, "type": "INSTRUCTIONS", "trial_type": "text", "trial_index": 76, "time_elapsed": 575454, "internal_node_id": "0.0-58.0"}}, {"uniqueid": "MTK0079:3VZLGYJEYMH9FFXDG413B8A2QDKZXE", "current_trial": 77, "dateTime": 1509132043023, "trialdata": {"rt": [3060, 4693, 7972, 11029, 13076, 16837, 19092, 21556], "responses": ["15", "12", "18", "13", "13", "9", "14", "24"], "num1": [9, 3, 8, 5, 2, 6, 9, 8, 5], "num2": [1, 7, 3, 1, 9, 1, 1, 8, 1], "num3": [5, 2, 7, 7, 2, 2, 4, 6, 1], "type": "DISTRACTOR", "conditions": [12, 800, "v", 24000], "trial": 2, "trial_type": "math-distractor", "trial_index": 77, "time_elapsed": 600459, "internal_node_id": "0.0-59.0"}}, {"uniqueid": "MTK0079:3VZLGYJEYMH9FFXDG413B8A2QDKZXE", "current_trial": 78, "dateTime": 1509132046025, "trialdata": {"rt": -1, "stimulus": "<p id=\"stim\">10</p>", "key_press": -1, "trial_type": "single-stim", "trial_index": 78, "time_elapsed": 603461, "internal_node_id": "0.0-60.0-0.0"}}, {"uniqueid": "MTK0079:3VZLGYJEYMH9FFXDG413B8A2QDKZXE", "current_trial": 79, "dateTime": 1509132047028, "trialdata": {"rt": -1, "stimulus": "<p id=\"stim\">9</p>", "key_press": -1, "trial_type": "single-stim", "trial_index": 79, "time_elapsed": 604463, "internal_node_id": "0.0-60.0-1.0"}}, {"uniqueid": "MTK0079:3VZLGYJEYMH9FFXDG413B8A2QDKZXE", "current_trial": 80, "dateTime": 1509132048029, "trialdata": {"rt": -1, "stimulus": "<p id=\"stim\">8</p>", "key_press": -1, "trial_type": "single-stim", "trial_index": 80, "time_elapsed": 605465, "internal_node_id": "0.0-60.0-2.0"}}, {"uniqueid": "MTK0079:3VZLGYJEYMH9FFXDG413B8A2QDKZXE", "current_trial": 81, "dateTime": 1509132049032, "trialdata": {"rt": -1, "stimulus": "<p id=\"stim\">7</p>", "key_press": -1, "trial_type": "single-stim", "trial_index": 81, "time_elapsed": 606468, "internal_node_id": "0.0-60.0-3.0"}}, {"uniqueid": "MTK0079:3VZLGYJEYMH9FFXDG413B8A2QDKZXE", "current_trial": 82, "dateTime": 1509132050033, "trialdata": {"rt": -1, "stimulus": "<p id=\"stim\">6</p>", "key_press": -1, "trial_type": "single-stim", "trial_index": 82, "time_elapsed": 607469, "internal_node_id": "0.0-60.0-4.0"}}, {"uniqueid": "MTK0079:3VZLGYJEYMH9FFXDG413B8A2QDKZXE", "current_trial": 83, "dateTime": 1509132051035, "trialdata": {"rt": -1, "stimulus": "<p id=\"stim\">5</p>", "key_press": -1, "trial_type": "single-stim", "trial_index": 83, "time_elapsed": 608471, "internal_node_id": "0.0-60.0-5.0"}}, {"uniqueid": "MTK0079:3VZLGYJEYMH9FFXDG413B8A2QDKZXE", "current_trial": 84, "dateTime": 1509132052036, "trialdata": {"rt": -1, "stimulus": "<p id=\"stim\">4</p>", "key_press": -1, "trial_type": "single-stim", "trial_index": 84, "time_elapsed": 609472, "internal_node_id": "0.0-60.0-6.0"}}, {"uniqueid": "MTK0079:3VZLGYJEYMH9FFXDG413B8A2QDKZXE", "current_trial": 85, "dateTime": 1509132053039, "trialdata": {"rt": -1, "stimulus": "<p id=\"stim\">3</p>", "key_press": -1, "trial_type": "single-stim", "trial_index": 85, "time_elapsed": 610475, "internal_node_id": "0.0-60.0-7.0"}}, {"uniqueid": "MTK0079:3VZLGYJEYMH9FFXDG413B8A2QDKZXE", "current_trial": 86, "dateTime": 1509132054040, "trialdata": {"rt": -1, "stimulus": "<p id=\"stim\">2</p>", "key_press": -1, "trial_type": "single-stim", "trial_index": 86, "time_elapsed": 611476, "internal_node_id": "0.0-60.0-8.0"}}, {"uniqueid": "MTK0079:3VZLGYJEYMH9FFXDG413B8A2QDKZXE", "current_trial": 87, "dateTime": 1509132055042, "trialdata": {"rt": -1, "stimulus": "<p id=\"stim\">1</p>", "key_press": -1, "trial_type": "single-stim", "trial_index": 87, "time_elapsed": 612477, "internal_node_id": "0.0-60.0-9.0"}}, {"uniqueid": "MTK0079:3VZLGYJEYMH9FFXDG413B8A2QDKZXE", "current_trial": 88, "dateTime": 1509132056544, "trialdata": {"rt": -1, "stimulus": "<p id=\"stim\">+</p>", "key_press": -1, "type": "FIXATION", "trial_type": "single-stim", "trial_index": 88, "time_elapsed": 613980, "internal_node_id": "0.0-61.0-0.0"}}, {"uniqueid": "MTK0079:3VZLGYJEYMH9FFXDG413B8A2QDKZXE", "current_trial": 89, "dateTime": 1509132057346, "trialdata": {"rt": -1, "stimulus": "<p id=\"stim\">SHOULDER</p>", "key_press": -1, "type": "PRES_VIS", "word": "shoulder", "wordID": 1293, "conditions": [12, 800, "v", 24000], "trial": 2, "serialpos": 0, "trial_type": "single-stim", "trial_index": 89, "time_elapsed": 614782, "internal_node_id": "0.0-62.0"}}, {"uniqueid": "MTK0079:3VZLGYJEYMH9FFXDG413B8A2QDKZXE", "current_trial": 90, "dateTime": 1509132059271, "trialdata": {"rt": -1, "stimulus": "<p id=\"stim\">CUSTARD</p>", "key_press": -1, "type": "PRES_VIS", "word": "custard", "wordID": 428, "conditions": [12, 800, "v", 24000], "trial": 2, "serialpos": 1, "trial_type": "single-stim", "trial_index": 90, "time_elapsed": 616707, "internal_node_id": "0.0-63.0"}}, {"uniqueid": "MTK0079:3VZLGYJEYMH9FFXDG413B8A2QDKZXE", "current_trial": 91, "dateTime": 1509132061059, "trialdata": {"rt": -1, "stimulus": "<p id=\"stim\">SAUSAGE</p>", "key_press": -1, "type": "PRES_VIS", "word": "sausage", "wordID": 1237, "conditions": [12, 800, "v", 24000], "trial": 2, "serialpos": 2, "trial_type": "single-stim", "trial_index": 91, "time_elapsed": 618495, "internal_node_id": "0.0-64.0"}}, {"uniqueid": "MTK0079:3VZLGYJEYMH9FFXDG413B8A2QDKZXE", "current_trial": 92, "dateTime": 1509132062859, "trialdata": {"rt": -1, "stimulus": "<p id=\"stim\">ELBOW</p>", "key_press": -1, "type": "PRES_VIS", "word": "elbow", "wordID": 519, "conditions": [12, 800, "v", 24000], "trial": 2, "serialpos": 3, "trial_type": "single-stim", "trial_index": 92, "time_elapsed": 620295, "internal_node_id": "0.0-65.0"}}, {"uniqueid": "MTK0079:3VZLGYJEYMH9FFXDG413B8A2QDKZXE", "current_trial": 93, "dateTime": 1509132064660, "trialdata": {"rt": -1, "stimulus": "<p id=\"stim\">PIANO</p>", "key_press": -1, "type": "PRES_VIS", "word": "piano", "wordID": 1056, "conditions": [12, 800, "v", 24000], "trial": 2, "serialpos": 4, "trial_type": "single-stim", "trial_index": 93, "time_elapsed": 622096, "internal_node_id": "0.0-66.0"}}, {"uniqueid": "MTK0079:3VZLGYJEYMH9FFXDG413B8A2QDKZXE", "current_trial": 94, "dateTime": 1509132066567, "trialdata": {"rt": -1, "stimulus": "<p id=\"stim\">ORANGE</p>", "key_press": -1, "type": "PRES_VIS", "word": "orange", "wordID": 979, "conditions": [12, 800, "v", 24000], "trial": 2, "serialpos": 5, "trial_type": "single-stim", "trial_index": 94, "time_elapsed": 624003, "internal_node_id": "0.0-67.0"}}, {"uniqueid": "MTK0079:3VZLGYJEYMH9FFXDG413B8A2QDKZXE", "current_trial": 95, "dateTime": 1509132068551, "trialdata": {"rt": -1, "stimulus": "<p id=\"stim\">MAILMAN</p>", "key_press": -1, "type": "PRES_VIS", "word": "mailman", "wordID": 857, "conditions": [12, 800, "v", 24000], "trial": 2, "serialpos": 6, "trial_type": "single-stim", "trial_index": 95, "time_elapsed": 625987, "internal_node_id": "0.0-68.0"}}, {"uniqueid": "MTK0079:3VZLGYJEYMH9FFXDG413B8A2QDKZXE", "current_trial": 96, "dateTime": 1509132070178, "trialdata": {"rt": -1, "stimulus": "<p id=\"stim\">ARM</p>", "key_press": -1, "type": "PRES_VIS", "word": "arm", "wordID": 37, "conditions": [12, 800, "v", 24000], "trial": 2, "serialpos": 7, "trial_type": "single-stim", "trial_index": 96, "time_elapsed": 627614, "internal_node_id": "0.0-69.0"}}, {"uniqueid": "MTK0079:3VZLGYJEYMH9FFXDG413B8A2QDKZXE", "current_trial": 97, "dateTime": 1509132072076, "trialdata": {"rt": -1, "stimulus": "<p id=\"stim\">BISON</p>", "key_press": -1, "type": "PRES_VIS", "word": "bison", "wordID": 130, "conditions": [12, 800, "v", 24000], "trial": 2, "serialpos": 8, "trial_type": "single-stim", "trial_index": 97, "time_elapsed": 629512, "internal_node_id": "0.0-70.0"}}, {"uniqueid": "MTK0079:3VZLGYJEYMH9FFXDG413B8A2QDKZXE", "current_trial": 98, "dateTime": 1509132073719, "trialdata": {"rt": -1, "stimulus": "<p id=\"stim\">DOLPHIN</p>", "key_press": -1, "type": "PRES_VIS", "word": "dolphin", "wordID": 482, "conditions": [12, 800, "v", 24000], "trial": 2, "serialpos": 9, "trial_type": "single-stim", "trial_index": 98, "time_elapsed": 631155, "internal_node_id": "0.0-71.0"}}, {"uniqueid": "MTK0079:3VZLGYJEYMH9FFXDG413B8A2QDKZXE", "current_trial": 99, "dateTime": 1509132075666, "trialdata": {"rt": -1, "stimulus": "<p id=\"stim\">MARSH</p>", "key_press": -1, "type": "PRES_VIS", "word": "marsh", "wordID": 873, "conditions": [12, 800, "v", 24000], "trial": 2, "serialpos": 10, "trial_type": "single-stim", "trial_index": 99, "time_elapsed": 633102, "internal_node_id": "0.0-72.0"}}, {"uniqueid": "MTK0079:3VZLGYJEYMH9FFXDG413B8A2QDKZXE", "current_trial": 100, "dateTime": 1509132077339, "trialdata": {"rt": -1, "stimulus": "<p id=\"stim\">CATTLE</p>", "key_press": -1, "type": "PRES_VIS", "word": "cattle", "wordID": 260, "conditions": [12, 800, "v", 24000], "trial": 2, "serialpos": 11, "trial_type": "single-stim", "trial_index": 100, "time_elapsed": 634775, "internal_node_id": "0.0-73.0"}}, {"uniqueid": "MTK0079:3VZLGYJEYMH9FFXDG413B8A2QDKZXE", "current_trial": 101, "dateTime": 1509132079513, "trialdata": {"rt": -1, "stimulus": "", "key_press": -1, "type": "PRE_RECALL_DELAY", "trial_type": "single-stim", "trial_index": 101, "time_elapsed": 636949, "internal_node_id": "0.0-74.0-0.0"}}, {"uniqueid": "MTK0079:3VZLGYJEYMH9FFXDG413B8A2QDKZXE", "current_trial": 102, "dateTime": 1509132080014, "trialdata": {"rt": -1000, "stimulus": "/static/audio/400Hz.wav", "key_press": -1, "type": "PRE_RECALL_ALERT", "trial_type": "single-audio", "trial_index": 102, "time_elapsed": 637450, "internal_node_id": "0.0-75.0"}}, {"uniqueid": "MTK0079:3VZLGYJEYMH9FFXDG413B8A2QDKZXE", "current_trial": 103, "dateTime": 1509132140017, "trialdata": {"rt": [2177, 3778, 4514, 5810, 7617, 11746, 13457, 14466, 18913], "recwords": ["cattle", "marsh", "arm", "mailman", "shoulder", "custard", "piano", "elbow", "bison"], "type": "FREE_RECALL", "conditions": [12, 800, "v", 24000], "trial": 2, "trial_type": "free-recall", "trial_index": 103, "time_elapsed": 697452, "internal_node_id": "0.0-76.0-0.0"}}, {"uniqueid": "MTK0079:3VZLGYJEYMH9FFXDG413B8A2QDKZXE", "current_trial": 104, "dateTime": 1509132151490, "trialdata": {"rt": 9471, "key_press": 32, "type": "INSTRUCTIONS", "trial_type": "text", "trial_index": 104, "time_elapsed": 708926, "internal_node_id": "0.0-77.0"}}, {"uniqueid": "MTK0079:3VZLGYJEYMH9FFXDG413B8A2QDKZXE", "current_trial": 105, "dateTime": 1509132177495, "trialdata": {"rt": [2718, 5774, 8414, 12622, 17838, 22237], "responses": ["19", "14", "21", "12", "22", "18"], "num1": [5, 3, 9, 4, 5, 4, 6], "num2": [9, 5, 7, 7, 8, 8, 2], "num3": [5, 6, 5, 1, 9, 6, 1], "type": "DISTRACTOR", "conditions": [24, 1600, "v", 24000], "trial": 3, "trial_type": "math-distractor", "trial_index": 105, "time_elapsed": 734929, "internal_node_id": "0.0-78.0"}}, {"uniqueid": "MTK0079:3VZLGYJEYMH9FFXDG413B8A2QDKZXE", "current_trial": 106, "dateTime": 1509132180496, "trialdata": {"rt": -1, "stimulus": "<p id=\"stim\">10</p>", "key_press": -1, "trial_type": "single-stim", "trial_index": 106, "time_elapsed": 737932, "internal_node_id": "0.0-79.0-0.0"}}, {"uniqueid": "MTK0079:3VZLGYJEYMH9FFXDG413B8A2QDKZXE", "current_trial": 107, "dateTime": 1509132181497, "trialdata": {"rt": -1, "stimulus": "<p id=\"stim\">9</p>", "key_press": -1, "trial_type": "single-stim", "trial_index": 107, "time_elapsed": 738933, "internal_node_id": "0.0-79.0-1.0"}}, {"uniqueid": "MTK0079:3VZLGYJEYMH9FFXDG413B8A2QDKZXE", "current_trial": 108, "dateTime": 1509132182499, "trialdata": {"rt": -1, "stimulus": "<p id=\"stim\">8</p>", "key_press": -1, "trial_type": "single-stim", "trial_index": 108, "time_elapsed": 739935, "internal_node_id": "0.0-79.0-2.0"}}, {"uniqueid": "MTK0079:3VZLGYJEYMH9FFXDG413B8A2QDKZXE", "current_trial": 109, "dateTime": 1509132183501, "trialdata": {"rt": -1, "stimulus": "<p id=\"stim\">7</p>", "key_press": -1, "trial_type": "single-stim", "trial_index": 109, "time_elapsed": 740937, "internal_node_id": "0.0-79.0-3.0"}}, {"uniqueid": "MTK0079:3VZLGYJEYMH9FFXDG413B8A2QDKZXE", "current_trial": 110, "dateTime": 1509132184502, "trialdata": {"rt": -1, "stimulus": "<p id=\"stim\">6</p>", "key_press": -1, "trial_type": "single-stim", "trial_index": 110, "time_elapsed": 741938, "internal_node_id": "0.0-79.0-4.0"}}, {"uniqueid": "MTK0079:3VZLGYJEYMH9FFXDG413B8A2QDKZXE", "current_trial": 111, "dateTime": 1509132185504, "trialdata": {"rt": -1, "stimulus": "<p id=\"stim\">5</p>", "key_press": -1, "trial_type": "single-stim", "trial_index": 111, "time_elapsed": 742940, "internal_node_id": "0.0-79.0-5.0"}}, {"uniqueid": "MTK0079:3VZLGYJEYMH9FFXDG413B8A2QDKZXE", "current_trial": 112, "dateTime": 1509132186507, "trialdata": {"rt": -1, "stimulus": "<p id=\"stim\">4</p>", "key_press": -1, "trial_type": "single-stim", "trial_index": 112, "time_elapsed": 743941, "internal_node_id": "0.0-79.0-6.0"}}, {"uniqueid": "MTK0079:3VZLGYJEYMH9FFXDG413B8A2QDKZXE", "current_trial": 113, "dateTime": 1509132187508, "trialdata": {"rt": -1, "stimulus": "<p id=\"stim\">3</p>", "key_press": -1, "trial_type": "single-stim", "trial_index": 113, "time_elapsed": 744944, "internal_node_id": "0.0-79.0-7.0"}}, {"uniqueid": "MTK0079:3VZLGYJEYMH9FFXDG413B8A2QDKZXE", "current_trial": 114, "dateTime": 1509132188509, "trialdata": {"rt": -1, "stimulus": "<p id=\"stim\">2</p>", "key_press": -1, "trial_type": "single-stim", "trial_index": 114, "time_elapsed": 745945, "internal_node_id": "0.0-79.0-8.0"}}, {"uniqueid": "MTK0079:3VZLGYJEYMH9FFXDG413B8A2QDKZXE", "current_trial": 115, "dateTime": 1509132189511, "trialdata": {"rt": -1, "stimulus": "<p id=\"stim\">1</p>", "key_press": -1, "trial_type": "single-stim", "trial_index": 115, "time_elapsed": 746947, "internal_node_id": "0.0-79.0-9.0"}}, {"uniqueid": "MTK0079:3VZLGYJEYMH9FFXDG413B8A2QDKZXE", "current_trial": 116, "dateTime": 1509132191013, "trialdata": {"rt": -1, "stimulus": "<p id=\"stim\">+</p>", "key_press": -1, "type": "FIXATION", "trial_type": "single-stim", "trial_index": 116, "time_elapsed": 748449, "internal_node_id": "0.0-80.0-0.0"}}, {"uniqueid": "MTK0079:3VZLGYJEYMH9FFXDG413B8A2QDKZXE", "current_trial": 117, "dateTime": 1509132192614, "trialdata": {"rt": -1, "stimulus": "<p id=\"stim\">DRAWING</p>", "key_press": -1, "type": "PRES_VIS", "word": "drawing", "wordID": 493, "conditions": [24, 1600, "v", 24000], "trial": 3, "serialpos": 0, "trial_type": "single-stim", "trial_index": 117, "time_elapsed": 750050, "internal_node_id": "0.0-81.0"}}, {"uniqueid": "MTK0079:3VZLGYJEYMH9FFXDG413B8A2QDKZXE", "current_trial": 118, "dateTime": 1509132195122, "trialdata": {"rt": -1, "stimulus": "<p id=\"stim\">SHOVEL</p>", "key_press": -1, "type": "PRES_VIS", "word": "shovel", "wordID": 1294, "conditions": [24, 1600, "v", 24000], "trial": 3, "serialpos": 1, "trial_type": "single-stim", "trial_index": 118, "time_elapsed": 752558, "internal_node_id": "0.0-82.0"}}, {"uniqueid": "MTK0079:3VZLGYJEYMH9FFXDG413B8A2QDKZXE", "current_trial": 119, "dateTime": 1509132197695, "trialdata": {"rt": -1, "stimulus": "<p id=\"stim\">ACTOR</p>", "key_press": -1, "type": "PRES_VIS", "word": "actor", "wordID": 4, "conditions": [24, 1600, "v", 24000], "trial": 3, "serialpos": 2, "trial_type": "single-stim", "trial_index": 119, "time_elapsed": 755131, "internal_node_id": "0.0-83.0"}}, {"uniqueid": "MTK0079:3VZLGYJEYMH9FFXDG413B8A2QDKZXE", "current_trial": 120, "dateTime": 1509132200241, "trialdata": {"rt": -1, "stimulus": "<p id=\"stim\">TOASTER</p>", "key_press": -1, "type": "PRES_VIS", "word": "toaster", "wordID": 1471, "conditions": [24, 1600, "v", 24000], "trial": 3, "serialpos": 3, "trial_type": "single-stim", "trial_index": 120, "time_elapsed": 757677, "internal_node_id": "0.0-84.0"}}, {"uniqueid": "MTK0079:3VZLGYJEYMH9FFXDG413B8A2QDKZXE", "current_trial": 121, "dateTime": 1509132202790, "trialdata": {"rt": -1, "stimulus": "<p id=\"stim\">GLASS</p>", "key_press": -1, "type": "PRES_VIS", "word": "glass", "wordID": 638, "conditions": [24, 1600, "v", 24000], "trial": 3, "serialpos": 4, "trial_type": "single-stim", "trial_index": 121, "time_elapsed": 760226, "internal_node_id": "0.0-85.0"}}, {"uniqueid": "MTK0079:3VZLGYJEYMH9FFXDG413B8A2QDKZXE", "current_trial": 122, "dateTime": 1509132205518, "trialdata": {"rt": -1, "stimulus": "<p id=\"stim\">ACTRESS</p>", "key_press": -1, "type": "PRES_VIS", "word": "actress", "wordID": 5, "conditions": [24, 1600, "v", 24000], "trial": 3, "serialpos": 5, "trial_type": "single-stim", "trial_index": 122, "time_elapsed": 762954, "internal_node_id": "0.0-86.0"}}, {"uniqueid": "MTK0079:3VZLGYJEYMH9FFXDG413B8A2QDKZXE", "current_trial": 123, "dateTime": 1509132208223, "trialdata": {"rt": -1, "stimulus": "<p id=\"stim\">ASIA</p>", "key_press": -1, "type": "PRES_VIS", "word": "asia", "wordID": 45, "conditions": [24, 1600, "v", 24000], "trial": 3, "serialpos": 6, "trial_type": "single-stim", "trial_index": 123, "time_elapsed": 765659, "internal_node_id": "0.0-87.0"}}, {"uniqueid": "MTK0079:3VZLGYJEYMH9FFXDG413B8A2QDKZXE", "current_trial": 124, "dateTime": 1509132210891, "trialdata": {"rt": -1, "stimulus": "<p id=\"stim\">EUROPE</p>", "key_press": -1, "type": "PRES_VIS", "word": "europe", "wordID": 540, "conditions": [24, 1600, "v", 24000], "trial": 3, "serialpos": 7, "trial_type": "single-stim", "trial_index": 124, "time_elapsed": 768327, "internal_node_id": "0.0-88.0"}}, {"uniqueid": "MTK0079:3VZLGYJEYMH9FFXDG413B8A2QDKZXE", "current_trial": 125, "dateTime": 1509132213439, "trialdata": {"rt": -1, "stimulus": "<p id=\"stim\">BRACES</p>", "key_press": -1, "type": "PRES_VIS", "word": "braces", "wordID": 163, "conditions": [24, 1600, "v", 24000], "trial": 3, "serialpos": 8, "trial_type": "single-stim", "trial_index": 125, "time_elapsed": 770875, "internal_node_id": "0.0-89.0"}}, {"uniqueid": "MTK0079:3VZLGYJEYMH9FFXDG413B8A2QDKZXE", "current_trial": 126, "dateTime": 1509132216194, "trialdata": {"rt": -1, "stimulus": "<p id=\"stim\">FLASK</p>", "key_press": -1, "type": "PRES_VIS", "word": "flask", "wordID": 575, "conditions": [24, 1600, "v", 24000], "trial": 3, "serialpos": 9, "trial_type": "single-stim", "trial_index": 126, "time_elapsed": 773630, "internal_node_id": "0.0-90.0"}}, {"uniqueid": "MTK0079:3VZLGYJEYMH9FFXDG413B8A2QDKZXE", "current_trial": 127, "dateTime": 1509132218855, "trialdata": {"rt": -1, "stimulus": "<p id=\"stim\">SNACK</p>", "key_press": -1, "type": "PRES_VIS", "word": "snack", "wordID": 1330, "conditions": [24, 1600, "v", 24000], "trial": 3, "serialpos": 10, "trial_type": "single-stim", "trial_index": 127, "time_elapsed": 776291, "internal_node_id": "0.0-91.0"}}, {"uniqueid": "MTK0079:3VZLGYJEYMH9FFXDG413B8A2QDKZXE", "current_trial": 128, "dateTime": 1509132221582, "trialdata": {"rt": -1, "stimulus": "<p id=\"stim\">DUST</p>", "key_press": -1, "type": "PRES_VIS", "word": "dust", "wordID": 507, "conditions": [24, 1600, "v", 24000], "trial": 3, "serialpos": 11, "trial_type": "single-stim", "trial_index": 128, "time_elapsed": 779018, "internal_node_id": "0.0-92.0"}}, {"uniqueid": "MTK0079:3VZLGYJEYMH9FFXDG413B8A2QDKZXE", "current_trial": 129, "dateTime": 1509132224040, "trialdata": {"rt": -1, "stimulus": "<p id=\"stim\">GLOVE</p>", "key_press": -1, "type": "PRES_VIS", "word": "glove", "wordID": 641, "conditions": [24, 1600, "v", 24000], "trial": 3, "serialpos": 12, "trial_type": "single-stim", "trial_index": 129, "time_elapsed": 781476, "internal_node_id": "0.0-93.0"}}, {"uniqueid": "MTK0079:3VZLGYJEYMH9FFXDG413B8A2QDKZXE", "current_trial": 130, "dateTime": 1509132226655, "trialdata": {"rt": -1, "stimulus": "<p id=\"stim\">XEROX</p>", "key_press": -1, "type": "PRES_VIS", "word": "xerox", "wordID": 1627, "conditions": [24, 1600, "v", 24000], "trial": 3, "serialpos": 13, "trial_type": "single-stim", "trial_index": 130, "time_elapsed": 784091, "internal_node_id": "0.0-94.0"}}, {"uniqueid": "MTK0079:3VZLGYJEYMH9FFXDG413B8A2QDKZXE", "current_trial": 131, "dateTime": 1509132229370, "trialdata": {"rt": -1, "stimulus": "<p id=\"stim\">PASSAGE</p>", "key_press": -1, "type": "PRES_VIS", "word": "passage", "wordID": 1018, "conditions": [24, 1600, "v", 24000], "trial": 3, "serialpos": 14, "trial_type": "single-stim", "trial_index": 131, "time_elapsed": 786806, "internal_node_id": "0.0-95.0"}}, {"uniqueid": "MTK0079:3VZLGYJEYMH9FFXDG413B8A2QDKZXE", "current_trial": 132, "dateTime": 1509132231822, "trialdata": {"rt": -1, "stimulus": "<p id=\"stim\">DANDRUFF</p>", "key_press": -1, "type": "PRES_VIS", "word": "dandruff", "wordID": 438, "conditions": [24, 1600, "v", 24000], "trial": 3, "serialpos": 15, "trial_type": "single-stim", "trial_index": 132, "time_elapsed": 789258, "internal_node_id": "0.0-96.0"}}, {"uniqueid": "MTK0079:3VZLGYJEYMH9FFXDG413B8A2QDKZXE", "current_trial": 133, "dateTime": 1509132234582, "trialdata": {"rt": -1, "stimulus": "<p id=\"stim\">KLEENEX</p>", "key_press": -1, "type": "PRES_VIS", "word": "kleenex", "wordID": 781, "conditions": [24, 1600, "v", 24000], "trial": 3, "serialpos": 16, "trial_type": "single-stim", "trial_index": 133, "time_elapsed": 792018, "internal_node_id": "0.0-97.0"}}, {"uniqueid": "MTK0079:3VZLGYJEYMH9FFXDG413B8A2QDKZXE", "current_trial": 134, "dateTime": 1509132237277, "trialdata": {"rt": -1, "stimulus": "<p id=\"stim\">PRINCESS</p>", "key_press": -1, "type": "PRES_VIS", "word": "princess", "wordID": 1124, "conditions": [24, 1600, "v", 24000], "trial": 3, "serialpos": 17, "trial_type": "single-stim", "trial_index": 134, "time_elapsed": 794713, "internal_node_id": "0.0-98.0"}}, {"uniqueid": "MTK0079:3VZLGYJEYMH9FFXDG413B8A2QDKZXE", "current_trial": 135, "dateTime": 1509132240075, "trialdata": {"rt": -1, "stimulus": "<p id=\"stim\">WIFE</p>", "key_press": -1, "type": "PRES_VIS", "word": "wife", "wordID": 1608, "conditions": [24, 1600, "v", 24000], "trial": 3, "serialpos": 18, "trial_type": "single-stim", "trial_index": 135, "time_elapsed": 797511, "internal_node_id": "0.0-99.0"}}, {"uniqueid": "MTK0079:3VZLGYJEYMH9FFXDG413B8A2QDKZXE", "current_trial": 136, "dateTime": 1509132242590, "trialdata": {"rt": -1, "stimulus": "<p id=\"stim\">COUNTRY</p>", "key_press": -1, "type": "PRES_VIS", "word": "country", "wordID": 387, "conditions": [24, 1600, "v", 24000], "trial": 3, "serialpos": 19, "trial_type": "single-stim", "trial_index": 136, "time_elapsed": 800026, "internal_node_id": "0.0-100.0"}}, {"uniqueid": "MTK0079:3VZLGYJEYMH9FFXDG413B8A2QDKZXE", "current_trial": 137, "dateTime": 1509132245161, "trialdata": {"rt": -1, "stimulus": "<p id=\"stim\">WORLD</p>", "key_press": -1, "type": "PRES_VIS", "word": "world", "wordID": 1621, "conditions": [24, 1600, "v", 24000], "trial": 3, "serialpos": 20, "trial_type": "single-stim", "trial_index": 137, "time_elapsed": 802597, "internal_node_id": "0.0-101.0"}}, {"uniqueid": "MTK0079:3VZLGYJEYMH9FFXDG413B8A2QDKZXE", "current_trial": 138, "dateTime": 1509132247780, "trialdata": {"rt": -1, "stimulus": "<p id=\"stim\">PERCH</p>", "key_press": -1, "type": "PRES_VIS", "word": "perch", "wordID": 1047, "conditions": [24, 1600, "v", 24000], "trial": 3, "serialpos": 21, "trial_type": "single-stim", "trial_index": 138, "time_elapsed": 805216, "internal_node_id": "0.0-102.0"}}, {"uniqueid": "MTK0079:3VZLGYJEYMH9FFXDG413B8A2QDKZXE", "current_trial": 139, "dateTime": 1509132250394, "trialdata": {"rt": -1, "stimulus": "<p id=\"stim\">LIVER</p>", "key_press": -1, "type": "PRES_VIS", "word": "liver", "wordID": 832, "conditions": [24, 1600, "v", 24000], "trial": 3, "serialpos": 22, "trial_type": "single-stim", "trial_index": 139, "time_elapsed": 807830, "internal_node_id": "0.0-103.0"}}, {"uniqueid": "MTK0079:3VZLGYJEYMH9FFXDG413B8A2QDKZXE", "current_trial": 140, "dateTime": 1509132252869, "trialdata": {"rt": -1, "stimulus": "<p id=\"stim\">QUEEN</p>", "key_press": -1, "type": "PRES_VIS", "word": "queen", "wordID": 1148, "conditions": [24, 1600, "v", 24000], "trial": 3, "serialpos": 23, "trial_type": "single-stim", "trial_index": 140, "time_elapsed": 810305, "internal_node_id": "0.0-104.0"}}, {"uniqueid": "MTK0079:3VZLGYJEYMH9FFXDG413B8A2QDKZXE", "current_trial": 141, "dateTime": 1509132255185, "trialdata": {"rt": -1, "stimulus": "", "key_press": -1, "type": "PRE_RECALL_DELAY", "trial_type": "single-stim", "trial_index": 141, "time_elapsed": 812621, "internal_node_id": "0.0-105.0-0.0"}}, {"uniqueid": "MTK0079:3VZLGYJEYMH9FFXDG413B8A2QDKZXE", "current_trial": 142, "dateTime": 1509132255688, "trialdata": {"rt": -1000, "stimulus": "/static/audio/400Hz.wav", "key_press": -1, "type": "PRE_RECALL_ALERT", "trial_type": "single-audio", "trial_index": 142, "time_elapsed": 813123, "internal_node_id": "0.0-106.0"}}, {"uniqueid": "MTK0079:3VZLGYJEYMH9FFXDG413B8A2QDKZXE", "current_trial": 143, "dateTime": 1509132315692, "trialdata": {"rt": [5434, 6938, 7818, 9626, 10490, 12314, 14458, 16474, 17578, 19306, 20554, 27050], "recwords": ["queen", "princess", "wordl", "world", "asia", "europe", "country", "shovel", "actor", "actress", "liver", "glass"], "type": "FREE_RECALL", "conditions": [24, 1600, "v", 24000], "trial": 3, "trial_type": "free-recall", "trial_index": 143, "time_elapsed": 873125, "internal_node_id": "0.0-107.0-0.0"}}, {"uniqueid": "MTK0079:3VZLGYJEYMH9FFXDG413B8A2QDKZXE", "current_trial": 144, "dateTime": 1509132347282, "trialdata": {"rt": 29588, "key_press": 32, "type": "INSTRUCTIONS", "trial_type": "text", "trial_index": 144, "time_elapsed": 904718, "internal_node_id": "0.0-108.0"}}, {"uniqueid": "MTK0079:3VZLGYJEYMH9FFXDG413B8A2QDKZXE", "current_trial": 145, "dateTime": 1509132361287, "trialdata": {"rt": [3020, 5548, 8573, 10684], "responses": ["6", "14", "10", "18"], "num1": [3, 3, 2, 7, 2], "num2": [2, 9, 3, 7, 2], "num3": [1, 2, 5, 4, 9], "type": "DISTRACTOR", "conditions": [24, 800, "v", 12000], "trial": 4, "trial_type": "math-distractor", "trial_index": 145, "time_elapsed": 918723, "internal_node_id": "0.0-109.0"}}, {"uniqueid": "MTK0079:3VZLGYJEYMH9FFXDG413B8A2QDKZXE", "current_trial": 146, "dateTime": 1509132364290, "trialdata": {"rt": -1, "stimulus": "<p id=\"stim\">10</p>", "key_press": -1, "trial_type": "single-stim", "trial_index": 146, "time_elapsed": 921726, "internal_node_id": "0.0-110.0-0.0"}}, {"uniqueid": "MTK0079:3VZLGYJEYMH9FFXDG413B8A2QDKZXE", "current_trial": 147, "dateTime": 1509132365291, "trialdata": {"rt": -1, "stimulus": "<p id=\"stim\">9</p>", "key_press": -1, "trial_type": "single-stim", "trial_index": 147, "time_elapsed": 922727, "internal_node_id": "0.0-110.0-1.0"}}, {"uniqueid": "MTK0079:3VZLGYJEYMH9FFXDG413B8A2QDKZXE", "current_trial": 148, "dateTime": 1509132366294, "trialdata": {"rt": -1, "stimulus": "<p id=\"stim\">8</p>", "key_press": -1, "trial_type": "single-stim", "trial_index": 148, "time_elapsed": 923730, "internal_node_id": "0.0-110.0-2.0"}}, {"uniqueid": "MTK0079:3VZLGYJEYMH9FFXDG413B8A2QDKZXE", "current_trial": 149, "dateTime": 1509132367295, "trialdata": {"rt": -1, "stimulus": "<p id=\"stim\">7</p>", "key_press": -1, "trial_type": "single-stim", "trial_index": 149, "time_elapsed": 924731, "internal_node_id": "0.0-110.0-3.0"}}, {"uniqueid": "MTK0079:3VZLGYJEYMH9FFXDG413B8A2QDKZXE", "current_trial": 150, "dateTime": 1509132368296, "trialdata": {"rt": -1, "stimulus": "<p id=\"stim\">6</p>", "key_press": -1, "trial_type": "single-stim", "trial_index": 150, "time_elapsed": 925732, "internal_node_id": "0.0-110.0-4.0"}}, {"uniqueid": "MTK0079:3VZLGYJEYMH9FFXDG413B8A2QDKZXE", "current_trial": 151, "dateTime": 1509132369298, "trialdata": {"rt": -1, "stimulus": "<p id=\"stim\">5</p>", "key_press": -1, "trial_type": "single-stim", "trial_index": 151, "time_elapsed": 926734, "internal_node_id": "0.0-110.0-5.0"}}, {"uniqueid": "MTK0079:3VZLGYJEYMH9FFXDG413B8A2QDKZXE", "current_trial": 152, "dateTime": 1509132370301, "trialdata": {"rt": -1, "stimulus": "<p id=\"stim\">4</p>", "key_press": -1, "trial_type": "single-stim", "trial_index": 152, "time_elapsed": 927737, "internal_node_id": "0.0-110.0-6.0"}}, {"uniqueid": "MTK0079:3VZLGYJEYMH9FFXDG413B8A2QDKZXE", "current_trial": 153, "dateTime": 1509132371303, "trialdata": {"rt": -1, "stimulus": "<p id=\"stim\">3</p>", "key_press": -1, "trial_type": "single-stim", "trial_index": 153, "time_elapsed": 928739, "internal_node_id": "0.0-110.0-7.0"}}, {"uniqueid": "MTK0079:3VZLGYJEYMH9FFXDG413B8A2QDKZXE", "current_trial": 154, "dateTime": 1509132372305, "trialdata": {"rt": -1, "stimulus": "<p id=\"stim\">2</p>", "key_press": -1, "trial_type": "single-stim", "trial_index": 154, "time_elapsed": 929741, "internal_node_id": "0.0-110.0-8.0"}}, {"uniqueid": "MTK0079:3VZLGYJEYMH9FFXDG413B8A2QDKZXE", "current_trial": 155, "dateTime": 1509132373307, "trialdata": {"rt": -1, "stimulus": "<p id=\"stim\">1</p>", "key_press": -1, "trial_type": "single-stim", "trial_index": 155, "time_elapsed": 930743, "internal_node_id": "0.0-110.0-9.0"}}, {"uniqueid": "MTK0079:3VZLGYJEYMH9FFXDG413B8A2QDKZXE", "current_trial": 156, "dateTime": 1509132374808, "trialdata": {"rt": -1, "stimulus": "<p id=\"stim\">+</p>", "key_press": -1, "type": "FIXATION", "trial_type": "single-stim", "trial_index": 156, "time_elapsed": 932244, "internal_node_id": "0.0-111.0-0.0"}}, {"uniqueid": "MTK0079:3VZLGYJEYMH9FFXDG413B8A2QDKZXE", "current_trial": 157, "dateTime": 1509132375609, "trialdata": {"rt": -1, "stimulus": "<p id=\"stim\">TURKEY</p>", "key_press": -1, "type": "PRES_VIS", "word": "turkey", "wordID": 1519, "conditions": [24, 800, "v", 12000], "trial": 4, "serialpos": 0, "trial_type": "single-stim", "trial_index": 157, "time_elapsed": 933045, "internal_node_id": "0.0-112.0"}}, {"uniqueid": "MTK0079:3VZLGYJEYMH9FFXDG413B8A2QDKZXE", "current_trial": 158, "dateTime": 1509132377302, "trialdata": {"rt": -1, "stimulus": "<p id=\"stim\">JUDGE</p>", "key_press": -1, "type": "PRES_VIS", "word": "judge", "wordID": 760, "conditions": [24, 800, "v", 12000], "trial": 4, "serialpos": 1, "trial_type": "single-stim", "trial_index": 158, "time_elapsed": 934735, "internal_node_id": "0.0-113.0"}}, {"uniqueid": "MTK0079:3VZLGYJEYMH9FFXDG413B8A2QDKZXE", "current_trial": 159, "dateTime": 1509132379089, "trialdata": {"rt": -1, "stimulus": "<p id=\"stim\">PADDING</p>", "key_press": -1, "type": "PRES_VIS", "word": "padding", "wordID": 998, "conditions": [24, 800, "v", 12000], "trial": 4, "serialpos": 2, "trial_type": "single-stim", "trial_index": 159, "time_elapsed": 936525, "internal_node_id": "0.0-114.0"}}, {"uniqueid": "MTK0079:3VZLGYJEYMH9FFXDG413B8A2QDKZXE", "current_trial": 160, "dateTime": 1509132381029, "trialdata": {"rt": -1, "stimulus": "<p id=\"stim\">BLADE</p>", "key_press": -1, "type": "PRES_VIS", "word": "blade", "wordID": 133, "conditions": [24, 800, "v", 12000], "trial": 4, "serialpos": 3, "trial_type": "single-stim", "trial_index": 160, "time_elapsed": 938465, "internal_node_id": "0.0-115.0"}}, {"uniqueid": "MTK0079:3VZLGYJEYMH9FFXDG413B8A2QDKZXE", "current_trial": 161, "dateTime": 1509132382719, "trialdata": {"rt": -1, "stimulus": "<p id=\"stim\">COWBOY</p>", "key_press": -1, "type": "PRES_VIS", "word": "cowboy", "wordID": 394, "conditions": [24, 800, "v", 12000], "trial": 4, "serialpos": 4, "trial_type": "single-stim", "trial_index": 161, "time_elapsed": 940155, "internal_node_id": "0.0-116.0"}}, {"uniqueid": "MTK0079:3VZLGYJEYMH9FFXDG413B8A2QDKZXE", "current_trial": 162, "dateTime": 1509132384695, "trialdata": {"rt": -1, "stimulus": "<p id=\"stim\">JURY</p>", "key_press": -1, "type": "PRES_VIS", "word": "jury", "wordID": 765, "conditions": [24, 800, "v", 12000], "trial": 4, "serialpos": 5, "trial_type": "single-stim", "trial_index": 162, "time_elapsed": 942131, "internal_node_id": "0.0-117.0"}}, {"uniqueid": "MTK0079:3VZLGYJEYMH9FFXDG413B8A2QDKZXE", "current_trial": 163, "dateTime": 1509132386486, "trialdata": {"rt": -1, "stimulus": "<p id=\"stim\">BUTCHER</p>", "key_press": -1, "type": "PRES_VIS", "word": "butcher", "wordID": 202, "conditions": [24, 800, "v", 12000], "trial": 4, "serialpos": 6, "trial_type": "single-stim", "trial_index": 163, "time_elapsed": 943922, "internal_node_id": "0.0-118.0"}}, {"uniqueid": "MTK0079:3VZLGYJEYMH9FFXDG413B8A2QDKZXE", "current_trial": 164, "dateTime": 1509132388261, "trialdata": {"rt": -1, "stimulus": "<p id=\"stim\">LUMBER</p>", "key_press": -1, "type": "PRES_VIS", "word": "lumber", "wordID": 847, "conditions": [24, 800, "v", 12000], "trial": 4, "serialpos": 7, "trial_type": "single-stim", "trial_index": 164, "time_elapsed": 945697, "internal_node_id": "0.0-119.0"}}, {"uniqueid": "MTK0079:3VZLGYJEYMH9FFXDG413B8A2QDKZXE", "current_trial": 165, "dateTime": 1509132390144, "trialdata": {"rt": -1, "stimulus": "<p id=\"stim\">REPORT</p>", "key_press": -1, "type": "PRES_VIS", "word": "report", "wordID": 1183, "conditions": [24, 800, "v", 12000], "trial": 4, "serialpos": 8, "trial_type": "single-stim", "trial_index": 165, "time_elapsed": 947580, "internal_node_id": "0.0-120.0"}}, {"uniqueid": "MTK0079:3VZLGYJEYMH9FFXDG413B8A2QDKZXE", "current_trial": 166, "dateTime": 1509132392042, "trialdata": {"rt": -1, "stimulus": "<p id=\"stim\">SODA</p>", "key_press": -1, "type": "PRES_VIS", "word": "soda", "wordID": 1340, "conditions": [24, 800, "v", 12000], "trial": 4, "serialpos": 9, "trial_type": "single-stim", "trial_index": 166, "time_elapsed": 949478, "internal_node_id": "0.0-121.0"}}, {"uniqueid": "MTK0079:3VZLGYJEYMH9FFXDG413B8A2QDKZXE", "current_trial": 167, "dateTime": 1509132393731, "trialdata": {"rt": -1, "stimulus": "<p id=\"stim\">COFFEE</p>", "key_press": -1, "type": "PRES_VIS", "word": "coffee", "wordID": 340, "conditions": [24, 800, "v", 12000], "trial": 4, "serialpos": 10, "trial_type": "single-stim", "trial_index": 167, "time_elapsed": 951167, "internal_node_id": "0.0-122.0"}}, {"uniqueid": "MTK0079:3VZLGYJEYMH9FFXDG413B8A2QDKZXE", "current_trial": 168, "dateTime": 1509132395540, "trialdata": {"rt": -1, "stimulus": "<p id=\"stim\">BLOUSE</p>", "key_press": -1, "type": "PRES_VIS", "word": "blouse", "wordID": 138, "conditions": [24, 800, "v", 12000], "trial": 4, "serialpos": 11, "trial_type": "single-stim", "trial_index": 168, "time_elapsed": 952976, "internal_node_id": "0.0-123.0"}}, {"uniqueid": "MTK0079:3VZLGYJEYMH9FFXDG413B8A2QDKZXE", "current_trial": 169, "dateTime": 1509132397208, "trialdata": {"rt": -1, "stimulus": "<p id=\"stim\">TEMPLE</p>", "key_press": -1, "type": "PRES_VIS", "word": "temple", "wordID": 1447, "conditions": [24, 800, "v", 12000], "trial": 4, "serialpos": 12, "trial_type": "single-stim", "trial_index": 169, "time_elapsed": 954644, "internal_node_id": "0.0-124.0"}}, {"uniqueid": "MTK0079:3VZLGYJEYMH9FFXDG413B8A2QDKZXE", "current_trial": 170, "dateTime": 1509132398891, "trialdata": {"rt": -1, "stimulus": "<p id=\"stim\">PATROL</p>", "key_press": -1, "type": "PRES_VIS", "word": "patrol", "wordID": 1026, "conditions": [24, 800, "v", 12000], "trial": 4, "serialpos": 13, "trial_type": "single-stim", "trial_index": 170, "time_elapsed": 956327, "internal_node_id": "0.0-125.0"}}, {"uniqueid": "MTK0079:3VZLGYJEYMH9FFXDG413B8A2QDKZXE", "current_trial": 171, "dateTime": 1509132400886, "trialdata": {"rt": -1, "stimulus": "<p id=\"stim\">POLICE</p>", "key_press": -1, "type": "PRES_VIS", "word": "police", "wordID": 1097, "conditions": [24, 800, "v", 12000], "trial": 4, "serialpos": 14, "trial_type": "single-stim", "trial_index": 171, "time_elapsed": 958322, "internal_node_id": "0.0-126.0"}}, {"uniqueid": "MTK0079:3VZLGYJEYMH9FFXDG413B8A2QDKZXE", "current_trial": 172, "dateTime": 1509132402708, "trialdata": {"rt": -1, "stimulus": "<p id=\"stim\">PIGEON</p>", "key_press": -1, "type": "PRES_VIS", "word": "pigeon", "wordID": 1064, "conditions": [24, 800, "v", 12000], "trial": 4, "serialpos": 15, "trial_type": "single-stim", "trial_index": 172, "time_elapsed": 960144, "internal_node_id": "0.0-127.0"}}, {"uniqueid": "MTK0079:3VZLGYJEYMH9FFXDG413B8A2QDKZXE", "current_trial": 173, "dateTime": 1509132404583, "trialdata": {"rt": -1, "stimulus": "<p id=\"stim\">PARSLEY</p>", "key_press": -1, "type": "PRES_VIS", "word": "parsley", "wordID": 1015, "conditions": [24, 800, "v", 12000], "trial": 4, "serialpos": 16, "trial_type": "single-stim", "trial_index": 173, "time_elapsed": 962019, "internal_node_id": "0.0-128.0"}}, {"uniqueid": "MTK0079:3VZLGYJEYMH9FFXDG413B8A2QDKZXE", "current_trial": 174, "dateTime": 1509132406541, "trialdata": {"rt": -1, "stimulus": "<p id=\"stim\">FRIEND</p>", "key_press": -1, "type": "PRES_VIS", "word": "friend", "wordID": 605, "conditions": [24, 800, "v", 12000], "trial": 4, "serialpos": 17, "trial_type": "single-stim", "trial_index": 174, "time_elapsed": 963977, "internal_node_id": "0.0-129.0"}}, {"uniqueid": "MTK0079:3VZLGYJEYMH9FFXDG413B8A2QDKZXE", "current_trial": 175, "dateTime": 1509132408465, "trialdata": {"rt": -1, "stimulus": "<p id=\"stim\">MARINE</p>", "key_press": -1, "type": "PRES_VIS", "word": "marine", "wordID": 868, "conditions": [24, 800, "v", 12000], "trial": 4, "serialpos": 18, "trial_type": "single-stim", "trial_index": 175, "time_elapsed": 965901, "internal_node_id": "0.0-130.0"}}, {"uniqueid": "MTK0079:3VZLGYJEYMH9FFXDG413B8A2QDKZXE", "current_trial": 176, "dateTime": 1509132410233, "trialdata": {"rt": -1, "stimulus": "<p id=\"stim\">WINDOW</p>", "key_press": -1, "type": "PRES_VIS", "word": "window", "wordID": 1610, "conditions": [24, 800, "v", 12000], "trial": 4, "serialpos": 19, "trial_type": "single-stim", "trial_index": 176, "time_elapsed": 967669, "internal_node_id": "0.0-131.0"}}, {"uniqueid": "MTK0079:3VZLGYJEYMH9FFXDG413B8A2QDKZXE", "current_trial": 177, "dateTime": 1509132412188, "trialdata": {"rt": -1, "stimulus": "<p id=\"stim\">CANYON</p>", "key_press": -1, "type": "PRES_VIS", "word": "canyon", "wordID": 234, "conditions": [24, 800, "v", 12000], "trial": 4, "serialpos": 20, "trial_type": "single-stim", "trial_index": 177, "time_elapsed": 969624, "internal_node_id": "0.0-132.0"}}, {"uniqueid": "MTK0079:3VZLGYJEYMH9FFXDG413B8A2QDKZXE", "current_trial": 178, "dateTime": 1509132414085, "trialdata": {"rt": -1, "stimulus": "<p id=\"stim\">RELISH</p>", "key_press": -1, "type": "PRES_VIS", "word": "relish", "wordID": 1182, "conditions": [24, 800, "v", 12000], "trial": 4, "serialpos": 21, "trial_type": "single-stim", "trial_index": 178, "time_elapsed": 971521, "internal_node_id": "0.0-133.0"}}, {"uniqueid": "MTK0079:3VZLGYJEYMH9FFXDG413B8A2QDKZXE", "current_trial": 179, "dateTime": 1509132415733, "trialdata": {"rt": -1, "stimulus": "<p id=\"stim\">SKILLET</p>", "key_press": -1, "type": "PRES_VIS", "word": "skillet", "wordID": 1316, "conditions": [24, 800, "v", 12000], "trial": 4, "serialpos": 22, "trial_type": "single-stim", "trial_index": 179, "time_elapsed": 973169, "internal_node_id": "0.0-134.0"}}, {"uniqueid": "MTK0079:3VZLGYJEYMH9FFXDG413B8A2QDKZXE", "current_trial": 180, "dateTime": 1509132417633, "trialdata": {"rt": -1, "stimulus": "<p id=\"stim\">CABBAGE</p>", "key_press": -1, "type": "PRES_VIS", "word": "cabbage", "wordID": 209, "conditions": [24, 800, "v", 12000], "trial": 4, "serialpos": 23, "trial_type": "single-stim", "trial_index": 180, "time_elapsed": 975069, "internal_node_id": "0.0-135.0"}}, {"uniqueid": "MTK0079:3VZLGYJEYMH9FFXDG413B8A2QDKZXE", "current_trial": 181, "dateTime": 1509132420057, "trialdata": {"rt": -1, "stimulus": "", "key_press": -1, "type": "PRE_RECALL_DELAY", "trial_type": "single-stim", "trial_index": 181, "time_elapsed": 977493, "internal_node_id": "0.0-136.0-0.0"}}, {"uniqueid": "MTK0079:3VZLGYJEYMH9FFXDG413B8A2QDKZXE", "current_trial": 182, "dateTime": 1509132420559, "trialdata": {"rt": -1000, "stimulus": "/static/audio/400Hz.wav", "key_press": -1, "type": "PRE_RECALL_ALERT", "trial_type": "single-audio", "trial_index": 182, "time_elapsed": 977995, "internal_node_id": "0.0-137.0"}}, {"uniqueid": "MTK0079:3VZLGYJEYMH9FFXDG413B8A2QDKZXE", "current_trial": 183, "dateTime": 1509132480563, "trialdata": {"rt": [3665, 4705, 5873, 6737, 9873, 11841, 12817, 17649, 20385, 23233, 24481, 28017, 31041], "recwords": ["cabbage", "skillet", "police", "marine", "patrol", "turkey", "soda", "canyon", "window", "blade", "butcher", "padding", "coffee"], "type": "FREE_RECALL", "conditions": [24, 800, "v", 12000], "trial": 4, "trial_type": "free-recall", "trial_index": 183, "time_elapsed": 1037998, "internal_node_id": "0.0-138.0-0.0"}}, {"uniqueid": "MTK0079:3VZLGYJEYMH9FFXDG413B8A2QDKZXE", "current_trial": 184, "dateTime": 1509132487378, "trialdata": {"rt": 4814, "key_press": 13, "type": "INSTRUCTIONS", "trial_type": "text", "trial_index": 184, "time_elapsed": 1044814, "internal_node_id": "0.0-139.0"}}, {"uniqueid": "MTK0079:3VZLGYJEYMH9FFXDG413B8A2QDKZXE", "current_trial": 185, "dateTime": 1509132501380, "trialdata": {"rt": [4415, 6319, 7919, 10415], "responses": ["18", "15", "12", "8"], "num1": [3, 1, 6, 1, 6], "num2": [7, 5, 5, 5, 2], "num3": [8, 9, 1, 2, 4], "type": "DISTRACTOR", "conditions": [12, 1600, "a", 12000], "trial": 5, "trial_type": "math-distractor", "trial_index": 185, "time_elapsed": 1058816, "internal_node_id": "0.0-140.0"}}, {"uniqueid": "MTK0079:3VZLGYJEYMH9FFXDG413B8A2QDKZXE", "current_trial": 186, "dateTime": 1509132504381, "trialdata": {"rt": -1, "stimulus": "<p id=\"stim\">10</p>", "key_press": -1, "trial_type": "single-stim", "trial_index": 186, "time_elapsed": 1061817, "internal_node_id": "0.0-141.0-0.0"}}, {"uniqueid": "MTK0079:3VZLGYJEYMH9FFXDG413B8A2QDKZXE", "current_trial": 187, "dateTime": 1509132505382, "trialdata": {"rt": -1, "stimulus": "<p id=\"stim\">9</p>", "key_press": -1, "trial_type": "single-stim", "trial_index": 187, "time_elapsed": 1062818, "internal_node_id": "0.0-141.0-1.0"}}, {"uniqueid": "MTK0079:3VZLGYJEYMH9FFXDG413B8A2QDKZXE", "current_trial": 188, "dateTime": 1509132506383, "trialdata": {"rt": -1, "stimulus": "<p id=\"stim\">8</p>", "key_press": -1, "trial_type": "single-stim", "trial_index": 188, "time_elapsed": 1063819, "internal_node_id": "0.0-141.0-2.0"}}, {"uniqueid": "MTK0079:3VZLGYJEYMH9FFXDG413B8A2QDKZXE", "current_trial": 189, "dateTime": 1509132507384, "trialdata": {"rt": -1, "stimulus": "<p id=\"stim\">7</p>", "key_press": -1, "trial_type": "single-stim", "trial_index": 189, "time_elapsed": 1064820, "internal_node_id": "0.0-141.0-3.0"}}, {"uniqueid": "MTK0079:3VZLGYJEYMH9FFXDG413B8A2QDKZXE", "current_trial": 190, "dateTime": 1509132508386, "trialdata": {"rt": -1, "stimulus": "<p id=\"stim\">6</p>", "key_press": -1, "trial_type": "single-stim", "trial_index": 190, "time_elapsed": 1065822, "internal_node_id": "0.0-141.0-4.0"}}, {"uniqueid": "MTK0079:3VZLGYJEYMH9FFXDG413B8A2QDKZXE", "current_trial": 191, "dateTime": 1509132509387, "trialdata": {"rt": -1, "stimulus": "<p id=\"stim\">5</p>", "key_press": -1, "trial_type": "single-stim", "trial_index": 191, "time_elapsed": 1066823, "internal_node_id": "0.0-141.0-5.0"}}, {"uniqueid": "MTK0079:3VZLGYJEYMH9FFXDG413B8A2QDKZXE", "current_trial": 192, "dateTime": 1509132510389, "trialdata": {"rt": -1, "stimulus": "<p id=\"stim\">4</p>", "key_press": -1, "trial_type": "single-stim", "trial_index": 192, "time_elapsed": 1067825, "internal_node_id": "0.0-141.0-6.0"}}, {"uniqueid": "MTK0079:3VZLGYJEYMH9FFXDG413B8A2QDKZXE", "current_trial": 193, "dateTime": 1509132511390, "trialdata": {"rt": -1, "stimulus": "<p id=\"stim\">3</p>", "key_press": -1, "trial_type": "single-stim", "trial_index": 193, "time_elapsed": 1068826, "internal_node_id": "0.0-141.0-7.0"}}, {"uniqueid": "MTK0079:3VZLGYJEYMH9FFXDG413B8A2QDKZXE", "current_trial": 194, "dateTime": 1509132512391, "trialdata": {"rt": -1, "stimulus": "<p id=\"stim\">2</p>", "key_press": -1, "trial_type": "single-stim", "trial_index": 194, "time_elapsed": 1069827, "internal_node_id": "0.0-141.0-8.0"}}, {"uniqueid": "MTK0079:3VZLGYJEYMH9FFXDG413B8A2QDKZXE", "current_trial": 195, "dateTime": 1509132513392, "trialdata": {"rt": -1, "stimulus": "<p id=\"stim\">1</p>", "key_press": -1, "trial_type": "single-stim", "trial_index": 195, "time_elapsed": 1070828, "internal_node_id": "0.0-141.0-9.0"}}, {"uniqueid": "MTK0079:3VZLGYJEYMH9FFXDG413B8A2QDKZXE", "current_trial": 196, "dateTime": 1509132514893, "trialdata": {"rt": -1, "stimulus": "<p id=\"stim\">+</p>", "key_press": -1, "type": "FIXATION", "trial_type": "single-stim", "trial_index": 196, "time_elapsed": 1072329, "internal_node_id": "0.0-142.0-0.0"}}, {"uniqueid": "MTK0079:3VZLGYJEYMH9FFXDG413B8A2QDKZXE", "current_trial": 197, "dateTime": 1509132517685, "trialdata": {"rt": -1000, "stimulus": "/static/audio/wordpool/COD.wav", "key_press": -1, "type": "PRES_AUD", "word": "cod", "wordID": 339, "conditions": [12, 1600, "a", 12000], "trial": 5, "serialpos": 0, "trial_type": "single-audio", "trial_index": 197, "time_elapsed": 1075121, "internal_node_id": "0.0-143.0"}}, {"uniqueid": "MTK0079:3VZLGYJEYMH9FFXDG413B8A2QDKZXE", "current_trial": 198, "dateTime": 1509132520181, "trialdata": {"rt": -1000, "stimulus": "/static/audio/wordpool/SEAL.wav", "key_press": -1, "type": "PRES_AUD", "word": "seal", "wordID": 1261, "conditions": [12, 1600, "a", 12000], "trial": 5, "serialpos": 1, "trial_type": "single-audio", "trial_index": 198, "time_elapsed": 1077617, "internal_node_id": "0.0-144.0"}}, {"uniqueid": "MTK0079:3VZLGYJEYMH9FFXDG413B8A2QDKZXE", "current_trial": 199, "dateTime": 1509132522744, "trialdata": {"rt": -1000, "stimulus": "/static/audio/wordpool/OFFICE.wav", "key_press": -1, "type": "PRES_AUD", "word": "office", "wordID": 971, "conditions": [12, 1600, "a", 12000], "trial": 5, "serialpos": 2, "trial_type": "single-audio", "trial_index": 199, "time_elapsed": 1080179, "internal_node_id": "0.0-145.0"}}, {"uniqueid": "MTK0079:3VZLGYJEYMH9FFXDG413B8A2QDKZXE", "current_trial": 200, "dateTime": 1509132525242, "trialdata": {"rt": -1000, "stimulus": "/static/audio/wordpool/VELVET.wav", "key_press": -1, "type": "PRES_AUD", "word": "velvet", "wordID": 1554, "conditions": [12, 1600, "a", 12000], "trial": 5, "serialpos": 3, "trial_type": "single-audio", "trial_index": 200, "time_elapsed": 1082678, "internal_node_id": "0.0-146.0"}}, {"uniqueid": "MTK0079:3VZLGYJEYMH9FFXDG413B8A2QDKZXE", "current_trial": 201, "dateTime": 1509132527910, "trialdata": {"rt": -1000, "stimulus": "/static/audio/wordpool/HIGHWAY.wav", "key_press": -1, "type": "PRES_AUD", "word": "highway", "wordID": 706, "conditions": [12, 1600, "a", 12000], "trial": 5, "serialpos": 4, "trial_type": "single-audio", "trial_index": 201, "time_elapsed": 1085346, "internal_node_id": "0.0-147.0"}}, {"uniqueid": "MTK0079:3VZLGYJEYMH9FFXDG413B8A2QDKZXE", "current_trial": 202, "dateTime": 1509132530487, "trialdata": {"rt": -1000, "stimulus": "/static/audio/wordpool/SHERIFF.wav", "key_press": -1, "type": "PRES_AUD", "word": "sheriff", "wordID": 1283, "conditions": [12, 1600, "a", 12000], "trial": 5, "serialpos": 5, "trial_type": "single-audio", "trial_index": 202, "time_elapsed": 1087923, "internal_node_id": "0.0-148.0"}}, {"uniqueid": "MTK0079:3VZLGYJEYMH9FFXDG413B8A2QDKZXE", "current_trial": 203, "dateTime": 1509132532903, "trialdata": {"rt": -1000, "stimulus": "/static/audio/wordpool/PANTHER.wav", "key_press": -1, "type": "PRES_AUD", "word": "panther", "wordID": 1008, "conditions": [12, 1600, "a", 12000], "trial": 5, "serialpos": 6, "trial_type": "single-audio", "trial_index": 203, "time_elapsed": 1090339, "internal_node_id": "0.0-149.0"}}, {"uniqueid": "MTK0079:3VZLGYJEYMH9FFXDG413B8A2QDKZXE", "current_trial": 204, "dateTime": 1509132535701, "trialdata": {"rt": -1000, "stimulus": "/static/audio/wordpool/CRITIC.wav", "key_press": -1, "type": "PRES_AUD", "word": "critic", "wordID": 409, "conditions": [12, 1600, "a", 12000], "trial": 5, "serialpos": 7, "trial_type": "single-audio", "trial_index": 204, "time_elapsed": 1093137, "internal_node_id": "0.0-150.0"}}, {"uniqueid": "MTK0079:3VZLGYJEYMH9FFXDG413B8A2QDKZXE", "current_trial": 205, "dateTime": 1509132538157, "trialdata": {"rt": -1000, "stimulus": "/static/audio/wordpool/PLAID.wav", "key_press": -1, "type": "PRES_AUD", "word": "plaid", "wordID": 1079, "conditions": [12, 1600, "a", 12000], "trial": 5, "serialpos": 8, "trial_type": "single-audio", "trial_index": 205, "time_elapsed": 1095591, "internal_node_id": "0.0-151.0"}}, {"uniqueid": "MTK0079:3VZLGYJEYMH9FFXDG413B8A2QDKZXE", "current_trial": 206, "dateTime": 1509132540830, "trialdata": {"rt": -1000, "stimulus": "/static/audio/wordpool/PECAN.wav", "key_press": -1, "type": "PRES_AUD", "word": "pecan", "wordID": 1035, "conditions": [12, 1600, "a", 12000], "trial": 5, "serialpos": 9, "trial_type": "single-audio", "trial_index": 206, "time_elapsed": 1098266, "internal_node_id": "0.0-152.0"}}, {"uniqueid": "MTK0079:3VZLGYJEYMH9FFXDG413B8A2QDKZXE", "current_trial": 207, "dateTime": 1509132543537, "trialdata": {"rt": -1000, "stimulus": "/static/audio/wordpool/PEANUT.wav", "key_press": -1, "type": "PRES_AUD", "word": "peanut", "wordID": 1031, "conditions": [12, 1600, "a", 12000], "trial": 5, "serialpos": 10, "trial_type": "single-audio", "trial_index": 207, "time_elapsed": 1100973, "internal_node_id": "0.0-153.0"}}, {"uniqueid": "MTK0079:3VZLGYJEYMH9FFXDG413B8A2QDKZXE", "current_trial": 208, "dateTime": 1509132546278, "trialdata": {"rt": -1000, "stimulus": "/static/audio/wordpool/FOREST.wav", "key_press": -1, "type": "PRES_AUD", "word": "forest", "wordID": 592, "conditions": [12, 1600, "a", 12000], "trial": 5, "serialpos": 11, "trial_type": "single-audio", "trial_index": 208, "time_elapsed": 1103713, "internal_node_id": "0.0-154.0"}}, {"uniqueid": "MTK0079:3VZLGYJEYMH9FFXDG413B8A2QDKZXE", "current_trial": 209, "dateTime": 1509132547623, "trialdata": {"rt": -1, "stimulus": "", "key_press": -1, "type": "PRE_RECALL_DELAY", "trial_type": "single-stim", "trial_index": 209, "time_elapsed": 1105059, "internal_node_id": "0.0-155.0-0.0"}}, {"uniqueid": "MTK0079:3VZLGYJEYMH9FFXDG413B8A2QDKZXE", "current_trial": 210, "dateTime": 1509132548125, "trialdata": {"rt": -1000, "stimulus": "/static/audio/400Hz.wav", "key_press": -1, "type": "PRE_RECALL_ALERT", "trial_type": "single-audio", "trial_index": 210, "time_elapsed": 1105561, "internal_node_id": "0.0-156.0"}}, {"uniqueid": "MTK0079:3VZLGYJEYMH9FFXDG413B8A2QDKZXE", "current_trial": 211, "dateTime": 1509132608129, "trialdata": {"rt": [2787, 3716, 4819, 6051, 7091, 9299, 10643, 12659, 15251, 19155], "recwords": ["forest", "pecan", "peanut", "cod", "seal", "critic", "velvet", "office", "plaid", "panther"], "type": "FREE_RECALL", "conditions": [12, 1600, "a", 12000], "trial": 5, "trial_type": "free-recall", "trial_index": 211, "time_elapsed": 1165564, "internal_node_id": "0.0-157.0-0.0"}}, {"uniqueid": "MTK0079:3VZLGYJEYMH9FFXDG413B8A2QDKZXE", "current_trial": 212, "dateTime": 1509132649572, "trialdata": {"rt": 39441, "key_press": 32, "type": "INSTRUCTIONS", "trial_type": "text", "trial_index": 212, "time_elapsed": 1207008, "internal_node_id": "0.0-158.0"}}, {"uniqueid": "MTK0079:3VZLGYJEYMH9FFXDG413B8A2QDKZXE", "current_trial": 213, "dateTime": 1509132675576, "trialdata": {"rt": [2092, 3788, 5325, 7276, 9036, 11340, 13339, 16236, 18796, 20572, 22764], "responses": ["12", "16", "16", "16", "16", "14", "11", "15", "13", "14", "19"], "num1": [2, 1, 4, 9, 9, 6, 2, 6, 2, 8, 7, 6], "num2": [4, 9, 4, 2, 6, 4, 5, 3, 7, 1, 7, 6], "num3": [6, 6, 8, 5, 1, 4, 4, 6, 4, 5, 5, 2], "type": "DISTRACTOR", "conditions": [24, 800, "v", 24000], "trial": 6, "trial_type": "math-distractor", "trial_index": 213, "time_elapsed": 1233011, "internal_node_id": "0.0-159.0"}}, {"uniqueid": "MTK0079:3VZLGYJEYMH9FFXDG413B8A2QDKZXE", "current_trial": 214, "dateTime": 1509132678579, "trialdata": {"rt": -1, "stimulus": "<p id=\"stim\">10</p>", "key_press": -1, "trial_type": "single-stim", "trial_index": 214, "time_elapsed": 1236015, "internal_node_id": "0.0-160.0-0.0"}}, {"uniqueid": "MTK0079:3VZLGYJEYMH9FFXDG413B8A2QDKZXE", "current_trial": 215, "dateTime": 1509132679580, "trialdata": {"rt": -1, "stimulus": "<p id=\"stim\">9</p>", "key_press": -1, "trial_type": "single-stim", "trial_index": 215, "time_elapsed": 1237016, "internal_node_id": "0.0-160.0-1.0"}}, {"uniqueid": "MTK0079:3VZLGYJEYMH9FFXDG413B8A2QDKZXE", "current_trial": 216, "dateTime": 1509132680582, "trialdata": {"rt": -1, "stimulus": "<p id=\"stim\">8</p>", "key_press": -1, "trial_type": "single-stim", "trial_index": 216, "time_elapsed": 1238018, "internal_node_id": "0.0-160.0-2.0"}}, {"uniqueid": "MTK0079:3VZLGYJEYMH9FFXDG413B8A2QDKZXE", "current_trial": 217, "dateTime": 1509132681585, "trialdata": {"rt": -1, "stimulus": "<p id=\"stim\">7</p>", "key_press": -1, "trial_type": "single-stim", "trial_index": 217, "time_elapsed": 1239021, "internal_node_id": "0.0-160.0-3.0"}}, {"uniqueid": "MTK0079:3VZLGYJEYMH9FFXDG413B8A2QDKZXE", "current_trial": 218, "dateTime": 1509132682587, "trialdata": {"rt": -1, "stimulus": "<p id=\"stim\">6</p>", "key_press": -1, "trial_type": "single-stim", "trial_index": 218, "time_elapsed": 1240023, "internal_node_id": "0.0-160.0-4.0"}}, {"uniqueid": "MTK0079:3VZLGYJEYMH9FFXDG413B8A2QDKZXE", "current_trial": 219, "dateTime": 1509132683589, "trialdata": {"rt": -1, "stimulus": "<p id=\"stim\">5</p>", "key_press": -1, "trial_type": "single-stim", "trial_index": 219, "time_elapsed": 1241025, "internal_node_id": "0.0-160.0-5.0"}}, {"uniqueid": "MTK0079:3VZLGYJEYMH9FFXDG413B8A2QDKZXE", "current_trial": 220, "dateTime": 1509132684592, "trialdata": {"rt": -1, "stimulus": "<p id=\"stim\">4</p>", "key_press": -1, "trial_type": "single-stim", "trial_index": 220, "time_elapsed": 1242028, "internal_node_id": "0.0-160.0-6.0"}}, {"uniqueid": "MTK0079:3VZLGYJEYMH9FFXDG413B8A2QDKZXE", "current_trial": 221, "dateTime": 1509132685595, "trialdata": {"rt": -1, "stimulus": "<p id=\"stim\">3</p>", "key_press": -1, "trial_type": "single-stim", "trial_index": 221, "time_elapsed": 1243031, "internal_node_id": "0.0-160.0-7.0"}}, {"uniqueid": "MTK0079:3VZLGYJEYMH9FFXDG413B8A2QDKZXE", "current_trial": 222, "dateTime": 1509132686597, "trialdata": {"rt": -1, "stimulus": "<p id=\"stim\">2</p>", "key_press": -1, "trial_type": "single-stim", "trial_index": 222, "time_elapsed": 1244033, "internal_node_id": "0.0-160.0-8.0"}}, {"uniqueid": "MTK0079:3VZLGYJEYMH9FFXDG413B8A2QDKZXE", "current_trial": 223, "dateTime": 1509132687601, "trialdata": {"rt": -1, "stimulus": "<p id=\"stim\">1</p>", "key_press": -1, "trial_type": "single-stim", "trial_index": 223, "time_elapsed": 1245037, "internal_node_id": "0.0-160.0-9.0"}}, {"uniqueid": "MTK0079:3VZLGYJEYMH9FFXDG413B8A2QDKZXE", "current_trial": 224, "dateTime": 1509132689102, "trialdata": {"rt": -1, "stimulus": "<p id=\"stim\">+</p>", "key_press": -1, "type": "FIXATION", "trial_type": "single-stim", "trial_index": 224, "time_elapsed": 1246538, "internal_node_id": "0.0-161.0-0.0"}}, {"uniqueid": "MTK0079:3VZLGYJEYMH9FFXDG413B8A2QDKZXE", "current_trial": 225, "dateTime": 1509132689903, "trialdata": {"rt": -1, "stimulus": "<p id=\"stim\">BRANCH</p>", "key_press": -1, "type": "PRES_VIS", "word": "branch", "wordID": 167, "conditions": [24, 800, "v", 24000], "trial": 6, "serialpos": 0, "trial_type": "single-stim", "trial_index": 225, "time_elapsed": 1247339, "internal_node_id": "0.0-162.0"}}, {"uniqueid": "MTK0079:3VZLGYJEYMH9FFXDG413B8A2QDKZXE", "current_trial": 226, "dateTime": 1509132691727, "trialdata": {"rt": -1, "stimulus": "<p id=\"stim\">SERVER</p>", "key_press": -1, "type": "PRES_VIS", "word": "server", "wordID": 1271, "conditions": [24, 800, "v", 24000], "trial": 6, "serialpos": 1, "trial_type": "single-stim", "trial_index": 226, "time_elapsed": 1249163, "internal_node_id": "0.0-163.0"}}, {"uniqueid": "MTK0079:3VZLGYJEYMH9FFXDG413B8A2QDKZXE", "current_trial": 227, "dateTime": 1509132693615, "trialdata": {"rt": -1, "stimulus": "<p id=\"stim\">PORK</p>", "key_press": -1, "type": "PRES_VIS", "word": "pork", "wordID": 1107, "conditions": [24, 800, "v", 24000], "trial": 6, "serialpos": 2, "trial_type": "single-stim", "trial_index": 227, "time_elapsed": 1251051, "internal_node_id": "0.0-164.0"}}, {"uniqueid": "MTK0079:3VZLGYJEYMH9FFXDG413B8A2QDKZXE", "current_trial": 228, "dateTime": 1509132695312, "trialdata": {"rt": -1, "stimulus": "<p id=\"stim\">BUG</p>", "key_press": -1, "type": "PRES_VIS", "word": "bug", "wordID": 186, "conditions": [24, 800, "v", 24000], "trial": 6, "serialpos": 3, "trial_type": "single-stim", "trial_index": 228, "time_elapsed": 1252748, "internal_node_id": "0.0-165.0"}}, {"uniqueid": "MTK0079:3VZLGYJEYMH9FFXDG413B8A2QDKZXE", "current_trial": 229, "dateTime": 1509132697198, "trialdata": {"rt": -1, "stimulus": "<p id=\"stim\">VIRUS</p>", "key_press": -1, "type": "PRES_VIS", "word": "virus", "wordID": 1571, "conditions": [24, 800, "v", 24000], "trial": 6, "serialpos": 4, "trial_type": "single-stim", "trial_index": 229, "time_elapsed": 1254634, "internal_node_id": "0.0-166.0"}}, {"uniqueid": "MTK0079:3VZLGYJEYMH9FFXDG413B8A2QDKZXE", "current_trial": 230, "dateTime": 1509132698948, "trialdata": {"rt": -1, "stimulus": "<p id=\"stim\">BUGGY</p>", "key_press": -1, "type": "PRES_VIS", "word": "buggy", "wordID": 187, "conditions": [24, 800, "v", 24000], "trial": 6, "serialpos": 5, "trial_type": "single-stim", "trial_index": 230, "time_elapsed": 1256384, "internal_node_id": "0.0-167.0"}}, {"uniqueid": "MTK0079:3VZLGYJEYMH9FFXDG413B8A2QDKZXE", "current_trial": 231, "dateTime": 1509132700708, "trialdata": {"rt": -1, "stimulus": "<p id=\"stim\">CHAMPAGNE</p>", "key_press": -1, "type": "PRES_VIS", "word": "champagne", "wordID": 277, "conditions": [24, 800, "v", 24000], "trial": 6, "serialpos": 6, "trial_type": "single-stim", "trial_index": 231, "time_elapsed": 1258144, "internal_node_id": "0.0-168.0"}}, {"uniqueid": "MTK0079:3VZLGYJEYMH9FFXDG413B8A2QDKZXE", "current_trial": 232, "dateTime": 1509132702438, "trialdata": {"rt": -1, "stimulus": "<p id=\"stim\">BEAVER</p>", "key_press": -1, "type": "PRES_VIS", "word": "beaver", "wordID": 108, "conditions": [24, 800, "v", 24000], "trial": 6, "serialpos": 7, "trial_type": "single-stim", "trial_index": 232, "time_elapsed": 1259874, "internal_node_id": "0.0-169.0"}}, {"uniqueid": "MTK0079:3VZLGYJEYMH9FFXDG413B8A2QDKZXE", "current_trial": 233, "dateTime": 1509132704339, "trialdata": {"rt": -1, "stimulus": "<p id=\"stim\">SKETCH</p>", "key_press": -1, "type": "PRES_VIS", "word": "sketch", "wordID": 1314, "conditions": [24, 800, "v", 24000], "trial": 6, "serialpos": 8, "trial_type": "single-stim", "trial_index": 233, "time_elapsed": 1261775, "internal_node_id": "0.0-170.0"}}, {"uniqueid": "MTK0079:3VZLGYJEYMH9FFXDG413B8A2QDKZXE", "current_trial": 234, "dateTime": 1509132706228, "trialdata": {"rt": -1, "stimulus": "<p id=\"stim\">BANK</p>", "key_press": -1, "type": "PRES_VIS", "word": "bank", "wordID": 82, "conditions": [24, 800, "v", 24000], "trial": 6, "serialpos": 9, "trial_type": "single-stim", "trial_index": 234, "time_elapsed": 1263664, "internal_node_id": "0.0-171.0"}}, {"uniqueid": "MTK0079:3VZLGYJEYMH9FFXDG413B8A2QDKZXE", "current_trial": 235, "dateTime": 1509132707895, "trialdata": {"rt": -1, "stimulus": "<p id=\"stim\">GAVEL</p>", "key_press": -1, "type": "PRES_VIS", "word": "gavel", "wordID": 626, "conditions": [24, 800, "v", 24000], "trial": 6, "serialpos": 10, "trial_type": "single-stim", "trial_index": 235, "time_elapsed": 1265331, "internal_node_id": "0.0-172.0"}}, {"uniqueid": "MTK0079:3VZLGYJEYMH9FFXDG413B8A2QDKZXE", "current_trial": 236, "dateTime": 1509132709806, "trialdata": {"rt": -1, "stimulus": "<p id=\"stim\">ONION</p>", "key_press": -1, "type": "PRES_VIS", "word": "onion", "wordID": 976, "conditions": [24, 800, "v", 24000], "trial": 6, "serialpos": 11, "trial_type": "single-stim", "trial_index": 236, "time_elapsed": 1267242, "internal_node_id": "0.0-173.0"}}, {"uniqueid": "MTK0079:3VZLGYJEYMH9FFXDG413B8A2QDKZXE", "current_trial": 237, "dateTime": 1509132711420, "trialdata": {"rt": -1, "stimulus": "<p id=\"stim\">BARLEY</p>", "key_press": -1, "type": "PRES_VIS", "word": "barley", "wordID": 87, "conditions": [24, 800, "v", 24000], "trial": 6, "serialpos": 12, "trial_type": "single-stim", "trial_index": 237, "time_elapsed": 1268856, "internal_node_id": "0.0-174.0"}}, {"uniqueid": "MTK0079:3VZLGYJEYMH9FFXDG413B8A2QDKZXE", "current_trial": 238, "dateTime": 1509132713261, "trialdata": {"rt": -1, "stimulus": "<p id=\"stim\">TORTOISE</p>", "key_press": -1, "type": "PRES_VIS", "word": "tortoise", "wordID": 1485, "conditions": [24, 800, "v", 24000], "trial": 6, "serialpos": 13, "trial_type": "single-stim", "trial_index": 238, "time_elapsed": 1270697, "internal_node_id": "0.0-175.0"}}, {"uniqueid": "MTK0079:3VZLGYJEYMH9FFXDG413B8A2QDKZXE", "current_trial": 239, "dateTime": 1509132714959, "trialdata": {"rt": -1, "stimulus": "<p id=\"stim\">KEEPER</p>", "key_press": -1, "type": "PRES_VIS", "word": "keeper", "wordID": 768, "conditions": [24, 800, "v", 24000], "trial": 6, "serialpos": 14, "trial_type": "single-stim", "trial_index": 239, "time_elapsed": 1272395, "internal_node_id": "0.0-176.0"}}, {"uniqueid": "MTK0079:3VZLGYJEYMH9FFXDG413B8A2QDKZXE", "current_trial": 240, "dateTime": 1509132716645, "trialdata": {"rt": -1, "stimulus": "<p id=\"stim\">BLACKBOARD</p>", "key_press": -1, "type": "PRES_VIS", "word": "blackboard", "wordID": 132, "conditions": [24, 800, "v", 24000], "trial": 6, "serialpos": 15, "trial_type": "single-stim", "trial_index": 240, "time_elapsed": 1274081, "internal_node_id": "0.0-177.0"}}, {"uniqueid": "MTK0079:3VZLGYJEYMH9FFXDG413B8A2QDKZXE", "current_trial": 241, "dateTime": 1509132718445, "trialdata": {"rt": -1, "stimulus": "<p id=\"stim\">TABLE</p>", "key_press": -1, "type": "PRES_VIS", "word": "table", "wordID": 1425, "conditions": [24, 800, "v", 24000], "trial": 6, "serialpos": 16, "trial_type": "single-stim", "trial_index": 241, "time_elapsed": 1275881, "internal_node_id": "0.0-178.0"}}, {"uniqueid": "MTK0079:3VZLGYJEYMH9FFXDG413B8A2QDKZXE", "current_trial": 242, "dateTime": 1509132720092, "trialdata": {"rt": -1, "stimulus": "<p id=\"stim\">FRECKLE</p>", "key_press": -1, "type": "PRES_VIS", "word": "freckle", "wordID": 601, "conditions": [24, 800, "v", 24000], "trial": 6, "serialpos": 17, "trial_type": "single-stim", "trial_index": 242, "time_elapsed": 1277528, "internal_node_id": "0.0-179.0"}}, {"uniqueid": "MTK0079:3VZLGYJEYMH9FFXDG413B8A2QDKZXE", "current_trial": 243, "dateTime": 1509132721726, "trialdata": {"rt": -1, "stimulus": "<p id=\"stim\">ITEM</p>", "key_press": -1, "type": "PRES_VIS", "word": "item", "wordID": 745, "conditions": [24, 800, "v", 24000], "trial": 6, "serialpos": 18, "trial_type": "single-stim", "trial_index": 243, "time_elapsed": 1279162, "internal_node_id": "0.0-180.0"}}, {"uniqueid": "MTK0079:3VZLGYJEYMH9FFXDG413B8A2QDKZXE", "current_trial": 244, "dateTime": 1509132723471, "trialdata": {"rt": -1, "stimulus": "<p id=\"stim\">KNIFE</p>", "key_press": -1, "type": "PRES_VIS", "word": "knife", "wordID": 784, "conditions": [24, 800, "v", 24000], "trial": 6, "serialpos": 19, "trial_type": "single-stim", "trial_index": 244, "time_elapsed": 1280907, "internal_node_id": "0.0-181.0"}}, {"uniqueid": "MTK0079:3VZLGYJEYMH9FFXDG413B8A2QDKZXE", "current_trial": 245, "dateTime": 1509132725348, "trialdata": {"rt": -1, "stimulus": "<p id=\"stim\">PISTOL</p>", "key_press": -1, "type": "PRES_VIS", "word": "pistol", "wordID": 1074, "conditions": [24, 800, "v", 24000], "trial": 6, "serialpos": 20, "trial_type": "single-stim", "trial_index": 245, "time_elapsed": 1282784, "internal_node_id": "0.0-182.0"}}, {"uniqueid": "MTK0079:3VZLGYJEYMH9FFXDG413B8A2QDKZXE", "current_trial": 246, "dateTime": 1509132727131, "trialdata": {"rt": -1, "stimulus": "<p id=\"stim\">MATCH</p>", "key_press": -1, "type": "PRES_VIS", "word": "match", "wordID": 877, "conditions": [24, 800, "v", 24000], "trial": 6, "serialpos": 21, "trial_type": "single-stim", "trial_index": 246, "time_elapsed": 1284567, "internal_node_id": "0.0-183.0"}}, {"uniqueid": "MTK0079:3VZLGYJEYMH9FFXDG413B8A2QDKZXE", "current_trial": 247, "dateTime": 1509132729061, "trialdata": {"rt": -1, "stimulus": "<p id=\"stim\">TURTLE</p>", "key_press": -1, "type": "PRES_VIS", "word": "turtle", "wordID": 1521, "conditions": [24, 800, "v", 24000], "trial": 6, "serialpos": 22, "trial_type": "single-stim", "trial_index": 247, "time_elapsed": 1286497, "internal_node_id": "0.0-184.0"}}, {"uniqueid": "MTK0079:3VZLGYJEYMH9FFXDG413B8A2QDKZXE", "current_trial": 248, "dateTime": 1509132730866, "trialdata": {"rt": -1, "stimulus": "<p id=\"stim\">PATIENT</p>", "key_press": -1, "type": "PRES_VIS", "word": "patient", "wordID": 1023, "conditions": [24, 800, "v", 24000], "trial": 6, "serialpos": 23, "trial_type": "single-stim", "trial_index": 248, "time_elapsed": 1288302, "internal_node_id": "0.0-185.0"}}, {"uniqueid": "MTK0079:3VZLGYJEYMH9FFXDG413B8A2QDKZXE", "current_trial": 249, "dateTime": 1509132733219, "trialdata": {"rt": -1, "stimulus": "", "key_press": -1, "type": "PRE_RECALL_DELAY", "trial_type": "single-stim", "trial_index": 249, "time_elapsed": 1290655, "internal_node_id": "0.0-186.0-0.0"}}, {"uniqueid": "MTK0079:3VZLGYJEYMH9FFXDG413B8A2QDKZXE", "current_trial": 250, "dateTime": 1509132733721, "trialdata": {"rt": -1000, "stimulus": "/static/audio/400Hz.wav", "key_press": -1, "type": "PRE_RECALL_ALERT", "trial_type": "single-audio", "trial_index": 250, "time_elapsed": 1291157, "internal_node_id": "0.0-187.0"}}, {"uniqueid": "MTK0079:3VZLGYJEYMH9FFXDG413B8A2QDKZXE", "current_trial": 251, "dateTime": 1509132793727, "trialdata": {"rt": [2393, 3849, 6168, 7577, 12329, 13129, 14089, 15785, 17561, 20265, 21081, 22200, 25049, 26265, 28680, 37800], "recwords": ["turtle", "barley", "knife", "pistol", "freckle", "bug", "buggy", "champagne", "branche", "beaver", "item", "sketch", "table", "tortoise", "gavel", "bank"], "type": "FREE_RECALL", "conditions": [24, 800, "v", 24000], "trial": 6, "trial_type": "free-recall", "trial_index": 251, "time_elapsed": 1351158, "internal_node_id": "0.0-188.0-0.0"}}, {"uniqueid": "MTK0079:3VZLGYJEYMH9FFXDG413B8A2QDKZXE", "current_trial": 252, "dateTime": 1509132798627, "trialdata": {"rt": 2898, "key_press": 13, "type": "INSTRUCTIONS", "trial_type": "text", "trial_index": 252, "time_elapsed": 1356062, "internal_node_id": "0.0-189.0"}}, {"uniqueid": "MTK0079:3VZLGYJEYMH9FFXDG413B8A2QDKZXE", "current_trial": 253, "dateTime": 1509132824631, "trialdata": {"rt": [2924, 4924, 6700, 8413, 9868, 11677, 15148, 17517, 19372, 21340], "responses": ["19", "14", "18", "9", "14", "6", "20", "16", "19", "20"], "num1": [9, 4, 9, 1, 2, 2, 2, 5, 7, 1, 9], "num2": [7, 6, 1, 7, 8, 2, 9, 4, 5, 3, 9], "num3": [3, 4, 8, 1, 4, 2, 9, 7, 7, 6, 6], "type": "DISTRACTOR", "conditions": [12, 1600, "a", 24000], "trial": 7, "trial_type": "math-distractor", "trial_index": 253, "time_elapsed": 1382067, "internal_node_id": "0.0-190.0"}}, {"uniqueid": "MTK0079:3VZLGYJEYMH9FFXDG413B8A2QDKZXE", "current_trial": 254, "dateTime": 1509132827633, "trialdata": {"rt": -1, "stimulus": "<p id=\"stim\">10</p>", "key_press": -1, "trial_type": "single-stim", "trial_index": 254, "time_elapsed": 1385069, "internal_node_id": "0.0-191.0-0.0"}}, {"uniqueid": "MTK0079:3VZLGYJEYMH9FFXDG413B8A2QDKZXE", "current_trial": 255, "dateTime": 1509132828635, "trialdata": {"rt": -1, "stimulus": "<p id=\"stim\">9</p>", "key_press": -1, "trial_type": "single-stim", "trial_index": 255, "time_elapsed": 1386071, "internal_node_id": "0.0-191.0-1.0"}}, {"uniqueid": "MTK0079:3VZLGYJEYMH9FFXDG413B8A2QDKZXE", "current_trial": 256, "dateTime": 1509132829637, "trialdata": {"rt": -1, "stimulus": "<p id=\"stim\">8</p>", "key_press": -1, "trial_type": "single-stim", "trial_index": 256, "time_elapsed": 1387073, "internal_node_id": "0.0-191.0-2.0"}}, {"uniqueid": "MTK0079:3VZLGYJEYMH9FFXDG413B8A2QDKZXE", "current_trial": 257, "dateTime": 1509132830639, "trialdata": {"rt": -1, "stimulus": "<p id=\"stim\">7</p>", "key_press": -1, "trial_type": "single-stim", "trial_index": 257, "time_elapsed": 1388075, "internal_node_id": "0.0-191.0-3.0"}}, {"uniqueid": "MTK0079:3VZLGYJEYMH9FFXDG413B8A2QDKZXE", "current_trial": 258, "dateTime": 1509132831641, "trialdata": {"rt": -1, "stimulus": "<p id=\"stim\">6</p>", "key_press": -1, "trial_type": "single-stim", "trial_index": 258, "time_elapsed": 1389076, "internal_node_id": "0.0-191.0-4.0"}}, {"uniqueid": "MTK0079:3VZLGYJEYMH9FFXDG413B8A2QDKZXE", "current_trial": 259, "dateTime": 1509132832642, "trialdata": {"rt": -1, "stimulus": "<p id=\"stim\">5</p>", "key_press": -1, "trial_type": "single-stim", "trial_index": 259, "time_elapsed": 1390078, "internal_node_id": "0.0-191.0-5.0"}}, {"uniqueid": "MTK0079:3VZLGYJEYMH9FFXDG413B8A2QDKZXE", "current_trial": 260, "dateTime": 1509132833644, "trialdata": {"rt": -1, "stimulus": "<p id=\"stim\">4</p>", "key_press": -1, "trial_type": "single-stim", "trial_index": 260, "time_elapsed": 1391080, "internal_node_id": "0.0-191.0-6.0"}}, {"uniqueid": "MTK0079:3VZLGYJEYMH9FFXDG413B8A2QDKZXE", "current_trial": 261, "dateTime": 1509132834650, "trialdata": {"rt": -1, "stimulus": "<p id=\"stim\">3</p>", "key_press": -1, "trial_type": "single-stim", "trial_index": 261, "time_elapsed": 1392082, "internal_node_id": "0.0-191.0-7.0"}}, {"uniqueid": "MTK0079:3VZLGYJEYMH9FFXDG413B8A2QDKZXE", "current_trial": 262, "dateTime": 1509132835651, "trialdata": {"rt": -1, "stimulus": "<p id=\"stim\">2</p>", "key_press": -1, "trial_type": "single-stim", "trial_index": 262, "time_elapsed": 1393087, "internal_node_id": "0.0-191.0-8.0"}}, {"uniqueid": "MTK0079:3VZLGYJEYMH9FFXDG413B8A2QDKZXE", "current_trial": 263, "dateTime": 1509132836653, "trialdata": {"rt": -1, "stimulus": "<p id=\"stim\">1</p>", "key_press": -1, "trial_type": "single-stim", "trial_index": 263, "time_elapsed": 1394089, "internal_node_id": "0.0-191.0-9.0"}}, {"uniqueid": "MTK0079:3VZLGYJEYMH9FFXDG413B8A2QDKZXE", "current_trial": 264, "dateTime": 1509132838155, "trialdata": {"rt": -1, "stimulus": "<p id=\"stim\">+</p>", "key_press": -1, "type": "FIXATION", "trial_type": "single-stim", "trial_index": 264, "time_elapsed": 1395591, "internal_node_id": "0.0-192.0-0.0"}}, {"uniqueid": "MTK0079:3VZLGYJEYMH9FFXDG413B8A2QDKZXE", "current_trial": 265, "dateTime": 1509132840885, "trialdata": {"rt": -1000, "stimulus": "/static/audio/wordpool/NOVEL.wav", "key_press": -1, "type": "PRES_AUD", "word": "novel", "wordID": 959, "conditions": [12, 1600, "a", 24000], "trial": 7, "serialpos": 0, "trial_type": "single-audio", "trial_index": 265, "time_elapsed": 1398321, "internal_node_id": "0.0-193.0"}}, {"uniqueid": "MTK0079:3VZLGYJEYMH9FFXDG413B8A2QDKZXE", "current_trial": 266, "dateTime": 1509132843568, "trialdata": {"rt": -1000, "stimulus": "/static/audio/wordpool/SMOG.wav", "key_press": -1, "type": "PRES_AUD", "word": "smog", "wordID": 1329, "conditions": [12, 1600, "a", 24000], "trial": 7, "serialpos": 1, "trial_type": "single-audio", "trial_index": 266, "time_elapsed": 1401003, "internal_node_id": "0.0-194.0"}}, {"uniqueid": "MTK0079:3VZLGYJEYMH9FFXDG413B8A2QDKZXE", "current_trial": 267, "dateTime": 1509132846039, "trialdata": {"rt": -1000, "stimulus": "/static/audio/wordpool/DONOR.wav", "key_press": -1, "type": "PRES_AUD", "word": "donor", "wordID": 484, "conditions": [12, 1600, "a", 24000], "trial": 7, "serialpos": 2, "trial_type": "single-audio", "trial_index": 267, "time_elapsed": 1403475, "internal_node_id": "0.0-195.0"}}, {"uniqueid": "MTK0079:3VZLGYJEYMH9FFXDG413B8A2QDKZXE", "current_trial": 268, "dateTime": 1509132848595, "trialdata": {"rt": -1000, "stimulus": "/static/audio/wordpool/CAPTIVE.wav", "key_press": -1, "type": "PRES_AUD", "word": "captive", "wordID": 239, "conditions": [12, 1600, "a", 24000], "trial": 7, "serialpos": 3, "trial_type": "single-audio", "trial_index": 268, "time_elapsed": 1406031, "internal_node_id": "0.0-196.0"}}, {"uniqueid": "MTK0079:3VZLGYJEYMH9FFXDG413B8A2QDKZXE", "current_trial": 269, "dateTime": 1509132851318, "trialdata": {"rt": -1000, "stimulus": "/static/audio/wordpool/HOSTESS.wav", "key_press": -1, "type": "PRES_AUD", "word": "hostess", "wordID": 722, "conditions": [12, 1600, "a", 24000], "trial": 7, "serialpos": 4, "trial_type": "single-audio", "trial_index": 269, "time_elapsed": 1408754, "internal_node_id": "0.0-197.0"}}, {"uniqueid": "MTK0079:3VZLGYJEYMH9FFXDG413B8A2QDKZXE", "current_trial": 270, "dateTime": 1509132853724, "trialdata": {"rt": -1000, "stimulus": "/static/audio/wordpool/MILK.wav", "key_press": -1, "type": "PRES_AUD", "word": "milk", "wordID": 894, "conditions": [12, 1600, "a", 24000], "trial": 7, "serialpos": 5, "trial_type": "single-audio", "trial_index": 270, "time_elapsed": 1411160, "internal_node_id": "0.0-198.0"}}, {"uniqueid": "MTK0079:3VZLGYJEYMH9FFXDG413B8A2QDKZXE", "current_trial": 271, "dateTime": 1509132856459, "trialdata": {"rt": -1000, "stim