{"condition": 0, "counterbalance": 2454, "assignmentId": "3RXPCZQMQQI1YXHFJJS7VSQVE1K1GY", "workerId": "MTK0939", "hitId": "385MDVINFCM23GPPYBXTWBCLMYTWJ8", "currenttrial": 626, "bonus": 0, "data": [{"uniqueid": "MTK0939:3RXPCZQMQQI1YXHFJJS7VSQVE1K1GY", "current_trial": 0, "dateTime": 1512932329196, "trialdata": {"rt": 37352, "key_press": 13, "type": "INSTRUCTIONS", "trial_type": "text", "trial_index": 0, "time_elapsed": 37358, "internal_node_id": "0.0-0.0"}}, {"uniqueid": "MTK0939:3RXPCZQMQQI1YXHFJJS7VSQVE1K1GY", "current_trial": 1, "dateTime": 1512932334051, "trialdata": {"rt": 4850, "key_press": 175, "type": "INSTRUCTIONS", "trial_type": "text", "trial_index": 1, "time_elapsed": 42215, "internal_node_id": "0.0-1.0"}}, {"uniqueid": "MTK0939:3RXPCZQMQQI1YXHFJJS7VSQVE1K1GY", "current_trial": 2, "dateTime": 1512932348294, "trialdata": {"rt": [14217], "responses": ["ocean"], "type": "AUDIO_TEST", "trial_type": "audio-test", "trial_index": 2, "time_elapsed": 56458, "internal_node_id": "0.0-2.0"}}, {"uniqueid": "MTK0939:3RXPCZQMQQI1YXHFJJS7VSQVE1K1GY", "current_trial": 3, "dateTime": 1512932356302, "trialdata": {"rt": [7994], "responses": ["crystal"], "type": "AUDIO_TEST", "trial_type": "audio-test", "trial_index": 3, "time_elapsed": 64466, "internal_node_id": "0.0-3.0"}}, {"uniqueid": "MTK0939:3RXPCZQMQQI1YXHFJJS7VSQVE1K1GY", "current_trial": 4, "dateTime": 1512932362815, "trialdata": {"rt": [6500], "responses": ["spice"], "type": "AUDIO_TEST", "trial_type": "audio-test", "trial_index": 4, "time_elapsed": 70979, "internal_node_id": "0.0-4.0"}}, {"uniqueid": "MTK0939:3RXPCZQMQQI1YXHFJJS7VSQVE1K1GY", "current_trial": 5, "dateTime": 1512932391075, "trialdata": {"rt": 27504, "responses": "{\"Q0\":\"12am\",\"Q1\":\"8:05\",\"Q2\":\"4\"}", "type": "SLEEP_SURVEY", "trial_type": "survey-text", "trial_index": 5, "time_elapsed": 99239, "internal_node_id": "0.0-5.0"}}, {"uniqueid": "MTK0939:3RXPCZQMQQI1YXHFJJS7VSQVE1K1GY", "current_trial": 6, "dateTime": 1512932421475, "trialdata": {"rt": 29397, "key_press": 13, "type": "INSTRUCTIONS", "trial_type": "text", "trial_index": 6, "time_elapsed": 129639, "internal_node_id": "0.0-6.0"}}, {"uniqueid": "MTK0939:3RXPCZQMQQI1YXHFJJS7VSQVE1K1GY", "current_trial": 7, "dateTime": 1512932430099, "trialdata": {"rt": 8120, "key_press": 13, "type": "INSTRUCTIONS", "trial_type": "text", "trial_index": 7, "time_elapsed": 138263, "internal_node_id": "0.0-7.0"}}, {"uniqueid": "MTK0939:3RXPCZQMQQI1YXHFJJS7VSQVE1K1GY", "current_trial": 8, "dateTime": 1512932439958, "trialdata": {"rt": 9357, "key_press": 13, "type": "INSTRUCTIONS", "trial_type": "text", "trial_index": 8, "time_elapsed": 148122, "internal_node_id": "0.0-8.0"}}, {"uniqueid": "MTK0939:3RXPCZQMQQI1YXHFJJS7VSQVE1K1GY", "current_trial": 9, "dateTime": 1512932458992, "trialdata": {"rt": [4887, 8539, 11761, 15048], "responses": ["19", "8", "18", "22"], "num1": [9, 5, 8, 7, 8], "num2": [7, 1, 2, 9, 1], "num3": [3, 2, 8, 6, 8], "type": "DISTRACTOR", "conditions": [18, 1200, "a", 18000], "trial": 0, "trial_type": "math-distractor", "trial_index": 9, "time_elapsed": 167155, "internal_node_id": "0.0-9.0"}}, {"uniqueid": "MTK0939:3RXPCZQMQQI1YXHFJJS7VSQVE1K1GY", "current_trial": 10, "dateTime": 1512932461996, "trialdata": {"rt": -1, "stimulus": "<p id=\"stim\">10</p>", "key_press": -1, "trial_type": "single-stim", "trial_index": 10, "time_elapsed": 170160, "internal_node_id": "0.0-10.0-0.0"}}, {"uniqueid": "MTK0939:3RXPCZQMQQI1YXHFJJS7VSQVE1K1GY", "current_trial": 11, "dateTime": 1512932462999, "trialdata": {"rt": -1, "stimulus": "<p id=\"stim\">9</p>", "key_press": -1, "trial_type": "single-stim", "trial_index": 11, "time_elapsed": 171163, "internal_node_id": "0.0-10.0-1.0"}}, {"uniqueid": "MTK0939:3RXPCZQMQQI1YXHFJJS7VSQVE1K1GY", "current_trial": 12, "dateTime": 1512932464001, "trialdata": {"rt": -1, "stimulus": "<p id=\"stim\">8</p>", "key_press": -1, "trial_type": "single-stim", "trial_index": 12, "time_elapsed": 172165, "internal_node_id": "0.0-10.0-2.0"}}, {"uniqueid": "MTK0939:3RXPCZQMQQI1YXHFJJS7VSQVE1K1GY", "current_trial": 13, "dateTime": 1512932465003, "trialdata": {"rt": -1, "stimulus": "<p id=\"stim\">7</p>", "key_press": -1, "trial_type": "single-stim", "trial_index": 13, "time_elapsed": 173167, "internal_node_id": "0.0-10.0-3.0"}}, {"uniqueid": "MTK0939:3RXPCZQMQQI1YXHFJJS7VSQVE1K1GY", "current_trial": 14, "dateTime": 1512932466006, "trialdata": {"rt": -1, "stimulus": "<p id=\"stim\">6</p>", "key_press": -1, "trial_type": "single-stim", "trial_index": 14, "time_elapsed": 174170, "internal_node_id": "0.0-10.0-4.0"}}, {"uniqueid": "MTK0939:3RXPCZQMQQI1YXHFJJS7VSQVE1K1GY", "current_trial": 15, "dateTime": 1512932467008, "trialdata": {"rt": -1, "stimulus": "<p id=\"stim\">5</p>", "key_press": -1, "trial_type": "single-stim", "trial_index": 15, "time_elapsed": 175172, "internal_node_id": "0.0-10.0-5.0"}}, {"uniqueid": "MTK0939:3RXPCZQMQQI1YXHFJJS7VSQVE1K1GY", "current_trial": 16, "dateTime": 1512932468011, "trialdata": {"rt": -1, "stimulus": "<p id=\"stim\">4</p>", "key_press": -1, "trial_type": "single-stim", "trial_index": 16, "time_elapsed": 176174, "internal_node_id": "0.0-10.0-6.0"}}, {"uniqueid": "MTK0939:3RXPCZQMQQI1YXHFJJS7VSQVE1K1GY", "current_trial": 17, "dateTime": 1512932469012, "trialdata": {"rt": -1, "stimulus": "<p id=\"stim\">3</p>", "key_press": -1, "trial_type": "single-stim", "trial_index": 17, "time_elapsed": 177176, "internal_node_id": "0.0-10.0-7.0"}}, {"uniqueid": "MTK0939:3RXPCZQMQQI1YXHFJJS7VSQVE1K1GY", "current_trial": 18, "dateTime": 1512932470018, "trialdata": {"rt": -1, "stimulus": "<p id=\"stim\">2</p>", "key_press": -1, "trial_type": "single-stim", "trial_index": 18, "time_elapsed": 178182, "internal_node_id": "0.0-10.0-8.0"}}, {"uniqueid": "MTK0939:3RXPCZQMQQI1YXHFJJS7VSQVE1K1GY", "current_trial": 19, "dateTime": 1512932471020, "trialdata": {"rt": -1, "stimulus": "<p id=\"stim\">1</p>", "key_press": -1, "trial_type": "single-stim", "trial_index": 19, "time_elapsed": 179183, "internal_node_id": "0.0-10.0-9.0"}}, {"uniqueid": "MTK0939:3RXPCZQMQQI1YXHFJJS7VSQVE1K1GY", "current_trial": 20, "dateTime": 1512932472523, "trialdata": {"rt": -1, "stimulus": "<p id=\"stim\">+</p>", "key_press": -1, "type": "FIXATION", "trial_type": "single-stim", "trial_index": 20, "time_elapsed": 180687, "internal_node_id": "0.0-11.0-0.0"}}, {"uniqueid": "MTK0939:3RXPCZQMQQI1YXHFJJS7VSQVE1K1GY", "current_trial": 21, "dateTime": 1512932474596, "trialdata": {"rt": -1000, "stimulus": "/static/audio/wordpool/HELMET.wav", "key_press": -1, "type": "PRES_AUD", "word": "helmet", "wordID": 701, "conditions": [18, 1200, "a", 18000], "trial": 0, "serialpos": 0, "trial_type": "single-audio", "trial_index": 21, "time_elapsed": 182760, "internal_node_id": "0.0-12.0"}}, {"uniqueid": "MTK0939:3RXPCZQMQQI1YXHFJJS7VSQVE1K1GY", "current_trial": 22, "dateTime": 1512932476813, "trialdata": {"rt": -1000, "stimulus": "/static/audio/wordpool/CRUTCH.wav", "key_press": -1, "type": "PRES_AUD", "word": "crutch", "wordID": 416, "conditions": [18, 1200, "a", 18000], "trial": 0, "serialpos": 1, "trial_type": "single-audio", "trial_index": 22, "time_elapsed": 184976, "internal_node_id": "0.0-13.0"}}, {"uniqueid": "MTK0939:3RXPCZQMQQI1YXHFJJS7VSQVE1K1GY", "current_trial": 23, "dateTime": 1512932479140, "trialdata": {"rt": -1000, "stimulus": "/static/audio/wordpool/BELLY.wav", "key_press": -1, "type": "PRES_AUD", "word": "belly", "wordID": 118, "conditions": [18, 1200, "a", 18000], "trial": 0, "serialpos": 2, "trial_type": "single-audio", "trial_index": 23, "time_elapsed": 187303, "internal_node_id": "0.0-14.0"}}, {"uniqueid": "MTK0939:3RXPCZQMQQI1YXHFJJS7VSQVE1K1GY", "current_trial": 24, "dateTime": 1512932481433, "trialdata": {"rt": -1000, "stimulus": "/static/audio/wordpool/MAMMAL.wav", "key_press": -1, "type": "PRES_AUD", "word": "mammal", "wordID": 860, "conditions": [18, 1200, "a", 18000], "trial": 0, "serialpos": 3, "trial_type": "single-audio", "trial_index": 24, "time_elapsed": 189597, "internal_node_id": "0.0-15.0"}}, {"uniqueid": "MTK0939:3RXPCZQMQQI1YXHFJJS7VSQVE1K1GY", "current_trial": 25, "dateTime": 1512932483745, "trialdata": {"rt": -1000, "stimulus": "/static/audio/wordpool/TURTLE.wav", "key_press": -1, "type": "PRES_AUD", "word": "turtle", "wordID": 1521, "conditions": [18, 1200, "a", 18000], "trial": 0, "serialpos": 4, "trial_type": "single-audio", "trial_index": 25, "time_elapsed": 191908, "internal_node_id": "0.0-16.0"}}, {"uniqueid": "MTK0939:3RXPCZQMQQI1YXHFJJS7VSQVE1K1GY", "current_trial": 26, "dateTime": 1512932486145, "trialdata": {"rt": -1000, "stimulus": "/static/audio/wordpool/PATIENT.wav", "key_press": -1, "type": "PRES_AUD", "word": "patient", "wordID": 1023, "conditions": [18, 1200, "a", 18000], "trial": 0, "serialpos": 5, "trial_type": "single-audio", "trial_index": 26, "time_elapsed": 194309, "internal_node_id": "0.0-17.0"}}, {"uniqueid": "MTK0939:3RXPCZQMQQI1YXHFJJS7VSQVE1K1GY", "current_trial": 27, "dateTime": 1512932488200, "trialdata": {"rt": -1000, "stimulus": "/static/audio/wordpool/HERO.wav", "key_press": -1, "type": "PRES_AUD", "word": "hero", "wordID": 705, "conditions": [18, 1200, "a", 18000], "trial": 0, "serialpos": 6, "trial_type": "single-audio", "trial_index": 27, "time_elapsed": 196363, "internal_node_id": "0.0-18.0"}}, {"uniqueid": "MTK0939:3RXPCZQMQQI1YXHFJJS7VSQVE1K1GY", "current_trial": 28, "dateTime": 1512932490255, "trialdata": {"rt": -1000, "stimulus": "/static/audio/wordpool/HEADBAND.wav", "key_press": -1, "type": "PRES_AUD", "word": "headband", "wordID": 695, "conditions": [18, 1200, "a", 18000], "trial": 0, "serialpos": 7, "trial_type": "single-audio", "trial_index": 28, "time_elapsed": 198419, "internal_node_id": "0.0-19.0"}}, {"uniqueid": "MTK0939:3RXPCZQMQQI1YXHFJJS7VSQVE1K1GY", "current_trial": 29, "dateTime": 1512932492641, "trialdata": {"rt": -1000, "stimulus": "/static/audio/wordpool/TEMPLE.wav", "key_press": -1, "type": "PRES_AUD", "word": "temple", "wordID": 1447, "conditions": [18, 1200, "a", 18000], "trial": 0, "serialpos": 8, "trial_type": "single-audio", "trial_index": 29, "time_elapsed": 200805, "internal_node_id": "0.0-20.0"}}, {"uniqueid": "MTK0939:3RXPCZQMQQI1YXHFJJS7VSQVE1K1GY", "current_trial": 30, "dateTime": 1512932494846, "trialdata": {"rt": -1000, "stimulus": "/static/audio/wordpool/ROOSTER.wav", "key_press": -1, "type": "PRES_AUD", "word": "rooster", "wordID": 1208, "conditions": [18, 1200, "a", 18000], "trial": 0, "serialpos": 9, "trial_type": "single-audio", "trial_index": 30, "time_elapsed": 203010, "internal_node_id": "0.0-21.0"}}, {"uniqueid": "MTK0939:3RXPCZQMQQI1YXHFJJS7VSQVE1K1GY", "current_trial": 31, "dateTime": 1512932497022, "trialdata": {"rt": -1000, "stimulus": "/static/audio/wordpool/PASSAGE.wav", "key_press": -1, "type": "PRES_AUD", "word": "passage", "wordID": 1018, "conditions": [18, 1200, "a", 18000], "trial": 0, "serialpos": 10, "trial_type": "single-audio", "trial_index": 31, "time_elapsed": 205186, "internal_node_id": "0.0-22.0"}}, {"uniqueid": "MTK0939:3RXPCZQMQQI1YXHFJJS7VSQVE1K1GY", "current_trial": 32, "dateTime": 1512932499259, "trialdata": {"rt": -1000, "stimulus": "/static/audio/wordpool/ITEM.wav", "key_press": -1, "type": "PRES_AUD", "word": "item", "wordID": 745, "conditions": [18, 1200, "a", 18000], "trial": 0, "serialpos": 11, "trial_type": "single-audio", "trial_index": 32, "time_elapsed": 207423, "internal_node_id": "0.0-23.0"}}, {"uniqueid": "MTK0939:3RXPCZQMQQI1YXHFJJS7VSQVE1K1GY", "current_trial": 33, "dateTime": 1512932501505, "trialdata": {"rt": -1000, "stimulus": "/static/audio/wordpool/COWBOY.wav", "key_press": -1, "type": "PRES_AUD", "word": "cowboy", "wordID": 394, "conditions": [18, 1200, "a", 18000], "trial": 0, "serialpos": 12, "trial_type": "single-audio", "trial_index": 33, "time_elapsed": 209669, "internal_node_id": "0.0-24.0"}}, {"uniqueid": "MTK0939:3RXPCZQMQQI1YXHFJJS7VSQVE1K1GY", "current_trial": 34, "dateTime": 1512932503855, "trialdata": {"rt": -1000, "stimulus": "/static/audio/wordpool/QUARTER.wav", "key_press": -1, "type": "PRES_AUD", "word": "quarter", "wordID": 1147, "conditions": [18, 1200, "a", 18000], "trial": 0, "serialpos": 13, "trial_type": "single-audio", "trial_index": 34, "time_elapsed": 212018, "internal_node_id": "0.0-25.0"}}, {"uniqueid": "MTK0939:3RXPCZQMQQI1YXHFJJS7VSQVE1K1GY", "current_trial": 35, "dateTime": 1512932506029, "trialdata": {"rt": -1000, "stimulus": "/static/audio/wordpool/BISON.wav", "key_press": -1, "type": "PRES_AUD", "word": "bison", "wordID": 130, "conditions": [18, 1200, "a", 18000], "trial": 0, "serialpos": 14, "trial_type": "single-audio", "trial_index": 35, "time_elapsed": 214193, "internal_node_id": "0.0-26.0"}}, {"uniqueid": "MTK0939:3RXPCZQMQQI1YXHFJJS7VSQVE1K1GY", "current_trial": 36, "dateTime": 1512932508314, "trialdata": {"rt": -1000, "stimulus": "/static/audio/wordpool/GARDEN.wav", "key_press": -1, "type": "PRES_AUD", "word": "garden", "wordID": 622, "conditions": [18, 1200, "a", 18000], "trial": 0, "serialpos": 15, "trial_type": "single-audio", "trial_index": 36, "time_elapsed": 216478, "internal_node_id": "0.0-27.0"}}, {"uniqueid": "MTK0939:3RXPCZQMQQI1YXHFJJS7VSQVE1K1GY", "current_trial": 37, "dateTime": 1512932510493, "trialdata": {"rt": -1000, "stimulus": "/static/audio/wordpool/VICTIM.wav", "key_press": -1, "type": "PRES_AUD", "word": "victim", "wordID": 1561, "conditions": [18, 1200, "a", 18000], "trial": 0, "serialpos": 16, "trial_type": "single-audio", "trial_index": 37, "time_elapsed": 218657, "internal_node_id": "0.0-28.0"}}, {"uniqueid": "MTK0939:3RXPCZQMQQI1YXHFJJS7VSQVE1K1GY", "current_trial": 38, "dateTime": 1512932512721, "trialdata": {"rt": -1000, "stimulus": "/static/audio/wordpool/CAMEL.wav", "key_press": -1, "type": "PRES_AUD", "word": "camel", "wordID": 222, "conditions": [18, 1200, "a", 18000], "trial": 0, "serialpos": 17, "trial_type": "single-audio", "trial_index": 38, "time_elapsed": 220885, "internal_node_id": "0.0-29.0"}}, {"uniqueid": "MTK0939:3RXPCZQMQQI1YXHFJJS7VSQVE1K1GY", "current_trial": 39, "dateTime": 1512932514112, "trialdata": {"rt": -1, "stimulus": "", "key_press": -1, "type": "PRE_RECALL_DELAY", "trial_type": "single-stim", "trial_index": 39, "time_elapsed": 222276, "internal_node_id": "0.0-30.0-0.0"}}, {"uniqueid": "MTK0939:3RXPCZQMQQI1YXHFJJS7VSQVE1K1GY", "current_trial": 40, "dateTime": 1512932514615, "trialdata": {"rt": -1000, "stimulus": "/static/audio/400Hz.wav", "key_press": -1, "type": "PRE_RECALL_ALERT", "trial_type": "single-audio", "trial_index": 40, "time_elapsed": 222779, "internal_node_id": "0.0-31.0"}}, {"uniqueid": "MTK0939:3RXPCZQMQQI1YXHFJJS7VSQVE1K1GY", "current_trial": 41, "dateTime": 1512932574628, "trialdata": {"rt": [9169, 12646, 14831, 16994, 19991, 24875, 29483, 32374], "recwords": ["belly", "helmet", "bison", "camel", "victim", "crutch", "turtle", "mammel"], "type": "FREE_RECALL", "conditions": [18, 1200, "a", 18000], "trial": 0, "trial_type": "free-recall", "trial_index": 41, "time_elapsed": 282787, "internal_node_id": "0.0-32.0-0.0"}}, {"uniqueid": "MTK0939:3RXPCZQMQQI1YXHFJJS7VSQVE1K1GY", "current_trial": 42, "dateTime": 1512932578451, "trialdata": {"rt": 1820, "key_press": 13, "type": "INSTRUCTIONS", "trial_type": "text", "trial_index": 42, "time_elapsed": 286615, "internal_node_id": "0.0-33.0"}}, {"uniqueid": "MTK0939:3RXPCZQMQQI1YXHFJJS7VSQVE1K1GY", "current_trial": 43, "dateTime": 1512932598456, "trialdata": {"rt": [6823, 8609, 11085, 13779, 16887], "responses": ["17", "8", "12", "12", "22"], "num1": [9, 1, 6, 6, 6, 1], "num2": [2, 3, 1, 5, 9, 6], "num3": [6, 4, 5, 1, 7, 2], "type": "DISTRACTOR", "conditions": [18, 1200, "v", 18000], "trial": 1, "trial_type": "math-distractor", "trial_index": 43, "time_elapsed": 306620, "internal_node_id": "0.0-34.0"}}, {"uniqueid": "MTK0939:3RXPCZQMQQI1YXHFJJS7VSQVE1K1GY", "current_trial": 44, "dateTime": 1512932601461, "trialdata": {"rt": -1, "stimulus": "<p id=\"stim\">10</p>", "key_press": -1, "trial_type": "single-stim", "trial_index": 44, "time_elapsed": 309625, "internal_node_id": "0.0-35.0-0.0"}}, {"uniqueid": "MTK0939:3RXPCZQMQQI1YXHFJJS7VSQVE1K1GY", "current_trial": 45, "dateTime": 1512932602463, "trialdata": {"rt": -1, "stimulus": "<p id=\"stim\">9</p>", "key_press": -1, "trial_type": "single-stim", "trial_index": 45, "time_elapsed": 310627, "internal_node_id": "0.0-35.0-1.0"}}, {"uniqueid": "MTK0939:3RXPCZQMQQI1YXHFJJS7VSQVE1K1GY", "current_trial": 46, "dateTime": 1512932603466, "trialdata": {"rt": -1, "stimulus": "<p id=\"stim\">8</p>", "key_press": -1, "trial_type": "single-stim", "trial_index": 46, "time_elapsed": 311630, "internal_node_id": "0.0-35.0-2.0"}}, {"uniqueid": "MTK0939:3RXPCZQMQQI1YXHFJJS7VSQVE1K1GY", "current_trial": 47, "dateTime": 1512932604468, "trialdata": {"rt": -1, "stimulus": "<p id=\"stim\">7</p>", "key_press": -1, "trial_type": "single-stim", "trial_index": 47, "time_elapsed": 312631, "internal_node_id": "0.0-35.0-3.0"}}, {"uniqueid": "MTK0939:3RXPCZQMQQI1YXHFJJS7VSQVE1K1GY", "current_trial": 48, "dateTime": 1512932605470, "trialdata": {"rt": -1, "stimulus": "<p id=\"stim\">6</p>", "key_press": -1, "trial_type": "single-stim", "trial_index": 48, "time_elapsed": 313633, "internal_node_id": "0.0-35.0-4.0"}}, {"uniqueid": "MTK0939:3RXPCZQMQQI1YXHFJJS7VSQVE1K1GY", "current_trial": 49, "dateTime": 1512932606472, "trialdata": {"rt": -1, "stimulus": "<p id=\"stim\">5</p>", "key_press": -1, "trial_type": "single-stim", "trial_index": 49, "time_elapsed": 314635, "internal_node_id": "0.0-35.0-5.0"}}, {"uniqueid": "MTK0939:3RXPCZQMQQI1YXHFJJS7VSQVE1K1GY", "current_trial": 50, "dateTime": 1512932607475, "trialdata": {"rt": -1, "stimulus": "<p id=\"stim\">4</p>", "key_press": -1, "trial_type": "single-stim", "trial_index": 50, "time_elapsed": 315638, "internal_node_id": "0.0-35.0-6.0"}}, {"uniqueid": "MTK0939:3RXPCZQMQQI1YXHFJJS7VSQVE1K1GY", "current_trial": 51, "dateTime": 1512932608476, "trialdata": {"rt": -1, "stimulus": "<p id=\"stim\">3</p>", "key_press": -1, "trial_type": "single-stim", "trial_index": 51, "time_elapsed": 316639, "internal_node_id": "0.0-35.0-7.0"}}, {"uniqueid": "MTK0939:3RXPCZQMQQI1YXHFJJS7VSQVE1K1GY", "current_trial": 52, "dateTime": 1512932609478, "trialdata": {"rt": -1, "stimulus": "<p id=\"stim\">2</p>", "key_press": -1, "trial_type": "single-stim", "trial_index": 52, "time_elapsed": 317642, "internal_node_id": "0.0-35.0-8.0"}}, {"uniqueid": "MTK0939:3RXPCZQMQQI1YXHFJJS7VSQVE1K1GY", "current_trial": 53, "dateTime": 1512932610480, "trialdata": {"rt": -1, "stimulus": "<p id=\"stim\">1</p>", "key_press": -1, "trial_type": "single-stim", "trial_index": 53, "time_elapsed": 318644, "internal_node_id": "0.0-35.0-9.0"}}, {"uniqueid": "MTK0939:3RXPCZQMQQI1YXHFJJS7VSQVE1K1GY", "current_trial": 54, "dateTime": 1512932611983, "trialdata": {"rt": -1, "stimulus": "<p id=\"stim\">+</p>", "key_press": -1, "type": "FIXATION", "trial_type": "single-stim", "trial_index": 54, "time_elapsed": 320146, "internal_node_id": "0.0-36.0-0.0"}}, {"uniqueid": "MTK0939:3RXPCZQMQQI1YXHFJJS7VSQVE1K1GY", "current_trial": 55, "dateTime": 1512932613186, "trialdata": {"rt": -1, "stimulus": "<p id=\"stim\">PASTRY</p>", "key_press": -1, "type": "PRES_VIS", "word": "pastry", "wordID": 1021, "conditions": [18, 1200, "v", 18000], "trial": 1, "serialpos": 0, "trial_type": "single-stim", "trial_index": 55, "time_elapsed": 321349, "internal_node_id": "0.0-37.0"}}, {"uniqueid": "MTK0939:3RXPCZQMQQI1YXHFJJS7VSQVE1K1GY", "current_trial": 56, "dateTime": 1512932615478, "trialdata": {"rt": -1, "stimulus": "<p id=\"stim\">GALLON</p>", "key_press": -1, "type": "PRES_VIS", "word": "gallon", "wordID": 617, "conditions": [18, 1200, "v", 18000], "trial": 1, "serialpos": 1, "trial_type": "single-stim", "trial_index": 56, "time_elapsed": 323642, "internal_node_id": "0.0-38.0"}}, {"uniqueid": "MTK0939:3RXPCZQMQQI1YXHFJJS7VSQVE1K1GY", "current_trial": 57, "dateTime": 1512932617761, "trialdata": {"rt": -1, "stimulus": "<p id=\"stim\">NURSE</p>", "key_press": -1, "type": "PRES_VIS", "word": "nurse", "wordID": 962, "conditions": [18, 1200, "v", 18000], "trial": 1, "serialpos": 2, "trial_type": "single-stim", "trial_index": 57, "time_elapsed": 325925, "internal_node_id": "0.0-39.0"}}, {"uniqueid": "MTK0939:3RXPCZQMQQI1YXHFJJS7VSQVE1K1GY", "current_trial": 58, "dateTime": 1512932619921, "trialdata": {"rt": -1, "stimulus": "<p id=\"stim\">HARP</p>", "key_press": -1, "type": "PRES_VIS", "word": "harp", "wordID": 688, "conditions": [18, 1200, "v", 18000], "trial": 1, "serialpos": 3, "trial_type": "single-stim", "trial_index": 58, "time_elapsed": 328084, "internal_node_id": "0.0-40.0"}}, {"uniqueid": "MTK0939:3RXPCZQMQQI1YXHFJJS7VSQVE1K1GY", "current_trial": 59, "dateTime": 1512932622073, "trialdata": {"rt": -1, "stimulus": "<p id=\"stim\">SHRUB</p>", "key_press": -1, "type": "PRES_VIS", "word": "shrub", "wordID": 1298, "conditions": [18, 1200, "v", 18000], "trial": 1, "serialpos": 4, "trial_type": "single-stim", "trial_index": 59, "time_elapsed": 330236, "internal_node_id": "0.0-41.0"}}, {"uniqueid": "MTK0939:3RXPCZQMQQI1YXHFJJS7VSQVE1K1GY", "current_trial": 60, "dateTime": 1512932624135, "trialdata": {"rt": -1, "stimulus": "<p id=\"stim\">SHELF</p>", "key_press": -1, "type": "PRES_VIS", "word": "shelf", "wordID": 1279, "conditions": [18, 1200, "v", 18000], "trial": 1, "serialpos": 5, "trial_type": "single-stim", "trial_index": 60, "time_elapsed": 332299, "internal_node_id": "0.0-42.0"}}, {"uniqueid": "MTK0939:3RXPCZQMQQI1YXHFJJS7VSQVE1K1GY", "current_trial": 61, "dateTime": 1512932626139, "trialdata": {"rt": -1, "stimulus": "<p id=\"stim\">MUSTARD</p>", "key_press": -1, "type": "PRES_VIS", "word": "mustard", "wordID": 934, "conditions": [18, 1200, "v", 18000], "trial": 1, "serialpos": 6, "trial_type": "single-stim", "trial_index": 61, "time_elapsed": 334303, "internal_node_id": "0.0-43.0"}}, {"uniqueid": "MTK0939:3RXPCZQMQQI1YXHFJJS7VSQVE1K1GY", "current_trial": 62, "dateTime": 1512932628433, "trialdata": {"rt": -1, "stimulus": "<p id=\"stim\">PADDLE</p>", "key_press": -1, "type": "PRES_VIS", "word": "paddle", "wordID": 999, "conditions": [18, 1200, "v", 18000], "trial": 1, "serialpos": 7, "trial_type": "single-stim", "trial_index": 62, "time_elapsed": 336597, "internal_node_id": "0.0-44.0"}}, {"uniqueid": "MTK0939:3RXPCZQMQQI1YXHFJJS7VSQVE1K1GY", "current_trial": 63, "dateTime": 1512932630518, "trialdata": {"rt": -1, "stimulus": "<p id=\"stim\">SAUSAGE</p>", "key_press": -1, "type": "PRES_VIS", "word": "sausage", "wordID": 1237, "conditions": [18, 1200, "v", 18000], "trial": 1, "serialpos": 8, "trial_type": "single-stim", "trial_index": 63, "time_elapsed": 338681, "internal_node_id": "0.0-45.0"}}, {"uniqueid": "MTK0939:3RXPCZQMQQI1YXHFJJS7VSQVE1K1GY", "current_trial": 64, "dateTime": 1512932632768, "trialdata": {"rt": -1, "stimulus": "<p id=\"stim\">DOLPHIN</p>", "key_press": -1, "type": "PRES_VIS", "word": "dolphin", "wordID": 482, "conditions": [18, 1200, "v", 18000], "trial": 1, "serialpos": 9, "trial_type": "single-stim", "trial_index": 64, "time_elapsed": 340932, "internal_node_id": "0.0-46.0"}}, {"uniqueid": "MTK0939:3RXPCZQMQQI1YXHFJJS7VSQVE1K1GY", "current_trial": 65, "dateTime": 1512932635008, "trialdata": {"rt": -1, "stimulus": "<p id=\"stim\">KIDNEY</p>", "key_press": -1, "type": "PRES_VIS", "word": "kidney", "wordID": 775, "conditions": [18, 1200, "v", 18000], "trial": 1, "serialpos": 10, "trial_type": "single-stim", "trial_index": 65, "time_elapsed": 343172, "internal_node_id": "0.0-47.0"}}, {"uniqueid": "MTK0939:3RXPCZQMQQI1YXHFJJS7VSQVE1K1GY", "current_trial": 66, "dateTime": 1512932637276, "trialdata": {"rt": -1, "stimulus": "<p id=\"stim\">JUDGE</p>", "key_press": -1, "type": "PRES_VIS", "word": "judge", "wordID": 760, "conditions": [18, 1200, "v", 18000], "trial": 1, "serialpos": 11, "trial_type": "single-stim", "trial_index": 66, "time_elapsed": 345440, "internal_node_id": "0.0-48.0"}}, {"uniqueid": "MTK0939:3RXPCZQMQQI1YXHFJJS7VSQVE1K1GY", "current_trial": 67, "dateTime": 1512932639497, "trialdata": {"rt": -1, "stimulus": "<p id=\"stim\">GIRL</p>", "key_press": -1, "type": "PRES_VIS", "word": "girl", "wordID": 636, "conditions": [18, 1200, "v", 18000], "trial": 1, "serialpos": 12, "trial_type": "single-stim", "trial_index": 67, "time_elapsed": 347661, "internal_node_id": "0.0-49.0"}}, {"uniqueid": "MTK0939:3RXPCZQMQQI1YXHFJJS7VSQVE1K1GY", "current_trial": 68, "dateTime": 1512932641738, "trialdata": {"rt": -1, "stimulus": "<p id=\"stim\">MUMMY</p>", "key_press": -1, "type": "PRES_VIS", "word": "mummy", "wordID": 931, "conditions": [18, 1200, "v", 18000], "trial": 1, "serialpos": 13, "trial_type": "single-stim", "trial_index": 68, "time_elapsed": 349901, "internal_node_id": "0.0-50.0"}}, {"uniqueid": "MTK0939:3RXPCZQMQQI1YXHFJJS7VSQVE1K1GY", "current_trial": 69, "dateTime": 1512932643932, "trialdata": {"rt": -1, "stimulus": "<p id=\"stim\">GARBAGE</p>", "key_press": -1, "type": "PRES_VIS", "word": "garbage", "wordID": 621, "conditions": [18, 1200, "v", 18000], "trial": 1, "serialpos": 14, "trial_type": "single-stim", "trial_index": 69, "time_elapsed": 352095, "internal_node_id": "0.0-51.0"}}, {"uniqueid": "MTK0939:3RXPCZQMQQI1YXHFJJS7VSQVE1K1GY", "current_trial": 70, "dateTime": 1512932646179, "trialdata": {"rt": -1, "stimulus": "<p id=\"stim\">SUMMIT</p>", "key_press": -1, "type": "PRES_VIS", "word": "summit", "wordID": 1404, "conditions": [18, 1200, "v", 18000], "trial": 1, "serialpos": 15, "trial_type": "single-stim", "trial_index": 70, "time_elapsed": 354342, "internal_node_id": "0.0-52.0"}}, {"uniqueid": "MTK0939:3RXPCZQMQQI1YXHFJJS7VSQVE1K1GY", "current_trial": 71, "dateTime": 1512932648214, "trialdata": {"rt": -1, "stimulus": "<p id=\"stim\">TWISTER</p>", "key_press": -1, "type": "PRES_VIS", "word": "twister", "wordID": 1529, "conditions": [18, 1200, "v", 18000], "trial": 1, "serialpos": 16, "trial_type": "single-stim", "trial_index": 71, "time_elapsed": 356377, "internal_node_id": "0.0-53.0"}}, {"uniqueid": "MTK0939:3RXPCZQMQQI1YXHFJJS7VSQVE1K1GY", "current_trial": 72, "dateTime": 1512932650288, "trialdata": {"rt": -1, "stimulus": "<p id=\"stim\">HIKER</p>", "key_press": -1, "type": "PRES_VIS", "word": "hiker", "wordID": 707, "conditions": [18, 1200, "v", 18000], "trial": 1, "serialpos": 17, "trial_type": "single-stim", "trial_index": 72, "time_elapsed": 358451, "internal_node_id": "0.0-54.0"}}, {"uniqueid": "MTK0939:3RXPCZQMQQI1YXHFJJS7VSQVE1K1GY", "current_trial": 73, "dateTime": 1512932652479, "trialdata": {"rt": -1, "stimulus": "", "key_press": -1, "type": "PRE_RECALL_DELAY", "trial_type": "single-stim", "trial_index": 73, "time_elapsed": 360643, "internal_node_id": "0.0-55.0-0.0"}}, {"uniqueid": "MTK0939:3RXPCZQMQQI1YXHFJJS7VSQVE1K1GY", "current_trial": 74, "dateTime": 1512932652983, "trialdata": {"rt": -1000, "stimulus": "/static/audio/400Hz.wav", "key_press": -1, "type": "PRE_RECALL_ALERT", "trial_type": "single-audio", "trial_index": 74, "time_elapsed": 361147, "internal_node_id": "0.0-56.0"}}, {"uniqueid": "MTK0939:3RXPCZQMQQI1YXHFJJS7VSQVE1K1GY", "current_trial": 75, "dateTime": 1512932712994, "trialdata": {"rt": [8027, 11707, 16004, 17991, 23101, 26108, 29030, 32219, 36659, 38821], "recwords": ["pastry", "nursr", "shrub", "harp", "sausage", "dolphin", "girl", "garbage", "twiste", "hiker"], "type": "FREE_RECALL", "conditions": [18, 1200, "v", 18000], "trial": 1, "trial_type": "free-recall", "trial_index": 75, "time_elapsed": 421152, "internal_node_id": "0.0-57.0-0.0"}}, {"uniqueid": "MTK0939:3RXPCZQMQQI1YXHFJJS7VSQVE1K1GY", "current_trial": 76, "dateTime": 1512932717612, "trialdata": {"rt": 2607, "key_press": 13, "type": "INSTRUCTIONS", "trial_type": "text", "trial_index": 76, "time_elapsed": 425767, "internal_node_id": "0.0-58.0"}}, {"uniqueid": "MTK0939:3RXPCZQMQQI1YXHFJJS7VSQVE1K1GY", "current_trial": 77, "dateTime": 1512932730618, "trialdata": {"rt": [2818, 5647, 8037, 10148], "responses": ["8", "15", "10", "16"], "num1": [2, 7, 7, 6, 7], "num2": [3, 6, 2, 4, 6], "num3": [3, 2, 1, 6, 3], "type": "DISTRACTOR", "conditions": [24, 800, "a", 12000], "trial": 2, "trial_type": "math-distractor", "trial_index": 77, "time_elapsed": 438782, "internal_node_id": "0.0-59.0"}}, {"uniqueid": "MTK0939:3RXPCZQMQQI1YXHFJJS7VSQVE1K1GY", "current_trial": 78, "dateTime": 1512932733625, "trialdata": {"rt": -1, "stimulus": "<p id=\"stim\">10</p>", "key_press": -1, "trial_type": "single-stim", "trial_index": 78, "time_elapsed": 441784, "internal_node_id": "0.0-60.0-0.0"}}, {"uniqueid": "MTK0939:3RXPCZQMQQI1YXHFJJS7VSQVE1K1GY", "current_trial": 79, "dateTime": 1512932734628, "trialdata": {"rt": -1, "stimulus": "<p id=\"stim\">9</p>", "key_press": -1, "trial_type": "single-stim", "trial_index": 79, "time_elapsed": 442792, "internal_node_id": "0.0-60.0-1.0"}}, {"uniqueid": "MTK0939:3RXPCZQMQQI1YXHFJJS7VSQVE1K1GY", "current_trial": 80, "dateTime": 1512932735632, "trialdata": {"rt": -1, "stimulus": "<p id=\"stim\">8</p>", "key_press": -1, "trial_type": "single-stim", "trial_index": 80, "time_elapsed": 443796, "internal_node_id": "0.0-60.0-2.0"}}, {"uniqueid": "MTK0939:3RXPCZQMQQI1YXHFJJS7VSQVE1K1GY", "current_trial": 81, "dateTime": 1512932736634, "trialdata": {"rt": -1, "stimulus": "<p id=\"stim\">7</p>", "key_press": -1, "trial_type": "single-stim", "trial_index": 81, "time_elapsed": 444798, "internal_node_id": "0.0-60.0-3.0"}}, {"uniqueid": "MTK0939:3RXPCZQMQQI1YXHFJJS7VSQVE1K1GY", "current_trial": 82, "dateTime": 1512932737636, "trialdata": {"rt": -1, "stimulus": "<p id=\"stim\">6</p>", "key_press": -1, "trial_type": "single-stim", "trial_index": 82, "time_elapsed": 445799, "internal_node_id": "0.0-60.0-4.0"}}, {"uniqueid": "MTK0939:3RXPCZQMQQI1YXHFJJS7VSQVE1K1GY", "current_trial": 83, "dateTime": 1512932738640, "trialdata": {"rt": -1, "stimulus": "<p id=\"stim\">5</p>", "key_press": -1, "trial_type": "single-stim", "trial_index": 83, "time_elapsed": 446804, "internal_node_id": "0.0-60.0-5.0"}}, {"uniqueid": "MTK0939:3RXPCZQMQQI1YXHFJJS7VSQVE1K1GY", "current_trial": 84, "dateTime": 1512932739642, "trialdata": {"rt": -1, "stimulus": "<p id=\"stim\">4</p>", "key_press": -1, "trial_type": "single-stim", "trial_index": 84, "time_elapsed": 447806, "internal_node_id": "0.0-60.0-6.0"}}, {"uniqueid": "MTK0939:3RXPCZQMQQI1YXHFJJS7VSQVE1K1GY", "current_trial": 85, "dateTime": 1512932740644, "trialdata": {"rt": -1, "stimulus": "<p id=\"stim\">3</p>", "key_press": -1, "trial_type": "single-stim", "trial_index": 85, "time_elapsed": 448808, "internal_node_id": "0.0-60.0-7.0"}}, {"uniqueid": "MTK0939:3RXPCZQMQQI1YXHFJJS7VSQVE1K1GY", "current_trial": 86, "dateTime": 1512932741646, "trialdata": {"rt": -1, "stimulus": "<p id=\"stim\">2</p>", "key_press": -1, "trial_type": "single-stim", "trial_index": 86, "time_elapsed": 449810, "internal_node_id": "0.0-60.0-8.0"}}, {"uniqueid": "MTK0939:3RXPCZQMQQI1YXHFJJS7VSQVE1K1GY", "current_trial": 87, "dateTime": 1512932742649, "trialdata": {"rt": -1, "stimulus": "<p id=\"stim\">1</p>", "key_press": -1, "trial_type": "single-stim", "trial_index": 87, "time_elapsed": 450813, "internal_node_id": "0.0-60.0-9.0"}}, {"uniqueid": "MTK0939:3RXPCZQMQQI1YXHFJJS7VSQVE1K1GY", "current_trial": 88, "dateTime": 1512932744175, "trialdata": {"rt": -1, "stimulus": "<p id=\"stim\">+</p>", "key_press": -1, "type": "FIXATION", "trial_type": "single-stim", "trial_index": 88, "time_elapsed": 452333, "internal_node_id": "0.0-61.0-0.0"}}, {"uniqueid": "MTK0939:3RXPCZQMQQI1YXHFJJS7VSQVE1K1GY", "current_trial": 89, "dateTime": 1512932745862, "trialdata": {"rt": -1000, "stimulus": "/static/audio/wordpool/SPONGE.wav", "key_press": -1, "type": "PRES_AUD", "word": "sponge", "wordID": 1354, "conditions": [24, 800, "a", 12000], "trial": 2, "serialpos": 0, "trial_type": "single-audio", "trial_index": 89, "time_elapsed": 454026, "internal_node_id": "0.0-62.0"}}, {"uniqueid": "MTK0939:3RXPCZQMQQI1YXHFJJS7VSQVE1K1GY", "current_trial": 90, "dateTime": 1512932747467, "trialdata": {"rt": -1000, "stimulus": "/static/audio/wordpool/JOURNAL.wav", "key_press": -1, "type": "PRES_AUD", "word": "journal", "wordID": 759, "conditions": [24, 800, "a", 12000], "trial": 2, "serialpos": 1, "trial_type": "single-audio", "trial_index": 90, "time_elapsed": 455631, "internal_node_id": "0.0-63.0"}}, {"uniqueid": "MTK0939:3RXPCZQMQQI1YXHFJJS7VSQVE1K1GY", "current_trial": 91, "dateTime": 1512932749459, "trialdata": {"rt": -1000, "stimulus": "/static/audio/wordpool/SKIRT.wav", "key_press": -1, "type": "PRES_AUD", "word": "skirt", "wordID": 1318, "conditions": [24, 800, "a", 12000], "trial": 2, "serialpos": 2, "trial_type": "single-audio", "trial_index": 91, "time_elapsed": 457623, "internal_node_id": "0.0-64.0"}}, {"uniqueid": "MTK0939:3RXPCZQMQQI1YXHFJJS7VSQVE1K1GY", "current_trial": 92, "dateTime": 1512932751061, "trialdata": {"rt": -1000, "stimulus": "/static/audio/wordpool/BLOUSE.wav", "key_press": -1, "type": "PRES_AUD", "word": "blouse", "wordID": 138, "conditions": [24, 800, "a", 12000], "trial": 2, "serialpos": 3, "trial_type": "single-audio", "trial_index": 92, "time_elapsed": 459225, "internal_node_id": "0.0-65.0"}}, {"uniqueid": "MTK0939:3RXPCZQMQQI1YXHFJJS7VSQVE1K1GY", "current_trial": 93, "dateTime": 1512932753012, "trialdata": {"rt": -1000, "stimulus": "/static/audio/wordpool/COSTUME.wav", "key_press": -1, "type": "PRES_AUD", "word": "costume", "wordID": 382, "conditions": [24, 800, "a", 12000], "trial": 2, "serialpos": 4, "trial_type": "single-audio", "trial_index": 93, "time_elapsed": 461176, "internal_node_id": "0.0-66.0"}}, {"uniqueid": "MTK0939:3RXPCZQMQQI1YXHFJJS7VSQVE1K1GY", "current_trial": 94, "dateTime": 1512932754859, "trialdata": {"rt": -1000, "stimulus": "/static/audio/wordpool/PASTA.wav", "key_press": -1, "type": "PRES_AUD", "word": "pasta", "wordID": 1020, "conditions": [24, 800, "a", 12000], "trial": 2, "serialpos": 5, "trial_type": "single-audio", "trial_index": 94, "time_elapsed": 463023, "internal_node_id": "0.0-67.0"}}, {"uniqueid": "MTK0939:3RXPCZQMQQI1YXHFJJS7VSQVE1K1GY", "current_trial": 95, "dateTime": 1512932756745, "trialdata": {"rt": -1000, "stimulus": "/static/audio/wordpool/COOKBOOK.wav", "key_press": -1, "type": "PRES_AUD", "word": "cookbook", "wordID": 372, "conditions": [24, 800, "a", 12000], "trial": 2, "serialpos": 6, "trial_type": "single-audio", "trial_index": 95, "time_elapsed": 464909, "internal_node_id": "0.0-68.0"}}, {"uniqueid": "MTK0939:3RXPCZQMQQI1YXHFJJS7VSQVE1K1GY", "current_trial": 96, "dateTime": 1512932758666, "trialdata": {"rt": -1000, "stimulus": "/static/audio/wordpool/BUTCHER.wav", "key_press": -1, "type": "PRES_AUD", "word": "butcher", "wordID": 202, "conditions": [24, 800, "a", 12000], "trial": 2, "serialpos": 7, "trial_type": "single-audio", "trial_index": 96, "time_elapsed": 466830, "internal_node_id": "0.0-69.0"}}, {"uniqueid": "MTK0939:3RXPCZQMQQI1YXHFJJS7VSQVE1K1GY", "current_trial": 97, "dateTime": 1512932760445, "trialdata": {"rt": -1000, "stimulus": "/static/audio/wordpool/WARDROBE.wav", "key_press": -1, "type": "PRES_AUD", "word": "wardrobe", "wordID": 1586, "conditions": [24, 800, "a", 12000], "trial": 2, "serialpos": 8, "trial_type": "single-audio", "trial_index": 97, "time_elapsed": 468609, "internal_node_id": "0.0-70.0"}}, {"uniqueid": "MTK0939:3RXPCZQMQQI1YXHFJJS7VSQVE1K1GY", "current_trial": 98, "dateTime": 1512932762345, "trialdata": {"rt": -1000, "stimulus": "/static/audio/wordpool/THREAD.wav", "key_press": -1, "type": "PRES_AUD", "word": "thread", "wordID": 1459, "conditions": [24, 800, "a", 12000], "trial": 2, "serialpos": 9, "trial_type": "single-audio", "trial_index": 98, "time_elapsed": 470509, "internal_node_id": "0.0-71.0"}}, {"uniqueid": "MTK0939:3RXPCZQMQQI1YXHFJJS7VSQVE1K1GY", "current_trial": 99, "dateTime": 1512932764343, "trialdata": {"rt": -1000, "stimulus": "/static/audio/wordpool/TRIBE.wav", "key_press": -1, "type": "PRES_AUD", "word": "tribe", "wordID": 1504, "conditions": [24, 800, "a", 12000], "trial": 2, "serialpos": 10, "trial_type": "single-audio", "trial_index": 99, "time_elapsed": 472507, "internal_node_id": "0.0-72.0"}}, {"uniqueid": "MTK0939:3RXPCZQMQQI1YXHFJJS7VSQVE1K1GY", "current_trial": 100, "dateTime": 1512932766200, "trialdata": {"rt": -1000, "stimulus": "/static/audio/wordpool/BRANCH.wav", "key_press": -1, "type": "PRES_AUD", "word": "branch", "wordID": 167, "conditions": [24, 800, "a", 12000], "trial": 2, "serialpos": 11, "trial_type": "single-audio", "trial_index": 100, "time_elapsed": 474364, "internal_node_id": "0.0-73.0"}}, {"uniqueid": "MTK0939:3RXPCZQMQQI1YXHFJJS7VSQVE1K1GY", "current_trial": 101, "dateTime": 1512932768158, "trialdata": {"rt": -1000, "stimulus": "/static/audio/wordpool/MARROW.wav", "key_press": -1, "type": "PRES_AUD", "word": "marrow", "wordID": 871, "conditions": [24, 800, "a", 12000], "trial": 2, "serialpos": 12, "trial_type": "single-audio", "trial_index": 101, "time_elapsed": 476322, "internal_node_id": "0.0-74.0"}}, {"uniqueid": "MTK0939:3RXPCZQMQQI1YXHFJJS7VSQVE1K1GY", "current_trial": 102, "dateTime": 1512932770021, "trialdata": {"rt": -1000, "stimulus": "/static/audio/wordpool/DRINK.wav", "key_press": -1, "type": "PRES_AUD", "word": "drink", "wordID": 497, "conditions": [24, 800, "a", 12000], "trial": 2, "serialpos": 13, "trial_type": "single-audio", "trial_index": 102, "time_elapsed": 478185, "internal_node_id": "0.0-75.0"}}, {"uniqueid": "MTK0939:3RXPCZQMQQI1YXHFJJS7VSQVE1K1GY", "current_trial": 103, "dateTime": 1512932771673, "trialdata": {"rt": -1000, "stimulus": "/static/audio/wordpool/SODA.wav", "key_press": -1, "type": "PRES_AUD", "word": "soda", "wordID": 1340, "conditions": [24, 800, "a", 12000], "trial": 2, "serialpos": 14, "trial_type": "single-audio", "trial_index": 103, "time_elapsed": 479837, "internal_node_id": "0.0-76.0"}}, {"uniqueid": "MTK0939:3RXPCZQMQQI1YXHFJJS7VSQVE1K1GY", "current_trial": 104, "dateTime": 1512932773447, "trialdata": {"rt": -1000, "stimulus": "/static/audio/wordpool/MUFFIN.wav", "key_press": -1, "type": "PRES_AUD", "word": "muffin", "wordID": 928, "conditions": [24, 800, "a", 12000], "trial": 2, "serialpos": 15, "trial_type": "single-audio", "trial_index": 104, "time_elapsed": 481610, "internal_node_id": "0.0-77.0"}}, {"uniqueid": "MTK0939:3RXPCZQMQQI1YXHFJJS7VSQVE1K1GY", "current_trial": 105, "dateTime": 1512932775121, "trialdata": {"rt": -1000, "stimulus": "/static/audio/wordpool/DRILL.wav", "key_press": -1, "type": "PRES_AUD", "word": "drill", "wordID": 496, "conditions": [24, 800, "a", 12000], "trial": 2, "serialpos": 16, "trial_type": "single-audio", "trial_index": 105, "time_elapsed": 483285, "internal_node_id": "0.0-78.0"}}, {"uniqueid": "MTK0939:3RXPCZQMQQI1YXHFJJS7VSQVE1K1GY", "current_trial": 106, "dateTime": 1512932776914, "trialdata": {"rt": -1000, "stimulus": "/static/audio/wordpool/DENTIST.wav", "key_press": -1, "type": "PRES_AUD", "word": "dentist", "wordID": 446, "conditions": [24, 800, "a", 12000], "trial": 2, "serialpos": 17, "trial_type": "single-audio", "trial_index": 106, "time_elapsed": 485078, "internal_node_id": "0.0-79.0"}}, {"uniqueid": "MTK0939:3RXPCZQMQQI1YXHFJJS7VSQVE1K1GY", "current_trial": 107, "dateTime": 1512932778723, "trialdata": {"rt": -1000, "stimulus": "/static/audio/wordpool/LIVER.wav", "key_press": -1, "type": "PRES_AUD", "word": "liver", "wordID": 832, "conditions": [24, 800, "a", 12000], "trial": 2, "serialpos": 18, "trial_type": "single-audio", "trial_index": 107, "time_elapsed": 486887, "internal_node_id": "0.0-80.0"}}, {"uniqueid": "MTK0939:3RXPCZQMQQI1YXHFJJS7VSQVE1K1GY", "current_trial": 108, "dateTime": 1512932780641, "trialdata": {"rt": -1000, "stimulus": "/static/audio/wordpool/LUMBER.wav", "key_press": -1, "type": "PRES_AUD", "word": "lumber", "wordID": 847, "conditions": [24, 800, "a", 12000], "trial": 2, "serialpos": 19, "trial_type": "single-audio", "trial_index": 108, "time_elapsed": 488805, "internal_node_id": "0.0-81.0"}}, {"uniqueid": "MTK0939:3RXPCZQMQQI1YXHFJJS7VSQVE1K1GY", "current_trial": 109, "dateTime": 1512932782318, "trialdata": {"rt": -1000, "stimulus": "/static/audio/wordpool/TWEEZERS.wav", "key_press": -1, "type": "PRES_AUD", "word": "tweezers", "wordID": 1525, "conditions": [24, 800, "a", 12000], "trial": 2, "serialpos": 20, "trial_type": "single-audio", "trial_index": 109, "time_elapsed": 490482, "internal_node_id": "0.0-82.0"}}, {"uniqueid": "MTK0939:3RXPCZQMQQI1YXHFJJS7VSQVE1K1GY", "current_trial": 110, "dateTime": 1512932784104, "trialdata": {"rt": -1000, "stimulus": "/static/audio/wordpool/LIZARD.wav", "key_press": -1, "type": "PRES_AUD", "word": "lizard", "wordID": 833, "conditions": [24, 800, "a", 12000], "trial": 2, "serialpos": 21, "trial_type": "single-audio", "trial_index": 110, "time_elapsed": 492268, "internal_node_id": "0.0-83.0"}}, {"uniqueid": "MTK0939:3RXPCZQMQQI1YXHFJJS7VSQVE1K1GY", "current_trial": 111, "dateTime": 1512932785725, "trialdata": {"rt": -1000, "stimulus": "/static/audio/wordpool/PUPPY.wav", "key_press": -1, "type": "PRES_AUD", "word": "puppy", "wordID": 1143, "conditions": [24, 800, "a", 12000], "trial": 2, "serialpos": 22, "trial_type": "single-audio", "trial_index": 111, "time_elapsed": 493889, "internal_node_id": "0.0-84.0"}}, {"uniqueid": "MTK0939:3RXPCZQMQQI1YXHFJJS7VSQVE1K1GY", "current_trial": 112, "dateTime": 1512932787384, "trialdata": {"rt": -1000, "stimulus": "/static/audio/wordpool/NOTEBOOK.wav", "key_press": -1, "type": "PRES_AUD", "word": "notebook", "wordID": 958, "conditions": [24, 800, "a", 12000], "trial": 2, "serialpos": 23, "trial_type": "single-audio", "trial_index": 112, "time_elapsed": 495548, "internal_node_id": "0.0-85.0"}}, {"uniqueid": "MTK0939:3RXPCZQMQQI1YXHFJJS7VSQVE1K1GY", "current_trial": 113, "dateTime": 1512932788769, "trialdata": {"rt": -1, "stimulus": "", "key_press": -1, "type": "PRE_RECALL_DELAY", "trial_type": "single-stim", "trial_index": 113, "time_elapsed": 496933, "internal_node_id": "0.0-86.0-0.0"}}, {"uniqueid": "MTK0939:3RXPCZQMQQI1YXHFJJS7VSQVE1K1GY", "current_trial": 114, "dateTime": 1512932789271, "trialdata": {"rt": -1000, "stimulus": "/static/audio/400Hz.wav", "key_press": -1, "type": "PRE_RECALL_ALERT", "trial_type": "single-audio", "trial_index": 114, "time_elapsed": 497435, "internal_node_id": "0.0-87.0"}}, {"uniqueid": "MTK0939:3RXPCZQMQQI1YXHFJJS7VSQVE1K1GY", "current_trial": 115, "dateTime": 1512932849284, "trialdata": {"rt": [1949, 4832, 8452, 13889, 16013, 21016, 25032, 26980, 33121, 35818, 42253], "recwords": ["puppy", "notebook", "drill", "dentist", "liver", "notebook", "drink", "soda", "skirt", "blouse", "puppy"], "type": "FREE_RECALL", "conditions": [24, 800, "a", 12000], "trial": 2, "trial_type": "free-recall", "trial_index": 115, "time_elapsed": 557441, "internal_node_id": "0.0-88.0-0.0"}}, {"uniqueid": "MTK0939:3RXPCZQMQQI1YXHFJJS7VSQVE1K1GY", "current_trial": 116, "dateTime": 1512932870205, "trialdata": {"rt": 18918, "key_press": 13, "type": "INSTRUCTIONS", "trial_type": "text", "trial_index": 116, "time_elapsed": 578369, "internal_node_id": "0.0-89.0"}}, {"uniqueid": "MTK0939:3RXPCZQMQQI1YXHFJJS7VSQVE1K1GY", "current_trial": 117, "dateTime": 1512932896213, "trialdata": {"rt": [3073, 6122, 8232, 10394, 12862, 15103, 17436, 20516, 22685], "responses": ["19", "13", "9", "11", "19", "15", "14", "14", "13"], "num1": [8, 7, 1, 1, 3, 1, 2, 8, 3, 3], "num2": [8, 4, 3, 8, 7, 7, 6, 5, 5, 1], "num3": [3, 2, 5, 2, 9, 7, 6, 1, 5, 3], "type": "DISTRACTOR", "conditions": [12, 1600, "a", 24000], "trial": 3, "trial_type": "math-distractor", "trial_index": 117, "time_elapsed": 604377, "internal_node_id": "0.0-90.0"}}, {"uniqueid": "MTK0939:3RXPCZQMQQI1YXHFJJS7VSQVE1K1GY", "current_trial": 118, "dateTime": 1512932899294, "trialdata": {"rt": -1, "stimulus": "<p id=\"stim\">10</p>", "key_press": -1, "trial_type": "single-stim", "trial_index": 118, "time_elapsed": 607458, "internal_node_id": "0.0-91.0-0.0"}}, {"uniqueid": "MTK0939:3RXPCZQMQQI1YXHFJJS7VSQVE1K1GY", "current_trial": 119, "dateTime": 1512932900296, "trialdata": {"rt": -1, "stimulus": "<p id=\"stim\">9</p>", "key_press": -1, "trial_type": "single-stim", "trial_index": 119, "time_elapsed": 608460, "internal_node_id": "0.0-91.0-1.0"}}, {"uniqueid": "MTK0939:3RXPCZQMQQI1YXHFJJS7VSQVE1K1GY", "current_trial": 120, "dateTime": 1512932901298, "trialdata": {"rt": -1, "stimulus": "<p id=\"stim\">8</p>", "key_press": -1, "trial_type": "single-stim", "trial_index": 120, "time_elapsed": 609462, "internal_node_id": "0.0-91.0-2.0"}}, {"uniqueid": "MTK0939:3RXPCZQMQQI1YXHFJJS7VSQVE1K1GY", "current_trial": 121, "dateTime": 1512932902356, "trialdata": {"rt": -1, "stimulus": "<p id=\"stim\">7</p>", "key_press": -1, "trial_type": "single-stim", "trial_index": 121, "time_elapsed": 610520, "internal_node_id": "0.0-91.0-3.0"}}, {"uniqueid": "MTK0939:3RXPCZQMQQI1YXHFJJS7VSQVE1K1GY", "current_trial": 122, "dateTime": 1512932903357, "trialdata": {"rt": -1, "stimulus": "<p id=\"stim\">6</p>", "key_press": -1, "trial_type": "single-stim", "trial_index": 122, "time_elapsed": 611521, "internal_node_id": "0.0-91.0-4.0"}}, {"uniqueid": "MTK0939:3RXPCZQMQQI1YXHFJJS7VSQVE1K1GY", "current_trial": 123, "dateTime": 1512932904359, "trialdata": {"rt": -1, "stimulus": "<p id=\"stim\">5</p>", "key_press": -1, "trial_type": "single-stim", "trial_index": 123, "time_elapsed": 612523, "internal_node_id": "0.0-91.0-5.0"}}, {"uniqueid": "MTK0939:3RXPCZQMQQI1YXHFJJS7VSQVE1K1GY", "current_trial": 124, "dateTime": 1512932905362, "trialdata": {"rt": -1, "stimulus": "<p id=\"stim\">4</p>", "key_press": -1, "trial_type": "single-stim", "trial_index": 124, "time_elapsed": 613526, "internal_node_id": "0.0-91.0-6.0"}}, {"uniqueid": "MTK0939:3RXPCZQMQQI1YXHFJJS7VSQVE1K1GY", "current_trial": 125, "dateTime": 1512932906364, "trialdata": {"rt": -1, "stimulus": "<p id=\"stim\">3</p>", "key_press": -1, "trial_type": "single-stim", "trial_index": 125, "time_elapsed": 614527, "internal_node_id": "0.0-91.0-7.0"}}, {"uniqueid": "MTK0939:3RXPCZQMQQI1YXHFJJS7VSQVE1K1GY", "current_trial": 126, "dateTime": 1512932907365, "trialdata": {"rt": -1, "stimulus": "<p id=\"stim\">2</p>", "key_press": -1, "trial_type": "single-stim", "trial_index": 126, "time_elapsed": 615529, "internal_node_id": "0.0-91.0-8.0"}}, {"uniqueid": "MTK0939:3RXPCZQMQQI1YXHFJJS7VSQVE1K1GY", "current_trial": 127, "dateTime": 1512932908367, "trialdata": {"rt": -1, "stimulus": "<p id=\"stim\">1</p>", "key_press": -1, "trial_type": "single-stim", "trial_index": 127, "time_elapsed": 616530, "internal_node_id": "0.0-91.0-9.0"}}, {"uniqueid": "MTK0939:3RXPCZQMQQI1YXHFJJS7VSQVE1K1GY", "current_trial": 128, "dateTime": 1512932909869, "trialdata": {"rt": -1, "stimulus": "<p id=\"stim\">+</p>", "key_press": -1, "type": "FIXATION", "trial_type": "single-stim", "trial_index": 128, "time_elapsed": 618033, "internal_node_id": "0.0-92.0-0.0"}}, {"uniqueid": "MTK0939:3RXPCZQMQQI1YXHFJJS7VSQVE1K1GY", "current_trial": 129, "dateTime": 1512932912525, "trialdata": {"rt": -1000, "stimulus": "/static/audio/wordpool/LOVER.wav", "key_press": -1, "type": "PRES_AUD", "word": "lover", "wordID": 845, "conditions": [12, 1600, "a", 24000], "trial": 3, "serialpos": 0, "trial_type": "single-audio", "trial_index": 129, "time_elapsed": 620689, "internal_node_id": "0.0-93.0"}}, {"uniqueid": "MTK0939:3RXPCZQMQQI1YXHFJJS7VSQVE1K1GY", "current_trial": 130, "dateTime": 1512932915175, "trialdata": {"rt": -1000, "stimulus": "/static/audio/wordpool/WORKER.wav", "key_press": -1, "type": "PRES_AUD", "word": "worker", "wordID": 1620, "conditions": [12, 1600, "a", 24000], "trial": 3, "serialpos": 1, "trial_type": "single-audio", "trial_index": 130, "time_elapsed": 623339, "internal_node_id": "0.0-94.0"}}, {"uniqueid": "MTK0939:3RXPCZQMQQI1YXHFJJS7VSQVE1K1GY", "current_trial": 131, "dateTime": 1512932917727, "trialdata": {"rt": -1000, "stimulus": "/static/audio/wordpool/PUDDLE.wav", "key_press": -1, "type": "PRES_AUD", "word": "puddle", "wordID": 1139, "conditions": [12, 1600, "a", 24000], "trial": 3, "serialpos": 2, "trial_type": "single-audio", "trial_index": 131, "time_elapsed": 625891, "internal_node_id": "0.0-95.0"}}, {"uniqueid": "MTK0939:3RXPCZQMQQI1YXHFJJS7VSQVE1K1GY", "current_trial": 132, "dateTime": 1512932920362, "trialdata": {"rt": -1000, "stimulus": "/static/audio/wordpool/FOX.wav", "key_press": -1, "type": "PRES_AUD", "word": "fox", "wordID": 597, "conditions": [12, 1600, "a", 24000], "trial": 3, "serialpos": 3, "trial_type": "single-audio", "trial_index": 132, "time_elapsed": 628526, "internal_node_id": "0.0-96.0"}}, {"uniqueid": "MTK0939:3RXPCZQMQQI1YXHFJJS7VSQVE1K1GY", "current_trial": 133, "dateTime": 1512932923139, "trialdata": {"rt": -1000, "stimulus": "/static/audio/wordpool/PIGMENT.wav", "key_press": -1, "type": "PRES_AUD", "word": "pigment", "wordID": 1065, "conditions": [12, 1600, "a", 24000], "trial": 3, "serialpos": 4, "trial_type": "single-audio", "trial_index": 133, "time_elapsed": 631303, "internal_node_id": "0.0-97.0"}}, {"uniqueid": "MTK0939:3RXPCZQMQQI1YXHFJJS7VSQVE1K1GY", "current_trial": 134, "dateTime": 1512932925567, "trialdata": {"rt": -1000, "stimulus": "/static/audio/wordpool/TWIG.wav", "key_press": -1, "type": "PRES_AUD", "word": "twig", "wordID": 1526, "conditions": [12, 1600, "a", 24000], "trial": 3, "serialpos": 5, "trial_type": "single-audio", "trial_index": 134, "time_elapsed": 633731, "internal_node_id": "0.0-98.0"}}, {"uniqueid": "MTK0939:3RXPCZQMQQI1YXHFJJS7VSQVE1K1GY", "current_trial": 135, "dateTime": 1512932928030, "trialdata": {"rt": -1000, "stimulus": "/static/audio/wordpool/COMPASS.wav", "key_press": -1, "type": "PRES_AUD", "word": "compass", "wordID": 357, "conditions": [12, 1600, "a", 24000], "trial": 3, "serialpos": 6, "trial_type": "single-audio", "trial_index": 135, "time_elapsed": 636194, "internal_node_id": "0.0-99.0"}}, {"uniqueid": "MTK0939:3RXPCZQMQQI1YXHFJJS7VSQVE1K1GY", "current_trial": 136, "dateTime": 1512932930629, "trialdata": {"rt": -1000, "stimulus": "/static/audio/wordpool/JUNGLE.wav", "key_press": -1, "type": "PRES_AUD", "word": "jungle", "wordID": 763, "conditions": [12, 1600, "a", 24000], "trial": 3, "serialpos": 7, "trial_type": "single-audio", "trial_index": 136, "time_elapsed": 638793, "internal_node_id": "0.0-100.0"}}, {"uniqueid": "MTK0939:3RXPCZQMQQI1YXHFJJS7VSQVE1K1GY", "current_trial": 137, "dateTime": 1512932933263, "trialdata": {"rt": -1000, "stimulus": "/static/audio/wordpool/CHURCH.wav", "key_press": -1, "type": "PRES_AUD", "word": "church", "wordID": 306, "conditions": [12, 1600, "a", 24000], "trial": 3, "serialpos": 8, "trial_type": "single-audio", "trial_index": 137, "time_elapsed": 641427, "internal_node_id": "0.0-101.0"}}, {"uniqueid": "MTK0939:3RXPCZQMQQI1YXHFJJS7VSQVE1K1GY", "current_trial": 138, "dateTime": 1512932935685, "trialdata": {"rt": -1000, "stimulus": "/static/audio/wordpool/CHAPEL.wav", "key_press": -1, "type": "PRES_AUD", "word": "chapel", "wordID": 279, "conditions": [12, 1600, "a", 24000], "trial": 3, "serialpos": 9, "trial_type": "single-audio", "trial_index": 138, "time_elapsed": 643849, "internal_node_id": "0.0-102.0"}}, {"uniqueid": "MTK0939:3RXPCZQMQQI1YXHFJJS7VSQVE1K1GY", "current_trial": 139, "dateTime": 1512932938395, "trialdata": {"rt": -1000, "stimulus": "/static/audio/wordpool/WOMAN.wav", "key_press": -1, "type": "PRES_AUD", "word": "woman", "wordID": 1619, "conditions": [12, 1600, "a", 24000], "trial": 3, "serialpos": 10, "trial_type": "single-audio", "trial_index": 139, "time_elapsed": 646558, "internal_node_id": "0.0-103.0"}}, {"uniqueid": "MTK0939:3RXPCZQMQQI1YXHFJJS7VSQVE1K1GY", "current_trial": 140, "dateTime": 1512932941011, "trialdata": {"rt": -1000, "stimulus": "/static/audio/wordpool/PARROT.wav", "key_press": -1, "type": "PRES_AUD", "word": "parrot", "wordID": 1014, "conditions": [12, 1600, "a", 24000], "trial": 3, "serialpos": 11, "trial_type": "single-audio", "trial_index": 140, "time_elapsed": 649175, "internal_node_id": "0.0-104.0"}}, {"uniqueid": "MTK0939:3RXPCZQMQQI1YXHFJJS7VSQVE1K1GY", "current_trial": 141, "dateTime": 1512932942247, "trialdata": {"rt": -1, "stimulus": "", "key_press": -1, "type": "PRE_RECALL_DELAY", "trial_type": "single-stim", "trial_index": 141, "time_elapsed": 650411, "internal_node_id": "0.0-105.0-0.0"}}, {"uniqueid": "MTK0939:3RXPCZQMQQI1YXHFJJS7VSQVE1K1GY", "current_trial": 142, "dateTime": 1512932942750, "trialdata": {"rt": -1000, "stimulus": "/static/audio/400Hz.wav", "key_press": -1, "type": "PRE_RECALL_ALERT", "trial_type": "single-audio", "trial_index": 142, "time_elapsed": 650914, "internal_node_id": "0.0-106.0"}}, {"uniqueid": "MTK0939:3RXPCZQMQQI1YXHFJJS7VSQVE1K1GY", "current_trial": 143, "dateTime": 1512933002762, "trialdata": {"rt": [4303, 7201, 8889, 10634, 13224, 15783, 22508, 25790, 59860], "recwords": ["lover", "worker", "church", "chapel", "woman", "parrot", "compass", "jungle", "fox"], "type": "FREE_RECALL", "conditions": [12, 1600, "a", 24000], "trial": 3, "trial_type": "free-recall", "trial_index": 143, "time_elapsed": 710920, "internal_node_id": "0.0-107.0-0.0"}}, {"uniqueid": "MTK0939:3RXPCZQMQQI1YXHFJJS7VSQVE1K1GY", "current_trial": 144, "dateTime": 1512933006652, "trialdata": {"rt": 1888, "key_press": 13, "type": "INSTRUCTIONS", "trial_type": "text", "trial_index": 144, "time_elapsed": 714816, "internal_node_id": "0.0-108.0"}}, {"uniqueid": "MTK0939:3RXPCZQMQQI1YXHFJJS7VSQVE1K1GY", "current_trial": 145, "dateTime": 1512933020659, "trialdata": {"rt": [5701, 7468, 9469], "responses": ["15", "7", "15"], "num1": [4, 3, 7, 6], "num2": [2, 1, 3, 9], "num3": [9, 3, 5, 3], "type": "DISTRACTOR", "conditions": [12, 1600, "a", 12000], "trial": 4, "trial_type": "math-distractor", "trial_index": 145, "time_elapsed": 728823, "internal_node_id": "0.0-109.0"}}, {"uniqueid": "MTK0939:3RXPCZQMQQI1YXHFJJS7VSQVE1K1GY", "current_trial": 146, "dateTime": 1512933023662, "trialdata": {"rt": -1, "stimulus": "<p id=\"stim\">10</p>", "key_press": -1, "trial_type": "single-stim", "trial_index": 146, "time_elapsed": 731825, "internal_node_id": "0.0-110.0-0.0"}}, {"uniqueid": "MTK0939:3RXPCZQMQQI1YXHFJJS7VSQVE1K1GY", "current_trial": 147, "dateTime": 1512933024666, "trialdata": {"rt": -1, "stimulus": "<p id=\"stim\">9</p>", "key_press": -1, "trial_type": "single-stim", "trial_index": 147, "time_elapsed": 732829, "internal_node_id": "0.0-110.0-1.0"}}, {"uniqueid": "MTK0939:3RXPCZQMQQI1YXHFJJS7VSQVE1K1GY", "current_trial": 148, "dateTime": 1512933025668, "trialdata": {"rt": -1, "stimulus": "<p id=\"stim\">8</p>", "key_press": -1, "trial_type": "single-stim", "trial_index": 148, "time_elapsed": 733832, "internal_node_id": "0.0-110.0-2.0"}}, {"uniqueid": "MTK0939:3RXPCZQMQQI1YXHFJJS7VSQVE1K1GY", "current_trial": 149, "dateTime": 1512933026678, "trialdata": {"rt": -1, "stimulus": "<p id=\"stim\">7</p>", "key_press": -1, "trial_type": "single-stim", "trial_index": 149, "time_elapsed": 734841, "internal_node_id": "0.0-110.0-3.0"}}, {"uniqueid": "MTK0939:3RXPCZQMQQI1YXHFJJS7VSQVE1K1GY", "current_trial": 150, "dateTime": 1512933027694, "trialdata": {"rt": -1, "stimulus": "<p id=\"stim\">6</p>", "key_press": -1, "trial_type": "single-stim", "trial_index": 150, "time_elapsed": 735858, "internal_node_id": "0.0-110.0-4.0"}}, {"uniqueid": "MTK0939:3RXPCZQMQQI1YXHFJJS7VSQVE1K1GY", "current_trial": 151, "dateTime": 1512933028698, "trialdata": {"rt": -1, "stimulus": "<p id=\"stim\">5</p>", "key_press": -1, "trial_type": "single-stim", "trial_index": 151, "time_elapsed": 736862, "internal_node_id": "0.0-110.0-5.0"}}, {"uniqueid": "MTK0939:3RXPCZQMQQI1YXHFJJS7VSQVE1K1GY", "current_trial": 152, "dateTime": 1512933029702, "trialdata": {"rt": -1, "stimulus": "<p id=\"stim\">4</p>", "key_press": -1, "trial_type": "single-stim", "trial_index": 152, "time_elapsed": 737866, "internal_node_id": "0.0-110.0-6.0"}}, {"uniqueid": "MTK0939:3RXPCZQMQQI1YXHFJJS7VSQVE1K1GY", "current_trial": 153, "dateTime": 1512933030704, "trialdata": {"rt": -1, "stimulus": "<p id=\"stim\">3</p>", "key_press": -1, "trial_type": "single-stim", "trial_index": 153, "time_elapsed": 738868, "internal_node_id": "0.0-110.0-7.0"}}, {"uniqueid": "MTK0939:3RXPCZQMQQI1YXHFJJS7VSQVE1K1GY", "current_trial": 154, "dateTime": 1512933031709, "trialdata": {"rt": -1, "stimulus": "<p id=\"stim\">2</p>", "key_press": -1, "trial_type": "single-stim", "trial_index": 154, "time_elapsed": 739872, "internal_node_id": "0.0-110.0-8.0"}}, {"uniqueid": "MTK0939:3RXPCZQMQQI1YXHFJJS7VSQVE1K1GY", "current_trial": 155, "dateTime": 1512933033486, "trialdata": {"rt": -1, "stimulus": "<p id=\"stim\">1</p>", "key_press": -1, "trial_type": "single-stim", "trial_index": 155, "time_elapsed": 741650, "internal_node_id": "0.0-110.0-9.0"}}, {"uniqueid": "MTK0939:3RXPCZQMQQI1YXHFJJS7VSQVE1K1GY", "current_trial": 156, "dateTime": 1512933034998, "trialdata": {"rt": -1, "stimulus": "<p id=\"stim\">+</p>", "key_press": -1, "type": "FIXATION", "trial_type": "single-stim", "trial_index": 156, "time_elapsed": 743159, "internal_node_id": "0.0-111.0-0.0"}}, {"uniqueid": "MTK0939:3RXPCZQMQQI1YXHFJJS7VSQVE1K1GY", "current_trial": 157, "dateTime": 1512933037700, "trialdata": {"rt": -1000, "stimulus": "/static/audio/wordpool/PACKAGE.wav", "key_press": -1, "type": "PRES_AUD", "word": "package", "wordID": 996, "conditions": [12, 1600, "a", 12000], "trial": 4, "serialpos": 0, "trial_type": "single-audio", "trial_index": 157, "time_elapsed": 745863, "internal_node_id": "0.0-112.0"}}, {"uniqueid": "MTK0939:3RXPCZQMQQI1YXHFJJS7VSQVE1K1GY", "current_trial": 158, "dateTime": 1512933040239, "trialdata": {"rt": -1000, "stimulus": "/static/audio/wordpool/QUEEN.wav", "key_press": -1, "type": "PRES_AUD", "word": "queen", "wordID": 1148, "conditions": [12, 1600, "a", 12000], "trial": 4, "serialpos": 1, "trial_type": "single-audio", "trial_index": 158, "time_elapsed": 748403, "internal_node_id": "0.0-113.0"}}, {"uniqueid": "MTK0939:3RXPCZQMQQI1YXHFJJS7VSQVE1K1GY", "current_trial": 159, "dateTime": 1512933042913, "trialdata": {"rt": -1000, "stimulus": "/static/audio/wordpool/HOSTESS.wav", "key_press": -1, "type": "PRES_AUD", "word": "hostess", "wordID": 722, "conditions": [12, 1600, "a", 12000], "trial": 4, "serialpos": 2, "trial_type": "single-audio", "trial_index": 159, "time_elapsed": 751076, "internal_node_id": "0.0-114.0"}}, {"uniqueid": "MTK0939:3RXPCZQMQQI1YXHFJJS7VSQVE1K1GY", "current_trial": 160, "dateTime": 1512933045415, "trialdata": {"rt": -1000, "stimulus": "/static/audio/wordpool/LODGE.wav", "key_press": -1, "type": "PRES_AUD", "word": "lodge", "wordID": 838, "conditions": [12, 1600, "a", 12000], "trial": 4, "serialpos": 3, "trial_type": "single-audio", "trial_index": 160, "time_elapsed": 753579, "internal_node_id": "0.0-115.0"}}, {"uniqueid": "MTK0939:3RXPCZQMQQI1YXHFJJS7VSQVE1K1GY", "current_trial": 161, "dateTime": 1512933047976, "trialdata": {"rt": -1000, "stimulus": "/static/audio/wordpool/SHORTS.wav", "key_press": -1, "type": "PRES_AUD", "word": "shorts", "wordID": 1292, "conditions": [12, 1600, "a", 12000], "trial": 4, "serialpos": 4, "trial_type": "single-audio", "trial_index": 161, "time_elapsed": 756140, "internal_node_id": "0.0-116.0"}}, {"uniqueid": "MTK0939:3RXPCZQMQQI1YXHFJJS7VSQVE1K1GY", "current_trial": 162, "dateTime": 1512933050780, "trialdata": {"rt": -1000, "stimulus": "/static/audio/wordpool/VELVET.wav", "key_press": -1, "type": "PRES_AUD", "word": "velvet", "wordID": 1554, "conditions": [12, 1600, "a", 12000], "trial": 4, "serialpos": 5, "trial_type": "single-audio", "trial_index": 162, "time_elapsed": 758944, "internal_node_id": "0.0-117.0"}}, {"uniqueid": "MTK0939:3RXPCZQMQQI1YXHFJJS7VSQVE1K1GY", "current_trial": 163, "dateTime": 1512933053359, "trialdata": {"rt": -1000, "stimulus": "/static/audio/wordpool/STOMACH.wav", "key_press": -1, "type": "PRES_AUD", "word": "stomach", "wordID": 1383, "conditions": [12, 1600, "a", 12000], "trial": 4, "serialpos": 6, "trial_type": "single-audio", "trial_index": 163, "time_elapsed": 761523, "internal_node_id": "0.0-118.0"}}, {"uniqueid": "MTK0939:3RXPCZQMQQI1YXHFJJS7VSQVE1K1GY", "current_trial": 164, "dateTime": 1512933055867, "trialdata": {"rt": -1000, "stimulus": "/static/audio/wordpool/CHEST.wav", "key_press": -1, "type": "PRES_AUD", "word": "chest", "wordID": 294, "conditions": [12, 1600, "a", 12000], "trial": 4, "serialpos": 7, "trial_type": "single-audio", "trial_index": 164, "time_elapsed": 764030, "internal_node_id": "0.0-119.0"}}, {"uniqueid": "MTK0939:3RXPCZQMQQI1YXHFJJS7VSQVE1K1GY", "current_trial": 165, "dateTime": 1512933058480, "trialdata": {"rt": -1000, "stimulus": "/static/audio/wordpool/WAGON.wav", "key_press": -1, "type": "PRES_AUD", "word": "wagon", "wordID": 1577, "conditions": [12, 1600, "a", 12000], "trial": 4, "serialpos": 8, "trial_type": "single-audio", "trial_index": 165, "time_elapsed": 766644, "internal_node_id": "0.0-120.0"}}, {"uniqueid": "MTK0939:3RXPCZQMQQI1YXHFJJS7VSQVE1K1GY", "current_trial": 166, "dateTime": 1512933061040, "trialdata": {"rt": -1000, "stimulus": "/static/audio/wordpool/PEBBLE.wav", "key_press": -1, "type": "PRES_AUD", "word": "pebble", "wordID": 1034, "conditions": [12, 1600, "a", 12000], "trial": 4, "serialpos": 9, "trial_type": "single-audio", "trial_index": 166, "time_elapsed": 769204, "internal_node_id": "0.0-121.0"}}, {"uniqueid": "MTK0939:3RXPCZQMQQI1YXHFJJS7VSQVE1K1GY", "current_trial": 167, "dateTime": 1512933063827, "trialdata": {"rt": -1000, "stimulus": "/static/audio/wordpool/VALLEY.wav", "key_press": -1, "type": "PRES_AUD", "word": "valley", "wordID": 1544, "conditions": [12, 1600, "a", 12000], "trial": 4, "serialpos": 10, "trial_type": "single-audio", "trial_index": 167, "time_elapsed": 771991, "internal_node_id": "0.0-122.0"}}, {"uniqueid": "MTK0939:3RXPCZQMQQI1YXHFJJS7VSQVE1K1GY", "current_trial": 168, "dateTime": 1512933066503, "trialdata": {"rt": -1000, "stimulus": "/static/audio/wordpool/TRACTOR.wav", "key_press": -1, "type": "PRES_AUD", "word": "tractor", "wordID": 1492, "conditions": [12, 1600, "a", 12000], "trial": 4, "serialpos": 11, "trial_type": "single-audio", "trial_index": 168, "time_elapsed": 774667, "internal_node_id": "0.0-123.0"}}, {"uniqueid": "MTK0939:3RXPCZQMQQI1YXHFJJS7VSQVE1K1GY", "current_trial": 169, "dateTime": 1512933067726, "trialdata": {"rt": -1, "stimulus": "", "key_press": -1, "type": "PRE_RECALL_DELAY", "trial_type": "single-stim", "trial_index": 169, "time_elapsed": 775890, "internal_node_id": "0.0-124.0-0.0"}}, {"uniqueid": "MTK0939:3RXPCZQMQQI1YXHFJJS7VSQVE1K1GY", "current_trial": 170, "dateTime": 1512933068228, "trialdata": {"rt": -1000, "stimulus": "/static/audio/400Hz.wav", "key_press": -1, "type": "PRE_RECALL_ALERT", "trial_type": "single-audio", "trial_index": 170, "time_elapsed": 776392, "internal_node_id": "0.0-125.0"}}, {"uniqueid": "MTK0939:3RXPCZQMQQI1YXHFJJS7VSQVE1K1GY", "current_trial": 171, "dateTime": 1512933128243, "trialdata": {"rt": [2060, 4414, 6838, 9097, 11013, 16609], "recwords": ["package", "queen", "velvet", "tractor", "valley", "large"], "type": "FREE_RECALL", "conditions": [12, 1600, "a", 12000], "trial": 4, "trial_type": "free-recall", "trial_index": 171, "time_elapsed": 836396, "internal_node_id": "0.0-126.0-0.0"}}, {"uniqueid": "MTK0939:3RXPCZQMQQI1YXHFJJS7VSQVE1K1GY", "current_trial": 172, "dateTime": 1512933132166, "trialdata": {"rt": 1920, "key_press": 13, "type": "INSTRUCTIONS", "trial_type": "text", "trial_index": 172, "time_elapsed": 840330, "internal_node_id": "0.0-127.0"}}, {"uniqueid": "MTK0939:3RXPCZQMQQI1YXHFJJS7VSQVE1K1GY", "current_trial": 173, "dateTime": 1512933146182, "trialdata": {"rt": [4086, 6248, 8880, 10689], "responses": ["16", "10", "13", "11"], "num1": [3, 5, 3, 4, 6], "num2": [6, 3, 2, 1, 1], "num3": [7, 2, 8, 6, 9], "type": "DISTRACTOR", "conditions": [12, 800, "a", 12000], "trial": 5, "trial_type": "math-distractor", "trial_index": 173, "time_elapsed": 854346, "internal_node_id": "0.0-128.0"}}, {"uniqueid": "MTK0939:3RXPCZQMQQI1YXHFJJS7VSQVE1K1GY", "current_trial": 174, "dateTime": 1512933149184, "trialdata": {"rt": -1, "stimulus": "<p id=\"stim\">10</p>", "key_press": -1, "trial_type": "single-stim", "trial_index": 174, "time_elapsed": 857347, "internal_node_id": "0.0-129.0-0.0"}}, {"uniqueid": "MTK0939:3RXPCZQMQQI1YXHFJJS7VSQVE1K1GY", "current_trial": 175, "dateTime": 1512933150185, "trialdata": {"rt": -1, "stimulus": "<p id=\"stim\">9</p>", "key_press": -1, "trial_type": "single-stim", "trial_index": 175, "time_elapsed": 858348, "internal_node_id": "0.0-129.0-1.0"}}, {"uniqueid": "MTK0939:3RXPCZQMQQI1YXHFJJS7VSQVE1K1GY", "current_trial": 176, "dateTime": 1512933151187, "trialdata": {"rt": -1, "stimulus": "<p id=\"stim\">8</p>", "key_press": -1, "trial_type": "single-stim", "trial_index": 176, "time_elapsed": 859351, "internal_node_id": "0.0-129.0-2.0"}}, {"uniqueid": "MTK0939:3RXPCZQMQQI1YXHFJJS7VSQVE1K1GY", "current_trial": 177, "dateTime": 1512933152188, "trialdata": {"rt": -1, "stimulus": "<p id=\"stim\">7</p>", "key_press": -1, "trial_type": "single-stim", "trial_index": 177, "time_elapsed": 860352, "internal_node_id": "0.0-129.0-3.0"}}, {"uniqueid": "MTK0939:3RXPCZQMQQI1YXHFJJS7VSQVE1K1GY", "current_trial": 178, "dateTime": 1512933153190, "trialdata": {"rt": -1, "stimulus": "<p id=\"stim\">6</p>", "key_press": -1, "trial_type": "single-stim", "trial_index": 178, "time_elapsed": 861354, "internal_node_id": "0.0-129.0-4.0"}}, {"uniqueid": "MTK0939:3RXPCZQMQQI1YXHFJJS7VSQVE1K1GY", "current_trial": 179, "dateTime": 1512933154192, "trialdata": {"rt": -1, "stimulus": "<p id=\"stim\">5</p>", "key_press": -1, "trial_type": "single-stim", "trial_index": 179, "time_elapsed": 862356, "internal_node_id": "0.0-129.0-5.0"}}, {"uniqueid": "MTK0939:3RXPCZQMQQI1YXHFJJS7VSQVE1K1GY", "current_trial": 180, "dateTime": 1512933155196, "trialdata": {"rt": -1, "stimulus": "<p id=\"stim\">4</p>", "key_press": -1, "trial_type": "single-stim", "trial_index": 180, "time_elapsed": 863359, "internal_node_id": "0.0-129.0-6.0"}}, {"uniqueid": "MTK0939:3RXPCZQMQQI1YXHFJJS7VSQVE1K1GY", "current_trial": 181, "dateTime": 1512933156198, "trialdata": {"rt": -1, "stimulus": "<p id=\"stim\">3</p>", "key_press": -1, "trial_type": "single-stim", "trial_index": 181, "time_elapsed": 864362, "internal_node_id": "0.0-129.0-7.0"}}, {"uniqueid": "MTK0939:3RXPCZQMQQI1YXHFJJS7VSQVE1K1GY", "current_trial": 182, "dateTime": 1512933157280, "trialdata": {"rt": -1, "stimulus": "<p id=\"stim\">2</p>", "key_press": -1, "trial_type": "single-stim", "trial_index": 182, "time_elapsed": 865444, "internal_node_id": "0.0-129.0-8.0"}}, {"uniqueid": "MTK0939:3RXPCZQMQQI1YXHFJJS7VSQVE1K1GY", "current_trial": 183, "dateTime": 1512933158314, "trialdata": {"rt": -1, "stimulus": "<p id=\"stim\">1</p>", "key_press": -1, "trial_type": "single-stim", "trial_index": 183, "time_elapsed": 866478, "internal_node_id": "0.0-129.0-9.0"}}, {"uniqueid": "MTK0939:3RXPCZQMQQI1YXHFJJS7VSQVE1K1GY", "current_trial": 184, "dateTime": 1512933159816, "trialdata": {"rt": -1, "stimulus": "<p id=\"stim\">+</p>", "key_press": -1, "type": "FIXATION", "trial_type": "single-stim", "trial_index": 184, "time_elapsed": 867980, "internal_node_id": "0.0-130.0-0.0"}}, {"uniqueid": "MTK0939:3RXPCZQMQQI1YXHFJJS7VSQVE1K1GY", "current_trial": 185, "dateTime": 1512933161611, "trialdata": {"rt": -1000, "stimulus": "/static/audio/wordpool/LACE.wav", "key_press": -1, "type": "PRES_AUD", "word": "lace", "wordID": 791, "conditions": [12, 800, "a", 12000], "trial": 5, "serialpos": 0, "trial_type": "single-audio", "trial_index": 185, "time_elapsed": 869774, "internal_node_id": "0.0-131.0"}}, {"uniqueid": "MTK0939:3RXPCZQMQQI1YXHFJJS7VSQVE1K1GY", "current_trial": 186, "dateTime": 1512933163302, "trialdata": {"rt": -1000, "stimulus": "/static/audio/wordpool/SILK.wav", "key_press": -1, "type": "PRES_AUD", "word": "silk", "wordID": 1306, "conditions": [12, 800, "a", 12000], "trial": 5, "serialpos": 1, "trial_type": "single-audio", "trial_index": 186, "time_elapsed": 871466, "internal_node_id": "0.0-132.0"}}, {"uniqueid": "MTK0939:3RXPCZQMQQI1YXHFJJS7VSQVE1K1GY", "current_trial": 187, "dateTime": 1512933165110, "trialdata": {"rt": -1000, "stimulus": "/static/audio/wordpool/CUPBOARD.wav", "key_press": -1, "type": "PRES_AUD", "word": "cupboard", "wordID": 424, "conditions": [12, 800, "a", 12000], "trial": 5, "serialpos": 2, "trial_type": "single-audio", "trial_index": 187, "time_elapsed": 873274, "internal_node_id": "0.0-133.0"}}, {"uniqueid": "MTK0939:3RXPCZQMQQI1YXHFJJS7VSQVE1K1GY", "current_trial": 188, "dateTime": 1512933167049, "trialdata": {"rt": -1000, "stimulus": "/static/audio/wordpool/BRIEFCASE.wav", "key_press": -1, "type": "PRES_AUD", "word": "briefcase", "wordID": 174, "conditions": [12, 800, "a", 12000], "trial": 5, "serialpos": 3, "trial_type": "single-audio", "trial_index": 188, "time_elapsed": 875213, "internal_node_id": "0.0-134.0"}}, {"uniqueid": "MTK0939:3RXPCZQMQQI1YXHFJJS7VSQVE1K1GY", "current_trial": 189, "dateTime": 1512933168714, "trialdata": {"rt": -1000, "stimulus": "/static/audio/wordpool/FLUTE.wav", "key_press": -1, "type": "PRES_AUD", "word": "flute", "wordID": 584, "conditions": [12, 800, "a", 12000], "trial": 5, "serialpos": 4, "trial_type": "single-audio", "trial_index": 189, "time_elapsed": 876878, "internal_node_id": "0.0-135.0"}}, {"uniqueid": "MTK0939:3RXPCZQMQQI1YXHFJJS7VSQVE1K1GY", "current_trial": 190, "dateTime": 1512933170320, "trialdata": {"rt": -1000, "stimulus": "/static/audio/wordpool/PANTHER.wav", "key_press": -1, "type": "PRES_AUD", "word": "panther", "wordID": 1008, "conditions": [12, 800, "a", 12000], "trial": 5, "serialpos": 5, "trial_type": "single-audio", "trial_index": 190, "time_elapsed": 878484, "internal_node_id": "0.0-136.0"}}, {"uniqueid": "MTK0939:3RXPCZQMQQI1YXHFJJS7VSQVE1K1GY", "current_trial": 191, "dateTime": 1512933172261, "trialdata": {"rt": -1000, "stimulus": "/static/audio/wordpool/IGLOO.wav", "key_press": -1, "type": "PRES_AUD", "word": "igloo", "wordID": 733, "conditions": [12, 800, "a", 12000], "trial": 5, "serialpos": 6, "trial_type": "single-audio", "trial_index": 191, "time_elapsed": 880424, "internal_node_id": "0.0-137.0"}}, {"uniqueid": "MTK0939:3RXPCZQMQQI1YXHFJJS7VSQVE1K1GY", "current_trial": 192, "dateTime": 1512933174142, "trialdata": {"rt": -1000, "stimulus": "/static/audio/wordpool/SPOON.wav", "key_press": -1, "type": "PRES_AUD", "word": "spoon", "wordID": 1356, "conditions": [12, 800, "a", 12000], "trial": 5, "serialpos": 7, "trial_type": "single-audio", "trial_index": 192, "time_elapsed": 882305, "internal_node_id": "0.0-138.0"}}, {"uniqueid": "MTK0939:3RXPCZQMQQI1YXHFJJS7VSQVE1K1GY", "current_trial": 193, "dateTime": 1512933176030, "trialdata": {"rt": -1000, "stimulus": "/static/audio/wordpool/HANDBAG.wav", "key_press": -1, "type": "PRES_AUD", "word": "handbag", "wordID": 683, "conditions": [12, 800, "a", 12000], "trial": 5, "serialpos": 8, "trial_type": "single-audio", "trial_index": 193, "time_elapsed": 884194, "internal_node_id": "0.0-139.0"}}, {"uniqueid": "MTK0939:3RXPCZQMQQI1YXHFJJS7VSQVE1K1GY", "current_trial": 194, "dateTime": 1512933177873, "trialdata": {"rt": -1000, "stimulus": "/static/audio/wordpool/TURNIP.wav", "key_press": -1, "type": "PRES_AUD", "word": "turnip", "wordID": 1520, "conditions": [12, 800, "a", 12000], "trial": 5, "serialpos": 9, "trial_type": "single-audio", "trial_index": 194, "time_elapsed": 886037, "internal_node_id": "0.0-140.0"}}, {"uniqueid": "MTK0939:3RXPCZQMQQI1YXHFJJS7VSQVE1K1GY", "current_trial": 195, "dateTime": 1512933179590, "trialdata": {"rt": -1000, "stimulus": "/static/audio/wordpool/BUBBLE.wav", "key_press": -1, "type": "PRES_AUD", "word": "bubble", "wordID": 182, "conditions": [12, 800, "a", 12000], "trial": 5, "serialpos": 10, "trial_type": "single-audio", "trial_index": 195, "time_elapsed": 887753, "internal_node_id": "0.0-141.0"}}, {"uniqueid": "MTK0939:3RXPCZQMQQI1YXHFJJS7VSQVE1K1GY", "current_trial": 196, "dateTime": 1512933181560, "trialdata": {"rt": -1000, "stimulus": "/static/audio/wordpool/GHETTO.wav", "key_press": -1, "type": "PRES_AUD", "word": "ghetto", "wordID": 632, "conditions": [12, 800, "a", 12000], "trial": 5, "serialpos": 11, "trial_type": "single-audio", "trial_index": 196, "time_elapsed": 889724, "internal_node_id": "0.0-142.0"}}, {"uniqueid": "MTK0939:3RXPCZQMQQI1YXHFJJS7VSQVE1K1GY", "current_trial": 197, "dateTime": 1512933182905, "trialdata": {"rt": -1, "stimulus": "", "key_press": -1, "type": "PRE_RECALL_DELAY", "trial_type": "single-stim", "trial_index": 197, "time_elapsed": 891069, "internal_node_id": "0.0-143.0-0.0"}}, {"uniqueid": "MTK0939:3RXPCZQMQQI1YXHFJJS7VSQVE1K1GY", "current_trial": 198, "dateTime": 1512933183408, "trialdata": {"rt": -1000, "stimulus": "/static/audio/400Hz.wav", "key_press": -1, "type": "PRE_RECALL_ALERT", "trial_type": "single-audio", "trial_index": 198, "time_elapsed": 891572, "internal_node_id": "0.0-144.0"}}, {"uniqueid": "MTK0939:3RXPCZQMQQI1YXHFJJS7VSQVE1K1GY", "current_trial": 199, "dateTime": 1512933243423, "trialdata": {"rt": [5316, 7048, 8665, 12367, 15439, 35425, 40409], "recwords": ["lace", "silk", "spoon", "cupboard", "ghetto", "turnip", "bubble"], "type": "FREE_RECALL", "conditions": [12, 800, "a", 12000], "trial": 5, "trial_type": "free-recall", "trial_index": 199, "time_elapsed": 951580, "internal_node_id": "0.0-145.0-0.0"}}, {"uniqueid": "MTK0939:3RXPCZQMQQI1YXHFJJS7VSQVE1K1GY", "current_trial": 200, "dateTime": 1512933247361, "trialdata": {"rt": 1936, "key_press": 13, "type": "INSTRUCTIONS", "trial_type": "text", "trial_index": 200, "time_elapsed": 955525, "internal_node_id": "0.0-146.0"}}, {"uniqueid": "MTK0939:3RXPCZQMQQI1YXHFJJS7VSQVE1K1GY", "current_trial": 201, "dateTime": 1512933273375, "trialdata": {"rt": [3850, 6724, 10238, 12400, 14465, 18213], "responses": ["15", "18", "18", "16", "15", "19"], "num1": [3, 6, 2, 5, 6, 8, 5], "num2": [6, 8, 9, 6, 8, 9, 9], "num3": [6, 4, 7, 5, 1, 2, 7], "type": "DISTRACTOR", "conditions": [12, 1600, "v", 24000], "trial": 6, "trial_type": "math-distractor", "trial_index": 201, "time_elapsed": 981539, "internal_node_id": "0.0-147.0"}}, {"uniqueid": "MTK0939:3RXPCZQMQQI1YXHFJJS7VSQVE1K1GY", "current_trial": 202, "dateTime": 1512933276379, "trialdata": {"rt": -1, "stimulus": "<p id=\"stim\">10</p>", "key_press": -1, "trial_type": "single-stim", "trial_index": 202, "time_elapsed": 984543, "internal_node_id": "0.0-148.0-0.0"}}, {"uniqueid": "MTK0939:3RXPCZQMQQI1YXHFJJS7VSQVE1K1GY", "current_trial": 203, "dateTime": 1512933277381, "trialdata": {"rt": -1, "stimulus": "<p id=\"stim\">9</p>", "key_press": -1, "trial_type": "single-stim", "trial_index": 203, "time_elapsed": 985544, "internal_node_id": "0.0-148.0-1.0"}}, {"uniqueid": "MTK0939:3RXPCZQMQQI1YXHFJJS7VSQVE1K1GY", "current_trial": 204, "dateTime": 1512933278421, "trialdata": {"rt": -1, "stimulus": "<p id=\"stim\">8</p>", "key_press": -1, "trial_type": "single-stim", "trial_index": 204, "time_elapsed": 986585, "internal_node_id": "0.0-148.0-2.0"}}, {"uniqueid": "MTK0939:3RXPCZQMQQI1YXHFJJS7VSQVE1K1GY", "current_trial": 205, "dateTime": 1512933279422, "trialdata": {"rt": -1, "stimulus": "<p id=\"stim\">7</p>", "key_press": -1, "trial_type": "single-stim", "trial_index": 205, "time_elapsed": 987586, "internal_node_id": "0.0-148.0-3.0"}}, {"uniqueid": "MTK0939:3RXPCZQMQQI1YXHFJJS7VSQVE1K1GY", "current_trial": 206, "dateTime": 1512933280426, "trialdata": {"rt": -1, "stimulus": "<p id=\"stim\">6</p>", "key_press": -1, "trial_type": "single-stim", "trial_index": 206, "time_elapsed": 988589, "internal_node_id": "0.0-148.0-4.0"}}, {"uniqueid": "MTK0939:3RXPCZQMQQI1YXHFJJS7VSQVE1K1GY", "current_trial": 207, "dateTime": 1512933281529, "trialdata": {"rt": -1, "stimulus": "<p id=\"stim\">5</p>", "key_press": -1, "trial_type": "single-stim", "trial_index": 207, "time_elapsed": 989692, "internal_node_id": "0.0-148.0-5.0"}}, {"uniqueid": "MTK0939:3RXPCZQMQQI1YXHFJJS7VSQVE1K1GY", "current_trial": 208, "dateTime": 1512933282538, "trialdata": {"rt": -1, "stimulus": "<p id=\"stim\">4</p>", "key_press": -1, "trial_type": "single-stim", "trial_index": 208, "time_elapsed": 990702, "internal_node_id": "0.0-148.0-6.0"}}, {"uniqueid": "MTK0939:3RXPCZQMQQI1YXHFJJS7VSQVE1K1GY", "current_trial": 209, "dateTime": 1512933283540, "trialdata": {"rt": -1, "stimulus": "<p id=\"stim\">3</p>", "key_press": -1, "trial_type": "single-stim", "trial_index": 209, "time_elapsed": 991704, "internal_node_id": "0.0-148.0-7.0"}}, {"uniqueid": "MTK0939:3RXPCZQMQQI1YXHFJJS7VSQVE1K1GY", "current_trial": 210, "dateTime": 1512933284542, "trialdata": {"rt": -1, "stimulus": "<p id=\"stim\">2</p>", "key_press": -1, "trial_type": "single-stim", "trial_index": 210, "time_elapsed": 992706, "internal_node_id": "0.0-148.0-8.0"}}, {"uniqueid": "MTK0939:3RXPCZQMQQI1YXHFJJS7VSQVE1K1GY", "current_trial": 211, "dateTime": 1512933285545, "trialdata": {"rt": -1, "stimulus": "<p id=\"stim\">1</p>", "key_press": -1, "trial_type": "single-stim", "trial_index": 211, "time_elapsed": 993708, "internal_node_id": "0.0-148.0-9.0"}}, {"uniqueid": "MTK0939:3RXPCZQMQQI1YXHFJJS7VSQVE1K1GY", "current_trial": 212, "dateTime": 1512933287047, "trialdata": {"rt": -1, "stimulus": "<p id=\"stim\">+</p>", "key_press": -1, "type": "FIXATION", "trial_type": "single-stim", "trial_index": 212, "time_elapsed": 995210, "internal_node_id": "0.0-149.0-0.0"}}, {"uniqueid": "MTK0939:3RXPCZQMQQI1YXHFJJS7VSQVE1K1GY", "current_trial": 213, "dateTime": 1512933288687, "trialdata": {"rt": -1, "stimulus": "<p id=\"stim\">THIEF</p>", "key_press": -1, "type": "PRES_VIS", "word": "thief", "wordID": 1455, "conditions": [12, 1600, "v", 24000], "trial": 6, "serialpos": 0, "trial_type": "single-stim", "trial_index": 213, "time_elapsed": 996851, "internal_node_id": "0.0-150.0"}}, {"uniqueid": "MTK0939:3RXPCZQMQQI1YXHFJJS7VSQVE1K1GY", "current_trial": 214, "dateTime": 1512933291165, "trialdata": {"rt": -1, "stimulus": "<p id=\"stim\">BOUQUET</p>", "key_press": -1, "type": "PRES_VIS", "word": "bouquet", "wordID": 156, "conditions": [12, 1600, "v", 24000], "trial": 6, "serialpos": 1, "trial_type": "single-stim", "trial_index": 214, "time_elapsed": 999329, "internal_node_id": "0.0-151.0"}}, {"uniqueid": "MTK0939:3RXPCZQMQQI1YXHFJJS7VSQVE1K1GY", "current_trial": 215, "dateTime": 1512933293815, "trialdata": {"rt": -1, "stimulus": "<p id=\"stim\">TABLE</p>", "key_press": -1, "type": "PRES_VIS", "word": "table", "wordID": 1425, "conditions": [12, 1600, "v", 24000], "trial": 6, "serialpos": 2, "trial_type": "single-stim", "trial_index": 215, "time_elapsed": 1001978, "internal_node_id": "0.0-152.0"}}, {"uniqueid": "MTK0939:3RXPCZQMQQI1YXHFJJS7VSQVE1K1GY", "current_trial": 216, "dateTime": 1512933296282, "trialdata": {"rt": -1, "stimulus": "<p id=\"stim\">ROBBER</p>", "key_press": -1, "type": "PRES_VIS", "word": "robber", "wordID": 1196, "conditions": [12, 1600, "v", 24000], "trial": 6, "serialpos": 3, "trial_type": "single-stim", "trial_index": 216, "time_elapsed": 1004446, "internal_node_id": "0.0-153.0"}}, {"uniqueid": "MTK0939:3RXPCZQMQQI1YXHFJJS7VSQVE1K1GY", "current_trial": 217, "dateTime": 1512933298835, "trialdata": {"rt": -1, "stimulus": "<p id=\"stim\">LAGOON</p>", "key_press": -1, "type": "PRES_VIS", "word": "lagoon", "wordID": 794, "conditions": [12, 1600, "v", 24000], "trial": 6, "serialpos": 4, "trial_type": "single-stim", "trial_index": 217, "time_elapsed": 1006998, "internal_node_id": "0.0-154.0"}}, {"uniqueid": "MTK0939:3RXPCZQMQQI1YXHFJJS7VSQVE1K1GY", "current_trial": 218, "dateTime": 1512933301405, "trialdata": {"rt": -1, "stimulus": "<p id=\"stim\">SMOG</p>", "key_press": -1, "type": "PRES_VIS", "word": "smog", "wordID": 1329, "conditions": [12, 1600, "v", 24000], "trial": 6, "serialpos": 5, "trial_type": "single-stim", "trial_index": 218, "time_elapsed": 1009569, "internal_node_id": "0.0-155.0"}}, {"uniqueid": "MTK0939:3RXPCZQMQQI1YXHFJJS7VSQVE1K1GY", "current_trial": 219, "dateTime": 1512933304113, "trialdata": {"rt": -1, "stimulus": "<p id=\"stim\">CLIMBER</p>", "key_press": -1, "type": "PRES_VIS", "word": "climber", "wordID": 322, "conditions": [12, 1600, "v", 24000], "trial": 6, "serialpos": 6, "trial_type": "single-stim", "trial_index": 219, "time_elapsed": 1012276, "internal_node_id": "0.0-156.0"}}, {"uniqueid": "MTK0939:3RXPCZQMQQI1YXHFJJS7VSQVE1K1GY", "current_trial": 220, "dateTime": 1512933306699, "trialdata": {"rt": -1, "stimulus": "<p id=\"stim\">BABY</p>", "key_press": -1, "type": "PRES_VIS", "word": "baby", "wordID": 63, "conditions": [12, 1600, "v", 24000], "trial": 6, "serialpos": 7, "trial_type": "single-stim", "trial_index": 220, "time_elapsed": 1014863, "internal_node_id": "0.0-157.0"}}, {"uniqueid": "MTK0939:3RXPCZQMQQI1YXHFJJS7VSQVE1K1GY", "current_trial": 221, "dateTime": 1512933309519, "trialdata": {"rt": -1, "stimulus": "<p id=\"stim\">WIDOW</p>", "key_press": -1, "type": "PRES_VIS", "word": "widow", "wordID": 1607, "conditions": [12, 1600, "v", 24000], "trial": 6, "serialpos": 8, "trial_type": "single-stim", "trial_index": 221, "time_elapsed": 1017683, "internal_node_id": "0.0-158.0"}}, {"uniqueid": "MTK0939:3RXPCZQMQQI1YXHFJJS7VSQVE1K1GY", "current_trial": 222, "dateTime": 1512933312013, "trialdata": {"rt": -1, "stimulus": "<p id=\"stim\">BLENDER</p>", "key_press": -1, "type": "PRES_VIS", "word": "blender", "wordID": 135, "conditions": [12, 1600, "v", 24000], "trial": 6, "serialpos": 9, "trial_type": "single-stim", "trial_index": 222, "time_elapsed": 1020177, "internal_node_id": "0.0-159.0"}}, {"uniqueid": "MTK0939:3RXPCZQMQQI1YXHFJJS7VSQVE1K1GY", "current_trial": 223, "dateTime": 1512933314677, "trialdata": {"rt": -1, "stimulus": "<p id=\"stim\">SKILLET</p>", "key_press": -1, "type": "PRES_VIS", "word": "skillet", "wordID": 1316, "conditions": [12, 1600, "v", 24000], "trial": 6, "serialpos": 10, "trial_type": "single-stim", "trial_index": 223, "time_elapsed": 1022840, "internal_node_id": "0.0-160.0"}}, {"uniqueid": "MTK0939:3RXPCZQMQQI1YXHFJJS7VSQVE1K1GY", "current_trial": 224, "dateTime": 1512933317359, "trialdata": {"rt": -1, "stimulus": "<p id=\"stim\">ORCHID</p>", "key_press": -1, "type": "PRES_VIS", "word": "orchid", "wordID": 981, "conditions": [12, 1600, "v", 24000], "trial": 6, "serialpos": 11, "trial_type": "single-stim", "trial_index": 224, "time_elapsed": 1025523, "internal_node_id": "0.0-161.0"}}, {"uniqueid": "MTK0939:3RXPCZQMQQI1YXHFJJS7VSQVE1K1GY", "current_trial": 225, "dateTime": 1512933319784, "trialdata": {"rt": -1, "stimulus": "", "key_press": -1, "type": "PRE_RECALL_DELAY", "trial_type": "single-stim", "trial_index": 225, "time_elapsed": 1027948, "internal_node_id": "0.0-162.0-0.0"}}, {"uniqueid": "MTK0939:3RXPCZQMQQI1YXHFJJS7VSQVE1K1GY", "current_trial": 226, "dateTime": 1512933320288, "trialdata": {"rt": -1000, "stimulus": "/static/audio/400Hz.wav", "key_press": -1, "type": "PRE_RECALL_ALERT", "trial_type": "single-audio", "trial_index": 226, "time_elapsed": 1028451, "internal_node_id": "0.0-163.0"}}, {"uniqueid": "MTK0939:3RXPCZQMQQI1YXHFJJS7VSQVE1K1GY", "current_trial": 227, "dateTime": 1512933380308, "trialdata": {"rt": [2110, 3833, 6172, 8253, 15609, 18630, 25162, 27185, 29629], "recwords": ["baby", "skillet", "orchard", "table", "lagoon", "skillet", "bouquet", "thief", "robber"], "type": "FREE_RECALL", "conditions": [12, 1600, "v", 24000], "trial": 6, "trial_type": "free-recall", "trial_index": 227, "time_elapsed": 1088458, "internal_node_id": "0.0-164.0-0.0"}}, {"uniqueid": "MTK0939:3RXPCZQMQQI1YXHFJJS7VSQVE1K1GY", "current_trial": 228, "dateTime": 1512933383940, "trialdata": {"rt": 1629, "key_press": 13, "type": "INSTRUCTIONS", "trial_type": "text", "trial_index": 228, "time_elapsed": 1092103, "internal_node_id": "0.0-165.0"}}, {"uniqueid": "MTK0939:3RXPCZQMQQI1YXHFJJS7VSQVE1K1GY", "current_trial": 229, "dateTime": 1512933409945, "trialdata": {"rt": [2582, 5167, 6908, 11071, 14401, 16587, 19251, 21997], "responses": ["11", "18", "11", "17", "22", "17", "14", "16"], "num1": [3, 8, 1, 3, 7, 7, 8, 7, 4], "num2": [1, 3, 6, 6, 6, 9, 1, 5, 3], "num3": [7, 7, 4, 8, 9, 1, 5, 4, 7], "type": "DISTRACTOR", "conditions": [12, 800, "v", 24000], "trial": 7, "trial_type": "math-distractor", "trial_index": 229, "time_elapsed": 1118109, "internal_node_id": "0.0-166.0"}}, {"uniqueid": "MTK0939:3RXPCZQMQQI1YXHFJJS7VSQVE1K1GY", "current_trial": 230, "dateTime": 1512933412948, "trialdata": {"rt": -1, "stimulus": "<p id=\"stim\">10</p>", "key_press": -1, "trial_type": "single-stim", "trial_index": 230, "time_elapsed": 1121112, "internal_node_id": "0.0-167.0-0.0"}}, {"uniqueid": "MTK0939:3RXPCZQMQQI1YXHFJJS7VSQVE1K1GY", "current_trial": 231, "dateTime": 1512933413950, "trialdata": {"rt": -1, "stimulus": "<p id=\"stim\">9</p>", "key_press": -1, "trial_type": "single-stim", "trial_index": 231, "time_elapsed": 1122114, "internal_node_id": "0.0-167.0-1.0"}}, {"uniqueid": "MTK0939:3RXPCZQMQQI1YXHFJJS7VSQVE1K1GY", "current_trial": 232, "dateTime": 1512933414952, "trialdata": {"rt": -1, "stimulus": "<p id=\"stim\">8</p>", "key_press": -1, "trial_type": "single-stim", "trial_index": 232, "time_elapsed": 1123115, "internal_node_id": "0.0-167.0-2.0"}}, {"uniqueid": "MTK0939:3RXPCZQMQQI1YXHFJJS7VSQVE1K1GY", "current_trial": 233, "dateTime": 1512933415972, "trialdata": {"rt": -1, "stimulus": "<p id=\"stim\">7</p>", "key_press": -1, "trial_type": "single-stim", "trial_index": 233, "time_elapsed": 1124136, "internal_node_id": "0.0-167.0-3.0"}}, {"uniqueid": "MTK0939:3RXPCZQMQQI1YXHFJJS7VSQVE1K1GY", "current_trial": 234, "dateTime": 1512933416977, "trialdata": {"rt": -1, "stimulus": "<p id=\"stim\">6</p>", "key_press": -1, "trial_type": "single-stim", "trial_index": 234, "time_elapsed": 1125141, "internal_node_id": "0.0-167.0-4.0"}}, {"uniqueid": "MTK0939:3RXPCZQMQQI1YXHFJJS7VSQVE1K1GY", "current_trial": 235, "dateTime": 1512933417981, "trialdata": {"rt": -1, "stimulus": "<p id=\"stim\">5</p>", "key_press": -1, "trial_type": "single-stim", "trial_index": 235, "time_elapsed": 1126144, "internal_node_id": "0.0-167.0-5.0"}}, {"uniqueid": "MTK0939:3RXPCZQMQQI1YXHFJJS7VSQVE1K1GY", "current_trial": 236, "dateTime": 1512933418982, "trialdata": {"rt": -1, "stimulus": "<p id=\"stim\">4</p>", "key_press": -1, "trial_type": "single-stim", "trial_index": 236, "time_elapsed": 1127145, "internal_node_id": "0.0-167.0-6.0"}}, {"uniqueid": "MTK0939:3RXPCZQMQQI1YXHFJJS7VSQVE1K1GY", "current_trial": 237, "dateTime": 1512933419984, "trialdata": {"rt": -1, "stimulus": "<p id=\"stim\">3</p>", "key_press": -1, "trial_type": "single-stim", "trial_index": 237, "time_elapsed": 1128148, "internal_node_id": "0.0-167.0-7.0"}}, {"uniqueid": "MTK0939:3RXPCZQMQQI1YXHFJJS7VSQVE1K1GY", "current_trial": 238, "dateTime": 1512933420987, "trialdata": {"rt": -1, "stimulus": "<p id=\"stim\">2</p>", "key_press": -1, "trial_type": "single-stim", "trial_index": 238, "time_elapsed": 1129151, "internal_node_id": "0.0-167.0-8.0"}}, {"uniqueid": "MTK0939:3RXPCZQMQQI1YXHFJJS7VSQVE1K1GY", "current_trial": 239, "dateTime": 1512933421996, "trialdata": {"rt": -1, "stimulus": "<p id=\"stim\">1</p>", "key_press": -1, "trial_type": "single-stim", "trial_index": 239, "time_elapsed": 1130160, "internal_node_id": "0.0-167.0-9.0"}}, {"uniqueid": "MTK0939:3RXPCZQMQQI1YXHFJJS7VSQVE1K1GY", "current_trial": 240, "dateTime": 1512933423575, "trialdata": {"rt": -1, "stimulus": "<p id=\"stim\">+</p>", "key_press": -1, "type": "FIXATION", "trial_type": "single-stim", "trial_index": 240, "time_elapsed": 1131739, "internal_node_id": "0.0-168.0-0.0"}}, {"uniqueid": "MTK0939:3RXPCZQMQQI1YXHFJJS7VSQVE1K1GY", "current_trial": 241, "dateTime": 1512933424378, "trialdata": {"rt": -1, "stimulus": "<p id=\"stim\">NOVEL</p>", "key_press": -1, "type": "PRES_VIS", "word": "novel", "wordID": 959, "conditions": [12, 800, "v", 24000], "trial": 7, "serialpos": 0, "trial_type": "single-stim", "trial_index": 241, "time_elapsed": 1132541, "internal_node_id": "0.0-169.0"}}, {"uniqueid": "MTK0939:3RXPCZQMQQI1YXHFJJS7VSQVE1K1GY", "current_trial": 242, "dateTime": 1512933426419, "trialdata": {"rt": -1, "stimulus": "<p id=\"stim\">RECEIPT</p>", "key_press": -1, "type": "PRES_VIS", "word": "receipt", "wordID": 1172, "conditions": [12, 800, "v", 24000], "trial": 7, "serialpos": 1, "trial_type": "single-stim", "trial_index": 242, "time_elapsed": 1134583, "internal_node_id": "0.0-170.0"}}, {"uniqueid": "MTK0939:3RXPCZQMQQI1YXHFJJS7VSQVE1K1GY", "current_trial": 243, "dateTime": 1512933428160, "trialdata": {"rt": -1, "stimulus": "<p id=\"stim\">TOURIST</p>", "key_press": -1, "type": "PRES_VIS", "word": "tourist", "wordID": 1487, "conditions": [12, 800, "v", 24000], "trial": 7, "serialpos": 2, "trial_type": "single-stim", "trial_index": 243, "time_elapsed": 1136324, "internal_node_id": "0.0-171.0"}}, {"uniqueid": "MTK0939:3RXPCZQMQQI1YXHFJJS7VSQVE1K1GY", "current_trial": 244, "dateTime": 1512933429857, "trialdata": {"rt": -1, "stimulus": "<p id=\"stim\">WAITER</p>", "key_press": -1, "type": "PRES_VIS", "word": "waiter", "wordID": 1579, "conditions": [12, 800, "v", 24000], "trial": 7, "serialpos": 3, "trial_type": "single-stim", "trial_index": 244, "time_elapsed": 1138020, "internal_node_id": "0.0-172.0"}}, {"uniqueid": "MTK0939:3RXPCZQMQQI1YXHFJJS7VSQVE1K1GY", "current_trial": 245, "dateTime": 1512933431709, "trialdata": {"rt": -1, "stimulus": "<p id=\"stim\">PIZZA</p>", "key_press": -1, "type": "PRES_VIS", "word": "pizza", "wordID": 1078, "conditions": [12, 800, "v", 24000], "trial": 7, "serialpos": 4, "trial_type": "single-stim", "trial_index": 245, "time_elapsed": 1139873, "internal_node_id": "0.0-173.0"}}, {"uniqueid": "MTK0939:3RXPCZQMQQI1YXHFJJS7VSQVE1K1GY", "current_trial": 246, "dateTime": 1512933433561, "trialdata": {"rt": -1, "stimulus": "<p id=\"stim\">BIKE</p>", "key_press": -1, "type": "PRES_VIS", "word": "bike", "wordID": 124, "conditions": [12, 800, "v", 24000], "trial": 7, "serialpos": 5, "trial_type": "single-stim", "trial_index": 246, "time_elapsed": 1141725, "internal_node_id": "0.0-174.0"}}, {"uniqueid": "MTK0939:3RXPCZQMQQI1YXHFJJS7VSQVE1K1GY", "current_trial": 247, "dateTime": 1512933435537, "trialdata": {"rt": -1, "stimulus": "<p id=\"stim\">XEROX</p>", "key_press": -1, "type": "PRES_VIS", "word": "xerox", "wordID": 1627, "conditions": [12, 800, "v", 24000], "trial": 7, "serialpos": 6, "trial_type": "single-stim", "trial_index": 247, "time_elapsed": 1143700, "internal_node_id": "0.0-175.0"}}, {"uniqueid": "MTK0939:3RXPCZQMQQI1YXHFJJS7VSQVE1K1GY", "current_trial": 248, "dateTime": 1512933437461, "trialdata": {"rt": -1, "stimulus": "<p id=\"stim\">PARSLEY</p>", "key_press": -1, "type": "PRES_VIS", "word": "parsley", "wordID": 1015, "conditions": [12, 800, "v", 24000], "trial": 7, "serialpos": 7, "trial_type": "single-stim", "trial_index": 248, "time_elapsed": 1145625, "internal_node_id": "0.0-176.0"}}, {"uniqueid": "MTK0939:3RXPCZQMQQI1YXHFJJS7VSQVE1K1GY", "current_trial": 249, "dateTime": 1512933439178, "trialdata": {"rt": -1, "stimulus": "<p id=\"stim\">RADISH</p>", "key_press": -1, "type": "PRES_VIS", "word": "radish", "wordID": 1157, "conditions": [12, 800, "v", 24000], "trial": 7, "serialpos": 8, "trial_type": "single-stim", "trial_index": 249, "time_elapsed": 1147341, "internal_node_id": "0.0-177.0"}}, {"uniqueid": "MTK0939:3RXPCZQMQQI1YXHFJJS7VSQVE1K1GY", "current_trial": 250, "dateTime": 1512933440905, "trialdata": {"rt": -1, "stimulus": "<p id=\"stim\">SNACK</p>", "key_press": -1, "type": "PRES_VIS", "word": "snack", "wordID": 1330, "conditions": [12, 800, "v", 24000], "trial": 7, "serialpos": 9, "trial_type": "single-stim", "trial_index": 250, "time_elapsed": 1149068, "internal_node_id": "0.0-178.0"}}, {"uniqueid": "MTK0939:3RXPCZQMQQI1YXHFJJS7VSQVE1K1GY", "current_trial": 251, "dateTime": 1512933442877, "trialdata": {"rt": -1, "stimulus": "<p id=\"stim\">AIRPLANE</p>", "key_press": -1, "type": "PRES_VIS", "word": "airplane", "wordID": 11, "conditions": [12, 800, "v", 24000], "trial": 7, "serialpos": 10, "trial_type": "single-stim", "trial_index": 251, "time_elapsed": 1151040, "internal_node_id": "0.0-179.0"}}, {"uniqueid": "MTK0939:3RXPCZQMQQI1YXHFJJS7VSQVE1K1GY", "current_trial": 252, "dateTime": 1512933444505, "trialdata": {"rt": -1, "stimulus": "<p id=\"stim\">RAZOR</p>", "key_press": -1, "type": "PRES_VIS", "word": "razor", "wordID": 1170, "conditions": [12, 800, "v", 24000], "trial": 7, "serialpos": 11, "trial_type": "single-stim", "trial_index": 252, "time_elapsed": 1152668, "internal_node_id": "0.0-180.0"}}, {"uniqueid": "MTK0939:3RXPCZQMQQI1YXHFJJS7VSQVE1K1GY", "current_trial": 253, "dateTime": 1512933446996, "trialdata": {"rt": -1, "stimulus": "", "key_press": -1, "type": "PRE_RECALL_DELAY", "trial_type": "single-stim", "trial_index": 253, "time_elapsed": 1155160, "internal_node_id": "0.0-181.0-0.0"}}, {"uniqueid": "MTK0939:3RXPCZQMQQI1YXHFJJS7VSQVE1K1GY", "current_trial": 254, "dateTime": 1512933447499, "trialdata": {"rt": -1000, "stimulus": "/static/audio/400Hz.wav", "key_press": -1, "type": "PRE_RECALL_ALERT", "trial_type": "single-audio", "trial_index": 254, "time_elapsed": 1155663, "internal_node_id": "0.0-182.0"}}, {"uniqueid": "MTK0939:3RXPCZQMQQI1YXHFJJS7VSQVE1K1GY", "current_trial": 255, "dateTime": 1512933507512, "trialdata": {"rt": [4708, 6986, 9666, 12122, 15822, 18553], "recwords": ["receipt", "tourist", "waiter", "radish", "parsley", "pizza"], "type": "FREE_RECALL", "conditions": [12, 800, "v", 24000], "trial": 7, "trial_type": "free-recall", "trial_index": 255, "time_elapsed": 1215667, "internal_node_id": "0.0-183.0-0.0"}}, {"uniqueid": "MTK0939:3RXPCZQMQQI1YXHFJJS7VSQVE1K1GY", "current_trial": 256, "dateTime": 1512933511505, "trialdata": {"rt": 1990, "key_press": 13, "type": "INSTRUCTIONS", "trial_type": "text", "trial_index": 256, "time_elapsed": 1219669, "internal_node_id": "0.0-184.0"}}, {"uniqueid": "MTK0939:3RXPCZQMQQI1YXHFJJS7VSQVE1K1GY", "current_trial": 257, "dateTime": 1512933537519, "trialdata": {"rt": [5019, 7456, 11824, 14577, 17644, 20473, 23293], "responses": ["22", "19", "22", "15", "20", "19", "15"], "num1": [8, 9, 8, 4, 8, 9, 2, 5], "num2": [6, 6, 8, 7, 6, 2, 7, 8], "num3": [8, 4, 6, 4, 6, 8, 6, 5], "type": "DISTRACTOR", "conditions": [24, 1600, "a", 24000], "trial": 8, "trial_type": "math-distractor", "trial_index": 257, "time_elapsed": 1245683, "internal_node_id": "0.0-185.0"}}, {"uniqueid": "MTK0939:3RXPCZQMQQI1YXHFJJS7VSQVE1K1GY", "current_trial": 258, "dateTime": 1512933540578, "trialdata": {"rt": -1, "stimulus": "<p id=\"stim\">10</p>", "key_press": -1, "trial_type": "single-stim", "trial_index": 258, "time_elapsed": 1248741, "internal_node_id": "0.0-186.0-0.0"}}, {"uniqueid": "MTK0939:3RXPCZQMQQI1YXHFJJS7VSQVE1K1GY", "current_trial": 259, "dateTime": 1512933541579, "trialdata": {"rt": -1, "stimulus": "<p id=\"stim\">9</p>", "key_press": -1, "trial_type": "single-stim", "trial_index": 259, "time_elapsed": 1249742, "internal_node_id": "0.0-186.0-1.0"}}, {"uniqueid": "MTK0939:3RXPCZQMQQI1YXHFJJS7VSQVE1K1GY", "current_trial": 260, "dateTime": 1512933542582, "trialdata": {"rt": -1, "stimulus": "<p id=\"stim\">8</p>", "key_press": -1, "trial_type": "single-stim", "trial_index": 260, "time_elapsed": 1250745, "internal_node_id": "0.0-186.0-2.0"}}, {"uniqueid": "MTK0939:3RXPCZQMQQI1YXHFJJS7VSQVE1K1GY", "current_trial": 261, "dateTime": 1512933543584, "trialdata": {"rt": -1, "stimulus": "<p id=\"stim\">7</p>", "key_press": -1, "trial_type": "single-stim", "trial_index": 261, "time_elapsed": 1251747, "internal_node_id": "0.0-186.0-3.0"}}, {"uniqueid": "MTK0939:3RXPCZQMQQI1YXHFJJS7VSQVE1K1GY", "current_trial": 262, "dateTime": 1512933544585, "trialdata": {"rt": -1, "stimulus": "<p id=\"stim\">6</p>", "key_press": -1, "trial_type": "single-stim", "trial_index": 262, "time_elapsed": 1252749, "internal_node_id": "0.0-186.0-4.0"}}, {"uniqueid": "MTK0939:3RXPCZQMQQI1YXHFJJS7VSQVE1K1GY", "current_trial": 263, "dateTime": 1512933545588, "trialdata": {"rt": -1, "stimulus": "<p id=\"stim\">5</p>", "key_press": -1, "trial_type": "single-stim", "trial_index": 263, "time_elapsed": 1253751, "internal_node_id": "0.0-186.0-5.0"}}, {"uniqueid": "MTK0939:3RXPCZQMQQI1YXHFJJS7VSQVE1K1GY", "current_trial": 264, "dateTime": 1512933546590, "trialdata": {"rt": -1, "stimulus": "<p id=\"stim\">4</p>", "key_press": -1, "trial_type": "single-stim", "trial_index": 264, "time_elapsed": 1254754, "internal_node_id": "0.0-186.0-6.0"}}, {"uniqueid": "MTK0939:3RXPCZQMQQI1YXHFJJS7VSQVE1K1GY", "current_trial": 265, "dateTime": 1512933547592, "trialdata": {"rt": -1, "stimulus": "<p id=\"stim\">3</p>", "key_press": -1, "trial_type": "single-stim", "trial_index": 265, "time_elapsed": 1255756, "internal_node_id": "0.0-186.0-7.0"}}, {"uniqueid": "MTK0939:3RXPCZQMQQI1YXHFJJS7VSQVE1K1GY", "current_trial": 266, "dateTime": 1512933548595, "trialdata": {"rt": -1, "stimulus": "<p id=\"stim\">2</p>", "key_press": -1, "trial_type": "single-stim", "trial_index": 266, "time_elapsed": 1256759, "internal_node_id": "0.0-186.0-8.0"}}, {"uniqueid": "MTK0939:3RXPCZQMQQI1YXHFJJS7VSQVE1K1GY", "current_trial": 267, "dateTime": 1512933549597, "trialdata": {"rt": -1, "stimulus": "<p id=\"stim\">1</p>", "key_press": -1, "trial_type": "single-stim", "trial_index": 267, "time_elapsed": 1257761, "internal_node_id": "0.0-186.0-9.0"}}, {"uniqueid": "MTK0939:3RXPCZQMQQI1YXHFJJS7VSQVE1K1GY", "current_trial": 268, "dateTime": 1512933551168, "trialdata": {"rt": -1, "stimulus": "<p id=\"stim\">+</p>", "key_press": -1, "type": "FIXATION", "trial_type": "single-stim", "trial_index": 268, "time_elapsed": 1259331, "internal_node_id": "0.0-187.0-0.0"}}, {"uniqueid": "MTK0939:3RXPCZQMQQI1YXHFJJS7VSQVE1K1GY", "current_trial": 269, "dateTime": 1512933553936, "trialdata": {"rt": -1000, "stimulus": "/static/audio/wordpool/AIRPORT.wav", "key_press": -1, "type": "PRES_AUD", "word": "airport", "wordID": 12, "conditions": [24, 1600, "a", 24000], "trial": 8, "serialpos": 0, "trial_type": "single-audio", "trial_index": 269, "time_elapsed": 1262100, "internal_node_id": "0.0-188.0"}}, {"uniqueid": "MTK0939:3RXPCZQMQQI1YXHFJJS7VSQVE1K1GY", "current_trial": 270, "dateTime": 1512933556564, "trialdata": {"rt": -1000, "stimulus": "/static/audio/wordpool/BANK.wav", "key_press": -1, "type": "PRES_AUD", "word": "bank", "wordID": 82, "conditions": [24, 1600, "a", 24000], "trial": 8, "serialpos": 1, "trial_type": "single-audio", "trial_index": 270, "time_elapsed": 1264728, "internal_node_id": "0.0-189.0"}}, {"uniqueid": "MTK0939:3RXPCZQMQQI1YXHFJJS7VSQVE1K1GY", "current_trial": 271, "dateTime": 1512933559252, "trialdata": {"rt": 940.0000000000546, "stimulus": "/static/audio/wordpool/PIANO.wav", "key_press": 174, "type": "PRES_AUD", "word": "piano", "wordID": 1056, "conditions": [24, 1600, "a", 24000], "trial": 8, "serialpos": 2, "trial_type": "single-audio", "trial_index": 271, "time_elapsed": 1267416, "internal_node_id": "0.0-190.0"}}, {"uniqueid": "MTK0939:3RXPCZQMQQI1YXHFJJS7VSQVE1K1GY", "current_trial": 272, "dateTime": 1512933561759, "trialdata": {"rt": -1000, "stimulus": "/static/audio/wordpool/CATTLE.wav", "key_press": -1, "type": "PRES_AUD", "word": "cattle", "wordID": 260, "conditions": [24, 1600, "a", 24000], "trial": 8, "serialpos": 3, "trial_type": "single-audio", "trial_index": 272, "time_elapsed": 1269923, "internal_node_id": "0.0-191.0"}}, {"uniqueid": "MTK0939:3RXPCZQMQQI1YXHFJJS7VSQVE1K1GY", "current_trial": 273, "dateTime": 1512933564349, "trialdata": {"rt": -1000, "stimulus": "/static/audio/wordpool/MISTER.wav", "key_press": -1, "type": "PRES_AUD", "word": "mister", "wordID": 900, "conditions": [24, 1600, "a", 24000], "trial": 8, "serialpos": 4, "trial_type": "single-audio", "trial_index": 273, "time_elapsed": 1272512, "internal_node_id": "0.0-192.0"}}, {"uniqueid": "MTK0939:3RXPCZQMQQI1YXHFJJS7VSQVE1K1GY", "current_trial": 274, "dateTime": 1512933566923, "trialdata": {"rt": -1000, "stimulus": "/static/audio/wordpool/SEAGULL.wav", "key_press": -1, "type": "PRES_AUD", "word": "seagull", "wordID": 1260, "conditions": [24, 1600, "a", 24000], "trial": 8, "serialpos": 5, "trial_type": "single-audio", "trial_index": 274, "time_elapsed": 1275087, "internal_node_id": "0.0-193.0"}}, {"uniqueid": "MTK0939:3RXPCZQMQQI1YXHFJJS7VSQVE1K1GY", "current_trial": 275, "dateTime": 1