{"condition": 0, "counterbalance": 657, "assignmentId": "3C44YUNSI2W135QQ2V2PQ35W2RRDPN", "workerId": "MTK0440", "hitId": "3QO7EE372OUR10VRYAL66YBMQAHBQC", "currenttrial": 626, "bonus": 0, "data": [{"uniqueid": "MTK0440:3C44YUNSI2W135QQ2V2PQ35W2RRDPN", "current_trial": 0, "dateTime": 1510875308618, "trialdata": {"rt": 3785, "key_press": 32, "type": "INSTRUCTIONS", "trial_type": "text", "trial_index": 0, "time_elapsed": 3788, "internal_node_id": "0.0-0.0"}}, {"uniqueid": "MTK0440:3C44YUNSI2W135QQ2V2PQ35W2RRDPN", "current_trial": 1, "dateTime": 1510875435034, "trialdata": {"rt": 126415, "key_press": 32, "type": "INSTRUCTIONS", "trial_type": "text", "trial_index": 1, "time_elapsed": 130205, "internal_node_id": "0.0-1.0"}}, {"uniqueid": "MTK0440:3C44YUNSI2W135QQ2V2PQ35W2RRDPN", "current_trial": 2, "dateTime": 1510875442194, "trialdata": {"rt": [7151], "responses": ["ocean"], "type": "AUDIO_TEST", "trial_type": "audio-test", "trial_index": 2, "time_elapsed": 137365, "internal_node_id": "0.0-2.0"}}, {"uniqueid": "MTK0440:3C44YUNSI2W135QQ2V2PQ35W2RRDPN", "current_trial": 3, "dateTime": 1510875449136, "trialdata": {"rt": [6938], "responses": ["crystal"], "type": "AUDIO_TEST", "trial_type": "audio-test", "trial_index": 3, "time_elapsed": 144307, "internal_node_id": "0.0-3.0"}}, {"uniqueid": "MTK0440:3C44YUNSI2W135QQ2V2PQ35W2RRDPN", "current_trial": 4, "dateTime": 1510875455912, "trialdata": {"rt": [6771], "responses": ["spice"], "type": "AUDIO_TEST", "trial_type": "audio-test", "trial_index": 4, "time_elapsed": 151083, "internal_node_id": "0.0-4.0"}}, {"uniqueid": "MTK0440:3C44YUNSI2W135QQ2V2PQ35W2RRDPN", "current_trial": 5, "dateTime": 1510875482238, "trialdata": {"rt": 25573, "responses": "{\"Q0\":\"11:00 PM\",\"Q1\":\"7:00 AM\",\"Q2\":\"5\"}", "type": "SLEEP_SURVEY", "trial_type": "survey-text", "trial_index": 5, "time_elapsed": 177409, "internal_node_id": "0.0-5.0"}}, {"uniqueid": "MTK0440:3C44YUNSI2W135QQ2V2PQ35W2RRDPN", "current_trial": 6, "dateTime": 1510875526283, "trialdata": {"rt": 43043, "key_press": 32, "type": "INSTRUCTIONS", "trial_type": "text", "trial_index": 6, "time_elapsed": 221454, "internal_node_id": "0.0-6.0"}}, {"uniqueid": "MTK0440:3C44YUNSI2W135QQ2V2PQ35W2RRDPN", "current_trial": 7, "dateTime": 1510875542100, "trialdata": {"rt": 15313, "key_press": 32, "type": "INSTRUCTIONS", "trial_type": "text", "trial_index": 7, "time_elapsed": 237271, "internal_node_id": "0.0-7.0"}}, {"uniqueid": "MTK0440:3C44YUNSI2W135QQ2V2PQ35W2RRDPN", "current_trial": 8, "dateTime": 1510875557965, "trialdata": {"rt": 15363, "key_press": 32, "type": "INSTRUCTIONS", "trial_type": "text", "trial_index": 8, "time_elapsed": 253136, "internal_node_id": "0.0-8.0"}}, {"uniqueid": "MTK0440:3C44YUNSI2W135QQ2V2PQ35W2RRDPN", "current_trial": 9, "dateTime": 1510875576973, "trialdata": {"rt": [5208, 8531, 11262, 13850, 15863], "responses": ["16", "9", "7", "16", "10"], "num1": [5, 5, 4, 5, 1, 2], "num2": [1, 4, 2, 6, 8, 3], "num3": [9, 4, 1, 5, 1, 7], "type": "DISTRACTOR", "conditions": [18, 1200, "a", 18000], "trial": 0, "trial_type": "math-distractor", "trial_index": 9, "time_elapsed": 272144, "internal_node_id": "0.0-9.0"}}, {"uniqueid": "MTK0440:3C44YUNSI2W135QQ2V2PQ35W2RRDPN", "current_trial": 10, "dateTime": 1510875579977, "trialdata": {"rt": -1, "stimulus": "<p id=\"stim\">10</p>", "key_press": -1, "trial_type": "single-stim", "trial_index": 10, "time_elapsed": 275147, "internal_node_id": "0.0-10.0-0.0"}}, {"uniqueid": "MTK0440:3C44YUNSI2W135QQ2V2PQ35W2RRDPN", "current_trial": 11, "dateTime": 1510875580979, "trialdata": {"rt": -1, "stimulus": "<p id=\"stim\">9</p>", "key_press": -1, "trial_type": "single-stim", "trial_index": 11, "time_elapsed": 276150, "internal_node_id": "0.0-10.0-1.0"}}, {"uniqueid": "MTK0440:3C44YUNSI2W135QQ2V2PQ35W2RRDPN", "current_trial": 12, "dateTime": 1510875581980, "trialdata": {"rt": -1, "stimulus": "<p id=\"stim\">8</p>", "key_press": -1, "trial_type": "single-stim", "trial_index": 12, "time_elapsed": 277151, "internal_node_id": "0.0-10.0-2.0"}}, {"uniqueid": "MTK0440:3C44YUNSI2W135QQ2V2PQ35W2RRDPN", "current_trial": 13, "dateTime": 1510875582982, "trialdata": {"rt": -1, "stimulus": "<p id=\"stim\">7</p>", "key_press": -1, "trial_type": "single-stim", "trial_index": 13, "time_elapsed": 278153, "internal_node_id": "0.0-10.0-3.0"}}, {"uniqueid": "MTK0440:3C44YUNSI2W135QQ2V2PQ35W2RRDPN", "current_trial": 14, "dateTime": 1510875583985, "trialdata": {"rt": -1, "stimulus": "<p id=\"stim\">6</p>", "key_press": -1, "trial_type": "single-stim", "trial_index": 14, "time_elapsed": 279156, "internal_node_id": "0.0-10.0-4.0"}}, {"uniqueid": "MTK0440:3C44YUNSI2W135QQ2V2PQ35W2RRDPN", "current_trial": 15, "dateTime": 1510875584986, "trialdata": {"rt": -1, "stimulus": "<p id=\"stim\">5</p>", "key_press": -1, "trial_type": "single-stim", "trial_index": 15, "time_elapsed": 280157, "internal_node_id": "0.0-10.0-5.0"}}, {"uniqueid": "MTK0440:3C44YUNSI2W135QQ2V2PQ35W2RRDPN", "current_trial": 16, "dateTime": 1510875585987, "trialdata": {"rt": -1, "stimulus": "<p id=\"stim\">4</p>", "key_press": -1, "trial_type": "single-stim", "trial_index": 16, "time_elapsed": 281158, "internal_node_id": "0.0-10.0-6.0"}}, {"uniqueid": "MTK0440:3C44YUNSI2W135QQ2V2PQ35W2RRDPN", "current_trial": 17, "dateTime": 1510875586987, "trialdata": {"rt": -1, "stimulus": "<p id=\"stim\">3</p>", "key_press": -1, "trial_type": "single-stim", "trial_index": 17, "time_elapsed": 282158, "internal_node_id": "0.0-10.0-7.0"}}, {"uniqueid": "MTK0440:3C44YUNSI2W135QQ2V2PQ35W2RRDPN", "current_trial": 18, "dateTime": 1510875587990, "trialdata": {"rt": -1, "stimulus": "<p id=\"stim\">2</p>", "key_press": -1, "trial_type": "single-stim", "trial_index": 18, "time_elapsed": 283161, "internal_node_id": "0.0-10.0-8.0"}}, {"uniqueid": "MTK0440:3C44YUNSI2W135QQ2V2PQ35W2RRDPN", "current_trial": 19, "dateTime": 1510875588992, "trialdata": {"rt": -1, "stimulus": "<p id=\"stim\">1</p>", "key_press": -1, "trial_type": "single-stim", "trial_index": 19, "time_elapsed": 284163, "internal_node_id": "0.0-10.0-9.0"}}, {"uniqueid": "MTK0440:3C44YUNSI2W135QQ2V2PQ35W2RRDPN", "current_trial": 20, "dateTime": 1510875590494, "trialdata": {"rt": -1, "stimulus": "<p id=\"stim\">+</p>", "key_press": -1, "type": "FIXATION", "trial_type": "single-stim", "trial_index": 20, "time_elapsed": 285665, "internal_node_id": "0.0-11.0-0.0"}}, {"uniqueid": "MTK0440:3C44YUNSI2W135QQ2V2PQ35W2RRDPN", "current_trial": 21, "dateTime": 1510875592659, "trialdata": {"rt": 1659.9999999999682, "stimulus": "/static/audio/wordpool/BRIEFCASE.wav", "key_press": 175, "type": "PRES_AUD", "word": "briefcase", "wordID": 174, "conditions": [18, 1200, "a", 18000], "trial": 0, "serialpos": 0, "trial_type": "single-audio", "trial_index": 21, "time_elapsed": 287830, "internal_node_id": "0.0-12.0"}}, {"uniqueid": "MTK0440:3C44YUNSI2W135QQ2V2PQ35W2RRDPN", "current_trial": 22, "dateTime": 1510875594709, "trialdata": {"rt": 699.9999999999886, "stimulus": "/static/audio/wordpool/BLOUSE.wav", "key_press": 175, "type": "PRES_AUD", "word": "blouse", "wordID": 138, "conditions": [18, 1200, "a", 18000], "trial": 0, "serialpos": 1, "trial_type": "single-audio", "trial_index": 22, "time_elapsed": 289880, "internal_node_id": "0.0-13.0"}}, {"uniqueid": "MTK0440:3C44YUNSI2W135QQ2V2PQ35W2RRDPN", "current_trial": 23, "dateTime": 1510875596778, "trialdata": {"rt": -1000, "stimulus": "/static/audio/wordpool/BACKBONE.wav", "key_press": -1, "type": "PRES_AUD", "word": "backbone", "wordID": 65, "conditions": [18, 1200, "a", 18000], "trial": 0, "serialpos": 2, "trial_type": "single-audio", "trial_index": 23, "time_elapsed": 291949, "internal_node_id": "0.0-14.0"}}, {"uniqueid": "MTK0440:3C44YUNSI2W135QQ2V2PQ35W2RRDPN", "current_trial": 24, "dateTime": 1510875598804, "trialdata": {"rt": -1000, "stimulus": "/static/audio/wordpool/PICNIC.wav", "key_press": -1, "type": "PRES_AUD", "word": "picnic", "wordID": 1059, "conditions": [18, 1200, "a", 18000], "trial": 0, "serialpos": 3, "trial_type": "single-audio", "trial_index": 24, "time_elapsed": 293975, "internal_node_id": "0.0-15.0"}}, {"uniqueid": "MTK0440:3C44YUNSI2W135QQ2V2PQ35W2RRDPN", "current_trial": 25, "dateTime": 1510875601014, "trialdata": {"rt": -1000, "stimulus": "/static/audio/wordpool/ARM.wav", "key_press": -1, "type": "PRES_AUD", "word": "arm", "wordID": 37, "conditions": [18, 1200, "a", 18000], "trial": 0, "serialpos": 4, "trial_type": "single-audio", "trial_index": 25, "time_elapsed": 296185, "internal_node_id": "0.0-16.0"}}, {"uniqueid": "MTK0440:3C44YUNSI2W135QQ2V2PQ35W2RRDPN", "current_trial": 26, "dateTime": 1510875603240, "trialdata": {"rt": -1000, "stimulus": "/static/audio/wordpool/FLASHLIGHT.wav", "key_press": -1, "type": "PRES_AUD", "word": "flashlight", "wordID": 574, "conditions": [18, 1200, "a", 18000], "trial": 0, "serialpos": 5, "trial_type": "single-audio", "trial_index": 26, "time_elapsed": 298411, "internal_node_id": "0.0-17.0"}}, {"uniqueid": "MTK0440:3C44YUNSI2W135QQ2V2PQ35W2RRDPN", "current_trial": 27, "dateTime": 1510875605277, "trialdata": {"rt": -1000, "stimulus": "/static/audio/wordpool/BUNNY.wav", "key_press": -1, "type": "PRES_AUD", "word": "bunny", "wordID": 197, "conditions": [18, 1200, "a", 18000], "trial": 0, "serialpos": 6, "trial_type": "single-audio", "trial_index": 27, "time_elapsed": 300448, "internal_node_id": "0.0-18.0"}}, {"uniqueid": "MTK0440:3C44YUNSI2W135QQ2V2PQ35W2RRDPN", "current_trial": 28, "dateTime": 1510875607364, "trialdata": {"rt": -1000, "stimulus": "/static/audio/wordpool/LAVA.wav", "key_press": -1, "type": "PRES_AUD", "word": "lava", "wordID": 803, "conditions": [18, 1200, "a", 18000], "trial": 0, "serialpos": 7, "trial_type": "single-audio", "trial_index": 28, "time_elapsed": 302534, "internal_node_id": "0.0-19.0"}}, {"uniqueid": "MTK0440:3C44YUNSI2W135QQ2V2PQ35W2RRDPN", "current_trial": 29, "dateTime": 1510875609740, "trialdata": {"rt": -1000, "stimulus": "/static/audio/wordpool/RABBIT.wav", "key_press": -1, "type": "PRES_AUD", "word": "rabbit", "wordID": 1151, "conditions": [18, 1200, "a", 18000], "trial": 0, "serialpos": 8, "trial_type": "single-audio", "trial_index": 29, "time_elapsed": 304911, "internal_node_id": "0.0-20.0"}}, {"uniqueid": "MTK0440:3C44YUNSI2W135QQ2V2PQ35W2RRDPN", "current_trial": 30, "dateTime": 1510875611954, "trialdata": {"rt": -1000, "stimulus": "/static/audio/wordpool/POSSUM.wav", "key_press": -1, "type": "PRES_AUD", "word": "possum", "wordID": 1111, "conditions": [18, 1200, "a", 18000], "trial": 0, "serialpos": 9, "trial_type": "single-audio", "trial_index": 30, "time_elapsed": 307124, "internal_node_id": "0.0-21.0"}}, {"uniqueid": "MTK0440:3C44YUNSI2W135QQ2V2PQ35W2RRDPN", "current_trial": 31, "dateTime": 1510875614326, "trialdata": {"rt": -1000, "stimulus": "/static/audio/wordpool/COCOON.wav", "key_press": -1, "type": "PRES_AUD", "word": "cocoon", "wordID": 338, "conditions": [18, 1200, "a", 18000], "trial": 0, "serialpos": 10, "trial_type": "single-audio", "trial_index": 31, "time_elapsed": 309497, "internal_node_id": "0.0-22.0"}}, {"uniqueid": "MTK0440:3C44YUNSI2W135QQ2V2PQ35W2RRDPN", "current_trial": 32, "dateTime": 1510875616634, "trialdata": {"rt": -1000, "stimulus": "/static/audio/wordpool/FOREHEAD.wav", "key_press": -1, "type": "PRES_AUD", "word": "forehead", "wordID": 591, "conditions": [18, 1200, "a", 18000], "trial": 0, "serialpos": 11, "trial_type": "single-audio", "trial_index": 32, "time_elapsed": 311805, "internal_node_id": "0.0-23.0"}}, {"uniqueid": "MTK0440:3C44YUNSI2W135QQ2V2PQ35W2RRDPN", "current_trial": 33, "dateTime": 1510875618884, "trialdata": {"rt": -1000, "stimulus": "/static/audio/wordpool/DUSTPAN.wav", "key_press": -1, "type": "PRES_AUD", "word": "dustpan", "wordID": 508, "conditions": [18, 1200, "a", 18000], "trial": 0, "serialpos": 12, "trial_type": "single-audio", "trial_index": 33, "time_elapsed": 314055, "internal_node_id": "0.0-24.0"}}, {"uniqueid": "MTK0440:3C44YUNSI2W135QQ2V2PQ35W2RRDPN", "current_trial": 34, "dateTime": 1510875620932, "trialdata": {"rt": -1000, "stimulus": "/static/audio/wordpool/ISLAND.wav", "key_press": -1, "type": "PRES_AUD", "word": "island", "wordID": 744, "conditions": [18, 1200, "a", 18000], "trial": 0, "serialpos": 13, "trial_type": "single-audio", "trial_index": 34, "time_elapsed": 316103, "internal_node_id": "0.0-25.0"}}, {"uniqueid": "MTK0440:3C44YUNSI2W135QQ2V2PQ35W2RRDPN", "current_trial": 35, "dateTime": 1510875623091, "trialdata": {"rt": -1000, "stimulus": "/static/audio/wordpool/CONVICT.wav", "key_press": -1, "type": "PRES_AUD", "word": "convict", "wordID": 370, "conditions": [18, 1200, "a", 18000], "trial": 0, "serialpos": 14, "trial_type": "single-audio", "trial_index": 35, "time_elapsed": 318262, "internal_node_id": "0.0-26.0"}}, {"uniqueid": "MTK0440:3C44YUNSI2W135QQ2V2PQ35W2RRDPN", "current_trial": 36, "dateTime": 1510875625451, "trialdata": {"rt": -1000, "stimulus": "/static/audio/wordpool/GRAVEL.wav", "key_press": -1, "type": "PRES_AUD", "word": "gravel", "wordID": 658, "conditions": [18, 1200, "a", 18000], "trial": 0, "serialpos": 15, "trial_type": "single-audio", "trial_index": 36, "time_elapsed": 320622, "internal_node_id": "0.0-27.0"}}, {"uniqueid": "MTK0440:3C44YUNSI2W135QQ2V2PQ35W2RRDPN", "current_trial": 37, "dateTime": 1510875627680, "trialdata": {"rt": -1000, "stimulus": "/static/audio/wordpool/STREAM.wav", "key_press": -1, "type": "PRES_AUD", "word": "stream", "wordID": 1391, "conditions": [18, 1200, "a", 18000], "trial": 0, "serialpos": 16, "trial_type": "single-audio", "trial_index": 37, "time_elapsed": 322851, "internal_node_id": "0.0-28.0"}}, {"uniqueid": "MTK0440:3C44YUNSI2W135QQ2V2PQ35W2RRDPN", "current_trial": 38, "dateTime": 1510875630001, "trialdata": {"rt": -1000, "stimulus": "/static/audio/wordpool/TOASTER.wav", "key_press": -1, "type": "PRES_AUD", "word": "toaster", "wordID": 1471, "conditions": [18, 1200, "a", 18000], "trial": 0, "serialpos": 17, "trial_type": "single-audio", "trial_index": 38, "time_elapsed": 325172, "internal_node_id": "0.0-29.0"}}, {"uniqueid": "MTK0440:3C44YUNSI2W135QQ2V2PQ35W2RRDPN", "current_trial": 39, "dateTime": 1510875631363, "trialdata": {"rt": -1, "stimulus": "", "key_press": -1, "type": "PRE_RECALL_DELAY", "trial_type": "single-stim", "trial_index": 39, "time_elapsed": 326534, "internal_node_id": "0.0-30.0-0.0"}}, {"uniqueid": "MTK0440:3C44YUNSI2W135QQ2V2PQ35W2RRDPN", "current_trial": 40, "dateTime": 1510875631865, "trialdata": {"rt": -1000, "stimulus": "/static/audio/400Hz.wav", "key_press": -1, "type": "PRE_RECALL_ALERT", "trial_type": "single-audio", "trial_index": 40, "time_elapsed": 327036, "internal_node_id": "0.0-31.0"}}, {"uniqueid": "MTK0440:3C44YUNSI2W135QQ2V2PQ35W2RRDPN", "current_trial": 41, "dateTime": 1510875691874, "trialdata": {"rt": [3669, 6152, 9354, 12290, 15815, 59175], "recwords": ["gravel", "stream", "toaster", "bunny", "rabbit", "baggage"], "type": "FREE_RECALL", "conditions": [18, 1200, "a", 18000], "trial": 0, "trial_type": "free-recall", "trial_index": 41, "time_elapsed": 387041, "internal_node_id": "0.0-32.0-0.0"}}, {"uniqueid": "MTK0440:3C44YUNSI2W135QQ2V2PQ35W2RRDPN", "current_trial": 42, "dateTime": 1510875695303, "trialdata": {"rt": 1426, "key_press": 32, "type": "INSTRUCTIONS", "trial_type": "text", "trial_index": 42, "time_elapsed": 390474, "internal_node_id": "0.0-33.0"}}, {"uniqueid": "MTK0440:3C44YUNSI2W135QQ2V2PQ35W2RRDPN", "current_trial": 43, "dateTime": 1510875715306, "trialdata": {"rt": [5144, 8438, 12236], "responses": ["15", "21", "27"], "num1": [1, 8, 8, 8], "num2": [5, 5, 9, 3], "num3": [9, 7, 8, 1], "type": "DISTRACTOR", "conditions": [18, 1200, "v", 18000], "trial": 1, "trial_type": "math-distractor", "trial_index": 43, "time_elapsed": 410477, "internal_node_id": "0.0-34.0"}}, {"uniqueid": "MTK0440:3C44YUNSI2W135QQ2V2PQ35W2RRDPN", "current_trial": 44, "dateTime": 1510875718310, "trialdata": {"rt": -1, "stimulus": "<p id=\"stim\">10</p>", "key_press": -1, "trial_type": "single-stim", "trial_index": 44, "time_elapsed": 413481, "internal_node_id": "0.0-35.0-0.0"}}, {"uniqueid": "MTK0440:3C44YUNSI2W135QQ2V2PQ35W2RRDPN", "current_trial": 45, "dateTime": 1510875719310, "trialdata": {"rt": -1, "stimulus": "<p id=\"stim\">9</p>", "key_press": -1, "trial_type": "single-stim", "trial_index": 45, "time_elapsed": 414481, "internal_node_id": "0.0-35.0-1.0"}}, {"uniqueid": "MTK0440:3C44YUNSI2W135QQ2V2PQ35W2RRDPN", "current_trial": 46, "dateTime": 1510875720313, "trialdata": {"rt": -1, "stimulus": "<p id=\"stim\">8</p>", "key_press": -1, "trial_type": "single-stim", "trial_index": 46, "time_elapsed": 415484, "internal_node_id": "0.0-35.0-2.0"}}, {"uniqueid": "MTK0440:3C44YUNSI2W135QQ2V2PQ35W2RRDPN", "current_trial": 47, "dateTime": 1510875721314, "trialdata": {"rt": -1, "stimulus": "<p id=\"stim\">7</p>", "key_press": -1, "trial_type": "single-stim", "trial_index": 47, "time_elapsed": 416485, "internal_node_id": "0.0-35.0-3.0"}}, {"uniqueid": "MTK0440:3C44YUNSI2W135QQ2V2PQ35W2RRDPN", "current_trial": 48, "dateTime": 1510875722315, "trialdata": {"rt": -1, "stimulus": "<p id=\"stim\">6</p>", "key_press": -1, "trial_type": "single-stim", "trial_index": 48, "time_elapsed": 417486, "internal_node_id": "0.0-35.0-4.0"}}, {"uniqueid": "MTK0440:3C44YUNSI2W135QQ2V2PQ35W2RRDPN", "current_trial": 49, "dateTime": 1510875723318, "trialdata": {"rt": -1, "stimulus": "<p id=\"stim\">5</p>", "key_press": -1, "trial_type": "single-stim", "trial_index": 49, "time_elapsed": 418489, "internal_node_id": "0.0-35.0-5.0"}}, {"uniqueid": "MTK0440:3C44YUNSI2W135QQ2V2PQ35W2RRDPN", "current_trial": 50, "dateTime": 1510875724319, "trialdata": {"rt": -1, "stimulus": "<p id=\"stim\">4</p>", "key_press": -1, "trial_type": "single-stim", "trial_index": 50, "time_elapsed": 419490, "internal_node_id": "0.0-35.0-6.0"}}, {"uniqueid": "MTK0440:3C44YUNSI2W135QQ2V2PQ35W2RRDPN", "current_trial": 51, "dateTime": 1510875725320, "trialdata": {"rt": -1, "stimulus": "<p id=\"stim\">3</p>", "key_press": -1, "trial_type": "single-stim", "trial_index": 51, "time_elapsed": 420491, "internal_node_id": "0.0-35.0-7.0"}}, {"uniqueid": "MTK0440:3C44YUNSI2W135QQ2V2PQ35W2RRDPN", "current_trial": 52, "dateTime": 1510875726321, "trialdata": {"rt": -1, "stimulus": "<p id=\"stim\">2</p>", "key_press": -1, "trial_type": "single-stim", "trial_index": 52, "time_elapsed": 421492, "internal_node_id": "0.0-35.0-8.0"}}, {"uniqueid": "MTK0440:3C44YUNSI2W135QQ2V2PQ35W2RRDPN", "current_trial": 53, "dateTime": 1510875727324, "trialdata": {"rt": -1, "stimulus": "<p id=\"stim\">1</p>", "key_press": -1, "trial_type": "single-stim", "trial_index": 53, "time_elapsed": 422495, "internal_node_id": "0.0-35.0-9.0"}}, {"uniqueid": "MTK0440:3C44YUNSI2W135QQ2V2PQ35W2RRDPN", "current_trial": 54, "dateTime": 1510875728824, "trialdata": {"rt": -1, "stimulus": "<p id=\"stim\">+</p>", "key_press": -1, "type": "FIXATION", "trial_type": "single-stim", "trial_index": 54, "time_elapsed": 423995, "internal_node_id": "0.0-36.0-0.0"}}, {"uniqueid": "MTK0440:3C44YUNSI2W135QQ2V2PQ35W2RRDPN", "current_trial": 55, "dateTime": 1510875730026, "trialdata": {"rt": -1, "stimulus": "<p id=\"stim\">LUGGAGE</p>", "key_press": -1, "type": "PRES_VIS", "word": "luggage", "wordID": 846, "conditions": [18, 1200, "v", 18000], "trial": 1, "serialpos": 0, "trial_type": "single-stim", "trial_index": 55, "time_elapsed": 425197, "internal_node_id": "0.0-37.0"}}, {"uniqueid": "MTK0440:3C44YUNSI2W135QQ2V2PQ35W2RRDPN", "current_trial": 56, "dateTime": 1510875732190, "trialdata": {"rt": -1, "stimulus": "<p id=\"stim\">DONKEY</p>", "key_press": -1, "type": "PRES_VIS", "word": "donkey", "wordID": 483, "conditions": [18, 1200, "v", 18000], "trial": 1, "serialpos": 1, "trial_type": "single-stim", "trial_index": 56, "time_elapsed": 427361, "internal_node_id": "0.0-38.0"}}, {"uniqueid": "MTK0440:3C44YUNSI2W135QQ2V2PQ35W2RRDPN", "current_trial": 57, "dateTime": 1510875734394, "trialdata": {"rt": -1, "stimulus": "<p id=\"stim\">HELMET</p>", "key_press": -1, "type": "PRES_VIS", "word": "helmet", "wordID": 701, "conditions": [18, 1200, "v", 18000], "trial": 1, "serialpos": 2, "trial_type": "single-stim", "trial_index": 57, "time_elapsed": 429565, "internal_node_id": "0.0-39.0"}}, {"uniqueid": "MTK0440:3C44YUNSI2W135QQ2V2PQ35W2RRDPN", "current_trial": 58, "dateTime": 1510875736517, "trialdata": {"rt": -1, "stimulus": "<p id=\"stim\">WARDROBE</p>", "key_press": -1, "type": "PRES_VIS", "word": "wardrobe", "wordID": 1586, "conditions": [18, 1200, "v", 18000], "trial": 1, "serialpos": 3, "trial_type": "single-stim", "trial_index": 58, "time_elapsed": 431688, "internal_node_id": "0.0-40.0"}}, {"uniqueid": "MTK0440:3C44YUNSI2W135QQ2V2PQ35W2RRDPN", "current_trial": 59, "dateTime": 1510875738581, "trialdata": {"rt": -1, "stimulus": "<p id=\"stim\">POWDER</p>", "key_press": -1, "type": "PRES_VIS", "word": "powder", "wordID": 1116, "conditions": [18, 1200, "v", 18000], "trial": 1, "serialpos": 4, "trial_type": "single-stim", "trial_index": 59, "time_elapsed": 433752, "internal_node_id": "0.0-41.0"}}, {"uniqueid": "MTK0440:3C44YUNSI2W135QQ2V2PQ35W2RRDPN", "current_trial": 60, "dateTime": 1510875740765, "trialdata": {"rt": -1, "stimulus": "<p id=\"stim\">BARLEY</p>", "key_press": -1, "type": "PRES_VIS", "word": "barley", "wordID": 87, "conditions": [18, 1200, "v", 18000], "trial": 1, "serialpos": 5, "trial_type": "single-stim", "trial_index": 60, "time_elapsed": 435936, "internal_node_id": "0.0-42.0"}}, {"uniqueid": "MTK0440:3C44YUNSI2W135QQ2V2PQ35W2RRDPN", "current_trial": 61, "dateTime": 1510875742822, "trialdata": {"rt": -1, "stimulus": "<p id=\"stim\">CLAMP</p>", "key_press": -1, "type": "PRES_VIS", "word": "clamp", "wordID": 315, "conditions": [18, 1200, "v", 18000], "trial": 1, "serialpos": 6, "trial_type": "single-stim", "trial_index": 61, "time_elapsed": 437993, "internal_node_id": "0.0-43.0"}}, {"uniqueid": "MTK0440:3C44YUNSI2W135QQ2V2PQ35W2RRDPN", "current_trial": 62, "dateTime": 1510875745156, "trialdata": {"rt": -1, "stimulus": "<p id=\"stim\">GAZELLE</p>", "key_press": -1, "type": "PRES_VIS", "word": "gazelle", "wordID": 627, "conditions": [18, 1200, "v", 18000], "trial": 1, "serialpos": 7, "trial_type": "single-stim", "trial_index": 62, "time_elapsed": 440327, "internal_node_id": "0.0-44.0"}}, {"uniqueid": "MTK0440:3C44YUNSI2W135QQ2V2PQ35W2RRDPN", "current_trial": 63, "dateTime": 1510875747316, "trialdata": {"rt": -1, "stimulus": "<p id=\"stim\">MUMMY</p>", "key_press": -1, "type": "PRES_VIS", "word": "mummy", "wordID": 931, "conditions": [18, 1200, "v", 18000], "trial": 1, "serialpos": 8, "trial_type": "single-stim", "trial_index": 63, "time_elapsed": 442487, "internal_node_id": "0.0-45.0"}}, {"uniqueid": "MTK0440:3C44YUNSI2W135QQ2V2PQ35W2RRDPN", "current_trial": 64, "dateTime": 1510875749571, "trialdata": {"rt": -1, "stimulus": "<p id=\"stim\">TAXI</p>", "key_press": -1, "type": "PRES_VIS", "word": "taxi", "wordID": 1437, "conditions": [18, 1200, "v", 18000], "trial": 1, "serialpos": 9, "trial_type": "single-stim", "trial_index": 64, "time_elapsed": 444742, "internal_node_id": "0.0-46.0"}}, {"uniqueid": "MTK0440:3C44YUNSI2W135QQ2V2PQ35W2RRDPN", "current_trial": 65, "dateTime": 1510875751680, "trialdata": {"rt": -1, "stimulus": "<p id=\"stim\">SPOOL</p>", "key_press": -1, "type": "PRES_VIS", "word": "spool", "wordID": 1355, "conditions": [18, 1200, "v", 18000], "trial": 1, "serialpos": 10, "trial_type": "single-stim", "trial_index": 65, "time_elapsed": 446851, "internal_node_id": "0.0-47.0"}}, {"uniqueid": "MTK0440:3C44YUNSI2W135QQ2V2PQ35W2RRDPN", "current_trial": 66, "dateTime": 1510875753685, "trialdata": {"rt": -1, "stimulus": "<p id=\"stim\">BUCKET</p>", "key_press": -1, "type": "PRES_VIS", "word": "bucket", "wordID": 183, "conditions": [18, 1200, "v", 18000], "trial": 1, "serialpos": 11, "trial_type": "single-stim", "trial_index": 66, "time_elapsed": 448856, "internal_node_id": "0.0-48.0"}}, {"uniqueid": "MTK0440:3C44YUNSI2W135QQ2V2PQ35W2RRDPN", "current_trial": 67, "dateTime": 1510875755786, "trialdata": {"rt": -1, "stimulus": "<p id=\"stim\">BULLET</p>", "key_press": -1, "type": "PRES_VIS", "word": "bullet", "wordID": 193, "conditions": [18, 1200, "v", 18000], "trial": 1, "serialpos": 12, "trial_type": "single-stim", "trial_index": 67, "time_elapsed": 450957, "internal_node_id": "0.0-49.0"}}, {"uniqueid": "MTK0440:3C44YUNSI2W135QQ2V2PQ35W2RRDPN", "current_trial": 68, "dateTime": 1510875757876, "trialdata": {"rt": -1, "stimulus": "<p id=\"stim\">VENUS</p>", "key_press": -1, "type": "PRES_VIS", "word": "venus", "wordID": 1556, "conditions": [18, 1200, "v", 18000], "trial": 1, "serialpos": 13, "trial_type": "single-stim", "trial_index": 68, "time_elapsed": 453045, "internal_node_id": "0.0-50.0"}}, {"uniqueid": "MTK0440:3C44YUNSI2W135QQ2V2PQ35W2RRDPN", "current_trial": 69, "dateTime": 1510875759924, "trialdata": {"rt": -1, "stimulus": "<p id=\"stim\">BUTCHER</p>", "key_press": -1, "type": "PRES_VIS", "word": "butcher", "wordID": 202, "conditions": [18, 1200, "v", 18000], "trial": 1, "serialpos": 14, "trial_type": "single-stim", "trial_index": 69, "time_elapsed": 455095, "internal_node_id": "0.0-51.0"}}, {"uniqueid": "MTK0440:3C44YUNSI2W135QQ2V2PQ35W2RRDPN", "current_trial": 70, "dateTime": 1510875762293, "trialdata": {"rt": -1, "stimulus": "<p id=\"stim\">EYELASH</p>", "key_press": -1, "type": "PRES_VIS", "word": "eyelash", "wordID": 545, "conditions": [18, 1200, "v", 18000], "trial": 1, "serialpos": 15, "trial_type": "single-stim", "trial_index": 70, "time_elapsed": 457464, "internal_node_id": "0.0-52.0"}}, {"uniqueid": "MTK0440:3C44YUNSI2W135QQ2V2PQ35W2RRDPN", "current_trial": 71, "dateTime": 1510875764410, "trialdata": {"rt": -1, "stimulus": "<p id=\"stim\">TEMPLE</p>", "key_press": -1, "type": "PRES_VIS", "word": "temple", "wordID": 1447, "conditions": [18, 1200, "v", 18000], "trial": 1, "serialpos": 16, "trial_type": "single-stim", "trial_index": 71, "time_elapsed": 459581, "internal_node_id": "0.0-53.0"}}, {"uniqueid": "MTK0440:3C44YUNSI2W135QQ2V2PQ35W2RRDPN", "current_trial": 72, "dateTime": 1510875766536, "trialdata": {"rt": -1, "stimulus": "<p id=\"stim\">FREEZER</p>", "key_press": -1, "type": "PRES_VIS", "word": "freezer", "wordID": 603, "conditions": [18, 1200, "v", 18000], "trial": 1, "serialpos": 17, "trial_type": "single-stim", "trial_index": 72, "time_elapsed": 461707, "internal_node_id": "0.0-54.0"}}, {"uniqueid": "MTK0440:3C44YUNSI2W135QQ2V2PQ35W2RRDPN", "current_trial": 73, "dateTime": 1510875768709, "trialdata": {"rt": -1, "stimulus": "", "key_press": -1, "type": "PRE_RECALL_DELAY", "trial_type": "single-stim", "trial_index": 73, "time_elapsed": 463880, "internal_node_id": "0.0-55.0-0.0"}}, {"uniqueid": "MTK0440:3C44YUNSI2W135QQ2V2PQ35W2RRDPN", "current_trial": 74, "dateTime": 1510875769213, "trialdata": {"rt": -1000, "stimulus": "/static/audio/400Hz.wav", "key_press": -1, "type": "PRE_RECALL_ALERT", "trial_type": "single-audio", "trial_index": 74, "time_elapsed": 464384, "internal_node_id": "0.0-56.0"}}, {"uniqueid": "MTK0440:3C44YUNSI2W135QQ2V2PQ35W2RRDPN", "current_trial": 75, "dateTime": 1510875829220, "trialdata": {"rt": [3626, 5659, 7359, 13582, 16079], "recwords": ["freezer", "bucket", "donkey", "luggage", "toaster"], "type": "FREE_RECALL", "conditions": [18, 1200, "v", 18000], "trial": 1, "trial_type": "free-recall", "trial_index": 75, "time_elapsed": 524388, "internal_node_id": "0.0-57.0-0.0"}}, {"uniqueid": "MTK0440:3C44YUNSI2W135QQ2V2PQ35W2RRDPN", "current_trial": 76, "dateTime": 1510875833052, "trialdata": {"rt": 1827, "key_press": 32, "type": "INSTRUCTIONS", "trial_type": "text", "trial_index": 76, "time_elapsed": 528219, "internal_node_id": "0.0-58.0"}}, {"uniqueid": "MTK0440:3C44YUNSI2W135QQ2V2PQ35W2RRDPN", "current_trial": 77, "dateTime": 1510875846055, "trialdata": {"rt": [5224, 8373, 10642], "responses": ["8", "15", "19"], "num1": [3, 5, 6, 8], "num2": [2, 6, 4, 5], "num3": [3, 4, 9, 1], "type": "DISTRACTOR", "conditions": [12, 1600, "a", 12000], "trial": 2, "trial_type": "math-distractor", "trial_index": 77, "time_elapsed": 541226, "internal_node_id": "0.0-59.0"}}, {"uniqueid": "MTK0440:3C44YUNSI2W135QQ2V2PQ35W2RRDPN", "current_trial": 78, "dateTime": 1510875849057, "trialdata": {"rt": -1, "stimulus": "<p id=\"stim\">10</p>", "key_press": -1, "trial_type": "single-stim", "trial_index": 78, "time_elapsed": 544228, "internal_node_id": "0.0-60.0-0.0"}}, {"uniqueid": "MTK0440:3C44YUNSI2W135QQ2V2PQ35W2RRDPN", "current_trial": 79, "dateTime": 1510875850060, "trialdata": {"rt": -1, "stimulus": "<p id=\"stim\">9</p>", "key_press": -1, "trial_type": "single-stim", "trial_index": 79, "time_elapsed": 545229, "internal_node_id": "0.0-60.0-1.0"}}, {"uniqueid": "MTK0440:3C44YUNSI2W135QQ2V2PQ35W2RRDPN", "current_trial": 80, "dateTime": 1510875851062, "trialdata": {"rt": -1, "stimulus": "<p id=\"stim\">8</p>", "key_press": -1, "trial_type": "single-stim", "trial_index": 80, "time_elapsed": 546233, "internal_node_id": "0.0-60.0-2.0"}}, {"uniqueid": "MTK0440:3C44YUNSI2W135QQ2V2PQ35W2RRDPN", "current_trial": 81, "dateTime": 1510875852064, "trialdata": {"rt": -1, "stimulus": "<p id=\"stim\">7</p>", "key_press": -1, "trial_type": "single-stim", "trial_index": 81, "time_elapsed": 547235, "internal_node_id": "0.0-60.0-3.0"}}, {"uniqueid": "MTK0440:3C44YUNSI2W135QQ2V2PQ35W2RRDPN", "current_trial": 82, "dateTime": 1510875853065, "trialdata": {"rt": -1, "stimulus": "<p id=\"stim\">6</p>", "key_press": -1, "trial_type": "single-stim", "trial_index": 82, "time_elapsed": 548236, "internal_node_id": "0.0-60.0-4.0"}}, {"uniqueid": "MTK0440:3C44YUNSI2W135QQ2V2PQ35W2RRDPN", "current_trial": 83, "dateTime": 1510875854067, "trialdata": {"rt": -1, "stimulus": "<p id=\"stim\">5</p>", "key_press": -1, "trial_type": "single-stim", "trial_index": 83, "time_elapsed": 549238, "internal_node_id": "0.0-60.0-5.0"}}, {"uniqueid": "MTK0440:3C44YUNSI2W135QQ2V2PQ35W2RRDPN", "current_trial": 84, "dateTime": 1510875855069, "trialdata": {"rt": -1, "stimulus": "<p id=\"stim\">4</p>", "key_press": -1, "trial_type": "single-stim", "trial_index": 84, "time_elapsed": 550240, "internal_node_id": "0.0-60.0-6.0"}}, {"uniqueid": "MTK0440:3C44YUNSI2W135QQ2V2PQ35W2RRDPN", "current_trial": 85, "dateTime": 1510875856070, "trialdata": {"rt": -1, "stimulus": "<p id=\"stim\">3</p>", "key_press": -1, "trial_type": "single-stim", "trial_index": 85, "time_elapsed": 551241, "internal_node_id": "0.0-60.0-7.0"}}, {"uniqueid": "MTK0440:3C44YUNSI2W135QQ2V2PQ35W2RRDPN", "current_trial": 86, "dateTime": 1510875857071, "trialdata": {"rt": -1, "stimulus": "<p id=\"stim\">2</p>", "key_press": -1, "trial_type": "single-stim", "trial_index": 86, "time_elapsed": 552242, "internal_node_id": "0.0-60.0-8.0"}}, {"uniqueid": "MTK0440:3C44YUNSI2W135QQ2V2PQ35W2RRDPN", "current_trial": 87, "dateTime": 1510875858074, "trialdata": {"rt": -1, "stimulus": "<p id=\"stim\">1</p>", "key_press": -1, "trial_type": "single-stim", "trial_index": 87, "time_elapsed": 553245, "internal_node_id": "0.0-60.0-9.0"}}, {"uniqueid": "MTK0440:3C44YUNSI2W135QQ2V2PQ35W2RRDPN", "current_trial": 88, "dateTime": 1510875859575, "trialdata": {"rt": -1, "stimulus": "<p id=\"stim\">+</p>", "key_press": -1, "type": "FIXATION", "trial_type": "single-stim", "trial_index": 88, "time_elapsed": 554746, "internal_node_id": "0.0-61.0-0.0"}}, {"uniqueid": "MTK0440:3C44YUNSI2W135QQ2V2PQ35W2RRDPN", "current_trial": 89, "dateTime": 1510875862128, "trialdata": {"rt": -1000, "stimulus": "/static/audio/wordpool/PANTHER.wav", "key_press": -1, "type": "PRES_AUD", "word": "panther", "wordID": 1008, "conditions": [12, 1600, "a", 12000], "trial": 2, "serialpos": 0, "trial_type": "single-audio", "trial_index": 89, "time_elapsed": 557299, "internal_node_id": "0.0-62.0"}}, {"uniqueid": "MTK0440:3C44YUNSI2W135QQ2V2PQ35W2RRDPN", "current_trial": 90, "dateTime": 1510875864691, "trialdata": {"rt": -1000, "stimulus": "/static/audio/wordpool/MAMMAL.wav", "key_press": -1, "type": "PRES_AUD", "word": "mammal", "wordID": 860, "conditions": [12, 1600, "a", 12000], "trial": 2, "serialpos": 1, "trial_type": "single-audio", "trial_index": 90, "time_elapsed": 559862, "internal_node_id": "0.0-63.0"}}, {"uniqueid": "MTK0440:3C44YUNSI2W135QQ2V2PQ35W2RRDPN", "current_trial": 91, "dateTime": 1510875867270, "trialdata": {"rt": -1000, "stimulus": "/static/audio/wordpool/MISSILE.wav", "key_press": -1, "type": "PRES_AUD", "word": "missile", "wordID": 899, "conditions": [12, 1600, "a", 12000], "trial": 2, "serialpos": 2, "trial_type": "single-audio", "trial_index": 91, "time_elapsed": 562441, "internal_node_id": "0.0-64.0"}}, {"uniqueid": "MTK0440:3C44YUNSI2W135QQ2V2PQ35W2RRDPN", "current_trial": 92, "dateTime": 1510875869923, "trialdata": {"rt": -1000, "stimulus": "/static/audio/wordpool/CRUTCH.wav", "key_press": -1, "type": "PRES_AUD", "word": "crutch", "wordID": 416, "conditions": [12, 1600, "a", 12000], "trial": 2, "serialpos": 3, "trial_type": "single-audio", "trial_index": 92, "time_elapsed": 565094, "internal_node_id": "0.0-65.0"}}, {"uniqueid": "MTK0440:3C44YUNSI2W135QQ2V2PQ35W2RRDPN", "current_trial": 93, "dateTime": 1510875872691, "trialdata": {"rt": -1000, "stimulus": "/static/audio/wordpool/FARMER.wav", "key_press": -1, "type": "PRES_AUD", "word": "farmer", "wordID": 552, "conditions": [12, 1600, "a", 12000], "trial": 2, "serialpos": 4, "trial_type": "single-audio", "trial_index": 93, "time_elapsed": 567862, "internal_node_id": "0.0-66.0"}}, {"uniqueid": "MTK0440:3C44YUNSI2W135QQ2V2PQ35W2RRDPN", "current_trial": 94, "dateTime": 1510875875234, "trialdata": {"rt": -1000, "stimulus": "/static/audio/wordpool/SIDEWALK.wav", "key_press": -1, "type": "PRES_AUD", "word": "sidewalk", "wordID": 1302, "conditions": [12, 1600, "a", 12000], "trial": 2, "serialpos": 5, "trial_type": "single-audio", "trial_index": 94, "time_elapsed": 570405, "internal_node_id": "0.0-67.0"}}, {"uniqueid": "MTK0440:3C44YUNSI2W135QQ2V2PQ35W2RRDPN", "current_trial": 95, "dateTime": 1510875877875, "trialdata": {"rt": -1000, "stimulus": "/static/audio/wordpool/GIFT.wav", "key_press": -1, "type": "PRES_AUD", "word": "gift", "wordID": 634, "conditions": [12, 1600, "a", 12000], "trial": 2, "serialpos": 6, "trial_type": "single-audio", "trial_index": 95, "time_elapsed": 573046, "internal_node_id": "0.0-68.0"}}, {"uniqueid": "MTK0440:3C44YUNSI2W135QQ2V2PQ35W2RRDPN", "current_trial": 96, "dateTime": 1510875880384, "trialdata": {"rt": -1000, "stimulus": "/static/audio/wordpool/APPLE.wav", "key_press": -1, "type": "PRES_AUD", "word": "apple", "wordID": 32, "conditions": [12, 1600, "a", 12000], "trial": 2, "serialpos": 7, "trial_type": "single-audio", "trial_index": 96, "time_elapsed": 575555, "internal_node_id": "0.0-69.0"}}, {"uniqueid": "MTK0440:3C44YUNSI2W135QQ2V2PQ35W2RRDPN", "current_trial": 97, "dateTime": 1510875882785, "trialdata": {"rt": -1000, "stimulus": "/static/audio/wordpool/MISTER.wav", "key_press": -1, "type": "PRES_AUD", "word": "mister", "wordID": 900, "conditions": [12, 1600, "a", 12000], "trial": 2, "serialpos": 8, "trial_type": "single-audio", "trial_index": 97, "time_elapsed": 577956, "internal_node_id": "0.0-70.0"}}, {"uniqueid": "MTK0440:3C44YUNSI2W135QQ2V2PQ35W2RRDPN", "current_trial": 98, "dateTime": 1510875885250, "trialdata": {"rt": -1000, "stimulus": "/static/audio/wordpool/ROCKET.wav", "key_press": -1, "type": "PRES_AUD", "word": "rocket", "wordID": 1201, "conditions": [12, 1600, "a", 12000], "trial": 2, "serialpos": 9, "trial_type": "single-audio", "trial_index": 98, "time_elapsed": 580421, "internal_node_id": "0.0-71.0"}}, {"uniqueid": "MTK0440:3C44YUNSI2W135QQ2V2PQ35W2RRDPN", "current_trial": 99, "dateTime": 1510875887823, "trialdata": {"rt": -1000, "stimulus": "/static/audio/wordpool/TURKEY.wav", "key_press": -1, "type": "PRES_AUD", "word": "turkey", "wordID": 1519, "conditions": [12, 1600, "a", 12000], "trial": 2, "serialpos": 10, "trial_type": "single-audio", "trial_index": 99, "time_elapsed": 582994, "internal_node_id": "0.0-72.0"}}, {"uniqueid": "MTK0440:3C44YUNSI2W135QQ2V2PQ35W2RRDPN", "current_trial": 100, "dateTime": 1510875890528, "trialdata": {"rt": -1000, "stimulus": "/static/audio/wordpool/PIANO.wav", "key_press": -1, "type": "PRES_AUD", "word": "piano", "wordID": 1056, "conditions": [12, 1600, "a", 12000], "trial": 2, "serialpos": 11, "trial_type": "single-audio", "trial_index": 100, "time_elapsed": 585699, "internal_node_id": "0.0-73.0"}}, {"uniqueid": "MTK0440:3C44YUNSI2W135QQ2V2PQ35W2RRDPN", "current_trial": 101, "dateTime": 1510875891748, "trialdata": {"rt": -1, "stimulus": "", "key_press": -1, "type": "PRE_RECALL_DELAY", "trial_type": "single-stim", "trial_index": 101, "time_elapsed": 586919, "internal_node_id": "0.0-74.0-0.0"}}, {"uniqueid": "MTK0440:3C44YUNSI2W135QQ2V2PQ35W2RRDPN", "current_trial": 102, "dateTime": 1510875892249, "trialdata": {"rt": -1000, "stimulus": "/static/audio/400Hz.wav", "key_press": -1, "type": "PRE_RECALL_ALERT", "trial_type": "single-audio", "trial_index": 102, "time_elapsed": 587420, "internal_node_id": "0.0-75.0"}}, {"uniqueid": "MTK0440:3C44YUNSI2W135QQ2V2PQ35W2RRDPN", "current_trial": 103, "dateTime": 1510875952257, "trialdata": {"rt": [4496, 5998, 7691, 9524, 11562, 18779], "recwords": ["piano", "mister", "panther", "crutch", "mammal", "missile"], "type": "FREE_RECALL", "conditions": [12, 1600, "a", 12000], "trial": 2, "trial_type": "free-recall", "trial_index": 103, "time_elapsed": 647426, "internal_node_id": "0.0-76.0-0.0"}}, {"uniqueid": "MTK0440:3C44YUNSI2W135QQ2V2PQ35W2RRDPN", "current_trial": 104, "dateTime": 1510875955121, "trialdata": {"rt": 862, "key_press": 32, "type": "INSTRUCTIONS", "trial_type": "text", "trial_index": 104, "time_elapsed": 650292, "internal_node_id": "0.0-77.0"}}, {"uniqueid": "MTK0440:3C44YUNSI2W135QQ2V2PQ35W2RRDPN", "current_trial": 105, "dateTime": 1510875981125, "trialdata": {"rt": [6882, 10046, 12041, 14039, 16242, 19030, 22476], "responses": ["16", "16", "7", "11", "16", "22", "17"], "num1": [4, 5, 1, 6, 4, 5, 6, 3], "num2": [6, 7, 3, 2, 6, 9, 5, 7], "num3": [8, 4, 3, 3, 6, 8, 6, 3], "type": "DISTRACTOR", "conditions": [24, 1600, "a", 24000], "trial": 3, "trial_type": "math-distractor", "trial_index": 105, "time_elapsed": 676295, "internal_node_id": "0.0-78.0"}}, {"uniqueid": "MTK0440:3C44YUNSI2W135QQ2V2PQ35W2RRDPN", "current_trial": 106, "dateTime": 1510875984126, "trialdata": {"rt": -1, "stimulus": "<p id=\"stim\">10</p>", "key_press": -1, "trial_type": "single-stim", "trial_index": 106, "time_elapsed": 679297, "internal_node_id": "0.0-79.0-0.0"}}, {"uniqueid": "MTK0440:3C44YUNSI2W135QQ2V2PQ35W2RRDPN", "current_trial": 107, "dateTime": 1510875985128, "trialdata": {"rt": -1, "stimulus": "<p id=\"stim\">9</p>", "key_press": -1, "trial_type": "single-stim", "trial_index": 107, "time_elapsed": 680299, "internal_node_id": "0.0-79.0-1.0"}}, {"uniqueid": "MTK0440:3C44YUNSI2W135QQ2V2PQ35W2RRDPN", "current_trial": 108, "dateTime": 1510875986130, "trialdata": {"rt": -1, "stimulus": "<p id=\"stim\">8</p>", "key_press": -1, "trial_type": "single-stim", "trial_index": 108, "time_elapsed": 681301, "internal_node_id": "0.0-79.0-2.0"}}, {"uniqueid": "MTK0440:3C44YUNSI2W135QQ2V2PQ35W2RRDPN", "current_trial": 109, "dateTime": 1510875987131, "trialdata": {"rt": -1, "stimulus": "<p id=\"stim\">7</p>", "key_press": -1, "trial_type": "single-stim", "trial_index": 109, "time_elapsed": 682302, "internal_node_id": "0.0-79.0-3.0"}}, {"uniqueid": "MTK0440:3C44YUNSI2W135QQ2V2PQ35W2RRDPN", "current_trial": 110, "dateTime": 1510875988132, "trialdata": {"rt": -1, "stimulus": "<p id=\"stim\">6</p>", "key_press": -1, "trial_type": "single-stim", "trial_index": 110, "time_elapsed": 683303, "internal_node_id": "0.0-79.0-4.0"}}, {"uniqueid": "MTK0440:3C44YUNSI2W135QQ2V2PQ35W2RRDPN", "current_trial": 111, "dateTime": 1510875989133, "trialdata": {"rt": -1, "stimulus": "<p id=\"stim\">5</p>", "key_press": -1, "trial_type": "single-stim", "trial_index": 111, "time_elapsed": 684304, "internal_node_id": "0.0-79.0-5.0"}}, {"uniqueid": "MTK0440:3C44YUNSI2W135QQ2V2PQ35W2RRDPN", "current_trial": 112, "dateTime": 1510875990135, "trialdata": {"rt": -1, "stimulus": "<p id=\"stim\">4</p>", "key_press": -1, "trial_type": "single-stim", "trial_index": 112, "time_elapsed": 685306, "internal_node_id": "0.0-79.0-6.0"}}, {"uniqueid": "MTK0440:3C44YUNSI2W135QQ2V2PQ35W2RRDPN", "current_trial": 113, "dateTime": 1510875991137, "trialdata": {"rt": -1, "stimulus": "<p id=\"stim\">3</p>", "key_press": -1, "trial_type": "single-stim", "trial_index": 113, "time_elapsed": 686308, "internal_node_id": "0.0-79.0-7.0"}}, {"uniqueid": "MTK0440:3C44YUNSI2W135QQ2V2PQ35W2RRDPN", "current_trial": 114, "dateTime": 1510875992138, "trialdata": {"rt": -1, "stimulus": "<p id=\"stim\">2</p>", "key_press": -1, "trial_type": "single-stim", "trial_index": 114, "time_elapsed": 687309, "internal_node_id": "0.0-79.0-8.0"}}, {"uniqueid": "MTK0440:3C44YUNSI2W135QQ2V2PQ35W2RRDPN", "current_trial": 115, "dateTime": 1510875993139, "trialdata": {"rt": -1, "stimulus": "<p id=\"stim\">1</p>", "key_press": -1, "trial_type": "single-stim", "trial_index": 115, "time_elapsed": 688310, "internal_node_id": "0.0-79.0-9.0"}}, {"uniqueid": "MTK0440:3C44YUNSI2W135QQ2V2PQ35W2RRDPN", "current_trial": 116, "dateTime": 1510875994643, "trialdata": {"rt": -1, "stimulus": "<p id=\"stim\">+</p>", "key_press": -1, "type": "FIXATION", "trial_type": "single-stim", "trial_index": 116, "time_elapsed": 689812, "internal_node_id": "0.0-80.0-0.0"}}, {"uniqueid": "MTK0440:3C44YUNSI2W135QQ2V2PQ35W2RRDPN", "current_trial": 117, "dateTime": 1510875997390, "trialdata": {"rt": -1000, "stimulus": "/static/audio/wordpool/HARP.wav", "key_press": -1, "type": "PRES_AUD", "word": "harp", "wordID": 688, "conditions": [24, 1600, "a", 24000], "trial": 3, "serialpos": 0, "trial_type": "single-audio", "trial_index": 117, "time_elapsed": 692561, "internal_node_id": "0.0-81.0"}}, {"uniqueid": "MTK0440:3C44YUNSI2W135QQ2V2PQ35W2RRDPN", "current_trial": 118, "dateTime": 1510876000123, "trialdata": {"rt": -1000, "stimulus": "/static/audio/wordpool/NURSE.wav", "key_press": -1, "type": "PRES_AUD", "word": "nurse", "wordID": 962, "conditions": [24, 1600, "a", 24000], "trial": 3, "serialpos": 1, "trial_type": "single-audio", "trial_index": 118, "time_elapsed": 695294, "internal_node_id": "0.0-82.0"}}, {"uniqueid": "MTK0440:3C44YUNSI2W135QQ2V2PQ35W2RRDPN", "current_trial": 119, "dateTime": 1510876002600, "trialdata": {"rt": -1000, "stimulus": "/static/audio/wordpool/HORNET.wav", "key_press": -1, "type": "PRES_AUD", "word": "hornet", "wordID": 717, "conditions": [24, 1600, "a", 24000], "trial": 3, "serialpos": 2, "trial_type": "single-audio", "trial_index": 119, "time_elapsed": 697771, "internal_node_id": "0.0-83.0"}}, {"uniqueid": "MTK0440:3C44YUNSI2W135QQ2V2PQ35W2RRDPN", "current_trial": 120, "dateTime": 1510876005219, "trialdata": {"rt": -1000, "stimulus": "/static/audio/wordpool/PARROT.wav", "key_press": -1, "type": "PRES_AUD", "word": "parrot", "wordID": 1014, "conditions": [24, 1600, "a", 24000], "trial": 3, "serialpos": 3, "trial_type": "single-audio", "trial_index": 120, "time_elapsed": 700390, "internal_node_id": "0.0-84.0"}}, {"uniqueid": "MTK0440:3C44YUNSI2W135QQ2V2PQ35W2RRDPN", "current_trial": 121, "dateTime": 1510876007863, "trialdata": {"rt": -1000, "stimulus": "/static/audio/wordpool/ZEBRA.wav", "key_press": -1, "type": "PRES_AUD", "word": "zebra", "wordID": 1634, "conditions": [24, 1600, "a", 24000], "trial": 3, "serialpos": 4, "trial_type": "single-audio", "trial_index": 121, "time_elapsed": 703034, "internal_node_id": "0.0-85.0"}}, {"uniqueid": "MTK0440:3C44YUNSI2W135QQ2V2PQ35W2RRDPN", "current_trial": 122, "dateTime": 1510876010395, "trialdata": {"rt": -1000, "stimulus": "/static/audio/wordpool/CATCHER.wav", "key_press": -1, "type": "PRES_AUD", "word": "catcher", "wordID": 257, "conditions": [24, 1600, "a", 24000], "trial": 3, "serialpos": 5, "trial_type": "single-audio", "trial_index": 122, "time_elapsed": 705566, "internal_node_id": "0.0-86.0"}}, {"uniqueid": "MTK0440:3C44YUNSI2W135QQ2V2PQ35W2RRDPN", "current_trial": 123, "dateTime": 1510876012839, "trialdata": {"rt": -1000, "stimulus": "/static/audio/wordpool/CRIB.wav", "key_press": -1, "type": "PRES_AUD", "word": "crib", "wordID": 406, "conditions": [24, 1600, "a", 24000], "trial": 3, "serialpos": 6, "trial_type": "single-audio", "trial_index": 123, "time_elapsed": 708010, "internal_node_id": "0.0-87.0"}}, {"uniqueid": "MTK0440:3C44YUNSI2W135QQ2V2PQ35W2RRDPN", "current_trial": 124, "dateTime": 1510876015488, "trialdata": {"rt": -1000, "stimulus": "/static/audio/wordpool/SCISSORS.wav", "key_press": -1, "type": "PRES_AUD", "word": "scissors", "wordID": 1249, "conditions": [24, 1600, "a", 24000], "trial": 3, "serialpos": 7, "trial_type": "single-audio", "trial_index": 124, "time_elapsed": 710659, "internal_node_id": "0.0-88.0"}}, {"uniqueid": "MTK0440:3C44YUNSI2W135QQ2V2PQ35W2RRDPN", "current_trial": 125, "dateTime": 1510876018238, "trialdata": {"rt": -1000, "stimulus": "/static/audio/wordpool/RAZOR.wav", "key_press": -1, "type": "PRES_AUD", "word": "razor", "wordID": 1170, "conditions": [24, 1600, "a", 24000], "trial": 3, "serialpos": 8, "trial_type": "single-audio", "trial_index": 125, "time_elapsed": 713409, "internal_node_id": "0.0-89.0"}}, {"uniqueid": "MTK0440:3C44YUNSI2W135QQ2V2PQ35W2RRDPN", "current_trial": 126, "dateTime": 1510876020965, "trialdata": {"rt": -1000, "stimulus": "/static/audio/wordpool/FIDDLE.wav", "key_press": -1, "type": "PRES_AUD", "word": "fiddle", "wordID": 560, "conditions": [24, 1600, "a", 24000], "trial": 3, "serialpos": 9, "trial_type": "single-audio", "trial_index": 126, "time_elapsed": 716136, "internal_node_id": "0.0-90.0"}}, {"uniqueid": "MTK0440:3C44YUNSI2W135QQ2V2PQ35W2RRDPN", "current_trial": 127, "dateTime": 1510876023443, "trialdata": {"rt": -1000, "stimulus": "/static/audio/wordpool/INMATE.wav", "key_press": -1, "type": "PRES_AUD", "word": "inmate", "wordID": 737, "conditions": [24, 1600, "a", 24000], "trial": 3, "serialpos": 10, "trial_type": "single-audio", "trial_index": 127, "time_elapsed": 718614, "internal_node_id": "0.0-91.0"}}, {"uniqueid": "MTK0440:3C44YUNSI2W135QQ2V2PQ35W2RRDPN", "current_trial": 128, "dateTime": 1510876026104, "trialdata": {"rt": -1000, "stimulus": "/static/audio/wordpool/BABY.wav", "key_press": -1, "type": "PRES_AUD", "word": "baby", "wordID": 63, "conditions": [24, 1600, "a", 24000], "trial": 3, "serialpos": 11, "trial_type": "single-audio", "trial_index": 128, "time_elapsed": 721274, "internal_node_id": "0.0-92.0"}}, {"uniqueid": "MTK0440:3C44YUNSI2W135QQ2V2PQ35W2RRDPN", "current_trial": 129, "dateTime": 1510876028532, "trialdata": {"rt": -1000, "stimulus": "/static/audio/wordpool/POLICE.wav", "key_press": -1, "type": "PRES_AUD", "word": "police", "wordID": 1097, "conditions": [24, 1600, "a", 24000], "trial": 3, "serialpos": 12, "trial_type": "single-audio", "trial_index": 129, "time_elapsed": 723703, "internal_node_id": "0.0-93.0"}}, {"uniqueid": "MTK0440:3C44YUNSI2W135QQ2V2PQ35W2RRDPN", "current_trial": 130, "dateTime": 1510876031151, "trialdata": {"rt": -1000, "stimulus": "/static/audio/wordpool/TURNIP.wav", "key_press": -1, "type": "PRES_AUD", "word": "turnip", "wordID": 1520, "conditions": [24, 1600, "a", 24000], "trial": 3, "serialpos": 13, "trial_type": "single-audio", "trial_index": 130, "time_elapsed": 726321, "internal_node_id": "0.0-94.0"}}, {"uniqueid": "MTK0440:3C44YUNSI2W135QQ2V2PQ35W2RRDPN", "current_trial": 131, "dateTime": 1510876033770, "trialdata": {"rt": -1000, "stimulus": "/static/audio/wordpool/COUSIN.wav", "key_press": -1, "type": "PRES_AUD", "word": "cousin", "wordID": 391, "conditions": [24, 1600, "a", 24000], "trial": 3, "serialpos": 14, "trial_type": "single-audio", "trial_index": 131, "time_elapsed": 728940, "internal_node_id": "0.0-95.0"}}, {"uniqueid": "MTK0440:3C44YUNSI2W135QQ2V2PQ35W2RRDPN", "current_trial": 132, "dateTime": 1510876036492, "trialdata": {"rt": -1000, "stimulus": "/static/audio/wordpool/BROTHER.wav", "key_press": -1, "type": "PRES_AUD", "word": "brother", "wordID": 178, "conditions": [24, 1600, "a", 24000], "trial": 3, "serialpos": 15, "trial_type": "single-audio", "trial_index": 132, "time_elapsed": 731663, "internal_node_id": "0.0-96.0"}}, {"uniqueid": "MTK0440:3C44YUNSI2W135QQ2V2PQ35W2RRDPN", "current_trial": 133, "dateTime": 1510876039291, "trialdata": {"rt": -1000, "stimulus": "/static/audio/wordpool/CASHIER.wav", "key_press": -1, "type": "PRES_AUD", "word": "cashier", "wordID": 253, "conditions": [24, 1600, "a", 24000], "trial": 3, "serialpos": 16, "trial_type": "single-audio", "trial_index": 133, "time_elapsed": 734462, "internal_node_id": "0.0-97.0"}}, {"uniqueid": "MTK0440:3C44YUNSI2W135QQ2V2PQ35W2RRDPN", "current_trial": 134, "dateTime": 1510876041864, "trialdata": {"rt": -1000, "stimulus": "/static/audio/wordpool/PATROL.wav", "key_press": -1, "type": "PRES_AUD", "word": "patrol", "wordID": 1026, "conditions": [24, 1600, "a", 24000], "trial": 3, "serialpos": 17, "trial_type": "single-audio", "trial_index": 134, "time_elapsed": 737034, "internal_node_id": "0.0-98.0"}}, {"uniqueid": "MTK0440:3C44YUNSI2W135QQ2V2PQ35W2RRDPN", "current_trial": 135, "dateTime": 1510876044438, "trialdata": {"rt": -1000, "stimulus": "/static/audio/wordpool/ACTRESS.wav", "key_press": -1, "type": "PRES_AUD", "word": "actress", "wordID": 5, "conditions": [24, 1600, "a", 24000], "trial": 3, "serialpos": 18, "trial_type": "single-audio", "trial_index": 135, "time_elapsed": 739609, "internal_node_id": "0.0-99.0"}}, {"uniqueid": "MTK0440:3C44YUNSI2W135QQ2V2PQ35W2RRDPN", "current_trial": 136, "dateTime": 1510876046995, "trialdata": {"rt": -1000, "stimulus": "/static/audio/wordpool/HANDBAG.wav", "key_press": -1, "type": "PRES_AUD", "word": "handbag", "wordID": 683, "conditions": [24, 1600, "a", 24000], "trial": 3, "serialpos": 19, "trial_type": "single-audio", "trial_index": 136, "time_elapsed": 742166, "internal_node_id": "0.0-100.0"}}, {"uniqueid": "MTK0440:3C44YUNSI2W135QQ2V2PQ35W2RRDPN", "current_trial": 137, "dateTime": 1510876049631, "trialdata": {"rt": -1000, "stimulus": "/static/audio/wordpool/TROMBONE.wav", "key_press": -1, "type": "PRES_AUD", "word": "trombone", "wordID": 1507, "conditions": [24, 1600, "a", 24000], "trial": 3, "serialpos": 20, "trial_type": "single-audio", "trial_index": 137, "time_elapsed": 744801, "internal_node_id": "0.0-101.0"}}, {"uniqueid": "MTK0440:3C44YUNSI2W135QQ2V2PQ35W2RRDPN", "current_trial": 138, "dateTime": 1510876052353, "trialdata": {"rt": -1000, "stimulus": "/static/audio/wordpool/BUGGY.wav", "key_press": -1, "type": "PRES_AUD", "word": "buggy", "wordID": 187, "conditions": [24, 1600, "a", 24000], "trial": 3, "serialpos": 21, "trial_type": "single-audio", "trial_index": 138, "time_elapsed": 747524, "internal_node_id": "0.0-102.0"}}, {"uniqueid": "MTK0440:3C44YUNSI2W135QQ2V2PQ35W2RRDPN", "current_trial": 139, "dateTime": 1510876055108, "trialdata": {"rt": -1000, "stimulus": "/static/audio/wordpool/GARLIC.wav", "key_press": -1, "type": "PRES_AUD", "word": "garlic", "wordID": 623, "conditions": [24, 1600, "a", 24000], "trial": 3, "serialpos": 22, "trial_type": "single-audio", "trial_index": 139, "time_elapsed": 750279, "internal_node_id": "0.0-103.0"}}, {"uniqueid": "MTK0440:3C44YUNSI2W135QQ2V2PQ35W2RRDPN", "current_trial": 140, "dateTime": 1510876057841, "trialdata": {"rt": -1000, "stimulus": "/static/audio/wordpool/SERVANT.wav", "key_press": -1, "type": "PRES_AUD", "word": "servant", "wordID": 1270, "conditions": [24, 1600, "a", 24000], "trial": 3, "serialpos": 23, "trial_type": "single-audio", "trial_index": 140, "time_elapsed": 753012, "internal_node_id": "0.0-104.0"}}, {"uniqueid": "MTK0440:3C44YUNSI2W135QQ2V2PQ35W2RRDPN", "current_trial": 141, "dateTime": 1510876059231, "trialdata": {"rt": -1, "stimulus": "", "key_press": -1, "type": "PRE_RECALL_DELAY", "trial_type": "single-stim", "trial_index": 141, "time_elapsed": 754402, "internal_node_id": "0.0-105.0-0.0"}}, {"uniqueid": "MTK0440:3C44YUNSI2W135QQ2V2PQ35W2RRDPN", "current_trial": 142, "dateTime": 1510876059738, "trialdata": {"rt": -1000, "stimulus": "/static/audio/400Hz.wav", "key_press": -1, "type": "PRE_RECALL_ALERT", "trial_type": "single-audio", "trial_index": 142, "time_elapsed": 754909, "internal_node_id": "0.0-106.0"}}, {"uniqueid": "MTK0440:3C44YUNSI2W135QQ2V2PQ35W2RRDPN", "current_trial": 143, "dateTime": 1510876119743, "trialdata": {"rt": [2351, 4445, 7611, 9802, 13000, 16216, 18179, 20589, 49877], "recwords": ["garlic", "servant", "patrol", "buggy", "actress", "baby", "inmate", "hornet", "nurse"], "type": "FREE_RECALL", "conditions": [24, 1600, "a", 24000], "trial": 3, "trial_type": "free-recall", "trial_index": 143, "time_elapsed": 814911, "internal_node_id": "0.0-107.0-0.0"}}, {"uniqueid": "MTK0440:3C44YUNSI2W135QQ2V2PQ35W2RRDPN", "current_trial": 144, "dateTime": 1510876122678, "trialdata": {"rt": 934, "key_press": 32, "type": "INSTRUCTIONS", "trial_type": "text", "trial_index": 144, "time_elapsed": 817849, "internal_node_id": "0.0-108.0"}}, {"uniqueid": "MTK0440:3C44YUNSI2W135QQ2V2PQ35W2RRDPN", "current_trial": 145, "dateTime": 1510876148682, "trialdata": {"rt": [3163, 6138, 10070, 13278, 14883, 17150, 19825, 23028], "responses": ["19", "20", "15", "21", "11", "14", "10", "18"], "num1": [3, 4, 4, 8, 1, 3, 2, 7, 4], "num2": [8, 7, 3, 9, 5, 8, 6, 2, 7], "num3": [8, 9, 8, 4, 5, 3, 2, 9, 8], "type": "DISTRACTOR", "conditions": [24, 1600, "v", 24000], "trial": 4, "trial_type": "math-distractor", "trial_index": 145, "time_elapsed": 843853, "internal_node_id": "0.0-109.0"}}, {"uniqueid": "MTK0440:3C44YUNSI2W135QQ2V2PQ35W2RRDPN", "current_trial": 146, "dateTime": 1510876151684, "trialdata": {"rt": -1, "stimulus": "<p id=\"stim\">10</p>", "key_press": -1, "trial_type": "single-stim", "trial_index": 146, "time_elapsed": 846855, "internal_node_id": "0.0-110.0-0.0"}}, {"uniqueid": "MTK0440:3C44YUNSI2W135QQ2V2PQ35W2RRDPN", "current_trial": 147, "dateTime": 1510876152687, "trialdata": {"rt": -1, "stimulus": "<p id=\"stim\">9</p>", "key_press": -1, "trial_type": "single-stim", "trial_index": 147, "time_elapsed": 847858, "internal_node_id": "0.0-110.0-1.0"}}, {"uniqueid": "MTK0440:3C44YUNSI2W135QQ2V2PQ35W2RRDPN", "current_trial": 148, "dateTime": 1510876153688, "trialdata": {"rt": -1, "stimulus": "<p id=\"stim\">8</p>", "key_press": -1, "trial_type": "single-stim", "trial_index": 148, "time_elapsed": 848859, "internal_node_id": "0.0-110.0-2.0"}}, {"uniqueid": "MTK0440:3C44YUNSI2W135QQ2V2PQ35W2RRDPN", "current_trial": 149, "dateTime": 1510876154690, "trialdata": {"rt": -1, "stimulus": "<p id=\"stim\">7</p>", "key_press": -1, "trial_type": "single-stim", "trial_index": 149, "time_elapsed": 849861, "internal_node_id": "0.0-110.0-3.0"}}, {"uniqueid": "MTK0440:3C44YUNSI2W135QQ2V2PQ35W2RRDPN", "current_trial": 150, "dateTime": 1510876155692, "trialdata": {"rt": -1, "stimulus": "<p id=\"stim\">6</p>", "key_press": -1, "trial_type": "single-stim", "trial_index": 150, "time_elapsed": 850863, "internal_node_id": "0.0-110.0-4.0"}}, {"uniqueid": "MTK0440:3C44YUNSI2W135QQ2V2PQ35W2RRDPN", "current_trial": 151, "dateTime": 1510876156693, "trialdata": {"rt": -1, "stimulus": "<p id=\"stim\">5</p>", "key_press": -1, "trial_type": "single-stim", "trial_index": 151, "time_elapsed": 851863, "internal_node_id": "0.0-110.0-5.0"}}, {"uniqueid": "MTK0440:3C44YUNSI2W135QQ2V2PQ35W2RRDPN", "current_trial": 152, "dateTime": 1510876157694, "trialdata": {"rt": -1, "stimulus": "<p id=\"stim\">4</p>", "key_press": -1, "trial_type": "single-stim", "trial_index": 152, "time_elapsed": 852865, "internal_node_id": "0.0-110.0-6.0"}}, {"uniqueid": "MTK0440:3C44YUNSI2W135QQ2V2PQ35W2RRDPN", "current_trial": 153, "dateTime": 1510876158695, "trialdata": {"rt": -1, "stimulus": "<p id=\"stim\">3</p>", "key_press": -1, "trial_type": "single-stim", "trial_index": 153, "time_elapsed": 853866, "internal_node_id": "0.0-110.0-7.0"}}, {"uniqueid": "MTK0440:3C44YUNSI2W135QQ2V2PQ35W2RRDPN", "current_trial": 154, "dateTime": 1510876159695, "trialdata": {"rt": -1, "stimulus": "<p id=\"stim\">2</p>", "key_press": -1, "trial_type": "single-stim", "trial_index": 154, "time_elapsed": 854866, "internal_node_id": "0.0-110.0-8.0"}}, {"uniqueid": "MTK0440:3C44YUNSI2W135QQ2V2PQ35W2RRDPN", "current_trial": 155, "dateTime": 1510876160696, "trialdata": {"rt": -1, "stimulus": "<p id=\"stim\">1</p>", "key_press": -1, "trial_type": "single-stim", "trial_index": 155, "time_elapsed": 855867, "internal_node_id": "0.0-110.0-9.0"}}, {"uniqueid": "MTK0440:3C44YUNSI2W135QQ2V2PQ35W2RRDPN", "current_trial": 156, "dateTime": 1510876162198, "trialdata": {"rt": -1, "stimulus": "<p id=\"stim\">+</p>", "key_press": -1, "type": "FIXATION", "trial_type": "single-stim", "trial_index": 156, "time_elapsed": 857369, "internal_node_id": "0.0-111.0-0.0"}}, {"uniqueid": "MTK0440:3C44YUNSI2W135QQ2V2PQ35W2RRDPN", "current_trial": 157, "dateTime": 1510876163799, "trialdata": {"rt": -1, "stimulus": "<p id=\"stim\">WINDOW</p>", "key_press": -1, "type": "PRES_VIS", "word": "window", "wordID": 1610, "conditions": [24, 1600, "v", 24000], "trial": 4, "serialpos": 0, "trial_type": "single-stim", "trial_index": 157, "time_elapsed": 858970, "internal_node_id": "0.0-112.0"}}, {"uniqueid": "MTK0440:3C44YUNSI2W135QQ2V2PQ35W2RRDPN", "current_trial": 158, "dateTime": 1510876166312, "trialdata": {"rt": -1, "stimulus": "<p id=\"stim\">LONDON</p>", "key_press": -1, "type": "PRES_VIS", "word": "london", "wordID": 842, "conditions": [24, 1600, "v", 24000], "trial": 4, "serialpos": 1, "trial_type": "single-stim", "trial_index": 158, "time_elapsed": 861483, "internal_node_id": "0.0-113.0"}}, {"uniqueid": "MTK0440:3C44YUNSI2W135QQ2V2PQ35W2RRDPN", "current_trial": 159, "dateTime": 1510876168772, "trialdata": {"rt": -1, "stimulus": "<p id=\"stim\">LILY</p>", "key_press": -1, "type": "PRES_VIS", "word": "lily", "wordID": 820, "conditions": [24, 1600, "v", 24000], "trial": 4, "serialpos": 2, "trial_type": "single-stim", "trial_index": 159, "time_elapsed": 863943, "internal_node_id": "0.0-114.0"}}, {"uniqueid": "MTK0440:3C44YUNSI2W135QQ2V2PQ35W2RRDPN", "current_trial": 160, "dateTime": 1510876171415, "trialdata": {"rt": -1, "stimulus": "<p id=\"stim\">ORCHID</p>", "key_press": -1, "type": "PRES_VIS", "word": "orchid", "wordID": 981, "conditions": [24, 1600, "v", 24000], "trial": 4, "serialpos": 3, "trial_type": "single-stim", "trial_index": 160, "time_elapsed": 866586, "internal_node_id": "0.0-115.0"}}, {"uniqueid": "MTK0440:3C44YUNSI2W135QQ2V2PQ35W2RRDPN", "current_trial": 161, "dateTime": 1510876173845, "trialdata": {"rt": -1, "stimulus": "<p id=\"stim\">TERMITE</p>", "key_press": -1, "type": "PRES_VIS", "word": "termite", "wordID": 1450, "conditions": [24, 1600, "v", 24000], "trial": 4, "serialpos": 4, "trial_type": "single-stim", "trial_index": 161, "time_elapsed": 869016, "internal_node_id": "0.0-116.0"}}, {"uniqueid": "MTK0440:3C44YUNSI2W135QQ2V2PQ35W2RRDPN", "current_trial": 162, "dateTime": 1510876176251, "trialdata": {"rt": -1, "stimulus": "<p id=\"stim\">HEART</p>", "key_press": -1, "type": "PRES_VIS", "word": "heart", "wordID": 696, "conditions": [24, 1600, "v", 24000], "trial": 4, "serialpos": 5, "trial_type": "single-stim", "trial_index": 162, "time_elapsed": 871422, "internal_node_id": "0.0-117.0"}}, {"uniqueid": "MTK0440:3C44YUNSI2W135QQ2V2PQ35W2RRDPN", "current_trial": 163, "dateTime": 1510876178793, "trialdata": {"rt": -1, "stimulus": "<p id=\"stim\">PARSLEY</p>", "key_press": -1, "type": "PRES_VIS", "word": "parsley", "wordID": 1015, "conditions": [24, 1600, "v", 24000], "trial": 4, "serialpos": 6, "trial_type": "single-stim", "trial_index": 163, "time_elapsed": 873964, "internal_node_id": "0.0-118.0"}}, {"uniqueid": "MTK0440:3C44YUNSI2W135QQ2V2PQ35W2RRDPN", "current_trial": 164, "dateTime": 1510876181335, "trialdata": {"rt": -1, "stimulus": "<p id=\"stim\">FRANCE</p>", "key_press": -1, "type": "PRES_VIS", "word": "france", "wordID": 600, "conditions": [24, 1600, "v", 24000], "trial": 4, "serialpos": 7, "trial_type": "single-stim", "trial_index": 164, "time_elapsed": 876506, "internal_node_id": "0.0-119.0"}}, {"uniqueid": "MTK0440:3C44YUNSI2W135QQ2V2PQ35W2RRDPN", "current_trial": 165, "dateTime": 1510876183829, "trialdata": {"rt": -1, "stimulus": "<p id=\"stim\">PIMPLE</p>", "key_press": -1, "type": "PRES_VIS", "word": "pimple", "wordID": 1070, "conditions": [24, 1600, "v", 24000], "trial": 4, "serialpos": 8, "trial_type": "single-stim", "trial_index": 165, "time_elapsed": 879000, "internal_node_id": "0.0-120.0"}}, {"uniqueid": "MTK0440:3C44YUNSI2W135QQ2V2PQ35W2RRDPN", "current_trial": 166, "dateTime": 1510876186378, "trialdata": {"rt": -1, "stimulus": "<p id=\"stim\">LOVER</p>", "key_press": -1, "type": "PRES_VIS", "word": "lover", "wordID": 845, "conditions": [24, 1600, "v", 24000], "trial": 4, "serialpos": 9, "trial_type": "single-stim", "trial_index": 166, "time_elapsed": 881549, "internal_node_id": "0.0-121.0"}}, {"uniqueid": "MTK0440:3C44YUNSI2W135QQ2V2PQ35W2RRDPN", "current_trial": 167, "dateTime": 1510876188977, "trialdata": {"rt": -1, "stimulus": "<p id=\"stim\">HOUND</p>", "key_press": -1, "type": "PRES_VIS", "word": "hound", "wordID": 723, "conditions": [24, 1600, "v", 24000], "trial": 4, "serialpos": 10, "trial_type": "single-stim", "trial_index": 167, "time_elapsed": 884148, "internal_node_id": "0.0-122.0"}}, {"uniqueid": "MTK0440:3C44YUNSI2W135QQ2V2PQ35W2RRDPN", "current_trial": 168, "dateTime": 1510876191409, "trialdata": {"rt": -1, "stimulus": "<p id=\"stim\">ICING</p>", "key_press": -1, "type": "PRES_VIS", "word": "icing", "wordID": 731, "conditions": [24, 1600, "v", 24000], "trial": 4, "serialpos": 11, "trial_type": "single-stim", "trial_index": 168, "time_elapsed": 886580, "internal_node_id": "0.0-123.0"}}, {"uniqueid": "MTK0440:3C44YUNSI2W135QQ2V2PQ35W2RRDPN", "current_trial": 169, "dateTime": 1510876194030, "trialdata": {"rt": -1, "stimulus": "<p id=\"stim\">TEACHER</p>", "key_press": -1, "type": "PRES_VIS", "word": "teacher", "wordID": 1439, "conditions": [24, 1600, "v", 24000], "trial": 4, "serialpos": 12, "trial_type": "single-stim", "trial_index": 169, "time_elapsed": 889201, "internal_node_id": "0.0-124.0"}}, {"uniqueid": "MTK0440:3C44YUNSI2W135QQ2V2PQ35W2RRDPN", "current_trial": 170, "dateTime": 1510876196672, "trialdata": {"rt": -1, "stimulus": "<p id=\"stim\">ANTLER</p>", "key_press": -1, "type": "PRES_VIS", "word": "antler", "wordID": 28, "conditions": [24, 1600, "v", 24000], "trial": 4, "serialpos": 13, "trial_type": "single-stim", "trial_index": 170, "time_elapsed": 891843, "internal_node_id": "0.0-125.0"}}, {"uniqueid": "MTK0440:3C44YUNSI2W135QQ2V2PQ35W2RRDPN", "current_trial": 171, "dateTime": 1510876199134, "trialdata": {"rt": -1, "stimulus": "<p id=\"stim\">GLOBE</p>", "key_press": -1, "type": "PRES_VIS", "word": "globe", "wordID": 640, "conditions": [24, 1600, "v", 24000], "trial": 4, "serialpos": 14, "trial_type": "single-stim", "trial_index": 171, "time_elapsed": 894305, "internal_node_id": "0.0-126.0"}}, {"uniqueid": "MTK0440:3C44YUNSI2W135QQ2V2PQ35W2RRDPN", "current_trial": 172, "dateTime": 1510876201836, "trialdata": {"rt": -1, "stimulus": "<p id=\"stim\">POET</p>", "key_press": -1, "type": "PRES_VIS", "word": "poet", "wordID": 1094, "conditions": [24, 1600, "v", 24000], "trial": 4, "serialpos": 15, "trial_type": "single-stim", "trial_index": 172, "time_elapsed": 897007, "internal_node_id": "0.0-127.0"}}, {"uniqueid": "MTK0440:3C44YUNSI2W135QQ2V2PQ35W2RRDPN", "current_trial": 173, "dateTime": 1510876204453, "trialdata": {"rt": -1, "stimulus": "<p id=\"stim\">GROUND</p>", "key_press": -1, "type": "PRES_VIS", "word": "ground", "wordID": 665, "conditions": [24, 1600, "v", 24000], "trial": 4, "serialpos": 16, "trial_type": "single-stim", "trial_index": 173, "time_elapsed": 899624, "internal_node_id": "0.0-128.0"}}, {"uniqueid": "MTK0440:3C44YUNSI2W135QQ2V2PQ35W2RRDPN", "current_trial": 174, "dateTime": 1510876207092, "trialdata": {"rt": -1, "stimulus": "<p id=\"stim\">LEG</p>", "key_press": -1, "type": "PRES_VIS", "word": "leg", "wordID": 808, "conditions": [24, 1600, "v", 24000], "trial": 4, "serialpos": 17, "trial_type": "single-stim", "trial_index": 174, "time_elapsed": 902263, "internal_node_id": "0.0-129.0"}}, {"uniqueid": "MTK0440:3C44YUNSI2W135QQ2V2PQ35W2RRDPN", "current_trial": 175, "dateTime": 1510876209543, "trialdata": {"rt": -1, "stimulus": "<p id=\"stim\">SADDLE</p>", "key_press": -1, "type": "PRES_VIS", "word": "saddle", "wordID": 1220, "conditions": [24, 1600, "v", 24000], "trial": 4, "serialpos": 18, "trial_type": "single-stim", "trial_index": 175, "time_elapsed": 904714, "internal_node_id": "0.0-130.0"}}, {"uniqueid": "MTK0440:3C44YUNSI2W135QQ2V2PQ35W2RRDPN", "current_trial": 176, "dateTime": 1510876212000, "trialdata": {"rt": -1, "stimulus": "<p id=\"stim\">SKILLET</p>", "key_press": -1, "type": "PRES_VIS", "word": "skillet", "wordID": 1316, "conditions": [24, 1600, "v", 24000], "trial": 4, "serialpos": 19, "trial_type": "single-stim", "trial_index": 176, "time_elapsed": 907171, "internal_node_id": "0.0-131.0"}}, {"uniqueid": "MTK0440:3C44YUNSI2W135QQ2V2PQ35W2RRDPN", "current_trial": 177, "dateTime": 1510876214647, "trialdata": {"rt": -1, "stimulus": "<p id=\"stim\">SPOON</p>", "key_press": -1, "type": "PRES_VIS", "word": "spoon", "wordID": 1356, "conditions": [24, 1600, "v", 24000], "trial": 4, "serialpos": 20, "trial_type": "single-stim", "trial_index": 177, "time_elapsed": 909818, "internal_node_id": "0.0-132.0"}}, {"uniqueid": "MTK0440:3C44YUNSI2W135QQ2V2PQ35W2RRDPN", "current_trial": 178, "dateTime": 1510876217360, "trialdata": {"rt": -1, "stimulus": "<p id=\"stim\">BIKE</p>", "key_press": -1, "type": "PRES_VIS", "word": "bike", "wordID": 124, "conditions": [24, 1600, "v", 24000], "trial": 4, "serialpos": 21, "trial_type": "single-stim", "trial_index": 178, "time_elapsed": 912531, "internal_node_id": "0.0-133.0"}}, {"uniqueid": "MTK0440:3C44YUNSI2W135QQ2V2PQ35W2RRDPN", "current_trial": 179, "dateTime": 1510876220004, "trialdata": {"rt": -1, "stimulus": "<p id=\"stim\">STONE</p>", "key_press": -1, "type": "PRES_VIS", "word": "stone", "wordID": 1384, "conditions": [24, 1600, "v", 24000], "trial": 4, "serialpos": 22, "trial_type": "single-stim", "trial_index": 179, "time_elapsed": 915175, "internal_node_id": "0.0-134.0"}}, {"uniqueid": "MTK0440:3C44YUNSI2W135QQ2V2PQ35W2RRDPN", "current_trial": 180, "dateTime": 1510876222694, "trialdata": {"rt": -1, "stimulus": "<p id=\"stim\">WORLD</p>", "key_press": -1, "type": "PRES_VIS", "word": "world", "wordID": 1621, "conditions": [24, 1600, "v", 24000], "trial": 4, "serialpos": 23, "trial_type": "single-stim", "trial_index": 180, "time_elapsed": 917865, "internal_node_id": "0.0-135.0"}}, {"uniqueid": "MTK0440:3C44YUNSI2W135QQ2V2PQ35W2RRDPN", "current_trial": 181, "dateTime": 1510876224913, "trialdata": {"rt": -1, "stimulus": "", "key_press": -1, "type": "PRE_RECALL_DELAY", "trial_type": "single-stim", "trial_index": 181, "time_elapsed": 920084, "internal_node_id": "0.0-136.0-0.0"}}, {"uniqueid": "MTK0440:3C44YUNSI2W135QQ2V2PQ35W2RRDPN", "current_trial": 182, "dateTime": 1510876225416, "trialdata": {"rt": -1000, "stimulus": "/static/audio/400Hz.wav", "key_press": -1, "type": "PRE_RECALL_ALERT", "trial_type": "single-audio", "trial_index": 182, "time_elapsed": 920587, "internal_node_id": "0.0-137.0"}}, {"uniqueid": "MTK0440:3C44YUNSI2W135QQ2V2PQ35W2RRDPN", "current_trial": 183, "dateTime": 1510876285423, "trialdata": {"rt": [1759, 4692, 6865, 8423, 15150, 17784, 19350], "recwords": ["world", "stone", "london", "window", "orchid", "turnip", "heart"], "type": "FREE_RECALL", "conditions": [24, 1600, "v", 24000], "trial": 4, "trial_type": "free-recall", "trial_index": 183, "time_elapsed": 980589, "internal_node_id": "0.0-138.0-0.0"}}, {"uniqueid": "MTK0440:3C44YUNSI2W135QQ2V2PQ35W2RRDPN", "current_trial": 184, "dateTime": 1510876288763, "trialdata": {"rt": 1338, "key_press": 32, "type": "INSTRUCTIONS", "trial_type": "text", "trial_index": 184, "time_elapsed": 983934, "internal_node_id": "0.0-139.0"}}, {"uniqueid": "MTK0440:3C44YUNSI2W135QQ2V2PQ35W2RRDPN", "current_trial": 185, "dateTime": 1510876302767, "trialdata": {"rt": [3963, 6128, 9814], "responses": ["17", "12", "20"], "num1": [2, 2, 5, 1], "num2": [6, 3, 9, 2], "num3": [9, 7, 6, 7], "type": "DISTRACTOR", "conditions": [24, 800, "v", 12000], "trial": 5, "trial_type": "math-distractor", "trial_index": 185, "time_elapsed": 997938, "internal_node_id": "0.0-140.0"}}, {"uniqueid": "MTK0440:3C44YUNSI2W135QQ2V2PQ35W2RRDPN", "current_trial": 186, "dateTime": 1510876305768, "trialdata": {"rt": -1, "stimulus": "<p id=\"stim\">10</p>", "key_press": -1, "trial_type": "single-stim", "trial_index": 186, "time_elapsed": 1000939, "internal_node_id": "0.0-141.0-0.0"}}, {"uniqueid": "MTK0440:3C44YUNSI2W135QQ2V2PQ35W2RRDPN", "current_trial": 187, "dateTime": 1510876306769, "trialdata": {"rt": -1, "stimulus": "<p id=\"stim\">9</p>", "key_press": -1, "trial_type": "single-stim", "trial_index": 187, "time_elapsed": 1001940, "internal_node_id": "0.0-141.0-1.0"}}, {"uniqueid": "MTK0440:3C44YUNSI2W135QQ2V2PQ35W2RRDPN", "current_trial": 188, "dateTime": 1510876307771, "trialdata": {"rt": -1, "stimulus": "<p id=\"stim\">8</p>", "key_press": -1, "trial_type": "single-stim", "trial_index": 188, "time_elapsed": 1002942, "internal_node_id": "0.0-141.0-2.0"}}, {"uniqueid": "MTK0440:3C44YUNSI2W135QQ2V2PQ35W2RRDPN", "current_trial": 189, "dateTime": 1510876308772, "trialdata": {"rt": -1, "stimulus": "<p id=\"stim\">7</p>", "key_press": -1, "trial_type": "single-stim", "trial_index": 189, "time_elapsed": 1003943, "internal_node_id": "0.0-141.0-3.0"}}, {"uniqueid": "MTK0440:3C44YUNSI2W135QQ2V2PQ35W2RRDPN", "current_trial": 190, "dateTime": 1510876309773, "trialdata": {"rt": -1, "stimulus": "<p id=\"stim\">6</p>", "key_press": -1, "trial_type": "single-stim", "trial_index": 190, "time_elapsed": 1004944, "internal_node_id": "0.0-141.0-4.0"}}, {"uniqueid": "MTK0440:3C44YUNSI2W135QQ2V2PQ35W2RRDPN", "current_trial": 191, "dateTime": 1510876310775, "trialdata": {"rt": -1, "stimulus": "<p id=\"stim\">5</p>", "key_press": -1, "trial_type": "single-stim", "trial_index": 191, "time_elapsed": 1005946, "internal_node_id": "0.0-141.0-5.0"}}, {"uniqueid": "MTK0440:3C44YUNSI2W135QQ2V2PQ35W2RRDPN", "current_trial": 192, "dateTime": 1510876311776, "trialdata": {"rt": -1, "stimulus": "<p id=\"stim\">4</p>", "key_press": -1, "trial_type": "single-stim", "trial_index": 192, "time_elapsed": 1006947, "internal_node_id": "0.0-141.0-6.0"}}, {"uniqueid": "MTK0440:3C44YUNSI2W135QQ2V2PQ35W2RRDPN", "current_trial": 193, "dateTime": 1510876312778, "trialdata": {"rt": -1, "stimulus": "<p id=\"stim\">3</p>", "key_press": -1, "trial_type": "single-stim", "trial_index": 193, "time_elapsed": 1007949, "internal_node_id": "0.0-141.0-7.0"}}, {"uniqueid": "MTK0440:3C44YUNSI2W135QQ2V2PQ35W2RRDPN", "current_trial": 194, "dateTime": 1510876313779, "trialdata": {"rt": -1, "stimulus": "<p id=\"stim\">2</p>", "key_press": -1, "trial_type": "single-stim", "trial_index": 194, "time_elapsed": 1008950, "internal_node_id": "0.0-141.0-8.0"}}, {"uniqueid": "MTK0440:3C44YUNSI2W135QQ2V2PQ35W2RRDPN", "current_trial": 195, "dateTime": 1510876314780, "trialdata": {"rt": -1, "stimulus": "<p id=\"stim\">1</p>", "key_press": -1, "trial_type": "single-stim", "trial_index": 195, "time_elapsed": 1009951, "internal_node_id": "0.0-141.0-9.0"}}, {"uniqueid": "MTK0440:3C44YUNSI2W135QQ2V2PQ35W2RRDPN", "current_trial": 196, "dateTime": 1510876316281, "trialdata": {"rt": -1, "stimulus": "<p id=\"stim\">+</p>", "key_press": -1, "type": "FIXATION", "trial_type": "single-stim", "trial_index": 196, "time_elapsed": 1011452, "internal_node_id": "0.0-142.0-0.0"}}, {"uniqueid": "MTK0440:3C44YUNSI2W135QQ2V2PQ35W2RRDPN", "current_trial": 197, "dateTime": 1510876317082, "trialdata": {"rt": -1, "stimulus": "<p id=\"stim\">LETTUCE</p>", "key_press": -1, "type": "PRES_VIS", "word": "lettuce", "wordID": 813, "conditions": [24, 800, "v", 12000], "trial": 5, "serialpos": 0, "trial_type": "single-stim", "trial_index": 197, "time_elapsed": 1012253, "internal_node_id": "0.0-143.0"}}, {"uniqueid": "MTK0440:3C44YUNSI2W135QQ2V2PQ35W2RRDPN", "current_trial": 198, "dateTime": 1510876319022, "trialdata": {"rt": -1, "stimulus": "<p id=\"stim\">BOX</p>", "key_press": -1, "type": "PRES_VIS", "word": "box", "wordID": 158, "conditions": [24, 800, "v", 12000], "trial": 5, "serialpos": 1, "trial_type": "single-stim", "trial_index": 198, "time_elapsed": 1014193, "internal_node_id": "0.0-144.0"}}, {"uniqueid": "MTK0440:3C44YUNSI2W135QQ2V2PQ35W2RRDPN", "current_trial": 199, "dateTime": 1510876320877, "trialdata": {"rt": -1, "stimulus": "<p id=\"stim\">CURTAIN</p>", "key_press": -1, "type": "PRES_VIS", "word": "curtain", "wordID": 426, "conditions": [24, 800, "v", 12000], "trial": 5, "serialpos": 2, "trial_type": "single-stim", "trial_index": 199, "time_elapsed": 1016048, "internal_node_id": "0.0-145.0"}}, {"uniqueid": "MTK0440:3C44YUNSI2W135QQ2V2PQ35W2RRDPN", "current_trial": 200, "dateTime": 1510876322488, "trialdata": {"rt": -1, "stimulus": "<p id=\"stim\">CREVICE</p>", "key_press": -1, "type": "PRES_VIS", "word": "crevice", "wordID": 404, "conditions": [24, 800, "v", 12000], "trial": 5, "serialpos": 3, "trial_type": "single-stim", "trial_index": 200, "time_elapsed": 1017659, "internal_node_id": "0.0-146.0"}}, {"uniqueid": "MTK0440:3C44YUNSI2W135QQ2V2PQ35W2RRDPN", "current_trial": 201, "dateTime": 1510876324460, "trialdata": {"rt": -1, "stimulus": "<p id=\"stim\">WRIST</p>", "key_press": -1, "type": "PRES_VIS", "word": "wrist", "wordID": 1625, "conditions": [24, 800, "v", 12000], "trial": 5, "serialpos": 4, "trial_type": "single-stim", "trial_index": 201, "time_elapsed": 1019631, "internal_node_id": "0.0-147.0"}}, {"uniqueid": "MTK0440:3C44YUNSI2W135QQ2V2PQ35W2RRDPN", "current_trial": 202, "dateTime": 1510876326360, "trialdata": {"rt": -1, "stimulus": "<p id=\"stim\">FINGER</p>", "key_press": -1, "type": "PRES_VIS", "word": "finger", "wordID": 566, "conditions": [24, 800, "v", 12000], "trial": 5, "serialpos": 5, "trial_type": "single-stim", "trial_index": 202, "time_elapsed": 1021531, "internal_node_id": "0.0-148.0"}}, {"uniqueid": "MTK0440:3C44YUNSI2W135QQ2V2PQ35W2RRDPN", "current_trial": 203, "dateTime": 1510876328347, "trialdata": {"rt": -1, "stimulus": "<p id=\"stim\">FLIPPER</p>", "key_press": -1, "type": "PRES_VIS", "word": "flipper", "wordID": 579, "conditions": [24, 800, "v", 12000], "trial": 5, "serialpos": 6, "trial_type": "single-stim", "trial_index": 203, "time_elapsed": 1023518, "internal_node_id": "0.0-149.0"}}, {"uniqueid": "MTK0440:3C44YUNSI2W135QQ2V2PQ35W2RRDPN", "current_trial": 204, "dateTime": 1510876330027, "trialdata": {"rt": -1, "stimulus": "<p id=\"stim\">CLIMBER</p>", "key_press": -1, "type": "PRES_VIS", "word": "climber", "wordID": 322, "conditions": [24, 800, "v", 12000], "trial": 5, "serialpos": 7, "trial_type": "single-stim", "trial_index": 204, "time_elapsed": 1025198, "internal_node_id": "0.0-150.0"}}, {"uniqueid": "MTK0440:3C44YUNSI2W135QQ2V2PQ35W2RRDPN", "current_trial": 205, "dateTime": 1510876332014, "trialdata": {"rt": -1, "stimulus": "<p id=\"stim\">YARN</p>", "key_press": -1, "type": "PRES_VIS", "word": "yarn", "wordID": 1630, "conditions": [24, 800, "v", 12000], "trial": 5, "serialpos": 8, "trial_type": "single-stim", "trial_index": 205, "time_elapsed": 1027185, "internal_node_id": "0.0-151.0"}}, {"uniqueid": "MTK0440:3C44YUNSI2W135QQ2V2PQ35W2RRDPN", "current_trial": 206, "dateTime": 1510876333806, "trialdata": {"rt": -1, "stimulus": "<p id=\"stim\">ATOM</p>", "key_press": -1, "type": "PRES_VIS", "word": "atom", "wordID": 54, "conditions": [24, 800, "v", 12000], "trial": 5, "serialpos": 9, "trial_type": "single-stim", "trial_index": 206, "time_elapsed": 1028977, "internal_node_id": "0.0-152.0"}}, {"uniqueid": "MTK0440:3C44YUNSI2W135QQ2V2PQ35W2RRDPN", "current_trial": 207, "dateTime": 1510876335418, "trialdata": {"rt": -1, "stimulus": "<p id=\"stim\">LAGOON</p>", "key_press": -1, "type": "PRES_VIS", "word": "lagoon", "wordID": 794, "conditions": [24, 800, "v", 12000], "trial": 5, "serialpos": 10, "trial_type": "single-stim", "trial_index": 207, "time_elapsed": 1030589, "internal_node_id": "0.0-153.0"}}, {"uniqueid": "MTK0440:3C44YUNSI2W135QQ2V2PQ35W2RRDPN", "current_trial": 208, "dateTime": 1510876337049, "trialdata": {"rt": -1, "stimulus": "<p id=\"stim\">CABBAGE</p>", "key_press": -1, "type": "PRES_VIS", "word": "cabbage", "wordID": 209, "conditions": [24, 800, "v", 12000], "trial": 5, "serialpos": 11, "trial_type": "single-stim", "trial_index": 208, "time_elapsed": 1032220, "internal_node_id": "0.0-154.0"}}, {"uniqueid": "MTK0440:3C44YUNSI2W135QQ2V2PQ35W2RRDPN", "current_trial": 209, "dateTime": 1510876338784, "trialdata": {"rt": -1, "stimulus": "<p id=\"stim\">SCALPEL</p>", "key_press": -1, "type": "PRES_VIS", "word": "scalpel", "wordID": 1242, "conditions": [24, 800, "v", 12000], "trial": 5, "serialpos": 12, "trial_type": "single-stim", "trial_index": 209, "time_elapsed": 1033955, "internal_node_id": "0.0-155.0"}}, {"uniqueid": "MTK0440:3C44YUNSI2W135QQ2V2PQ35W2RRDPN", "current_trial": 210, "dateTime": 1510876340748, "trialdata": {"rt": -1, "stimulus": "<p id=\"stim\">HONEY</p>", "key_press": -1, "type": "PRES_VIS", "word": "honey", "wordID": 712, "conditions": [24, 800, "v", 12000], "trial": 5, "serialpos": 13, "trial_type": "single-stim", "trial_index": 210, "time_elapsed": 1035919, "internal_node_id": "0.0-156.0"}}, {"uniqueid": "MTK0440:3C44YUNSI2W135QQ2V2PQ35W2RRDPN", "current_trial": 211, "dateTime": 1510876342692, "trialdata": {"rt": -1, "stimulus": "<p id=\"stim\">SKIRT</p>", "key_press": -1, "type": "PRES_VIS", "word": "skirt", "wordID": 1318, "conditions": [24, 800, "v", 12000], "trial": 5, "serialpos": 14, "trial_type": "single-stim", "trial_index": 211, "time_elapsed": 1037863, "internal_node_id": "0.0-157.0"}}, {"uniqueid": "MTK0440:3C44YUNSI2W135QQ2V2PQ35W2RRDPN", "current_trial": 212, "dateTime": 1510876344668, "trialdata": {"rt": -1, "stimulus": "<p id=\"stim\">FLUTE</p>", "key_press": -1, "type": "PRES_VIS", "word": "flute", "wordID": 584, "conditions": [24, 800, "v", 12000], "trial": 5, "serialpos": 15, "trial_type": "single-stim", "trial_index": 212, "time_elapsed": 1039839, "internal_node_id": "0.0-158.0"}}, {"uniqueid": "MTK0440:3C44YUNSI2W135QQ2V2PQ35W2RRDPN", "current_trial": 213, "dateTime": 1510876346525, "trialdata": {"rt": -1, "stimulus": "<p id=\"stim\">BLACKBOARD</p>", "key_press": -1, "type": "PRES_VIS", "word": "blackboard", "wordID": 132, "conditions": [24, 800, "v", 12000], "trial": 5, "serialpos": 16, "trial_type": "single-stim", "trial_index": 213, "time_elapsed": 1041696, "internal_node_id": "0.0-159.0"}}, {"uniqueid": "MTK0440:3C44YUNSI2W135QQ2V2PQ35W2RRDPN", "current_trial": 214, "dateTime": 1510876348310, "trialdata": {"rt": -1, "stimulus": "<p id=\"stim\">LAKE</p>", "key_press": -1, "type": "PRES_VIS", "word": "lake", "wordID": 795, "conditions": [24, 800, "v", 12000], "trial": 5, "serialpos": 17, "trial_type": "single-stim", "trial_index": 214, "time_elapsed": 1043481, "internal_node_id": "0.0-160.0"}}, {"uniqueid": "MTK0440:3C44YUNSI2W135QQ2V2PQ35W2RRDPN", "current_trial": 215, "dateTime": 1510876350042, "trialdata": {"rt": -1, "stimulus": "<p id=\"stim\">RIVER</p>", "key_press": -1, "type": "PRES_VIS", "word": "river", "wordID": 1193, "conditions": [24, 800, "v", 12000], "trial": 5, "serialpos": 18, "trial_type": "single-stim", "trial_index": 215, "time_elapsed": 1045213, "internal_node_id": "0.0-161.0"}}, {"uniqueid": "MTK0440:3C44YUNSI2W135QQ2V2PQ35W2RRDPN", "current_trial": 216, "dateTime": 1510876351852, "trialdata": {"rt": -1, "stimulus": "<p id=\"stim\">MAILMAN</p>", "key_press": -1, "type": "PRES_VIS", "word": "mailman", "wordID": 857, "conditions": [24, 800, "v", 12000], "trial": 5, "serialpos": 19, "trial_type": "single-stim", "trial_index": 216, "time_elapsed": 1047023, "internal_node_id": "0.0-162.0"}}, {"uniqueid": "MTK0440:3C44YUNSI2W135QQ2V2PQ35W2RRDPN", "current_trial": 217, "dateTime": 1510876353833, "trialdata": {"rt": -1, "stimulus": "<p id=\"stim\">CONCERT</p>", "key_press": -1, "type": "PRES_VIS", "word": "concert", "wordID": 359, "conditions": [24, 800, "v", 12000], "trial": 5, "serialpos": 20, "trial_type": "single-stim", "trial_index": 217, "time_elapsed": 1049004, "internal_node_id": "0.0-163.0"}}, {"uniqueid": "MTK0440:3C44YUNSI2W135QQ2V2PQ35W2RRDPN", "current_trial": 218, "dateTime": 1510876355685, "trialdata": {"rt": -1, "stimulus": "<p id=\"stim\">STATUE</p>", "key_press": -1, "type": "PRES_VIS", "word": "statue", "wordID": 1373, "conditions": [24, 800, "v", 12000], "trial": 5, "serialpos": 21, "trial_type": "single-stim", "trial_index": 218, "time_elapsed": 1050856, "internal_node_id": "0.0-164.0"}}, {"uniqueid": "MTK0440:3C44YUNSI2W135QQ2V2PQ35W2RRDPN", "current_trial": 219, "dateTime": 1510876357384, "trialdata": {"rt": -1, "stimulus": "<p id=\"stim\">HAND</p>", "key_press": -1, "type": "PRES_VIS", "word": "hand", "wordID": 682, "conditions": [24, 800, "v", 12000], "trial": 5, "serialpos": 22, "trial_type": "single-stim", "trial_index": 219, "time_elapsed": 1052555, "internal_node_id": "0.0-165.0"}}, {"uniqueid": "MTK0440:3C44YUNSI2W135QQ2V2PQ35W2RRDPN", "current_trial": 220, "dateTime": 1510876359229, "trialdata": {"rt": -1, "stimulus": "<p id=\"stim\">GRAPE</p>", "key_press": -1, "type": "PRES_VIS", "word": "grape", "wordID": 653, "conditions": [24, 800, "v", 12000], "trial": 5, "serialpos": 23, "trial_type": "single-stim", "trial_index": 220, "time_elapsed": 1054400, "internal_node_id": "0.0-166.0"}}, {"uniqueid": "MTK0440:3C44YUNSI2W135QQ2V2PQ35W2RRDPN", "current_trial": 221, "dateTime": 1510876361805, "trialdata": {"rt": -1, "stimulus": "", "key_press": -1, "type": "PRE_RECALL_DELAY", "trial_type": "single-stim", "trial_index": 221, "time_elapsed": 1056976, "internal_node_id": "0.0-167.0-0.0"}}, {"uniqueid": "MTK0440:3C44YUNSI2W135QQ2V2PQ35W2RRDPN", "current_trial": 222, "dateTime": 1510876362308, "trialdata": {"rt": -1000, "stimulus": "/static/audio/400Hz.wav", "key_press": -1, "type": "PRE_RECALL_ALERT", "trial_type": "single-audio", "trial_index": 222, "time_elapsed": 1057479, "internal_node_id": "0.0-168.0"}}, {"uniqueid": "MTK0440:3C44YUNSI2W135QQ2V2PQ35W2RRDPN", "current_trial": 223, "dateTime": 1510876422314, "trialdata": {"rt": [1494, 3227, 5377, 6814, 8890, 24082, 25203], "recwords": ["grape", "statue", "finger", "hand", "wrist", "river", "lake"], "type": "FREE_RECALL", "conditions": [24, 800, "v", 12000], "trial": 5, "trial_type": "free-recall", "trial_index": 223, "time_elapsed": 1117481, "internal_node_id": "0.0-169.0-0.0"}}, {"uniqueid": "MTK0440:3C44YUNSI2W135QQ2V2PQ35W2RRDPN", "current_trial": 224, "dateTime": 1510876426123, "trialdata": {"rt": 1809, "key_press": 32, "type": "INSTRUCTIONS", "trial_type": "text", "trial_index": 224, "time_elapsed": 1121294, "internal_node_id": "0.0-170.0"}}, {"uniqueid": "MTK0440:3C44YUNSI2W135QQ2V2PQ35W2RRDPN", "current_trial": 225, "dateTime": 1510876440127, "trialdata": {"rt": [3437, 5673, 7841, 11586], "responses": ["6", "12", "22", "20"], "num1": [3, 2, 9, 5, 5], "num2": [1, 9, 9, 7, 5], "num3": [2, 1, 4, 8, 1], "type": "DISTRACTOR", "conditions": [12, 800, "v", 12000], "trial": 6, "trial_type": "math-distractor", "trial_index": 225, "time_elapsed": 1135298, "internal_node_id": "0.0-171.0"}}, {"uniqueid": "MTK0440:3C44YUNSI2W135QQ2V2PQ35W2RRDPN", "current_trial": 226, "dateTime": 1510876443129, "trialdata": {"rt": -1, "stimulus": "<p id=\"stim\">10</p>", "key_press": -1, "trial_type": "single-stim", "trial_index": 226, "time_elapsed": 1138300, "internal_node_id": "0.0-172.0-0.0"}}, {"uniqueid": "MTK0440:3C44YUNSI2W135QQ2V2PQ35W2RRDPN", "current_trial": 227, "dateTime": 1510876444131, "trialdata": {"rt": -1, "stimulus": "<p id=\"stim\">9</p>", "key_press": -1, "trial_type": "single-stim", "trial_index": 227, "time_elapsed": 1139301, "internal_node_id": "0.0-172.0-1.0"}}, {"uniqueid": "MTK0440:3C44YUNSI2W135QQ2V2PQ35W2RRDPN", "current_trial": 228, "dateTime": 1510876445133, "trialdata": {"rt": -1, "stimulus": "<p id=\"stim\">8</p>", "key_press": -1, "trial_type": "single-stim", "trial_index": 228, "time_elapsed": 1140304, "internal_node_id": "0.0-172.0-2.0"}}, {"uniqueid": "MTK0440:3C44YUNSI2W135QQ2V2PQ35W2RRDPN", "current_trial": 229, "dateTime": 1510876446133, "trialdata": {"rt": -1, "stimulus": "<p id=\"stim\">7</p>", "key_press": -1, "trial_type": "single-stim", "trial_index": 229, "time_elapsed": 1141304, "internal_node_id": "0.0-172.0-3.0"}}, {"uniqueid": "MTK0440:3C44YUNSI2W135QQ2V2PQ35W2RRDPN", "current_trial": 230, "dateTime": 1510876447135, "trialdata": {"rt": -1, "stimulus": "<p id=\"stim\">6</p>", "key_press": -1, "trial_type": "single-stim", "trial_index": 230, "time_elapsed": 1142306, "internal_node_id": "0.0-172.0-4.0"}}, {"uniqueid": "MTK0440:3C44YUNSI2W135QQ2V2PQ35W2RRDPN", "current_trial": 231, "dateTime": 1510876448136, "trialdata": {"rt": -1, "stimulus": "<p id=\"stim\">5</p>", "key_press": -1, "trial_type": "single-stim", "trial_index": 231, "time_elapsed": 1143307, "internal_node_id": "0.0-172.0-5.0"}}, {"uniqueid": "MTK0440:3C44YUNSI2W135QQ2V2PQ35W2RRDPN", "current_trial": 232, "dateTime": 1510876449138, "trialdata": {"rt": -1, "stimulus": "<p id=\"stim\">4</p>", "key_press": -1, "trial_type": "single-stim", "trial_index": 232, "time_elapsed": 1144309, "internal_node_id": "0.0-172.0-6.0"}}, {"uniqueid": "MTK0440:3C44YUNSI2W135QQ2V2PQ35W2RRDPN", "current_trial": 233, "dateTime": 1510876450140, "trialdata": {"rt": -1, "stimulus": "<p id=\"stim\">3</p>", "key_press": -1, "trial_type": "single-stim", "trial_index": 233, "time_elapsed": 1145311, "internal_node_id": "0.0-172.0-7.0"}}, {"uniqueid": "MTK0440:3C44YUNSI2W135QQ2V2PQ35W2RRDPN", "current_trial": 234, "dateTime": 1510876451141, "trialdata": {"rt": -1, "stimulus": "<p id=\"stim\">2</p>", "key_press": -1, "trial_type": "single-stim", "trial_index": 234, "time_elapsed": 1146312, "internal_node_id": "0.0-172.0-8.0"}}, {"uniqueid": "MTK0440:3C44YUNSI2W135QQ2V2PQ35W2RRDPN", "current_trial": 235, "dateTime": 1510876452142, "trialdata": {"rt": -1, "stimulus": "<p id=\"stim\">1</p>", "key_press": -1, "trial_type": "single-stim", "trial_index": 235, "time_elapsed": 1147313, "internal_node_id": "0.0-172.0-9.0"}}, {"uniqueid": "MTK0440:3C44YUNSI2W135QQ2V2PQ35W2RRDPN", "current_trial": 236, "dateTime": 1510876453643, "trialdata": {"rt": -1, "stimulus": "<p id=\"stim\">+</p>", "key_press": -1, "type": "FIXATION", "trial_type": "single-stim", "trial_index": 236, "time_elapsed": 1148814, "internal_node_id": "0.0-173.0-0.0"}}, {"uniqueid": "MTK0440:3C44YUNSI2W135QQ2V2PQ35W2RRDPN", "current_trial": 237, "dateTime": 1510876454445, "trialdata": {"rt": -1, "stimulus": "<p id=\"stim\">DENIM</p>", "key_press": -1, "type": "PRES_VIS", "word": "denim", "wordID": 445, "conditions": [12, 800, "v", 12000], "trial": 6, "serialpos": 0, "trial_type": "single-stim", "trial_index": 237, "time_elapsed": 1149616, "internal_node_id": "0.0-174.0"}}, {"uniqueid": "MTK0440:3C44YUNSI2W135QQ2V2PQ35W2RRDPN", "current_trial": 238, "dateTime": 1510876456307, "trialdata": {"rt": -1, "stimulus": "<p id=\"stim\">SUNSET</p>", "key_press": -1, "type": "PRES_VIS", "word": "sunset", "wordID": 1407, "conditions": [12, 800, "v", 12000], "trial": 6, "serialpos": 1, "trial_type": "single-stim", "trial_index": 238, "time_elapsed": 1151478, "internal_node_id": "0.0-175.0"}}, {"uniqueid": "MTK0440:3C44YUNSI2W135QQ2V2PQ35W2RRDPN", "current_trial": 239, "dateTime": 1510876458079, "trialdata": {"rt": -1, "stimulus": "<p id=\"stim\">CATTLE</p>", "key_press": -1, "type": "PRES_VIS", "word": "cattle", "wordID": 260, "conditions": [12, 800, "v", 12000], "trial": 6, "serialpos": 2, "trial_type": "single-stim", "trial_index": 239, "time_elapsed": 1153250, "internal_node_id": "0.0-176.0"}}, {"uniqueid": "MTK0440:3C44YUNSI2W135QQ2V2PQ35W2RRDPN", "current_trial": 240, "dateTime": 1510876459857, "trialdata": {"rt": -1, "stimulus": "<p id=\"stim\">ROOSTER</p>", "key_press": -1, "type": "PRES_VIS", "word": "rooster", "wordID": 1208, "conditions": [12, 800, "v", 12000], "trial": 6, "serialpos": 3, "trial_type": "single-stim", "trial_index": 240, "time_elapsed": 1155028, "internal_node_id": "0.0-177.0"}}, {"uniqueid": "MTK0440:3C44YUNSI2W135QQ2V2PQ35W2RRDPN", "current_trial": 241, "dateTime": 1510876461542, "trialdata": {"rt": -1, "stimulus": "<p id=\"stim\">CHEST</p>", "key_press": -1, "type": "PRES_VIS", "word": "chest", "wordID": 294, "conditions": [12, 800, "v", 12000], "trial": 6, "serialpos": 4, "trial_type": "single-stim", "trial_index": 241, "time_elapsed": 1156713, "internal_node_id": "0.0-178.0"}}, {"uniqueid": "MTK0440:3C44YUNSI2W135QQ2V2PQ35W2RRDPN", "current_trial": 242, "dateTime": 1510876463178, "trialdata": {"rt": -1, "stimulus": "<p id=\"stim\">RELISH</p>", "key_press": -1, "type": "PRES_VIS", "word": "relish", "wordID": 1182, "conditions": [12, 800, "v", 12000], "trial": 6, "serialpos": 5, "trial_type": "single-stim", "trial_index": 242, "time_elapsed": 1158349, "internal_node_id": "0.0-179.0"}}, {"uniqueid": "MTK0440:3C44YUNSI2W135QQ2V2PQ35W2RRDPN", "current_trial": 243, "dateTime": 1510876464873, "trialdata": {"rt": -1, "stimulus": "<p id=\"stim\">BACON</p>", "key_press": -1, "type": "PRES_VIS", "word": "bacon", "wordID": 66, "conditions": [12, 800, "v", 12000], "trial": 6, "serialpos": 6, "trial_type": "single-stim", "trial_index": 243, "time_elapsed": 1160044, "internal_node_id": "0.0-180.0"}}, {"uniqueid": "MTK0440:3C44YUNSI2W135QQ2V2PQ35W2RRDPN", "current_trial": 244, "dateTime": 1510876466667, "trialdata": {"rt": -1, "stimulus": "<p id=\"stim\">COD</p>", "key_press": -1, "type": "PRES_VIS", "word": "cod", "wordID": 339, "conditions": [12, 800, "v", 12000], "trial": 6, "serialpos": 7, "trial_type": "single-stim", "trial_index": 244, "time_elapsed": 1161838, "internal_node_id": "0.0-181.0"}}, {"uniqueid": "MTK0440:3C44YUNSI2W135QQ2V2PQ35W2RRDPN", "current_trial": 245, "dateTime": 1510876468483, "trialdata": {"rt": -1, "stimulus": "<p id=\"stim\">SCALLOP</p>", "key_press": -1, "type": "PRES_VIS", "word": "scallop", "wordID": 1241, "conditions": [12, 800, "v", 12000], "trial": 6, "serialpos": 8, "trial_type": "single-stim", "trial_index": 245, "time_elapsed": 1163654, "internal_node_id": "0.0-182.0"}}, {"uniqueid": "MTK0440:3C44YUNSI2W135QQ2V2PQ35W2RRDPN", "current_trial": 246, "dateTime": 1510876470194, "trialdata": {"rt": -1, "stimulus": "<p id=\"stim\">BISON</p>", "key_press": -1, "type": "PRES_VIS", "word": "bison", "wordID": 130, "conditions": [12, 800, "v", 12000], "trial": 6, "serialpos": 9, "trial_type": "single-stim", "trial_index": 246, "time_elapsed": 1165365, "internal_node_id": "0.0-183.0"}}, {"uniqueid": "MTK0440:3C44YUNSI2W135QQ2V2PQ35W2RRDPN", "current_trial": 247, "dateTime": 1510876471951, "trialdata": {"rt": -1, "stimulus": "<p id=\"stim\">VICTIM</p>", "key_press": -1, "type": "PRES_VIS", "word": "victim", "wordID": 1561, "conditions": [12, 800, "v", 12000], "trial": 6, "serialpos": 10, "trial_type": "single-stim", "trial_index": 247, "time_elapsed": 1167122, "internal_node_id": "0.0-184.0"}}, {"uniqueid": "MTK0440:3C44YUNSI2W135QQ2V2PQ35W2RRDPN", "current_trial": 248, "dateTime": 1510876473629, "trialdata": {"rt": -1, "stimulus": "<p id=\"stim\">PERCH</p>", "key_press": -1, "type": "PRES_VIS", "word": "perch", "wordID": 1047, "conditions": [12, 800, "v", 12000], "trial": 6, "serialpos": 11, "trial_type": "single-stim", "trial_index": 248, "time_elapsed": 1168800, "internal_node_id": "0.0-185.0"}}, {"uniqueid": "MTK0440:3C44YUNSI2W135QQ2V2PQ35W2RRDPN", "current_trial": 249, "dateTime": 1510876475918, "trialdata": {"rt": -1, "stimulus": "", "key_press": -1, "type": "PRE_RECALL_DELAY", "trial_type": "single-stim", "trial_index": 249, "time_elapsed": 1171089, "internal_node_id": "0.0-186.0-0.0"}}, {"uniqueid": "MTK0440:3C44YUNSI2W135QQ2V2PQ35W2RRDPN", "current_trial": 250, "dateTime": 1510876476420, "trialdata": {"rt": -1000, "stimulus": "/static/audio/400Hz.wav", "key_press": -1, "type": "PRE_RECALL_ALERT", "trial_type": "single-audio", "trial_index": 250, "time_elapsed": 1171591, "internal_node_id": "0.0-187.0"}}, {"uniqueid": "MTK0440:3C44YUNSI2W135QQ2V2PQ35W2RRDPN", "current_trial": 251, "dateTime": 1510876536427, "trialdata": {"rt": [2597, 4949, 7335, 11175, 12790, 14977, 21307], "recwords": ["perch", "victim", "bacon", "sunset", "denim", "cattle", "bison"], "type": "FREE_RECALL", "conditions": [12, 800, "v", 12000], "trial": 6, "trial_type": "free-recall", "trial_index": 251, "time_elapsed": 1231595, "internal_node_id": "0.0-188.0-0.0"}}, {"uniqueid": "MTK0440:3C44YUNSI2W135QQ2V2PQ35W2RRDPN", "current_trial": 252, "dateTime": 1510876539959, "trialdata": {"rt": 1530, "key_press": 32, "type": "INSTRUCTIONS", "trial_type": "text", "trial_index": 252, "time_elapsed": 1235130, "internal_node_id": "0.0-189.0"}}, {"uniqueid": "MTK0440:3C44YUNSI2W135QQ2V2PQ35W2RRDPN", "current_trial": 253, "dateTime": 1510876565963, "trialdata": {"rt": [1892, 3394, 5642, 6867, 9593, 12670, 16126, 20403, 23403], "responses": ["11", "11", "5", "11", "16", "16", "25", "18", "17"], "num1": [1, 1, 3, 1, 5, 1, 9, 5, 8, 5], "num2": [3, 1, 1, 1, 6, 9, 7, 7, 1, 7], "num3": [7, 9, 1, 9, 5, 6, 9, 6, 8, 6], "type": "DISTRACTOR", "conditions": [24, 800, "a", 24000], "trial": 7, "trial_type": "math-distractor", "trial_index": 253, "time_elapsed": 1261134, "internal_node_id": "0.0-190.0"}}, {"uniqueid": "MTK0440:3C44YUNSI2W135QQ2V2PQ35W2RRDPN", "current_trial": 254, "dateTime": 1510876568966, "trialdata": {"rt": -1, "stimulus": "<p id=\"stim\">10</p>", "key_press": -1, "trial_type": "single-stim", "trial_index": 254, "time_elapsed": 1264137, "internal_node_id": "0.0-191.0-0.0"}}, {"uniqueid": "MTK0440:3C44YUNSI2W135QQ2V2PQ35W2RRDPN", "current_trial": 255, "dateTime": 1510876569967, "trialdata": {"rt": -1, "stimulus": "<p id=\"stim\">9</p>", "key_press": -1, "trial_type": "single-stim", "trial_index": 255, "time_elapsed": 1265138, "internal_node_id": "0.0-191.0-1.0"}}, {"uniqueid": "MTK0440:3C44YUNSI2W135QQ2V2PQ35W2RRDPN", "current_trial": 256, "dateTime": 1510876570968, "trialdata": {"rt": -1, "stimulus": "<p id=\"stim\">8</p>", "key_press": -1, "trial_type": "single-stim", "trial_index": 256, "time_elapsed": 1266139, "internal_node_id": "0.0-191.0-2.0"}}, {"uniqueid": "MTK0440:3C44YUNSI2W135QQ2V2PQ35W2RRDPN", "current_trial": 257, "dateTime": 1510876571969, "trialdata": {"rt": -1, "stimulus": "<p id=\"stim\">7</p>", "key_press": -1, "trial_type": "single-stim", "trial_index": 257, "time_elapsed": 1267140, "internal_node_id": "0.0-191.0-3.0"}}, {"uniqueid": "MTK0440:3C44YUNSI2W135QQ2V2PQ35W2RRDPN", "current_trial": 258, "dateTime": 1510876572971, "trialdata": {"rt": -1, "stimulus": "<p id=\"stim\">6</p>", "key_press": -1, "trial_type": "single-stim", "trial_index": 258, "time_elapsed": 1268142, "internal_node_id": "0.0-191.0-4.0"}}, {"uniqueid": "MTK0440:3C44YUNSI2W135QQ2V2PQ35W2RRDPN", "current_trial": 259, "dateTime": 1510876573972, "trialdata": {"rt": -1, "stimulus": "<p id=\"stim\">5</p>", "key_press": -1, "trial_type": "single-stim", "trial_index": 259, "time_elapsed": 1269143, "internal_node_id": "0.0-191.0-5.0"}}, {"uniqueid": "MTK0440:3C44YUNSI2W135QQ2V2PQ35W2RRDPN", "current_trial": 260, "dateTime": 1510876574974, "trialdata": {"rt": -1, "stimulus": "<p id=\"stim\">4</p>", "key_press": -1, "trial_type": "single-stim", "trial_index": 260, "time_elapsed": 1270145, "internal_node_id": "0.0-191.0-6.0"}}, {"uniqueid": "MTK0440:3C44YUNSI2W135QQ2V2PQ35W2RRDPN", "current_trial": 261, "dateTime": 1510876575975, "trialdata": {"rt": -1, "stimulus": "<p id=\"stim\">3</p>", "key_press": -1, "trial_type": "single-stim", "trial_index": 261, "time_elapsed": 1271146, "internal_node_id": "0.0-191.0-7.0"}}, {"uniqueid": "MTK0440:3C44YUNSI2W135QQ2V2PQ35W2RRDPN", "current_trial": 262, "dateTime": 1510876576977, "trialdata": {"rt": -1, "stimulus": "<p id=\"stim\">2</p>", "key_press": -1, "trial_type": "single-stim", "trial_index": 262, "time_elapsed": 1272148, "internal_node_id": "0.0-191.0-8.0"}}, {"uniqueid": "MTK0440:3C44YUNSI2W135QQ2V2PQ35W2RRDPN", "current_trial": 263, "dateTime": 1510876577978, "trialdata": {"rt": -1, "stimulus": "<p id=\"stim\">1</p>", "key_press": -1, "trial_type": "single-stim", "trial_index": 263, "time_elapsed": 1273149, "internal_node_id": "0.0-191.0-9.0"}}, {"uniqueid": "MTK0440:3C44YUNSI2W135QQ2V2PQ35W2RRDPN", "current_trial": 264, "dateTime": 1510876579480, "trialdata": {"rt": -1, "stimulus": "<p id=\"stim\">+</p>", "key_press": -1, "type": "FIXATION", "trial_type": "single-stim", "trial_index": 264, "time_elapsed": 1274651, "internal_node_id": "0.0-192.0-0.0"}}, {"uniqueid": "MTK0440:3C44YUNSI2W135QQ2V2PQ35W2RRDPN", "current_trial": 265, "dateTime": 1510876581282, "trialdata": {"rt": -1000, "stimulus": "/static/audio/wordpool/CANDY.wav", "key_press": -1, "type": "PRES_AUD", "word": "candy", "wordID": 229, "conditions": [24, 800, "a", 24000], "trial": 7, "serialpos": 0, "trial_type": "single-audio", "trial_index": 265, "time_elapsed": 1276453, "internal_node_id": "0.0-193.0"}}, {"uniqueid": "MTK0440:3C44YUNSI2W135QQ2V2PQ35W2RRDPN", "current_trial": 266, "dateTime": 1510876583286, "trialdata": {"rt": -1000, "stimulus": "/static/audio/wordpool/WOMAN.wav", "key_press": -1, "type": "PRES_AUD", "word": "woman", "wordID": 1619, "conditions": [24, 800, "a", 24000], "trial": 7, "serialpos": 1, "trial_type": "single-audio", "trial_index": 266, "time_elapsed": 1278457, "internal_node_id": "0.0-194.0"}}, {"uniqueid": "MTK0440:3C44YUNSI2W135QQ2V2PQ35W2RRDPN", "current_trial": 267, "dateTime": 1510876585130, "trialdata": {"rt": -1000, "stimulus": "/static/audio/wordpool/PASSAGE.wav", "key_press": -1, "type": "PRES_AUD", "word": "passage", "wordID": 1018, "conditions": [24, 800, "a", 24000], "trial": 7, "serialpos": 2, "trial_type": "single-audio", "trial_index": 267, "time_elapsed": 1280299, "internal_node_id": "0.0-195.0"}}, {"uniqueid": "MTK0440:3C44YUNSI2W135QQ2V2PQ35W2RRDPN", "current_trial": 268, "dateTime": 1510876586906, "trialdata": {"rt": -1000, "stimulus": "/static/audio/wordpool/WIFE.wav", "key_press": -1, "type": "PRES_AUD", "word": "wife", "wordID": 1608, "conditions": [24, 800, "a", 24000], "trial": 7, "serialpos": 3, "trial_type": "single-audio", "trial_index": 268, "time_elapsed": 1282077, "internal_node_id": "0.0-196.0"}}, {"uniqueid": "MTK0440:3C44YUNSI2W135QQ2V2PQ35W2RRDPN", "current_trial": 269, "dateTime": 1510876588616, "trialdata": {"rt": -1000, "stimulus": "/static/audio/wordpool/BREAST.wav", "key_press": -1, "type": "PRES_AUD", "word": "breast", "wordID": 170, "conditions": [24, 800, "a", 24000], "trial": 7, "serialpos": 4, "trial_type": "single-audio", "trial_index": 269, "time_elapsed": 1283787, "internal_node_id": "0.0-197.0"}}, {"uniqueid": "MTK0440:3C44YUNSI2W135QQ2V2PQ35W2RRDPN", "current_trial": 270, "dateTime": 1510876590433, "trialdata": {"rt": -1000, "stimulus": "/static/audio/wordpool/HEADBAND.wav", "key_press": -1, "type": "PRES_AUD", "word": "headband", "wordID": 695, "conditions": [24, 800, "a", 24000], "trial": 7, "serialpos": 5, "trial_type": "single-audio", "trial_index": 270, "time_elapsed": 1285603, "internal_node_id": "0.0-198.0"}}, {"uniqueid": "MTK0440:3C44YUNSI2W135QQ2V2PQ35W2RRDPN", "current_trial": 271, "dateTime": 1510876592339, "trialdata": {"rt": -1000, "stimulus": "/static/audio/wordpool/OUTLAW.wav", "key_press": -1, "type": "PRES_AUD", "word": "outlaw", "wordID": 988, "conditions": [24, 800, "a", 24000], "trial": 7, "serialpos": 6, "trial_type": "single-audio", "trial_index": 271, "time_elapsed": 1287510, "internal_node_id": "0.0-199.0"}}, {"uniqueid": "MTK0440:3C44YUNSI2W135QQ2V2PQ35W2RRDPN", "current_trial": 272, "dateTime": 1510876594207, "trialdata": {"rt": -1000, "stimulus": "/static/audio/wordpool/ANKLE.wav", "key_press": -1, "type": "PRES_AUD", "word": "ankle", "wordID": 23, "conditions": [