{"condition": 0, "counterbalance": 214, "assignmentId": "3WRFBPLXRBV3ISCGTRJL95EPAOBN3Q", "workerId": "MTK0252", "hitId": "3421H3BM9AORRKCH50N1IR4AOCSJ9J", "currenttrial": 626, "bonus": 0, "data": [{"uniqueid": "MTK0252:3WRFBPLXRBV3ISCGTRJL95EPAOBN3Q", "current_trial": 0, "dateTime": 1510688801516, "trialdata": {"rt": 129870, "key_press": 32, "type": "INSTRUCTIONS", "trial_type": "text", "trial_index": 0, "time_elapsed": 129871, "internal_node_id": "0.0-0.0"}}, {"uniqueid": "MTK0252:3WRFBPLXRBV3ISCGTRJL95EPAOBN3Q", "current_trial": 1, "dateTime": 1510688826155, "trialdata": {"rt": 24637, "key_press": 32, "type": "INSTRUCTIONS", "trial_type": "text", "trial_index": 1, "time_elapsed": 154510, "internal_node_id": "0.0-1.0"}}, {"uniqueid": "MTK0252:3WRFBPLXRBV3ISCGTRJL95EPAOBN3Q", "current_trial": 2, "dateTime": 1510688838035, "trialdata": {"rt": [11877], "responses": ["ocean"], "type": "AUDIO_TEST", "trial_type": "audio-test", "trial_index": 2, "time_elapsed": 166390, "internal_node_id": "0.0-2.0"}}, {"uniqueid": "MTK0252:3WRFBPLXRBV3ISCGTRJL95EPAOBN3Q", "current_trial": 3, "dateTime": 1510688843526, "trialdata": {"rt": [5488], "responses": ["crystal"], "type": "AUDIO_TEST", "trial_type": "audio-test", "trial_index": 3, "time_elapsed": 171881, "internal_node_id": "0.0-3.0"}}, {"uniqueid": "MTK0252:3WRFBPLXRBV3ISCGTRJL95EPAOBN3Q", "current_trial": 4, "dateTime": 1510688847429, "trialdata": {"rt": [3902], "responses": ["spice"], "type": "AUDIO_TEST", "trial_type": "audio-test", "trial_index": 4, "time_elapsed": 175784, "internal_node_id": "0.0-4.0"}}, {"uniqueid": "MTK0252:3WRFBPLXRBV3ISCGTRJL95EPAOBN3Q", "current_trial": 5, "dateTime": 1510688871529, "trialdata": {"rt": 23347, "responses": "{\"Q0\":\"11\",\"Q1\":\"9\",\"Q2\":\"5\"}", "type": "SLEEP_SURVEY", "trial_type": "survey-text", "trial_index": 5, "time_elapsed": 199884, "internal_node_id": "0.0-5.0"}}, {"uniqueid": "MTK0252:3WRFBPLXRBV3ISCGTRJL95EPAOBN3Q", "current_trial": 6, "dateTime": 1510688917509, "trialdata": {"rt": 44977, "key_press": 32, "type": "INSTRUCTIONS", "trial_type": "text", "trial_index": 6, "time_elapsed": 245864, "internal_node_id": "0.0-6.0"}}, {"uniqueid": "MTK0252:3WRFBPLXRBV3ISCGTRJL95EPAOBN3Q", "current_trial": 7, "dateTime": 1510688929625, "trialdata": {"rt": 11612, "key_press": 32, "type": "INSTRUCTIONS", "trial_type": "text", "trial_index": 7, "time_elapsed": 257980, "internal_node_id": "0.0-7.0"}}, {"uniqueid": "MTK0252:3WRFBPLXRBV3ISCGTRJL95EPAOBN3Q", "current_trial": 8, "dateTime": 1510688932302, "trialdata": {"rt": 2172, "key_press": 32, "type": "INSTRUCTIONS", "trial_type": "text", "trial_index": 8, "time_elapsed": 260657, "internal_node_id": "0.0-8.0"}}, {"uniqueid": "MTK0252:3WRFBPLXRBV3ISCGTRJL95EPAOBN3Q", "current_trial": 9, "dateTime": 1510688951306, "trialdata": {"rt": [2440, 8054, 12835], "responses": ["9", "24", "18"], "num1": [1, 7, 4, 4], "num2": [4, 8, 8, 8], "num3": [4, 9, 6, 3], "type": "DISTRACTOR", "conditions": [18, 1200, "v", 18000], "trial": 0, "trial_type": "math-distractor", "trial_index": 9, "time_elapsed": 279661, "internal_node_id": "0.0-9.0"}}, {"uniqueid": "MTK0252:3WRFBPLXRBV3ISCGTRJL95EPAOBN3Q", "current_trial": 10, "dateTime": 1510688954312, "trialdata": {"rt": -1, "stimulus": "<p id=\"stim\">10</p>", "key_press": -1, "trial_type": "single-stim", "trial_index": 10, "time_elapsed": 282667, "internal_node_id": "0.0-10.0-0.0"}}, {"uniqueid": "MTK0252:3WRFBPLXRBV3ISCGTRJL95EPAOBN3Q", "current_trial": 11, "dateTime": 1510688955317, "trialdata": {"rt": -1, "stimulus": "<p id=\"stim\">9</p>", "key_press": -1, "trial_type": "single-stim", "trial_index": 11, "time_elapsed": 283672, "internal_node_id": "0.0-10.0-1.0"}}, {"uniqueid": "MTK0252:3WRFBPLXRBV3ISCGTRJL95EPAOBN3Q", "current_trial": 12, "dateTime": 1510688956322, "trialdata": {"rt": -1, "stimulus": "<p id=\"stim\">8</p>", "key_press": -1, "trial_type": "single-stim", "trial_index": 12, "time_elapsed": 284677, "internal_node_id": "0.0-10.0-2.0"}}, {"uniqueid": "MTK0252:3WRFBPLXRBV3ISCGTRJL95EPAOBN3Q", "current_trial": 13, "dateTime": 1510688957327, "trialdata": {"rt": -1, "stimulus": "<p id=\"stim\">7</p>", "key_press": -1, "trial_type": "single-stim", "trial_index": 13, "time_elapsed": 285681, "internal_node_id": "0.0-10.0-3.0"}}, {"uniqueid": "MTK0252:3WRFBPLXRBV3ISCGTRJL95EPAOBN3Q", "current_trial": 14, "dateTime": 1510688958331, "trialdata": {"rt": -1, "stimulus": "<p id=\"stim\">6</p>", "key_press": -1, "trial_type": "single-stim", "trial_index": 14, "time_elapsed": 286686, "internal_node_id": "0.0-10.0-4.0"}}, {"uniqueid": "MTK0252:3WRFBPLXRBV3ISCGTRJL95EPAOBN3Q", "current_trial": 15, "dateTime": 1510688959335, "trialdata": {"rt": -1, "stimulus": "<p id=\"stim\">5</p>", "key_press": -1, "trial_type": "single-stim", "trial_index": 15, "time_elapsed": 287690, "internal_node_id": "0.0-10.0-5.0"}}, {"uniqueid": "MTK0252:3WRFBPLXRBV3ISCGTRJL95EPAOBN3Q", "current_trial": 16, "dateTime": 1510688960342, "trialdata": {"rt": -1, "stimulus": "<p id=\"stim\">4</p>", "key_press": -1, "trial_type": "single-stim", "trial_index": 16, "time_elapsed": 288697, "internal_node_id": "0.0-10.0-6.0"}}, {"uniqueid": "MTK0252:3WRFBPLXRBV3ISCGTRJL95EPAOBN3Q", "current_trial": 17, "dateTime": 1510688961343, "trialdata": {"rt": -1, "stimulus": "<p id=\"stim\">3</p>", "key_press": -1, "trial_type": "single-stim", "trial_index": 17, "time_elapsed": 289698, "internal_node_id": "0.0-10.0-7.0"}}, {"uniqueid": "MTK0252:3WRFBPLXRBV3ISCGTRJL95EPAOBN3Q", "current_trial": 18, "dateTime": 1510688962343, "trialdata": {"rt": -1, "stimulus": "<p id=\"stim\">2</p>", "key_press": -1, "trial_type": "single-stim", "trial_index": 18, "time_elapsed": 290698, "internal_node_id": "0.0-10.0-8.0"}}, {"uniqueid": "MTK0252:3WRFBPLXRBV3ISCGTRJL95EPAOBN3Q", "current_trial": 19, "dateTime": 1510688963344, "trialdata": {"rt": -1, "stimulus": "<p id=\"stim\">1</p>", "key_press": -1, "trial_type": "single-stim", "trial_index": 19, "time_elapsed": 291699, "internal_node_id": "0.0-10.0-9.0"}}, {"uniqueid": "MTK0252:3WRFBPLXRBV3ISCGTRJL95EPAOBN3Q", "current_trial": 20, "dateTime": 1510688964845, "trialdata": {"rt": -1, "stimulus": "<p id=\"stim\">+</p>", "key_press": -1, "type": "FIXATION", "trial_type": "single-stim", "trial_index": 20, "time_elapsed": 293200, "internal_node_id": "0.0-11.0-0.0"}}, {"uniqueid": "MTK0252:3WRFBPLXRBV3ISCGTRJL95EPAOBN3Q", "current_trial": 21, "dateTime": 1510688966045, "trialdata": {"rt": -1, "stimulus": "<p id=\"stim\">LAGOON</p>", "key_press": -1, "type": "PRES_VIS", "word": "lagoon", "wordID": 794, "conditions": [18, 1200, "v", 18000], "trial": 0, "serialpos": 0, "trial_type": "single-stim", "trial_index": 21, "time_elapsed": 294400, "internal_node_id": "0.0-12.0"}}, {"uniqueid": "MTK0252:3WRFBPLXRBV3ISCGTRJL95EPAOBN3Q", "current_trial": 22, "dateTime": 1510688968128, "trialdata": {"rt": -1, "stimulus": "<p id=\"stim\">DAUGHTER</p>", "key_press": -1, "type": "PRES_VIS", "word": "daughter", "wordID": 441, "conditions": [18, 1200, "v", 18000], "trial": 0, "serialpos": 1, "trial_type": "single-stim", "trial_index": 22, "time_elapsed": 296483, "internal_node_id": "0.0-13.0"}}, {"uniqueid": "MTK0252:3WRFBPLXRBV3ISCGTRJL95EPAOBN3Q", "current_trial": 23, "dateTime": 1510688970441, "trialdata": {"rt": -1, "stimulus": "<p id=\"stim\">TOMBSTONE</p>", "key_press": -1, "type": "PRES_VIS", "word": "tombstone", "wordID": 1477, "conditions": [18, 1200, "v", 18000], "trial": 0, "serialpos": 2, "trial_type": "single-stim", "trial_index": 23, "time_elapsed": 298796, "internal_node_id": "0.0-14.0"}}, {"uniqueid": "MTK0252:3WRFBPLXRBV3ISCGTRJL95EPAOBN3Q", "current_trial": 24, "dateTime": 1510688972668, "trialdata": {"rt": -1, "stimulus": "<p id=\"stim\">DASHBOARD</p>", "key_press": -1, "type": "PRES_VIS", "word": "dashboard", "wordID": 440, "conditions": [18, 1200, "v", 18000], "trial": 0, "serialpos": 3, "trial_type": "single-stim", "trial_index": 24, "time_elapsed": 301023, "internal_node_id": "0.0-15.0"}}, {"uniqueid": "MTK0252:3WRFBPLXRBV3ISCGTRJL95EPAOBN3Q", "current_trial": 25, "dateTime": 1510688975038, "trialdata": {"rt": -1, "stimulus": "<p id=\"stim\">VIKING</p>", "key_press": -1, "type": "PRES_VIS", "word": "viking", "wordID": 1564, "conditions": [18, 1200, "v", 18000], "trial": 0, "serialpos": 4, "trial_type": "single-stim", "trial_index": 25, "time_elapsed": 303393, "internal_node_id": "0.0-16.0"}}, {"uniqueid": "MTK0252:3WRFBPLXRBV3ISCGTRJL95EPAOBN3Q", "current_trial": 26, "dateTime": 1510688977072, "trialdata": {"rt": -1, "stimulus": "<p id=\"stim\">BABY</p>", "key_press": -1, "type": "PRES_VIS", "word": "baby", "wordID": 63, "conditions": [18, 1200, "v", 18000], "trial": 0, "serialpos": 5, "trial_type": "single-stim", "trial_index": 26, "time_elapsed": 305427, "internal_node_id": "0.0-17.0"}}, {"uniqueid": "MTK0252:3WRFBPLXRBV3ISCGTRJL95EPAOBN3Q", "current_trial": 27, "dateTime": 1510688979387, "trialdata": {"rt": -1, "stimulus": "<p id=\"stim\">CATTLE</p>", "key_press": -1, "type": "PRES_VIS", "word": "cattle", "wordID": 260, "conditions": [18, 1200, "v", 18000], "trial": 0, "serialpos": 6, "trial_type": "single-stim", "trial_index": 27, "time_elapsed": 307741, "internal_node_id": "0.0-18.0"}}, {"uniqueid": "MTK0252:3WRFBPLXRBV3ISCGTRJL95EPAOBN3Q", "current_trial": 28, "dateTime": 1510688981738, "trialdata": {"rt": -1, "stimulus": "<p id=\"stim\">SEAL</p>", "key_press": -1, "type": "PRES_VIS", "word": "seal", "wordID": 1261, "conditions": [18, 1200, "v", 18000], "trial": 0, "serialpos": 7, "trial_type": "single-stim", "trial_index": 28, "time_elapsed": 310093, "internal_node_id": "0.0-19.0"}}, {"uniqueid": "MTK0252:3WRFBPLXRBV3ISCGTRJL95EPAOBN3Q", "current_trial": 29, "dateTime": 1510688984050, "trialdata": {"rt": -1, "stimulus": "<p id=\"stim\">ZEBRA</p>", "key_press": -1, "type": "PRES_VIS", "word": "zebra", "wordID": 1634, "conditions": [18, 1200, "v", 18000], "trial": 0, "serialpos": 8, "trial_type": "single-stim", "trial_index": 29, "time_elapsed": 312405, "internal_node_id": "0.0-20.0"}}, {"uniqueid": "MTK0252:3WRFBPLXRBV3ISCGTRJL95EPAOBN3Q", "current_trial": 30, "dateTime": 1510688986370, "trialdata": {"rt": -1, "stimulus": "<p id=\"stim\">STOVE</p>", "key_press": -1, "type": "PRES_VIS", "word": "stove", "wordID": 1387, "conditions": [18, 1200, "v", 18000], "trial": 0, "serialpos": 9, "trial_type": "single-stim", "trial_index": 30, "time_elapsed": 314724, "internal_node_id": "0.0-21.0"}}, {"uniqueid": "MTK0252:3WRFBPLXRBV3ISCGTRJL95EPAOBN3Q", "current_trial": 31, "dateTime": 1510688988564, "trialdata": {"rt": -1, "stimulus": "<p id=\"stim\">SHARK</p>", "key_press": -1, "type": "PRES_VIS", "word": "shark", "wordID": 1274, "conditions": [18, 1200, "v", 18000], "trial": 0, "serialpos": 10, "trial_type": "single-stim", "trial_index": 31, "time_elapsed": 316919, "internal_node_id": "0.0-22.0"}}, {"uniqueid": "MTK0252:3WRFBPLXRBV3ISCGTRJL95EPAOBN3Q", "current_trial": 32, "dateTime": 1510688990956, "trialdata": {"rt": -1, "stimulus": "<p id=\"stim\">SKETCH</p>", "key_press": -1, "type": "PRES_VIS", "word": "sketch", "wordID": 1314, "conditions": [18, 1200, "v", 18000], "trial": 0, "serialpos": 11, "trial_type": "single-stim", "trial_index": 32, "time_elapsed": 319311, "internal_node_id": "0.0-23.0"}}, {"uniqueid": "MTK0252:3WRFBPLXRBV3ISCGTRJL95EPAOBN3Q", "current_trial": 33, "dateTime": 1510688992988, "trialdata": {"rt": -1, "stimulus": "<p id=\"stim\">FRAGRANCE</p>", "key_press": -1, "type": "PRES_VIS", "word": "fragrance", "wordID": 598, "conditions": [18, 1200, "v", 18000], "trial": 0, "serialpos": 12, "trial_type": "single-stim", "trial_index": 33, "time_elapsed": 321343, "internal_node_id": "0.0-24.0"}}, {"uniqueid": "MTK0252:3WRFBPLXRBV3ISCGTRJL95EPAOBN3Q", "current_trial": 34, "dateTime": 1510688995080, "trialdata": {"rt": -1, "stimulus": "<p id=\"stim\">DRAWING</p>", "key_press": -1, "type": "PRES_VIS", "word": "drawing", "wordID": 493, "conditions": [18, 1200, "v", 18000], "trial": 0, "serialpos": 13, "trial_type": "single-stim", "trial_index": 34, "time_elapsed": 323435, "internal_node_id": "0.0-25.0"}}, {"uniqueid": "MTK0252:3WRFBPLXRBV3ISCGTRJL95EPAOBN3Q", "current_trial": 35, "dateTime": 1510688997349, "trialdata": {"rt": -1, "stimulus": "<p id=\"stim\">STAPLE</p>", "key_press": -1, "type": "PRES_VIS", "word": "staple", "wordID": 1370, "conditions": [18, 1200, "v", 18000], "trial": 0, "serialpos": 14, "trial_type": "single-stim", "trial_index": 35, "time_elapsed": 325704, "internal_node_id": "0.0-26.0"}}, {"uniqueid": "MTK0252:3WRFBPLXRBV3ISCGTRJL95EPAOBN3Q", "current_trial": 36, "dateTime": 1510688999551, "trialdata": {"rt": -1, "stimulus": "<p id=\"stim\">OINTMENT</p>", "key_press": -1, "type": "PRES_VIS", "word": "ointment", "wordID": 973, "conditions": [18, 1200, "v", 18000], "trial": 0, "serialpos": 15, "trial_type": "single-stim", "trial_index": 36, "time_elapsed": 327905, "internal_node_id": "0.0-27.0"}}, {"uniqueid": "MTK0252:3WRFBPLXRBV3ISCGTRJL95EPAOBN3Q", "current_trial": 37, "dateTime": 1510689001769, "trialdata": {"rt": -1, "stimulus": "<p id=\"stim\">STAR</p>", "key_press": -1, "type": "PRES_VIS", "word": "star", "wordID": 1372, "conditions": [18, 1200, "v", 18000], "trial": 0, "serialpos": 16, "trial_type": "single-stim", "trial_index": 37, "time_elapsed": 330124, "internal_node_id": "0.0-28.0"}}, {"uniqueid": "MTK0252:3WRFBPLXRBV3ISCGTRJL95EPAOBN3Q", "current_trial": 38, "dateTime": 1510689003992, "trialdata": {"rt": -1, "stimulus": "<p id=\"stim\">PEPPER</p>", "key_press": -1, "type": "PRES_VIS", "word": "pepper", "wordID": 1046, "conditions": [18, 1200, "v", 18000], "trial": 0, "serialpos": 17, "trial_type": "single-stim", "trial_index": 38, "time_elapsed": 332347, "internal_node_id": "0.0-29.0"}}, {"uniqueid": "MTK0252:3WRFBPLXRBV3ISCGTRJL95EPAOBN3Q", "current_trial": 39, "dateTime": 1510689006189, "trialdata": {"rt": -1, "stimulus": "", "key_press": -1, "type": "PRE_RECALL_DELAY", "trial_type": "single-stim", "trial_index": 39, "time_elapsed": 334544, "internal_node_id": "0.0-30.0-0.0"}}, {"uniqueid": "MTK0252:3WRFBPLXRBV3ISCGTRJL95EPAOBN3Q", "current_trial": 40, "dateTime": 1510689006691, "trialdata": {"rt": -1000, "stimulus": "/static/audio/400Hz.wav", "key_press": -1, "type": "PRE_RECALL_ALERT", "trial_type": "single-audio", "trial_index": 40, "time_elapsed": 335045, "internal_node_id": "0.0-31.0"}}, {"uniqueid": "MTK0252:3WRFBPLXRBV3ISCGTRJL95EPAOBN3Q", "current_trial": 41, "dateTime": 1510689066696, "trialdata": {"rt": [5928, 7278, 9528, 12296, 13534, 21195, 26517, 27732, 28497, 41502], "recwords": ["star", "pepper", "lagoon", "ointment", "pepper", "battle", "star", "", "", "fork"], "type": "FREE_RECALL", "conditions": [18, 1200, "v", 18000], "trial": 0, "trial_type": "free-recall", "trial_index": 41, "time_elapsed": 395050, "internal_node_id": "0.0-32.0-0.0"}}, {"uniqueid": "MTK0252:3WRFBPLXRBV3ISCGTRJL95EPAOBN3Q", "current_trial": 42, "dateTime": 1510689174244, "trialdata": {"rt": 105543, "key_press": 32, "type": "INSTRUCTIONS", "trial_type": "text", "trial_index": 42, "time_elapsed": 502599, "internal_node_id": "0.0-33.0"}}, {"uniqueid": "MTK0252:3WRFBPLXRBV3ISCGTRJL95EPAOBN3Q", "current_trial": 43, "dateTime": 1510689194249, "trialdata": {"rt": [], "responses": [], "num1": [5], "num2": [8], "num3": [3], "type": "DISTRACTOR", "conditions": [18, 1200, "a", 18000], "trial": 1, "trial_type": "math-distractor", "trial_index": 43, "time_elapsed": 522604, "internal_node_id": "0.0-34.0"}}, {"uniqueid": "MTK0252:3WRFBPLXRBV3ISCGTRJL95EPAOBN3Q", "current_trial": 44, "dateTime": 1510689197258, "trialdata": {"rt": -1, "stimulus": "<p id=\"stim\">10</p>", "key_press": -1, "trial_type": "single-stim", "trial_index": 44, "time_elapsed": 525613, "internal_node_id": "0.0-35.0-0.0"}}, {"uniqueid": "MTK0252:3WRFBPLXRBV3ISCGTRJL95EPAOBN3Q", "current_trial": 45, "dateTime": 1510689198263, "trialdata": {"rt": -1, "stimulus": "<p id=\"stim\">9</p>", "key_press": -1, "trial_type": "single-stim", "trial_index": 45, "time_elapsed": 526618, "internal_node_id": "0.0-35.0-1.0"}}, {"uniqueid": "MTK0252:3WRFBPLXRBV3ISCGTRJL95EPAOBN3Q", "current_trial": 46, "dateTime": 1510689199268, "trialdata": {"rt": -1, "stimulus": "<p id=\"stim\">8</p>", "key_press": -1, "trial_type": "single-stim", "trial_index": 46, "time_elapsed": 527623, "internal_node_id": "0.0-35.0-2.0"}}, {"uniqueid": "MTK0252:3WRFBPLXRBV3ISCGTRJL95EPAOBN3Q", "current_trial": 47, "dateTime": 1510689200273, "trialdata": {"rt": -1, "stimulus": "<p id=\"stim\">7</p>", "key_press": -1, "trial_type": "single-stim", "trial_index": 47, "time_elapsed": 528627, "internal_node_id": "0.0-35.0-3.0"}}, {"uniqueid": "MTK0252:3WRFBPLXRBV3ISCGTRJL95EPAOBN3Q", "current_trial": 48, "dateTime": 1510689201277, "trialdata": {"rt": -1, "stimulus": "<p id=\"stim\">6</p>", "key_press": -1, "trial_type": "single-stim", "trial_index": 48, "time_elapsed": 529632, "internal_node_id": "0.0-35.0-4.0"}}, {"uniqueid": "MTK0252:3WRFBPLXRBV3ISCGTRJL95EPAOBN3Q", "current_trial": 49, "dateTime": 1510689202281, "trialdata": {"rt": -1, "stimulus": "<p id=\"stim\">5</p>", "key_press": -1, "trial_type": "single-stim", "trial_index": 49, "time_elapsed": 530636, "internal_node_id": "0.0-35.0-5.0"}}, {"uniqueid": "MTK0252:3WRFBPLXRBV3ISCGTRJL95EPAOBN3Q", "current_trial": 50, "dateTime": 1510689203285, "trialdata": {"rt": -1, "stimulus": "<p id=\"stim\">4</p>", "key_press": -1, "trial_type": "single-stim", "trial_index": 50, "time_elapsed": 531640, "internal_node_id": "0.0-35.0-6.0"}}, {"uniqueid": "MTK0252:3WRFBPLXRBV3ISCGTRJL95EPAOBN3Q", "current_trial": 51, "dateTime": 1510689204289, "trialdata": {"rt": -1, "stimulus": "<p id=\"stim\">3</p>", "key_press": -1, "trial_type": "single-stim", "trial_index": 51, "time_elapsed": 532644, "internal_node_id": "0.0-35.0-7.0"}}, {"uniqueid": "MTK0252:3WRFBPLXRBV3ISCGTRJL95EPAOBN3Q", "current_trial": 52, "dateTime": 1510689205293, "trialdata": {"rt": -1, "stimulus": "<p id=\"stim\">2</p>", "key_press": -1, "trial_type": "single-stim", "trial_index": 52, "time_elapsed": 533648, "internal_node_id": "0.0-35.0-8.0"}}, {"uniqueid": "MTK0252:3WRFBPLXRBV3ISCGTRJL95EPAOBN3Q", "current_trial": 53, "dateTime": 1510689206299, "trialdata": {"rt": -1, "stimulus": "<p id=\"stim\">1</p>", "key_press": -1, "trial_type": "single-stim", "trial_index": 53, "time_elapsed": 534654, "internal_node_id": "0.0-35.0-9.0"}}, {"uniqueid": "MTK0252:3WRFBPLXRBV3ISCGTRJL95EPAOBN3Q", "current_trial": 54, "dateTime": 1510689207803, "trialdata": {"rt": -1, "stimulus": "<p id=\"stim\">+</p>", "key_press": -1, "type": "FIXATION", "trial_type": "single-stim", "trial_index": 54, "time_elapsed": 536158, "internal_node_id": "0.0-36.0-0.0"}}, {"uniqueid": "MTK0252:3WRFBPLXRBV3ISCGTRJL95EPAOBN3Q", "current_trial": 55, "dateTime": 1510689209841, "trialdata": {"rt": -1000, "stimulus": "/static/audio/wordpool/OZONE.wav", "key_press": -1, "type": "PRES_AUD", "word": "ozone", "wordID": 995, "conditions": [18, 1200, "a", 18000], "trial": 1, "serialpos": 0, "trial_type": "single-audio", "trial_index": 55, "time_elapsed": 538196, "internal_node_id": "0.0-37.0"}}, {"uniqueid": "MTK0252:3WRFBPLXRBV3ISCGTRJL95EPAOBN3Q", "current_trial": 56, "dateTime": 1510689212073, "trialdata": {"rt": -1000, "stimulus": "/static/audio/wordpool/COUCH.wav", "key_press": -1, "type": "PRES_AUD", "word": "couch", "wordID": 385, "conditions": [18, 1200, "a", 18000], "trial": 1, "serialpos": 1, "trial_type": "single-audio", "trial_index": 56, "time_elapsed": 540428, "internal_node_id": "0.0-38.0"}}, {"uniqueid": "MTK0252:3WRFBPLXRBV3ISCGTRJL95EPAOBN3Q", "current_trial": 57, "dateTime": 1510689214157, "trialdata": {"rt": -1000, "stimulus": "/static/audio/wordpool/COCKTAIL.wav", "key_press": -1, "type": "PRES_AUD", "word": "cocktail", "wordID": 337, "conditions": [18, 1200, "a", 18000], "trial": 1, "serialpos": 2, "trial_type": "single-audio", "trial_index": 57, "time_elapsed": 542512, "internal_node_id": "0.0-39.0"}}, {"uniqueid": "MTK0252:3WRFBPLXRBV3ISCGTRJL95EPAOBN3Q", "current_trial": 58, "dateTime": 1510689216394, "trialdata": {"rt": -1000, "stimulus": "/static/audio/wordpool/PLASTER.wav", "key_press": -1, "type": "PRES_AUD", "word": "plaster", "wordID": 1084, "conditions": [18, 1200, "a", 18000], "trial": 1, "serialpos": 3, "trial_type": "single-audio", "trial_index": 58, "time_elapsed": 544749, "internal_node_id": "0.0-40.0"}}, {"uniqueid": "MTK0252:3WRFBPLXRBV3ISCGTRJL95EPAOBN3Q", "current_trial": 59, "dateTime": 1510689218637, "trialdata": {"rt": -1000, "stimulus": "/static/audio/wordpool/BEAST.wav", "key_press": -1, "type": "PRES_AUD", "word": "beast", "wordID": 107, "conditions": [18, 1200, "a", 18000], "trial": 1, "serialpos": 4, "trial_type": "single-audio", "trial_index": 59, "time_elapsed": 546991, "internal_node_id": "0.0-41.0"}}, {"uniqueid": "MTK0252:3WRFBPLXRBV3ISCGTRJL95EPAOBN3Q", "current_trial": 60, "dateTime": 1510689220798, "trialdata": {"rt": -1000, "stimulus": "/static/audio/wordpool/RIVER.wav", "key_press": -1, "type": "PRES_AUD", "word": "river", "wordID": 1193, "conditions": [18, 1200, "a", 18000], "trial": 1, "serialpos": 5, "trial_type": "single-audio", "trial_index": 60, "time_elapsed": 549153, "internal_node_id": "0.0-42.0"}}, {"uniqueid": "MTK0252:3WRFBPLXRBV3ISCGTRJL95EPAOBN3Q", "current_trial": 61, "dateTime": 1510689223075, "trialdata": {"rt": -1000, "stimulus": "/static/audio/wordpool/CELLAR.wav", "key_press": -1, "type": "PRES_AUD", "word": "cellar", "wordID": 266, "conditions": [18, 1200, "a", 18000], "trial": 1, "serialpos": 6, "trial_type": "single-audio", "trial_index": 61, "time_elapsed": 551430, "internal_node_id": "0.0-43.0"}}, {"uniqueid": "MTK0252:3WRFBPLXRBV3ISCGTRJL95EPAOBN3Q", "current_trial": 62, "dateTime": 1510689225118, "trialdata": {"rt": -1000, "stimulus": "/static/audio/wordpool/BANKER.wav", "key_press": -1, "type": "PRES_AUD", "word": "banker", "wordID": 83, "conditions": [18, 1200, "a", 18000], "trial": 1, "serialpos": 7, "trial_type": "single-audio", "trial_index": 62, "time_elapsed": 553473, "internal_node_id": "0.0-44.0"}}, {"uniqueid": "MTK0252:3WRFBPLXRBV3ISCGTRJL95EPAOBN3Q", "current_trial": 63, "dateTime": 1510689227416, "trialdata": {"rt": -1000, "stimulus": "/static/audio/wordpool/HATCHET.wav", "key_press": -1, "type": "PRES_AUD", "word": "hatchet", "wordID": 690, "conditions": [18, 1200, "a", 18000], "trial": 1, "serialpos": 8, "trial_type": "single-audio", "trial_index": 63, "time_elapsed": 555771, "internal_node_id": "0.0-45.0"}}, {"uniqueid": "MTK0252:3WRFBPLXRBV3ISCGTRJL95EPAOBN3Q", "current_trial": 64, "dateTime": 1510689229639, "trialdata": {"rt": -1000, "stimulus": "/static/audio/wordpool/STAMP.wav", "key_press": -1, "type": "PRES_AUD", "word": "stamp", "wordID": 1369, "conditions": [18, 1200, "a", 18000], "trial": 1, "serialpos": 9, "trial_type": "single-audio", "trial_index": 64, "time_elapsed": 557994, "internal_node_id": "0.0-46.0"}}, {"uniqueid": "MTK0252:3WRFBPLXRBV3ISCGTRJL95EPAOBN3Q", "current_trial": 65, "dateTime": 1510689231773, "trialdata": {"rt": -1000, "stimulus": "/static/audio/wordpool/WAITER.wav", "key_press": -1, "type": "PRES_AUD", "word": "waiter", "wordID": 1579, "conditions": [18, 1200, "a", 18000], "trial": 1, "serialpos": 10, "trial_type": "single-audio", "trial_index": 65, "time_elapsed": 560128, "internal_node_id": "0.0-47.0"}}, {"uniqueid": "MTK0252:3WRFBPLXRBV3ISCGTRJL95EPAOBN3Q", "current_trial": 66, "dateTime": 1510689234048, "trialdata": {"rt": -1000, "stimulus": "/static/audio/wordpool/DRAGON.wav", "key_press": -1, "type": "PRES_AUD", "word": "dragon", "wordID": 491, "conditions": [18, 1200, "a", 18000], "trial": 1, "serialpos": 11, "trial_type": "single-audio", "trial_index": 66, "time_elapsed": 562403, "internal_node_id": "0.0-48.0"}}, {"uniqueid": "MTK0252:3WRFBPLXRBV3ISCGTRJL95EPAOBN3Q", "current_trial": 67, "dateTime": 1510689236324, "trialdata": {"rt": -1000, "stimulus": "/static/audio/wordpool/MATCH.wav", "key_press": -1, "type": "PRES_AUD", "word": "match", "wordID": 877, "conditions": [18, 1200, "a", 18000], "trial": 1, "serialpos": 12, "trial_type": "single-audio", "trial_index": 67, "time_elapsed": 564679, "internal_node_id": "0.0-49.0"}}, {"uniqueid": "MTK0252:3WRFBPLXRBV3ISCGTRJL95EPAOBN3Q", "current_trial": 68, "dateTime": 1510689238459, "trialdata": {"rt": -1000, "stimulus": "/static/audio/wordpool/LONDON.wav", "key_press": -1, "type": "PRES_AUD", "word": "london", "wordID": 842, "conditions": [18, 1200, "a", 18000], "trial": 1, "serialpos": 13, "trial_type": "single-audio", "trial_index": 68, "time_elapsed": 566813, "internal_node_id": "0.0-50.0"}}, {"uniqueid": "MTK0252:3WRFBPLXRBV3ISCGTRJL95EPAOBN3Q", "current_trial": 69, "dateTime": 1510689240778, "trialdata": {"rt": -1000, "stimulus": "/static/audio/wordpool/BUNNY.wav", "key_press": -1, "type": "PRES_AUD", "word": "bunny", "wordID": 197, "conditions": [18, 1200, "a", 18000], "trial": 1, "serialpos": 14, "trial_type": "single-audio", "trial_index": 69, "time_elapsed": 569133, "internal_node_id": "0.0-51.0"}}, {"uniqueid": "MTK0252:3WRFBPLXRBV3ISCGTRJL95EPAOBN3Q", "current_trial": 70, "dateTime": 1510689243033, "trialdata": {"rt": -1000, "stimulus": "/static/audio/wordpool/AUTHOR.wav", "key_press": -1, "type": "PRES_AUD", "word": "author", "wordID": 60, "conditions": [18, 1200, "a", 18000], "trial": 1, "serialpos": 15, "trial_type": "single-audio", "trial_index": 70, "time_elapsed": 571388, "internal_node_id": "0.0-52.0"}}, {"uniqueid": "MTK0252:3WRFBPLXRBV3ISCGTRJL95EPAOBN3Q", "current_trial": 71, "dateTime": 1510689245220, "trialdata": {"rt": -1000, "stimulus": "/static/audio/wordpool/JUDGE.wav", "key_press": -1, "type": "PRES_AUD", "word": "judge", "wordID": 760, "conditions": [18, 1200, "a", 18000], "trial": 1, "serialpos": 16, "trial_type": "single-audio", "trial_index": 71, "time_elapsed": 573575, "internal_node_id": "0.0-53.0"}}, {"uniqueid": "MTK0252:3WRFBPLXRBV3ISCGTRJL95EPAOBN3Q", "current_trial": 72, "dateTime": 1510689247499, "trialdata": {"rt": -1000, "stimulus": "/static/audio/wordpool/COOK.wav", "key_press": -1, "type": "PRES_AUD", "word": "cook", "wordID": 371, "conditions": [18, 1200, "a", 18000], "trial": 1, "serialpos": 17, "trial_type": "single-audio", "trial_index": 72, "time_elapsed": 575854, "internal_node_id": "0.0-54.0"}}, {"uniqueid": "MTK0252:3WRFBPLXRBV3ISCGTRJL95EPAOBN3Q", "current_trial": 73, "dateTime": 1510689248797, "trialdata": {"rt": -1, "stimulus": "", "key_press": -1, "type": "PRE_RECALL_DELAY", "trial_type": "single-stim", "trial_index": 73, "time_elapsed": 577151, "internal_node_id": "0.0-55.0-0.0"}}, {"uniqueid": "MTK0252:3WRFBPLXRBV3ISCGTRJL95EPAOBN3Q", "current_trial": 74, "dateTime": 1510689249297, "trialdata": {"rt": -1000, "stimulus": "/static/audio/400Hz.wav", "key_press": -1, "type": "PRE_RECALL_ALERT", "trial_type": "single-audio", "trial_index": 74, "time_elapsed": 577652, "internal_node_id": "0.0-56.0"}}, {"uniqueid": "MTK0252:3WRFBPLXRBV3ISCGTRJL95EPAOBN3Q", "current_trial": 75, "dateTime": 1510689309303, "trialdata": {"rt": [1798, 2776, 12710, 13566, 14443, 15580], "recwords": ["bunny", "author", "judge", "cook", "ozone", "important"], "type": "FREE_RECALL", "conditions": [18, 1200, "a", 18000], "trial": 1, "trial_type": "free-recall", "trial_index": 75, "time_elapsed": 637656, "internal_node_id": "0.0-57.0-0.0"}}, {"uniqueid": "MTK0252:3WRFBPLXRBV3ISCGTRJL95EPAOBN3Q", "current_trial": 76, "dateTime": 1510689481823, "trialdata": {"rt": 170515, "key_press": 32, "type": "INSTRUCTIONS", "trial_type": "text", "trial_index": 76, "time_elapsed": 810176, "internal_node_id": "0.0-58.0"}}, {"uniqueid": "MTK0252:3WRFBPLXRBV3ISCGTRJL95EPAOBN3Q", "current_trial": 77, "dateTime": 1510689506831, "trialdata": {"rt": [2638, 4955, 7025, 9489, 11638, 13832, 17533, 19480, 21538], "responses": ["15", "10", "8", "17", "15", "15", "25", "11", "9"], "num1": [8, 3, 4, 3, 2, 7, 8, 1, 5, 5], "num2": [3, 5, 1, 5, 8, 1, 9, 8, 2, 8], "num3": [4, 2, 3, 9, 5, 7, 8, 2, 2, 3], "type": "DISTRACTOR", "conditions": [12, 800, "a", 24000], "trial": 2, "trial_type": "math-distractor", "trial_index": 77, "time_elapsed": 835186, "internal_node_id": "0.0-59.0"}}, {"uniqueid": "MTK0252:3WRFBPLXRBV3ISCGTRJL95EPAOBN3Q", "current_trial": 78, "dateTime": 1510689509839, "trialdata": {"rt": -1, "stimulus": "<p id=\"stim\">10</p>", "key_press": -1, "trial_type": "single-stim", "trial_index": 78, "time_elapsed": 838194, "internal_node_id": "0.0-60.0-0.0"}}, {"uniqueid": "MTK0252:3WRFBPLXRBV3ISCGTRJL95EPAOBN3Q", "current_trial": 79, "dateTime": 1510689510844, "trialdata": {"rt": -1, "stimulus": "<p id=\"stim\">9</p>", "key_press": -1, "trial_type": "single-stim", "trial_index": 79, "time_elapsed": 839199, "internal_node_id": "0.0-60.0-1.0"}}, {"uniqueid": "MTK0252:3WRFBPLXRBV3ISCGTRJL95EPAOBN3Q", "current_trial": 80, "dateTime": 1510689511847, "trialdata": {"rt": -1, "stimulus": "<p id=\"stim\">8</p>", "key_press": -1, "trial_type": "single-stim", "trial_index": 80, "time_elapsed": 840202, "internal_node_id": "0.0-60.0-2.0"}}, {"uniqueid": "MTK0252:3WRFBPLXRBV3ISCGTRJL95EPAOBN3Q", "current_trial": 81, "dateTime": 1510689512851, "trialdata": {"rt": -1, "stimulus": "<p id=\"stim\">7</p>", "key_press": -1, "trial_type": "single-stim", "trial_index": 81, "time_elapsed": 841206, "internal_node_id": "0.0-60.0-3.0"}}, {"uniqueid": "MTK0252:3WRFBPLXRBV3ISCGTRJL95EPAOBN3Q", "current_trial": 82, "dateTime": 1510689513857, "trialdata": {"rt": -1, "stimulus": "<p id=\"stim\">6</p>", "key_press": -1, "trial_type": "single-stim", "trial_index": 82, "time_elapsed": 842211, "internal_node_id": "0.0-60.0-4.0"}}, {"uniqueid": "MTK0252:3WRFBPLXRBV3ISCGTRJL95EPAOBN3Q", "current_trial": 83, "dateTime": 1510689514858, "trialdata": {"rt": -1, "stimulus": "<p id=\"stim\">5</p>", "key_press": -1, "trial_type": "single-stim", "trial_index": 83, "time_elapsed": 843212, "internal_node_id": "0.0-60.0-5.0"}}, {"uniqueid": "MTK0252:3WRFBPLXRBV3ISCGTRJL95EPAOBN3Q", "current_trial": 84, "dateTime": 1510689515859, "trialdata": {"rt": -1, "stimulus": "<p id=\"stim\">4</p>", "key_press": -1, "trial_type": "single-stim", "trial_index": 84, "time_elapsed": 844214, "internal_node_id": "0.0-60.0-6.0"}}, {"uniqueid": "MTK0252:3WRFBPLXRBV3ISCGTRJL95EPAOBN3Q", "current_trial": 85, "dateTime": 1510689516860, "trialdata": {"rt": -1, "stimulus": "<p id=\"stim\">3</p>", "key_press": -1, "trial_type": "single-stim", "trial_index": 85, "time_elapsed": 845215, "internal_node_id": "0.0-60.0-7.0"}}, {"uniqueid": "MTK0252:3WRFBPLXRBV3ISCGTRJL95EPAOBN3Q", "current_trial": 86, "dateTime": 1510689517863, "trialdata": {"rt": -1, "stimulus": "<p id=\"stim\">2</p>", "key_press": -1, "trial_type": "single-stim", "trial_index": 86, "time_elapsed": 846218, "internal_node_id": "0.0-60.0-8.0"}}, {"uniqueid": "MTK0252:3WRFBPLXRBV3ISCGTRJL95EPAOBN3Q", "current_trial": 87, "dateTime": 1510689518867, "trialdata": {"rt": -1, "stimulus": "<p id=\"stim\">1</p>", "key_press": -1, "trial_type": "single-stim", "trial_index": 87, "time_elapsed": 847222, "internal_node_id": "0.0-60.0-9.0"}}, {"uniqueid": "MTK0252:3WRFBPLXRBV3ISCGTRJL95EPAOBN3Q", "current_trial": 88, "dateTime": 1510689520371, "trialdata": {"rt": -1, "stimulus": "<p id=\"stim\">+</p>", "key_press": -1, "type": "FIXATION", "trial_type": "single-stim", "trial_index": 88, "time_elapsed": 848726, "internal_node_id": "0.0-61.0-0.0"}}, {"uniqueid": "MTK0252:3WRFBPLXRBV3ISCGTRJL95EPAOBN3Q", "current_trial": 89, "dateTime": 1510689522346, "trialdata": {"rt": -1000, "stimulus": "/static/audio/wordpool/SPHINX.wav", "key_press": -1, "type": "PRES_AUD", "word": "sphinx", "wordID": 1348, "conditions": [12, 800, "a", 24000], "trial": 2, "serialpos": 0, "trial_type": "single-audio", "trial_index": 89, "time_elapsed": 850701, "internal_node_id": "0.0-62.0"}}, {"uniqueid": "MTK0252:3WRFBPLXRBV3ISCGTRJL95EPAOBN3Q", "current_trial": 90, "dateTime": 1510689524111, "trialdata": {"rt": -1000, "stimulus": "/static/audio/wordpool/TRANSPLANT.wav", "key_press": -1, "type": "PRES_AUD", "word": "transplant", "wordID": 1495, "conditions": [12, 800, "a", 24000], "trial": 2, "serialpos": 1, "trial_type": "single-audio", "trial_index": 90, "time_elapsed": 852466, "internal_node_id": "0.0-63.0"}}, {"uniqueid": "MTK0252:3WRFBPLXRBV3ISCGTRJL95EPAOBN3Q", "current_trial": 91, "dateTime": 1510689525803, "trialdata": {"rt": -1000, "stimulus": "/static/audio/wordpool/JAPAN.wav", "key_press": -1, "type": "PRES_AUD", "word": "japan", "wordID": 748, "conditions": [12, 800, "a", 24000], "trial": 2, "serialpos": 2, "trial_type": "single-audio", "trial_index": 91, "time_elapsed": 854158, "internal_node_id": "0.0-64.0"}}, {"uniqueid": "MTK0252:3WRFBPLXRBV3ISCGTRJL95EPAOBN3Q", "current_trial": 92, "dateTime": 1510689527466, "trialdata": {"rt": -1000, "stimulus": "/static/audio/wordpool/HORNET.wav", "key_press": -1, "type": "PRES_AUD", "word": "hornet", "wordID": 717, "conditions": [12, 800, "a", 24000], "trial": 2, "serialpos": 3, "trial_type": "single-audio", "trial_index": 92, "time_elapsed": 855821, "internal_node_id": "0.0-65.0"}}, {"uniqueid": "MTK0252:3WRFBPLXRBV3ISCGTRJL95EPAOBN3Q", "current_trial": 93, "dateTime": 1510689529280, "trialdata": {"rt": -1000, "stimulus": "/static/audio/wordpool/PIANO.wav", "key_press": -1, "type": "PRES_AUD", "word": "piano", "wordID": 1056, "conditions": [12, 800, "a", 24000], "trial": 2, "serialpos": 4, "trial_type": "single-audio", "trial_index": 93, "time_elapsed": 857635, "internal_node_id": "0.0-66.0"}}, {"uniqueid": "MTK0252:3WRFBPLXRBV3ISCGTRJL95EPAOBN3Q", "current_trial": 94, "dateTime": 1510689531176, "trialdata": {"rt": -1000, "stimulus": "/static/audio/wordpool/BELLY.wav", "key_press": -1, "type": "PRES_AUD", "word": "belly", "wordID": 118, "conditions": [12, 800, "a", 24000], "trial": 2, "serialpos": 5, "trial_type": "single-audio", "trial_index": 94, "time_elapsed": 859531, "internal_node_id": "0.0-67.0"}}, {"uniqueid": "MTK0252:3WRFBPLXRBV3ISCGTRJL95EPAOBN3Q", "current_trial": 95, "dateTime": 1510689532875, "trialdata": {"rt": -1000, "stimulus": "/static/audio/wordpool/PORK.wav", "key_press": -1, "type": "PRES_AUD", "word": "pork", "wordID": 1107, "conditions": [12, 800, "a", 24000], "trial": 2, "serialpos": 6, "trial_type": "single-audio", "trial_index": 95, "time_elapsed": 861230, "internal_node_id": "0.0-68.0"}}, {"uniqueid": "MTK0252:3WRFBPLXRBV3ISCGTRJL95EPAOBN3Q", "current_trial": 96, "dateTime": 1510689534838, "trialdata": {"rt": -1000, "stimulus": "/static/audio/wordpool/STOMACH.wav", "key_press": -1, "type": "PRES_AUD", "word": "stomach", "wordID": 1383, "conditions": [12, 800, "a", 24000], "trial": 2, "serialpos": 7, "trial_type": "single-audio", "trial_index": 96, "time_elapsed": 863193, "internal_node_id": "0.0-69.0"}}, {"uniqueid": "MTK0252:3WRFBPLXRBV3ISCGTRJL95EPAOBN3Q", "current_trial": 97, "dateTime": 1510689536472, "trialdata": {"rt": -1000, "stimulus": "/static/audio/wordpool/CHEST.wav", "key_press": -1, "type": "PRES_AUD", "word": "chest", "wordID": 294, "conditions": [12, 800, "a", 24000], "trial": 2, "serialpos": 8, "trial_type": "single-audio", "trial_index": 97, "time_elapsed": 864827, "internal_node_id": "0.0-70.0"}}, {"uniqueid": "MTK0252:3WRFBPLXRBV3ISCGTRJL95EPAOBN3Q", "current_trial": 98, "dateTime": 1510689538459, "trialdata": {"rt": -1000, "stimulus": "/static/audio/wordpool/CAPTIVE.wav", "key_press": -1, "type": "PRES_AUD", "word": "captive", "wordID": 239, "conditions": [12, 800, "a", 24000], "trial": 2, "serialpos": 9, "trial_type": "single-audio", "trial_index": 98, "time_elapsed": 866814, "internal_node_id": "0.0-71.0"}}, {"uniqueid": "MTK0252:3WRFBPLXRBV3ISCGTRJL95EPAOBN3Q", "current_trial": 99, "dateTime": 1510689540072, "trialdata": {"rt": -1000, "stimulus": "/static/audio/wordpool/COD.wav", "key_press": -1, "type": "PRES_AUD", "word": "cod", "wordID": 339, "conditions": [12, 800, "a", 24000], "trial": 2, "serialpos": 10, "trial_type": "single-audio", "trial_index": 99, "time_elapsed": 868427, "internal_node_id": "0.0-72.0"}}, {"uniqueid": "MTK0252:3WRFBPLXRBV3ISCGTRJL95EPAOBN3Q", "current_trial": 100, "dateTime": 1510689541823, "trialdata": {"rt": -1000, "stimulus": "/static/audio/wordpool/BEEF.wav", "key_press": -1, "type": "PRES_AUD", "word": "beef", "wordID": 112, "conditions": [12, 800, "a", 24000], "trial": 2, "serialpos": 11, "trial_type": "single-audio", "trial_index": 100, "time_elapsed": 870178, "internal_node_id": "0.0-73.0"}}, {"uniqueid": "MTK0252:3WRFBPLXRBV3ISCGTRJL95EPAOBN3Q", "current_trial": 101, "dateTime": 1510689543175, "trialdata": {"rt": -1, "stimulus": "", "key_press": -1, "type": "PRE_RECALL_DELAY", "trial_type": "single-stim", "trial_index": 101, "time_elapsed": 871530, "internal_node_id": "0.0-74.0-0.0"}}, {"uniqueid": "MTK0252:3WRFBPLXRBV3ISCGTRJL95EPAOBN3Q", "current_trial": 102, "dateTime": 1510689543677, "trialdata": {"rt": -1000, "stimulus": "/static/audio/400Hz.wav", "key_press": -1, "type": "PRE_RECALL_ALERT", "trial_type": "single-audio", "trial_index": 102, "time_elapsed": 872032, "internal_node_id": "0.0-75.0"}}, {"uniqueid": "MTK0252:3WRFBPLXRBV3ISCGTRJL95EPAOBN3Q", "current_trial": 103, "dateTime": 1510689603682, "trialdata": {"rt": [4814, 8257, 9618, 11384, 12171, 14467, 16346, 18146, 22308], "recwords": ["space", "captive", "chest", "belly", "pork", "hornet", "japan", "piano", "stomach"], "type": "FREE_RECALL", "conditions": [12, 800, "a", 24000], "trial": 2, "trial_type": "free-recall", "trial_index": 103, "time_elapsed": 932036, "internal_node_id": "0.0-76.0-0.0"}}, {"uniqueid": "MTK0252:3WRFBPLXRBV3ISCGTRJL95EPAOBN3Q", "current_trial": 104, "dateTime": 1510689625040, "trialdata": {"rt": 19353, "key_press": 32, "type": "INSTRUCTIONS", "trial_type": "text", "trial_index": 104, "time_elapsed": 953394, "internal_node_id": "0.0-77.0"}}, {"uniqueid": "MTK0252:3WRFBPLXRBV3ISCGTRJL95EPAOBN3Q", "current_trial": 105, "dateTime": 1510689639044, "trialdata": {"rt": [3363, 6165, 8235, 11486], "responses": ["13", "16", "14", "16"], "num1": [6, 5, 4, 8, 8], "num2": [5, 9, 7, 3, 4], "num3": [2, 2, 3, 5, 5], "type": "DISTRACTOR", "conditions": [24, 1600, "v", 12000], "trial": 3, "trial_type": "math-distractor", "trial_index": 105, "time_elapsed": 967399, "internal_node_id": "0.0-78.0"}}, {"uniqueid": "MTK0252:3WRFBPLXRBV3ISCGTRJL95EPAOBN3Q", "current_trial": 106, "dateTime": 1510689642051, "trialdata": {"rt": -1, "stimulus": "<p id=\"stim\">10</p>", "key_press": -1, "trial_type": "single-stim", "trial_index": 106, "time_elapsed": 970406, "internal_node_id": "0.0-79.0-0.0"}}, {"uniqueid": "MTK0252:3WRFBPLXRBV3ISCGTRJL95EPAOBN3Q", "current_trial": 107, "dateTime": 1510689643056, "trialdata": {"rt": -1, "stimulus": "<p id=\"stim\">9</p>", "key_press": -1, "trial_type": "single-stim", "trial_index": 107, "time_elapsed": 971411, "internal_node_id": "0.0-79.0-1.0"}}, {"uniqueid": "MTK0252:3WRFBPLXRBV3ISCGTRJL95EPAOBN3Q", "current_trial": 108, "dateTime": 1510689644059, "trialdata": {"rt": -1, "stimulus": "<p id=\"stim\">8</p>", "key_press": -1, "trial_type": "single-stim", "trial_index": 108, "time_elapsed": 972414, "internal_node_id": "0.0-79.0-2.0"}}, {"uniqueid": "MTK0252:3WRFBPLXRBV3ISCGTRJL95EPAOBN3Q", "current_trial": 109, "dateTime": 1510689645061, "trialdata": {"rt": -1, "stimulus": "<p id=\"stim\">7</p>", "key_press": -1, "trial_type": "single-stim", "trial_index": 109, "time_elapsed": 973416, "internal_node_id": "0.0-79.0-3.0"}}, {"uniqueid": "MTK0252:3WRFBPLXRBV3ISCGTRJL95EPAOBN3Q", "current_trial": 110, "dateTime": 1510689646064, "trialdata": {"rt": -1, "stimulus": "<p id=\"stim\">6</p>", "key_press": -1, "trial_type": "single-stim", "trial_index": 110, "time_elapsed": 974419, "internal_node_id": "0.0-79.0-4.0"}}, {"uniqueid": "MTK0252:3WRFBPLXRBV3ISCGTRJL95EPAOBN3Q", "current_trial": 111, "dateTime": 1510689647069, "trialdata": {"rt": -1, "stimulus": "<p id=\"stim\">5</p>", "key_press": -1, "trial_type": "single-stim", "trial_index": 111, "time_elapsed": 975424, "internal_node_id": "0.0-79.0-5.0"}}, {"uniqueid": "MTK0252:3WRFBPLXRBV3ISCGTRJL95EPAOBN3Q", "current_trial": 112, "dateTime": 1510689648072, "trialdata": {"rt": -1, "stimulus": "<p id=\"stim\">4</p>", "key_press": -1, "trial_type": "single-stim", "trial_index": 112, "time_elapsed": 976427, "internal_node_id": "0.0-79.0-6.0"}}, {"uniqueid": "MTK0252:3WRFBPLXRBV3ISCGTRJL95EPAOBN3Q", "current_trial": 113, "dateTime": 1510689649077, "trialdata": {"rt": -1, "stimulus": "<p id=\"stim\">3</p>", "key_press": -1, "trial_type": "single-stim", "trial_index": 113, "time_elapsed": 977431, "internal_node_id": "0.0-79.0-7.0"}}, {"uniqueid": "MTK0252:3WRFBPLXRBV3ISCGTRJL95EPAOBN3Q", "current_trial": 114, "dateTime": 1510689650081, "trialdata": {"rt": -1, "stimulus": "<p id=\"stim\">2</p>", "key_press": -1, "trial_type": "single-stim", "trial_index": 114, "time_elapsed": 978436, "internal_node_id": "0.0-79.0-8.0"}}, {"uniqueid": "MTK0252:3WRFBPLXRBV3ISCGTRJL95EPAOBN3Q", "current_trial": 115, "dateTime": 1510689651086, "trialdata": {"rt": -1, "stimulus": "<p id=\"stim\">1</p>", "key_press": -1, "trial_type": "single-stim", "trial_index": 115, "time_elapsed": 979441, "internal_node_id": "0.0-79.0-9.0"}}, {"uniqueid": "MTK0252:3WRFBPLXRBV3ISCGTRJL95EPAOBN3Q", "current_trial": 116, "dateTime": 1510689652587, "trialdata": {"rt": -1, "stimulus": "<p id=\"stim\">+</p>", "key_press": -1, "type": "FIXATION", "trial_type": "single-stim", "trial_index": 116, "time_elapsed": 980942, "internal_node_id": "0.0-80.0-0.0"}}, {"uniqueid": "MTK0252:3WRFBPLXRBV3ISCGTRJL95EPAOBN3Q", "current_trial": 117, "dateTime": 1510689654191, "trialdata": {"rt": -1, "stimulus": "<p id=\"stim\">PIGEON</p>", "key_press": -1, "type": "PRES_VIS", "word": "pigeon", "wordID": 1064, "conditions": [24, 1600, "v", 12000], "trial": 3, "serialpos": 0, "trial_type": "single-stim", "trial_index": 117, "time_elapsed": 982546, "internal_node_id": "0.0-81.0"}}, {"uniqueid": "MTK0252:3WRFBPLXRBV3ISCGTRJL95EPAOBN3Q", "current_trial": 118, "dateTime": 1510689656891, "trialdata": {"rt": -1, "stimulus": "<p id=\"stim\">MARSH</p>", "key_press": -1, "type": "PRES_VIS", "word": "marsh", "wordID": 873, "conditions": [24, 1600, "v", 12000], "trial": 3, "serialpos": 1, "trial_type": "single-stim", "trial_index": 118, "time_elapsed": 985246, "internal_node_id": "0.0-82.0"}}, {"uniqueid": "MTK0252:3WRFBPLXRBV3ISCGTRJL95EPAOBN3Q", "current_trial": 119, "dateTime": 1510689659667, "trialdata": {"rt": -1, "stimulus": "<p id=\"stim\">BUG</p>", "key_press": -1, "type": "PRES_VIS", "word": "bug", "wordID": 186, "conditions": [24, 1600, "v", 12000], "trial": 3, "serialpos": 2, "trial_type": "single-stim", "trial_index": 119, "time_elapsed": 988022, "internal_node_id": "0.0-83.0"}}, {"uniqueid": "MTK0252:3WRFBPLXRBV3ISCGTRJL95EPAOBN3Q", "current_trial": 120, "dateTime": 1510689662406, "trialdata": {"rt": -1, "stimulus": "<p id=\"stim\">ASIA</p>", "key_press": -1, "type": "PRES_VIS", "word": "asia", "wordID": 45, "conditions": [24, 1600, "v", 12000], "trial": 3, "serialpos": 3, "trial_type": "single-stim", "trial_index": 120, "time_elapsed": 990761, "internal_node_id": "0.0-84.0"}}, {"uniqueid": "MTK0252:3WRFBPLXRBV3ISCGTRJL95EPAOBN3Q", "current_trial": 121, "dateTime": 1510689664853, "trialdata": {"rt": -1, "stimulus": "<p id=\"stim\">WAITRESS</p>", "key_press": -1, "type": "PRES_VIS", "word": "waitress", "wordID": 1580, "conditions": [24, 1600, "v", 12000], "trial": 3, "serialpos": 4, "trial_type": "single-stim", "trial_index": 121, "time_elapsed": 993207, "internal_node_id": "0.0-85.0"}}, {"uniqueid": "MTK0252:3WRFBPLXRBV3ISCGTRJL95EPAOBN3Q", "current_trial": 122, "dateTime": 1510689667429, "trialdata": {"rt": -1, "stimulus": "<p id=\"stim\">HOSTESS</p>", "key_press": -1, "type": "PRES_VIS", "word": "hostess", "wordID": 722, "conditions": [24, 1600, "v", 12000], "trial": 3, "serialpos": 5, "trial_type": "single-stim", "trial_index": 122, "time_elapsed": 995784, "internal_node_id": "0.0-86.0"}}, {"uniqueid": "MTK0252:3WRFBPLXRBV3ISCGTRJL95EPAOBN3Q", "current_trial": 123, "dateTime": 1510689669919, "trialdata": {"rt": -1, "stimulus": "<p id=\"stim\">VIRUS</p>", "key_press": -1, "type": "PRES_VIS", "word": "virus", "wordID": 1571, "conditions": [24, 1600, "v", 12000], "trial": 3, "serialpos": 6, "trial_type": "single-stim", "trial_index": 123, "time_elapsed": 998274, "internal_node_id": "0.0-87.0"}}, {"uniqueid": "MTK0252:3WRFBPLXRBV3ISCGTRJL95EPAOBN3Q", "current_trial": 124, "dateTime": 1510689672716, "trialdata": {"rt": -1, "stimulus": "<p id=\"stim\">SNAKE</p>", "key_press": -1, "type": "PRES_VIS", "word": "snake", "wordID": 1332, "conditions": [24, 1600, "v", 12000], "trial": 3, "serialpos": 7, "trial_type": "single-stim", "trial_index": 124, "time_elapsed": 1001071, "internal_node_id": "0.0-88.0"}}, {"uniqueid": "MTK0252:3WRFBPLXRBV3ISCGTRJL95EPAOBN3Q", "current_trial": 125, "dateTime": 1510689675134, "trialdata": {"rt": -1, "stimulus": "<p id=\"stim\">WHISTLE</p>", "key_press": -1, "type": "PRES_VIS", "word": "whistle", "wordID": 1605, "conditions": [24, 1600, "v", 12000], "trial": 3, "serialpos": 8, "trial_type": "single-stim", "trial_index": 125, "time_elapsed": 1003489, "internal_node_id": "0.0-89.0"}}, {"uniqueid": "MTK0252:3WRFBPLXRBV3ISCGTRJL95EPAOBN3Q", "current_trial": 126, "dateTime": 1510689677751, "trialdata": {"rt": -1, "stimulus": "<p id=\"stim\">RACKET</p>", "key_press": -1, "type": "PRES_VIS", "word": "racket", "wordID": 1154, "conditions": [24, 1600, "v", 12000], "trial": 3, "serialpos": 9, "trial_type": "single-stim", "trial_index": 126, "time_elapsed": 1006106, "internal_node_id": "0.0-90.0"}}, {"uniqueid": "MTK0252:3WRFBPLXRBV3ISCGTRJL95EPAOBN3Q", "current_trial": 127, "dateTime": 1510689680518, "trialdata": {"rt": -1, "stimulus": "<p id=\"stim\">PADDLE</p>", "key_press": -1, "type": "PRES_VIS", "word": "paddle", "wordID": 999, "conditions": [24, 1600, "v", 12000], "trial": 3, "serialpos": 10, "trial_type": "single-stim", "trial_index": 127, "time_elapsed": 1008873, "internal_node_id": "0.0-91.0"}}, {"uniqueid": "MTK0252:3WRFBPLXRBV3ISCGTRJL95EPAOBN3Q", "current_trial": 128, "dateTime": 1510689683066, "trialdata": {"rt": -1, "stimulus": "<p id=\"stim\">ORANGE</p>", "key_press": -1, "type": "PRES_VIS", "word": "orange", "wordID": 979, "conditions": [24, 1600, "v", 12000], "trial": 3, "serialpos": 11, "trial_type": "single-stim", "trial_index": 128, "time_elapsed": 1011421, "internal_node_id": "0.0-92.0"}}, {"uniqueid": "MTK0252:3WRFBPLXRBV3ISCGTRJL95EPAOBN3Q", "current_trial": 129, "dateTime": 1510689685642, "trialdata": {"rt": -1, "stimulus": "<p id=\"stim\">RADISH</p>", "key_press": -1, "type": "PRES_VIS", "word": "radish", "wordID": 1157, "conditions": [24, 1600, "v", 12000], "trial": 3, "serialpos": 12, "trial_type": "single-stim", "trial_index": 129, "time_elapsed": 1013997, "internal_node_id": "0.0-93.0"}}, {"uniqueid": "MTK0252:3WRFBPLXRBV3ISCGTRJL95EPAOBN3Q", "current_trial": 130, "dateTime": 1510689688074, "trialdata": {"rt": -1, "stimulus": "<p id=\"stim\">TRIBE</p>", "key_press": -1, "type": "PRES_VIS", "word": "tribe", "wordID": 1504, "conditions": [24, 1600, "v", 12000], "trial": 3, "serialpos": 13, "trial_type": "single-stim", "trial_index": 130, "time_elapsed": 1016429, "internal_node_id": "0.0-94.0"}}, {"uniqueid": "MTK0252:3WRFBPLXRBV3ISCGTRJL95EPAOBN3Q", "current_trial": 131, "dateTime": 1510689690838, "trialdata": {"rt": -1, "stimulus": "<p id=\"stim\">CRICKET</p>", "key_press": -1, "type": "PRES_VIS", "word": "cricket", "wordID": 407, "conditions": [24, 1600, "v", 12000], "trial": 3, "serialpos": 14, "trial_type": "single-stim", "trial_index": 131, "time_elapsed": 1019193, "internal_node_id": "0.0-95.0"}}, {"uniqueid": "MTK0252:3WRFBPLXRBV3ISCGTRJL95EPAOBN3Q", "current_trial": 132, "dateTime": 1510689693531, "trialdata": {"rt": -1, "stimulus": "<p id=\"stim\">TROMBONE</p>", "key_press": -1, "type": "PRES_VIS", "word": "trombone", "wordID": 1507, "conditions": [24, 1600, "v", 12000], "trial": 3, "serialpos": 15, "trial_type": "single-stim", "trial_index": 132, "time_elapsed": 1021885, "internal_node_id": "0.0-96.0"}}, {"uniqueid": "MTK0252:3WRFBPLXRBV3ISCGTRJL95EPAOBN3Q", "current_trial": 133, "dateTime": 1510689696253, "trialdata": {"rt": -1, "stimulus": "<p id=\"stim\">FRIEND</p>", "key_press": -1, "type": "PRES_VIS", "word": "friend", "wordID": 605, "conditions": [24, 1600, "v", 12000], "trial": 3, "serialpos": 16, "trial_type": "single-stim", "trial_index": 133, "time_elapsed": 1024608, "internal_node_id": "0.0-97.0"}}, {"uniqueid": "MTK0252:3WRFBPLXRBV3ISCGTRJL95EPAOBN3Q", "current_trial": 134, "dateTime": 1510689698712, "trialdata": {"rt": -1, "stimulus": "<p id=\"stim\">WIFE</p>", "key_press": -1, "type": "PRES_VIS", "word": "wife", "wordID": 1608, "conditions": [24, 1600, "v", 12000], "trial": 3, "serialpos": 17, "trial_type": "single-stim", "trial_index": 134, "time_elapsed": 1027067, "internal_node_id": "0.0-98.0"}}, {"uniqueid": "MTK0252:3WRFBPLXRBV3ISCGTRJL95EPAOBN3Q", "current_trial": 135, "dateTime": 1510689701466, "trialdata": {"rt": -1, "stimulus": "<p id=\"stim\">BUCKET</p>", "key_press": -1, "type": "PRES_VIS", "word": "bucket", "wordID": 183, "conditions": [24, 1600, "v", 12000], "trial": 3, "serialpos": 18, "trial_type": "single-stim", "trial_index": 135, "time_elapsed": 1029821, "internal_node_id": "0.0-99.0"}}, {"uniqueid": "MTK0252:3WRFBPLXRBV3ISCGTRJL95EPAOBN3Q", "current_trial": 136, "dateTime": 1510689703891, "trialdata": {"rt": -1, "stimulus": "<p id=\"stim\">SUSPECT</p>", "key_press": -1, "type": "PRES_VIS", "word": "suspect", "wordID": 1414, "conditions": [24, 1600, "v", 12000], "trial": 3, "serialpos": 19, "trial_type": "single-stim", "trial_index": 136, "time_elapsed": 1032246, "internal_node_id": "0.0-100.0"}}, {"uniqueid": "MTK0252:3WRFBPLXRBV3ISCGTRJL95EPAOBN3Q", "current_trial": 137, "dateTime": 1510689706676, "trialdata": {"rt": -1, "stimulus": "<p id=\"stim\">BRIEFCASE</p>", "key_press": -1, "type": "PRES_VIS", "word": "briefcase", "wordID": 174, "conditions": [24, 1600, "v", 12000], "trial": 3, "serialpos": 20, "trial_type": "single-stim", "trial_index": 137, "time_elapsed": 1035030, "internal_node_id": "0.0-101.0"}}, {"uniqueid": "MTK0252:3WRFBPLXRBV3ISCGTRJL95EPAOBN3Q", "current_trial": 138, "dateTime": 1510689709345, "trialdata": {"rt": -1, "stimulus": "<p id=\"stim\">LETTUCE</p>", "key_press": -1, "type": "PRES_VIS", "word": "lettuce", "wordID": 813, "conditions": [24, 1600, "v", 12000], "trial": 3, "serialpos": 21, "trial_type": "single-stim", "trial_index": 138, "time_elapsed": 1037700, "internal_node_id": "0.0-102.0"}}, {"uniqueid": "MTK0252:3WRFBPLXRBV3ISCGTRJL95EPAOBN3Q", "current_trial": 139, "dateTime": 1510689711865, "trialdata": {"rt": -1, "stimulus": "<p id=\"stim\">CRAB</p>", "key_press": -1, "type": "PRES_VIS", "word": "crab", "wordID": 396, "conditions": [24, 1600, "v", 12000], "trial": 3, "serialpos": 22, "trial_type": "single-stim", "trial_index": 139, "time_elapsed": 1040220, "internal_node_id": "0.0-103.0"}}, {"uniqueid": "MTK0252:3WRFBPLXRBV3ISCGTRJL95EPAOBN3Q", "current_trial": 140, "dateTime": 1510689714585, "trialdata": {"rt": -1, "stimulus": "<p id=\"stim\">FIREPLACE</p>", "key_press": -1, "type": "PRES_VIS", "word": "fireplace", "wordID": 569, "conditions": [24, 1600, "v", 12000], "trial": 3, "serialpos": 23, "trial_type": "single-stim", "trial_index": 140, "time_elapsed": 1042940, "internal_node_id": "0.0-104.0"}}, {"uniqueid": "MTK0252:3WRFBPLXRBV3ISCGTRJL95EPAOBN3Q", "current_trial": 141, "dateTime": 1510689716767, "trialdata": {"rt": -1, "stimulus": "", "key_press": -1, "type": "PRE_RECALL_DELAY", "trial_type": "single-stim", "trial_index": 141, "time_elapsed": 1045122, "internal_node_id": "0.0-105.0-0.0"}}, {"uniqueid": "MTK0252:3WRFBPLXRBV3ISCGTRJL95EPAOBN3Q", "current_trial": 142, "dateTime": 1510689717268, "trialdata": {"rt": -1000, "stimulus": "/static/audio/400Hz.wav", "key_press": -1, "type": "PRE_RECALL_ALERT", "trial_type": "single-audio", "trial_index": 142, "time_elapsed": 1045622, "internal_node_id": "0.0-106.0"}}, {"uniqueid": "MTK0252:3WRFBPLXRBV3ISCGTRJL95EPAOBN3Q", "current_trial": 143, "dateTime": 1510689777274, "trialdata": {"rt": [6674, 9554, 10983, 12153, 14122, 15258, 16822, 18588, 19477, 21705], "recwords": ["fireplace", "friend", "orange", "racket", "virus", "snake", "hostess", "asia", "big", "bug"], "type": "FREE_RECALL", "conditions": [24, 1600, "v", 12000], "trial": 3, "trial_type": "free-recall", "trial_index": 143, "time_elapsed": 1105627, "internal_node_id": "0.0-107.0-0.0"}}, {"uniqueid": "MTK0252:3WRFBPLXRBV3ISCGTRJL95EPAOBN3Q", "current_trial": 144, "dateTime": 1510689797599, "trialdata": {"rt": 18321, "key_press": 32, "type": "INSTRUCTIONS", "trial_type": "text", "trial_index": 144, "time_elapsed": 1125954, "internal_node_id": "0.0-108.0"}}, {"uniqueid": "MTK0252:3WRFBPLXRBV3ISCGTRJL95EPAOBN3Q", "current_trial": 145, "dateTime": 1510689823606, "trialdata": {"rt": [2824, 6210, 8787, 16246, 21500], "responses": ["16", "18", "10", "25", "22"], "num1": [8, 9, 4, 6, 7, 9], "num2": [4, 6, 1, 9, 6, 2], "num3": [4, 3, 5, 8, 8, 7], "type": "DISTRACTOR", "conditions": [12, 800, "v", 24000], "trial": 4, "trial_type": "math-distractor", "trial_index": 145, "time_elapsed": 1151960, "internal_node_id": "0.0-109.0"}}, {"uniqueid": "MTK0252:3WRFBPLXRBV3ISCGTRJL95EPAOBN3Q", "current_trial": 146, "dateTime": 1510689826613, "trialdata": {"rt": -1, "stimulus": "<p id=\"stim\">10</p>", "key_press": -1, "trial_type": "single-stim", "trial_index": 146, "time_elapsed": 1154968, "internal_node_id": "0.0-110.0-0.0"}}, {"uniqueid": "MTK0252:3WRFBPLXRBV3ISCGTRJL95EPAOBN3Q", "current_trial": 147, "dateTime": 1510689827616, "trialdata": {"rt": -1, "stimulus": "<p id=\"stim\">9</p>", "key_press": -1, "trial_type": "single-stim", "trial_index": 147, "time_elapsed": 1155971, "internal_node_id": "0.0-110.0-1.0"}}, {"uniqueid": "MTK0252:3WRFBPLXRBV3ISCGTRJL95EPAOBN3Q", "current_trial": 148, "dateTime": 1510689828621, "trialdata": {"rt": -1, "stimulus": "<p id=\"stim\">8</p>", "key_press": -1, "trial_type": "single-stim", "trial_index": 148, "time_elapsed": 1156976, "internal_node_id": "0.0-110.0-2.0"}}, {"uniqueid": "MTK0252:3WRFBPLXRBV3ISCGTRJL95EPAOBN3Q", "current_trial": 149, "dateTime": 1510689829625, "trialdata": {"rt": -1, "stimulus": "<p id=\"stim\">7</p>", "key_press": -1, "trial_type": "single-stim", "trial_index": 149, "time_elapsed": 1157980, "internal_node_id": "0.0-110.0-3.0"}}, {"uniqueid": "MTK0252:3WRFBPLXRBV3ISCGTRJL95EPAOBN3Q", "current_trial": 150, "dateTime": 1510689830630, "trialdata": {"rt": -1, "stimulus": "<p id=\"stim\">6</p>", "key_press": -1, "trial_type": "single-stim", "trial_index": 150, "time_elapsed": 1158985, "internal_node_id": "0.0-110.0-4.0"}}, {"uniqueid": "MTK0252:3WRFBPLXRBV3ISCGTRJL95EPAOBN3Q", "current_trial": 151, "dateTime": 1510689831635, "trialdata": {"rt": -1, "stimulus": "<p id=\"stim\">5</p>", "key_press": -1, "trial_type": "single-stim", "trial_index": 151, "time_elapsed": 1159990, "internal_node_id": "0.0-110.0-5.0"}}, {"uniqueid": "MTK0252:3WRFBPLXRBV3ISCGTRJL95EPAOBN3Q", "current_trial": 152, "dateTime": 1510689832640, "trialdata": {"rt": -1, "stimulus": "<p id=\"stim\">4</p>", "key_press": -1, "trial_type": "single-stim", "trial_index": 152, "time_elapsed": 1160995, "internal_node_id": "0.0-110.0-6.0"}}, {"uniqueid": "MTK0252:3WRFBPLXRBV3ISCGTRJL95EPAOBN3Q", "current_trial": 153, "dateTime": 1510689833645, "trialdata": {"rt": -1, "stimulus": "<p id=\"stim\">3</p>", "key_press": -1, "trial_type": "single-stim", "trial_index": 153, "time_elapsed": 1162000, "internal_node_id": "0.0-110.0-7.0"}}, {"uniqueid": "MTK0252:3WRFBPLXRBV3ISCGTRJL95EPAOBN3Q", "current_trial": 154, "dateTime": 1510689834650, "trialdata": {"rt": -1, "stimulus": "<p id=\"stim\">2</p>", "key_press": -1, "trial_type": "single-stim", "trial_index": 154, "time_elapsed": 1163005, "internal_node_id": "0.0-110.0-8.0"}}, {"uniqueid": "MTK0252:3WRFBPLXRBV3ISCGTRJL95EPAOBN3Q", "current_trial": 155, "dateTime": 1510689835655, "trialdata": {"rt": -1, "stimulus": "<p id=\"stim\">1</p>", "key_press": -1, "trial_type": "single-stim", "trial_index": 155, "time_elapsed": 1164010, "internal_node_id": "0.0-110.0-9.0"}}, {"uniqueid": "MTK0252:3WRFBPLXRBV3ISCGTRJL95EPAOBN3Q", "current_trial": 156, "dateTime": 1510689837157, "trialdata": {"rt": -1, "stimulus": "<p id=\"stim\">+</p>", "key_press": -1, "type": "FIXATION", "trial_type": "single-stim", "trial_index": 156, "time_elapsed": 1165512, "internal_node_id": "0.0-111.0-0.0"}}, {"uniqueid": "MTK0252:3WRFBPLXRBV3ISCGTRJL95EPAOBN3Q", "current_trial": 157, "dateTime": 1510689837962, "trialdata": {"rt": -1, "stimulus": "<p id=\"stim\">FOOTBALL</p>", "key_press": -1, "type": "PRES_VIS", "word": "football", "wordID": 590, "conditions": [12, 800, "v", 24000], "trial": 4, "serialpos": 0, "trial_type": "single-stim", "trial_index": 157, "time_elapsed": 1166317, "internal_node_id": "0.0-112.0"}}, {"uniqueid": "MTK0252:3WRFBPLXRBV3ISCGTRJL95EPAOBN3Q", "current_trial": 158, "dateTime": 1510689839726, "trialdata": {"rt": -1, "stimulus": "<p id=\"stim\">RAZOR</p>", "key_press": -1, "type": "PRES_VIS", "word": "razor", "wordID": 1170, "conditions": [12, 800, "v", 24000], "trial": 4, "serialpos": 1, "trial_type": "single-stim", "trial_index": 158, "time_elapsed": 1168081, "internal_node_id": "0.0-113.0"}}, {"uniqueid": "MTK0252:3WRFBPLXRBV3ISCGTRJL95EPAOBN3Q", "current_trial": 159, "dateTime": 1510689841672, "trialdata": {"rt": -1, "stimulus": "<p id=\"stim\">SODA</p>", "key_press": -1, "type": "PRES_VIS", "word": "soda", "wordID": 1340, "conditions": [12, 800, "v", 24000], "trial": 4, "serialpos": 2, "trial_type": "single-stim", "trial_index": 159, "time_elapsed": 1170027, "internal_node_id": "0.0-114.0"}}, {"uniqueid": "MTK0252:3WRFBPLXRBV3ISCGTRJL95EPAOBN3Q", "current_trial": 160, "dateTime": 1510689843660, "trialdata": {"rt": -1, "stimulus": "<p id=\"stim\">BARLEY</p>", "key_press": -1, "type": "PRES_VIS", "word": "barley", "wordID": 87, "conditions": [12, 800, "v", 24000], "trial": 4, "serialpos": 3, "trial_type": "single-stim", "trial_index": 160, "time_elapsed": 1172015, "internal_node_id": "0.0-115.0"}}, {"uniqueid": "MTK0252:3WRFBPLXRBV3ISCGTRJL95EPAOBN3Q", "current_trial": 161, "dateTime": 1510689845476, "trialdata": {"rt": -1, "stimulus": "<p id=\"stim\">DIME</p>", "key_press": -1, "type": "PRES_VIS", "word": "dime", "wordID": 465, "conditions": [12, 800, "v", 24000], "trial": 4, "serialpos": 4, "trial_type": "single-stim", "trial_index": 161, "time_elapsed": 1173831, "internal_node_id": "0.0-116.0"}}, {"uniqueid": "MTK0252:3WRFBPLXRBV3ISCGTRJL95EPAOBN3Q", "current_trial": 162, "dateTime": 1510689847236, "trialdata": {"rt": -1, "stimulus": "<p id=\"stim\">PALACE</p>", "key_press": -1, "type": "PRES_VIS", "word": "palace", "wordID": 1005, "conditions": [12, 800, "v", 24000], "trial": 4, "serialpos": 5, "trial_type": "single-stim", "trial_index": 162, "time_elapsed": 1175591, "internal_node_id": "0.0-117.0"}}, {"uniqueid": "MTK0252:3WRFBPLXRBV3ISCGTRJL95EPAOBN3Q", "current_trial": 163, "dateTime": 1510689848998, "trialdata": {"rt": -1, "stimulus": "<p id=\"stim\">GRAPE</p>", "key_press": -1, "type": "PRES_VIS", "word": "grape", "wordID": 653, "conditions": [12, 800, "v", 24000], "trial": 4, "serialpos": 6, "trial_type": "single-stim", "trial_index": 163, "time_elapsed": 1177353, "internal_node_id": "0.0-118.0"}}, {"uniqueid": "MTK0252:3WRFBPLXRBV3ISCGTRJL95EPAOBN3Q", "current_trial": 164, "dateTime": 1510689850850, "trialdata": {"rt": -1, "stimulus": "<p id=\"stim\">COLLEGE</p>", "key_press": -1, "type": "PRES_VIS", "word": "college", "wordID": 345, "conditions": [12, 800, "v", 24000], "trial": 4, "serialpos": 7, "trial_type": "single-stim", "trial_index": 164, "time_elapsed": 1179205, "internal_node_id": "0.0-119.0"}}, {"uniqueid": "MTK0252:3WRFBPLXRBV3ISCGTRJL95EPAOBN3Q", "current_trial": 165, "dateTime": 1510689852608, "trialdata": {"rt": -1, "stimulus": "<p id=\"stim\">CLAMP</p>", "key_press": -1, "type": "PRES_VIS", "word": "clamp", "wordID": 315, "conditions": [12, 800, "v", 24000], "trial": 4, "serialpos": 8, "trial_type": "single-stim", "trial_index": 165, "time_elapsed": 1180963, "internal_node_id": "0.0-120.0"}}, {"uniqueid": "MTK0252:3WRFBPLXRBV3ISCGTRJL95EPAOBN3Q", "current_trial": 166, "dateTime": 1510689854390, "trialdata": {"rt": -1, "stimulus": "<p id=\"stim\">RABBIT</p>", "key_press": -1, "type": "PRES_VIS", "word": "rabbit", "wordID": 1151, "conditions": [12, 800, "v", 24000], "trial": 4, "serialpos": 9, "trial_type": "single-stim", "trial_index": 166, "time_elapsed": 1182745, "internal_node_id": "0.0-121.0"}}, {"uniqueid": "MTK0252:3WRFBPLXRBV3ISCGTRJL95EPAOBN3Q", "current_trial": 167, "dateTime": 1510689856214, "trialdata": {"rt": -1, "stimulus": "<p id=\"stim\">CHIPMUNK</p>", "key_press": -1, "type": "PRES_VIS", "word": "chipmunk", "wordID": 303, "conditions": [12, 800, "v", 24000], "trial": 4, "serialpos": 10, "trial_type": "single-stim", "trial_index": 167, "time_elapsed": 1184569, "internal_node_id": "0.0-122.0"}}, {"uniqueid": "MTK0252:3WRFBPLXRBV3ISCGTRJL95EPAOBN3Q", "current_trial": 168, "dateTime": 1510689858055, "trialdata": {"rt": -1, "stimulus": "<p id=\"stim\">SCALPEL</p>", "key_press": -1, "type": "PRES_VIS", "word": "scalpel", "wordID": 1242, "conditions": [12, 800, "v", 24000], "trial": 4, "serialpos": 11, "trial_type": "single-stim", "trial_index": 168, "time_elapsed": 1186410, "internal_node_id": "0.0-123.0"}}, {"uniqueid": "MTK0252:3WRFBPLXRBV3ISCGTRJL95EPAOBN3Q", "current_trial": 169, "dateTime": 1510689860519, "trialdata": {"rt": -1, "stimulus": "", "key_press": -1, "type": "PRE_RECALL_DELAY", "trial_type": "single-stim", "trial_index": 169, "time_elapsed": 1188874, "internal_node_id": "0.0-124.0-0.0"}}, {"uniqueid": "MTK0252:3WRFBPLXRBV3ISCGTRJL95EPAOBN3Q", "current_trial": 170, "dateTime": 1510689861020, "trialdata": {"rt": -1000, "stimulus": "/static/audio/400Hz.wav", "key_press": -1, "type": "PRE_RECALL_ALERT", "trial_type": "single-audio", "trial_index": 170, "time_elapsed": 1189375, "internal_node_id": "0.0-125.0"}}, {"uniqueid": "MTK0252:3WRFBPLXRBV3ISCGTRJL95EPAOBN3Q", "current_trial": 171, "dateTime": 1510689921025, "trialdata": {"rt": [5577, 8525, 9402, 11720], "recwords": ["scalpel", "chipmunk", "sofa", "football"], "type": "FREE_RECALL", "conditions": [12, 800, "v", 24000], "trial": 4, "trial_type": "free-recall", "trial_index": 171, "time_elapsed": 1249379, "internal_node_id": "0.0-126.0-0.0"}}, {"uniqueid": "MTK0252:3WRFBPLXRBV3ISCGTRJL95EPAOBN3Q", "current_trial": 172, "dateTime": 1510689935159, "trialdata": {"rt": 12128, "key_press": 32, "type": "INSTRUCTIONS", "trial_type": "text", "trial_index": 172, "time_elapsed": 1263514, "internal_node_id": "0.0-127.0"}}, {"uniqueid": "MTK0252:3WRFBPLXRBV3ISCGTRJL95EPAOBN3Q", "current_trial": 173, "dateTime": 1510689949164, "trialdata": {"rt": [3485, 6062], "responses": ["15", "16"], "num1": [6, 7, 5], "num2": [3, 4, 9], "num3": [6, 7, 6], "type": "DISTRACTOR", "conditions": [12, 800, "v", 12000], "trial": 5, "trial_type": "math-distractor", "trial_index": 173, "time_elapsed": 1277519, "internal_node_id": "0.0-128.0"}}, {"uniqueid": "MTK0252:3WRFBPLXRBV3ISCGTRJL95EPAOBN3Q", "current_trial": 174, "dateTime": 1510689952173, "trialdata": {"rt": -1, "stimulus": "<p id=\"stim\">10</p>", "key_press": -1, "trial_type": "single-stim", "trial_index": 174, "time_elapsed": 1280527, "internal_node_id": "0.0-129.0-0.0"}}, {"uniqueid": "MTK0252:3WRFBPLXRBV3ISCGTRJL95EPAOBN3Q", "current_trial": 175, "dateTime": 1510689953176, "trialdata": {"rt": -1, "stimulus": "<p id=\"stim\">9</p>", "key_press": -1, "trial_type": "single-stim", "trial_index": 175, "time_elapsed": 1281531, "internal_node_id": "0.0-129.0-1.0"}}, {"uniqueid": "MTK0252:3WRFBPLXRBV3ISCGTRJL95EPAOBN3Q", "current_trial": 176, "dateTime": 1510689954180, "trialdata": {"rt": -1, "stimulus": "<p id=\"stim\">8</p>", "key_press": -1, "trial_type": "single-stim", "trial_index": 176, "time_elapsed": 1282535, "internal_node_id": "0.0-129.0-2.0"}}, {"uniqueid": "MTK0252:3WRFBPLXRBV3ISCGTRJL95EPAOBN3Q", "current_trial": 177, "dateTime": 1510689955184, "trialdata": {"rt": -1, "stimulus": "<p id=\"stim\">7</p>", "key_press": -1, "trial_type": "single-stim", "trial_index": 177, "time_elapsed": 1283539, "internal_node_id": "0.0-129.0-3.0"}}, {"uniqueid": "MTK0252:3WRFBPLXRBV3ISCGTRJL95EPAOBN3Q", "current_trial": 178, "dateTime": 1510689956185, "trialdata": {"rt": -1, "stimulus": "<p id=\"stim\">6</p>", "key_press": -1, "trial_type": "single-stim", "trial_index": 178, "time_elapsed": 1284540, "internal_node_id": "0.0-129.0-4.0"}}, {"uniqueid": "MTK0252:3WRFBPLXRBV3ISCGTRJL95EPAOBN3Q", "current_trial": 179, "dateTime": 1510689957186, "trialdata": {"rt": -1, "stimulus": "<p id=\"stim\">5</p>", "key_press": -1, "trial_type": "single-stim", "trial_index": 179, "time_elapsed": 1285541, "internal_node_id": "0.0-129.0-5.0"}}, {"uniqueid": "MTK0252:3WRFBPLXRBV3ISCGTRJL95EPAOBN3Q", "current_trial": 180, "dateTime": 1510689958187, "trialdata": {"rt": -1, "stimulus": "<p id=\"stim\">4</p>", "key_press": -1, "trial_type": "single-stim", "trial_index": 180, "time_elapsed": 1286542, "internal_node_id": "0.0-129.0-6.0"}}, {"uniqueid": "MTK0252:3WRFBPLXRBV3ISCGTRJL95EPAOBN3Q", "current_trial": 181, "dateTime": 1510689959187, "trialdata": {"rt": -1, "stimulus": "<p id=\"stim\">3</p>", "key_press": -1, "trial_type": "single-stim", "trial_index": 181, "time_elapsed": 1287542, "internal_node_id": "0.0-129.0-7.0"}}, {"uniqueid": "MTK0252:3WRFBPLXRBV3ISCGTRJL95EPAOBN3Q", "current_trial": 182, "dateTime": 1510689960188, "trialdata": {"rt": -1, "stimulus": "<p id=\"stim\">2</p>", "key_press": -1, "trial_type": "single-stim", "trial_index": 182, "time_elapsed": 1288543, "internal_node_id": "0.0-129.0-8.0"}}, {"uniqueid": "MTK0252:3WRFBPLXRBV3ISCGTRJL95EPAOBN3Q", "current_trial": 183, "dateTime": 1510689961192, "trialdata": {"rt": -1, "stimulus": "<p id=\"stim\">1</p>", "key_press": -1, "trial_type": "single-stim", "trial_index": 183, "time_elapsed": 1289547, "internal_node_id": "0.0-129.0-9.0"}}, {"uniqueid": "MTK0252:3WRFBPLXRBV3ISCGTRJL95EPAOBN3Q", "current_trial": 184, "dateTime": 1510689962696, "trialdata": {"rt": -1, "stimulus": "<p id=\"stim\">+</p>", "key_press": -1, "type": "FIXATION", "trial_type": "single-stim", "trial_index": 184, "time_elapsed": 1291051, "internal_node_id": "0.0-130.0-0.0"}}, {"uniqueid": "MTK0252:3WRFBPLXRBV3ISCGTRJL95EPAOBN3Q", "current_trial": 185, "dateTime": 1510689963501, "trialdata": {"rt": -1, "stimulus": "<p id=\"stim\">WRENCH</p>", "key_press": -1, "type": "PRES_VIS", "word": "wrench", "wordID": 1624, "conditions": [12, 800, "v", 12000], "trial": 5, "serialpos": 0, "trial_type": "single-stim", "trial_index": 185, "time_elapsed": 1291856, "internal_node_id": "0.0-131.0"}}, {"uniqueid": "MTK0252:3WRFBPLXRBV3ISCGTRJL95EPAOBN3Q", "current_trial": 186, "dateTime": 1510689965498, "trialdata": {"rt": -1, "stimulus": "<p id=\"stim\">SPOON</p>", "key_press": -1, "type": "PRES_VIS", "word": "spoon", "wordID": 1356, "conditions": [12, 800, "v", 12000], "trial": 5, "serialpos": 1, "trial_type": "single-stim", "trial_index": 186, "time_elapsed": 1293853, "internal_node_id": "0.0-132.0"}}, {"uniqueid": "MTK0252:3WRFBPLXRBV3ISCGTRJL95EPAOBN3Q", "current_trial": 187, "dateTime": 1510689967287, "trialdata": {"rt": -1, "stimulus": "<p id=\"stim\">CASHIER</p>", "key_press": -1, "type": "PRES_VIS", "word": "cashier", "wordID": 253, "conditions": [12, 800, "v", 12000], "trial": 5, "serialpos": 2, "trial_type": "single-stim", "trial_index": 187, "time_elapsed": 1295642, "internal_node_id": "0.0-133.0"}}, {"uniqueid": "MTK0252:3WRFBPLXRBV3ISCGTRJL95EPAOBN3Q", "current_trial": 188, "dateTime": 1510689968900, "trialdata": {"rt": -1, "stimulus": "<p id=\"stim\">TERMITE</p>", "key_press": -1, "type": "PRES_VIS", "word": "termite", "wordID": 1450, "conditions": [12, 800, "v", 12000], "trial": 5, "serialpos": 3, "trial_type": "single-stim", "trial_index": 188, "time_elapsed": 1297255, "internal_node_id": "0.0-134.0"}}, {"uniqueid": "MTK0252:3WRFBPLXRBV3ISCGTRJL95EPAOBN3Q", "current_trial": 189, "dateTime": 1510689970880, "trialdata": {"rt": -1, "stimulus": "<p id=\"stim\">FUNGUS</p>", "key_press": -1, "type": "PRES_VIS", "word": "fungus", "wordID": 613, "conditions": [12, 800, "v", 12000], "trial": 5, "serialpos": 4, "trial_type": "single-stim", "trial_index": 189, "time_elapsed": 1299235, "internal_node_id": "0.0-135.0"}}, {"uniqueid": "MTK0252:3WRFBPLXRBV3ISCGTRJL95EPAOBN3Q", "current_trial": 190, "dateTime": 1510689972515, "trialdata": {"rt": -1, "stimulus": "<p id=\"stim\">SUPPER</p>", "key_press": -1, "type": "PRES_VIS", "word": "supper", "wordID": 1410, "conditions": [12, 800, "v", 12000], "trial": 5, "serialpos": 5, "trial_type": "single-stim", "trial_index": 190, "time_elapsed": 1300869, "internal_node_id": "0.0-136.0"}}, {"uniqueid": "MTK0252:3WRFBPLXRBV3ISCGTRJL95EPAOBN3Q", "current_trial": 191, "dateTime": 1510689974210, "trialdata": {"rt": -1, "stimulus": "<p id=\"stim\">NURSE</p>", "key_press": -1, "type": "PRES_VIS", "word": "nurse", "wordID": 962, "conditions": [12, 800, "v", 12000], "trial": 5, "serialpos": 6, "trial_type": "single-stim", "trial_index": 191, "time_elapsed": 1302565, "internal_node_id": "0.0-137.0"}}, {"uniqueid": "MTK0252:3WRFBPLXRBV3ISCGTRJL95EPAOBN3Q", "current_trial": 192, "dateTime": 1510689975982, "trialdata": {"rt": -1, "stimulus": "<p id=\"stim\">CRIB</p>", "key_press": -1, "type": "PRES_VIS", "word": "crib", "wordID": 406, "conditions": [12, 800, "v", 12000], "trial": 5, "serialpos": 7, "trial_type": "single-stim", "trial_index": 192, "time_elapsed": 1304337, "internal_node_id": "0.0-138.0"}}, {"uniqueid": "MTK0252:3WRFBPLXRBV3ISCGTRJL95EPAOBN3Q", "current_trial": 193, "dateTime": 1510689977862, "trialdata": {"rt": -1, "stimulus": "<p id=\"stim\">DRESSER</p>", "key_press": -1, "type": "PRES_VIS", "word": "dresser", "wordID": 495, "conditions": [12, 800, "v", 12000], "trial": 5, "serialpos": 8, "trial_type": "single-stim", "trial_index": 193, "time_elapsed": 1306217, "internal_node_id": "0.0-139.0"}}, {"uniqueid": "MTK0252:3WRFBPLXRBV3ISCGTRJL95EPAOBN3Q", "current_trial": 194, "dateTime": 1510689979571, "trialdata": {"rt": -1, "stimulus": "<p id=\"stim\">AGENT</p>", "key_press": -1, "type": "PRES_VIS", "word": "agent", "wordID": 9, "conditions": [12, 800, "v", 12000], "trial": 5, "serialpos": 9, "trial_type": "single-stim", "trial_index": 194, "time_elapsed": 1307926, "internal_node_id": "0.0-140.0"}}, {"uniqueid": "MTK0252:3WRFBPLXRBV3ISCGTRJL95EPAOBN3Q", "current_trial": 195, "dateTime": 1510689981279, "trialdata": {"rt": -1, "stimulus": "<p id=\"stim\">DOUGHNUT</p>", "key_press": -1, "type": "PRES_VIS", "word": "doughnut", "wordID": 489, "conditions": [12, 800, "v", 12000], "trial": 5, "serialpos": 10, "trial_type": "single-stim", "trial_index": 195, "time_elapsed": 1309634, "internal_node_id": "0.0-141.0"}}, {"uniqueid": "MTK0252:3WRFBPLXRBV3ISCGTRJL95EPAOBN3Q", "current_trial": 196, "dateTime": 1510689983191, "trialdata": {"rt": -1, "stimulus": "<p id=\"stim\">LUNCH</p>", "key_press": -1, "type": "PRES_VIS", "word": "lunch", "wordID": 848, "conditions": [12, 800, "v", 12000], "trial": 5, "serialpos": 11, "trial_type": "single-stim", "trial_index": 196, "time_elapsed": 1311546, "internal_node_id": "0.0-142.0"}}, {"uniqueid": "MTK0252:3WRFBPLXRBV3ISCGTRJL95EPAOBN3Q", "current_trial": 197, "dateTime": 1510689985480, "trialdata": {"rt": -1, "stimulus": "", "key_press": -1, "type": "PRE_RECALL_DELAY", "trial_type": "single-stim", "trial_index": 197, "time_elapsed": 1313835, "internal_node_id": "0.0-143.0-0.0"}}, {"uniqueid": "MTK0252:3WRFBPLXRBV3ISCGTRJL95EPAOBN3Q", "current_trial": 198, "dateTime": 1510689985981, "trialdata": {"rt": -1000, "stimulus": "/static/audio/400Hz.wav", "key_press": -1, "type": "PRE_RECALL_ALERT", "trial_type": "single-audio", "trial_index": 198, "time_elapsed": 1314336, "internal_node_id": "0.0-144.0"}}, {"uniqueid": "MTK0252:3WRFBPLXRBV3ISCGTRJL95EPAOBN3Q", "current_trial": 199, "dateTime": 1510690045988, "trialdata": {"rt": [3302, 5305, 8556, 9827, 10986, 12201, 13833, 15003, 16420, 19683, 22068], "recwords": ["lunch", "doughnut", "crib", "cashier", "spoon", "supper", "crib", "termite", "wrench", "crib", "dresser"], "type": "FREE_RECALL", "conditions": [12, 800, "v", 12000], "trial": 5, "trial_type": "free-recall", "trial_index": 199, "time_elapsed": 1374341, "internal_node_id": "0.0-145.0-0.0"}}, {"uniqueid": "MTK0252:3WRFBPLXRBV3ISCGTRJL95EPAOBN3Q", "current_trial": 200, "dateTime": 1510690075699, "trialdata": {"rt": 27706, "key_press": 32, "type": "INSTRUCTIONS", "trial_type": "text", "trial_index": 200, "time_elapsed": 1404054, "internal_node_id": "0.0-146.0"}}, {"uniqueid": "MTK0252:3WRFBPLXRBV3ISCGTRJL95EPAOBN3Q", "current_trial": 201, "dateTime": 1510690089706, "trialdata": {"rt": [2146, 4284, 7254, 9032], "responses": ["19", "19", "14", "4"], "num1": [5, 9, 6, 1, 7], "num2": [5, 2, 7, 1, 4], "num3": [9, 8, 1, 2, 1], "type": "DISTRACTOR", "conditions": [12, 800, "a", 12000], "trial": 6, "trial_type": "math-distractor", "trial_index": 201, "time_elapsed": 1418061, "internal_node_id": "0.0-147.0"}}, {"uniqueid": "MTK0252:3WRFBPLXRBV3ISCGTRJL95EPAOBN3Q", "current_trial": 202, "dateTime": 1510690092710, "trialdata": {"rt": -1, "stimulus": "<p id=\"stim\">10</p>", "key_press": -1, "trial_type": "single-stim", "trial_index": 202, "time_elapsed": 1421065, "internal_node_id": "0.0-148.0-0.0"}}, {"uniqueid": "MTK0252:3WRFBPLXRBV3ISCGTRJL95EPAOBN3Q", "current_trial": 203, "dateTime": 1510690093711, "trialdata": {"rt": -1, "stimulus": "<p id=\"stim\">9</p>", "key_press": -1, "trial_type": "single-stim", "trial_index": 203, "time_elapsed": 1422066, "internal_node_id": "0.0-148.0-1.0"}}, {"uniqueid": "MTK0252:3WRFBPLXRBV3ISCGTRJL95EPAOBN3Q", "current_trial": 204, "dateTime": 1510690094715, "trialdata": {"rt": -1, "stimulus": "<p id=\"stim\">8</p>", "key_press": -1, "trial_type": "single-stim", "trial_index": 204, "time_elapsed": 1423070, "internal_node_id": "0.0-148.0-2.0"}}, {"uniqueid": "MTK0252:3WRFBPLXRBV3ISCGTRJL95EPAOBN3Q", "current_trial": 205, "dateTime": 1510690095719, "trialdata": {"rt": -1, "stimulus": "<p id=\"stim\">7</p>", "key_press": -1, "trial_type": "single-stim", "trial_index": 205, "time_elapsed": 1424074, "internal_node_id": "0.0-148.0-3.0"}}, {"uniqueid": "MTK0252:3WRFBPLXRBV3ISCGTRJL95EPAOBN3Q", "current_trial": 206, "dateTime": 1510690096723, "trialdata": {"rt": -1, "stimulus": "<p id=\"stim\">6</p>", "key_press": -1, "trial_type": "single-stim", "trial_index": 206, "time_elapsed": 1425078, "internal_node_id": "0.0-148.0-4.0"}}, {"uniqueid": "MTK0252:3WRFBPLXRBV3ISCGTRJL95EPAOBN3Q", "current_trial": 207, "dateTime": 1510690097729, "trialdata": {"rt": -1, "stimulus": "<p id=\"stim\">5</p>", "key_press": -1, "trial_type": "single-stim", "trial_index": 207, "time_elapsed": 1426084, "internal_node_id": "0.0-148.0-5.0"}}, {"uniqueid": "MTK0252:3WRFBPLXRBV3ISCGTRJL95EPAOBN3Q", "current_trial": 208, "dateTime": 1510690098732, "trialdata": {"rt": -1, "stimulus": "<p id=\"stim\">4</p>", "key_press": -1, "trial_type": "single-stim", "trial_index": 208, "time_elapsed": 1427087, "internal_node_id": "0.0-148.0-6.0"}}, {"uniqueid": "MTK0252:3WRFBPLXRBV3ISCGTRJL95EPAOBN3Q", "current_trial": 209, "dateTime": 1510690099736, "trialdata": {"rt": -1, "stimulus": "<p id=\"stim\">3</p>", "key_press": -1, "trial_type": "single-stim", "trial_index": 209, "time_elapsed": 1428091, "internal_node_id": "0.0-148.0-7.0"}}, {"uniqueid": "MTK0252:3WRFBPLXRBV3ISCGTRJL95EPAOBN3Q", "current_trial": 210, "dateTime": 1510690100737, "trialdata": {"rt": -1, "stimulus": "<p id=\"stim\">2</p>", "key_press": -1, "trial_type": "single-stim", "trial_index": 210, "time_elapsed": 1429092, "internal_node_id": "0.0-148.0-8.0"}}, {"uniqueid": "MTK0252:3WRFBPLXRBV3ISCGTRJL95EPAOBN3Q", "current_trial": 211, "dateTime": 1510690101737, "trialdata": {"rt": -1, "stimulus": "<p id=\"stim\">1</p>", "key_press": -1, "trial_type": "single-stim", "trial_index": 211, "time_elapsed": 1430092, "internal_node_id": "0.0-148.0-9.0"}}, {"uniqueid": "MTK0252:3WRFBPLXRBV3ISCGTRJL95EPAOBN3Q", "current_trial": 212, "dateTime": 1510690103241, "trialdata": {"rt": -1, "stimulus": "<p id=\"stim\">+</p>", "key_press": -1, "type": "FIXATION", "trial_type": "single-stim", "trial_index": 212, "time_elapsed": 1431595, "internal_node_id": "0.0-149.0-0.0"}}, {"uniqueid": "MTK0252:3WRFBPLXRBV3ISCGTRJL95EPAOBN3Q", "current_trial": 213, "dateTime": 1510690104993, "trialdata": {"rt": -1000, "stimulus": "/static/audio/wordpool/SURVEY.wav", "key_press": -1, "type": "PRES_AUD", "word": "survey", "wordID": 1413, "conditions": [12, 800, "a", 12000], "trial": 6, "serialpos": 0, "trial_type": "single-audio", "trial_index": 213, "time_elapsed": 1433348, "internal_node_id": "0.0-150.0"}}, {"uniqueid": "MTK0252:3WRFBPLXRBV3ISCGTRJL95EPAOBN3Q", "current_trial": 214, "dateTime": 1510690106674, "trialdata": {"rt": -1000, "stimulus": "/static/audio/wordpool/MASK.wav", "key_press": -1, "type": "PRES_AUD", "word": "mask", "wordID": 875, "conditions": [12, 800, "a", 12000], "trial": 6, "serialpos": 1, "trial_type": "single-audio", "trial_index": 214, "time_elapsed": 1435029, "internal_node_id": "0.0-151.0"}}, {"uniqueid": "MTK0252:3WRFBPLXRBV3ISCGTRJL95EPAOBN3Q", "current_trial": 215, "dateTime": 1510690108488, "trialdata": {"rt": -1000, "stimulus": "/static/audio/wordpool/FLASK.wav", "key_press": -1, "type": "PRES_AUD", "word": "flask", "wordID": 575, "conditions": [12, 800, "a", 12000], "trial": 6, "serialpos": 2, "trial_type": "single-audio", "trial_index": 215, "time_elapsed": 1436843, "internal_node_id": "0.0-152.0"}}, {"uniqueid": "MTK0252:3WRFBPLXRBV3ISCGTRJL95EPAOBN3Q", "current_trial": 216, "dateTime": 1510690110374, "trialdata": {"rt": -1000, "stimulus": "/static/audio/wordpool/REPORT.wav", "key_press": -1, "type": "PRES_AUD", "word": "report", "wordID": 1183, "conditions": [12, 800, "a", 12000], "trial": 6, "serialpos": 3, "trial_type": "single-audio", "trial_index": 216, "time_elapsed": 1438729, "internal_node_id": "0.0-153.0"}}, {"uniqueid": "MTK0252:3WRFBPLXRBV3ISCGTRJL95EPAOBN3Q", "current_trial": 217, "dateTime": 1510690112119, "trialdata": {"rt": -1000, "stimulus": "/static/audio/wordpool/MARROW.wav", "key_press": -1, "type": "PRES_AUD", "word": "marrow", "wordID": 871, "conditions": [12, 800, "a", 12000], "trial": 6, "serialpos": 4, "trial_type": "single-audio", "trial_index": 217, "time_elapsed": 1440474, "internal_node_id": "0.0-154.0"}}, {"uniqueid": "MTK0252:3WRFBPLXRBV3ISCGTRJL95EPAOBN3Q", "current_trial": 218, "dateTime": 1510690114040, "trialdata": {"rt": -1000, "stimulus": "/static/audio/wordpool/RIFLE.wav", "key_press": -1, "type": "PRES_AUD", "word": "rifle", "wordID": 1191, "conditions": [12, 800, "a", 12000], "trial": 6, "serialpos": 5, "trial_type": "single-audio", "trial_index": 218, "time_elapsed": 1442395, "internal_node_id": "0.0-155.0"}}, {"uniqueid": "MTK0252:3WRFBPLXRBV3ISCGTRJL95EPAOBN3Q", "current_trial": 219, "dateTime": 1510690115938, "trialdata": {"rt": -1000, "stimulus": "/static/audio/wordpool/SLIDE.wav", "key_press": -1, "type": "PRES_AUD", "word": "slide", "wordID": 1325, "conditions": [12, 800, "a", 12000], "trial": 6, "serialpos": 6, "trial_type": "single-audio", "trial_index": 219, "time_elapsed": 1444293, "internal_node_id": "0.0-156.0"}}, {"uniqueid": "MTK0252:3WRFBPLXRBV3ISCGTRJL95EPAOBN3Q", "current_trial": 220, "dateTime": 1510690117651, "trialdata": {"rt": -1000, "stimulus": "/static/audio/wordpool/WAGON.wav", "key_press": -1, "type": "PRES_AUD", "word": "wagon", "wordID": 1577, "conditions": [12, 800, "a", 12000], "trial": 6, "serialpos": 7, "trial_type": "single-audio", "trial_index": 220, "time_elapsed": 1446006, "internal_node_id": "0.0-157.0"}}, {"uniqueid": "MTK0252:3WRFBPLXRBV3ISCGTRJL95EPAOBN3Q", "current_trial": 221, "dateTime": 1510690119550, "trialdata": {"rt": -1000, "stimulus": "/static/audio/wordpool/GARLIC.wav", "key_press": -1, "type": "PRES_AUD", "word": "garlic", "wordID": 623, "conditions": [12, 800, "a", 12000], "trial": 6, "serialpos": 8, "trial_type": "single-audio", "trial_index": 221, "time_elapsed": 1447905, "internal_node_id": "0.0-158.0"}}, {"uniqueid": "MTK0252:3WRFBPLXRBV3ISCGTRJL95EPAOBN3Q", "current_trial": 222, "dateTime": 1510690121203, "trialdata": {"rt": -1000, "stimulus": "/static/audio/wordpool/CABBAGE.wav", "key_press": -1, "type": "PRES_AUD", "word": "cabbage", "wordID": 209, "conditions": [12, 800, "a", 12000], "trial": 6, "serialpos": 9, "trial_type": "single-audio", "trial_index": 222, "time_elapsed": 1449558, "internal_node_id": "0.0-159.0"}}, {"uniqueid": "MTK0252:3WRFBPLXRBV3ISCGTRJL95EPAOBN3Q", "current_trial": 223, "dateTime": 1510690122953, "trialdata": {"rt": -1000, "stimulus": "/static/audio/wordpool/BADGE.wav", "key_press": -1, "type": "PRES_AUD", "word": "badge", "wordID": 67, "conditions": [12, 800, "a", 12000], "trial": 6, "serialpos": 10, "trial_type": "single-audio", "trial_index": 223, "time_elapsed": 1451308, "internal_node_id": "0.0-160.0"}}, {"uniqueid": "MTK0252:3WRFBPLXRBV3ISCGTRJL95EPAOBN3Q", "current_trial": 224, "dateTime": 1510690124888, "trialdata": {"rt": -1000, "stimulus": "/static/audio/wordpool/WASHER.wav", "key_press": -1, "type": "PRES_AUD", "word": "washer", "wordID": 1591, "conditions": [12, 800, "a", 12000], "trial": 6, "serialpos": 11, "trial_type": "single-audio", "trial_index": 224, "time_elapsed": 1453243, "internal_node_id": "0.0-161.0"}}, {"uniqueid": "MTK0252:3WRFBPLXRBV3ISCGTRJL95EPAOBN3Q", "current_trial": 225, "dateTime": 1510690126245, "trialdata": {"rt": -1, "stimulus": "", "key_press": -1, "type": "PRE_RECALL_DELAY", "trial_type": "single-stim", "trial_index": 225, "time_elapsed": 1454599, "internal_node_id": "0.0-162.0-0.0"}}, {"uniqueid": "MTK0252:3WRFBPLXRBV3ISCGTRJL95EPAOBN3Q", "current_trial": 226, "dateTime": 1510690126745, "trialdata": {"rt": -1000, "stimulus": "/static/audio/400Hz.wav", "key_press": -1, "type": "PRE_RECALL_ALERT", "trial_type": "single-audio", "trial_index": 226, "time_elapsed": 1455100, "internal_node_id": "0.0-163.0"}}, {"uniqueid": "MTK0252:3WRFBPLXRBV3ISCGTRJL95EPAOBN3Q", "current_trial": 227, "dateTime": 1510690186752, "trialdata": {"rt": [2618, 4339, 6274, 7556, 12339, 13711], "recwords": ["washer", "badge", "report", "rifle", "survey", "wagon"], "type": "FREE_RECALL", "conditions": [12, 800, "a", 12000], "trial": 6, "trial_type": "free-recall", "trial_index": 227, "time_elapsed": 1515105, "internal_node_id": "0.0-164.0-0.0"}}, {"uniqueid": "MTK0252:3WRFBPLXRBV3ISCGTRJL95EPAOBN3Q", "current_trial": 228, "dateTime": 1510690284283, "trialdata": {"rt": 95527, "key_press": 32, "type": "INSTRUCTIONS", "trial_type": "text", "trial_index": 228, "time_elapsed": 1612638, "internal_node_id": "0.0-165.0"}}, {"uniqueid": "MTK0252:3WRFBPLXRBV3ISCGTRJL95EPAOBN3Q", "current_trial": 229, "dateTime": 1510690310290, "trialdata": {"rt": [2699, 8797, 11261, 13612, 15243, 16998, 19305, 21543], "responses": ["13", "19", "13", "20", "11", "11", "18", "17"], "num1": [7, 8, 3, 4, 1, 1, 7, 4, 9], "num2": [4, 4, 3, 8, 1, 9, 7, 4, 9], "num3": [1, 7, 7, 8, 9, 1, 4, 9, 9], "type": "DISTRACTOR", "conditions": [24, 1600, "a", 24000], "trial": 7, "trial_type": "math-distractor", "trial_index": 229, "time_elapsed": 1638645, "internal_node_id": "0.0-166.0"}}, {"uniqueid": "MTK0252:3WRFBPLXRBV3ISCGTRJL95EPAOBN3Q", "current_trial": 230, "dateTime": 1510690313299, "trialdata": {"rt": -1, "stimulus": "<p id=\"stim\">10</p>", "key_press": -1, "trial_type": "single-stim", "trial_index": 230, "time_elapsed": 1641654, "internal_node_id": "0.0-167.0-0.0"}}, {"uniqueid": "MTK0252:3WRFBPLXRBV3ISCGTRJL95EPAOBN3Q", "current_trial": 231, "dateTime": 1510690314304, "trialdata": {"rt": -1, "stimulus": "<p id=\"stim\">9</p>", "key_press": -1, "trial_type": "single-stim", "trial_index": 231, "time_elapsed": 1642659, "internal_node_id": "0.0-167.0-1.0"}}, {"uniqueid": "MTK0252:3WRFBPLXRBV3ISCGTRJL95EPAOBN3Q", "current_trial": 232, "dateTime": 1510690315308, "trialdata": {"rt": -1, "stimulus": "<p id=\"stim\">8</p>", "key_press": -1, "trial_type": "single-stim", "trial_index": 232, "time_elapsed": 1643663, "internal_node_id": "0.0-167.0-2.0"}}, {"uniqueid": "MTK0252:3WRFBPLXRBV3ISCGTRJL95EPAOBN3Q", "current_trial": 233, "dateTime": 1510690316312, "trialdata": {"rt": -1, "stimulus": "<p id=\"stim\">7</p>", "key_press": -1, "trial_type": "single-stim", "trial_index": 233, "time_elapsed": 1644667, "internal_node_id": "0.0-167.0-3.0"}}, {"uniqueid": "MTK0252:3WRFBPLXRBV3ISCGTRJL95EPAOBN3Q", "current_trial": 234, "dateTime": 1510690317316, "trialdata": {"rt": -1, "stimulus": "<p id=\"stim\">6</p>", "key_press": -1, "trial_type": "single-stim", "trial_index": 234, "time_elapsed": 1645670, "internal_node_id": "0.0-167.0-4.0"}}, {"uniqueid": "MTK0252:3WRFBPLXRBV3ISCGTRJL95EPAOBN3Q", "current_trial": 235, "dateTime": 1510690318319, "trialdata": {"rt": -1, "stimulus": "<p id=\"stim\">5</p>", "key_press": -1, "trial_type": "single-stim", "trial_index": 235, "time_elapsed": 1646674, "internal_node_id": "0.0-167.0-5.0"}}, {"uniqueid": "MTK0252:3WRFBPLXRBV3ISCGTRJL95EPAOBN3Q", "current_trial": 236, "dateTime": 1510690319324, "trialdata": {"rt": -1, "stimulus": "<p id=\"stim\">4</p>", "key_press": -1, "trial_type": "single-stim", "trial_index": 236, "time_elapsed": 1647678, "internal_node_id": "0.0-167.0-6.0"}}, {"uniqueid": "MTK0252:3WRFBPLXRBV3ISCGTRJL95EPAOBN3Q", "current_trial": 237, "dateTime": 1510690320328, "trialdata": {"rt": -1, "stimulus": "<p id=\"stim\">3</p>", "key_press": -1, "trial_type": "single-stim", "trial_index": 237, "time_elapsed": 1648683, "internal_node_id": "0.0-167.0-7.0"}}, {"uniqueid": "MTK0252:3WRFBPLXRBV3ISCGTRJL95EPAOBN3Q", "current_trial": 238, "dateTime": 1510690321330, "trialdata": {"rt": -1, "stimulus": "<p id=\"stim\">2</p>", "key_press": -1, "trial_type": "single-stim", "trial_index": 238, "time_elapsed": 1649685, "internal_node_id": "0.0-167.0-8.0"}}, {"uniqueid": "MTK0252:3WRFBPLXRBV3ISCGTRJL95EPAOBN3Q", "current_trial": 239, "dateTime": 1510690322335, "trialdata": {"rt": -1, "stimulus": "<p id=\"stim\">1</p>", "key_press": -1, "trial_type": "single-stim", "trial_index": 239, "time_elapsed": 1650690, "internal_node_id": "0.0-167.0-9.0"}}, {"uniqueid": "MTK0252:3WRFBPLXRBV3ISCGTRJL95EPAOBN3Q", "current_trial": 240, "dateTime": 1510690323839, "trialdata": {"rt": -1, "stimulus": "<p id=\"stim\">+</p>", "key_press": -1, "type": "FIXATION", "trial_type": "single-stim", "trial_index": 240, "time_elapsed": 1652194, "internal_node_id": "0.0-168.0-0.0"}}, {"uniqueid": "MTK0252:3WRFBPLXRBV3ISCGTRJL95EPAOBN3Q", "current_trial": 241, "dateTime": 1510690326637, "trialdata": {"rt": -1000, "stimulus": "/static/audio/wordpool/GALLON.wav", "key_press": -1, "type": "PRES_AUD", "word": "gallon", "wordID": 617, "conditions": [24, 1600, "a", 24000], "trial": 7, "serialpos": 0, "trial_type": "single-audio", "trial_index": 241, "time_elapsed": 1654992, "internal_node_id": "0.0-169.0"}}, {"uniqueid": "MTK0252:3WRFBPLXRBV3ISCGTRJL95EPAOBN3Q", "current_trial": 242, "dateTime": 1510690329114, "trialdata": {"rt": -1000, "stimulus": "/static/audio/wordpool/BUGGY.wav", "key_press": -1, "type": "PRES_AUD", "word": "buggy", "wordID": 187, "conditions": [24, 1600, "a", 24000], "trial": 7, "serialpos": 1, "trial_type": "single-audio", "trial_index": 242, "time_elapsed": 1657469, "internal_node_id": "0.0-170.0"}}, {"uniqueid": "MTK0252:3WRFBPLXRBV3ISCGTRJL95EPAOBN3Q", "current_trial": 243, "dateTime": 1510690331830, "trialdata": {"rt": -1000, "stimulus": "/static/audio/wordpool/ATLAS.wav", "key_press": -1, "type": "PRES_AUD", "word": "atlas", "wordID": 52, "conditions": [24, 1600, "a", 24000], "trial": 7, "serialpos": 2, "trial_type": "single-audio", "trial_index": 243, "time_elapsed": 1660185, "internal_node_id": "0.0-171.0"}}, {"uniqueid": "MTK0252:3WRFBPLXRBV3ISCGTRJL95EPAOBN3Q", "current_trial": 244, "dateTime": 1510690334427, "trialdata": {"rt": -1000, "stimulus": "/static/audio/wordpool/ROBBER.wav", "key_press": -1, "type": "PRES_AUD", "word": "robber", "wordID": 1196, "conditions": [24, 1600, "a", 24000], "trial": 7, "serialpos": 3, "trial_type": "single-audio", "trial_index": 244, "time_elapsed": 1662782, "internal_node_id": "0.0-172.0"}}, {"uniqueid": "MTK0252:3WRFBPLXRBV3ISCGTRJL95EPAOBN3Q", "current_trial": 245, "dateTime": 1510690336953, "trialdata": {"rt": -1000, "stimulus": "/static/audio/wordpool/DIVER.wav", "key_press": -1, "type": "PRES_AUD", "word": "diver", "wordID": 475, "conditions": [24, 1600, "a", 24000], "trial": 7, "serialpos": 4, "trial_type": "single-audio", "trial_index": 245, "time_elapsed": 1665308, "internal_node_id": "0.0-173.0"}}, {"uniqueid": "MTK0252:3WRFBPLXRBV3ISCGTRJL95EPAOBN3Q", "current_trial": 246, "dateTime": 1510690339587, "trialdata": {"rt": -1000, "stimulus": "/static/audio/wordpool/LABEL.wav", "key_press": -1, "type": "PRES_AUD", "word": "label", "wordID": 789, "conditions": [24, 1600, "a", 24000], "trial": 7, "serialpos": 5, "trial_type": "single-audio", "trial_index": 246, "time_elapsed": 1667942, "internal_node_id": "0.0-174.0"}}, {"uniqueid": "MTK0252:3WRFBPLXRBV3ISCGTRJL95EPAOBN3Q", "current_trial": 247, "dateTime": 1510690342127, "trialdata": {"rt": -1000, "stimulus": "/static/audio/wordpool/DOLPHIN.wav", "key_press": -1, "type": "PRES_AUD", "word": "dolphin", "wordID": 482, "conditions": [24, 1600, "a", 24000], "trial": 7, "serialpos": 6, "trial_type": "single-audio", "trial_index": 247, "time_elapsed": 1670482, "internal_node_id": "0.0-175.0"}}, {"uniqueid": "MTK0252:3WRFBPLXRBV3ISCGTRJL95EPAOBN3Q", "current_trial": 248, "dateTime": 1510690344588, "trialdata": {"rt": -1000, "stimulus": "/static/audio/wordpool/TRUCK.wav", "key_press": -1, "type": "PRES_AUD", "word": "truck", "wordID": 1511, "conditions": [24, 1600, "a", 24000], "trial": 7, "serialpos": 7, "trial_type": "single-audio", "trial_index": 248, "time_elapsed": 1672943, "internal_node_id": "0.0-176.0"}}, {"uniqueid": "MTK0252:3WRFBPLXRBV3ISCGTRJL95EPAOBN3Q", "current_trial": 249, "dateTime": 1510690347134, "trialdata": {"rt": -1000, "stimulus": "/static/audio/wordpool/TRACTOR.wav", "key_press": -1, "type": "PRES_AUD", "word": "tractor", "wordID": 1492, "conditions": [24, 1600, "a", 24000], "trial": 7, "serialpos": 8, "trial_type": "single-audio", "trial_index": 249, "time_elapsed": 1675489, "internal_node_id": "0.0-177.0"}}, {"uniqueid": "MTK0252:3WRFBPLXRBV3ISCGTRJL95EPAOBN3Q", "current_trial": 250, "dateTime": 1510690349763, "trialdata": {"rt": -1000, "stimulus": "/static/audio/wordpool/BARREL.wav", "key_press": -1, "type": "PRES_AUD", "word": "barrel", "wordID": 90, "conditions": [24, 1600, "a", 24000], "trial": 7, "serialpos": 9, "trial_type": "single-audio", "trial_index": 250, "time_elapsed": 1678118, "internal_node_id": "0.0-178.0"}}, {"uniqueid": "MTK0252:3WRFBPLXRBV3ISCGTRJL95EPAOBN3Q", "current_trial": 251, "dateTime": 1510690352348, "trialdata": {"rt": -1000, "stimulus": "/static/audio/wordpool/BEAVER.wav", "key_press": -1, "type": "PRES_AUD", "word": "beaver", "wordID": 108, "conditions": [24, 1600, "a", 24000], "trial": 7, "serialpos": 10, "trial_type": "single-audio", "trial_index": 251, "time_elapsed": 1680703, "internal_node_id": "0.0-179.0"}}, {"uniqueid": "MTK0252:3WRFBPLXRBV3ISCGTRJL95EPAOBN3Q", "current_trial": 252, "dateTime": 1510690355122, "trialdata": {"rt": -1000, "stimulus": "/static/audio/wordpool/FRUIT.wav", "key_press": -1, "type": "PRES_AUD", "word": "fruit", "wordID": 609, "conditions": [24, 1600, "a", 24000], "trial": 7, "serialpos": 11, "trial_type": "single-audio", "trial_index": 252, "time_elapsed": 1683477, "internal_node_id": "0.0-180.0"}}, {"uniqueid": "MTK0252:3WRFBPLXRBV3ISCGTRJL95EPAOBN3Q", "current_trial": 253, "dateTime": 1510690357552, "trialdata": {"rt": -1000, "stimulus": "/static/audio/wordpool/TOASTER.wav", "key_press": -1, "type": "PRES_AUD", "word": "toaster", "wordID": 1471, "conditions": [24, 1600, "a", 24000], "trial": 7, "serialpos": 12, "trial_type": "single-audio", "trial_index": 253, "time_elapsed": 1685907, "internal_node_id": "0.0-181.0"}}, {"uniqueid": "MTK0252:3WRFBPLXRBV3ISCGTRJL95EPAOBN3Q", "current_trial": 254, "dateTime": 1510690360027, "trialdata": {"rt": -1000, "stimulus": "/static/audio/wordpool/INFANT.wav", "key_press": -1, "type": "PRES_AUD", "word": "infant", "wordID": 736, "conditions": [24, 1600, "a", 24000], "trial": 7, "serialpos": 13, "trial_type": "single-audio", "trial_index": 254, "time_elapsed": 1688382, "internal_node_id": "0.0-182.0"}}, {"uniqueid": "MTK0252:3WRFBPLXRBV3ISCGTRJL95EPAOBN3Q", "current_trial": 255, "dateTime": 1510690362514, "trialdata": {"rt": -1000, "stimulus": "/static/audio/wordpool/CHILD.wav", "key_press": -1, "type": "PRES_AUD", "word": "child", "wordID": 298, "conditions": [24, 1600, "a", 24000], "trial": 7, "serialpos": 14, "trial_type": "single-audio", "trial_index": 255, "time_elapsed": 1690869, "internal_node_id": "0.0-183.0"}}, {"uniqueid": "MTK0252:3WRFBPLXRBV3ISCGTRJL95EPAOBN3Q", "current_trial": 256, "dateTime": 1510690364987, "trialdata": {"rt": -1000, "stimulus": "/static/audio/wordpool/OX.wav", "key_press": -1, "type": "PRES_AUD", "word": "ox", "wordID": 993, "conditions": [24, 1600, "a", 24000], "trial": 7, "serialpos": 15, "trial_type": "single-audio", "trial_index": 256, "time_elapsed": 1693342, "internal_node_id": "0.0-184.0"}}, {"uniqueid": "MTK0252:3WRFBPLXRBV3ISCGTRJL95EPAOBN3Q", "current_trial": 257, "dateTime": 1510690367685, "trialdata": {"rt": -1000, "stimulus": "/static/audio/wordpool/FILM.wav", "key_press": -1, "type": "PRES_AUD", "word": "film", "wordID": 564, "conditions": [24, 1600, "a", 24000], "trial": 7, "serialpos": 16, "trial_type": "single-audio", "trial_index": 257, "time_elapsed": 1696040, "internal_node_id": "0.0-185.0"}}, {"uniqueid": "MTK0252:3WRFBPLXRBV3ISCGTRJL95EPAOBN3Q", "current_trial": 258, "dateTime": 1510690370242, "trialdata": {"rt": -1000, "stimulus": "/static/audio/wordpool/COOKBOOK.wav", "key_press": -1, "type": "PRES_AUD", "word": "cookbook", "wordID": 372, "conditions": [24, 1600, "a", 24000], "trial": 7, "serialpos": 17, "trial_type": "single-audio", "trial_index": 258, "time_elapsed": 1698597, "internal_node_id": "0.0-186.0"}}, {"uniqueid": "MTK0252:3WRFBPLXRBV3ISCGTRJL95EPAOBN3Q", "current_trial": 259, "dateTime": 1510690372743, "trialdata": {"rt": -1000, "stimulus": "/static/audio/wordpool/SAUSAGE.wav", "key_press": -1, "type": "PRES_AUD", "word": "sausage", "wordID": 1237, "conditions": [24, 1600, "a", 24000], "trial": 7, "serialpos": 18, "trial_type": "single-audio", "trial_index": 259, "time_elapsed": 1701097, "internal_node_id": "0.0-187.0"}}, {"uniqueid": "MTK0252:3WRFBPLXRBV3ISCGTRJL95EPAOBN3Q", "current_trial": 260, "dateTime": 1510690375443, "trialdata": {"rt": -1000, "stimulus": "/static/audio/wordpool/ACTOR.wav", "key_press": -1, "type": "PRES_AUD", "word": "actor", "wordID": 4, "conditions": [24, 1600, "a", 24000], "trial": 7, "serialpos": 19, "trial_type": "single-audio", "trial_index": 260, "time_elapsed": 1703798, "internal_node_id": "0.0-188.0"}}, {"uniqueid": "MTK0252:3WRFBPLXRBV3ISCGTRJL95EPAOBN3Q", "current_trial": 261, "dateTime": 1510690377937, "trialdata": {"rt": -1000, "stimulus": "/static/audio/wordpool/CLOCK.wav", "key_press": -1, "type": "PRES_AUD", "word": "clock", "wordID": 324, "conditions": [24, 1600, "a", 24000], "trial": 7, "serialpos": 20, "trial_type": "single-audio", "trial_index": 261, "time_elapsed": 1706292, "internal_node_id": "0.0-189.0"}}, {"uniqueid": "MTK0252:3WRFBPLXRBV3ISCGTRJL95EPAOBN3Q", "current_trial": 262, "dateTime": 1510690380697, "trialdata": {"rt": -1000, "stimulus": "/static/audio/wordpool/CARRIAGE.wav", "key_press": -1, "type": "PRES_AUD", "word": "carriage", "wordID": 247, "conditions": [24, 1600, "a", 24000], "trial": 7, "serialpos": 21, "trial_type": "single-audio", "trial_index": 262, "time_elapsed": 1709051, "internal_node_id": "0.0-190.0"}}, {"uniqueid": "MTK0252:3WRFBPLXRBV3ISCGTRJL95EPAOBN3Q", "current_trial": 263, "dateTime": 1510690383433, "trialdata": {"rt": -1000, "stimulus": "/static/audio/wordpool/PASTA.wav", "key_press": -1, "type": "PRES_AUD", "word": "pasta", "wordID": 1020, "conditions": [24, 1600, "a", 24000], "trial": 7, "serialpos": 22, "trial_type": "single-audio", "trial_index": 263, "time_elapsed": 1711788, "internal_node_id": "0.0-191.0"}}, {"uniqueid": "MTK0252:3WRFBPLXRBV3ISCGTRJL95EPAOBN3Q", "current_trial": 264, "dateTime": 1510690386170, "trialdata": {"rt": -1000, "stimulus": "/static/audio/wordpool/PLAZA.wav", "key_press": -1, "type": "PRES_AUD", "word": "plaza", "wordID": 1087, "conditions": [24, 1600, "a", 24000], "trial": 7, "serialpos": 23, "trial_type": "single-audio", "trial_index": 264, "time_elapsed": 1714525, "internal_node_id": "0.0-192.0"}}, {"uniqueid": "MTK0252:3WRFBPLXRBV3ISCGTRJL95EPAOBN3Q", "current_trial": 265, "dateTime": 1510690387472, "trialdata": {"rt": -1, "stimulus": "", "key_press": -1, "type": "PRE_RECALL_DELAY", "trial_type": "single-stim", "trial_index": 265, "time_elapsed": 1715827, "internal_node_id": "0.0-193.0-0.0"}}, {"uniqueid": "MTK0252:3WRFBPLXRBV3ISCGTRJL95EPAOBN3Q", "current_trial": 266, "dateTime": 1510690387973, "trialdata": {"rt": -1000, "stimulus": "/static/audio/400Hz.wav", "key_press": -1, "type": "PRE_RECALL_ALERT", "trial_type": "single-audio", "trial_index": 266, "time_elapsed": 1716328, "internal_node_id": "0.0-194.0"}}, {"uniqueid": "MTK0252:3WRFBPLXRBV3ISCGTRJL95EPAOBN3Q", "current_trial": 267, "dateTime": 1510690447978, "trialdata": {"rt": [1950, 4515, 5854, 9668, 11063, 12695, 19850], "recwords": ["pasta", "cookbook", "sausage", "dolphin", "gallon", "robber", "beater"], "type": "FREE_RECALL", "conditions": [24, 1600, "a", 24000], "trial": 7, "trial_type": "free-recall", "trial_index": 267, "time_elapsed": 1776331, "internal_node_id": "0.0-195.0-0.0"}}, {"uniqueid": "MTK0252:3WRFBPLXRBV3ISCGTRJL95EPAOBN3Q", "current_trial": 268, "dateTime": 1510690523906, "trialdata": {"rt": 73922, "key_press": 32, "type": "INSTRUCTIONS", "trial_type": "text", "trial_index": 268, "time_elapsed": 1852261, "internal_node_id": "0.0-196.0"}}, {"uniqueid": "MTK0252:3WRFBPLXRBV3ISCGTRJL95EPAOBN3Q", "current_trial": 269, "dateTime": 1510690537913, "trialdata": {"rt": [3916, 8382, 11454], "responses": ["15", "21", "12"], "num1": [4, 6, 2, 2], "num2": [6, 9, 2, 6], "num3": [5, 6, 8, 1], "type": "DISTRACTOR", "conditions": [12, 1600, "v", 12000], "trial": 8, "trial_type": "math-distractor", "trial_index": 269, "time_elapsed": 1866268, "internal_node_id": "0.0-197.0"}}, {"uniqueid": "MTK0252:3WRFBPLXRBV3ISCGTRJL95EPAOBN3Q", "current_trial": 270, "dateTime": 1510690540921, "trialdata": {"rt": -1, "stimulus": "<p id=\"stim\">10</p>", "key_press": -1, "trial_type": "single-stim", "trial_index": 270, "time_elapsed": 1869276, "internal_node_id": "0.0-198.0-0.0"}}, {"uniqueid": "MTK0252:3WRFBPLXRBV3ISCGTRJL95EPAOBN3Q", "current_trial": 271, "dateTime": 1510690541924, "trialdata": {"rt": -1, "stimulus": "<p id=\"stim\">9</p>", "key_press": -1, "trial_type": "single-stim", "trial_index": 271, "time_elapsed": 1870279, "internal_node_id": "0.0-198.0-1.0"}}, {"uniqueid": "MTK0252:3WRFBPLXRBV3ISCGTRJL95EPAOBN3Q", "current_trial": 272, "dateTime": 1510690542929, "trialdata": {"rt": -1, "stimulus": "<p id=\"stim\">8</p>", "key_press": -1, "trial_type": "single-stim", "trial_index": 272, "time_elapsed": 1871284, "internal_node_id": "0.0-198.0-2.0"}}, {"uniqueid": "MTK0252:3WRFBPLXRBV3ISCGTRJL95EPAOBN3Q", "current_trial": 273, "dateTime": 1510690543934, "trialdata": {"rt": -1, "stimulus": "<p id=\"stim\">7</p>", "key_press": -1, "trial_type": "single-stim", "trial_index": 273, "time_elapsed": 1872289, "internal_node_id": "0.0-198.0-3.0"}}, {"uniqueid": "MTK0252:3WRFBPLXRBV3ISCGTRJL95EPAOBN3Q", "current_trial": 274, "dateTime": 1510690544938, "trialdata": {"rt": -1, "stimulus": "<p id=\"stim\