{"condition": 0, "counterbalance": 631, "assignmentId": "3YMU66OBIOFC282TL8VSNF62R0QGH2", "workerId": "MTK0143", "hitId": "3FSEU3P2NR7ET8RG7MWWB3QV3XIRRV", "currenttrial": 623, "bonus": 0, "data": [{"uniqueid": "MTK0143:3YMU66OBIOFC282TL8VSNF62R0QGH2", "current_trial": 0, "dateTime": 1509289710105, "trialdata": {"rt": 1189, "key_press": 32, "type": "INSTRUCTIONS", "trial_type": "text", "trial_index": 0, "time_elapsed": 1190, "internal_node_id": "0.0-0.0"}}, {"uniqueid": "MTK0143:3YMU66OBIOFC282TL8VSNF62R0QGH2", "current_trial": 1, "dateTime": 1509289717392, "trialdata": {"rt": 7287, "key_press": 32, "type": "INSTRUCTIONS", "trial_type": "text", "trial_index": 1, "time_elapsed": 8477, "internal_node_id": "0.0-1.0"}}, {"uniqueid": "MTK0143:3YMU66OBIOFC282TL8VSNF62R0QGH2", "current_trial": 2, "dateTime": 1509289728928, "trialdata": {"rt": [11531], "responses": ["ocean"], "type": "AUDIO_TEST", "trial_type": "audio-test", "trial_index": 2, "time_elapsed": 20013, "internal_node_id": "0.0-2.0"}}, {"uniqueid": "MTK0143:3YMU66OBIOFC282TL8VSNF62R0QGH2", "current_trial": 3, "dateTime": 1509289734189, "trialdata": {"rt": [5258], "responses": ["crystal"], "type": "AUDIO_TEST", "trial_type": "audio-test", "trial_index": 3, "time_elapsed": 25274, "internal_node_id": "0.0-3.0"}}, {"uniqueid": "MTK0143:3YMU66OBIOFC282TL8VSNF62R0QGH2", "current_trial": 4, "dateTime": 1509289738254, "trialdata": {"rt": [4064], "responses": ["spice"], "type": "AUDIO_TEST", "trial_type": "audio-test", "trial_index": 4, "time_elapsed": 29339, "internal_node_id": "0.0-4.0"}}, {"uniqueid": "MTK0143:3YMU66OBIOFC282TL8VSNF62R0QGH2", "current_trial": 5, "dateTime": 1509289741761, "trialdata": {"rt": 2756, "key_press": 32, "type": "INSTRUCTIONS", "trial_type": "text", "trial_index": 5, "time_elapsed": 32846, "internal_node_id": "0.0-5.0"}}, {"uniqueid": "MTK0143:3YMU66OBIOFC282TL8VSNF62R0QGH2", "current_trial": 6, "dateTime": 1509290205949, "trialdata": {"rt": 464186, "key_press": 32, "type": "INSTRUCTIONS", "trial_type": "text", "trial_index": 6, "time_elapsed": 497034, "internal_node_id": "0.0-6.0"}}, {"uniqueid": "MTK0143:3YMU66OBIOFC282TL8VSNF62R0QGH2", "current_trial": 7, "dateTime": 1509290218237, "trialdata": {"rt": 12287, "key_press": 32, "type": "INSTRUCTIONS", "trial_type": "text", "trial_index": 7, "time_elapsed": 509322, "internal_node_id": "0.0-7.0"}}, {"uniqueid": "MTK0143:3YMU66OBIOFC282TL8VSNF62R0QGH2", "current_trial": 8, "dateTime": 1509290225203, "trialdata": {"rt": 6966, "key_press": 32, "type": "INSTRUCTIONS", "trial_type": "text", "trial_index": 8, "time_elapsed": 516288, "internal_node_id": "0.0-8.0"}}, {"uniqueid": "MTK0143:3YMU66OBIOFC282TL8VSNF62R0QGH2", "current_trial": 9, "dateTime": 1509290244207, "trialdata": {"rt": [1771, 3999, 6136, 10682, 12270, 15399, 17568], "responses": ["12", "18", "14", "17", "15", "10", "9"], "num1": [4, 5, 8, 9, 5, 1, 3, 6], "num2": [4, 2, 4, 4, 7, 3, 4, 5], "num3": [4, 8, 2, 4, 3, 6, 2, 3], "type": "DISTRACTOR", "conditions": [18, 1200, "v", 18000], "trial": 0, "trial_type": "math-distractor", "trial_index": 9, "time_elapsed": 535292, "internal_node_id": "0.0-9.0"}}, {"uniqueid": "MTK0143:3YMU66OBIOFC282TL8VSNF62R0QGH2", "current_trial": 10, "dateTime": 1509290247208, "trialdata": {"rt": -1, "stimulus": "<p id=\"stim\">10</p>", "key_press": -1, "trial_type": "single-stim", "trial_index": 10, "time_elapsed": 538293, "internal_node_id": "0.0-10.0-0.0"}}, {"uniqueid": "MTK0143:3YMU66OBIOFC282TL8VSNF62R0QGH2", "current_trial": 11, "dateTime": 1509290248210, "trialdata": {"rt": -1, "stimulus": "<p id=\"stim\">9</p>", "key_press": -1, "trial_type": "single-stim", "trial_index": 11, "time_elapsed": 539295, "internal_node_id": "0.0-10.0-1.0"}}, {"uniqueid": "MTK0143:3YMU66OBIOFC282TL8VSNF62R0QGH2", "current_trial": 12, "dateTime": 1509290249211, "trialdata": {"rt": -1, "stimulus": "<p id=\"stim\">8</p>", "key_press": -1, "trial_type": "single-stim", "trial_index": 12, "time_elapsed": 540296, "internal_node_id": "0.0-10.0-2.0"}}, {"uniqueid": "MTK0143:3YMU66OBIOFC282TL8VSNF62R0QGH2", "current_trial": 13, "dateTime": 1509290250213, "trialdata": {"rt": -1, "stimulus": "<p id=\"stim\">7</p>", "key_press": -1, "trial_type": "single-stim", "trial_index": 13, "time_elapsed": 541298, "internal_node_id": "0.0-10.0-3.0"}}, {"uniqueid": "MTK0143:3YMU66OBIOFC282TL8VSNF62R0QGH2", "current_trial": 14, "dateTime": 1509290251214, "trialdata": {"rt": -1, "stimulus": "<p id=\"stim\">6</p>", "key_press": -1, "trial_type": "single-stim", "trial_index": 14, "time_elapsed": 542299, "internal_node_id": "0.0-10.0-4.0"}}, {"uniqueid": "MTK0143:3YMU66OBIOFC282TL8VSNF62R0QGH2", "current_trial": 15, "dateTime": 1509290252215, "trialdata": {"rt": -1, "stimulus": "<p id=\"stim\">5</p>", "key_press": -1, "trial_type": "single-stim", "trial_index": 15, "time_elapsed": 543300, "internal_node_id": "0.0-10.0-5.0"}}, {"uniqueid": "MTK0143:3YMU66OBIOFC282TL8VSNF62R0QGH2", "current_trial": 16, "dateTime": 1509290253217, "trialdata": {"rt": -1, "stimulus": "<p id=\"stim\">4</p>", "key_press": -1, "trial_type": "single-stim", "trial_index": 16, "time_elapsed": 544302, "internal_node_id": "0.0-10.0-6.0"}}, {"uniqueid": "MTK0143:3YMU66OBIOFC282TL8VSNF62R0QGH2", "current_trial": 17, "dateTime": 1509290254218, "trialdata": {"rt": -1, "stimulus": "<p id=\"stim\">3</p>", "key_press": -1, "trial_type": "single-stim", "trial_index": 17, "time_elapsed": 545303, "internal_node_id": "0.0-10.0-7.0"}}, {"uniqueid": "MTK0143:3YMU66OBIOFC282TL8VSNF62R0QGH2", "current_trial": 18, "dateTime": 1509290255220, "trialdata": {"rt": -1, "stimulus": "<p id=\"stim\">2</p>", "key_press": -1, "trial_type": "single-stim", "trial_index": 18, "time_elapsed": 546305, "internal_node_id": "0.0-10.0-8.0"}}, {"uniqueid": "MTK0143:3YMU66OBIOFC282TL8VSNF62R0QGH2", "current_trial": 19, "dateTime": 1509290256221, "trialdata": {"rt": -1, "stimulus": "<p id=\"stim\">1</p>", "key_press": -1, "trial_type": "single-stim", "trial_index": 19, "time_elapsed": 547306, "internal_node_id": "0.0-10.0-9.0"}}, {"uniqueid": "MTK0143:3YMU66OBIOFC282TL8VSNF62R0QGH2", "current_trial": 20, "dateTime": 1509290257722, "trialdata": {"rt": -1, "stimulus": "<p id=\"stim\">+</p>", "key_press": -1, "type": "FIXATION", "trial_type": "single-stim", "trial_index": 20, "time_elapsed": 548807, "internal_node_id": "0.0-11.0-0.0"}}, {"uniqueid": "MTK0143:3YMU66OBIOFC282TL8VSNF62R0QGH2", "current_trial": 21, "dateTime": 1509290258925, "trialdata": {"rt": -1, "stimulus": "<p id=\"stim\">REPORT</p>", "key_press": -1, "type": "PRES_VIS", "word": "report", "wordID": 1183, "conditions": [18, 1200, "v", 18000], "trial": 0, "serialpos": 0, "trial_type": "single-stim", "trial_index": 21, "time_elapsed": 550010, "internal_node_id": "0.0-12.0"}}, {"uniqueid": "MTK0143:3YMU66OBIOFC282TL8VSNF62R0QGH2", "current_trial": 22, "dateTime": 1509290261295, "trialdata": {"rt": -1, "stimulus": "<p id=\"stim\">SWITCH</p>", "key_press": -1, "type": "PRES_VIS", "word": "switch", "wordID": 1421, "conditions": [18, 1200, "v", 18000], "trial": 0, "serialpos": 1, "trial_type": "single-stim", "trial_index": 22, "time_elapsed": 552380, "internal_node_id": "0.0-13.0"}}, {"uniqueid": "MTK0143:3YMU66OBIOFC282TL8VSNF62R0QGH2", "current_trial": 23, "dateTime": 1509290263314, "trialdata": {"rt": -1, "stimulus": "<p id=\"stim\">SKILLET</p>", "key_press": -1, "type": "PRES_VIS", "word": "skillet", "wordID": 1316, "conditions": [18, 1200, "v", 18000], "trial": 0, "serialpos": 2, "trial_type": "single-stim", "trial_index": 23, "time_elapsed": 554399, "internal_node_id": "0.0-14.0"}}, {"uniqueid": "MTK0143:3YMU66OBIOFC282TL8VSNF62R0QGH2", "current_trial": 24, "dateTime": 1509290265485, "trialdata": {"rt": -1, "stimulus": "<p id=\"stim\">GUITAR</p>", "key_press": -1, "type": "PRES_VIS", "word": "guitar", "wordID": 669, "conditions": [18, 1200, "v", 18000], "trial": 0, "serialpos": 3, "trial_type": "single-stim", "trial_index": 24, "time_elapsed": 556570, "internal_node_id": "0.0-15.0"}}, {"uniqueid": "MTK0143:3YMU66OBIOFC282TL8VSNF62R0QGH2", "current_trial": 25, "dateTime": 1509290267857, "trialdata": {"rt": -1, "stimulus": "<p id=\"stim\">CANAL</p>", "key_press": -1, "type": "PRES_VIS", "word": "canal", "wordID": 225, "conditions": [18, 1200, "v", 18000], "trial": 0, "serialpos": 4, "trial_type": "single-stim", "trial_index": 25, "time_elapsed": 558942, "internal_node_id": "0.0-16.0"}}, {"uniqueid": "MTK0143:3YMU66OBIOFC282TL8VSNF62R0QGH2", "current_trial": 26, "dateTime": 1509290270186, "trialdata": {"rt": -1, "stimulus": "<p id=\"stim\">SWIMMER</p>", "key_press": -1, "type": "PRES_VIS", "word": "swimmer", "wordID": 1419, "conditions": [18, 1200, "v", 18000], "trial": 0, "serialpos": 5, "trial_type": "single-stim", "trial_index": 26, "time_elapsed": 561271, "internal_node_id": "0.0-17.0"}}, {"uniqueid": "MTK0143:3YMU66OBIOFC282TL8VSNF62R0QGH2", "current_trial": 27, "dateTime": 1509290272388, "trialdata": {"rt": -1, "stimulus": "<p id=\"stim\">DRESSER</p>", "key_press": -1, "type": "PRES_VIS", "word": "dresser", "wordID": 495, "conditions": [18, 1200, "v", 18000], "trial": 0, "serialpos": 6, "trial_type": "single-stim", "trial_index": 27, "time_elapsed": 563473, "internal_node_id": "0.0-18.0"}}, {"uniqueid": "MTK0143:3YMU66OBIOFC282TL8VSNF62R0QGH2", "current_trial": 28, "dateTime": 1509290274731, "trialdata": {"rt": -1, "stimulus": "<p id=\"stim\">DONKEY</p>", "key_press": -1, "type": "PRES_VIS", "word": "donkey", "wordID": 483, "conditions": [18, 1200, "v", 18000], "trial": 0, "serialpos": 7, "trial_type": "single-stim", "trial_index": 28, "time_elapsed": 565816, "internal_node_id": "0.0-19.0"}}, {"uniqueid": "MTK0143:3YMU66OBIOFC282TL8VSNF62R0QGH2", "current_trial": 29, "dateTime": 1509290277035, "trialdata": {"rt": -1, "stimulus": "<p id=\"stim\">PIMPLE</p>", "key_press": -1, "type": "PRES_VIS", "word": "pimple", "wordID": 1070, "conditions": [18, 1200, "v", 18000], "trial": 0, "serialpos": 8, "trial_type": "single-stim", "trial_index": 29, "time_elapsed": 568120, "internal_node_id": "0.0-20.0"}}, {"uniqueid": "MTK0143:3YMU66OBIOFC282TL8VSNF62R0QGH2", "current_trial": 30, "dateTime": 1509290279119, "trialdata": {"rt": -1, "stimulus": "<p id=\"stim\">HOOD</p>", "key_press": -1, "type": "PRES_VIS", "word": "hood", "wordID": 713, "conditions": [18, 1200, "v", 18000], "trial": 0, "serialpos": 9, "trial_type": "single-stim", "trial_index": 30, "time_elapsed": 570204, "internal_node_id": "0.0-21.0"}}, {"uniqueid": "MTK0143:3YMU66OBIOFC282TL8VSNF62R0QGH2", "current_trial": 31, "dateTime": 1509290281348, "trialdata": {"rt": -1, "stimulus": "<p id=\"stim\">MARSH</p>", "key_press": -1, "type": "PRES_VIS", "word": "marsh", "wordID": 873, "conditions": [18, 1200, "v", 18000], "trial": 0, "serialpos": 10, "trial_type": "single-stim", "trial_index": 31, "time_elapsed": 572433, "internal_node_id": "0.0-22.0"}}, {"uniqueid": "MTK0143:3YMU66OBIOFC282TL8VSNF62R0QGH2", "current_trial": 32, "dateTime": 1509290283435, "trialdata": {"rt": -1, "stimulus": "<p id=\"stim\">FLASK</p>", "key_press": -1, "type": "PRES_VIS", "word": "flask", "wordID": 575, "conditions": [18, 1200, "v", 18000], "trial": 0, "serialpos": 11, "trial_type": "single-stim", "trial_index": 32, "time_elapsed": 574520, "internal_node_id": "0.0-23.0"}}, {"uniqueid": "MTK0143:3YMU66OBIOFC282TL8VSNF62R0QGH2", "current_trial": 33, "dateTime": 1509290285468, "trialdata": {"rt": -1, "stimulus": "<p id=\"stim\">CRICKET</p>", "key_press": -1, "type": "PRES_VIS", "word": "cricket", "wordID": 407, "conditions": [18, 1200, "v", 18000], "trial": 0, "serialpos": 12, "trial_type": "single-stim", "trial_index": 33, "time_elapsed": 576553, "internal_node_id": "0.0-24.0"}}, {"uniqueid": "MTK0143:3YMU66OBIOFC282TL8VSNF62R0QGH2", "current_trial": 34, "dateTime": 1509290287649, "trialdata": {"rt": -1, "stimulus": "<p id=\"stim\">LADY</p>", "key_press": -1, "type": "PRES_VIS", "word": "lady", "wordID": 793, "conditions": [18, 1200, "v", 18000], "trial": 0, "serialpos": 13, "trial_type": "single-stim", "trial_index": 34, "time_elapsed": 578734, "internal_node_id": "0.0-25.0"}}, {"uniqueid": "MTK0143:3YMU66OBIOFC282TL8VSNF62R0QGH2", "current_trial": 35, "dateTime": 1509290289669, "trialdata": {"rt": -1, "stimulus": "<p id=\"stim\">AIRPORT</p>", "key_press": -1, "type": "PRES_VIS", "word": "airport", "wordID": 12, "conditions": [18, 1200, "v", 18000], "trial": 0, "serialpos": 14, "trial_type": "single-stim", "trial_index": 35, "time_elapsed": 580754, "internal_node_id": "0.0-26.0"}}, {"uniqueid": "MTK0143:3YMU66OBIOFC282TL8VSNF62R0QGH2", "current_trial": 36, "dateTime": 1509290291784, "trialdata": {"rt": -1, "stimulus": "<p id=\"stim\">JUNGLE</p>", "key_press": -1, "type": "PRES_VIS", "word": "jungle", "wordID": 763, "conditions": [18, 1200, "v", 18000], "trial": 0, "serialpos": 15, "trial_type": "single-stim", "trial_index": 36, "time_elapsed": 582869, "internal_node_id": "0.0-27.0"}}, {"uniqueid": "MTK0143:3YMU66OBIOFC282TL8VSNF62R0QGH2", "current_trial": 37, "dateTime": 1509290293810, "trialdata": {"rt": -1, "stimulus": "<p id=\"stim\">STUDENT</p>", "key_press": -1, "type": "PRES_VIS", "word": "student", "wordID": 1394, "conditions": [18, 1200, "v", 18000], "trial": 0, "serialpos": 16, "trial_type": "single-stim", "trial_index": 37, "time_elapsed": 584895, "internal_node_id": "0.0-28.0"}}, {"uniqueid": "MTK0143:3YMU66OBIOFC282TL8VSNF62R0QGH2", "current_trial": 38, "dateTime": 1509290295842, "trialdata": {"rt": -1, "stimulus": "<p id=\"stim\">ANKLE</p>", "key_press": -1, "type": "PRES_VIS", "word": "ankle", "wordID": 23, "conditions": [18, 1200, "v", 18000], "trial": 0, "serialpos": 17, "trial_type": "single-stim", "trial_index": 38, "time_elapsed": 586927, "internal_node_id": "0.0-29.0"}}, {"uniqueid": "MTK0143:3YMU66OBIOFC282TL8VSNF62R0QGH2", "current_trial": 39, "dateTime": 1509290298148, "trialdata": {"rt": -1, "stimulus": "", "key_press": -1, "type": "PRE_RECALL_DELAY", "trial_type": "single-stim", "trial_index": 39, "time_elapsed": 589233, "internal_node_id": "0.0-30.0-0.0"}}, {"uniqueid": "MTK0143:3YMU66OBIOFC282TL8VSNF62R0QGH2", "current_trial": 40, "dateTime": 1509290298651, "trialdata": {"rt": -1000, "stimulus": "/static/audio/400Hz.wav", "key_press": -1, "type": "PRE_RECALL_ALERT", "trial_type": "single-audio", "trial_index": 40, "time_elapsed": 589736, "internal_node_id": "0.0-31.0"}}, {"uniqueid": "MTK0143:3YMU66OBIOFC282TL8VSNF62R0QGH2", "current_trial": 41, "dateTime": 1509290358653, "trialdata": {"rt": [3464, 5409, 7183, 10181, 11913, 24033, 34975], "recwords": ["report", "swimmer", "jungle", "pimple", "skillet", "report", "marsh"], "type": "FREE_RECALL", "conditions": [18, 1200, "v", 18000], "trial": 0, "trial_type": "free-recall", "trial_index": 41, "time_elapsed": 649736, "internal_node_id": "0.0-32.0-0.0"}}, {"uniqueid": "MTK0143:3YMU66OBIOFC282TL8VSNF62R0QGH2", "current_trial": 42, "dateTime": 1509290478696, "trialdata": {"rt": 118042, "key_press": 32, "type": "INSTRUCTIONS", "trial_type": "text", "trial_index": 42, "time_elapsed": 769781, "internal_node_id": "0.0-33.0"}}, {"uniqueid": "MTK0143:3YMU66OBIOFC282TL8VSNF62R0QGH2", "current_trial": 43, "dateTime": 1509290498698, "trialdata": {"rt": [4351, 5709, 8444, 9562, 11686, 16324], "responses": ["11", "5", "22", "21", "8", "25"], "num1": [3, 3, 8, 7, 1, 8, 8], "num2": [6, 1, 6, 7, 5, 8, 4], "num3": [2, 1, 8, 7, 2, 7, 6], "type": "DISTRACTOR", "conditions": [18, 1200, "a", 18000], "trial": 1, "trial_type": "math-distractor", "trial_index": 43, "time_elapsed": 789783, "internal_node_id": "0.0-34.0"}}, {"uniqueid": "MTK0143:3YMU66OBIOFC282TL8VSNF62R0QGH2", "current_trial": 44, "dateTime": 1509290501702, "trialdata": {"rt": -1, "stimulus": "<p id=\"stim\">10</p>", "key_press": -1, "trial_type": "single-stim", "trial_index": 44, "time_elapsed": 792787, "internal_node_id": "0.0-35.0-0.0"}}, {"uniqueid": "MTK0143:3YMU66OBIOFC282TL8VSNF62R0QGH2", "current_trial": 45, "dateTime": 1509290502703, "trialdata": {"rt": -1, "stimulus": "<p id=\"stim\">9</p>", "key_press": -1, "trial_type": "single-stim", "trial_index": 45, "time_elapsed": 793788, "internal_node_id": "0.0-35.0-1.0"}}, {"uniqueid": "MTK0143:3YMU66OBIOFC282TL8VSNF62R0QGH2", "current_trial": 46, "dateTime": 1509290503705, "trialdata": {"rt": -1, "stimulus": "<p id=\"stim\">8</p>", "key_press": -1, "trial_type": "single-stim", "trial_index": 46, "time_elapsed": 794790, "internal_node_id": "0.0-35.0-2.0"}}, {"uniqueid": "MTK0143:3YMU66OBIOFC282TL8VSNF62R0QGH2", "current_trial": 47, "dateTime": 1509290504706, "trialdata": {"rt": -1, "stimulus": "<p id=\"stim\">7</p>", "key_press": -1, "trial_type": "single-stim", "trial_index": 47, "time_elapsed": 795791, "internal_node_id": "0.0-35.0-3.0"}}, {"uniqueid": "MTK0143:3YMU66OBIOFC282TL8VSNF62R0QGH2", "current_trial": 48, "dateTime": 1509290505707, "trialdata": {"rt": -1, "stimulus": "<p id=\"stim\">6</p>", "key_press": -1, "trial_type": "single-stim", "trial_index": 48, "time_elapsed": 796792, "internal_node_id": "0.0-35.0-4.0"}}, {"uniqueid": "MTK0143:3YMU66OBIOFC282TL8VSNF62R0QGH2", "current_trial": 49, "dateTime": 1509290506708, "trialdata": {"rt": -1, "stimulus": "<p id=\"stim\">5</p>", "key_press": -1, "trial_type": "single-stim", "trial_index": 49, "time_elapsed": 797793, "internal_node_id": "0.0-35.0-5.0"}}, {"uniqueid": "MTK0143:3YMU66OBIOFC282TL8VSNF62R0QGH2", "current_trial": 50, "dateTime": 1509290507709, "trialdata": {"rt": -1, "stimulus": "<p id=\"stim\">4</p>", "key_press": -1, "trial_type": "single-stim", "trial_index": 50, "time_elapsed": 798794, "internal_node_id": "0.0-35.0-6.0"}}, {"uniqueid": "MTK0143:3YMU66OBIOFC282TL8VSNF62R0QGH2", "current_trial": 51, "dateTime": 1509290508710, "trialdata": {"rt": -1, "stimulus": "<p id=\"stim\">3</p>", "key_press": -1, "trial_type": "single-stim", "trial_index": 51, "time_elapsed": 799795, "internal_node_id": "0.0-35.0-7.0"}}, {"uniqueid": "MTK0143:3YMU66OBIOFC282TL8VSNF62R0QGH2", "current_trial": 52, "dateTime": 1509290509711, "trialdata": {"rt": -1, "stimulus": "<p id=\"stim\">2</p>", "key_press": -1, "trial_type": "single-stim", "trial_index": 52, "time_elapsed": 800796, "internal_node_id": "0.0-35.0-8.0"}}, {"uniqueid": "MTK0143:3YMU66OBIOFC282TL8VSNF62R0QGH2", "current_trial": 53, "dateTime": 1509290510713, "trialdata": {"rt": -1, "stimulus": "<p id=\"stim\">1</p>", "key_press": -1, "trial_type": "single-stim", "trial_index": 53, "time_elapsed": 801798, "internal_node_id": "0.0-35.0-9.0"}}, {"uniqueid": "MTK0143:3YMU66OBIOFC282TL8VSNF62R0QGH2", "current_trial": 54, "dateTime": 1509290512214, "trialdata": {"rt": -1, "stimulus": "<p id=\"stim\">+</p>", "key_press": -1, "type": "FIXATION", "trial_type": "single-stim", "trial_index": 54, "time_elapsed": 803299, "internal_node_id": "0.0-36.0-0.0"}}, {"uniqueid": "MTK0143:3YMU66OBIOFC282TL8VSNF62R0QGH2", "current_trial": 55, "dateTime": 1509290514305, "trialdata": {"rt": -1000, "stimulus": "/static/audio/wordpool/SHORTS.wav", "key_press": -1, "type": "PRES_AUD", "word": "shorts", "wordID": 1292, "conditions": [18, 1200, "a", 18000], "trial": 1, "serialpos": 0, "trial_type": "single-audio", "trial_index": 55, "time_elapsed": 805390, "internal_node_id": "0.0-37.0"}}, {"uniqueid": "MTK0143:3YMU66OBIOFC282TL8VSNF62R0QGH2", "current_trial": 56, "dateTime": 1509290516357, "trialdata": {"rt": -1000, "stimulus": "/static/audio/wordpool/PASTA.wav", "key_press": -1, "type": "PRES_AUD", "word": "pasta", "wordID": 1020, "conditions": [18, 1200, "a", 18000], "trial": 1, "serialpos": 1, "trial_type": "single-audio", "trial_index": 56, "time_elapsed": 807442, "internal_node_id": "0.0-38.0"}}, {"uniqueid": "MTK0143:3YMU66OBIOFC282TL8VSNF62R0QGH2", "current_trial": 57, "dateTime": 1509290518434, "trialdata": {"rt": -1000, "stimulus": "/static/audio/wordpool/GLASS.wav", "key_press": -1, "type": "PRES_AUD", "word": "glass", "wordID": 638, "conditions": [18, 1200, "a", 18000], "trial": 1, "serialpos": 2, "trial_type": "single-audio", "trial_index": 57, "time_elapsed": 809519, "internal_node_id": "0.0-39.0"}}, {"uniqueid": "MTK0143:3YMU66OBIOFC282TL8VSNF62R0QGH2", "current_trial": 58, "dateTime": 1509290520502, "trialdata": {"rt": -1000, "stimulus": "/static/audio/wordpool/COWBOY.wav", "key_press": -1, "type": "PRES_AUD", "word": "cowboy", "wordID": 394, "conditions": [18, 1200, "a", 18000], "trial": 1, "serialpos": 3, "trial_type": "single-audio", "trial_index": 58, "time_elapsed": 811587, "internal_node_id": "0.0-40.0"}}, {"uniqueid": "MTK0143:3YMU66OBIOFC282TL8VSNF62R0QGH2", "current_trial": 59, "dateTime": 1509290522670, "trialdata": {"rt": -1000, "stimulus": "/static/audio/wordpool/MASK.wav", "key_press": -1, "type": "PRES_AUD", "word": "mask", "wordID": 875, "conditions": [18, 1200, "a", 18000], "trial": 1, "serialpos": 4, "trial_type": "single-audio", "trial_index": 59, "time_elapsed": 813755, "internal_node_id": "0.0-41.0"}}, {"uniqueid": "MTK0143:3YMU66OBIOFC282TL8VSNF62R0QGH2", "current_trial": 60, "dateTime": 1509290524800, "trialdata": {"rt": -1000, "stimulus": "/static/audio/wordpool/TUNNEL.wav", "key_press": -1, "type": "PRES_AUD", "word": "tunnel", "wordID": 1518, "conditions": [18, 1200, "a", 18000], "trial": 1, "serialpos": 5, "trial_type": "single-audio", "trial_index": 60, "time_elapsed": 815885, "internal_node_id": "0.0-42.0"}}, {"uniqueid": "MTK0143:3YMU66OBIOFC282TL8VSNF62R0QGH2", "current_trial": 61, "dateTime": 1509290526860, "trialdata": {"rt": -1000, "stimulus": "/static/audio/wordpool/SAUSAGE.wav", "key_press": -1, "type": "PRES_AUD", "word": "sausage", "wordID": 1237, "conditions": [18, 1200, "a", 18000], "trial": 1, "serialpos": 6, "trial_type": "single-audio", "trial_index": 61, "time_elapsed": 817945, "internal_node_id": "0.0-43.0"}}, {"uniqueid": "MTK0143:3YMU66OBIOFC282TL8VSNF62R0QGH2", "current_trial": 62, "dateTime": 1509290529203, "trialdata": {"rt": -1000, "stimulus": "/static/audio/wordpool/VELVET.wav", "key_press": -1, "type": "PRES_AUD", "word": "velvet", "wordID": 1554, "conditions": [18, 1200, "a", 18000], "trial": 1, "serialpos": 7, "trial_type": "single-audio", "trial_index": 62, "time_elapsed": 820288, "internal_node_id": "0.0-44.0"}}, {"uniqueid": "MTK0143:3YMU66OBIOFC282TL8VSNF62R0QGH2", "current_trial": 63, "dateTime": 1509290531393, "trialdata": {"rt": -1000, "stimulus": "/static/audio/wordpool/ICEBERG.wav", "key_press": -1, "type": "PRES_AUD", "word": "iceberg", "wordID": 730, "conditions": [18, 1200, "a", 18000], "trial": 1, "serialpos": 8, "trial_type": "single-audio", "trial_index": 63, "time_elapsed": 822478, "internal_node_id": "0.0-45.0"}}, {"uniqueid": "MTK0143:3YMU66OBIOFC282TL8VSNF62R0QGH2", "current_trial": 64, "dateTime": 1509290533544, "trialdata": {"rt": -1000, "stimulus": "/static/audio/wordpool/HEART.wav", "key_press": -1, "type": "PRES_AUD", "word": "heart", "wordID": 696, "conditions": [18, 1200, "a", 18000], "trial": 1, "serialpos": 9, "trial_type": "single-audio", "trial_index": 64, "time_elapsed": 824629, "internal_node_id": "0.0-46.0"}}, {"uniqueid": "MTK0143:3YMU66OBIOFC282TL8VSNF62R0QGH2", "current_trial": 65, "dateTime": 1509290535895, "trialdata": {"rt": -1000, "stimulus": "/static/audio/wordpool/COUNTY.wav", "key_press": -1, "type": "PRES_AUD", "word": "county", "wordID": 388, "conditions": [18, 1200, "a", 18000], "trial": 1, "serialpos": 10, "trial_type": "single-audio", "trial_index": 65, "time_elapsed": 826980, "internal_node_id": "0.0-47.0"}}, {"uniqueid": "MTK0143:3YMU66OBIOFC282TL8VSNF62R0QGH2", "current_trial": 66, "dateTime": 1509290538124, "trialdata": {"rt": -1000, "stimulus": "/static/audio/wordpool/CLOCK.wav", "key_press": -1, "type": "PRES_AUD", "word": "clock", "wordID": 324, "conditions": [18, 1200, "a", 18000], "trial": 1, "serialpos": 11, "trial_type": "single-audio", "trial_index": 66, "time_elapsed": 829209, "internal_node_id": "0.0-48.0"}}, {"uniqueid": "MTK0143:3YMU66OBIOFC282TL8VSNF62R0QGH2", "current_trial": 67, "dateTime": 1509290540218, "trialdata": {"rt": -1000, "stimulus": "/static/audio/wordpool/LIVER.wav", "key_press": -1, "type": "PRES_AUD", "word": "liver", "wordID": 832, "conditions": [18, 1200, "a", 18000], "trial": 1, "serialpos": 12, "trial_type": "single-audio", "trial_index": 67, "time_elapsed": 831303, "internal_node_id": "0.0-49.0"}}, {"uniqueid": "MTK0143:3YMU66OBIOFC282TL8VSNF62R0QGH2", "current_trial": 68, "dateTime": 1509290542447, "trialdata": {"rt": -1000, "stimulus": "/static/audio/wordpool/SPOON.wav", "key_press": -1, "type": "PRES_AUD", "word": "spoon", "wordID": 1356, "conditions": [18, 1200, "a", 18000], "trial": 1, "serialpos": 13, "trial_type": "single-audio", "trial_index": 68, "time_elapsed": 833531, "internal_node_id": "0.0-50.0"}}, {"uniqueid": "MTK0143:3YMU66OBIOFC282TL8VSNF62R0QGH2", "current_trial": 69, "dateTime": 1509290544478, "trialdata": {"rt": -1000, "stimulus": "/static/audio/wordpool/TART.wav", "key_press": -1, "type": "PRES_AUD", "word": "tart", "wordID": 1435, "conditions": [18, 1200, "a", 18000], "trial": 1, "serialpos": 14, "trial_type": "single-audio", "trial_index": 69, "time_elapsed": 835563, "internal_node_id": "0.0-51.0"}}, {"uniqueid": "MTK0143:3YMU66OBIOFC282TL8VSNF62R0QGH2", "current_trial": 70, "dateTime": 1509290546867, "trialdata": {"rt": -1000, "stimulus": "/static/audio/wordpool/PARENT.wav", "key_press": -1, "type": "PRES_AUD", "word": "parent", "wordID": 1012, "conditions": [18, 1200, "a", 18000], "trial": 1, "serialpos": 15, "trial_type": "single-audio", "trial_index": 70, "time_elapsed": 837952, "internal_node_id": "0.0-52.0"}}, {"uniqueid": "MTK0143:3YMU66OBIOFC282TL8VSNF62R0QGH2", "current_trial": 71, "dateTime": 1509290549078, "trialdata": {"rt": -1000, "stimulus": "/static/audio/wordpool/GAVEL.wav", "key_press": -1, "type": "PRES_AUD", "word": "gavel", "wordID": 626, "conditions": [18, 1200, "a", 18000], "trial": 1, "serialpos": 16, "trial_type": "single-audio", "trial_index": 71, "time_elapsed": 840163, "internal_node_id": "0.0-53.0"}}, {"uniqueid": "MTK0143:3YMU66OBIOFC282TL8VSNF62R0QGH2", "current_trial": 72, "dateTime": 1509290551386, "trialdata": {"rt": -1000, "stimulus": "/static/audio/wordpool/BARREL.wav", "key_press": -1, "type": "PRES_AUD", "word": "barrel", "wordID": 90, "conditions": [18, 1200, "a", 18000], "trial": 1, "serialpos": 17, "trial_type": "single-audio", "trial_index": 72, "time_elapsed": 842471, "internal_node_id": "0.0-54.0"}}, {"uniqueid": "MTK0143:3YMU66OBIOFC282TL8VSNF62R0QGH2", "current_trial": 73, "dateTime": 1509290552779, "trialdata": {"rt": -1, "stimulus": "", "key_press": -1, "type": "PRE_RECALL_DELAY", "trial_type": "single-stim", "trial_index": 73, "time_elapsed": 843864, "internal_node_id": "0.0-55.0-0.0"}}, {"uniqueid": "MTK0143:3YMU66OBIOFC282TL8VSNF62R0QGH2", "current_trial": 74, "dateTime": 1509290553282, "trialdata": {"rt": -1000, "stimulus": "/static/audio/400Hz.wav", "key_press": -1, "type": "PRE_RECALL_ALERT", "trial_type": "single-audio", "trial_index": 74, "time_elapsed": 844367, "internal_node_id": "0.0-56.0"}}, {"uniqueid": "MTK0143:3YMU66OBIOFC282TL8VSNF62R0QGH2", "current_trial": 75, "dateTime": 1509290613284, "trialdata": {"rt": [2261, 4347, 6920, 8733, 17759, 28252], "recwords": ["gavel", "barrel", "county", "cowboy", "ocean", "summer"], "type": "FREE_RECALL", "conditions": [18, 1200, "a", 18000], "trial": 1, "trial_type": "free-recall", "trial_index": 75, "time_elapsed": 904368, "internal_node_id": "0.0-57.0-0.0"}}, {"uniqueid": "MTK0143:3YMU66OBIOFC282TL8VSNF62R0QGH2", "current_trial": 76, "dateTime": 1509290656451, "trialdata": {"rt": 41165, "key_press": 32, "type": "INSTRUCTIONS", "trial_type": "text", "trial_index": 76, "time_elapsed": 947536, "internal_node_id": "0.0-58.0"}}, {"uniqueid": "MTK0143:3YMU66OBIOFC282TL8VSNF62R0QGH2", "current_trial": 77, "dateTime": 1509290669453, "trialdata": {"rt": [1847, 3946, 6459, 8948], "responses": ["12", "13", "23", "22"], "num1": [8, 4, 7, 7, 4], "num2": [1, 7, 8, 7, 7], "num3": [3, 1, 7, 8, 9], "type": "DISTRACTOR", "conditions": [12, 800, "a", 12000], "trial": 2, "trial_type": "math-distractor", "trial_index": 77, "time_elapsed": 960538, "internal_node_id": "0.0-59.0"}}, {"uniqueid": "MTK0143:3YMU66OBIOFC282TL8VSNF62R0QGH2", "current_trial": 78, "dateTime": 1509290672470, "trialdata": {"rt": -1, "stimulus": "<p id=\"stim\">10</p>", "key_press": -1, "trial_type": "single-stim", "trial_index": 78, "time_elapsed": 963555, "internal_node_id": "0.0-60.0-0.0"}}, {"uniqueid": "MTK0143:3YMU66OBIOFC282TL8VSNF62R0QGH2", "current_trial": 79, "dateTime": 1509290673472, "trialdata": {"rt": -1, "stimulus": "<p id=\"stim\">9</p>", "key_press": -1, "trial_type": "single-stim", "trial_index": 79, "time_elapsed": 964557, "internal_node_id": "0.0-60.0-1.0"}}, {"uniqueid": "MTK0143:3YMU66OBIOFC282TL8VSNF62R0QGH2", "current_trial": 80, "dateTime": 1509290674473, "trialdata": {"rt": -1, "stimulus": "<p id=\"stim\">8</p>", "key_press": -1, "trial_type": "single-stim", "trial_index": 80, "time_elapsed": 965558, "internal_node_id": "0.0-60.0-2.0"}}, {"uniqueid": "MTK0143:3YMU66OBIOFC282TL8VSNF62R0QGH2", "current_trial": 81, "dateTime": 1509290675474, "trialdata": {"rt": -1, "stimulus": "<p id=\"stim\">7</p>", "key_press": -1, "trial_type": "single-stim", "trial_index": 81, "time_elapsed": 966559, "internal_node_id": "0.0-60.0-3.0"}}, {"uniqueid": "MTK0143:3YMU66OBIOFC282TL8VSNF62R0QGH2", "current_trial": 82, "dateTime": 1509290676475, "trialdata": {"rt": -1, "stimulus": "<p id=\"stim\">6</p>", "key_press": -1, "trial_type": "single-stim", "trial_index": 82, "time_elapsed": 967560, "internal_node_id": "0.0-60.0-4.0"}}, {"uniqueid": "MTK0143:3YMU66OBIOFC282TL8VSNF62R0QGH2", "current_trial": 83, "dateTime": 1509290677476, "trialdata": {"rt": -1, "stimulus": "<p id=\"stim\">5</p>", "key_press": -1, "trial_type": "single-stim", "trial_index": 83, "time_elapsed": 968561, "internal_node_id": "0.0-60.0-5.0"}}, {"uniqueid": "MTK0143:3YMU66OBIOFC282TL8VSNF62R0QGH2", "current_trial": 84, "dateTime": 1509290678477, "trialdata": {"rt": -1, "stimulus": "<p id=\"stim\">4</p>", "key_press": -1, "trial_type": "single-stim", "trial_index": 84, "time_elapsed": 969562, "internal_node_id": "0.0-60.0-6.0"}}, {"uniqueid": "MTK0143:3YMU66OBIOFC282TL8VSNF62R0QGH2", "current_trial": 85, "dateTime": 1509290679479, "trialdata": {"rt": -1, "stimulus": "<p id=\"stim\">3</p>", "key_press": -1, "trial_type": "single-stim", "trial_index": 85, "time_elapsed": 970564, "internal_node_id": "0.0-60.0-7.0"}}, {"uniqueid": "MTK0143:3YMU66OBIOFC282TL8VSNF62R0QGH2", "current_trial": 86, "dateTime": 1509290680480, "trialdata": {"rt": -1, "stimulus": "<p id=\"stim\">2</p>", "key_press": -1, "trial_type": "single-stim", "trial_index": 86, "time_elapsed": 971565, "internal_node_id": "0.0-60.0-8.0"}}, {"uniqueid": "MTK0143:3YMU66OBIOFC282TL8VSNF62R0QGH2", "current_trial": 87, "dateTime": 1509290681481, "trialdata": {"rt": -1, "stimulus": "<p id=\"stim\">1</p>", "key_press": -1, "trial_type": "single-stim", "trial_index": 87, "time_elapsed": 972566, "internal_node_id": "0.0-60.0-9.0"}}, {"uniqueid": "MTK0143:3YMU66OBIOFC282TL8VSNF62R0QGH2", "current_trial": 88, "dateTime": 1509290682982, "trialdata": {"rt": -1, "stimulus": "<p id=\"stim\">+</p>", "key_press": -1, "type": "FIXATION", "trial_type": "single-stim", "trial_index": 88, "time_elapsed": 974067, "internal_node_id": "0.0-61.0-0.0"}}, {"uniqueid": "MTK0143:3YMU66OBIOFC282TL8VSNF62R0QGH2", "current_trial": 89, "dateTime": 1509290684752, "trialdata": {"rt": -1000, "stimulus": "/static/audio/wordpool/DONOR.wav", "key_press": -1, "type": "PRES_AUD", "word": "donor", "wordID": 484, "conditions": [12, 800, "a", 12000], "trial": 2, "serialpos": 0, "trial_type": "single-audio", "trial_index": 89, "time_elapsed": 975837, "internal_node_id": "0.0-62.0"}}, {"uniqueid": "MTK0143:3YMU66OBIOFC282TL8VSNF62R0QGH2", "current_trial": 90, "dateTime": 1509290686499, "trialdata": {"rt": -1000, "stimulus": "/static/audio/wordpool/HONEY.wav", "key_press": -1, "type": "PRES_AUD", "word": "honey", "wordID": 712, "conditions": [12, 800, "a", 12000], "trial": 2, "serialpos": 1, "trial_type": "single-audio", "trial_index": 90, "time_elapsed": 977584, "internal_node_id": "0.0-63.0"}}, {"uniqueid": "MTK0143:3YMU66OBIOFC282TL8VSNF62R0QGH2", "current_trial": 91, "dateTime": 1509290688327, "trialdata": {"rt": -1000, "stimulus": "/static/audio/wordpool/WRENCH.wav", "key_press": -1, "type": "PRES_AUD", "word": "wrench", "wordID": 1624, "conditions": [12, 800, "a", 12000], "trial": 2, "serialpos": 2, "trial_type": "single-audio", "trial_index": 91, "time_elapsed": 979412, "internal_node_id": "0.0-64.0"}}, {"uniqueid": "MTK0143:3YMU66OBIOFC282TL8VSNF62R0QGH2", "current_trial": 92, "dateTime": 1509290690038, "trialdata": {"rt": -1000, "stimulus": "/static/audio/wordpool/SUITCASE.wav", "key_press": -1, "type": "PRES_AUD", "word": "suitcase", "wordID": 1402, "conditions": [12, 800, "a", 12000], "trial": 2, "serialpos": 3, "trial_type": "single-audio", "trial_index": 92, "time_elapsed": 981123, "internal_node_id": "0.0-65.0"}}, {"uniqueid": "MTK0143:3YMU66OBIOFC282TL8VSNF62R0QGH2", "current_trial": 93, "dateTime": 1509290691902, "trialdata": {"rt": -1000, "stimulus": "/static/audio/wordpool/STOMACH.wav", "key_press": -1, "type": "PRES_AUD", "word": "stomach", "wordID": 1383, "conditions": [12, 800, "a", 12000], "trial": 2, "serialpos": 4, "trial_type": "single-audio", "trial_index": 93, "time_elapsed": 982987, "internal_node_id": "0.0-66.0"}}, {"uniqueid": "MTK0143:3YMU66OBIOFC282TL8VSNF62R0QGH2", "current_trial": 94, "dateTime": 1509290693633, "trialdata": {"rt": -1000, "stimulus": "/static/audio/wordpool/JELLY.wav", "key_press": -1, "type": "PRES_AUD", "word": "jelly", "wordID": 754, "conditions": [12, 800, "a", 12000], "trial": 2, "serialpos": 5, "trial_type": "single-audio", "trial_index": 94, "time_elapsed": 984718, "internal_node_id": "0.0-67.0"}}, {"uniqueid": "MTK0143:3YMU66OBIOFC282TL8VSNF62R0QGH2", "current_trial": 95, "dateTime": 1509290695507, "trialdata": {"rt": -1000, "stimulus": "/static/audio/wordpool/DAISY.wav", "key_press": -1, "type": "PRES_AUD", "word": "daisy", "wordID": 434, "conditions": [12, 800, "a", 12000], "trial": 2, "serialpos": 6, "trial_type": "single-audio", "trial_index": 95, "time_elapsed": 986592, "internal_node_id": "0.0-68.0"}}, {"uniqueid": "MTK0143:3YMU66OBIOFC282TL8VSNF62R0QGH2", "current_trial": 96, "dateTime": 1509290697474, "trialdata": {"rt": -1000, "stimulus": "/static/audio/wordpool/HATCHET.wav", "key_press": -1, "type": "PRES_AUD", "word": "hatchet", "wordID": 690, "conditions": [12, 800, "a", 12000], "trial": 2, "serialpos": 7, "trial_type": "single-audio", "trial_index": 96, "time_elapsed": 988559, "internal_node_id": "0.0-69.0"}}, {"uniqueid": "MTK0143:3YMU66OBIOFC282TL8VSNF62R0QGH2", "current_trial": 97, "dateTime": 1509290699448, "trialdata": {"rt": -1000, "stimulus": "/static/audio/wordpool/CITRUS.wav", "key_press": -1, "type": "PRES_AUD", "word": "citrus", "wordID": 312, "conditions": [12, 800, "a", 12000], "trial": 2, "serialpos": 8, "trial_type": "single-audio", "trial_index": 97, "time_elapsed": 990533, "internal_node_id": "0.0-70.0"}}, {"uniqueid": "MTK0143:3YMU66OBIOFC282TL8VSNF62R0QGH2", "current_trial": 98, "dateTime": 1509290701053, "trialdata": {"rt": -1000, "stimulus": "/static/audio/wordpool/PECAN.wav", "key_press": -1, "type": "PRES_AUD", "word": "pecan", "wordID": 1035, "conditions": [12, 800, "a", 12000], "trial": 2, "serialpos": 9, "trial_type": "single-audio", "trial_index": 98, "time_elapsed": 992138, "internal_node_id": "0.0-71.0"}}, {"uniqueid": "MTK0143:3YMU66OBIOFC282TL8VSNF62R0QGH2", "current_trial": 99, "dateTime": 1509290702788, "trialdata": {"rt": -1000, "stimulus": "/static/audio/wordpool/LUGGAGE.wav", "key_press": -1, "type": "PRES_AUD", "word": "luggage", "wordID": 846, "conditions": [12, 800, "a", 12000], "trial": 2, "serialpos": 10, "trial_type": "single-audio", "trial_index": 99, "time_elapsed": 993873, "internal_node_id": "0.0-72.0"}}, {"uniqueid": "MTK0143:3YMU66OBIOFC282TL8VSNF62R0QGH2", "current_trial": 100, "dateTime": 1509290704619, "trialdata": {"rt": -1000, "stimulus": "/static/audio/wordpool/MILK.wav", "key_press": -1, "type": "PRES_AUD", "word": "milk", "wordID": 894, "conditions": [12, 800, "a", 12000], "trial": 2, "serialpos": 11, "trial_type": "single-audio", "trial_index": 100, "time_elapsed": 995704, "internal_node_id": "0.0-73.0"}}, {"uniqueid": "MTK0143:3YMU66OBIOFC282TL8VSNF62R0QGH2", "current_trial": 101, "dateTime": 1509290705890, "trialdata": {"rt": -1, "stimulus": "", "key_press": -1, "type": "PRE_RECALL_DELAY", "trial_type": "single-stim", "trial_index": 101, "time_elapsed": 996974, "internal_node_id": "0.0-74.0-0.0"}}, {"uniqueid": "MTK0143:3YMU66OBIOFC282TL8VSNF62R0QGH2", "current_trial": 102, "dateTime": 1509290706392, "trialdata": {"rt": -1000, "stimulus": "/static/audio/400Hz.wav", "key_press": -1, "type": "PRE_RECALL_ALERT", "trial_type": "single-audio", "trial_index": 102, "time_elapsed": 997476, "internal_node_id": "0.0-75.0"}}, {"uniqueid": "MTK0143:3YMU66OBIOFC282TL8VSNF62R0QGH2", "current_trial": 103, "dateTime": 1509290766394, "trialdata": {"rt": [2017, 3387, 5455, 6862, 17294, 19242, 21210, 26818], "recwords": ["milk", "citrus", "pecan", "luggage", "daisy", "stomach", "deli", "wrench"], "type": "FREE_RECALL", "conditions": [12, 800, "a", 12000], "trial": 2, "trial_type": "free-recall", "trial_index": 103, "time_elapsed": 1057478, "internal_node_id": "0.0-76.0-0.0"}}, {"uniqueid": "MTK0143:3YMU66OBIOFC282TL8VSNF62R0QGH2", "current_trial": 104, "dateTime": 1509290898029, "trialdata": {"rt": 129632, "key_press": 32, "type": "INSTRUCTIONS", "trial_type": "text", "trial_index": 104, "time_elapsed": 1189114, "internal_node_id": "0.0-77.0"}}, {"uniqueid": "MTK0143:3YMU66OBIOFC282TL8VSNF62R0QGH2", "current_trial": 105, "dateTime": 1509290912030, "trialdata": {"rt": [3369, 5853, 8613, 10385], "responses": ["10", "17", "24", "6"], "num1": [2, 1, 8, 2, 8], "num2": [1, 7, 7, 3, 6], "num3": [7, 9, 9, 1, 1], "type": "DISTRACTOR", "conditions": [24, 1600, "v", 12000], "trial": 3, "trial_type": "math-distractor", "trial_index": 105, "time_elapsed": 1203115, "internal_node_id": "0.0-78.0"}}, {"uniqueid": "MTK0143:3YMU66OBIOFC282TL8VSNF62R0QGH2", "current_trial": 106, "dateTime": 1509290915033, "trialdata": {"rt": -1, "stimulus": "<p id=\"stim\">10</p>", "key_press": -1, "trial_type": "single-stim", "trial_index": 106, "time_elapsed": 1206118, "internal_node_id": "0.0-79.0-0.0"}}, {"uniqueid": "MTK0143:3YMU66OBIOFC282TL8VSNF62R0QGH2", "current_trial": 107, "dateTime": 1509290916034, "trialdata": {"rt": -1, "stimulus": "<p id=\"stim\">9</p>", "key_press": -1, "trial_type": "single-stim", "trial_index": 107, "time_elapsed": 1207119, "internal_node_id": "0.0-79.0-1.0"}}, {"uniqueid": "MTK0143:3YMU66OBIOFC282TL8VSNF62R0QGH2", "current_trial": 108, "dateTime": 1509290917035, "trialdata": {"rt": -1, "stimulus": "<p id=\"stim\">8</p>", "key_press": -1, "trial_type": "single-stim", "trial_index": 108, "time_elapsed": 1208120, "internal_node_id": "0.0-79.0-2.0"}}, {"uniqueid": "MTK0143:3YMU66OBIOFC282TL8VSNF62R0QGH2", "current_trial": 109, "dateTime": 1509290918036, "trialdata": {"rt": -1, "stimulus": "<p id=\"stim\">7</p>", "key_press": -1, "trial_type": "single-stim", "trial_index": 109, "time_elapsed": 1209121, "internal_node_id": "0.0-79.0-3.0"}}, {"uniqueid": "MTK0143:3YMU66OBIOFC282TL8VSNF62R0QGH2", "current_trial": 110, "dateTime": 1509290919037, "trialdata": {"rt": -1, "stimulus": "<p id=\"stim\">6</p>", "key_press": -1, "trial_type": "single-stim", "trial_index": 110, "time_elapsed": 1210122, "internal_node_id": "0.0-79.0-4.0"}}, {"uniqueid": "MTK0143:3YMU66OBIOFC282TL8VSNF62R0QGH2", "current_trial": 111, "dateTime": 1509290920039, "trialdata": {"rt": -1, "stimulus": "<p id=\"stim\">5</p>", "key_press": -1, "trial_type": "single-stim", "trial_index": 111, "time_elapsed": 1211124, "internal_node_id": "0.0-79.0-5.0"}}, {"uniqueid": "MTK0143:3YMU66OBIOFC282TL8VSNF62R0QGH2", "current_trial": 112, "dateTime": 1509290921040, "trialdata": {"rt": -1, "stimulus": "<p id=\"stim\">4</p>", "key_press": -1, "trial_type": "single-stim", "trial_index": 112, "time_elapsed": 1212125, "internal_node_id": "0.0-79.0-6.0"}}, {"uniqueid": "MTK0143:3YMU66OBIOFC282TL8VSNF62R0QGH2", "current_trial": 113, "dateTime": 1509290922042, "trialdata": {"rt": -1, "stimulus": "<p id=\"stim\">3</p>", "key_press": -1, "trial_type": "single-stim", "trial_index": 113, "time_elapsed": 1213127, "internal_node_id": "0.0-79.0-7.0"}}, {"uniqueid": "MTK0143:3YMU66OBIOFC282TL8VSNF62R0QGH2", "current_trial": 114, "dateTime": 1509290923044, "trialdata": {"rt": -1, "stimulus": "<p id=\"stim\">2</p>", "key_press": -1, "trial_type": "single-stim", "trial_index": 114, "time_elapsed": 1214129, "internal_node_id": "0.0-79.0-8.0"}}, {"uniqueid": "MTK0143:3YMU66OBIOFC282TL8VSNF62R0QGH2", "current_trial": 115, "dateTime": 1509290924045, "trialdata": {"rt": -1, "stimulus": "<p id=\"stim\">1</p>", "key_press": -1, "trial_type": "single-stim", "trial_index": 115, "time_elapsed": 1215130, "internal_node_id": "0.0-79.0-9.0"}}, {"uniqueid": "MTK0143:3YMU66OBIOFC282TL8VSNF62R0QGH2", "current_trial": 116, "dateTime": 1509290925546, "trialdata": {"rt": -1, "stimulus": "<p id=\"stim\">+</p>", "key_press": -1, "type": "FIXATION", "trial_type": "single-stim", "trial_index": 116, "time_elapsed": 1216631, "internal_node_id": "0.0-80.0-0.0"}}, {"uniqueid": "MTK0143:3YMU66OBIOFC282TL8VSNF62R0QGH2", "current_trial": 117, "dateTime": 1509290927147, "trialdata": {"rt": -1, "stimulus": "<p id=\"stim\">GALLON</p>", "key_press": -1, "type": "PRES_VIS", "word": "gallon", "wordID": 617, "conditions": [24, 1600, "v", 12000], "trial": 3, "serialpos": 0, "trial_type": "single-stim", "trial_index": 117, "time_elapsed": 1218232, "internal_node_id": "0.0-81.0"}}, {"uniqueid": "MTK0143:3YMU66OBIOFC282TL8VSNF62R0QGH2", "current_trial": 118, "dateTime": 1509290929943, "trialdata": {"rt": -1, "stimulus": "<p id=\"stim\">KEEPER</p>", "key_press": -1, "type": "PRES_VIS", "word": "keeper", "wordID": 768, "conditions": [24, 1600, "v", 12000], "trial": 3, "serialpos": 1, "trial_type": "single-stim", "trial_index": 118, "time_elapsed": 1221028, "internal_node_id": "0.0-82.0"}}, {"uniqueid": "MTK0143:3YMU66OBIOFC282TL8VSNF62R0QGH2", "current_trial": 119, "dateTime": 1509290932476, "trialdata": {"rt": -1, "stimulus": "<p id=\"stim\">MOTEL</p>", "key_press": -1, "type": "PRES_VIS", "word": "motel", "wordID": 918, "conditions": [24, 1600, "v", 12000], "trial": 3, "serialpos": 2, "trial_type": "single-stim", "trial_index": 119, "time_elapsed": 1223561, "internal_node_id": "0.0-83.0"}}, {"uniqueid": "MTK0143:3YMU66OBIOFC282TL8VSNF62R0QGH2", "current_trial": 120, "dateTime": 1509290935051, "trialdata": {"rt": -1, "stimulus": "<p id=\"stim\">LAPEL</p>", "key_press": -1, "type": "PRES_VIS", "word": "lapel", "wordID": 799, "conditions": [24, 1600, "v", 12000], "trial": 3, "serialpos": 3, "trial_type": "single-stim", "trial_index": 120, "time_elapsed": 1226136, "internal_node_id": "0.0-84.0"}}, {"uniqueid": "MTK0143:3YMU66OBIOFC282TL8VSNF62R0QGH2", "current_trial": 121, "dateTime": 1509290937566, "trialdata": {"rt": -1, "stimulus": "<p id=\"stim\">ELBOW</p>", "key_press": -1, "type": "PRES_VIS", "word": "elbow", "wordID": 519, "conditions": [24, 1600, "v", 12000], "trial": 3, "serialpos": 4, "trial_type": "single-stim", "trial_index": 121, "time_elapsed": 1228651, "internal_node_id": "0.0-85.0"}}, {"uniqueid": "MTK0143:3YMU66OBIOFC282TL8VSNF62R0QGH2", "current_trial": 122, "dateTime": 1509290940207, "trialdata": {"rt": -1, "stimulus": "<p id=\"stim\">PAPER</p>", "key_press": -1, "type": "PRES_VIS", "word": "paper", "wordID": 1010, "conditions": [24, 1600, "v", 12000], "trial": 3, "serialpos": 5, "trial_type": "single-stim", "trial_index": 122, "time_elapsed": 1231292, "internal_node_id": "0.0-86.0"}}, {"uniqueid": "MTK0143:3YMU66OBIOFC282TL8VSNF62R0QGH2", "current_trial": 123, "dateTime": 1509290942737, "trialdata": {"rt": -1, "stimulus": "<p id=\"stim\">LUMBER</p>", "key_press": -1, "type": "PRES_VIS", "word": "lumber", "wordID": 847, "conditions": [24, 1600, "v", 12000], "trial": 3, "serialpos": 6, "trial_type": "single-stim", "trial_index": 123, "time_elapsed": 1233822, "internal_node_id": "0.0-87.0"}}, {"uniqueid": "MTK0143:3YMU66OBIOFC282TL8VSNF62R0QGH2", "current_trial": 124, "dateTime": 1509290945354, "trialdata": {"rt": -1, "stimulus": "<p id=\"stim\">WRIST</p>", "key_press": -1, "type": "PRES_VIS", "word": "wrist", "wordID": 1625, "conditions": [24, 1600, "v", 12000], "trial": 3, "serialpos": 7, "trial_type": "single-stim", "trial_index": 124, "time_elapsed": 1236439, "internal_node_id": "0.0-88.0"}}, {"uniqueid": "MTK0143:3YMU66OBIOFC282TL8VSNF62R0QGH2", "current_trial": 125, "dateTime": 1509290947786, "trialdata": {"rt": -1, "stimulus": "<p id=\"stim\">SALT</p>", "key_press": -1, "type": "PRES_VIS", "word": "salt", "wordID": 1228, "conditions": [24, 1600, "v", 12000], "trial": 3, "serialpos": 8, "trial_type": "single-stim", "trial_index": 125, "time_elapsed": 1238871, "internal_node_id": "0.0-89.0"}}, {"uniqueid": "MTK0143:3YMU66OBIOFC282TL8VSNF62R0QGH2", "current_trial": 126, "dateTime": 1509290950563, "trialdata": {"rt": -1, "stimulus": "<p id=\"stim\">MOTOR</p>", "key_press": -1, "type": "PRES_VIS", "word": "motor", "wordID": 921, "conditions": [24, 1600, "v", 12000], "trial": 3, "serialpos": 9, "trial_type": "single-stim", "trial_index": 126, "time_elapsed": 1241648, "internal_node_id": "0.0-90.0"}}, {"uniqueid": "MTK0143:3YMU66OBIOFC282TL8VSNF62R0QGH2", "current_trial": 127, "dateTime": 1509290953229, "trialdata": {"rt": -1, "stimulus": "<p id=\"stim\">SPIDER</p>", "key_press": -1, "type": "PRES_VIS", "word": "spider", "wordID": 1350, "conditions": [24, 1600, "v", 12000], "trial": 3, "serialpos": 10, "trial_type": "single-stim", "trial_index": 127, "time_elapsed": 1244314, "internal_node_id": "0.0-91.0"}}, {"uniqueid": "MTK0143:3YMU66OBIOFC282TL8VSNF62R0QGH2", "current_trial": 128, "dateTime": 1509290955934, "trialdata": {"rt": -1, "stimulus": "<p id=\"stim\">LIZARD</p>", "key_press": -1, "type": "PRES_VIS", "word": "lizard", "wordID": 833, "conditions": [24, 1600, "v", 12000], "trial": 3, "serialpos": 11, "trial_type": "single-stim", "trial_index": 128, "time_elapsed": 1247019, "internal_node_id": "0.0-92.0"}}, {"uniqueid": "MTK0143:3YMU66OBIOFC282TL8VSNF62R0QGH2", "current_trial": 129, "dateTime": 1509290958610, "trialdata": {"rt": -1, "stimulus": "<p id=\"stim\">LEG</p>", "key_press": -1, "type": "PRES_VIS", "word": "leg", "wordID": 808, "conditions": [24, 1600, "v", 12000], "trial": 3, "serialpos": 12, "trial_type": "single-stim", "trial_index": 129, "time_elapsed": 1249695, "internal_node_id": "0.0-93.0"}}, {"uniqueid": "MTK0143:3YMU66OBIOFC282TL8VSNF62R0QGH2", "current_trial": 130, "dateTime": 1509290961386, "trialdata": {"rt": -1, "stimulus": "<p id=\"stim\">STATUE</p>", "key_press": -1, "type": "PRES_VIS", "word": "statue", "wordID": 1373, "conditions": [24, 1600, "v", 12000], "trial": 3, "serialpos": 13, "trial_type": "single-stim", "trial_index": 130, "time_elapsed": 1252471, "internal_node_id": "0.0-94.0"}}, {"uniqueid": "MTK0143:3YMU66OBIOFC282TL8VSNF62R0QGH2", "current_trial": 131, "dateTime": 1509290964183, "trialdata": {"rt": -1, "stimulus": "<p id=\"stim\">PERFUME</p>", "key_press": -1, "type": "PRES_VIS", "word": "perfume", "wordID": 1048, "conditions": [24, 1600, "v", 12000], "trial": 3, "serialpos": 14, "trial_type": "single-stim", "trial_index": 131, "time_elapsed": 1255268, "internal_node_id": "0.0-95.0"}}, {"uniqueid": "MTK0143:3YMU66OBIOFC282TL8VSNF62R0QGH2", "current_trial": 132, "dateTime": 1509290966908, "trialdata": {"rt": -1, "stimulus": "<p id=\"stim\">FARMER</p>", "key_press": -1, "type": "PRES_VIS", "word": "farmer", "wordID": 552, "conditions": [24, 1600, "v", 12000], "trial": 3, "serialpos": 15, "trial_type": "single-stim", "trial_index": 132, "time_elapsed": 1257993, "internal_node_id": "0.0-96.0"}}, {"uniqueid": "MTK0143:3YMU66OBIOFC282TL8VSNF62R0QGH2", "current_trial": 133, "dateTime": 1509290969371, "trialdata": {"rt": -1, "stimulus": "<p id=\"stim\">DRIVER</p>", "key_press": -1, "type": "PRES_VIS", "word": "driver", "wordID": 498, "conditions": [24, 1600, "v", 12000], "trial": 3, "serialpos": 16, "trial_type": "single-stim", "trial_index": 133, "time_elapsed": 1260456, "internal_node_id": "0.0-97.0"}}, {"uniqueid": "MTK0143:3YMU66OBIOFC282TL8VSNF62R0QGH2", "current_trial": 134, "dateTime": 1509290972104, "trialdata": {"rt": -1, "stimulus": "<p id=\"stim\">LAGOON</p>", "key_press": -1, "type": "PRES_VIS", "word": "lagoon", "wordID": 794, "conditions": [24, 1600, "v", 12000], "trial": 3, "serialpos": 17, "trial_type": "single-stim", "trial_index": 134, "time_elapsed": 1263189, "internal_node_id": "0.0-98.0"}}, {"uniqueid": "MTK0143:3YMU66OBIOFC282TL8VSNF62R0QGH2", "current_trial": 135, "dateTime": 1509290974658, "trialdata": {"rt": -1, "stimulus": "<p id=\"stim\">YACHT</p>", "key_press": -1, "type": "PRES_VIS", "word": "yacht", "wordID": 1628, "conditions": [24, 1600, "v", 12000], "trial": 3, "serialpos": 18, "trial_type": "single-stim", "trial_index": 135, "time_elapsed": 1265743, "internal_node_id": "0.0-99.0"}}, {"uniqueid": "MTK0143:3YMU66OBIOFC282TL8VSNF62R0QGH2", "current_trial": 136, "dateTime": 1509290977162, "trialdata": {"rt": -1, "stimulus": "<p id=\"stim\">CRUTCH</p>", "key_press": -1, "type": "PRES_VIS", "word": "crutch", "wordID": 416, "conditions": [24, 1600, "v", 12000], "trial": 3, "serialpos": 19, "trial_type": "single-stim", "trial_index": 136, "time_elapsed": 1268247, "internal_node_id": "0.0-100.0"}}, {"uniqueid": "MTK0143:3YMU66OBIOFC282TL8VSNF62R0QGH2", "current_trial": 137, "dateTime": 1509290979725, "trialdata": {"rt": -1, "stimulus": "<p id=\"stim\">PASTRY</p>", "key_press": -1, "type": "PRES_VIS", "word": "pastry", "wordID": 1021, "conditions": [24, 1600, "v", 12000], "trial": 3, "serialpos": 20, "trial_type": "single-stim", "trial_index": 137, "time_elapsed": 1270810, "internal_node_id": "0.0-101.0"}}, {"uniqueid": "MTK0143:3YMU66OBIOFC282TL8VSNF62R0QGH2", "current_trial": 138, "dateTime": 1509290982316, "trialdata": {"rt": -1, "stimulus": "<p id=\"stim\">SCULPTURE</p>", "key_press": -1, "type": "PRES_VIS", "word": "sculpture", "wordID": 1257, "conditions": [24, 1600, "v", 12000], "trial": 3, "serialpos": 21, "trial_type": "single-stim", "trial_index": 138, "time_elapsed": 1273401, "internal_node_id": "0.0-102.0"}}, {"uniqueid": "MTK0143:3YMU66OBIOFC282TL8VSNF62R0QGH2", "current_trial": 139, "dateTime": 1509290985083, "trialdata": {"rt": -1, "stimulus": "<p id=\"stim\">FOX</p>", "key_press": -1, "type": "PRES_VIS", "word": "fox", "wordID": 597, "conditions": [24, 1600, "v", 12000], "trial": 3, "serialpos": 22, "trial_type": "single-stim", "trial_index": 139, "time_elapsed": 1276168, "internal_node_id": "0.0-103.0"}}, {"uniqueid": "MTK0143:3YMU66OBIOFC282TL8VSNF62R0QGH2", "current_trial": 140, "dateTime": 1509290987591, "trialdata": {"rt": -1, "stimulus": "<p id=\"stim\">PIGEON</p>", "key_press": -1, "type": "PRES_VIS", "word": "pigeon", "wordID": 1064, "conditions": [24, 1600, "v", 12000], "trial": 3, "serialpos": 23, "trial_type": "single-stim", "trial_index": 140, "time_elapsed": 1278676, "internal_node_id": "0.0-104.0"}}, {"uniqueid": "MTK0143:3YMU66OBIOFC282TL8VSNF62R0QGH2", "current_trial": 141, "dateTime": 1509290989941, "trialdata": {"rt": -1, "stimulus": "", "key_press": -1, "type": "PRE_RECALL_DELAY", "trial_type": "single-stim", "trial_index": 141, "time_elapsed": 1281026, "internal_node_id": "0.0-105.0-0.0"}}, {"uniqueid": "MTK0143:3YMU66OBIOFC282TL8VSNF62R0QGH2", "current_trial": 142, "dateTime": 1509290990444, "trialdata": {"rt": -1000, "stimulus": "/static/audio/400Hz.wav", "key_press": -1, "type": "PRE_RECALL_ALERT", "trial_type": "single-audio", "trial_index": 142, "time_elapsed": 1281529, "internal_node_id": "0.0-106.0"}}, {"uniqueid": "MTK0143:3YMU66OBIOFC282TL8VSNF62R0QGH2", "current_trial": 143, "dateTime": 1509291050448, "trialdata": {"rt": [1682, 3458, 5302, 7300, 12127, 14054, 17803, 20167, 22496, 24150, 25212, 27411, 28404, 31173, 40825], "recwords": ["fox", "pigeon", "perfum", "statue", "sculpture", "farmer", "spider", "salt", "wrist", "elbow", "leg", "paper", "motor", "scissor", "paper"], "type": "FREE_RECALL", "conditions": [24, 1600, "v", 12000], "trial": 3, "trial_type": "free-recall", "trial_index": 143, "time_elapsed": 1341531, "internal_node_id": "0.0-107.0-0.0"}}, {"uniqueid": "MTK0143:3YMU66OBIOFC282TL8VSNF62R0QGH2", "current_trial": 144, "dateTime": 1509291054641, "trialdata": {"rt": 2192, "key_press": 32, "type": "INSTRUCTIONS", "trial_type": "text", "trial_index": 144, "time_elapsed": 1345726, "internal_node_id": "0.0-108.0"}}, {"uniqueid": "MTK0143:3YMU66OBIOFC282TL8VSNF62R0QGH2", "current_trial": 145, "dateTime": 1509291068642, "trialdata": {"rt": [3828, 6902, 8716, 10590], "responses": ["7", "19", "9", "8"], "num1": [2, 6, 5, 3, 8], "num2": [2, 9, 3, 1, 3], "num3": [3, 4, 1, 4, 2], "type": "DISTRACTOR", "conditions": [24, 800, "v", 12000], "trial": 4, "trial_type": "math-distractor", "trial_index": 145, "time_elapsed": 1359727, "internal_node_id": "0.0-109.0"}}, {"uniqueid": "MTK0143:3YMU66OBIOFC282TL8VSNF62R0QGH2", "current_trial": 146, "dateTime": 1509291071645, "trialdata": {"rt": -1, "stimulus": "<p id=\"stim\">10</p>", "key_press": -1, "trial_type": "single-stim", "trial_index": 146, "time_elapsed": 1362730, "internal_node_id": "0.0-110.0-0.0"}}, {"uniqueid": "MTK0143:3YMU66OBIOFC282TL8VSNF62R0QGH2", "current_trial": 147, "dateTime": 1509291072646, "trialdata": {"rt": -1, "stimulus": "<p id=\"stim\">9</p>", "key_press": -1, "trial_type": "single-stim", "trial_index": 147, "time_elapsed": 1363731, "internal_node_id": "0.0-110.0-1.0"}}, {"uniqueid": "MTK0143:3YMU66OBIOFC282TL8VSNF62R0QGH2", "current_trial": 148, "dateTime": 1509291073647, "trialdata": {"rt": -1, "stimulus": "<p id=\"stim\">8</p>", "key_press": -1, "trial_type": "single-stim", "trial_index": 148, "time_elapsed": 1364732, "internal_node_id": "0.0-110.0-2.0"}}, {"uniqueid": "MTK0143:3YMU66OBIOFC282TL8VSNF62R0QGH2", "current_trial": 149, "dateTime": 1509291074648, "trialdata": {"rt": -1, "stimulus": "<p id=\"stim\">7</p>", "key_press": -1, "trial_type": "single-stim", "trial_index": 149, "time_elapsed": 1365733, "internal_node_id": "0.0-110.0-3.0"}}, {"uniqueid": "MTK0143:3YMU66OBIOFC282TL8VSNF62R0QGH2", "current_trial": 150, "dateTime": 1509291075649, "trialdata": {"rt": -1, "stimulus": "<p id=\"stim\">6</p>", "key_press": -1, "trial_type": "single-stim", "trial_index": 150, "time_elapsed": 1366734, "internal_node_id": "0.0-110.0-4.0"}}, {"uniqueid": "MTK0143:3YMU66OBIOFC282TL8VSNF62R0QGH2", "current_trial": 151, "dateTime": 1509291076651, "trialdata": {"rt": -1, "stimulus": "<p id=\"stim\">5</p>", "key_press": -1, "trial_type": "single-stim", "trial_index": 151, "time_elapsed": 1367736, "internal_node_id": "0.0-110.0-5.0"}}, {"uniqueid": "MTK0143:3YMU66OBIOFC282TL8VSNF62R0QGH2", "current_trial": 152, "dateTime": 1509291077652, "trialdata": {"rt": -1, "stimulus": "<p id=\"stim\">4</p>", "key_press": -1, "trial_type": "single-stim", "trial_index": 152, "time_elapsed": 1368737, "internal_node_id": "0.0-110.0-6.0"}}, {"uniqueid": "MTK0143:3YMU66OBIOFC282TL8VSNF62R0QGH2", "current_trial": 153, "dateTime": 1509291078653, "trialdata": {"rt": -1, "stimulus": "<p id=\"stim\">3</p>", "key_press": -1, "trial_type": "single-stim", "trial_index": 153, "time_elapsed": 1369738, "internal_node_id": "0.0-110.0-7.0"}}, {"uniqueid": "MTK0143:3YMU66OBIOFC282TL8VSNF62R0QGH2", "current_trial": 154, "dateTime": 1509291079656, "trialdata": {"rt": -1, "stimulus": "<p id=\"stim\">2</p>", "key_press": -1, "trial_type": "single-stim", "trial_index": 154, "time_elapsed": 1370741, "internal_node_id": "0.0-110.0-8.0"}}, {"uniqueid": "MTK0143:3YMU66OBIOFC282TL8VSNF62R0QGH2", "current_trial": 155, "dateTime": 1509291080657, "trialdata": {"rt": -1, "stimulus": "<p id=\"stim\">1</p>", "key_press": -1, "trial_type": "single-stim", "trial_index": 155, "time_elapsed": 1371742, "internal_node_id": "0.0-110.0-9.0"}}, {"uniqueid": "MTK0143:3YMU66OBIOFC282TL8VSNF62R0QGH2", "current_trial": 156, "dateTime": 1509291082158, "trialdata": {"rt": -1, "stimulus": "<p id=\"stim\">+</p>", "key_press": -1, "type": "FIXATION", "trial_type": "single-stim", "trial_index": 156, "time_elapsed": 1373243, "internal_node_id": "0.0-111.0-0.0"}}, {"uniqueid": "MTK0143:3YMU66OBIOFC282TL8VSNF62R0QGH2", "current_trial": 157, "dateTime": 1509291082958, "trialdata": {"rt": -1, "stimulus": "<p id=\"stim\">CABBAGE</p>", "key_press": -1, "type": "PRES_VIS", "word": "cabbage", "wordID": 209, "conditions": [24, 800, "v", 12000], "trial": 4, "serialpos": 0, "trial_type": "single-stim", "trial_index": 157, "time_elapsed": 1374043, "internal_node_id": "0.0-112.0"}}, {"uniqueid": "MTK0143:3YMU66OBIOFC282TL8VSNF62R0QGH2", "current_trial": 158, "dateTime": 1509291084706, "trialdata": {"rt": -1, "stimulus": "<p id=\"stim\">TURNIP</p>", "key_press": -1, "type": "PRES_VIS", "word": "turnip", "wordID": 1520, "conditions": [24, 800, "v", 12000], "trial": 4, "serialpos": 1, "trial_type": "single-stim", "trial_index": 158, "time_elapsed": 1375791, "internal_node_id": "0.0-113.0"}}, {"uniqueid": "MTK0143:3YMU66OBIOFC282TL8VSNF62R0QGH2", "current_trial": 159, "dateTime": 1509291086426, "trialdata": {"rt": -1, "stimulus": "<p id=\"stim\">TAXI</p>", "key_press": -1, "type": "PRES_VIS", "word": "taxi", "wordID": 1437, "conditions": [24, 800, "v", 12000], "trial": 4, "serialpos": 2, "trial_type": "single-stim", "trial_index": 159, "time_elapsed": 1377511, "internal_node_id": "0.0-114.0"}}, {"uniqueid": "MTK0143:3YMU66OBIOFC282TL8VSNF62R0QGH2", "current_trial": 160, "dateTime": 1509291088232, "trialdata": {"rt": -1, "stimulus": "<p id=\"stim\">PATROL</p>", "key_press": -1, "type": "PRES_VIS", "word": "patrol", "wordID": 1026, "conditions": [24, 800, "v", 12000], "trial": 4, "serialpos": 3, "trial_type": "single-stim", "trial_index": 160, "time_elapsed": 1379317, "internal_node_id": "0.0-115.0"}}, {"uniqueid": "MTK0143:3YMU66OBIOFC282TL8VSNF62R0QGH2", "current_trial": 161, "dateTime": 1509291090195, "trialdata": {"rt": -1, "stimulus": "<p id=\"stim\">OUTDOORS</p>", "key_press": -1, "type": "PRES_VIS", "word": "outdoors", "wordID": 986, "conditions": [24, 800, "v", 12000], "trial": 4, "serialpos": 4, "trial_type": "single-stim", "trial_index": 161, "time_elapsed": 1381280, "internal_node_id": "0.0-116.0"}}, {"uniqueid": "MTK0143:3YMU66OBIOFC282TL8VSNF62R0QGH2", "current_trial": 162, "dateTime": 1509291091958, "trialdata": {"rt": -1, "stimulus": "<p id=\"stim\">LOFT</p>", "key_press": -1, "type": "PRES_VIS", "word": "loft", "wordID": 839, "conditions": [24, 800, "v", 12000], "trial": 4, "serialpos": 5, "trial_type": "single-stim", "trial_index": 162, "time_elapsed": 1383043, "internal_node_id": "0.0-117.0"}}, {"uniqueid": "MTK0143:3YMU66OBIOFC282TL8VSNF62R0QGH2", "current_trial": 163, "dateTime": 1509291093953, "trialdata": {"rt": -1, "stimulus": "<p id=\"stim\">NIGHTGOWN</p>", "key_press": -1, "type": "PRES_VIS", "word": "nightgown", "wordID": 952, "conditions": [24, 800, "v", 12000], "trial": 4, "serialpos": 6, "trial_type": "single-stim", "trial_index": 163, "time_elapsed": 1385038, "internal_node_id": "0.0-118.0"}}, {"uniqueid": "MTK0143:3YMU66OBIOFC282TL8VSNF62R0QGH2", "current_trial": 164, "dateTime": 1509291095661, "trialdata": {"rt": -1, "stimulus": "<p id=\"stim\">INFANT</p>", "key_press": -1, "type": "PRES_VIS", "word": "infant", "wordID": 736, "conditions": [24, 800, "v", 12000], "trial": 4, "serialpos": 7, "trial_type": "single-stim", "trial_index": 164, "time_elapsed": 1386746, "internal_node_id": "0.0-119.0"}}, {"uniqueid": "MTK0143:3YMU66OBIOFC282TL8VSNF62R0QGH2", "current_trial": 165, "dateTime": 1509291097346, "trialdata": {"rt": -1, "stimulus": "<p id=\"stim\">CLAM</p>", "key_press": -1, "type": "PRES_VIS", "word": "clam", "wordID": 314, "conditions": [24, 800, "v", 12000], "trial": 4, "serialpos": 8, "trial_type": "single-stim", "trial_index": 165, "time_elapsed": 1388431, "internal_node_id": "0.0-120.0"}}, {"uniqueid": "MTK0143:3YMU66OBIOFC282TL8VSNF62R0QGH2", "current_trial": 166, "dateTime": 1509291099102, "trialdata": {"rt": -1, "stimulus": "<p id=\"stim\">TUTU</p>", "key_press": -1, "type": "PRES_VIS", "word": "tutu", "wordID": 1523, "conditions": [24, 800, "v", 12000], "trial": 4, "serialpos": 9, "trial_type": "single-stim", "trial_index": 166, "time_elapsed": 1390187, "internal_node_id": "0.0-121.0"}}, {"uniqueid": "MTK0143:3YMU66OBIOFC282TL8VSNF62R0QGH2", "current_trial": 167, "dateTime": 1509291100933, "trialdata": {"rt": -1, "stimulus": "<p id=\"stim\">CHURCH</p>", "key_press": -1, "type": "PRES_VIS", "word": "church", "wordID": 306, "conditions": [24, 800, "v", 12000], "trial": 4, "serialpos": 10, "trial_type": "single-stim", "trial_index": 167, "time_elapsed": 1392018, "internal_node_id": "0.0-122.0"}}, {"uniqueid": "MTK0143:3YMU66OBIOFC282TL8VSNF62R0QGH2", "current_trial": 168, "dateTime": 1509291102550, "trialdata": {"rt": -1, "stimulus": "<p id=\"stim\">SUSPECT</p>", "key_press": -1, "type": "PRES_VIS", "word": "suspect", "wordID": 1414, "conditions": [24, 800, "v", 12000], "trial": 4, "serialpos": 11, "trial_type": "single-stim", "trial_index": 168, "time_elapsed": 1393635, "internal_node_id": "0.0-123.0"}}, {"uniqueid": "MTK0143:3YMU66OBIOFC282TL8VSNF62R0QGH2", "current_trial": 169, "dateTime": 1509291104386, "trialdata": {"rt": -1, "stimulus": "<p id=\"stim\">BURGLAR</p>", "key_press": -1, "type": "PRES_VIS", "word": "burglar", "wordID": 199, "conditions": [24, 800, "v", 12000], "trial": 4, "serialpos": 12, "trial_type": "single-stim", "trial_index": 169, "time_elapsed": 1395471, "internal_node_id": "0.0-124.0"}}, {"uniqueid": "MTK0143:3YMU66OBIOFC282TL8VSNF62R0QGH2", "current_trial": 170, "dateTime": 1509291106281, "trialdata": {"rt": -1, "stimulus": "<p id=\"stim\">DRAGON</p>", "key_press": -1, "type": "PRES_VIS", "word": "dragon", "wordID": 491, "conditions": [24, 800, "v", 12000], "trial": 4, "serialpos": 13, "trial_type": "single-stim", "trial_index": 170, "time_elapsed": 1397366, "internal_node_id": "0.0-125.0"}}, {"uniqueid": "MTK0143:3YMU66OBIOFC282TL8VSNF62R0QGH2", "current_trial": 171, "dateTime": 1509291107883, "trialdata": {"rt": -1, "stimulus": "<p id=\"stim\">APRON</p>", "key_press": -1, "type": "PRES_VIS", "word": "apron", "wordID": 34, "conditions": [24, 800, "v", 12000], "trial": 4, "serialpos": 14, "trial_type": "single-stim", "trial_index": 171, "time_elapsed": 1398968, "internal_node_id": "0.0-126.0"}}, {"uniqueid": "MTK0143:3YMU66OBIOFC282TL8VSNF62R0QGH2", "current_trial": 172, "dateTime": 1509291109545, "trialdata": {"rt": -1, "stimulus": "<p id=\"stim\">CHILD</p>", "key_press": -1, "type": "PRES_VIS", "word": "child", "wordID": 298, "conditions": [24, 800, "v", 12000], "trial": 4, "serialpos": 15, "trial_type": "single-stim", "trial_index": 172, "time_elapsed": 1400630, "internal_node_id": "0.0-127.0"}}, {"uniqueid": "MTK0143:3YMU66OBIOFC282TL8VSNF62R0QGH2", "current_trial": 173, "dateTime": 1509291111186, "trialdata": {"rt": -1, "stimulus": "<p id=\"stim\">DAUGHTER</p>", "key_press": -1, "type": "PRES_VIS", "word": "daughter", "wordID": 441, "conditions": [24, 800, "v", 12000], "trial": 4, "serialpos": 16, "trial_type": "single-stim", "trial_index": 173, "time_elapsed": 1402271, "internal_node_id": "0.0-128.0"}}, {"uniqueid": "MTK0143:3YMU66OBIOFC282TL8VSNF62R0QGH2", "current_trial": 174, "dateTime": 1509291113172, "trialdata": {"rt": -1, "stimulus": "<p id=\"stim\">BEAST</p>", "key_press": -1, "type": "PRES_VIS", "word": "beast", "wordID": 107, "conditions": [24, 800, "v", 12000], "trial": 4, "serialpos": 17, "trial_type": "single-stim", "trial_index": 174, "time_elapsed": 1404257, "internal_node_id": "0.0-129.0"}}, {"uniqueid": "MTK0143:3YMU66OBIOFC282TL8VSNF62R0QGH2", "current_trial": 175, "dateTime": 1509291114827, "trialdata": {"rt": -1, "stimulus": "<p id=\"stim\">PERMIT</p>", "key_press": -1, "type": "PRES_VIS", "word": "permit", "wordID": 1050, "conditions": [24, 800, "v", 12000], "trial": 4, "serialpos": 18, "trial_type": "single-stim", "trial_index": 175, "time_elapsed": 1405912, "internal_node_id": "0.0-130.0"}}, {"uniqueid": "MTK0143:3YMU66OBIOFC282TL8VSNF62R0QGH2", "current_trial": 176, "dateTime": 1509291116755, "trialdata": {"rt": -1, "stimulus": "<p id=\"stim\">WHISTLE</p>", "key_press": -1, "type": "PRES_VIS", "word": "whistle", "wordID": 1605, "conditions": [24, 800, "v", 12000], "trial": 4, "serialpos": 19, "trial_type": "single-stim", "trial_index": 176, "time_elapsed": 1407840, "internal_node_id": "0.0-131.0"}}, {"uniqueid": "MTK0143:3YMU66OBIOFC282TL8VSNF62R0QGH2", "current_trial": 177, "dateTime": 1509291118643, "trialdata": {"rt": -1, "stimulus": "<p id=\"stim\">BIKE</p>", "key_press": -1, "type": "PRES_VIS", "word": "bike", "wordID": 124, "conditions": [24, 800, "v", 12000], "trial": 4, "serialpos": 20, "trial_type": "single-stim", "trial_index": 177, "time_elapsed": 1409728, "internal_node_id": "0.0-132.0"}}, {"uniqueid": "MTK0143:3YMU66OBIOFC282TL8VSNF62R0QGH2", "current_trial": 178, "dateTime": 1509291120567, "trialdata": {"rt": -1, "stimulus": "<p id=\"stim\">SADDLE</p>", "key_press": -1, "type": "PRES_VIS", "word": "saddle", "wordID": 1220, "conditions": [24, 800, "v", 12000], "trial": 4, "serialpos": 21, "trial_type": "single-stim", "trial_index": 178, "time_elapsed": 1411652, "internal_node_id": "0.0-133.0"}}, {"uniqueid": "MTK0143:3YMU66OBIOFC282TL8VSNF62R0QGH2", "current_trial": 179, "dateTime": 1509291122517, "trialdata": {"rt": -1, "stimulus": "<p id=\"stim\">CATTLE</p>", "key_press": -1, "type": "PRES_VIS", "word": "cattle", "wordID": 260, "conditions": [24, 800, "v", 12000], "trial": 4, "serialpos": 22, "trial_type": "single-stim", "trial_index": 179, "time_elapsed": 1413602, "internal_node_id": "0.0-134.0"}}, {"uniqueid": "MTK0143:3YMU66OBIOFC282TL8VSNF62R0QGH2", "current_trial": 180, "dateTime": 1509291124437, "trialdata": {"rt": -1, "stimulus": "<p id=\"stim\">ROBBER</p>", "key_press": -1, "type": "PRES_VIS", "word": "robber", "wordID": 1196, "conditions": [24, 800, "v", 12000], "trial": 4, "serialpos": 23, "trial_type": "single-stim", "trial_index": 180, "time_elapsed": 1415522, "internal_node_id": "0.0-135.0"}}, {"uniqueid": "MTK0143:3YMU66OBIOFC282TL8VSNF62R0QGH2", "current_trial": 181, "dateTime": 1509291126576, "trialdata": {"rt": -1, "stimulus": "", "key_press": -1, "type": "PRE_RECALL_DELAY", "trial_type": "single-stim", "trial_index": 181, "time_elapsed": 1417661, "internal_node_id": "0.0-136.0-0.0"}}, {"uniqueid": "MTK0143:3YMU66OBIOFC282TL8VSNF62R0QGH2", "current_trial": 182, "dateTime": 1509291127077, "trialdata": {"rt": -1000, "stimulus": "/static/audio/400Hz.wav", "key_press": -1, "type": "PRE_RECALL_ALERT", "trial_type": "single-audio", "trial_index": 182, "time_elapsed": 1418162, "internal_node_id": "0.0-137.0"}}, {"uniqueid": "MTK0143:3YMU66OBIOFC282TL8VSNF62R0QGH2", "current_trial": 183, "dateTime": 1509291187081, "trialdata": {"rt": [2762, 4027, 5944, 7952, 9240, 22737, 24550, 32896, 34132, 38785], "recwords": ["robber", "bike", "burglar", "child", "baby", "saddle", "cattle", "nightdown", "dresser", "robber"], "type": "FREE_RECALL", "conditions": [24, 800, "v", 12000], "trial": 4, "trial_type": "free-recall", "trial_index": 183, "time_elapsed": 1478164, "internal_node_id": "0.0-138.0-0.0"}}, {"uniqueid": "MTK0143:3YMU66OBIOFC282TL8VSNF62R0QGH2", "current_trial": 184, "dateTime": 1509291190074, "trialdata": {"rt": 993, "key_press": 32, "type": "INSTRUCTIONS", "trial_type": "text", "trial_index": 184, "time_elapsed": 1481159, "internal_node_id": "0.0-139.0"}}, {"uniqueid": "MTK0143:3YMU66OBIOFC282TL8VSNF62R0QGH2", "current_trial": 185, "dateTime": 1509291216077, "trialdata": {"rt": [2545, 6165, 8579, 10447, 11958, 14504, 16045, 19128, 20915, 22000], "responses": ["13", "25", "22", "17", "13", "10", "8", "20", "16", "12"], "num1": [7, 8, 8, 6, 1, 3, 1, 7, 1, 5, 5], "num2": [5, 8, 6, 9, 4, 4, 4, 5, 8, 5, 3], "num3": [1, 9, 8, 2, 8, 3, 4, 8, 7, 2, 9], "type": "DISTRACTOR", "conditions": [12, 800, "a", 24000], "trial": 5, "trial_type": "math-distractor", "trial_index": 185, "time_elapsed": 1507162, "internal_node_id": "0.0-140.0"}}, {"uniqueid": "MTK0143:3YMU66OBIOFC282TL8VSNF62R0QGH2", "current_trial": 186, "dateTime": 1509291219079, "trialdata": {"rt": -1, "stimulus": "<p id=\"stim\">10</p>", "key_press": -1, "trial_type": "single-stim", "trial_index": 186, "time_elapsed": 1510164, "internal_node_id": "0.0-141.0-0.0"}}, {"uniqueid": "MTK0143:3YMU66OBIOFC282TL8VSNF62R0QGH2", "current_trial": 187, "dateTime": 1509291220081, "trialdata": {"rt": -1, "stimulus": "<p id=\"stim\">9</p>", "key_press": -1, "trial_type": "single-stim", "trial_index": 187, "time_elapsed": 1511166, "internal_node_id": "0.0-141.0-1.0"}}, {"uniqueid": "MTK0143:3YMU66OBIOFC282TL8VSNF62R0QGH2", "current_trial": 188, "dateTime": 1509291221083, "trialdata": {"rt": -1, "stimulus": "<p id=\"stim\">8</p>", "key_press": -1, "trial_type": "single-stim", "trial_index": 188, "time_elapsed": 1512168, "internal_node_id": "0.0-141.0-2.0"}}, {"uniqueid": "MTK0143:3YMU66OBIOFC282TL8VSNF62R0QGH2", "current_trial": 189, "dateTime": 1509291222084, "trialdata": {"rt": -1, "stimulus": "<p id=\"stim\">7</p>", "key_press": -1, "trial_type": "single-stim", "trial_index": 189, "time_elapsed": 1513169, "internal_node_id": "0.0-141.0-3.0"}}, {"uniqueid": "MTK0143:3YMU66OBIOFC282TL8VSNF62R0QGH2", "current_trial": 190, "dateTime": 1509291223084, "trialdata": {"rt": -1, "stimulus": "<p id=\"stim\">6</p>", "key_press": -1, "trial_type": "single-stim", "trial_index": 190, "time_elapsed": 1514169, "internal_node_id": "0.0-141.0-4.0"}}, {"uniqueid": "MTK0143:3YMU66OBIOFC282TL8VSNF62R0QGH2", "current_trial": 191, "dateTime": 1509291224086, "trialdata": {"rt": -1, "stimulus": "<p id=\"stim\">5</p>", "key_press": -1, "trial_type": "single-stim", "trial_index": 191, "time_elapsed": 1515171, "internal_node_id": "0.0-141.0-5.0"}}, {"uniqueid": "MTK0143:3YMU66OBIOFC282TL8VSNF62R0QGH2", "current_trial": 192, "dateTime": 1509291225088, "trialdata": {"rt": -1, "stimulus": "<p id=\"stim\">4</p>", "key_press": -1, "trial_type": "single-stim", "trial_index": 192, "time_elapsed": 1516173, "internal_node_id": "0.0-141.0-6.0"}}, {"uniqueid": "MTK0143:3YMU66OBIOFC282TL8VSNF62R0QGH2", "current_trial": 193, "dateTime": 1509291226089, "trialdata": {"rt": -1, "stimulus": "<p id=\"stim\">3</p>", "key_press": -1, "trial_type": "single-stim", "trial_index": 193, "time_elapsed": 1517174, "internal_node_id": "0.0-141.0-7.0"}}, {"uniqueid": "MTK0143:3YMU66OBIOFC282TL8VSNF62R0QGH2", "current_trial": 194, "dateTime": 1509291227090, "trialdata": {"rt": -1, "stimulus": "<p id=\"stim\">2</p>", "key_press": -1, "trial_type": "single-stim", "trial_index": 194, "time_elapsed": 1518175, "internal_node_id": "0.0-141.0-8.0"}}, {"uniqueid": "MTK0143:3YMU66OBIOFC282TL8VSNF62R0QGH2", "current_trial": 195, "dateTime": 1509291228091, "trialdata": {"rt": -1, "stimulus": "<p id=\"stim\">1</p>", "key_press": -1, "trial_type": "single-stim", "trial_index": 195, "time_elapsed": 1519176, "internal_node_id": "0.0-141.0-9.0"}}, {"uniqueid": "MTK0143:3YMU66OBIOFC282TL8VSNF62R0QGH2", "current_trial": 196, "dateTime": 1509291229592, "trialdata": {"rt": -1, "stimulus": "<p id=\"stim\">+</p>", "key_press": -1, "type": "FIXATION", "trial_type": "single-stim", "trial_index": 196, "time_elapsed": 1520677, "internal_node_id": "0.0-142.0-0.0"}}, {"uniqueid": "MTK0143:3YMU66OBIOFC282TL8VSNF62R0QGH2", "current_trial": 197, "dateTime": 1509291231468, "trialdata": {"rt": -1000, "stimulus": "/static/audio/wordpool/SLOPE.wav", "key_press": -1, "type": "PRES_AUD", "word": "slope", "wordID": 1327, "conditions": [12, 800, "a", 24000], "trial": 5, "serialpos": 0, "trial_type": "single-audio", "trial_index": 197, "time_elapsed": 1522552, "internal_node_id": "0.0-143.0"}}, {"uniqueid": "MTK0143:3YMU66OBIOFC282TL8VSNF62R0QGH2", "current_trial": 198, "dateTime": 1509291233137, "trialdata": {"rt": -1000, "stimulus": "/static/audio/wordpool/VICTIM.wav", "key_press": -1, "type": "PRES_AUD", "word": "victim", "wordID": 1561, "conditions": [12, 800, "a", 24000], "trial": 5, "serialpos": 1, "trial_type": "single-audio", "trial_index": 198, "time_elapsed": 1524222, "internal_node_id": "0.0-144.0"}}, {"uniqueid": "MTK0143:3YMU66OBIOFC282TL8VSNF62R0QGH2", "current_trial": 199, "dateTime": 1509291234916, "trialdata": {"rt": -1000, "stimulus": "/static/audio/wordpool/PISTON.wav", "key_press": -1, "type": "PRES_AUD", "word": "piston", "wordID": 1075, "conditions": [12, 800, "a", 24000], "trial": 5, "serialpos": 2, "trial_type": "single-audio", "trial_index": 199, "time_elapsed": 1526001, "internal_node_id": "0.0-145.0"}}, {"uniqueid": "MTK0143:3YMU66OBIOFC282TL8VSNF62R0QGH2", "current_trial": 200, "dateTime": 1509291236735, "trialdata": {"rt": -1000, "stimulus": "/static/audio/wordpool/HOUND.wav", "key_press": -1, "type": "PRES_AUD", "word": "hound", "wordID": 723, "conditions": [12, 800, "a", 24000], "trial": 5, "serialpos": 3, "trial_type": "single-audio", "trial_index": 200, "time_elapsed": 1527820, "internal_node_id": "0.0-146.0"}}, {"uniqueid": "MTK0143:3YMU66OBIOFC282TL8VSNF62R0QGH2", "current_trial": 201, "dateTime": 1509291238555, "trialdata": {"rt": -1000, "stimulus": "/static/audio/wordpool/WOMAN.wav", "key_press": -1, "type": "PRES_AUD", "word": "woman", "wordID": 1619, "conditions": [12, 800, "a", 24000], "trial": 5, "serialpos": 4, "trial_type": "single-audio", "trial_index": 201, "time_elapsed": 1529640, "internal_node_id": "0.0-147.0"}}, {"uniqueid": "MTK0143:3YMU66OBIOFC282TL8VSNF62R0QGH2", "current_trial": 202, "dateTime": 1509291240393, "trialdata": {"rt": -1000, "stimulus": "/static/audio/wordpool/GLOBE.wav", "key_press": -1, "type": "PRES_AUD", "word": "globe", "wordID": 640, "conditions": [12, 800, "a", 24000], "trial": 5, "serialpos": 5, "trial_type": "single-audio", "trial_index": 202, "time_elapsed": 1531478, "internal_node_id": "0.0-148.0"}}, {"uniqueid": "MTK0143:3YMU66OBIOFC282TL8VSNF62R0QGH2", "current_trial": 203, "dateTime": 1509291242052, "trialdata": {"rt": -1000, "stimulus": "/static/audio/wordpool/WIFE.wav", "key_press": -1, "type": "PRES_AUD", "word": "wife", "wordID": 1608, "conditions": [12, 800, "a", 24000], "trial": 5, "serialpos": 6, "trial_type": "single-audio", "trial_index": 203, "time_elapsed": 1533137, "internal_node_id": "0.0-149.0"}}, {"uniqueid": "MTK0143:3YMU66OBIOFC282TL8VSNF62R0QGH2", "current_trial": 204, "dateTime": 1509291243949, "trialdata": {"rt": -1000, "stimulus": "/static/audio/wordpool/WIDOW.wav", "key_press": -1, "type": "PRES_AUD", "word": "widow", "wordID": 1607, "conditions": [12, 800, "a", 24000], "trial": 5, "serialpos": 7, "trial_type": "single-audio", "trial_index": 204, "time_elapsed": 1535034, "internal_node_id": "0.0-150.0"}}, {"uniqueid": "MTK0143:3YMU66OBIOFC282TL8VSNF62R0QGH2", "current_trial": 205, "dateTime": 1509291245557, "trialdata": {"rt": -1000, "stimulus": "/static/audio/wordpool/VIKING.wav", "key_press": -1, "type": "PRES_AUD", "word": "viking", "wordID": 1564, "conditions": [12, 800, "a", 24000], "trial": 5, "serialpos": 8, "trial_type": "single-audio", "trial_index": 205, "time_elapsed": 1536642, "internal_node_id": "0.0-151.0"}}, {"uniqueid": "MTK0143:3YMU66OBIOFC282TL8VSNF62R0QGH2", "current_trial": 206, "dateTime": 1509291247542, "trialdata": {"rt": -1000, "stimulus": "/static/audio/wordpool/SLIDE.wav", "key_press": -1, "type": "PRES_AUD", "word": "slide", "wordID": 1325, "conditions": [12, 800, "a", 24000], "trial": 5, "serialpos": 9, "trial_type": "single-audio", "trial_index": 206, "time_elapsed": 1538627, "internal_node_id": "0.0-152.0"}}, {"uniqueid": "MTK0143:3YMU66OBIOFC282TL8VSNF62R0QGH2", "current_trial": 207, "dateTime": 1509291249189, "trialdata": {"rt": -1000, "stimulus": "/static/audio/wordpool/FREEZER.wav", "key_press": -1, "type": "PRES_AUD", "word": "freezer", "wordID": 603, "conditions": [12, 800, "a", 24000], "trial": 5, "serialpos": 10, "trial_type": "single-audio", "trial_index": 207, "time_elapsed": 1540274, "internal_node_id": "0.0-153.0"}}, {"uniqueid": "MTK0143:3YMU66OBIOFC282TL8VSNF62R0QGH2", "current_trial": 208, "dateTime": 1509291251175, "trialdata": {"rt": -1000, "stimulus": "/static/audio/wordpool/COD.wav", "key_press": -1, "type": "PRES_AUD", "word": "cod", "wordID": 339, "conditions": [12, 800, "a", 24000], "trial": 5, "serialpos": 11, "trial_type": "single-audio", "trial_index": 208, "time_elapsed": 1542260, "internal_node_id": "0.0-154.0"}}, {"uniqueid": "MTK0143:3YMU66OBIOFC282TL8VSNF62R0QGH2", "current_trial": 209, "dateTime": 1509291252456, "trialdata": {"rt": -1, "stimulus": "", "key_press": -1, "type": "PRE_RECALL_DELAY", "trial_type": "single-stim", "trial_index": 209, "time_elapsed": 1543541, "internal_node_id": "0.0-155.0-0.0"}}, {"uniqueid": "MTK0143:3YMU66OBIOFC282TL8VSNF62R0QGH2", "current_trial": 210, "dateTime": 1509291252956, "trialdata": {"rt": -1000, "stimulus": "/static/audio/400Hz.wav", "key_press": -1, "type": "PRE_RECALL_ALERT", "trial_type": "single-audio", "trial_index": 210, "time_elapsed": 1544041, "internal_node_id": "0.0-156.0"}}, {"uniqueid": "MTK0143:3YMU66OBIOFC282TL8VSNF62R0QGH2", "current_trial": 211, "dateTime": 1509291312961, "trialdata": {"rt": [1596, 2499, 3971, 8838, 9842, 12136, 25883, 47857], "recwords": ["card", "wife", "freezer", "victim", "woman", "card", "motor", "feather"], "type": "FREE_RECALL", "conditions": [12, 800, "a", 24000], "trial": 5, "trial_type": "free-recall", "trial_index": 211, "time_elapsed": 1604044, "internal_node_id": "0.0-157.0-0.0"}}, {"uniqueid": "MTK0143:3YMU66OBIOFC282TL8VSNF62R0QGH2", "current_trial": 212, "dateTime": 1509291316083, "trialdata": {"rt": 1121, "key_press": 32, "type": "INSTRUCTIONS", "trial_type": "text", "trial_index": 212, "time_elapsed": 1607168, "internal_node_id": "0.0-158.0"}}, {"uniqueid": "MTK0143:3YMU66OBIOFC282TL8VSNF62R0QGH2", "current_trial": 213, "dateTime": 1509291342086, "trialdata": {"rt": [1448, 2825, 6791, 8064, 10110, 11864, 13518, 15497, 17535, 20254, 22112, 23958], "responses": ["13", "14", "19", "11", "19", "10", "15", "16", "13", "16", "15", "15"], "num1": [1, 4, 3, 8, 8, 7, 6, 4, 9, 9, 6, 5, 8], "num2": [3, 9, 8, 2, 3, 1, 5, 8, 1, 5, 7, 7, 3], "num3": [9, 1, 8, 1, 8, 2, 4, 8, 3, 2, 2, 3, 4], "type": "DISTRACTOR", "conditions": [24, 1600, "a", 24000], "trial": 6, "trial_type": "math-distractor", "trial_index": 213, "time_elapsed": 1633171, "internal_node_id": "0.0-159.0"}}, {"uniqueid": "MTK0143:3YMU66OBIOFC282TL8VSNF62R0QGH2", "current_trial": 214, "dateTime": 1509291345087, "trialdata": {"rt": -1, "stimulus": "<p id=\"stim\">10</p>", "key_press": -1, "trial_type": "single-stim", "trial_index": 214, "time_elapsed": 1636172, "internal_node_id": "0.0-160.0-0.0"}}, {"uniqueid": "MTK0143:3YMU66OBIOFC282TL8VSNF62R0QGH2", "current_trial": 215, "dateTime": 1509291346089, "trialdata": {"rt": -1, "stimulus": "<p id=\"stim\">9</p>", "key_press": -1, "trial_type": "single-stim", "trial_index": 215, "time_elapsed": 1637174, "internal_node_id": "0.0-160.0-1.0"}}, {"uniqueid": "MTK0143:3YMU66OBIOFC282TL8VSNF62R0QGH2", "current_trial": 216, "dateTime": 1509291347090, "trialdata": {"rt": -1, "stimulus": "<p id=\"stim\">8</p>", "key_press": -1, "trial_type": "single-stim", "trial_index": 216, "time_elapsed": 1638175, "internal_node_id": "0.0-160.0-2.0"}}, {"uniqueid": "MTK0143:3YMU66OBIOFC282TL8VSNF62R0QGH2", "current_trial": 217, "dateTime": 1509291348091, "trialdata": {"rt": -1, "stimulus": "<p id=\"stim\">7</p>", "key_press": -1, "trial_type": "single-stim", "trial_index": 217, "time_elapsed": 1639176, "internal_node_id": "0.0-160.0-3.0"}}, {"uniqueid": "MTK0143:3YMU66OBIOFC282TL8VSNF62R0QGH2", "current_trial": 218, "dateTime": 1509291349093, "trialdata": {"rt": -1, "stimulus": "<p id=\"stim\">6</p>", "key_press": -1, "trial_type": "single-stim", "trial_index": 218, "time_elapsed": 1640178, "internal_node_id": "0.0-160.0-4.0"}}, {"uniqueid": "MTK0143:3YMU66OBIOFC282TL8VSNF62R0QGH2", "current_trial": 219, "dateTime": 1509291350094, "trialdata": {"rt": -1, "stimulus": "<p id=\"stim\">5</p>", "key_press": -1, "trial_type": "single-stim", "trial_index": 219, "time_elapsed": 1641179, "internal_node_id": "0.0-160.0-5.0"}}, {"uniqueid": "MTK0143:3YMU66OBIOFC282TL8VSNF62R0QGH2", "current_trial": 220, "dateTime": 1509291351094, "trialdata": {"rt": -1, "stimulus": "<p id=\"stim\">4</p>", "key_press": -1, "trial_type": "single-stim", "trial_index": 220, "time_elapsed": 1642179, "internal_node_id": "0.0-160.0-6.0"}}, {"uniqueid": "MTK0143:3YMU66OBIOFC282TL8VSNF62R0QGH2", "current_trial": 221, "dateTime": 1509291352096, "trialdata": {"rt": -1, "stimulus": "<p id=\"stim\">3</p>", "key_press": -1, "trial_type": "single-stim", "trial_index": 221, "time_elapsed": 1643181, "internal_node_id": "0.0-160.0-7.0"}}, {"uniqueid": "MTK0143:3YMU66OBIOFC282TL8VSNF62R0QGH2", "current_trial": 222, "dateTime": 1509291353097, "trialdata": {"rt": -1, "stimulus": "<p id=\"stim\">2</p>", "key_press": -1, "trial_type": "single-stim", "trial_index": 222, "time_elapsed": 1644182, "internal_node_id": "0.0-160.0-8.0"}}, {"uniqueid": "MTK0143:3YMU66OBIOFC282TL8VSNF62R0QGH2", "current_trial": 223, "dateTime": 1509291354097, "trialdata": {"rt": -1, "stimulus": "<p id=\"stim\">1</p>", "key_press": -1, "trial_type": "single-stim", "trial_index": 223, "time_elapsed": 1645182, "internal_node_id": "0.0-160.0-9.0"}}, {"uniqueid": "MTK0143:3YMU66OBIOFC282TL8VSNF62R0QGH2", "current_trial": 224, "dateTime": 1509291355598, "trialdata": {"rt": -1, "stimulus": "<p id=\"stim\">+</p>", "key_press": -1, "type": "FIXATION", "trial_type": "single-stim", "trial_index": 224, "time_elapsed": 1646683, "internal_node_id": "0.0-161.0-0.0"}}, {"uniqueid": "MTK0143:3YMU66OBIOFC282TL8VSNF62R0QGH2", "current_trial": 225, "dateTime": 1509291358074, "trialdata": {"rt": -1000, "stimulus": "/static/audio/wordpool/QUEEN.wav", "key_press": -1, "type": "PRES_AUD", "word": "queen", "wordID": 1148, "conditions": [24, 1600, "a", 24000], "trial": 6, "serialpos": 0, "trial_type": "single-audio", "trial_index": 225, "time_elapsed": 1649159, "internal_node_id": "0.0-162.0"}}, {"uniqueid": "MTK0143:3YMU66OBIOFC282TL8VSNF62R0QGH2", "current_trial": 226, "dateTime": 1509291360839, "trialdata": {"rt": -1000, "stimulus": "/static/audio/wordpool/HIGHWAY.wav", "key_press": -1, "type": "PRES_AUD", "word": "highway", "wordID": 706, "conditions": [24, 1600, "a", 24000], "trial": 6, "serialpos": 1, "trial_type": "single-audio", "trial_index": 226, "time_elapsed": 1651924, "internal_node_id": "0.0-163.0"}}, {"uniqueid": "MTK0143:3YMU66OBIOFC282TL8VSNF62R0QGH2", "current_trial": 227, "dateTime": 1509291363518, "trialdata": {"rt": -1000, "stimulus": "/static/audio/wordpool/SPARROW.wav", "key_press": -1, "type": "PRES_AUD", "word": "sparrow", "wordID": 1346, "conditions": [24, 1600, "a", 24000], "trial": 6, "serialpos": 2, "trial_type": "single-audio", "trial_index": 227, "time_elapsed": 1654603, "internal_node_id": "0.0-164.0"}}, {"uniqueid": "MTK0143:3YMU66OBIOFC282TL8VSNF62R0QGH2", "current_trial": 228, "dateTime": 1509291366126, "trialdata": {"rt": -1000, "stimulus": "/static/audio/wordpool/ATLAS.wav", "key_press": -1, "type": "PRES_AUD", "word": "atlas", "wordID": 52, "conditions": [24, 1600, "a", 24000], "trial": 6, "serialpos": 3, "trial_type": "single-audio", "trial_index": 228, "time_elapsed": 1657211, "internal_node_id": "0.0-165.0"}}, {"uniqueid": "MTK0143:3YMU66OBIOFC282TL8VSNF62R0QGH2", "current_trial": 229, "dateTime": 1509291368608, "trialdata": {"rt": -1000, "stimulus": "/static/audio/wordpool/APPLE.wav", "key_press": -1, "type": "PRES_AUD", "word": "apple", "wordID": 32, "conditions": [24, 1600, "a", 24000], "trial": 6, "serialpos": 4, "trial_type": "single-audio", "trial_index": 229, "time_elapsed": 1659693, "internal_node_id": "0.0-166.0"}}, {"uniqueid": "MTK0143:3YMU66OBIOFC282TL8VSNF62R0QGH2", "current_trial": 230, "dateTime": 1509291371399, "trialdata": {"rt": -1000, "stimulus": "/static/audio/wordpool/CARRIAGE.wav", "key_press": -1, "type": "PRES_AUD", "word": "carriage", "wordID": 247, "conditions": [24, 1600, "a", 24000], "trial": 6, "serialpos": 5, "trial_type": "single-audio", "trial_index": 230, "time_elapsed": 1662484, "internal_node_id": "0.0-167.0"}}, {"uniqueid": "MTK0143:3YMU66OBIOFC282TL8VSNF62R0QGH2", "current_trial": 231, "dateTime": 1509291373808, "trialdata": {"rt": -1000, "stimulus": "/static/audio/wordpool/BANQUET.wav", "key_press": -1, "type": "PRES_AUD", "word": "banquet", "wordID": 85, "conditions": [24, 1600, "a", 24000], "trial": 6, "serialpos": 6, "trial_type": "single-audio", "trial_index": 231, "time_elapsed": 1664893, "internal_node_id": "0.0-168.0"}}, {"uniqueid": "MTK0143:3YMU66OBIOFC282TL8VSNF62R0QGH2", "current_trial": 232, "dateTime": 1509291376515, "trialdata": {"rt": -1000, "stimulus": "/static/audio/wordpool/SUPPER.wav", "key_press": -1, "type": "PRES_AUD", "word": "supper", "wordID": 1410, "conditions": [24, 1600, "a", 24000], "trial": 6, "serialpos": 7, "trial_type": "single-audio", "trial_index": 232, "time_elapsed": 1667600, "internal_node_id": "0.0-169.0"}}, {"uniqueid": "MTK0143:3YMU66OBIOFC282TL8VSNF62R0QGH2", "current_trial": 233, "dateTime": 1509291379060, "trialdata": {"rt": -1000, "stimulus": "/static/audio/wordpool/MACHINE.wav", "key_press": -1, "type": "PRES_AUD", "word": "machine", "wordID": 851, "conditions": [24, 1600, "a", 24000], "trial": 6, "serialpos": 8, "trial_type": "single-audio", "trial_index": 233, "time_elapsed": 1670145, "internal_node_id": "0.0-170.0"}}, {"uniqueid": "MTK0143:3YMU66OBIOFC282TL8VSNF62R0QGH2", "current_trial": 234, "dateTime": 1509291381549, "trialdata": {"rt": -1000, "stimulus": "/static/audio/wordpool/GRAVE.wav", "key_press": -1, "type": "PRES_AUD", "word": "grave", "wordID": 657, "conditions": [24, 1600, "a", 24000], "trial": 6, "serialpos": 9, "trial_type": "single-audio", "trial_index": 234, "time_elapsed": 1672634, "internal_node_id": "0.0-171.0"}}, {"uniqueid": "MTK0143:3YMU66OBIOFC282TL8VSNF62R0QGH2", "current_trial": 235, "dateTime": 1509291384243, "trialdata": {"rt": -1000, "stimulus": "/static/audio/wordpool/SERVANT.wav", "key_press": -1, "type": "PRES_AUD", "word": "servant", "wordID": 1270, "conditions": [24, 1600, "a", 24000], "trial": 6, "serialpos": 10, "trial_type": "single-audio", "trial_index": 235, "time_elapsed": 1675328, "internal_node_id": "0.0-172.0"}}, {"uniqueid": "MTK0143:3YMU66OBIOFC282TL8VSNF62R0QGH2", "current_trial": 236, "dateTime": 1509291386874, "trialdata": {"rt": -1000, "stimulus": "/static/audio/wordpool/PRINCESS.wav", "key_press": -1, "type": "PRES_AUD", "word": "princess", "wordID": 1124, "conditions": [24, 1600, "a", 24000], "trial": 6, "serialpos": 11, "trial_type": "single-audio", "trial_index": 236, "time_elapsed": 1677959, "internal_node_id": "0.0-173.0"}}, {"uniqueid": "MTK0143:3YMU66OBIOFC282TL8VSNF62R0QGH2", "current_trial": 237, "dateTime": 1509291389616, "trialdata": {"rt": -1000, "stimulus": "/static/audio/wordpool/CRAB.wav", "key_press": -1, "type": "PRES_AUD", "word": "crab", "wordID": 396, "conditions": [24, 1600, "a", 24000], "trial": 6, "serialpos": 12, "trial_type": "single-audio", "trial_index": 237, "time_elapsed": 1680701, "internal_node_id": "0.0-174.0"}}, {"uniqueid": "MTK0143:3YMU66OBIOFC282TL8VSNF62R0QGH2", "current_trial": 238, "dateTime": 1509291392242, "trialdata": {"rt": -1000, "stimulus": "/static/audio/wordpool/KNIFE.wav", "key_press": -1, "type": "PRES_AUD", "word": "knife", "wordID": 784, "conditions": [24, 1600, "a", 24000], "trial": 6, "serialpos": 13, "trial_type": "single-audio", "trial_index": 238, "time_elapsed": 1683327, "internal_node_id": "0.0-175.0"}}, {"uniqueid": "MTK0143:3YMU66OBIOFC282TL8VSNF62R0QGH2", "current_trial": 239, "dateTime": 1509291394934, "trialdata": {"rt": -1000, "stimulus": "/static/audio/wordpool/BLADE.wav", "key_press": -1, "type": "PRES_AUD", "word": "blade", "wordID": 133, "conditions": [24, 1600, "a", 24000], "trial": 6, "serialpos": 14, "trial_type": "single-audio", "trial_index": 239, "time_elapsed": 1686019, "internal_node_id": "0.0-176.0"}}, {"uniqueid": "MTK0143:3YMU66OBIOFC282TL8VSNF62R0QGH2", "current_trial": 240, "dateTime": 1509291397362, "trialdata": {"rt": -1000, "stimulus": "/static/audio/wordpool/COUCH.wav", "key_press": -1, "type": "PRES_AUD", "word": "couch", "wordID": 385, "conditions": [24, 1600, "a", 24000], "trial": 6, "serialpos": 15, "trial_type": "single-audio", "trial_index": 240, "time_elapsed": 1688447, "internal_node_id": "0.0-177.0"}}, {"uniqueid": "MTK0143:3YMU66OBIOFC282TL8VSNF62R0QGH2", "current_trial": 241, "dateTime": 1509291399825, "trialdata": {"rt": -1000, "stimulus": "/static/audio/wordpool/CRIB.wav", "key_press": -1, "type": "PRES_AUD", "word": "crib", "wordID": 406, "conditions": [24, 1600, "a", 24000], "trial": 6, "serialpos": 16, "trial_type": "single-audio", "trial_index": 241, "time_elapsed": 1690910, "internal_node_id": "0.0-178.0"}}, {"uniqueid": "MTK0143:3YMU66OBIOFC282TL8VSNF62R0QGH2", "current_trial": 242, "dateTime": 1509291402548, "trialdata": {"rt": -1000, "stimulus": "/static/audio/wordpool/TERMITE.wav", "key_press": -1, "type": "PRES_AUD", "word": "termite", "wordID": 1450, "conditions": [24, 1600, "a", 24000], "trial": 6, "serialpos": 17, "trial_type": "single-audio", "trial_index": 242, "time_elapsed": 1693633, "internal_node_id": "0.0-179.0"}}, {"uniqueid": "MTK0143:3YMU66OBIOFC282TL8VSNF62R0QGH2", "current_trial": 243, "dateTime": 1509291404987, "trialdata": {"rt": -1000, "stimulus": "/static/audio/wordpool/CHEST.wav", "key_press": -1, "type": "PRES_AUD", "word": "chest", "wordID": 294, "conditions": [24, 1600, "a", 24000], "trial": 6, "serialpos": 18, "trial_type": "single-audio", "trial_index": 243, "time_elapsed": 1696072, "internal_node_id": "0.0-180.0"}}, {"uniqueid": "MTK0143:3YMU66OBIOFC282TL8VSNF62R0QGH2", "current_trial": 244, "dateTime": 1509291407540, "trialdata": {"rt": -1000, "stimulus": "/static/audio/wordpool/TURTLE.wav", "key_press": -1, "type": "PRES_AUD", "word": "turtle", "wordID": 1521, "conditions": [24, 1600, "a", 24000], "trial": 6, "serialpos": 19, "trial_type": "single-audio", "trial_index": 244, "time_elapsed": 1698624, "internal_node_id": "0.0-181.0"}}, {"uniqueid": "MTK0143:3YMU66OBIOFC282TL8VSNF62R0QGH2", "current_trial": 245, "dateTime": 1509291409949, "trialdata": {"rt": -1000, "stimulus": "/static/audio/wordpool/MAILMAN.wav", "key_press": -1, "type": "PRES_AUD", "word": "mailman", "wordID": 857, "conditions": [24, 1600, "a", 24000], "trial": 6, "serialpos": 20, "trial_type": "single-audio", "trial_index": 245, "time_elapsed": 1701034, "internal_node_id": "0.0-182.0"}}, {"uniqueid": "MTK0143:3YMU66OBIOFC282TL8VSNF62R0QGH2", "current_trial": 246, "dateTime": 1509291412504, "trialdata": {"rt": -1000, "stimulus": "/static/audio/wordpool/JAPAN.wav", "key_press": -1, "type": "PRES_AUD", "word": "japan", "wordID": 748, "conditions": [24, 1600, "a", 24000], "trial": 6, "serialpos": 21, "trial_type": "single-audio", "trial_index": 246, "time_elapsed": 1703589, "internal_node_id": "0.0-183.0"}}, {"uniqueid": "MTK0143:3YMU66OBIOFC282TL8VSNF62R0QGH2", "current_trial": 247, "dateTime": 1509291415203, "trialdata": {"rt": -1000, "stimulus": "/static/audio/wordpool/FUNGUS.wav", "key_press": -1, "type": "PRES_AUD", "word": "fungus", "wordID": 613, "conditions": [24, 1600, "a", 24000], "trial": 6, "serialpos": 22, "trial_type": "single-audio", "trial_index": 247, "time_elapsed": 1706288, "internal_node_id": "0.0-184.0"}}, {"uniqueid": "MTK0143:3YMU66OBIOFC282TL8VSNF62R0QGH2", "current_trial": 248, "dateTime": 1509291417779, "trialdata": {"rt": -1000, "stimulus": "/static/audio/wordpool/ROD.wav", "key_press": -1, "type": "PRES_AUD", "word": "rod", "wordID": 1202, "conditions": [24, 1600, "a", 24000], "trial": 6, "serialpos": 23, "trial_type": "single-audio", "trial_index": 248, "time_elapsed": 1708864, "internal_node_id": "0.0-185.0"}}, {"uniqueid": "MTK0143:3YMU66OBIOFC282TL8VSNF62R0QGH2", "current_trial": 249, "dateTime": 1509291419089, "trialdata": {"rt": -1, "stimulus": "", "key_press": -1, "type": "PRE_RECALL_DELAY", "trial_type": "single-stim", "trial_index": 249, "time_elapsed": 1710173, "internal_node_id": "0.0-186.0-0.0"}}, {"uniqueid": "MTK0143:3YMU66OBIOFC282TL8VSNF62R0QGH2", "current_trial": 250, "dateTime": 1509291419589, "trialdata": {"rt": -1000, "stimulus": "/static/audio/400Hz.wav", "key_press": -1, "type": "PRE_RECALL_ALERT", "trial_type": "single-audio", "trial_index": 250, "time_elapsed": 1710674, "internal_node_id": "0.0-187.0"}}, {"uniqueid": "MTK0143:3YMU66OBIOFC282TL8VSNF62R0QGH2", "current_trial": 251, "dateTime": 1509291479593, "trialdata": {"rt": [1366, 4259, 5517, 7090, 10964, 12678, 14514, 16005, 19143, 26223, 27033, 34133, 39916, 46135], "recwords": ["rod", "mailman", "turtle", "fungus", "princess", "banquet", "knife", "crab", "carriage", "atlas", "apple", "japan", "knife", "earth"], "type": "FREE_RECALL", "conditions": [24, 1600, "a", 24000], "trial": 6, "trial_type": "free-recall", "trial_index": 251, "time_elapsed": 1770676, "internal_node_id": "0.0-188.0-0.0"}}, {"uniqueid": "MTK0143:3YMU66OBIOFC282TL8VSNF62R0QGH2", "current_trial": 252, "dateTime": 1509291482625, "trialdata": {"rt": 1031, "key_press": 32, "type": "INSTRUCTIONS", "trial_type": "text", "trial_index": 252, "time_elapsed": 1773710, "internal_node_id": "0.0-189.0"}}, {"uniqueid": "MTK0143:3YMU66OBIOFC282TL8VSNF62R0QGH2", "current_trial": 253, "dateTime": 1509291508627, "trialdata": {"rt": [1701, 3893, 5555, 6956, 8945, 10781, 13542, 15069, 17930, 21308, 22604], "responses": ["17", "10", "15", "6", "7", "9", "21", "10", "20", "25", "9"], "num1": [9, 4, 3, 2, 3, 5, 8, 4, 5, 8, 3, 6], "num2": [7, 4, 5, 3, 2, 2, 4, 4, 6, 8, 3, 6], "num3": [1, 2, 7, 1, 2, 2, 9, 2, 9, 9, 3, 3], "type": "DISTRACTOR", "conditions": [12, 800, "v", 24000], "trial": 7, "trial_type": "math-distractor", "trial_index": 253, "time_elapsed": 1799712, "internal_node_id": "0.0-190.0"}}, {"uniqueid": "MTK0143:3YMU66OBIOFC282TL8VSNF62R0QGH2", "current_trial": 254, "dateTime": 1509291511629, "trialdata": {"rt": -1, "stimulus": "<p id=\"stim\">10</p>", "key_press": -1, "trial_type": "single-stim", "trial_index": 254, "time_elapsed": 1802714, "internal_node_id": "0.0-191.0-0.0"}}, {"uniqueid": "MTK0143:3YMU66OBIOFC282TL8VSNF62R0QGH2", "current_trial": 255, "dateTime": 1509291512631, "trialdata": {"rt": -1, "stimulus": "<p id=\"stim\">9</p>", "key_press": -1, "trial_type": "single-stim", "trial_index": 255, "time_elapsed": 1803716, "internal_node_id": "0.0-191.0-1.0"}}, {"uniqueid": "MTK0143:3YMU66OBIOFC282TL8VSNF62R0QGH2", "current_trial": 256, "dateTime": 1509291513632, "trialdata": {"rt": -1, "stimulus": "<p id=\"stim\">8</p>", "key_press": -1, "trial_type": "single-stim", "trial_index": 256, "time_elapsed": 1804717, "internal_node_id": "0.0-191.0-2.0"}}, {"uniqueid": "MTK0143:3YMU66OBIOFC282TL8VSNF62R0QGH2", "current_trial": 257, "dateTime": 1509291514633, "trialdata": {"rt": -1, "stimulus": "<p id=\"stim\">7</p>", "key_press": -1, "trial_type": "single-stim", "trial_index": 257, "time_elapsed": 1805718, "internal_node_id": "0.0-191.0-3.0"}}, {"uniqueid": "MTK0143:3YMU66OBIOFC282TL8VSNF62R0QGH2", "current_trial": 258, "dateTime": 1509291515634, "trialdata": {"rt": -1, "stimulus": "<p id=\"stim\">6</p>", "key_press": -1, "trial_type": "single-stim", "trial_index": 258, "time_elapsed": 1806719, "internal_node_id": "0.0-191.0-4.0"}}, {"uniqueid": "MTK0143:3YMU66OBIOFC282TL8VSNF62R0QGH2", "current_trial": 259, "dateTime": 1509291516635, "trialdata": {"rt": -1, "stimulus": "<p id=\"stim\">5</p>", "key_press": -1, "trial_type": "single-stim", "trial_index": 259, "time_elapsed": 1807720, "internal_node_id": "0.0-191.0-5.0"}}, {"uniqueid": "MTK0143:3YMU66OBIOFC282TL8VSNF62R0QGH2", "current_trial": 260, "dateTime": 1509291517637, "trialdata": {"rt": -1, "stimulus": "<p id=\"stim\">4</p>", "key_press": -1, "trial_type": "single-stim", "trial_index": 260, "time_elapsed": 1808722, "internal_node_id": "0.0-191.0-6.0"}}, {"uniqueid": "MTK0143:3YMU66OBIOFC282TL8VSNF62R0QGH2", "current_trial": 261, "dateTime": 1509291518638, "trialdata": {"rt": -1, "stimulus": "<p id=\"stim\">3</p>", "key_press": -1, "trial_type": "single-stim", "trial_index": 261, "time_elapsed": 1809723, "internal_node_id": "0.0-191.0-7.0"}}, {"uniqueid": "MTK0143:3YMU66OBIOFC282TL8VSNF62R0QGH2", "current_trial": 262, "dateTime": 1509291519639, "trialdata": {"rt": -1, "stimulus": "<p id=\"stim\">2</p>", "key_press": -1, "trial_type": "single-stim", "trial_index": 262, "time_elapsed": 1810724, "internal_node_id": "0.0-191.0-8.0"}}, {"uniqueid": "MTK0143:3YMU66OBIOFC282TL8VSNF62R0QGH2", "current_trial": 263, "dateTime": 1509291520641, "trialdata": {"rt": -1, "stimulus": "<p id=\"stim\">1</p>", "key_press": -1, "trial_type": "single-stim", "trial_index": 263, "time_elapsed": 1811726, "internal_node_id": "0.0-191.0-9.0"}}, {"uniqueid": "MTK0143:3YMU66OBIOFC282TL8VSNF62R0QGH2", "current_trial": 264, "dateTime": 1509291522142, "trialdata": {"rt": -1, "stimulus": "<p id=\"stim\">+</p>", "key_press": -1, "type": "FIXATION", "trial_type": "single-stim", "trial_index": 264, "time_elapsed": 1813227, "internal_node_id": "0.0-192.0-0.0"}}, {"uniqueid": "MTK0143:3YMU66OBIOFC282TL8VSNF62R0QGH2", "current_trial": 265, "dateTime": 1509291522944, "trialdata": {"rt": -1, "stimulus": "<p id=\"stim\">SIDEWALK</p>", "key_press": -1, "type": "PRES_VIS", "word": "sidewalk", "wordID": 1302, "conditions": [12, 800, "v", 24000], "trial": 7, "serialpos": 0, "trial_type": "single-stim", "trial_index": 265, "time_elapsed": 1814029, "internal_node_id": "0.0-193.0"}}, {"uniqueid": "MTK0143:3YMU66OBIOFC282TL8VSNF62R0QGH2", "current_trial": 266, "dateTime": 1509291524929, "trialdata": {"rt": -1, "stimulus": "<p id=\"stim\">PARROT</p>", "key_press": -1, "type": "PRES_VIS", "word": "parrot", "wordID": 1014, "conditions": [12, 800, "v", 24000], "trial": 7, "serialpos": 1, "trial_type": "single-stim", "trial_index": 266, "time_elapsed": 1816014, "internal_node_id": "0.0-194.0"}}, {"uniqueid": "MTK0143:3YMU66OBIOFC282TL8VSNF62R0QGH2", "current_trial": 267, "dateTime": 1509291526883, "trialdata": {"rt": -1, "stimulus": "<p id=\"stim\">STONE</p>", "key_press": -1, "type": "PRES_VIS", "word": "stone", "wordID": 1384, "conditions": [12, 800, "v", 24000], "trial": 7, "serialpos": 2, "trial_type": "single-stim", "trial_index": 267, "time_elapsed": 1817968, "internal_node_id": "0.0-195.0"}}, {"uniqueid": "MTK0143:3YMU66OBIOFC282TL8VSNF62R0QGH2", "current_trial": 268, "dateTime": 1509291528528, "trialdata": {"rt": -1, "stimulus": "<p id=\"stim\">POPCORN</p>", "key_press": -1, "type": "PRES_VIS", "word": "popcorn", "wordID": 1103, "conditions": [12, 800, "v", 24000], "trial": 7, "serialpos": 3, "trial_type": "single-stim", "trial_index": 268, "time_elapsed": 1819613, "internal_node_id": "0.0-196.0"}}, {"uniqueid": "MTK0143:3YMU66OBIOFC282TL8VSNF62R0QGH2", "current_trial": 269, "dateTime": 1509291530265, "trialdata": {"rt": -1, "stimulus": "<p id=\"stim\">SHIRT</p>", "key_press": -1, "type": "PRES_VIS", "word": "shirt", "wordID": 1286, "conditions": [12, 800, "v", 24000], "trial": 7, "serialpos": 4, "trial_type": "single-stim", "trial_index": 269, "time_elapsed": 1821350, "internal_node_id": "0.0-197.0"}}, {"uniqueid": "MTK0143:3YMU66OBIOFC282TL8VSNF62R0QGH2", "current_trial": 270, "dateTime": 1509291531884, "trialdata": {"rt": -1, "stimulus": "<p id=\"stim\">RECEIPT</p>", "key_press": -1, "type": "PRES_VIS", "word": "receipt", "wordID": 1172, "conditions": [12, 800, "v", 24000], "trial": 7, "serialpos": 5, "trial_type": "single-stim", "trial_index": 270, "time_elapsed": 1822969, "internal_node_id": "0.0-198.0