{"condition": 0, "counterbalance": 2608, "assignmentId": "37TD41K0AIGOB504UGB812SP687CSJ", "workerId": "MTK0897", "hitId": "360ZO6N6J1QHSSI28X0TYJWRSQV9MP", "currenttrial": 627, "bonus": 0, "data": [{"uniqueid": "MTK0897:37TD41K0AIGOB504UGB812SP687CSJ", "current_trial": 0, "dateTime": 1512865360700, "trialdata": {"rt": 3931, "key_press": 32, "type": "INSTRUCTIONS", "trial_type": "text", "trial_index": 0, "time_elapsed": 3935, "internal_node_id": "0.0-0.0"}}, {"uniqueid": "MTK0897:37TD41K0AIGOB504UGB812SP687CSJ", "current_trial": 1, "dateTime": 1512865420429, "trialdata": {"rt": 59723, "key_press": 32, "type": "INSTRUCTIONS", "trial_type": "text", "trial_index": 1, "time_elapsed": 63666, "internal_node_id": "0.0-1.0"}}, {"uniqueid": "MTK0897:37TD41K0AIGOB504UGB812SP687CSJ", "current_trial": 2, "dateTime": 1512865428516, "trialdata": {"rt": [8018], "responses": ["ocean"], "type": "AUDIO_TEST", "trial_type": "audio-test", "trial_index": 2, "time_elapsed": 71753, "internal_node_id": "0.0-2.0"}}, {"uniqueid": "MTK0897:37TD41K0AIGOB504UGB812SP687CSJ", "current_trial": 3, "dateTime": 1512865440497, "trialdata": {"rt": [11977], "responses": ["crystal"], "type": "AUDIO_TEST", "trial_type": "audio-test", "trial_index": 3, "time_elapsed": 83735, "internal_node_id": "0.0-3.0"}}, {"uniqueid": "MTK0897:37TD41K0AIGOB504UGB812SP687CSJ", "current_trial": 4, "dateTime": 1512865447102, "trialdata": {"rt": [6600], "responses": ["spice"], "type": "AUDIO_TEST", "trial_type": "audio-test", "trial_index": 4, "time_elapsed": 90340, "internal_node_id": "0.0-4.0"}}, {"uniqueid": "MTK0897:37TD41K0AIGOB504UGB812SP687CSJ", "current_trial": 5, "dateTime": 1512865478629, "trialdata": {"rt": 30772, "responses": "{\"Q0\":\"2am\",\"Q1\":\"8am\",\"Q2\":\"4\"}", "type": "SLEEP_SURVEY", "trial_type": "survey-text", "trial_index": 5, "time_elapsed": 121867, "internal_node_id": "0.0-5.0"}}, {"uniqueid": "MTK0897:37TD41K0AIGOB504UGB812SP687CSJ", "current_trial": 6, "dateTime": 1512865581023, "trialdata": {"rt": 101392, "key_press": 13, "type": "INSTRUCTIONS", "trial_type": "text", "trial_index": 6, "time_elapsed": 224261, "internal_node_id": "0.0-6.0"}}, {"uniqueid": "MTK0897:37TD41K0AIGOB504UGB812SP687CSJ", "current_trial": 7, "dateTime": 1512865611048, "trialdata": {"rt": 29522, "key_press": 32, "type": "INSTRUCTIONS", "trial_type": "text", "trial_index": 7, "time_elapsed": 254286, "internal_node_id": "0.0-7.0"}}, {"uniqueid": "MTK0897:37TD41K0AIGOB504UGB812SP687CSJ", "current_trial": 8, "dateTime": 1512865633166, "trialdata": {"rt": 21615, "key_press": 32, "type": "INSTRUCTIONS", "trial_type": "text", "trial_index": 8, "time_elapsed": 276404, "internal_node_id": "0.0-8.0"}}, {"uniqueid": "MTK0897:37TD41K0AIGOB504UGB812SP687CSJ", "current_trial": 9, "dateTime": 1512865652268, "trialdata": {"rt": [5072, 8517, 11174, 16391], "responses": ["4 ", "10", "14", "13"], "num1": [2, 6, 5, 7, 2], "num2": [1, 2, 4, 4, 4], "num3": [1, 2, 5, 2, 9], "type": "DISTRACTOR", "conditions": [18, 1200, "a", 18000], "trial": 0, "trial_type": "math-distractor", "trial_index": 9, "time_elapsed": 295506, "internal_node_id": "0.0-9.0"}}, {"uniqueid": "MTK0897:37TD41K0AIGOB504UGB812SP687CSJ", "current_trial": 10, "dateTime": 1512865655273, "trialdata": {"rt": -1, "stimulus": "<p id=\"stim\">10</p>", "key_press": -1, "trial_type": "single-stim", "trial_index": 10, "time_elapsed": 298511, "internal_node_id": "0.0-10.0-0.0"}}, {"uniqueid": "MTK0897:37TD41K0AIGOB504UGB812SP687CSJ", "current_trial": 11, "dateTime": 1512865656276, "trialdata": {"rt": -1, "stimulus": "<p id=\"stim\">9</p>", "key_press": -1, "trial_type": "single-stim", "trial_index": 11, "time_elapsed": 299514, "internal_node_id": "0.0-10.0-1.0"}}, {"uniqueid": "MTK0897:37TD41K0AIGOB504UGB812SP687CSJ", "current_trial": 12, "dateTime": 1512865657278, "trialdata": {"rt": -1, "stimulus": "<p id=\"stim\">8</p>", "key_press": -1, "trial_type": "single-stim", "trial_index": 12, "time_elapsed": 300516, "internal_node_id": "0.0-10.0-2.0"}}, {"uniqueid": "MTK0897:37TD41K0AIGOB504UGB812SP687CSJ", "current_trial": 13, "dateTime": 1512865658280, "trialdata": {"rt": -1, "stimulus": "<p id=\"stim\">7</p>", "key_press": -1, "trial_type": "single-stim", "trial_index": 13, "time_elapsed": 301517, "internal_node_id": "0.0-10.0-3.0"}}, {"uniqueid": "MTK0897:37TD41K0AIGOB504UGB812SP687CSJ", "current_trial": 14, "dateTime": 1512865659281, "trialdata": {"rt": -1, "stimulus": "<p id=\"stim\">6</p>", "key_press": -1, "trial_type": "single-stim", "trial_index": 14, "time_elapsed": 302519, "internal_node_id": "0.0-10.0-4.0"}}, {"uniqueid": "MTK0897:37TD41K0AIGOB504UGB812SP687CSJ", "current_trial": 15, "dateTime": 1512865660284, "trialdata": {"rt": -1, "stimulus": "<p id=\"stim\">5</p>", "key_press": -1, "trial_type": "single-stim", "trial_index": 15, "time_elapsed": 303522, "internal_node_id": "0.0-10.0-5.0"}}, {"uniqueid": "MTK0897:37TD41K0AIGOB504UGB812SP687CSJ", "current_trial": 16, "dateTime": 1512865661288, "trialdata": {"rt": -1, "stimulus": "<p id=\"stim\">4</p>", "key_press": -1, "trial_type": "single-stim", "trial_index": 16, "time_elapsed": 304525, "internal_node_id": "0.0-10.0-6.0"}}, {"uniqueid": "MTK0897:37TD41K0AIGOB504UGB812SP687CSJ", "current_trial": 17, "dateTime": 1512865662290, "trialdata": {"rt": -1, "stimulus": "<p id=\"stim\">3</p>", "key_press": -1, "trial_type": "single-stim", "trial_index": 17, "time_elapsed": 305528, "internal_node_id": "0.0-10.0-7.0"}}, {"uniqueid": "MTK0897:37TD41K0AIGOB504UGB812SP687CSJ", "current_trial": 18, "dateTime": 1512865663293, "trialdata": {"rt": -1, "stimulus": "<p id=\"stim\">2</p>", "key_press": -1, "trial_type": "single-stim", "trial_index": 18, "time_elapsed": 306530, "internal_node_id": "0.0-10.0-8.0"}}, {"uniqueid": "MTK0897:37TD41K0AIGOB504UGB812SP687CSJ", "current_trial": 19, "dateTime": 1512865664294, "trialdata": {"rt": -1, "stimulus": "<p id=\"stim\">1</p>", "key_press": -1, "trial_type": "single-stim", "trial_index": 19, "time_elapsed": 307532, "internal_node_id": "0.0-10.0-9.0"}}, {"uniqueid": "MTK0897:37TD41K0AIGOB504UGB812SP687CSJ", "current_trial": 20, "dateTime": 1512865665797, "trialdata": {"rt": -1, "stimulus": "<p id=\"stim\">+</p>", "key_press": -1, "type": "FIXATION", "trial_type": "single-stim", "trial_index": 20, "time_elapsed": 309035, "internal_node_id": "0.0-11.0-0.0"}}, {"uniqueid": "MTK0897:37TD41K0AIGOB504UGB812SP687CSJ", "current_trial": 21, "dateTime": 1512865667975, "trialdata": {"rt": -1000, "stimulus": "/static/audio/wordpool/REPORT.wav", "key_press": -1, "type": "PRES_AUD", "word": "report", "wordID": 1183, "conditions": [18, 1200, "a", 18000], "trial": 0, "serialpos": 0, "trial_type": "single-audio", "trial_index": 21, "time_elapsed": 311213, "internal_node_id": "0.0-12.0"}}, {"uniqueid": "MTK0897:37TD41K0AIGOB504UGB812SP687CSJ", "current_trial": 22, "dateTime": 1512865670363, "trialdata": {"rt": -1000, "stimulus": "/static/audio/wordpool/STAPLE.wav", "key_press": -1, "type": "PRES_AUD", "word": "staple", "wordID": 1370, "conditions": [18, 1200, "a", 18000], "trial": 0, "serialpos": 1, "trial_type": "single-audio", "trial_index": 22, "time_elapsed": 313601, "internal_node_id": "0.0-13.0"}}, {"uniqueid": "MTK0897:37TD41K0AIGOB504UGB812SP687CSJ", "current_trial": 23, "dateTime": 1512865672381, "trialdata": {"rt": -1000, "stimulus": "/static/audio/wordpool/JUNGLE.wav", "key_press": -1, "type": "PRES_AUD", "word": "jungle", "wordID": 763, "conditions": [18, 1200, "a", 18000], "trial": 0, "serialpos": 2, "trial_type": "single-audio", "trial_index": 23, "time_elapsed": 315618, "internal_node_id": "0.0-14.0"}}, {"uniqueid": "MTK0897:37TD41K0AIGOB504UGB812SP687CSJ", "current_trial": 24, "dateTime": 1512865674451, "trialdata": {"rt": -1000, "stimulus": "/static/audio/wordpool/QUARTER.wav", "key_press": -1, "type": "PRES_AUD", "word": "quarter", "wordID": 1147, "conditions": [18, 1200, "a", 18000], "trial": 0, "serialpos": 3, "trial_type": "single-audio", "trial_index": 24, "time_elapsed": 317689, "internal_node_id": "0.0-15.0"}}, {"uniqueid": "MTK0897:37TD41K0AIGOB504UGB812SP687CSJ", "current_trial": 25, "dateTime": 1512865676478, "trialdata": {"rt": -1000, "stimulus": "/static/audio/wordpool/PADDING.wav", "key_press": -1, "type": "PRES_AUD", "word": "padding", "wordID": 998, "conditions": [18, 1200, "a", 18000], "trial": 0, "serialpos": 4, "trial_type": "single-audio", "trial_index": 25, "time_elapsed": 319715, "internal_node_id": "0.0-16.0"}}, {"uniqueid": "MTK0897:37TD41K0AIGOB504UGB812SP687CSJ", "current_trial": 26, "dateTime": 1512865678656, "trialdata": {"rt": -1000, "stimulus": "/static/audio/wordpool/DAISY.wav", "key_press": -1, "type": "PRES_AUD", "word": "daisy", "wordID": 434, "conditions": [18, 1200, "a", 18000], "trial": 0, "serialpos": 5, "trial_type": "single-audio", "trial_index": 26, "time_elapsed": 321894, "internal_node_id": "0.0-17.0"}}, {"uniqueid": "MTK0897:37TD41K0AIGOB504UGB812SP687CSJ", "current_trial": 27, "dateTime": 1512865680962, "trialdata": {"rt": -1000, "stimulus": "/static/audio/wordpool/TABLE.wav", "key_press": -1, "type": "PRES_AUD", "word": "table", "wordID": 1425, "conditions": [18, 1200, "a", 18000], "trial": 0, "serialpos": 6, "trial_type": "single-audio", "trial_index": 27, "time_elapsed": 324200, "internal_node_id": "0.0-18.0"}}, {"uniqueid": "MTK0897:37TD41K0AIGOB504UGB812SP687CSJ", "current_trial": 28, "dateTime": 1512865683022, "trialdata": {"rt": -1000, "stimulus": "/static/audio/wordpool/FARMER.wav", "key_press": -1, "type": "PRES_AUD", "word": "farmer", "wordID": 552, "conditions": [18, 1200, "a", 18000], "trial": 0, "serialpos": 7, "trial_type": "single-audio", "trial_index": 28, "time_elapsed": 326260, "internal_node_id": "0.0-19.0"}}, {"uniqueid": "MTK0897:37TD41K0AIGOB504UGB812SP687CSJ", "current_trial": 29, "dateTime": 1512865685188, "trialdata": {"rt": -1000, "stimulus": "/static/audio/wordpool/BUG.wav", "key_press": -1, "type": "PRES_AUD", "word": "bug", "wordID": 186, "conditions": [18, 1200, "a", 18000], "trial": 0, "serialpos": 8, "trial_type": "single-audio", "trial_index": 29, "time_elapsed": 328426, "internal_node_id": "0.0-20.0"}}, {"uniqueid": "MTK0897:37TD41K0AIGOB504UGB812SP687CSJ", "current_trial": 30, "dateTime": 1512865687444, "trialdata": {"rt": -1000, "stimulus": "/static/audio/wordpool/ORANGE.wav", "key_press": -1, "type": "PRES_AUD", "word": "orange", "wordID": 979, "conditions": [18, 1200, "a", 18000], "trial": 0, "serialpos": 9, "trial_type": "single-audio", "trial_index": 30, "time_elapsed": 330682, "internal_node_id": "0.0-21.0"}}, {"uniqueid": "MTK0897:37TD41K0AIGOB504UGB812SP687CSJ", "current_trial": 31, "dateTime": 1512865689774, "trialdata": {"rt": -1000, "stimulus": "/static/audio/wordpool/RAFT.wav", "key_press": -1, "type": "PRES_AUD", "word": "raft", "wordID": 1158, "conditions": [18, 1200, "a", 18000], "trial": 0, "serialpos": 10, "trial_type": "single-audio", "trial_index": 31, "time_elapsed": 333012, "internal_node_id": "0.0-22.0"}}, {"uniqueid": "MTK0897:37TD41K0AIGOB504UGB812SP687CSJ", "current_trial": 32, "dateTime": 1512865691867, "trialdata": {"rt": -1000, "stimulus": "/static/audio/wordpool/PATIENT.wav", "key_press": -1, "type": "PRES_AUD", "word": "patient", "wordID": 1023, "conditions": [18, 1200, "a", 18000], "trial": 0, "serialpos": 11, "trial_type": "single-audio", "trial_index": 32, "time_elapsed": 335105, "internal_node_id": "0.0-23.0"}}, {"uniqueid": "MTK0897:37TD41K0AIGOB504UGB812SP687CSJ", "current_trial": 33, "dateTime": 1512865693923, "trialdata": {"rt": -1000, "stimulus": "/static/audio/wordpool/GRAPE.wav", "key_press": -1, "type": "PRES_AUD", "word": "grape", "wordID": 653, "conditions": [18, 1200, "a", 18000], "trial": 0, "serialpos": 12, "trial_type": "single-audio", "trial_index": 33, "time_elapsed": 337161, "internal_node_id": "0.0-24.0"}}, {"uniqueid": "MTK0897:37TD41K0AIGOB504UGB812SP687CSJ", "current_trial": 34, "dateTime": 1512865696111, "trialdata": {"rt": -1000, "stimulus": "/static/audio/wordpool/CAMEL.wav", "key_press": -1, "type": "PRES_AUD", "word": "camel", "wordID": 222, "conditions": [18, 1200, "a", 18000], "trial": 0, "serialpos": 13, "trial_type": "single-audio", "trial_index": 34, "time_elapsed": 339349, "internal_node_id": "0.0-25.0"}}, {"uniqueid": "MTK0897:37TD41K0AIGOB504UGB812SP687CSJ", "current_trial": 35, "dateTime": 1512865698509, "trialdata": {"rt": -1000, "stimulus": "/static/audio/wordpool/PLATE.wav", "key_press": -1, "type": "PRES_AUD", "word": "plate", "wordID": 1085, "conditions": [18, 1200, "a", 18000], "trial": 0, "serialpos": 14, "trial_type": "single-audio", "trial_index": 35, "time_elapsed": 341747, "internal_node_id": "0.0-26.0"}}, {"uniqueid": "MTK0897:37TD41K0AIGOB504UGB812SP687CSJ", "current_trial": 36, "dateTime": 1512865700890, "trialdata": {"rt": -1000, "stimulus": "/static/audio/wordpool/SILK.wav", "key_press": -1, "type": "PRES_AUD", "word": "silk", "wordID": 1306, "conditions": [18, 1200, "a", 18000], "trial": 0, "serialpos": 15, "trial_type": "single-audio", "trial_index": 36, "time_elapsed": 344128, "internal_node_id": "0.0-27.0"}}, {"uniqueid": "MTK0897:37TD41K0AIGOB504UGB812SP687CSJ", "current_trial": 37, "dateTime": 1512865703138, "trialdata": {"rt": -1000, "stimulus": "/static/audio/wordpool/BRANDY.wav", "key_press": -1, "type": "PRES_AUD", "word": "brandy", "wordID": 168, "conditions": [18, 1200, "a", 18000], "trial": 0, "serialpos": 16, "trial_type": "single-audio", "trial_index": 37, "time_elapsed": 346376, "internal_node_id": "0.0-28.0"}}, {"uniqueid": "MTK0897:37TD41K0AIGOB504UGB812SP687CSJ", "current_trial": 38, "dateTime": 1512865705527, "trialdata": {"rt": -1000, "stimulus": "/static/audio/wordpool/POSTAGE.wav", "key_press": -1, "type": "PRES_AUD", "word": "postage", "wordID": 1112, "conditions": [18, 1200, "a", 18000], "trial": 0, "serialpos": 17, "trial_type": "single-audio", "trial_index": 38, "time_elapsed": 348764, "internal_node_id": "0.0-29.0"}}, {"uniqueid": "MTK0897:37TD41K0AIGOB504UGB812SP687CSJ", "current_trial": 39, "dateTime": 1512865706815, "trialdata": {"rt": -1, "stimulus": "", "key_press": -1, "type": "PRE_RECALL_DELAY", "trial_type": "single-stim", "trial_index": 39, "time_elapsed": 350053, "internal_node_id": "0.0-30.0-0.0"}}, {"uniqueid": "MTK0897:37TD41K0AIGOB504UGB812SP687CSJ", "current_trial": 40, "dateTime": 1512865707317, "trialdata": {"rt": -1000, "stimulus": "/static/audio/400Hz.wav", "key_press": -1, "type": "PRE_RECALL_ALERT", "trial_type": "single-audio", "trial_index": 40, "time_elapsed": 350555, "internal_node_id": "0.0-31.0"}}, {"uniqueid": "MTK0897:37TD41K0AIGOB504UGB812SP687CSJ", "current_trial": 41, "dateTime": 1512865767324, "trialdata": {"rt": [3705, 3850, 6455, 8479, 8587, 11846, 14387, 16289, 18997, 22232, 27309, 30444, 38089, 47005, 47317, 47805, 47835, 47867, 47902, 47929, 47960, 47991, 52813], "recwords": ["postage", "", "table", "camel", "", "patient", "report", "table", "jungle", "daisy", "grape", "postage", "staple", "", "", "", "", "", "", "", "", "", "jungle"], "type": "FREE_RECALL", "conditions": [18, 1200, "a", 18000], "trial": 0, "trial_type": "free-recall", "trial_index": 41, "time_elapsed": 410559, "internal_node_id": "0.0-32.0-0.0"}}, {"uniqueid": "MTK0897:37TD41K0AIGOB504UGB812SP687CSJ", "current_trial": 42, "dateTime": 1512865772265, "trialdata": {"rt": 2939, "key_press": 32, "type": "INSTRUCTIONS", "trial_type": "text", "trial_index": 42, "time_elapsed": 415503, "internal_node_id": "0.0-33.0"}}, {"uniqueid": "MTK0897:37TD41K0AIGOB504UGB812SP687CSJ", "current_trial": 43, "dateTime": 1512865792270, "trialdata": {"rt": [3607, 7180, 12460, 15982], "responses": ["11", "17", "19", "23"], "num1": [7, 7, 9, 6, 8], "num2": [3, 8, 8, 8, 8], "num3": [1, 2, 3, 9, 1], "type": "DISTRACTOR", "conditions": [18, 1200, "v", 18000], "trial": 1, "trial_type": "math-distractor", "trial_index": 43, "time_elapsed": 435508, "internal_node_id": "0.0-34.0"}}, {"uniqueid": "MTK0897:37TD41K0AIGOB504UGB812SP687CSJ", "current_trial": 44, "dateTime": 1512865795273, "trialdata": {"rt": -1, "stimulus": "<p id=\"stim\">10</p>", "key_press": -1, "trial_type": "single-stim", "trial_index": 44, "time_elapsed": 438510, "internal_node_id": "0.0-35.0-0.0"}}, {"uniqueid": "MTK0897:37TD41K0AIGOB504UGB812SP687CSJ", "current_trial": 45, "dateTime": 1512865796275, "trialdata": {"rt": -1, "stimulus": "<p id=\"stim\">9</p>", "key_press": -1, "trial_type": "single-stim", "trial_index": 45, "time_elapsed": 439513, "internal_node_id": "0.0-35.0-1.0"}}, {"uniqueid": "MTK0897:37TD41K0AIGOB504UGB812SP687CSJ", "current_trial": 46, "dateTime": 1512865797279, "trialdata": {"rt": -1, "stimulus": "<p id=\"stim\">8</p>", "key_press": -1, "trial_type": "single-stim", "trial_index": 46, "time_elapsed": 440517, "internal_node_id": "0.0-35.0-2.0"}}, {"uniqueid": "MTK0897:37TD41K0AIGOB504UGB812SP687CSJ", "current_trial": 47, "dateTime": 1512865798281, "trialdata": {"rt": -1, "stimulus": "<p id=\"stim\">7</p>", "key_press": -1, "trial_type": "single-stim", "trial_index": 47, "time_elapsed": 441518, "internal_node_id": "0.0-35.0-3.0"}}, {"uniqueid": "MTK0897:37TD41K0AIGOB504UGB812SP687CSJ", "current_trial": 48, "dateTime": 1512865799282, "trialdata": {"rt": -1, "stimulus": "<p id=\"stim\">6</p>", "key_press": -1, "trial_type": "single-stim", "trial_index": 48, "time_elapsed": 442519, "internal_node_id": "0.0-35.0-4.0"}}, {"uniqueid": "MTK0897:37TD41K0AIGOB504UGB812SP687CSJ", "current_trial": 49, "dateTime": 1512865800283, "trialdata": {"rt": -1, "stimulus": "<p id=\"stim\">5</p>", "key_press": -1, "trial_type": "single-stim", "trial_index": 49, "time_elapsed": 443521, "internal_node_id": "0.0-35.0-5.0"}}, {"uniqueid": "MTK0897:37TD41K0AIGOB504UGB812SP687CSJ", "current_trial": 50, "dateTime": 1512865801285, "trialdata": {"rt": -1, "stimulus": "<p id=\"stim\">4</p>", "key_press": -1, "trial_type": "single-stim", "trial_index": 50, "time_elapsed": 444523, "internal_node_id": "0.0-35.0-6.0"}}, {"uniqueid": "MTK0897:37TD41K0AIGOB504UGB812SP687CSJ", "current_trial": 51, "dateTime": 1512865802289, "trialdata": {"rt": -1, "stimulus": "<p id=\"stim\">3</p>", "key_press": -1, "trial_type": "single-stim", "trial_index": 51, "time_elapsed": 445527, "internal_node_id": "0.0-35.0-7.0"}}, {"uniqueid": "MTK0897:37TD41K0AIGOB504UGB812SP687CSJ", "current_trial": 52, "dateTime": 1512865803291, "trialdata": {"rt": -1, "stimulus": "<p id=\"stim\">2</p>", "key_press": -1, "trial_type": "single-stim", "trial_index": 52, "time_elapsed": 446529, "internal_node_id": "0.0-35.0-8.0"}}, {"uniqueid": "MTK0897:37TD41K0AIGOB504UGB812SP687CSJ", "current_trial": 53, "dateTime": 1512865804292, "trialdata": {"rt": -1, "stimulus": "<p id=\"stim\">1</p>", "key_press": -1, "trial_type": "single-stim", "trial_index": 53, "time_elapsed": 447530, "internal_node_id": "0.0-35.0-9.0"}}, {"uniqueid": "MTK0897:37TD41K0AIGOB504UGB812SP687CSJ", "current_trial": 54, "dateTime": 1512865805795, "trialdata": {"rt": -1, "stimulus": "<p id=\"stim\">+</p>", "key_press": -1, "type": "FIXATION", "trial_type": "single-stim", "trial_index": 54, "time_elapsed": 449032, "internal_node_id": "0.0-36.0-0.0"}}, {"uniqueid": "MTK0897:37TD41K0AIGOB504UGB812SP687CSJ", "current_trial": 55, "dateTime": 1512865806995, "trialdata": {"rt": -1, "stimulus": "<p id=\"stim\">SCALLOP</p>", "key_press": -1, "type": "PRES_VIS", "word": "scallop", "wordID": 1241, "conditions": [18, 1200, "v", 18000], "trial": 1, "serialpos": 0, "trial_type": "single-stim", "trial_index": 55, "time_elapsed": 450233, "internal_node_id": "0.0-37.0"}}, {"uniqueid": "MTK0897:37TD41K0AIGOB504UGB812SP687CSJ", "current_trial": 56, "dateTime": 1512865809186, "trialdata": {"rt": -1, "stimulus": "<p id=\"stim\">CITRUS</p>", "key_press": -1, "type": "PRES_VIS", "word": "citrus", "wordID": 312, "conditions": [18, 1200, "v", 18000], "trial": 1, "serialpos": 1, "trial_type": "single-stim", "trial_index": 56, "time_elapsed": 452424, "internal_node_id": "0.0-38.0"}}, {"uniqueid": "MTK0897:37TD41K0AIGOB504UGB812SP687CSJ", "current_trial": 57, "dateTime": 1512865811536, "trialdata": {"rt": -1, "stimulus": "<p id=\"stim\">BLADE</p>", "key_press": -1, "type": "PRES_VIS", "word": "blade", "wordID": 133, "conditions": [18, 1200, "v", 18000], "trial": 1, "serialpos": 2, "trial_type": "single-stim", "trial_index": 57, "time_elapsed": 454773, "internal_node_id": "0.0-39.0"}}, {"uniqueid": "MTK0897:37TD41K0AIGOB504UGB812SP687CSJ", "current_trial": 58, "dateTime": 1512865813694, "trialdata": {"rt": -1, "stimulus": "<p id=\"stim\">FUNGUS</p>", "key_press": -1, "type": "PRES_VIS", "word": "fungus", "wordID": 613, "conditions": [18, 1200, "v", 18000], "trial": 1, "serialpos": 3, "trial_type": "single-stim", "trial_index": 58, "time_elapsed": 456932, "internal_node_id": "0.0-40.0"}}, {"uniqueid": "MTK0897:37TD41K0AIGOB504UGB812SP687CSJ", "current_trial": 59, "dateTime": 1512865815864, "trialdata": {"rt": -1, "stimulus": "<p id=\"stim\">CONVICT</p>", "key_press": -1, "type": "PRES_VIS", "word": "convict", "wordID": 370, "conditions": [18, 1200, "v", 18000], "trial": 1, "serialpos": 4, "trial_type": "single-stim", "trial_index": 59, "time_elapsed": 459102, "internal_node_id": "0.0-41.0"}}, {"uniqueid": "MTK0897:37TD41K0AIGOB504UGB812SP687CSJ", "current_trial": 60, "dateTime": 1512865817929, "trialdata": {"rt": -1, "stimulus": "<p id=\"stim\">REBEL</p>", "key_press": -1, "type": "PRES_VIS", "word": "rebel", "wordID": 1171, "conditions": [18, 1200, "v", 18000], "trial": 1, "serialpos": 5, "trial_type": "single-stim", "trial_index": 60, "time_elapsed": 461167, "internal_node_id": "0.0-42.0"}}, {"uniqueid": "MTK0897:37TD41K0AIGOB504UGB812SP687CSJ", "current_trial": 61, "dateTime": 1512865819942, "trialdata": {"rt": -1, "stimulus": "<p id=\"stim\">SISTER</p>", "key_press": -1, "type": "PRES_VIS", "word": "sister", "wordID": 1311, "conditions": [18, 1200, "v", 18000], "trial": 1, "serialpos": 6, "trial_type": "single-stim", "trial_index": 61, "time_elapsed": 463180, "internal_node_id": "0.0-43.0"}}, {"uniqueid": "MTK0897:37TD41K0AIGOB504UGB812SP687CSJ", "current_trial": 62, "dateTime": 1512865822164, "trialdata": {"rt": -1, "stimulus": "<p id=\"stim\">CASHEW</p>", "key_press": -1, "type": "PRES_VIS", "word": "cashew", "wordID": 252, "conditions": [18, 1200, "v", 18000], "trial": 1, "serialpos": 7, "trial_type": "single-stim", "trial_index": 62, "time_elapsed": 465402, "internal_node_id": "0.0-44.0"}}, {"uniqueid": "MTK0897:37TD41K0AIGOB504UGB812SP687CSJ", "current_trial": 63, "dateTime": 1512865824554, "trialdata": {"rt": -1, "stimulus": "<p id=\"stim\">COMPASS</p>", "key_press": -1, "type": "PRES_VIS", "word": "compass", "wordID": 357, "conditions": [18, 1200, "v", 18000], "trial": 1, "serialpos": 8, "trial_type": "single-stim", "trial_index": 63, "time_elapsed": 467791, "internal_node_id": "0.0-45.0"}}, {"uniqueid": "MTK0897:37TD41K0AIGOB504UGB812SP687CSJ", "current_trial": 64, "dateTime": 1512865826610, "trialdata": {"rt": -1, "stimulus": "<p id=\"stim\">DASHBOARD</p>", "key_press": -1, "type": "PRES_VIS", "word": "dashboard", "wordID": 440, "conditions": [18, 1200, "v", 18000], "trial": 1, "serialpos": 9, "trial_type": "single-stim", "trial_index": 64, "time_elapsed": 469847, "internal_node_id": "0.0-46.0"}}, {"uniqueid": "MTK0897:37TD41K0AIGOB504UGB812SP687CSJ", "current_trial": 65, "dateTime": 1512865828623, "trialdata": {"rt": -1, "stimulus": "<p id=\"stim\">BADGE</p>", "key_press": -1, "type": "PRES_VIS", "word": "badge", "wordID": 67, "conditions": [18, 1200, "v", 18000], "trial": 1, "serialpos": 10, "trial_type": "single-stim", "trial_index": 65, "time_elapsed": 471860, "internal_node_id": "0.0-47.0"}}, {"uniqueid": "MTK0897:37TD41K0AIGOB504UGB812SP687CSJ", "current_trial": 66, "dateTime": 1512865830887, "trialdata": {"rt": -1, "stimulus": "<p id=\"stim\">GLASS</p>", "key_press": -1, "type": "PRES_VIS", "word": "glass", "wordID": 638, "conditions": [18, 1200, "v", 18000], "trial": 1, "serialpos": 11, "trial_type": "single-stim", "trial_index": 66, "time_elapsed": 474125, "internal_node_id": "0.0-48.0"}}, {"uniqueid": "MTK0897:37TD41K0AIGOB504UGB812SP687CSJ", "current_trial": 67, "dateTime": 1512865833032, "trialdata": {"rt": -1, "stimulus": "<p id=\"stim\">WHISTLE</p>", "key_press": -1, "type": "PRES_VIS", "word": "whistle", "wordID": 1605, "conditions": [18, 1200, "v", 18000], "trial": 1, "serialpos": 12, "trial_type": "single-stim", "trial_index": 67, "time_elapsed": 476270, "internal_node_id": "0.0-49.0"}}, {"uniqueid": "MTK0897:37TD41K0AIGOB504UGB812SP687CSJ", "current_trial": 68, "dateTime": 1512865835411, "trialdata": {"rt": -1, "stimulus": "<p id=\"stim\">SHORTCAKE</p>", "key_press": -1, "type": "PRES_VIS", "word": "shortcake", "wordID": 1291, "conditions": [18, 1200, "v", 18000], "trial": 1, "serialpos": 13, "trial_type": "single-stim", "trial_index": 68, "time_elapsed": 478645, "internal_node_id": "0.0-50.0"}}, {"uniqueid": "MTK0897:37TD41K0AIGOB504UGB812SP687CSJ", "current_trial": 69, "dateTime": 1512865837531, "trialdata": {"rt": -1, "stimulus": "<p id=\"stim\">LEG</p>", "key_press": -1, "type": "PRES_VIS", "word": "leg", "wordID": 808, "conditions": [18, 1200, "v", 18000], "trial": 1, "serialpos": 14, "trial_type": "single-stim", "trial_index": 69, "time_elapsed": 480769, "internal_node_id": "0.0-51.0"}}, {"uniqueid": "MTK0897:37TD41K0AIGOB504UGB812SP687CSJ", "current_trial": 70, "dateTime": 1512865839745, "trialdata": {"rt": -1, "stimulus": "<p id=\"stim\">JOURNAL</p>", "key_press": -1, "type": "PRES_VIS", "word": "journal", "wordID": 759, "conditions": [18, 1200, "v", 18000], "trial": 1, "serialpos": 15, "trial_type": "single-stim", "trial_index": 70, "time_elapsed": 482982, "internal_node_id": "0.0-52.0"}}, {"uniqueid": "MTK0897:37TD41K0AIGOB504UGB812SP687CSJ", "current_trial": 71, "dateTime": 1512865842144, "trialdata": {"rt": -1, "stimulus": "<p id=\"stim\">SHORTS</p>", "key_press": -1, "type": "PRES_VIS", "word": "shorts", "wordID": 1292, "conditions": [18, 1200, "v", 18000], "trial": 1, "serialpos": 16, "trial_type": "single-stim", "trial_index": 71, "time_elapsed": 485379, "internal_node_id": "0.0-53.0"}}, {"uniqueid": "MTK0897:37TD41K0AIGOB504UGB812SP687CSJ", "current_trial": 72, "dateTime": 1512865844210, "trialdata": {"rt": -1, "stimulus": "<p id=\"stim\">HELMET</p>", "key_press": -1, "type": "PRES_VIS", "word": "helmet", "wordID": 701, "conditions": [18, 1200, "v", 18000], "trial": 1, "serialpos": 17, "trial_type": "single-stim", "trial_index": 72, "time_elapsed": 487447, "internal_node_id": "0.0-54.0"}}, {"uniqueid": "MTK0897:37TD41K0AIGOB504UGB812SP687CSJ", "current_trial": 73, "dateTime": 1512865846587, "trialdata": {"rt": -1, "stimulus": "", "key_press": -1, "type": "PRE_RECALL_DELAY", "trial_type": "single-stim", "trial_index": 73, "time_elapsed": 489825, "internal_node_id": "0.0-55.0-0.0"}}, {"uniqueid": "MTK0897:37TD41K0AIGOB504UGB812SP687CSJ", "current_trial": 74, "dateTime": 1512865847088, "trialdata": {"rt": -1000, "stimulus": "/static/audio/400Hz.wav", "key_press": -1, "type": "PRE_RECALL_ALERT", "trial_type": "single-audio", "trial_index": 74, "time_elapsed": 490326, "internal_node_id": "0.0-56.0"}}, {"uniqueid": "MTK0897:37TD41K0AIGOB504UGB812SP687CSJ", "current_trial": 75, "dateTime": 1512865907095, "trialdata": {"rt": [2875, 3001, 6378, 11617, 24663, 38382, 47076, 54783], "recwords": ["helmet", "", "sister", "scallop", "bandage", "helmet", "fungus", "citrus"], "type": "FREE_RECALL", "conditions": [18, 1200, "v", 18000], "trial": 1, "trial_type": "free-recall", "trial_index": 75, "time_elapsed": 550331, "internal_node_id": "0.0-57.0-0.0"}}, {"uniqueid": "MTK0897:37TD41K0AIGOB504UGB812SP687CSJ", "current_trial": 76, "dateTime": 1512865912502, "trialdata": {"rt": 3400, "key_press": 32, "type": "INSTRUCTIONS", "trial_type": "text", "trial_index": 76, "time_elapsed": 555736, "internal_node_id": "0.0-58.0"}}, {"uniqueid": "MTK0897:37TD41K0AIGOB504UGB812SP687CSJ", "current_trial": 77, "dateTime": 1512865925507, "trialdata": {"rt": [2883, 5303, 7301, 9584], "responses": ["17", "13", "17", "10"], "num1": [5, 3, 7, 2, 7], "num2": [5, 7, 5, 3, 2], "num3": [7, 3, 5, 5, 6], "type": "DISTRACTOR", "conditions": [12, 800, "v", 12000], "trial": 2, "trial_type": "math-distractor", "trial_index": 77, "time_elapsed": 568745, "internal_node_id": "0.0-59.0"}}, {"uniqueid": "MTK0897:37TD41K0AIGOB504UGB812SP687CSJ", "current_trial": 78, "dateTime": 1512865928509, "trialdata": {"rt": -1, "stimulus": "<p id=\"stim\">10</p>", "key_press": -1, "trial_type": "single-stim", "trial_index": 78, "time_elapsed": 571747, "internal_node_id": "0.0-60.0-0.0"}}, {"uniqueid": "MTK0897:37TD41K0AIGOB504UGB812SP687CSJ", "current_trial": 79, "dateTime": 1512865929512, "trialdata": {"rt": -1, "stimulus": "<p id=\"stim\">9</p>", "key_press": -1, "trial_type": "single-stim", "trial_index": 79, "time_elapsed": 572750, "internal_node_id": "0.0-60.0-1.0"}}, {"uniqueid": "MTK0897:37TD41K0AIGOB504UGB812SP687CSJ", "current_trial": 80, "dateTime": 1512865930512, "trialdata": {"rt": -1, "stimulus": "<p id=\"stim\">8</p>", "key_press": -1, "trial_type": "single-stim", "trial_index": 80, "time_elapsed": 573750, "internal_node_id": "0.0-60.0-2.0"}}, {"uniqueid": "MTK0897:37TD41K0AIGOB504UGB812SP687CSJ", "current_trial": 81, "dateTime": 1512865931515, "trialdata": {"rt": -1, "stimulus": "<p id=\"stim\">7</p>", "key_press": -1, "trial_type": "single-stim", "trial_index": 81, "time_elapsed": 574752, "internal_node_id": "0.0-60.0-3.0"}}, {"uniqueid": "MTK0897:37TD41K0AIGOB504UGB812SP687CSJ", "current_trial": 82, "dateTime": 1512865932517, "trialdata": {"rt": -1, "stimulus": "<p id=\"stim\">6</p>", "key_press": -1, "trial_type": "single-stim", "trial_index": 82, "time_elapsed": 575755, "internal_node_id": "0.0-60.0-4.0"}}, {"uniqueid": "MTK0897:37TD41K0AIGOB504UGB812SP687CSJ", "current_trial": 83, "dateTime": 1512865933519, "trialdata": {"rt": -1, "stimulus": "<p id=\"stim\">5</p>", "key_press": -1, "trial_type": "single-stim", "trial_index": 83, "time_elapsed": 576757, "internal_node_id": "0.0-60.0-5.0"}}, {"uniqueid": "MTK0897:37TD41K0AIGOB504UGB812SP687CSJ", "current_trial": 84, "dateTime": 1512865934521, "trialdata": {"rt": -1, "stimulus": "<p id=\"stim\">4</p>", "key_press": -1, "trial_type": "single-stim", "trial_index": 84, "time_elapsed": 577759, "internal_node_id": "0.0-60.0-6.0"}}, {"uniqueid": "MTK0897:37TD41K0AIGOB504UGB812SP687CSJ", "current_trial": 85, "dateTime": 1512865935523, "trialdata": {"rt": -1, "stimulus": "<p id=\"stim\">3</p>", "key_press": -1, "trial_type": "single-stim", "trial_index": 85, "time_elapsed": 578761, "internal_node_id": "0.0-60.0-7.0"}}, {"uniqueid": "MTK0897:37TD41K0AIGOB504UGB812SP687CSJ", "current_trial": 86, "dateTime": 1512865936525, "trialdata": {"rt": -1, "stimulus": "<p id=\"stim\">2</p>", "key_press": -1, "trial_type": "single-stim", "trial_index": 86, "time_elapsed": 579763, "internal_node_id": "0.0-60.0-8.0"}}, {"uniqueid": "MTK0897:37TD41K0AIGOB504UGB812SP687CSJ", "current_trial": 87, "dateTime": 1512865937527, "trialdata": {"rt": -1, "stimulus": "<p id=\"stim\">1</p>", "key_press": -1, "trial_type": "single-stim", "trial_index": 87, "time_elapsed": 580765, "internal_node_id": "0.0-60.0-9.0"}}, {"uniqueid": "MTK0897:37TD41K0AIGOB504UGB812SP687CSJ", "current_trial": 88, "dateTime": 1512865939030, "trialdata": {"rt": -1, "stimulus": "<p id=\"stim\">+</p>", "key_press": -1, "type": "FIXATION", "trial_type": "single-stim", "trial_index": 88, "time_elapsed": 582268, "internal_node_id": "0.0-61.0-0.0"}}, {"uniqueid": "MTK0897:37TD41K0AIGOB504UGB812SP687CSJ", "current_trial": 89, "dateTime": 1512865939832, "trialdata": {"rt": -1, "stimulus": "<p id=\"stim\">CANAL</p>", "key_press": -1, "type": "PRES_VIS", "word": "canal", "wordID": 225, "conditions": [12, 800, "v", 12000], "trial": 2, "serialpos": 0, "trial_type": "single-stim", "trial_index": 89, "time_elapsed": 583069, "internal_node_id": "0.0-62.0"}}, {"uniqueid": "MTK0897:37TD41K0AIGOB504UGB812SP687CSJ", "current_trial": 90, "dateTime": 1512865941658, "trialdata": {"rt": -1, "stimulus": "<p id=\"stim\">KIDNEY</p>", "key_press": -1, "type": "PRES_VIS", "word": "kidney", "wordID": 775, "conditions": [12, 800, "v", 12000], "trial": 2, "serialpos": 1, "trial_type": "single-stim", "trial_index": 90, "time_elapsed": 584896, "internal_node_id": "0.0-63.0"}}, {"uniqueid": "MTK0897:37TD41K0AIGOB504UGB812SP687CSJ", "current_trial": 91, "dateTime": 1512865943280, "trialdata": {"rt": -1, "stimulus": "<p id=\"stim\">PORTRAIT</p>", "key_press": -1, "type": "PRES_VIS", "word": "portrait", "wordID": 1110, "conditions": [12, 800, "v", 12000], "trial": 2, "serialpos": 2, "trial_type": "single-stim", "trial_index": 91, "time_elapsed": 586518, "internal_node_id": "0.0-64.0"}}, {"uniqueid": "MTK0897:37TD41K0AIGOB504UGB812SP687CSJ", "current_trial": 92, "dateTime": 1512865945159, "trialdata": {"rt": -1, "stimulus": "<p id=\"stim\">PICTURE</p>", "key_press": -1, "type": "PRES_VIS", "word": "picture", "wordID": 1060, "conditions": [12, 800, "v", 12000], "trial": 2, "serialpos": 3, "trial_type": "single-stim", "trial_index": 92, "time_elapsed": 588397, "internal_node_id": "0.0-65.0"}}, {"uniqueid": "MTK0897:37TD41K0AIGOB504UGB812SP687CSJ", "current_trial": 93, "dateTime": 1512865946826, "trialdata": {"rt": -1, "stimulus": "<p id=\"stim\">MARROW</p>", "key_press": -1, "type": "PRES_VIS", "word": "marrow", "wordID": 871, "conditions": [12, 800, "v", 12000], "trial": 2, "serialpos": 4, "trial_type": "single-stim", "trial_index": 93, "time_elapsed": 590064, "internal_node_id": "0.0-66.0"}}, {"uniqueid": "MTK0897:37TD41K0AIGOB504UGB812SP687CSJ", "current_trial": 94, "dateTime": 1512865948783, "trialdata": {"rt": -1, "stimulus": "<p id=\"stim\">EGYPT</p>", "key_press": -1, "type": "PRES_VIS", "word": "egypt", "wordID": 518, "conditions": [12, 800, "v", 12000], "trial": 2, "serialpos": 5, "trial_type": "single-stim", "trial_index": 94, "time_elapsed": 592021, "internal_node_id": "0.0-67.0"}}, {"uniqueid": "MTK0897:37TD41K0AIGOB504UGB812SP687CSJ", "current_trial": 95, "dateTime": 1512865950639, "trialdata": {"rt": -1, "stimulus": "<p id=\"stim\">PIMPLE</p>", "key_press": -1, "type": "PRES_VIS", "word": "pimple", "wordID": 1070, "conditions": [12, 800, "v", 12000], "trial": 2, "serialpos": 6, "trial_type": "single-stim", "trial_index": 95, "time_elapsed": 593876, "internal_node_id": "0.0-68.0"}}, {"uniqueid": "MTK0897:37TD41K0AIGOB504UGB812SP687CSJ", "current_trial": 96, "dateTime": 1512865952457, "trialdata": {"rt": -1, "stimulus": "<p id=\"stim\">APPLE</p>", "key_press": -1, "type": "PRES_VIS", "word": "apple", "wordID": 32, "conditions": [12, 800, "v", 12000], "trial": 2, "serialpos": 7, "trial_type": "single-stim", "trial_index": 96, "time_elapsed": 595695, "internal_node_id": "0.0-69.0"}}, {"uniqueid": "MTK0897:37TD41K0AIGOB504UGB812SP687CSJ", "current_trial": 97, "dateTime": 1512865954322, "trialdata": {"rt": -1, "stimulus": "<p id=\"stim\">PASSAGE</p>", "key_press": -1, "type": "PRES_VIS", "word": "passage", "wordID": 1018, "conditions": [12, 800, "v", 12000], "trial": 2, "serialpos": 8, "trial_type": "single-stim", "trial_index": 97, "time_elapsed": 597559, "internal_node_id": "0.0-70.0"}}, {"uniqueid": "MTK0897:37TD41K0AIGOB504UGB812SP687CSJ", "current_trial": 98, "dateTime": 1512865956126, "trialdata": {"rt": -1, "stimulus": "<p id=\"stim\">ACTOR</p>", "key_press": -1, "type": "PRES_VIS", "word": "actor", "wordID": 4, "conditions": [12, 800, "v", 12000], "trial": 2, "serialpos": 9, "trial_type": "single-stim", "trial_index": 98, "time_elapsed": 599364, "internal_node_id": "0.0-71.0"}}, {"uniqueid": "MTK0897:37TD41K0AIGOB504UGB812SP687CSJ", "current_trial": 99, "dateTime": 1512865957775, "trialdata": {"rt": -1, "stimulus": "<p id=\"stim\">BROTHER</p>", "key_press": -1, "type": "PRES_VIS", "word": "brother", "wordID": 178, "conditions": [12, 800, "v", 12000], "trial": 2, "serialpos": 10, "trial_type": "single-stim", "trial_index": 99, "time_elapsed": 601011, "internal_node_id": "0.0-72.0"}}, {"uniqueid": "MTK0897:37TD41K0AIGOB504UGB812SP687CSJ", "current_trial": 100, "dateTime": 1512865959676, "trialdata": {"rt": -1, "stimulus": "<p id=\"stim\">MASK</p>", "key_press": -1, "type": "PRES_VIS", "word": "mask", "wordID": 875, "conditions": [12, 800, "v", 12000], "trial": 2, "serialpos": 11, "trial_type": "single-stim", "trial_index": 100, "time_elapsed": 602914, "internal_node_id": "0.0-73.0"}}, {"uniqueid": "MTK0897:37TD41K0AIGOB504UGB812SP687CSJ", "current_trial": 101, "dateTime": 1512865961884, "trialdata": {"rt": -1, "stimulus": "", "key_press": -1, "type": "PRE_RECALL_DELAY", "trial_type": "single-stim", "trial_index": 101, "time_elapsed": 605121, "internal_node_id": "0.0-74.0-0.0"}}, {"uniqueid": "MTK0897:37TD41K0AIGOB504UGB812SP687CSJ", "current_trial": 102, "dateTime": 1512865962386, "trialdata": {"rt": -1000, "stimulus": "/static/audio/400Hz.wav", "key_press": -1, "type": "PRE_RECALL_ALERT", "trial_type": "single-audio", "trial_index": 102, "time_elapsed": 605624, "internal_node_id": "0.0-75.0"}}, {"uniqueid": "MTK0897:37TD41K0AIGOB504UGB812SP687CSJ", "current_trial": 103, "dateTime": 1512866022397, "trialdata": {"rt": [2810, 5219, 7515, 10930, 16677, 19325], "recwords": ["mask", "brother", "egypt", "canal", "kidney", ""], "type": "FREE_RECALL", "conditions": [12, 800, "v", 12000], "trial": 2, "trial_type": "free-recall", "trial_index": 103, "time_elapsed": 665630, "internal_node_id": "0.0-76.0-0.0"}}, {"uniqueid": "MTK0897:37TD41K0AIGOB504UGB812SP687CSJ", "current_trial": 104, "dateTime": 1512866040395, "trialdata": {"rt": 15997, "key_press": 32, "type": "INSTRUCTIONS", "trial_type": "text", "trial_index": 104, "time_elapsed": 683633, "internal_node_id": "0.0-77.0"}}, {"uniqueid": "MTK0897:37TD41K0AIGOB504UGB812SP687CSJ", "current_trial": 105, "dateTime": 1512866066400, "trialdata": {"rt": [3790, 5939, 7583, 11492, 14750, 17489, 21753], "responses": ["24", "16", "14", "17", "9", "14", "20"], "num1": [8, 7, 4, 5, 3, 1, 7, 2], "num2": [8, 1, 4, 3, 4, 4, 4, 5], "num3": [8, 8, 6, 8, 2, 9, 9, 6], "type": "DISTRACTOR", "conditions": [24, 800, "a", 24000], "trial": 3, "trial_type": "math-distractor", "trial_index": 105, "time_elapsed": 709638, "internal_node_id": "0.0-78.0"}}, {"uniqueid": "MTK0897:37TD41K0AIGOB504UGB812SP687CSJ", "current_trial": 106, "dateTime": 1512866069403, "trialdata": {"rt": -1, "stimulus": "<p id=\"stim\">10</p>", "key_press": -1, "trial_type": "single-stim", "trial_index": 106, "time_elapsed": 712641, "internal_node_id": "0.0-79.0-0.0"}}, {"uniqueid": "MTK0897:37TD41K0AIGOB504UGB812SP687CSJ", "current_trial": 107, "dateTime": 1512866070405, "trialdata": {"rt": -1, "stimulus": "<p id=\"stim\">9</p>", "key_press": -1, "trial_type": "single-stim", "trial_index": 107, "time_elapsed": 713643, "internal_node_id": "0.0-79.0-1.0"}}, {"uniqueid": "MTK0897:37TD41K0AIGOB504UGB812SP687CSJ", "current_trial": 108, "dateTime": 1512866071408, "trialdata": {"rt": -1, "stimulus": "<p id=\"stim\">8</p>", "key_press": -1, "trial_type": "single-stim", "trial_index": 108, "time_elapsed": 714645, "internal_node_id": "0.0-79.0-2.0"}}, {"uniqueid": "MTK0897:37TD41K0AIGOB504UGB812SP687CSJ", "current_trial": 109, "dateTime": 1512866072410, "trialdata": {"rt": -1, "stimulus": "<p id=\"stim\">7</p>", "key_press": -1, "trial_type": "single-stim", "trial_index": 109, "time_elapsed": 715647, "internal_node_id": "0.0-79.0-3.0"}}, {"uniqueid": "MTK0897:37TD41K0AIGOB504UGB812SP687CSJ", "current_trial": 110, "dateTime": 1512866073413, "trialdata": {"rt": -1, "stimulus": "<p id=\"stim\">6</p>", "key_press": -1, "trial_type": "single-stim", "trial_index": 110, "time_elapsed": 716650, "internal_node_id": "0.0-79.0-4.0"}}, {"uniqueid": "MTK0897:37TD41K0AIGOB504UGB812SP687CSJ", "current_trial": 111, "dateTime": 1512866074416, "trialdata": {"rt": -1, "stimulus": "<p id=\"stim\">5</p>", "key_press": -1, "trial_type": "single-stim", "trial_index": 111, "time_elapsed": 717653, "internal_node_id": "0.0-79.0-5.0"}}, {"uniqueid": "MTK0897:37TD41K0AIGOB504UGB812SP687CSJ", "current_trial": 112, "dateTime": 1512866075417, "trialdata": {"rt": -1, "stimulus": "<p id=\"stim\">4</p>", "key_press": -1, "trial_type": "single-stim", "trial_index": 112, "time_elapsed": 718654, "internal_node_id": "0.0-79.0-6.0"}}, {"uniqueid": "MTK0897:37TD41K0AIGOB504UGB812SP687CSJ", "current_trial": 113, "dateTime": 1512866076419, "trialdata": {"rt": -1, "stimulus": "<p id=\"stim\">3</p>", "key_press": -1, "trial_type": "single-stim", "trial_index": 113, "time_elapsed": 719657, "internal_node_id": "0.0-79.0-7.0"}}, {"uniqueid": "MTK0897:37TD41K0AIGOB504UGB812SP687CSJ", "current_trial": 114, "dateTime": 1512866077421, "trialdata": {"rt": -1, "stimulus": "<p id=\"stim\">2</p>", "key_press": -1, "trial_type": "single-stim", "trial_index": 114, "time_elapsed": 720659, "internal_node_id": "0.0-79.0-8.0"}}, {"uniqueid": "MTK0897:37TD41K0AIGOB504UGB812SP687CSJ", "current_trial": 115, "dateTime": 1512866078425, "trialdata": {"rt": -1, "stimulus": "<p id=\"stim\">1</p>", "key_press": -1, "trial_type": "single-stim", "trial_index": 115, "time_elapsed": 721662, "internal_node_id": "0.0-79.0-9.0"}}, {"uniqueid": "MTK0897:37TD41K0AIGOB504UGB812SP687CSJ", "current_trial": 116, "dateTime": 1512866079928, "trialdata": {"rt": -1, "stimulus": "<p id=\"stim\">+</p>", "key_press": -1, "type": "FIXATION", "trial_type": "single-stim", "trial_index": 116, "time_elapsed": 723166, "internal_node_id": "0.0-80.0-0.0"}}, {"uniqueid": "MTK0897:37TD41K0AIGOB504UGB812SP687CSJ", "current_trial": 117, "dateTime": 1512866081675, "trialdata": {"rt": -1000, "stimulus": "/static/audio/wordpool/ROBOT.wav", "key_press": -1, "type": "PRES_AUD", "word": "robot", "wordID": 1199, "conditions": [24, 800, "a", 24000], "trial": 3, "serialpos": 0, "trial_type": "single-audio", "trial_index": 117, "time_elapsed": 724912, "internal_node_id": "0.0-81.0"}}, {"uniqueid": "MTK0897:37TD41K0AIGOB504UGB812SP687CSJ", "current_trial": 118, "dateTime": 1512866083605, "trialdata": {"rt": -1000, "stimulus": "/static/audio/wordpool/SHRUB.wav", "key_press": -1, "type": "PRES_AUD", "word": "shrub", "wordID": 1298, "conditions": [24, 800, "a", 24000], "trial": 3, "serialpos": 1, "trial_type": "single-audio", "trial_index": 118, "time_elapsed": 726843, "internal_node_id": "0.0-82.0"}}, {"uniqueid": "MTK0897:37TD41K0AIGOB504UGB812SP687CSJ", "current_trial": 119, "dateTime": 1512866085254, "trialdata": {"rt": -1000, "stimulus": "/static/audio/wordpool/GARDEN.wav", "key_press": -1, "type": "PRES_AUD", "word": "garden", "wordID": 622, "conditions": [24, 800, "a", 24000], "trial": 3, "serialpos": 2, "trial_type": "single-audio", "trial_index": 119, "time_elapsed": 728492, "internal_node_id": "0.0-83.0"}}, {"uniqueid": "MTK0897:37TD41K0AIGOB504UGB812SP687CSJ", "current_trial": 120, "dateTime": 1512866087103, "trialdata": {"rt": -1000, "stimulus": "/static/audio/wordpool/APRON.wav", "key_press": -1, "type": "PRES_AUD", "word": "apron", "wordID": 34, "conditions": [24, 800, "a", 24000], "trial": 3, "serialpos": 3, "trial_type": "single-audio", "trial_index": 120, "time_elapsed": 730341, "internal_node_id": "0.0-84.0"}}, {"uniqueid": "MTK0897:37TD41K0AIGOB504UGB812SP687CSJ", "current_trial": 121, "dateTime": 1512866088840, "trialdata": {"rt": -1000, "stimulus": "/static/audio/wordpool/JAPAN.wav", "key_press": -1, "type": "PRES_AUD", "word": "japan", "wordID": 748, "conditions": [24, 800, "a", 24000], "trial": 3, "serialpos": 4, "trial_type": "single-audio", "trial_index": 121, "time_elapsed": 732078, "internal_node_id": "0.0-85.0"}}, {"uniqueid": "MTK0897:37TD41K0AIGOB504UGB812SP687CSJ", "current_trial": 122, "dateTime": 1512866090791, "trialdata": {"rt": -1000, "stimulus": "/static/audio/wordpool/TRACTOR.wav", "key_press": -1, "type": "PRES_AUD", "word": "tractor", "wordID": 1492, "conditions": [24, 800, "a", 24000], "trial": 3, "serialpos": 5, "trial_type": "single-audio", "trial_index": 122, "time_elapsed": 734029, "internal_node_id": "0.0-86.0"}}, {"uniqueid": "MTK0897:37TD41K0AIGOB504UGB812SP687CSJ", "current_trial": 123, "dateTime": 1512866092530, "trialdata": {"rt": -1000, "stimulus": "/static/audio/wordpool/STAMP.wav", "key_press": -1, "type": "PRES_AUD", "word": "stamp", "wordID": 1369, "conditions": [24, 800, "a", 24000], "trial": 3, "serialpos": 6, "trial_type": "single-audio", "trial_index": 123, "time_elapsed": 735768, "internal_node_id": "0.0-87.0"}}, {"uniqueid": "MTK0897:37TD41K0AIGOB504UGB812SP687CSJ", "current_trial": 124, "dateTime": 1512866094371, "trialdata": {"rt": -1000, "stimulus": "/static/audio/wordpool/DRAGON.wav", "key_press": -1, "type": "PRES_AUD", "word": "dragon", "wordID": 491, "conditions": [24, 800, "a", 24000], "trial": 3, "serialpos": 7, "trial_type": "single-audio", "trial_index": 124, "time_elapsed": 737609, "internal_node_id": "0.0-88.0"}}, {"uniqueid": "MTK0897:37TD41K0AIGOB504UGB812SP687CSJ", "current_trial": 125, "dateTime": 1512866096046, "trialdata": {"rt": -1000, "stimulus": "/static/audio/wordpool/ISLAND.wav", "key_press": -1, "type": "PRES_AUD", "word": "island", "wordID": 744, "conditions": [24, 800, "a", 24000], "trial": 3, "serialpos": 8, "trial_type": "single-audio", "trial_index": 125, "time_elapsed": 739284, "internal_node_id": "0.0-89.0"}}, {"uniqueid": "MTK0897:37TD41K0AIGOB504UGB812SP687CSJ", "current_trial": 126, "dateTime": 1512866097898, "trialdata": {"rt": -1000, "stimulus": "/static/audio/wordpool/WAGON.wav", "key_press": -1, "type": "PRES_AUD", "word": "wagon", "wordID": 1577, "conditions": [24, 800, "a", 24000], "trial": 3, "serialpos": 9, "trial_type": "single-audio", "trial_index": 126, "time_elapsed": 741136, "internal_node_id": "0.0-90.0"}}, {"uniqueid": "MTK0897:37TD41K0AIGOB504UGB812SP687CSJ", "current_trial": 127, "dateTime": 1512866099855, "trialdata": {"rt": -1000, "stimulus": "/static/audio/wordpool/ROBBER.wav", "key_press": -1, "type": "PRES_AUD", "word": "robber", "wordID": 1196, "conditions": [24, 800, "a", 24000], "trial": 3, "serialpos": 10, "trial_type": "single-audio", "trial_index": 127, "time_elapsed": 743093, "internal_node_id": "0.0-91.0"}}, {"uniqueid": "MTK0897:37TD41K0AIGOB504UGB812SP687CSJ", "current_trial": 128, "dateTime": 1512866101849, "trialdata": {"rt": -1000, "stimulus": "/static/audio/wordpool/HATCHET.wav", "key_press": -1, "type": "PRES_AUD", "word": "hatchet", "wordID": 690, "conditions": [24, 800, "a", 24000], "trial": 3, "serialpos": 11, "trial_type": "single-audio", "trial_index": 128, "time_elapsed": 745087, "internal_node_id": "0.0-92.0"}}, {"uniqueid": "MTK0897:37TD41K0AIGOB504UGB812SP687CSJ", "current_trial": 129, "dateTime": 1512866103767, "trialdata": {"rt": -1000, "stimulus": "/static/audio/wordpool/SKILLET.wav", "key_press": -1, "type": "PRES_AUD", "word": "skillet", "wordID": 1316, "conditions": [24, 800, "a", 24000], "trial": 3, "serialpos": 12, "trial_type": "single-audio", "trial_index": 129, "time_elapsed": 747004, "internal_node_id": "0.0-93.0"}}, {"uniqueid": "MTK0897:37TD41K0AIGOB504UGB812SP687CSJ", "current_trial": 130, "dateTime": 1512866105627, "trialdata": {"rt": -1000, "stimulus": "/static/audio/wordpool/GRILL.wav", "key_press": -1, "type": "PRES_AUD", "word": "grill", "wordID": 660, "conditions": [24, 800, "a", 24000], "trial": 3, "serialpos": 13, "trial_type": "single-audio", "trial_index": 130, "time_elapsed": 748865, "internal_node_id": "0.0-94.0"}}, {"uniqueid": "MTK0897:37TD41K0AIGOB504UGB812SP687CSJ", "current_trial": 131, "dateTime": 1512866107547, "trialdata": {"rt": -1000, "stimulus": "/static/audio/wordpool/BARREL.wav", "key_press": -1, "type": "PRES_AUD", "word": "barrel", "wordID": 90, "conditions": [24, 800, "a", 24000], "trial": 3, "serialpos": 14, "trial_type": "single-audio", "trial_index": 131, "time_elapsed": 750785, "internal_node_id": "0.0-95.0"}}, {"uniqueid": "MTK0897:37TD41K0AIGOB504UGB812SP687CSJ", "current_trial": 132, "dateTime": 1512866109542, "trialdata": {"rt": -1000, "stimulus": "/static/audio/wordpool/TURKEY.wav", "key_press": -1, "type": "PRES_AUD", "word": "turkey", "wordID": 1519, "conditions": [24, 800, "a", 24000], "trial": 3, "serialpos": 15, "trial_type": "single-audio", "trial_index": 132, "time_elapsed": 752780, "internal_node_id": "0.0-96.0"}}, {"uniqueid": "MTK0897:37TD41K0AIGOB504UGB812SP687CSJ", "current_trial": 133, "dateTime": 1512866111456, "trialdata": {"rt": -1000, "stimulus": "/static/audio/wordpool/LASER.wav", "key_press": -1, "type": "PRES_AUD", "word": "laser", "wordID": 800, "conditions": [24, 800, "a", 24000], "trial": 3, "serialpos": 16, "trial_type": "single-audio", "trial_index": 133, "time_elapsed": 754694, "internal_node_id": "0.0-97.0"}}, {"uniqueid": "MTK0897:37TD41K0AIGOB504UGB812SP687CSJ", "current_trial": 134, "dateTime": 1512866113072, "trialdata": {"rt": -1000, "stimulus": "/static/audio/wordpool/CRITIC.wav", "key_press": -1, "type": "PRES_AUD", "word": "critic", "wordID": 409, "conditions": [24, 800, "a", 24000], "trial": 3, "serialpos": 17, "trial_type": "single-audio", "trial_index": 134, "time_elapsed": 756310, "internal_node_id": "0.0-98.0"}}, {"uniqueid": "MTK0897:37TD41K0AIGOB504UGB812SP687CSJ", "current_trial": 135, "dateTime": 1512866114915, "trialdata": {"rt": -1000, "stimulus": "/static/audio/wordpool/CIGAR.wav", "key_press": -1, "type": "PRES_AUD", "word": "cigar", "wordID": 307, "conditions": [24, 800, "a", 24000], "trial": 3, "serialpos": 18, "trial_type": "single-audio", "trial_index": 135, "time_elapsed": 758153, "internal_node_id": "0.0-99.0"}}, {"uniqueid": "MTK0897:37TD41K0AIGOB504UGB812SP687CSJ", "current_trial": 136, "dateTime": 1512866116605, "trialdata": {"rt": -1000, "stimulus": "/static/audio/wordpool/BEAKER.wav", "key_press": -1, "type": "PRES_AUD", "word": "beaker", "wordID": 103, "conditions": [24, 800, "a", 24000], "trial": 3, "serialpos": 19, "trial_type": "single-audio", "trial_index": 136, "time_elapsed": 759842, "internal_node_id": "0.0-100.0"}}, {"uniqueid": "MTK0897:37TD41K0AIGOB504UGB812SP687CSJ", "current_trial": 137, "dateTime": 1512866118304, "trialdata": {"rt": -1000, "stimulus": "/static/audio/wordpool/STALLION.wav", "key_press": -1, "type": "PRES_AUD", "word": "stallion", "wordID": 1368, "conditions": [24, 800, "a", 24000], "trial": 3, "serialpos": 20, "trial_type": "single-audio", "trial_index": 137, "time_elapsed": 761542, "internal_node_id": "0.0-101.0"}}, {"uniqueid": "MTK0897:37TD41K0AIGOB504UGB812SP687CSJ", "current_trial": 138, "dateTime": 1512866120274, "trialdata": {"rt": -1000, "stimulus": "/static/audio/wordpool/BEAST.wav", "key_press": -1, "type": "PRES_AUD", "word": "beast", "wordID": 107, "conditions": [24, 800, "a", 24000], "trial": 3, "serialpos": 21, "trial_type": "single-audio", "trial_index": 138, "time_elapsed": 763512, "internal_node_id": "0.0-102.0"}}, {"uniqueid": "MTK0897:37TD41K0AIGOB504UGB812SP687CSJ", "current_trial": 139, "dateTime": 1512866122076, "trialdata": {"rt": -1000, "stimulus": "/static/audio/wordpool/CASKET.wav", "key_press": -1, "type": "PRES_AUD", "word": "casket", "wordID": 254, "conditions": [24, 800, "a", 24000], "trial": 3, "serialpos": 22, "trial_type": "single-audio", "trial_index": 139, "time_elapsed": 765314, "internal_node_id": "0.0-103.0"}}, {"uniqueid": "MTK0897:37TD41K0AIGOB504UGB812SP687CSJ", "current_trial": 140, "dateTime": 1512866123753, "trialdata": {"rt": -1000, "stimulus": "/static/audio/wordpool/PORK.wav", "key_press": -1, "type": "PRES_AUD", "word": "pork", "wordID": 1107, "conditions": [24, 800, "a", 24000], "trial": 3, "serialpos": 23, "trial_type": "single-audio", "trial_index": 140, "time_elapsed": 766991, "internal_node_id": "0.0-104.0"}}, {"uniqueid": "MTK0897:37TD41K0AIGOB504UGB812SP687CSJ", "current_trial": 141, "dateTime": 1512866125060, "trialdata": {"rt": -1, "stimulus": "", "key_press": -1, "type": "PRE_RECALL_DELAY", "trial_type": "single-stim", "trial_index": 141, "time_elapsed": 768298, "internal_node_id": "0.0-105.0-0.0"}}, {"uniqueid": "MTK0897:37TD41K0AIGOB504UGB812SP687CSJ", "current_trial": 142, "dateTime": 1512866125561, "trialdata": {"rt": -1000, "stimulus": "/static/audio/400Hz.wav", "key_press": -1, "type": "PRE_RECALL_ALERT", "trial_type": "single-audio", "trial_index": 142, "time_elapsed": 768799, "internal_node_id": "0.0-106.0"}}, {"uniqueid": "MTK0897:37TD41K0AIGOB504UGB812SP687CSJ", "current_trial": 143, "dateTime": 1512866185568, "trialdata": {"rt": [3410, 5143, 6621, 8909, 11006, 14627, 16653, 18715, 20131, 21702, 23782, 31718, 37626, 44583, 55266, 56795, 59934], "recwords": ["robot", "aprin", "japan", "garden", "grill", "skillet", "turkey", "cigar", "island", "japan", "beast", "cassket", "turkey", "aprin", "laser", "beast", "island"], "type": "FREE_RECALL", "conditions": [24, 800, "a", 24000], "trial": 3, "trial_type": "free-recall", "trial_index": 143, "time_elapsed": 828803, "internal_node_id": "0.0-107.0-0.0"}}, {"uniqueid": "MTK0897:37TD41K0AIGOB504UGB812SP687CSJ", "current_trial": 144, "dateTime": 1512866189501, "trialdata": {"rt": 1932, "key_press": 32, "type": "INSTRUCTIONS", "trial_type": "text", "trial_index": 144, "time_elapsed": 832739, "internal_node_id": "0.0-108.0"}}, {"uniqueid": "MTK0897:37TD41K0AIGOB504UGB812SP687CSJ", "current_trial": 145, "dateTime": 1512866203505, "trialdata": {"rt": [3124, 6928, 9876], "responses": ["12", "22", "17"], "num1": [8, 8, 2, 9], "num2": [3, 7, 9, 9], "num3": [1, 7, 6, 8], "type": "DISTRACTOR", "conditions": [12, 800, "a", 12000], "trial": 4, "trial_type": "math-distractor", "trial_index": 145, "time_elapsed": 846743, "internal_node_id": "0.0-109.0"}}, {"uniqueid": "MTK0897:37TD41K0AIGOB504UGB812SP687CSJ", "current_trial": 146, "dateTime": 1512866206507, "trialdata": {"rt": -1, "stimulus": "<p id=\"stim\">10</p>", "key_press": -1, "trial_type": "single-stim", "trial_index": 146, "time_elapsed": 849745, "internal_node_id": "0.0-110.0-0.0"}}, {"uniqueid": "MTK0897:37TD41K0AIGOB504UGB812SP687CSJ", "current_trial": 147, "dateTime": 1512866207509, "trialdata": {"rt": -1, "stimulus": "<p id=\"stim\">9</p>", "key_press": -1, "trial_type": "single-stim", "trial_index": 147, "time_elapsed": 850747, "internal_node_id": "0.0-110.0-1.0"}}, {"uniqueid": "MTK0897:37TD41K0AIGOB504UGB812SP687CSJ", "current_trial": 148, "dateTime": 1512866208513, "trialdata": {"rt": -1, "stimulus": "<p id=\"stim\">8</p>", "key_press": -1, "trial_type": "single-stim", "trial_index": 148, "time_elapsed": 851750, "internal_node_id": "0.0-110.0-2.0"}}, {"uniqueid": "MTK0897:37TD41K0AIGOB504UGB812SP687CSJ", "current_trial": 149, "dateTime": 1512866209516, "trialdata": {"rt": -1, "stimulus": "<p id=\"stim\">7</p>", "key_press": -1, "trial_type": "single-stim", "trial_index": 149, "time_elapsed": 852753, "internal_node_id": "0.0-110.0-3.0"}}, {"uniqueid": "MTK0897:37TD41K0AIGOB504UGB812SP687CSJ", "current_trial": 150, "dateTime": 1512866210518, "trialdata": {"rt": -1, "stimulus": "<p id=\"stim\">6</p>", "key_press": -1, "trial_type": "single-stim", "trial_index": 150, "time_elapsed": 853755, "internal_node_id": "0.0-110.0-4.0"}}, {"uniqueid": "MTK0897:37TD41K0AIGOB504UGB812SP687CSJ", "current_trial": 151, "dateTime": 1512866211521, "trialdata": {"rt": -1, "stimulus": "<p id=\"stim\">5</p>", "key_press": -1, "trial_type": "single-stim", "trial_index": 151, "time_elapsed": 854759, "internal_node_id": "0.0-110.0-5.0"}}, {"uniqueid": "MTK0897:37TD41K0AIGOB504UGB812SP687CSJ", "current_trial": 152, "dateTime": 1512866212524, "trialdata": {"rt": -1, "stimulus": "<p id=\"stim\">4</p>", "key_press": -1, "trial_type": "single-stim", "trial_index": 152, "time_elapsed": 855761, "internal_node_id": "0.0-110.0-6.0"}}, {"uniqueid": "MTK0897:37TD41K0AIGOB504UGB812SP687CSJ", "current_trial": 153, "dateTime": 1512866213527, "trialdata": {"rt": -1, "stimulus": "<p id=\"stim\">3</p>", "key_press": -1, "trial_type": "single-stim", "trial_index": 153, "time_elapsed": 856764, "internal_node_id": "0.0-110.0-7.0"}}, {"uniqueid": "MTK0897:37TD41K0AIGOB504UGB812SP687CSJ", "current_trial": 154, "dateTime": 1512866214530, "trialdata": {"rt": -1, "stimulus": "<p id=\"stim\">2</p>", "key_press": -1, "trial_type": "single-stim", "trial_index": 154, "time_elapsed": 857767, "internal_node_id": "0.0-110.0-8.0"}}, {"uniqueid": "MTK0897:37TD41K0AIGOB504UGB812SP687CSJ", "current_trial": 155, "dateTime": 1512866215530, "trialdata": {"rt": -1, "stimulus": "<p id=\"stim\">1</p>", "key_press": -1, "trial_type": "single-stim", "trial_index": 155, "time_elapsed": 858768, "internal_node_id": "0.0-110.0-9.0"}}, {"uniqueid": "MTK0897:37TD41K0AIGOB504UGB812SP687CSJ", "current_trial": 156, "dateTime": 1512866217033, "trialdata": {"rt": -1, "stimulus": "<p id=\"stim\">+</p>", "key_press": -1, "type": "FIXATION", "trial_type": "single-stim", "trial_index": 156, "time_elapsed": 860270, "internal_node_id": "0.0-111.0-0.0"}}, {"uniqueid": "MTK0897:37TD41K0AIGOB504UGB812SP687CSJ", "current_trial": 157, "dateTime": 1512866219006, "trialdata": {"rt": -1000, "stimulus": "/static/audio/wordpool/BABY.wav", "key_press": -1, "type": "PRES_AUD", "word": "baby", "wordID": 63, "conditions": [12, 800, "a", 12000], "trial": 4, "serialpos": 0, "trial_type": "single-audio", "trial_index": 157, "time_elapsed": 862244, "internal_node_id": "0.0-112.0"}}, {"uniqueid": "MTK0897:37TD41K0AIGOB504UGB812SP687CSJ", "current_trial": 158, "dateTime": 1512866220612, "trialdata": {"rt": -1000, "stimulus": "/static/audio/wordpool/OZONE.wav", "key_press": -1, "type": "PRES_AUD", "word": "ozone", "wordID": 995, "conditions": [12, 800, "a", 12000], "trial": 4, "serialpos": 1, "trial_type": "single-audio", "trial_index": 158, "time_elapsed": 863849, "internal_node_id": "0.0-113.0"}}, {"uniqueid": "MTK0897:37TD41K0AIGOB504UGB812SP687CSJ", "current_trial": 159, "dateTime": 1512866222608, "trialdata": {"rt": -1000, "stimulus": "/static/audio/wordpool/KEEPER.wav", "key_press": -1, "type": "PRES_AUD", "word": "keeper", "wordID": 768, "conditions": [12, 800, "a", 12000], "trial": 4, "serialpos": 2, "trial_type": "single-audio", "trial_index": 159, "time_elapsed": 865846, "internal_node_id": "0.0-114.0"}}, {"uniqueid": "MTK0897:37TD41K0AIGOB504UGB812SP687CSJ", "current_trial": 160, "dateTime": 1512866224233, "trialdata": {"rt": -1000, "stimulus": "/static/audio/wordpool/WAITER.wav", "key_press": -1, "type": "PRES_AUD", "word": "waiter", "wordID": 1579, "conditions": [12, 800, "a", 12000], "trial": 4, "serialpos": 3, "trial_type": "single-audio", "trial_index": 160, "time_elapsed": 867471, "internal_node_id": "0.0-115.0"}}, {"uniqueid": "MTK0897:37TD41K0AIGOB504UGB812SP687CSJ", "current_trial": 161, "dateTime": 1512866226127, "trialdata": {"rt": -1000, "stimulus": "/static/audio/wordpool/TUNNEL.wav", "key_press": -1, "type": "PRES_AUD", "word": "tunnel", "wordID": 1518, "conditions": [12, 800, "a", 12000], "trial": 4, "serialpos": 4, "trial_type": "single-audio", "trial_index": 161, "time_elapsed": 869364, "internal_node_id": "0.0-116.0"}}, {"uniqueid": "MTK0897:37TD41K0AIGOB504UGB812SP687CSJ", "current_trial": 162, "dateTime": 1512866228068, "trialdata": {"rt": -1000, "stimulus": "/static/audio/wordpool/PUPPY.wav", "key_press": -1, "type": "PRES_AUD", "word": "puppy", "wordID": 1143, "conditions": [12, 800, "a", 12000], "trial": 4, "serialpos": 5, "trial_type": "single-audio", "trial_index": 162, "time_elapsed": 871305, "internal_node_id": "0.0-117.0"}}, {"uniqueid": "MTK0897:37TD41K0AIGOB504UGB812SP687CSJ", "current_trial": 163, "dateTime": 1512866229772, "trialdata": {"rt": -1000, "stimulus": "/static/audio/wordpool/SALAD.wav", "key_press": -1, "type": "PRES_AUD", "word": "salad", "wordID": 1223, "conditions": [12, 800, "a", 12000], "trial": 4, "serialpos": 6, "trial_type": "single-audio", "trial_index": 163, "time_elapsed": 873009, "internal_node_id": "0.0-118.0"}}, {"uniqueid": "MTK0897:37TD41K0AIGOB504UGB812SP687CSJ", "current_trial": 164, "dateTime": 1512866231484, "trialdata": {"rt": -1000, "stimulus": "/static/audio/wordpool/BEEF.wav", "key_press": -1, "type": "PRES_AUD", "word": "beef", "wordID": 112, "conditions": [12, 800, "a", 12000], "trial": 4, "serialpos": 7, "trial_type": "single-audio", "trial_index": 164, "time_elapsed": 874722, "internal_node_id": "0.0-119.0"}}, {"uniqueid": "MTK0897:37TD41K0AIGOB504UGB812SP687CSJ", "current_trial": 165, "dateTime": 1512866233405, "trialdata": {"rt": -1000, "stimulus": "/static/audio/wordpool/DENTIST.wav", "key_press": -1, "type": "PRES_AUD", "word": "dentist", "wordID": 446, "conditions": [12, 800, "a", 12000], "trial": 4, "serialpos": 8, "trial_type": "single-audio", "trial_index": 165, "time_elapsed": 876643, "internal_node_id": "0.0-120.0"}}, {"uniqueid": "MTK0897:37TD41K0AIGOB504UGB812SP687CSJ", "current_trial": 166, "dateTime": 1512866235209, "trialdata": {"rt": -1000, "stimulus": "/static/audio/wordpool/MISSILE.wav", "key_press": -1, "type": "PRES_AUD", "word": "missile", "wordID": 899, "conditions": [12, 800, "a", 12000], "trial": 4, "serialpos": 9, "trial_type": "single-audio", "trial_index": 166, "time_elapsed": 878446, "internal_node_id": "0.0-121.0"}}, {"uniqueid": "MTK0897:37TD41K0AIGOB504UGB812SP687CSJ", "current_trial": 167, "dateTime": 1512866236911, "trialdata": {"rt": -1000, "stimulus": "/static/audio/wordpool/ROCKET.wav", "key_press": -1, "type": "PRES_AUD", "word": "rocket", "wordID": 1201, "conditions": [12, 800, "a", 12000], "trial": 4, "serialpos": 10, "trial_type": "single-audio", "trial_index": 167, "time_elapsed": 880149, "internal_node_id": "0.0-122.0"}}, {"uniqueid": "MTK0897:37TD41K0AIGOB504UGB812SP687CSJ", "current_trial": 168, "dateTime": 1512866238623, "trialdata": {"rt": -1000, "stimulus": "/static/audio/wordpool/TORTOISE.wav", "key_press": -1, "type": "PRES_AUD", "word": "tortoise", "wordID": 1485, "conditions": [12, 800, "a", 12000], "trial": 4, "serialpos": 11, "trial_type": "single-audio", "trial_index": 168, "time_elapsed": 881861, "internal_node_id": "0.0-123.0"}}, {"uniqueid": "MTK0897:37TD41K0AIGOB504UGB812SP687CSJ", "current_trial": 169, "dateTime": 1512866239852, "trialdata": {"rt": -1, "stimulus": "", "key_press": -1, "type": "PRE_RECALL_DELAY", "trial_type": "single-stim", "trial_index": 169, "time_elapsed": 883090, "internal_node_id": "0.0-124.0-0.0"}}, {"uniqueid": "MTK0897:37TD41K0AIGOB504UGB812SP687CSJ", "current_trial": 170, "dateTime": 1512866240354, "trialdata": {"rt": -1000, "stimulus": "/static/audio/400Hz.wav", "key_press": -1, "type": "PRE_RECALL_ALERT", "trial_type": "single-audio", "trial_index": 170, "time_elapsed": 883591, "internal_node_id": "0.0-125.0"}}, {"uniqueid": "MTK0897:37TD41K0AIGOB504UGB812SP687CSJ", "current_trial": 171, "dateTime": 1512866300366, "trialdata": {"rt": [5185, 6853, 9650, 11859, 14544, 16630, 18818, 21555, 23232, 34713], "recwords": ["baby", "ozon", "waiter", "tunnel", "salad", "dentist", "missle", "turtusse", "rocket", "dentist"], "type": "FREE_RECALL", "conditions": [12, 800, "a", 12000], "trial": 4, "trial_type": "free-recall", "trial_index": 171, "time_elapsed": 943597, "internal_node_id": "0.0-126.0-0.0"}}, {"uniqueid": "MTK0897:37TD41K0AIGOB504UGB812SP687CSJ", "current_trial": 172, "dateTime": 1512866304112, "trialdata": {"rt": 1745, "key_press": 32, "type": "INSTRUCTIONS", "trial_type": "text", "trial_index": 172, "time_elapsed": 947350, "internal_node_id": "0.0-127.0"}}, {"uniqueid": "MTK0897:37TD41K0AIGOB504UGB812SP687CSJ", "current_trial": 173, "dateTime": 1512866330118, "trialdata": {"rt": [2602, 5122, 9731, 11329, 15153, 18129, 20246, 22484], "responses": ["15", "7", "13", "4", "20", "16", "17", "19"], "num1": [6, 1, 4, 2, 4, 2, 6, 2, 1], "num2": [6, 2, 4, 1, 9, 9, 6, 9, 1], "num3": [3, 4, 5, 1, 7, 5, 5, 8, 3], "type": "DISTRACTOR", "conditions": [12, 800, "a", 24000], "trial": 5, "trial_type": "math-distractor", "trial_index": 173, "time_elapsed": 973356, "internal_node_id": "0.0-128.0"}}, {"uniqueid": "MTK0897:37TD41K0AIGOB504UGB812SP687CSJ", "current_trial": 174, "dateTime": 1512866333122, "trialdata": {"rt": -1, "stimulus": "<p id=\"stim\">10</p>", "key_press": -1, "trial_type": "single-stim", "trial_index": 174, "time_elapsed": 976360, "internal_node_id": "0.0-129.0-0.0"}}, {"uniqueid": "MTK0897:37TD41K0AIGOB504UGB812SP687CSJ", "current_trial": 175, "dateTime": 1512866334124, "trialdata": {"rt": -1, "stimulus": "<p id=\"stim\">9</p>", "key_press": -1, "trial_type": "single-stim", "trial_index": 175, "time_elapsed": 977362, "internal_node_id": "0.0-129.0-1.0"}}, {"uniqueid": "MTK0897:37TD41K0AIGOB504UGB812SP687CSJ", "current_trial": 176, "dateTime": 1512866335128, "trialdata": {"rt": -1, "stimulus": "<p id=\"stim\">8</p>", "key_press": -1, "trial_type": "single-stim", "trial_index": 176, "time_elapsed": 978365, "internal_node_id": "0.0-129.0-2.0"}}, {"uniqueid": "MTK0897:37TD41K0AIGOB504UGB812SP687CSJ", "current_trial": 177, "dateTime": 1512866336131, "trialdata": {"rt": -1, "stimulus": "<p id=\"stim\">7</p>", "key_press": -1, "trial_type": "single-stim", "trial_index": 177, "time_elapsed": 979368, "internal_node_id": "0.0-129.0-3.0"}}, {"uniqueid": "MTK0897:37TD41K0AIGOB504UGB812SP687CSJ", "current_trial": 178, "dateTime": 1512866337133, "trialdata": {"rt": -1, "stimulus": "<p id=\"stim\">6</p>", "key_press": -1, "trial_type": "single-stim", "trial_index": 178, "time_elapsed": 980370, "internal_node_id": "0.0-129.0-4.0"}}, {"uniqueid": "MTK0897:37TD41K0AIGOB504UGB812SP687CSJ", "current_trial": 179, "dateTime": 1512866338133, "trialdata": {"rt": -1, "stimulus": "<p id=\"stim\">5</p>", "key_press": -1, "trial_type": "single-stim", "trial_index": 179, "time_elapsed": 981371, "internal_node_id": "0.0-129.0-5.0"}}, {"uniqueid": "MTK0897:37TD41K0AIGOB504UGB812SP687CSJ", "current_trial": 180, "dateTime": 1512866339135, "trialdata": {"rt": -1, "stimulus": "<p id=\"stim\">4</p>", "key_press": -1, "trial_type": "single-stim", "trial_index": 180, "time_elapsed": 982373, "internal_node_id": "0.0-129.0-6.0"}}, {"uniqueid": "MTK0897:37TD41K0AIGOB504UGB812SP687CSJ", "current_trial": 181, "dateTime": 1512866340137, "trialdata": {"rt": -1, "stimulus": "<p id=\"stim\">3</p>", "key_press": -1, "trial_type": "single-stim", "trial_index": 181, "time_elapsed": 983375, "internal_node_id": "0.0-129.0-7.0"}}, {"uniqueid": "MTK0897:37TD41K0AIGOB504UGB812SP687CSJ", "current_trial": 182, "dateTime": 1512866341141, "trialdata": {"rt": -1, "stimulus": "<p id=\"stim\">2</p>", "key_press": -1, "trial_type": "single-stim", "trial_index": 182, "time_elapsed": 984379, "internal_node_id": "0.0-129.0-8.0"}}, {"uniqueid": "MTK0897:37TD41K0AIGOB504UGB812SP687CSJ", "current_trial": 183, "dateTime": 1512866342143, "trialdata": {"rt": -1, "stimulus": "<p id=\"stim\">1</p>", "key_press": -1, "trial_type": "single-stim", "trial_index": 183, "time_elapsed": 985380, "internal_node_id": "0.0-129.0-9.0"}}, {"uniqueid": "MTK0897:37TD41K0AIGOB504UGB812SP687CSJ", "current_trial": 184, "dateTime": 1512866343645, "trialdata": {"rt": -1, "stimulus": "<p id=\"stim\">+</p>", "key_press": -1, "type": "FIXATION", "trial_type": "single-stim", "trial_index": 184, "time_elapsed": 986883, "internal_node_id": "0.0-130.0-0.0"}}, {"uniqueid": "MTK0897:37TD41K0AIGOB504UGB812SP687CSJ", "current_trial": 185, "dateTime": 1512866345573, "trialdata": {"rt": -1000, "stimulus": "/static/audio/wordpool/MOP.wav", "key_press": -1, "type": "PRES_AUD", "word": "mop", "wordID": 915, "conditions": [12, 800, "a", 24000], "trial": 5, "serialpos": 0, "trial_type": "single-audio", "trial_index": 185, "time_elapsed": 988810, "internal_node_id": "0.0-131.0"}}, {"uniqueid": "MTK0897:37TD41K0AIGOB504UGB812SP687CSJ", "current_trial": 186, "dateTime": 1512866347550, "trialdata": {"rt": -1000, "stimulus": "/static/audio/wordpool/JUDGE.wav", "key_press": -1, "type": "PRES_AUD", "word": "judge", "wordID": 760, "conditions": [12, 800, "a", 24000], "trial": 5, "serialpos": 1, "trial_type": "single-audio", "trial_index": 186, "time_elapsed": 990788, "internal_node_id": "0.0-132.0"}}, {"uniqueid": "MTK0897:37TD41K0AIGOB504UGB812SP687CSJ", "current_trial": 187, "dateTime": 1512866349185, "trialdata": {"rt": -1000, "stimulus": "/static/audio/wordpool/TEACHER.wav", "key_press": -1, "type": "PRES_AUD", "word": "teacher", "wordID": 1439, "conditions": [12, 800, "a", 24000], "trial": 5, "serialpos": 2, "trial_type": "single-audio", "trial_index": 187, "time_elapsed": 992422, "internal_node_id": "0.0-133.0"}}, {"uniqueid": "MTK0897:37TD41K0AIGOB504UGB812SP687CSJ", "current_trial": 188, "dateTime": 1512866351040, "trialdata": {"rt": -1000, "stimulus": "/static/audio/wordpool/STUDENT.wav", "key_press": -1, "type": "PRES_AUD", "word": "student", "wordID": 1394, "conditions": [12, 800, "a", 24000], "trial": 5, "serialpos": 3, "trial_type": "single-audio", "trial_index": 188, "time_elapsed": 994278, "internal_node_id": "0.0-134.0"}}, {"uniqueid": "MTK0897:37TD41K0AIGOB504UGB812SP687CSJ", "current_trial": 189, "dateTime": 1512866353032, "trialdata": {"rt": -1000, "stimulus": "/static/audio/wordpool/POWDER.wav", "key_press": -1, "type": "PRES_AUD", "word": "powder", "wordID": 1116, "conditions": [12, 800, "a", 24000], "trial": 5, "serialpos": 4, "trial_type": "single-audio", "trial_index": 189, "time_elapsed": 996270, "internal_node_id": "0.0-135.0"}}, {"uniqueid": "MTK0897:37TD41K0AIGOB504UGB812SP687CSJ", "current_trial": 190, "dateTime": 1512866354971, "trialdata": {"rt": -1000, "stimulus": "/static/audio/wordpool/INMATE.wav", "key_press": -1, "type": "PRES_AUD", "word": "inmate", "wordID": 737, "conditions": [12, 800, "a", 24000], "trial": 5, "serialpos": 5, "trial_type": "single-audio", "trial_index": 190, "time_elapsed": 998209, "internal_node_id": "0.0-136.0"}}, {"uniqueid": "MTK0897:37TD41K0AIGOB504UGB812SP687CSJ", "current_trial": 191, "dateTime": 1512866356799, "trialdata": {"rt": -1000, "stimulus": "/static/audio/wordpool/MILDEW.wav", "key_press": -1, "type": "PRES_AUD", "word": "mildew", "wordID": 892, "conditions": [12, 800, "a", 24000], "trial": 5, "serialpos": 6, "trial_type": "single-audio", "trial_index": 191, "time_elapsed": 1000037, "internal_node_id": "0.0-137.0"}}, {"uniqueid": "MTK0897:37TD41K0AIGOB504UGB812SP687CSJ", "current_trial": 192, "dateTime": 1512866358463, "trialdata": {"rt": -1000, "stimulus": "/static/audio/wordpool/RADISH.wav", "key_press": -1, "type": "PRES_AUD", "word": "radish", "wordID": 1157, "conditions": [12, 800, "a", 24000], "trial": 5, "serialpos": 7, "trial_type": "single-audio", "trial_index": 192, "time_elapsed": 1001700, "internal_node_id": "0.0-138.0"}}, {"uniqueid": "MTK0897:37TD41K0AIGOB504UGB812SP687CSJ", "current_trial": 193, "dateTime": 1512866360341, "trialdata": {"rt": -1000, "stimulus": "/static/audio/wordpool/WOMAN.wav", "key_press": -1, "type": "PRES_AUD", "word": "woman", "wordID": 1619, "conditions": [12, 800, "a", 24000], "trial": 5, "serialpos": 8, "trial_type": "single-audio", "trial_index": 193, "time_elapsed": 1003579, "internal_node_id": "0.0-139.0"}}, {"uniqueid": "MTK0897:37TD41K0AIGOB504UGB812SP687CSJ", "current_trial": 194, "dateTime": 1512866362013, "trialdata": {"rt": -1000, "stimulus": "/static/audio/wordpool/BUBBLE.wav", "key_press": -1, "type": "PRES_AUD", "word": "bubble", "wordID": 182, "conditions": [12, 800, "a", 24000], "trial": 5, "serialpos": 9, "trial_type": "single-audio", "trial_index": 194, "time_elapsed": 1005251, "internal_node_id": "0.0-140.0"}}, {"uniqueid": "MTK0897:37TD41K0AIGOB504UGB812SP687CSJ", "current_trial": 195, "dateTime": 1512866363893, "trialdata": {"rt": -1000, "stimulus": "/static/audio/wordpool/JURY.wav", "key_press": -1, "type": "PRES_AUD", "word": "jury", "wordID": 765, "conditions": [12, 800, "a", 24000], "trial": 5, "serialpos": 10, "trial_type": "single-audio", "trial_index": 195, "time_elapsed": 1007131, "internal_node_id": "0.0-141.0"}}, {"uniqueid": "MTK0897:37TD41K0AIGOB504UGB812SP687CSJ", "current_trial": 196, "dateTime": 1512866365554, "trialdata": {"rt": -1000, "stimulus": "/static/audio/wordpool/WIDOW.wav", "key_press": -1, "type": "PRES_AUD", "word": "widow", "wordID": 1607, "conditions": [12, 800, "a", 24000], "trial": 5, "serialpos": 11, "trial_type": "single-audio", "trial_index": 196, "time_elapsed": 1008792, "internal_node_id": "0.0-142.0"}}, {"uniqueid": "MTK0897:37TD41K0AIGOB504UGB812SP687CSJ", "current_trial": 197, "dateTime": 1512866366761, "trialdata": {"rt": -1, "stimulus": "", "key_press": -1, "type": "PRE_RECALL_DELAY", "trial_type": "single-stim", "trial_index": 197, "time_elapsed": 1009999, "internal_node_id": "0.0-143.0-0.0"}}, {"uniqueid": "MTK0897:37TD41K0AIGOB504UGB812SP687CSJ", "current_trial": 198, "dateTime": 1512866367263, "trialdata": {"rt": -1000, "stimulus": "/static/audio/400Hz.wav", "key_press": -1, "type": "PRE_RECALL_ALERT", "trial_type": "single-audio", "trial_index": 198, "time_elapsed": 1010501, "internal_node_id": "0.0-144.0"}}, {"uniqueid": "MTK0897:37TD41K0AIGOB504UGB812SP687CSJ", "current_trial": 199, "dateTime": 1512866427270, "trialdata": {"rt": [3299, 4912, 6105, 7462, 9759, 12512, 14074, 28113, 30948, 40451], "recwords": ["jury", "widow", "woman", "jury", "teacher", "powder", "jury", "judge", "teacher", "student"], "type": "FREE_RECALL", "conditions": [12, 800, "a", 24000], "trial": 5, "trial_type": "free-recall", "trial_index": 199, "time_elapsed": 1070505, "internal_node_id": "0.0-145.0-0.0"}}, {"uniqueid": "MTK0897:37TD41K0AIGOB504UGB812SP687CSJ", "current_trial": 200, "dateTime": 1512866431169, "trialdata": {"rt": 1896, "key_press": 32, "type": "INSTRUCTIONS", "trial_type": "text", "trial_index": 200, "time_elapsed": 1074407, "internal_node_id": "0.0-146.0"}}, {"uniqueid": "MTK0897:37TD41K0AIGOB504UGB812SP687CSJ", "current_trial": 201, "dateTime": 1512866445175, "trialdata": {"rt": [3410, 6728, 9052], "responses": ["11", "15", "13"], "num1": [5, 2, 6, 3], "num2": [9, 6, 3, 4], "num3": [1, 7, 4, 5], "type": "DISTRACTOR", "conditions": [24, 1600, "v", 12000], "trial": 6, "trial_type": "math-distractor", "trial_index": 201, "time_elapsed": 1088413, "internal_node_id": "0.0-147.0"}}, {"uniqueid": "MTK0897:37TD41K0AIGOB504UGB812SP687CSJ", "current_trial": 202, "dateTime": 1512866448178, "trialdata": {"rt": -1, "stimulus": "<p id=\"stim\">10</p>", "key_press": -1, "trial_type": "single-stim", "trial_index": 202, "time_elapsed": 1091416, "internal_node_id": "0.0-148.0-0.0"}}, {"uniqueid": "MTK0897:37TD41K0AIGOB504UGB812SP687CSJ", "current_trial": 203, "dateTime": 1512866449181, "trialdata": {"rt": -1, "stimulus": "<p id=\"stim\">9</p>", "key_press": -1, "trial_type": "single-stim", "trial_index": 203, "time_elapsed": 1092419, "internal_node_id": "0.0-148.0-1.0"}}, {"uniqueid": "MTK0897:37TD41K0AIGOB504UGB812SP687CSJ", "current_trial": 204, "dateTime": 1512866450186, "trialdata": {"rt": -1, "stimulus": "<p id=\"stim\">8</p>", "key_press": -1, "trial_type": "single-stim", "trial_index": 204, "time_elapsed": 1093423, "internal_node_id": "0.0-148.0-2.0"}}, {"uniqueid": "MTK0897:37TD41K0AIGOB504UGB812SP687CSJ", "current_trial": 205, "dateTime": 1512866451189, "trialdata": {"rt": -1, "stimulus": "<p id=\"stim\">7</p>", "key_press": -1, "trial_type": "single-stim", "trial_index": 205, "time_elapsed": 1094427, "internal_node_id": "0.0-148.0-3.0"}}, {"uniqueid": "MTK0897:37TD41K0AIGOB504UGB812SP687CSJ", "current_trial": 206, "dateTime": 1512866452190, "trialdata": {"rt": -1, "stimulus": "<p id=\"stim\">6</p>", "key_press": -1, "trial_type": "single-stim", "trial_index": 206, "time_elapsed": 1095428, "internal_node_id": "0.0-148.0-4.0"}}, {"uniqueid": "MTK0897:37TD41K0AIGOB504UGB812SP687CSJ", "current_trial": 207, "dateTime": 1512866453191, "trialdata": {"rt": -1, "stimulus": "<p id=\"stim\">5</p>", "key_press": -1, "trial_type": "single-stim", "trial_index": 207, "time_elapsed": 1096429, "internal_node_id": "0.0-148.0-5.0"}}, {"uniqueid": "MTK0897:37TD41K0AIGOB504UGB812SP687CSJ", "current_trial": 208, "dateTime": 1512866454193, "trialdata": {"rt": -1, "stimulus": "<p id=\"stim\">4</p>", "key_press": -1, "trial_type": "single-stim", "trial_index": 208, "time_elapsed": 1097431, "internal_node_id": "0.0-148.0-6.0"}}, {"uniqueid": "MTK0897:37TD41K0AIGOB504UGB812SP687CSJ", "current_trial": 209, "dateTime": 1512866455196, "trialdata": {"rt": -1, "stimulus": "<p id=\"stim\">3</p>", "key_press": -1, "trial_type": "single-stim", "trial_index": 209, "time_elapsed": 1098433, "internal_node_id": "0.0-148.0-7.0"}}, {"uniqueid": "MTK0897:37TD41K0AIGOB504UGB812SP687CSJ", "current_trial": 210, "dateTime": 1512866456198, "trialdata": {"rt": -1, "stimulus": "<p id=\"stim\">2</p>", "key_press": -1, "trial_type": "single-stim", "trial_index": 210, "time_elapsed": 1099436, "internal_node_id": "0.0-148.0-8.0"}}, {"uniqueid": "MTK0897:37TD41K0AIGOB504UGB812SP687CSJ", "current_trial": 211, "dateTime": 1512866457201, "trialdata": {"rt": -1, "stimulus": "<p id=\"stim\">1</p>", "key_press": -1, "trial_type": "single-stim", "trial_index": 211, "time_elapsed": 1100438, "internal_node_id": "0.0-148.0-9.0"}}, {"uniqueid": "MTK0897:37TD41K0AIGOB504UGB812SP687CSJ", "current_trial": 212, "dateTime": 1512866458702, "trialdata": {"rt": -1, "stimulus": "<p id=\"stim\">+</p>", "key_press": -1, "type": "FIXATION", "trial_type": "single-stim", "trial_index": 212, "time_elapsed": 1101940, "internal_node_id": "0.0-149.0-0.0"}}, {"uniqueid": "MTK0897:37TD41K0AIGOB504UGB812SP687CSJ", "current_trial": 213, "dateTime": 1512866460304, "trialdata": {"rt": -1, "stimulus": "<p id=\"stim\">WIFE</p>", "key_press": -1, "type": "PRES_VIS", "word": "wife", "wordID": 1608, "conditions": [24, 1600, "v", 12000], "trial": 6, "serialpos": 0, "trial_type": "single-stim", "trial_index": 213, "time_elapsed": 1103541, "internal_node_id": "0.0-150.0"}}, {"uniqueid": "MTK0897:37TD41K0AIGOB504UGB812SP687CSJ", "current_trial": 214, "dateTime": 1512866462840, "trialdata": {"rt": -1, "stimulus": "<p id=\"stim\">DAUGHTER</p>", "key_press": -1, "type": "PRES_VIS", "word": "daughter", "wordID": 441, "conditions": [24, 1600, "v", 12000], "trial": 6, "serialpos": 1, "trial_type": "single-stim", "trial_index": 214, "time_elapsed": 1106078, "internal_node_id": "0.0-151.0"}}, {"uniqueid": "MTK0897:37TD41K0AIGOB504UGB812SP687CSJ", "current_trial": 215, "dateTime": 1512866465350, "trialdata": {"rt": -1, "stimulus": "<p id=\"stim\">RIVER</p>", "key_press": -1, "type": "PRES_VIS", "word": "river", "wordID": 1193, "conditions": [24, 1600, "v", 12000], "trial": 6, "serialpos": 2, "trial_type": "single-stim", "trial_index": 215, "time_elapsed": 1108588, "internal_node_id": "0.0-152.0"}}, {"uniqueid": "MTK0897:37TD41K0AIGOB504UGB812SP687CSJ", "current_trial": 216, "dateTime": 1512866467903, "trialdata": {"rt": -1, "stimulus": "<p id=\"stim\">HERO</p>", "key_press": -1, "type": "PRES_VIS", "word": "hero", "wordID": 705, "conditions": [24, 1600, "v", 12000], "trial": 6, "serialpos": 3, "trial_type": "single-stim", "trial_index": 216, "time_elapsed": 1111141, "internal_node_id": "0.0-153.0"}}, {"uniqueid": "MTK0897:37TD41K0AIGOB504UGB812SP687CSJ", "current_trial": 217, "dateTime": 1512866470409, "trialdata": {"rt": -1, "stimulus": "<p id=\"stim\">LAVA</p>", "key_press": -1, "type": "PRES_VIS", "word": "lava", "wordID": 803, "conditions": [24, 1600, "v", 12000], "trial": 6, "serialpos": 4, "trial_type": "single-stim", "trial_index": 217, "time_elapsed": 1113647, "internal_node_id": "0.0-154.0"}}, {"uniqueid": "MTK0897:37TD41K0AIGOB504UGB812SP687CSJ", "current_trial": 218, "dateTime": 1512866473105, "trialdata": {"rt": -1, "stimulus": "<p id=\"stim\">OYSTER</p>", "key_press": -1, "type": "PRES_VIS", "word": "oyster", "wordID": 994, "conditions": [24, 1600, "v", 12000], "trial": 6, "serialpos": 5, "trial_type": "single-stim", "trial_index": 218, "time_elapsed": 1116343, "internal_node_id": "0.0-155.0"}}, {"uniqueid": "MTK0897:37TD41K0AIGOB504UGB812SP687CSJ", "current_trial": 219, "dateTime": 1512866475613, "trialdata": {"rt": -1, "stimulus": "<p id=\"stim\">SALMON</p>", "key_press": -1, "type": "PRES_VIS", "word": "salmon", "wordID": 1226, "conditions": [24, 1600, "v", 12000], "trial": 6, "serialpos": 6, "trial_type": "single-stim", "trial_index": 219, "time_elapsed": 1118849, "internal_node_id": "0.0-156.0"}}, {"uniqueid": "MTK0897:37TD41K0AIGOB504UGB812SP687CSJ", "current_trial": 220, "dateTime": 1512866478165, "trialdata": {"rt": -1, "stimulus": "<p id=\"stim\">HUSBAND</p>", "key_press": -1, "type": "PRES_VIS", "word": "husband", "wordID": 727, "conditions": [24, 1600, "v", 12000], "trial": 6, "serialpos": 7, "trial_type": "single-stim", "trial_index": 220, "time_elapsed": 1121403, "internal_node_id": "0.0-157.0"}}, {"uniqueid": "MTK0897:37TD41K0AIGOB504UGB812SP687CSJ", "current_trial": 221, "dateTime": 1512866480745, "trialdata": {"rt": -1, "stimulus": "<p id=\"stim\">CHIPMUNK</p>", "key_press": -1, "type": "PRES_VIS", "word": "chipmunk", "wordID": 303, "conditions": [24, 1600, "v", 12000], "trial": 6, "serialpos": 8, "trial_type": "single-stim", "trial_index": 221, "time_elapsed": 1123982, "internal_node_id": "0.0-158.0"}}, {"uniqueid": "MTK0897:37TD41K0AIGOB504UGB812SP687CSJ", "current_trial": 222, "dateTime": 1512866483151, "trialdata": {"rt": -1, "stimulus": "<p id=\"stim\">TABLET</p>", "key_press": -1, "type": "PRES_VIS", "word": "tablet", "wordID": 1426, "conditions": [24, 1600, "v", 12000], "trial": 6, "serialpos": 9, "trial_type": "single-stim", "trial_index": 222, "time_elapsed": 1126388, "internal_node_id": "0.0-159.0"}}, {"uniqueid": "MTK0897:37TD41K0AIGOB504UGB812SP687CSJ", "current_trial": 223, "dateTime": 1512866485864, "trialdata": {"rt": -1, "stimulus": "<p id=\"stim\">NOVEL</p>", "key_press": -1, "type": "PRES_VIS", "word": "novel", "wordID": 959, "conditions": [24, 1600, "v", 12000], "trial": 6, "serialpos": 10, "trial_type": "single-stim", "trial_index": 223, "time_elapsed": 1129102, "internal_node_id": "0.0-160.0"}}, {"uniqueid": "MTK0897:37TD41K0AIGOB504UGB812SP687CSJ", "current_trial": 224, "dateTime": 1512866488495, "trialdata": {"rt": -1, "stimulus": "<p id=\"stim\">GANGSTER</p>", "key_press": -1, "type": "PRES_VIS", "word": "gangster", "wordID": 619, "conditions": [24, 1600, "v", 12000], "trial": 6, "serialpos": 11, "trial_type": "single-stim", "trial_index": 224, "time_elapsed": 1131732, "internal_node_id": "0.0-161.0"}}, {"uniqueid": "MTK0897:37TD41K0AIGOB504UGB812SP687CSJ", "current_trial": 225, "dateTime": 1512866490976, "trialdata": {"rt": -1, "stimulus": "<p id=\"stim\">HARP</p>", "key_press": -1, "type": "PRES_VIS", "word": "harp", "wordID": 688, "conditions": [24, 1600, "v", 12000], "trial": 6, "serialpos": 12, "trial_type": "single-stim", "trial_index": 225, "time_elapsed": 1134214, "internal_node_id": "0.0-162.0"}}, {"uniqueid": "MTK0897:37TD41K0AIGOB504UGB812SP687CSJ", "current_trial": 226, "dateTime": 1512866493748, "trialdata": {"rt": -1, "stimulus": "<p id=\"stim\">SAUSAGE</p>", "key_press": -1, "type": "PRES_VIS", "word": "sausage", "wordID": 1237, "conditions": [24, 1600, "v", 12000], "trial": 6, "serialpos": 13, "trial_type": "single-stim", "trial_index": 226, "time_elapsed": 1136985, "internal_node_id": "0.0-163.0"}}, {"uniqueid": "MTK0897:37TD41K0AIGOB504UGB812SP687CSJ", "current_trial": 227, "dateTime": 1512866496370, "trialdata": {"rt": -1, "stimulus": "<p id=\"stim\">TUBA</p>", "key_press": -1, "type": "PRES_VIS", "word": "tuba", "wordID": 1514, "conditions": [24, 1600, "v", 12000], "trial": 6, "serialpos": 14, "trial_type": "single-stim", "trial_index": 227, "time_elapsed": 1139607, "internal_node_id": "0.0-164.0"}}, {"uniqueid": "MTK0897:37TD41K0AIGOB504UGB812SP687CSJ", "current_trial": 228, "dateTime": 1512866499083, "trialdata": {"rt": -1, "stimulus": "<p id=\"stim\">TROMBONE</p>", "key_press": -1, "type": "PRES_VIS", "word": "trombone", "wordID": 1507, "conditions": [24, 1600, "v", 12000], "trial": 6, "serialpos": 15, "trial_type": "single-stim", "trial_index": 228, "time_elapsed": 1142321, "internal_node_id": "0.0-165.0"}}, {"uniqueid": "MTK0897:37TD41K0AIGOB504UGB812SP687CSJ", "current_trial": 229, "dateTime": 1512866501697, "trialdata": {"rt": -1, "stimulus": "<p id=\"stim\">COSTUME</p>", "key_press": -1, "type": "PRES_VIS", "word": "costume", "wordID": 382, "conditions": [24, 1600, "v", 12000], "trial": 6, "serialpos": 16, "trial_type": "single-stim", "trial_index": 229, "time_elapsed": 1144934, "internal_node_id": "0.0-166.0"}}, {"uniqueid": "MTK0897:37TD41K0AIGOB504UGB812SP687CSJ", "current_trial": 230, "dateTime": 1512866504363, "trialdata": {"rt": -1, "stimulus": "<p id=\"stim\">WASP</p>", "key_press": -1, "type": "PRES_VIS", "word": "wasp", "wordID": 1592, "conditions": [24, 1600, "v", 12000], "trial": 6, "serialpos": 17, "trial_type": "single-stim", "trial_index": 230, "time_elapsed": 1147601, "internal_node_id": "0.0-167.0"}}, {"uniqueid": "MTK0897:37TD41K0AIGOB504UGB812SP687CSJ", "current_trial": 231, "dateTime": 1512866506785, "trialdata": {"rt": -1, "stimulus": "<p id=\"stim\">BOYFRIEND</p>", "key_press": -1, "type": "PRES_VIS", "word": "boyfriend", "wordID": 161, "conditions": [24, 1600, "v", 12000], "trial": 6, "serialpos": 18, "trial_type": "single-stim", "trial_index": 231, "time_elapsed": 1150023, "internal_node_id": "0.0-168.0"}}, {"uniqueid": "MTK0897:37TD41K0AIGOB504UGB812SP687CSJ", "current_trial": 232, "dateTime": 1512866509515, "trialdata": {"rt": -1, "stimulus": "<p id=\"stim\">COLLEGE</p>", "key_press": -1, "type": "PRES_VIS", "word": "college", "wordID": 345, "conditions": [24, 1600, "v", 12000], "trial": 6, "serialpos": 19, "trial_type": "single-stim", "trial_index": 232, "time_elapsed": 1152752, "internal_node_id": "0.0-169.0"}}, {"uniqueid": "MTK0897:37TD41K0AIGOB504UGB812SP687CSJ", "current_trial": 233, "dateTime": 1512866512195, "trialdata": {"rt": -1, "stimulus": "<p id=\"stim\">SPOON</p>", "key_press": -1, "type": "PRES_VIS", "word": "spoon", "wordID": 1356, "conditions": [24, 1600, "v", 12000], "trial": 6, "serialpos": 20, "trial_type": "single-stim", "trial_index": 233, "time_elapsed": 1155433, "internal_node_id": "0.0-170.0"}}, {"uniqueid": "MTK0897:37TD41K0AIGOB504UGB812SP687CSJ", "current_trial": 234, "dateTime": 1512866514763, "trialdata": {"rt": -1, "stimulus": "<p id=\"stim\">BREAST</p>", "key_press": -1, "type": "PRES_VIS", "word": "breast", "wordID": 170, "conditions": [24, 1600, "v", 12000], "trial": 6, "serialpos": 21, "trial_type": "single-stim", "trial_index": 234, "time_elapsed": 1158001, "internal_node_id": "0.0-171.0"}}, {"uniqueid": "MTK0897:37TD41K0AIGOB504UGB812SP687CSJ", "current_trial": 235, "dateTime": 1512866517356, "trialdata": {"rt": -1, "stimulus": "<p id=\"stim\">MAPLE</p>", "key_press": -1, "type": "PRES_VIS", "word": "maple", "wordID": 865, "conditions": [24, 1600, "v", 12000], "trial": 6, "serialpos": 22, "trial_type": "single-stim", "trial_index": 235, "time_elapsed": 1160594, "internal_node_id": "0.0-172.0"}}, {"uniqueid": "MTK0897:37TD41K0AIGOB504UGB812SP687CSJ", "current_trial": 236, "dateTime": 1512866519924, "trialdata": {"rt": -1, "stimulus": "<p id=\"stim\">BANJO</p>", "key_press": -1, "type": "PRES_VIS", "word": "banjo", "wordID": 81, "conditions": [24, 1600, "v", 12000], "trial": 6, "serialpos": 23, "trial_type": "single-stim", "trial_index": 236, "time_elapsed": 1163162, "internal_node_id": "0.0-173.0"}}, {"uniqueid": "MTK0897:37TD41K0AIGOB504UGB812SP687CSJ", "current_trial": 237, "dateTime": 1512866522042, "trialdata": {"rt": -1, "stimulus": "", "key_press": -1, "type": "PRE_RECALL_DELAY", "trial_type": "single-stim", "trial_index": 237, "time_elapsed": 1165279, "internal_node_id": "0.0-174.0-0.0"}}, {"uniqueid": "MTK0897:37TD41K0AIGOB504UGB812SP687CSJ", "current_trial": 238, "dateTime": 1512866522544, "trialdata": {"rt": -1000, "stimulus": "/static/audio/400Hz.wav", "key_press": -1, "type": "PRE_RECALL_ALERT", "trial_type": "single-audio", "trial_index": 238, "time_elapsed": 1165782, "internal_node_id": "0.0-175.0"}}, {"uniqueid": "MTK0897:37TD41K0AIGOB504UGB812SP687CSJ", "current_trial": 239, "dateTime": 1512866582558, "trialdata": {"rt": [2818, 4828, 7971, 9964, 11583, 13773, 16468, 18176, 22649, 24123, 26562, 30942, 31030, 36408, 42058, 58801], "recwords": ["river", "wasp", "custome", "bonjo", "wife", "daughter", "housband", "hero", "boyfriend", "river", "oyster", "sausage", "", "lava", "tuba", "tablet"], "type": "FREE_RECALL", "conditions": [24, 1600, "v", 12000], "trial": 6, "trial_type": "free-recall", "trial_index": 239, "time_elapsed": 1225788, "internal_node_id": "0.0-176.0-0.0"}}, {"uniqueid": "MTK0897:37TD41K0AIGOB504UGB812SP687CSJ", "current_trial": 240, "dateTime": 1512866589519, "trialdata": {"rt": 4959, "key_press": 32, "type": "INSTRUCTIONS", "trial_type": "text", "trial_index": 240, "time_elapsed": 1232757, "internal_node_id": "0.0-177.0"}}, {"uniqueid": "MTK0897:37TD41K0AIGOB504UGB812SP687CSJ", "current_trial": 241, "dateTime": 1512866615524, "trialdata": {"rt": [3834, 7601, 10276, 12278, 14283, 16263, 20254, 22346], "responses": ["11", "23", "20", "13", "15", "16", "22", "7"], "num1": [2, 9, 7, 5, 7, 7, 5, 5, 6], "num2": [7, 7, 4, 3, 7, 8, 9, 1, 4], "num3": [2, 7, 9, 5, 1, 1, 8, 1, 2], "type": "DISTRACTOR", "conditions": [12, 1600, "a", 24000], "trial": 7, "trial_type": "math-distractor", "trial_index": 241, "time_elapsed": 1258762, "internal_node_id": "0.0-178.0"}}, {"uniqueid": "MTK0897:37TD41K0AIGOB504UGB812SP687CSJ", "current_trial": 242, "dateTime": 1512866618528, "trialdata": {"rt": -1, "stimulus": "<p id=\"stim\">10</p>", "key_press": -1, "trial_type": "single-stim", "trial_index": 242, "time_elapsed": 1261766, "internal_node_id": "0.0-179.0-0.0"}}, {"uniqueid": "MTK0897:37TD41K0AIGOB504UGB812SP687CSJ", "current_trial": 243, "dateTime": 1512866619529, "trialdata": {"rt": -1, "stimulus": "<p id=\"stim\">9</p>", "key_press": -1, "trial_type": "single-stim", "trial_index": 243, "time_elapsed": 1262767, "internal_node_id": "0.0-179.0-1.0"}}, {"uniqueid": "MTK0897:37TD41K0AIGOB504UGB812SP687CSJ", "current_trial": 244, "dateTime": 1512866620531, "trialdata": {"rt": -1, "stimulus": "<p id=\"stim\">8</p>", "key_press": -1, "trial_type": "single-stim", "trial_index": 244, "time_elapsed": 1263769, "internal_node_id": "0.0-179.0-2.0"}}, {"uniqueid": "MTK0897:37TD41K0AIGOB504UGB812SP687CSJ", "current_trial": 245, "dateTime": 1512866621533, "trialdata": {"rt": -1, "stimulus": "<p id=\"stim\">7</p>", "key_press": -1, "trial_type": "single-stim", "trial_index": 245, "time_elapsed": 1264770, "internal_node_id": "0.0-179.0-3.0"}}, {"uniqueid": "MTK0897:37TD41K0AIGOB504UGB812SP687CSJ", "current_trial": 246, "dateTime": 1512866622535, "trialdata": {"rt": -1, "stimulus": "<p id=\"stim\">6</p>", "key_press": -1, "trial_type": "single-stim", "trial_index": 246, "time_elapsed": 1265772, "internal_node_id": "0.0-179.0-4.0"}}, {"uniqueid": "MTK0897:37TD41K0AIGOB504UGB812SP687CSJ", "current_trial": 247, "dateTime": 1512866623536, "trialdata": {"rt": -1, "stimulus": "<p id=\"stim\">5</p>", "key_press": -1, "trial_type": "single-stim", "trial_index": 247, "time_elapsed": 1266774, "internal_node_id": "0.0-179.0-5.0"}}, {"uniqueid": "MTK0897:37TD41K0AIGOB504UGB812SP687CSJ", "current_trial": 248, "dateTime": 1512866624539, "trialdata": {"rt": -1, "stimulus": "<p id=\"stim\">4</p>", "key_press": -1, "trial_type": "single-stim", "trial_index": 248, "time_elapsed": 1267777, "internal_node_id": "0.0-179.0-6.0"}}, {"uniqueid": "MTK0897:37TD41K0AIGOB504UGB812SP687CSJ", "current_trial": 249, "dateTime": 1512866625539, "trialdata": {"rt": -1, "stimulus": "<p id=\"stim\">3</p>", "key_press": -1, "trial_type": "single-stim", "trial_index": 249, "time_elapsed": 1268777, "internal_node_id": "0.0-179.0-7.0"}}, {"uniqueid": "MTK0897:37TD41K0AIGOB504UGB812SP687CSJ", "current_trial": 250, "dateTime": 1512866626543, "trialdata": {"rt": -1, "stimulus": "<p id=\"stim\">2</p>", "key_press": -1, "trial_type": "single-stim", "trial_index": 250, "time_elapsed": 1269780, "internal_node_id": "0.0-179.0-8.0"}}, {"uniqueid": "MTK0897:37TD41K0AIGOB504UGB812SP687CSJ", "current_trial": 251, "dateTime": 1512866627546, "trialdata": {"rt": -1, "stimulus": "<p id=\"stim\">1</p>", "key_press": -1, "trial_type": "single-stim", "trial_index": 251, "time_elapsed": 1270783, "internal_node_id": "0.0-179.0-9.0"}}, {"uniqueid": "MTK0897:37TD41K0AIGOB504UGB812SP687CSJ", "current_trial": 252, "dateTime": 1512866629048, "trialdata": {"rt": -1, "stimulus": "<p id=\"stim\">+</p>", "key_press": -1, "type": "FIXATION", "trial_type": "single-stim", "trial_index": 252, "time_elapsed": 1272286, "internal_node_id": "0.0-180.0-0.0"}}, {"uniqueid": "MTK0897:37TD41K0AIGOB504UGB812SP687CSJ", "current_trial": 253, "dateTime": 1512866631539, "trialdata": {"rt": -1000, "stimulus": "/static/audio/wordpool/BRACES.wav", "key_press": -1, "type": "PRES_AUD", "word": "braces", "wordID": 163, "conditions": [12, 1600, "a", 24000], "trial": 7, "serialpos": 0, "trial_type": "single-audio", "trial_index": 253, "time_elapsed": 1274777, "internal_node_id": "0.0-181.0"}}, {"uniqueid": "MTK0897:37TD41K0AIGOB504UGB812SP687CSJ", "current_trial": 254, "dateTime": 1512866634322, "trialdata": {"rt": -1000, "stimulus": "/static/audio/wordpool/MILK.wav", "key_press": -1, "type": "PRES_AUD", "word": "milk", "wordID": 894, "conditions": [12, 1600, "a", 24000], "trial": 7, "serialpos": 1, "trial_type": "single-audio", "trial_index": 254, "time_elapsed": 1277559, "internal_node_id": "0.0-182.0"}}, {"uniqueid": "MTK0897:37TD41K0AIGOB504UGB812SP687CSJ", "current_trial": 255, "dateTime": 1512866636911, "trialdata": {"rt": -1000, "stimulus": "/static/audio/wordpool/CONCERT.wav", "key_press": -1, "type": "PRES_AUD", "word": "concert", "wordID": 359, "conditions": [12, 1600, "a", 24000], "trial": 7, "serialpos": 2, "trial_type": "single-audio", "trial_index": 255, "time_elapsed": 1280149, "internal_node_id": "0.0-183.0"}}, {"uniqueid": "MTK0897:37TD41K0AIGOB504UGB812SP687CSJ", "current_trial": 256, "dateTime": 1512866639693, "trialdata": {"rt": -1000, "stimulus": "/static/audio/wordpool/RUST.wav", "key_press": -1, "type": "PRES_AUD", "word": "rust", "wordID": 1218, "conditions": [12, 1600, "a", 24000], "trial": 7, "serialpos": 3, "trial_type": "single-audio", "trial_index": 256, "time_elapsed": 1282931, "internal_node_id": "0.0-184.0"}}, {"uniqueid": "MTK0897:37TD41K0AIGOB504UGB812SP687CSJ", "current_trial": 257, "dateTime": 1512866642191, "trialdata": {"rt": -1000, "stimulus": "/static/audio/wordpool/PLIERS.wav", "key_press": -1, "type": "PRES_AUD", "word": "pliers", "wordID": 1088, "conditions": [12, 1600, "a", 24000], "trial": 7, "serialpos": 4, "trial_type": "single-audio", "trial_index": 257, "time_elapsed": 1285427, "internal_node_id": "0.0-185.0"}}, {"uniqueid": "MTK0897:37TD41K0AIGOB504UGB812SP687CSJ", "current_trial": 258, "dateTime": 1512866644794, "trialdata": {"rt": -1000, "stimulus": "/static/audio/wordpool/CAFE.wav", "key_press": -1, "type": "PRES_AUD", "word": "cafe", "wordID": 215, "conditions": [12, 1600, "a", 24000], "trial": 7, "serialpos": 5, "trial_type": "single-audio", "trial_index": 258, "time_elapsed": 1288032, "internal_node_id": "0.0-186.0"}}, {"uniqueid": "MTK0897:37TD41K0AIGOB504UGB812SP687CSJ", "current_trial": 259, "dateTime": 1512866647269, "trialdata": {"rt": -1000, "stimulus": "/static/audio/wordpool/CRATER.wav", "key_press": -1, "type": "PRES_AUD", "word": "crater", "wordID": 399, "conditions": [12, 1600, "a", 24000], "trial": 7, "serialpos": 6, "trial_type": "single-audio", "trial_index": 259, "time_elapsed": 1290507, "internal_node_id": "0.0-187.0"}}, {"uniqueid": "MTK0897:37TD41K0AIGOB504UGB812SP687CSJ", "current_trial": 260, "dateTime": 1512866649847, "trialdata": {"rt": -1000, "stimulus": "/static/audio/wordpool/STATUE.wav", "key_press": -1, "type": "PRES_AUD", "word": "statue", "wordID": 1373, "conditions": [12, 1600, "a", 24000], "trial": 7, "serialpos": 7, "trial_type": "single-audio", "trial_index": 260, "time_elapsed": 1293085, "internal_node_id": "0.0-188.0"}}, {"uniqueid": "MTK0897:37TD41K0AIGOB504UGB812SP687CSJ", "current_trial": 261, "dateTime": 1512866652439, "trialdata": {"rt": -1000, "stimulus": "/static/audio/wordpool/SCULPTURE.wav", "key_press": -1, "type": "PRES_AUD", "word": "sculpture", "wordID": 1257, "conditions": [12, 1600, "a", 24000], "trial": 7, "serialpos": 8, "trial_type": "single-audio", "trial_index": 261, "time_elapsed": 1295677, "internal_node_id": "0.0-189.0"}}, {"uniqueid": "MTK0897:37TD41K0AIGOB504UGB812SP687CSJ", "current_trial": 262, "dateTime": 1512866654891, "trialdata": {"rt": -1000, "stimulus": "/static/audio/wordpool/LACE.wav", "key_press": -1, "type": "PRES_AUD", "word": "lace", "wordID": 791, "conditions": [12, 1600, "a", 24000], "trial": 7, "serialpos": 9, "trial_type": "single-audio", "trial_index": 262, "time_elapsed": 1298129, "internal_node_id": "0.0-190.0"}}, {"uniqueid": "MTK0897:37TD41K0AIGOB504UGB812SP687CSJ", "current_trial": 263, "dateTime": 1512866657378, "trialdata": {"rt": -1000, "stimulus": "/static/audio/wordpool/TWEEZERS.wav", "key_press": -1, "type": "PRES_AUD", "word": "tweezers", "wordID": 1525, "conditions": [12, 1600, "a", 24000], "trial": 7, "serialpos": 10, "trial_type": "single-audio", "trial_index": 263, "time_elapsed": 1300616, "internal_node_id": "0.0-191.0"}}, {"uniqueid": "MTK0897:37TD41K0AIGOB504UGB812SP687CSJ", "current_trial": 264, "dateTime": 1512866660171, "trialdata": {"rt": -1000, "stimulus": "/static/audio/wordpool/CROSS.wav", "key_press": -1, "type": "PRES_AUD", "word": "cross", "wordID": 412, "conditions": [12, 1600, "a", 24000], "trial": 7, "serialpos": 11, "trial_type": "single-audio", "trial_index": 264, "time_elapsed": 1303409, "internal_node_id": "0.0-192.0"}}, {"uniqueid": "MTK0897:37TD41K0AIGOB504UGB812SP687CSJ", "current_trial": 265, "dateTime": 1512866661379, "trialdata": {"rt": -1, "stimulus": "", "key_press": -1, "type": "PRE_RECALL_DELAY", "trial_type": "single-stim", "trial_index": 265, "time_elapsed": 1304616, "internal_node_id": "0.0-193.0-0.0"}}, {"uniqueid": "MTK0897:37TD41K0AIGOB504UGB812SP687CSJ", "current_trial": 266, "dateTime": 1512866661880, "trialdata": {"rt": -1000, "stimulus": "/static/audio/400Hz.wav", "key_press": -1, "type": "PRE_RECALL_ALERT", "trial_type": "single-audio", "trial_index": 266, "time_elapsed": 1305118, "internal_node_id": "0.0-194.0"}}, {"uniqueid": "MTK0897:37TD41K0AIGOB504UGB812SP687CSJ", "current_trial": 267, "dateTime": 1512866721897, "trialdata": {"rt": [2958, 8792, 12096, 15381, 18253, 20005, 24480, 26718, 28082, 30073, 32927, 45759, 46956, 53593], "recwords": ["cross", "crator", "cross", "statue", "sca", "pture", "scalpture", "concert", "milk", "braces", "coffee", "braces", "milk", "rust"], "type": "FREE_RECALL", "conditions": [12, 1600, "a", 24000], "trial": 7, "trial_type": "free-recall", "trial_index": 267, "time_elapsed": 1365124, "internal_node_id": "0.0-195.0-0.0"}}, {"uniqueid": "MTK0897:37TD41K0AIGOB504UGB812SP687CSJ", "current_trial": 268, "dateTime": 1512866791372, "trialdata": {"rt": 67468, "key_press": 32, "type": "INSTRUCTIONS", "trial_type": "text", "trial_index": 268, "time_elapsed": 1434610, "internal_node_id": "0.0-196.0"}}, {"uniqueid": "MTK0897:37TD41K0AIGOB504UGB812SP687CSJ", "current_trial": 269, "dateTime": 1512866805379, "trialdata": {"rt": [4043, 8269, 10920], "responses": ["19", "21", "17"], "num1": [9, 8, 7, 9], "num2": [7, 6, 1, 6], "num3": [3, 7, 9, 4], "type": "DISTRACTOR", "conditions": [24, 800, "a", 12000], "trial": 8, "trial_type": "math-distractor", "trial_index": 269, "time_elapsed": 1448617, "internal_node_id": "0.0-197.0"}}, {"uniqueid": "MTK0897:37TD41K0AIGOB504UGB812SP687CSJ", "current_trial": 270, "dateTime": 1512866808381, "trialdata": {"rt": -1, "stimulus": "<p id=\"stim\">10</p>", "key_press": -1, "trial_type": "single-stim", "trial_index": 270, "time_elapsed": 1451619, "internal_node_id": "0.0-198.0-0.0"}}, {"uniqueid": "MTK0897:37TD41K0AIGOB504UGB812SP687CSJ", "current_trial": 271, "dateTime": 1512866809384, "trialdata": {"rt": -1, "stimulus": "<p id=\"stim\">9</p>", "key_press": -1, "trial_type": "single-stim", "trial_index": 271, "time_elapsed": 14526