{"condition": 0, "counterbalance": 509, "assignmentId": "3IUZPWIU1PEZ1KT16Y27MA8IGNBKW3", "workerId": "MTK0679", "hitId": "3TC2K6WK9G9R7JVZTNBVJENI2DY826", "currenttrial": 627, "bonus": 0, "data": [{"uniqueid": "MTK0679:3IUZPWIU1PEZ1KT16Y27MA8IGNBKW3", "current_trial": 0, "dateTime": 1512590043514, "trialdata": {"rt": 5282, "key_press": 86, "type": "INSTRUCTIONS", "trial_type": "text", "trial_index": 0, "time_elapsed": 5290, "internal_node_id": "0.0-0.0"}}, {"uniqueid": "MTK0679:3IUZPWIU1PEZ1KT16Y27MA8IGNBKW3", "current_trial": 1, "dateTime": 1512590060162, "trialdata": {"rt": 16643, "key_press": 32, "type": "INSTRUCTIONS", "trial_type": "text", "trial_index": 1, "time_elapsed": 21941, "internal_node_id": "0.0-1.0"}}, {"uniqueid": "MTK0679:3IUZPWIU1PEZ1KT16Y27MA8IGNBKW3", "current_trial": 2, "dateTime": 1512590069205, "trialdata": {"rt": [8982], "responses": ["ocean"], "type": "AUDIO_TEST", "trial_type": "audio-test", "trial_index": 2, "time_elapsed": 30984, "internal_node_id": "0.0-2.0"}}, {"uniqueid": "MTK0679:3IUZPWIU1PEZ1KT16Y27MA8IGNBKW3", "current_trial": 3, "dateTime": 1512590075602, "trialdata": {"rt": [6371], "responses": ["crystal"], "type": "AUDIO_TEST", "trial_type": "audio-test", "trial_index": 3, "time_elapsed": 37380, "internal_node_id": "0.0-3.0"}}, {"uniqueid": "MTK0679:3IUZPWIU1PEZ1KT16Y27MA8IGNBKW3", "current_trial": 4, "dateTime": 1512590090752, "trialdata": {"rt": [15129], "responses": ["spice"], "type": "AUDIO_TEST", "trial_type": "audio-test", "trial_index": 4, "time_elapsed": 52530, "internal_node_id": "0.0-4.0"}}, {"uniqueid": "MTK0679:3IUZPWIU1PEZ1KT16Y27MA8IGNBKW3", "current_trial": 5, "dateTime": 1512590115481, "trialdata": {"rt": 23970, "responses": "{\"Q0\":\"4 am\",\"Q1\":\"1 pm\",\"Q2\":\"5\"}", "type": "SLEEP_SURVEY", "trial_type": "survey-text", "trial_index": 5, "time_elapsed": 77260, "internal_node_id": "0.0-5.0"}}, {"uniqueid": "MTK0679:3IUZPWIU1PEZ1KT16Y27MA8IGNBKW3", "current_trial": 6, "dateTime": 1512590124176, "trialdata": {"rt": 7661, "key_press": 40, "type": "INSTRUCTIONS", "trial_type": "text", "trial_index": 6, "time_elapsed": 85955, "internal_node_id": "0.0-6.0"}}, {"uniqueid": "MTK0679:3IUZPWIU1PEZ1KT16Y27MA8IGNBKW3", "current_trial": 7, "dateTime": 1512590143203, "trialdata": {"rt": 18524, "key_press": 32, "type": "INSTRUCTIONS", "trial_type": "text", "trial_index": 7, "time_elapsed": 104982, "internal_node_id": "0.0-7.0"}}, {"uniqueid": "MTK0679:3IUZPWIU1PEZ1KT16Y27MA8IGNBKW3", "current_trial": 8, "dateTime": 1512590152404, "trialdata": {"rt": 8659, "key_press": 32, "type": "INSTRUCTIONS", "trial_type": "text", "trial_index": 8, "time_elapsed": 114183, "internal_node_id": "0.0-8.0"}}, {"uniqueid": "MTK0679:3IUZPWIU1PEZ1KT16Y27MA8IGNBKW3", "current_trial": 9, "dateTime": 1512590171427, "trialdata": {"rt": [3525, 6758, 6954, 10191, 14321], "responses": ["10", "14", "", "9", "18"], "num1": [1, 9, 6, 3, 7, 8], "num2": [5, 2, 6, 1, 8, 8], "num3": [4, 3, 5, 5, 3, 7], "type": "DISTRACTOR", "conditions": [18, 1200, "a", 18000], "trial": 0, "trial_type": "math-distractor", "trial_index": 9, "time_elapsed": 133206, "internal_node_id": "0.0-9.0"}}, {"uniqueid": "MTK0679:3IUZPWIU1PEZ1KT16Y27MA8IGNBKW3", "current_trial": 10, "dateTime": 1512590174433, "trialdata": {"rt": -1, "stimulus": "<p id=\"stim\">10</p>", "key_press": -1, "trial_type": "single-stim", "trial_index": 10, "time_elapsed": 136211, "internal_node_id": "0.0-10.0-0.0"}}, {"uniqueid": "MTK0679:3IUZPWIU1PEZ1KT16Y27MA8IGNBKW3", "current_trial": 11, "dateTime": 1512590175436, "trialdata": {"rt": -1, "stimulus": "<p id=\"stim\">9</p>", "key_press": -1, "trial_type": "single-stim", "trial_index": 11, "time_elapsed": 137214, "internal_node_id": "0.0-10.0-1.0"}}, {"uniqueid": "MTK0679:3IUZPWIU1PEZ1KT16Y27MA8IGNBKW3", "current_trial": 12, "dateTime": 1512590176438, "trialdata": {"rt": -1, "stimulus": "<p id=\"stim\">8</p>", "key_press": -1, "trial_type": "single-stim", "trial_index": 12, "time_elapsed": 138216, "internal_node_id": "0.0-10.0-2.0"}}, {"uniqueid": "MTK0679:3IUZPWIU1PEZ1KT16Y27MA8IGNBKW3", "current_trial": 13, "dateTime": 1512590177440, "trialdata": {"rt": -1, "stimulus": "<p id=\"stim\">7</p>", "key_press": -1, "trial_type": "single-stim", "trial_index": 13, "time_elapsed": 139219, "internal_node_id": "0.0-10.0-3.0"}}, {"uniqueid": "MTK0679:3IUZPWIU1PEZ1KT16Y27MA8IGNBKW3", "current_trial": 14, "dateTime": 1512590178443, "trialdata": {"rt": -1, "stimulus": "<p id=\"stim\">6</p>", "key_press": -1, "trial_type": "single-stim", "trial_index": 14, "time_elapsed": 140222, "internal_node_id": "0.0-10.0-4.0"}}, {"uniqueid": "MTK0679:3IUZPWIU1PEZ1KT16Y27MA8IGNBKW3", "current_trial": 15, "dateTime": 1512590179447, "trialdata": {"rt": -1, "stimulus": "<p id=\"stim\">5</p>", "key_press": -1, "trial_type": "single-stim", "trial_index": 15, "time_elapsed": 141226, "internal_node_id": "0.0-10.0-5.0"}}, {"uniqueid": "MTK0679:3IUZPWIU1PEZ1KT16Y27MA8IGNBKW3", "current_trial": 16, "dateTime": 1512590180450, "trialdata": {"rt": -1, "stimulus": "<p id=\"stim\">4</p>", "key_press": -1, "trial_type": "single-stim", "trial_index": 16, "time_elapsed": 142229, "internal_node_id": "0.0-10.0-6.0"}}, {"uniqueid": "MTK0679:3IUZPWIU1PEZ1KT16Y27MA8IGNBKW3", "current_trial": 17, "dateTime": 1512590181464, "trialdata": {"rt": -1, "stimulus": "<p id=\"stim\">3</p>", "key_press": -1, "trial_type": "single-stim", "trial_index": 17, "time_elapsed": 143243, "internal_node_id": "0.0-10.0-7.0"}}, {"uniqueid": "MTK0679:3IUZPWIU1PEZ1KT16Y27MA8IGNBKW3", "current_trial": 18, "dateTime": 1512590182473, "trialdata": {"rt": -1, "stimulus": "<p id=\"stim\">2</p>", "key_press": -1, "trial_type": "single-stim", "trial_index": 18, "time_elapsed": 144251, "internal_node_id": "0.0-10.0-8.0"}}, {"uniqueid": "MTK0679:3IUZPWIU1PEZ1KT16Y27MA8IGNBKW3", "current_trial": 19, "dateTime": 1512590183476, "trialdata": {"rt": -1, "stimulus": "<p id=\"stim\">1</p>", "key_press": -1, "trial_type": "single-stim", "trial_index": 19, "time_elapsed": 145254, "internal_node_id": "0.0-10.0-9.0"}}, {"uniqueid": "MTK0679:3IUZPWIU1PEZ1KT16Y27MA8IGNBKW3", "current_trial": 20, "dateTime": 1512590184982, "trialdata": {"rt": -1, "stimulus": "<p id=\"stim\">+</p>", "key_press": -1, "type": "FIXATION", "trial_type": "single-stim", "trial_index": 20, "time_elapsed": 146761, "internal_node_id": "0.0-11.0-0.0"}}, {"uniqueid": "MTK0679:3IUZPWIU1PEZ1KT16Y27MA8IGNBKW3", "current_trial": 21, "dateTime": 1512590187359, "trialdata": {"rt": -1000, "stimulus": "/static/audio/wordpool/AWARD.wav", "key_press": -1, "type": "PRES_AUD", "word": "award", "wordID": 62, "conditions": [18, 1200, "a", 18000], "trial": 0, "serialpos": 0, "trial_type": "single-audio", "trial_index": 21, "time_elapsed": 149137, "internal_node_id": "0.0-12.0"}}, {"uniqueid": "MTK0679:3IUZPWIU1PEZ1KT16Y27MA8IGNBKW3", "current_trial": 22, "dateTime": 1512590189533, "trialdata": {"rt": -1000, "stimulus": "/static/audio/wordpool/DRILL.wav", "key_press": -1, "type": "PRES_AUD", "word": "drill", "wordID": 496, "conditions": [18, 1200, "a", 18000], "trial": 0, "serialpos": 1, "trial_type": "single-audio", "trial_index": 22, "time_elapsed": 151311, "internal_node_id": "0.0-13.0"}}, {"uniqueid": "MTK0679:3IUZPWIU1PEZ1KT16Y27MA8IGNBKW3", "current_trial": 23, "dateTime": 1512590191707, "trialdata": {"rt": -1000, "stimulus": "/static/audio/wordpool/MARROW.wav", "key_press": -1, "type": "PRES_AUD", "word": "marrow", "wordID": 871, "conditions": [18, 1200, "a", 18000], "trial": 0, "serialpos": 2, "trial_type": "single-audio", "trial_index": 23, "time_elapsed": 153485, "internal_node_id": "0.0-14.0"}}, {"uniqueid": "MTK0679:3IUZPWIU1PEZ1KT16Y27MA8IGNBKW3", "current_trial": 24, "dateTime": 1512590193813, "trialdata": {"rt": -1000, "stimulus": "/static/audio/wordpool/LUGGAGE.wav", "key_press": -1, "type": "PRES_AUD", "word": "luggage", "wordID": 846, "conditions": [18, 1200, "a", 18000], "trial": 0, "serialpos": 3, "trial_type": "single-audio", "trial_index": 24, "time_elapsed": 155592, "internal_node_id": "0.0-15.0"}}, {"uniqueid": "MTK0679:3IUZPWIU1PEZ1KT16Y27MA8IGNBKW3", "current_trial": 25, "dateTime": 1512590196064, "trialdata": {"rt": -1000, "stimulus": "/static/audio/wordpool/WRENCH.wav", "key_press": -1, "type": "PRES_AUD", "word": "wrench", "wordID": 1624, "conditions": [18, 1200, "a", 18000], "trial": 0, "serialpos": 4, "trial_type": "single-audio", "trial_index": 25, "time_elapsed": 157842, "internal_node_id": "0.0-16.0"}}, {"uniqueid": "MTK0679:3IUZPWIU1PEZ1KT16Y27MA8IGNBKW3", "current_trial": 26, "dateTime": 1512590198400, "trialdata": {"rt": -1000, "stimulus": "/static/audio/wordpool/CONTRACT.wav", "key_press": -1, "type": "PRES_AUD", "word": "contract", "wordID": 367, "conditions": [18, 1200, "a", 18000], "trial": 0, "serialpos": 5, "trial_type": "single-audio", "trial_index": 26, "time_elapsed": 160178, "internal_node_id": "0.0-17.0"}}, {"uniqueid": "MTK0679:3IUZPWIU1PEZ1KT16Y27MA8IGNBKW3", "current_trial": 27, "dateTime": 1512590200515, "trialdata": {"rt": -1000, "stimulus": "/static/audio/wordpool/GYMNAST.wav", "key_press": -1, "type": "PRES_AUD", "word": "gymnast", "wordID": 674, "conditions": [18, 1200, "a", 18000], "trial": 0, "serialpos": 6, "trial_type": "single-audio", "trial_index": 27, "time_elapsed": 162294, "internal_node_id": "0.0-18.0"}}, {"uniqueid": "MTK0679:3IUZPWIU1PEZ1KT16Y27MA8IGNBKW3", "current_trial": 28, "dateTime": 1512590202598, "trialdata": {"rt": -1000, "stimulus": "/static/audio/wordpool/SURVEY.wav", "key_press": -1, "type": "PRES_AUD", "word": "survey", "wordID": 1413, "conditions": [18, 1200, "a", 18000], "trial": 0, "serialpos": 7, "trial_type": "single-audio", "trial_index": 28, "time_elapsed": 164377, "internal_node_id": "0.0-19.0"}}, {"uniqueid": "MTK0679:3IUZPWIU1PEZ1KT16Y27MA8IGNBKW3", "current_trial": 29, "dateTime": 1512590204893, "trialdata": {"rt": -1000, "stimulus": "/static/audio/wordpool/BOUQUET.wav", "key_press": -1, "type": "PRES_AUD", "word": "bouquet", "wordID": 156, "conditions": [18, 1200, "a", 18000], "trial": 0, "serialpos": 8, "trial_type": "single-audio", "trial_index": 29, "time_elapsed": 166672, "internal_node_id": "0.0-20.0"}}, {"uniqueid": "MTK0679:3IUZPWIU1PEZ1KT16Y27MA8IGNBKW3", "current_trial": 30, "dateTime": 1512590207144, "trialdata": {"rt": -1000, "stimulus": "/static/audio/wordpool/FRIEND.wav", "key_press": -1, "type": "PRES_AUD", "word": "friend", "wordID": 605, "conditions": [18, 1200, "a", 18000], "trial": 0, "serialpos": 9, "trial_type": "single-audio", "trial_index": 30, "time_elapsed": 168922, "internal_node_id": "0.0-21.0"}}, {"uniqueid": "MTK0679:3IUZPWIU1PEZ1KT16Y27MA8IGNBKW3", "current_trial": 31, "dateTime": 1512590209329, "trialdata": {"rt": -1000, "stimulus": "/static/audio/wordpool/PALACE.wav", "key_press": -1, "type": "PRES_AUD", "word": "palace", "wordID": 1005, "conditions": [18, 1200, "a", 18000], "trial": 0, "serialpos": 10, "trial_type": "single-audio", "trial_index": 31, "time_elapsed": 171107, "internal_node_id": "0.0-22.0"}}, {"uniqueid": "MTK0679:3IUZPWIU1PEZ1KT16Y27MA8IGNBKW3", "current_trial": 32, "dateTime": 1512590211711, "trialdata": {"rt": -1000, "stimulus": "/static/audio/wordpool/HEDGE.wav", "key_press": -1, "type": "PRES_AUD", "word": "hedge", "wordID": 698, "conditions": [18, 1200, "a", 18000], "trial": 0, "serialpos": 11, "trial_type": "single-audio", "trial_index": 32, "time_elapsed": 173490, "internal_node_id": "0.0-23.0"}}, {"uniqueid": "MTK0679:3IUZPWIU1PEZ1KT16Y27MA8IGNBKW3", "current_trial": 33, "dateTime": 1512590213893, "trialdata": {"rt": -1000, "stimulus": "/static/audio/wordpool/SIDEWALK.wav", "key_press": -1, "type": "PRES_AUD", "word": "sidewalk", "wordID": 1302, "conditions": [18, 1200, "a", 18000], "trial": 0, "serialpos": 12, "trial_type": "single-audio", "trial_index": 33, "time_elapsed": 175672, "internal_node_id": "0.0-24.0"}}, {"uniqueid": "MTK0679:3IUZPWIU1PEZ1KT16Y27MA8IGNBKW3", "current_trial": 34, "dateTime": 1512590215992, "trialdata": {"rt": -1000, "stimulus": "/static/audio/wordpool/SHORTCAKE.wav", "key_press": -1, "type": "PRES_AUD", "word": "shortcake", "wordID": 1291, "conditions": [18, 1200, "a", 18000], "trial": 0, "serialpos": 13, "trial_type": "single-audio", "trial_index": 34, "time_elapsed": 177771, "internal_node_id": "0.0-25.0"}}, {"uniqueid": "MTK0679:3IUZPWIU1PEZ1KT16Y27MA8IGNBKW3", "current_trial": 35, "dateTime": 1512590218328, "trialdata": {"rt": -1000, "stimulus": "/static/audio/wordpool/PRINCESS.wav", "key_press": -1, "type": "PRES_AUD", "word": "princess", "wordID": 1124, "conditions": [18, 1200, "a", 18000], "trial": 0, "serialpos": 14, "trial_type": "single-audio", "trial_index": 35, "time_elapsed": 180105, "internal_node_id": "0.0-26.0"}}, {"uniqueid": "MTK0679:3IUZPWIU1PEZ1KT16Y27MA8IGNBKW3", "current_trial": 36, "dateTime": 1512590220728, "trialdata": {"rt": -1000, "stimulus": "/static/audio/wordpool/PIGEON.wav", "key_press": -1, "type": "PRES_AUD", "word": "pigeon", "wordID": 1064, "conditions": [18, 1200, "a", 18000], "trial": 0, "serialpos": 15, "trial_type": "single-audio", "trial_index": 36, "time_elapsed": 182507, "internal_node_id": "0.0-27.0"}}, {"uniqueid": "MTK0679:3IUZPWIU1PEZ1KT16Y27MA8IGNBKW3", "current_trial": 37, "dateTime": 1512590222799, "trialdata": {"rt": -1000, "stimulus": "/static/audio/wordpool/STAMP.wav", "key_press": -1, "type": "PRES_AUD", "word": "stamp", "wordID": 1369, "conditions": [18, 1200, "a", 18000], "trial": 0, "serialpos": 16, "trial_type": "single-audio", "trial_index": 37, "time_elapsed": 184578, "internal_node_id": "0.0-28.0"}}, {"uniqueid": "MTK0679:3IUZPWIU1PEZ1KT16Y27MA8IGNBKW3", "current_trial": 38, "dateTime": 1512590225109, "trialdata": {"rt": -1000, "stimulus": "/static/audio/wordpool/SOFTBALL.wav", "key_press": -1, "type": "PRES_AUD", "word": "softball", "wordID": 1342, "conditions": [18, 1200, "a", 18000], "trial": 0, "serialpos": 17, "trial_type": "single-audio", "trial_index": 38, "time_elapsed": 186888, "internal_node_id": "0.0-29.0"}}, {"uniqueid": "MTK0679:3IUZPWIU1PEZ1KT16Y27MA8IGNBKW3", "current_trial": 39, "dateTime": 1512590226342, "trialdata": {"rt": -1, "stimulus": "", "key_press": -1, "type": "PRE_RECALL_DELAY", "trial_type": "single-stim", "trial_index": 39, "time_elapsed": 188120, "internal_node_id": "0.0-30.0-0.0"}}, {"uniqueid": "MTK0679:3IUZPWIU1PEZ1KT16Y27MA8IGNBKW3", "current_trial": 40, "dateTime": 1512590226858, "trialdata": {"rt": -1000, "stimulus": "/static/audio/400Hz.wav", "key_press": -1, "type": "PRE_RECALL_ALERT", "trial_type": "single-audio", "trial_index": 40, "time_elapsed": 188637, "internal_node_id": "0.0-31.0"}}, {"uniqueid": "MTK0679:3IUZPWIU1PEZ1KT16Y27MA8IGNBKW3", "current_trial": 41, "dateTime": 1512590286883, "trialdata": {"rt": [7603, 9962, 12743, 14441, 19357, 24272, 32084, 34501, 58096], "recwords": ["softball", "stamp", "pigeon", "award", "bouquet", "marrow", "shortcake", "princess", "wrench"], "type": "FREE_RECALL", "conditions": [18, 1200, "a", 18000], "trial": 0, "trial_type": "free-recall", "trial_index": 41, "time_elapsed": 248651, "internal_node_id": "0.0-32.0-0.0"}}, {"uniqueid": "MTK0679:3IUZPWIU1PEZ1KT16Y27MA8IGNBKW3", "current_trial": 42, "dateTime": 1512590290585, "trialdata": {"rt": 1698, "key_press": 32, "type": "INSTRUCTIONS", "trial_type": "text", "trial_index": 42, "time_elapsed": 252364, "internal_node_id": "0.0-33.0"}}, {"uniqueid": "MTK0679:3IUZPWIU1PEZ1KT16Y27MA8IGNBKW3", "current_trial": 43, "dateTime": 1512590310620, "trialdata": {"rt": [2658, 5300, 8309, 10646, 12059, 14040, 17273], "responses": ["19", "17", "13", "10", "9", "13", "14"], "num1": [9, 9, 2, 2, 3, 3, 7, 8], "num2": [7, 6, 4, 6, 3, 2, 2, 6], "num3": [3, 2, 7, 2, 3, 8, 5, 2], "type": "DISTRACTOR", "conditions": [18, 1200, "v", 18000], "trial": 1, "trial_type": "math-distractor", "trial_index": 43, "time_elapsed": 272398, "internal_node_id": "0.0-34.0"}}, {"uniqueid": "MTK0679:3IUZPWIU1PEZ1KT16Y27MA8IGNBKW3", "current_trial": 44, "dateTime": 1512590313683, "trialdata": {"rt": -1, "stimulus": "<p id=\"stim\">10</p>", "key_press": -1, "trial_type": "single-stim", "trial_index": 44, "time_elapsed": 275462, "internal_node_id": "0.0-35.0-0.0"}}, {"uniqueid": "MTK0679:3IUZPWIU1PEZ1KT16Y27MA8IGNBKW3", "current_trial": 45, "dateTime": 1512590314686, "trialdata": {"rt": -1, "stimulus": "<p id=\"stim\">9</p>", "key_press": -1, "trial_type": "single-stim", "trial_index": 45, "time_elapsed": 276464, "internal_node_id": "0.0-35.0-1.0"}}, {"uniqueid": "MTK0679:3IUZPWIU1PEZ1KT16Y27MA8IGNBKW3", "current_trial": 46, "dateTime": 1512590315689, "trialdata": {"rt": -1, "stimulus": "<p id=\"stim\">8</p>", "key_press": -1, "trial_type": "single-stim", "trial_index": 46, "time_elapsed": 277468, "internal_node_id": "0.0-35.0-2.0"}}, {"uniqueid": "MTK0679:3IUZPWIU1PEZ1KT16Y27MA8IGNBKW3", "current_trial": 47, "dateTime": 1512590316692, "trialdata": {"rt": -1, "stimulus": "<p id=\"stim\">7</p>", "key_press": -1, "trial_type": "single-stim", "trial_index": 47, "time_elapsed": 278471, "internal_node_id": "0.0-35.0-3.0"}}, {"uniqueid": "MTK0679:3IUZPWIU1PEZ1KT16Y27MA8IGNBKW3", "current_trial": 48, "dateTime": 1512590317700, "trialdata": {"rt": -1, "stimulus": "<p id=\"stim\">6</p>", "key_press": -1, "trial_type": "single-stim", "trial_index": 48, "time_elapsed": 279479, "internal_node_id": "0.0-35.0-4.0"}}, {"uniqueid": "MTK0679:3IUZPWIU1PEZ1KT16Y27MA8IGNBKW3", "current_trial": 49, "dateTime": 1512590318706, "trialdata": {"rt": -1, "stimulus": "<p id=\"stim\">5</p>", "key_press": -1, "trial_type": "single-stim", "trial_index": 49, "time_elapsed": 280484, "internal_node_id": "0.0-35.0-5.0"}}, {"uniqueid": "MTK0679:3IUZPWIU1PEZ1KT16Y27MA8IGNBKW3", "current_trial": 50, "dateTime": 1512590319708, "trialdata": {"rt": -1, "stimulus": "<p id=\"stim\">4</p>", "key_press": -1, "trial_type": "single-stim", "trial_index": 50, "time_elapsed": 281486, "internal_node_id": "0.0-35.0-6.0"}}, {"uniqueid": "MTK0679:3IUZPWIU1PEZ1KT16Y27MA8IGNBKW3", "current_trial": 51, "dateTime": 1512590320710, "trialdata": {"rt": -1, "stimulus": "<p id=\"stim\">3</p>", "key_press": -1, "trial_type": "single-stim", "trial_index": 51, "time_elapsed": 282489, "internal_node_id": "0.0-35.0-7.0"}}, {"uniqueid": "MTK0679:3IUZPWIU1PEZ1KT16Y27MA8IGNBKW3", "current_trial": 52, "dateTime": 1512590321717, "trialdata": {"rt": -1, "stimulus": "<p id=\"stim\">2</p>", "key_press": -1, "trial_type": "single-stim", "trial_index": 52, "time_elapsed": 283496, "internal_node_id": "0.0-35.0-8.0"}}, {"uniqueid": "MTK0679:3IUZPWIU1PEZ1KT16Y27MA8IGNBKW3", "current_trial": 53, "dateTime": 1512590322726, "trialdata": {"rt": -1, "stimulus": "<p id=\"stim\">1</p>", "key_press": -1, "trial_type": "single-stim", "trial_index": 53, "time_elapsed": 284505, "internal_node_id": "0.0-35.0-9.0"}}, {"uniqueid": "MTK0679:3IUZPWIU1PEZ1KT16Y27MA8IGNBKW3", "current_trial": 54, "dateTime": 1512590324230, "trialdata": {"rt": -1, "stimulus": "<p id=\"stim\">+</p>", "key_press": -1, "type": "FIXATION", "trial_type": "single-stim", "trial_index": 54, "time_elapsed": 286008, "internal_node_id": "0.0-36.0-0.0"}}, {"uniqueid": "MTK0679:3IUZPWIU1PEZ1KT16Y27MA8IGNBKW3", "current_trial": 55, "dateTime": 1512590325434, "trialdata": {"rt": -1, "stimulus": "<p id=\"stim\">STAR</p>", "key_press": -1, "type": "PRES_VIS", "word": "star", "wordID": 1372, "conditions": [18, 1200, "v", 18000], "trial": 1, "serialpos": 0, "trial_type": "single-stim", "trial_index": 55, "time_elapsed": 287212, "internal_node_id": "0.0-37.0"}}, {"uniqueid": "MTK0679:3IUZPWIU1PEZ1KT16Y27MA8IGNBKW3", "current_trial": 56, "dateTime": 1512590327538, "trialdata": {"rt": -1, "stimulus": "<p id=\"stim\">STALLION</p>", "key_press": -1, "type": "PRES_VIS", "word": "stallion", "wordID": 1368, "conditions": [18, 1200, "v", 18000], "trial": 1, "serialpos": 1, "trial_type": "single-stim", "trial_index": 56, "time_elapsed": 289316, "internal_node_id": "0.0-38.0"}}, {"uniqueid": "MTK0679:3IUZPWIU1PEZ1KT16Y27MA8IGNBKW3", "current_trial": 57, "dateTime": 1512590329809, "trialdata": {"rt": -1, "stimulus": "<p id=\"stim\">SODA</p>", "key_press": -1, "type": "PRES_VIS", "word": "soda", "wordID": 1340, "conditions": [18, 1200, "v", 18000], "trial": 1, "serialpos": 2, "trial_type": "single-stim", "trial_index": 57, "time_elapsed": 291588, "internal_node_id": "0.0-39.0"}}, {"uniqueid": "MTK0679:3IUZPWIU1PEZ1KT16Y27MA8IGNBKW3", "current_trial": 58, "dateTime": 1512590331841, "trialdata": {"rt": -1, "stimulus": "<p id=\"stim\">ORCHID</p>", "key_press": -1, "type": "PRES_VIS", "word": "orchid", "wordID": 981, "conditions": [18, 1200, "v", 18000], "trial": 1, "serialpos": 3, "trial_type": "single-stim", "trial_index": 58, "time_elapsed": 293620, "internal_node_id": "0.0-40.0"}}, {"uniqueid": "MTK0679:3IUZPWIU1PEZ1KT16Y27MA8IGNBKW3", "current_trial": 59, "dateTime": 1512590334072, "trialdata": {"rt": -1, "stimulus": "<p id=\"stim\">CATTLE</p>", "key_press": -1, "type": "PRES_VIS", "word": "cattle", "wordID": 260, "conditions": [18, 1200, "v", 18000], "trial": 1, "serialpos": 4, "trial_type": "single-stim", "trial_index": 59, "time_elapsed": 295850, "internal_node_id": "0.0-41.0"}}, {"uniqueid": "MTK0679:3IUZPWIU1PEZ1KT16Y27MA8IGNBKW3", "current_trial": 60, "dateTime": 1512590336377, "trialdata": {"rt": -1, "stimulus": "<p id=\"stim\">OYSTER</p>", "key_press": -1, "type": "PRES_VIS", "word": "oyster", "wordID": 994, "conditions": [18, 1200, "v", 18000], "trial": 1, "serialpos": 5, "trial_type": "single-stim", "trial_index": 60, "time_elapsed": 298155, "internal_node_id": "0.0-42.0"}}, {"uniqueid": "MTK0679:3IUZPWIU1PEZ1KT16Y27MA8IGNBKW3", "current_trial": 61, "dateTime": 1512590338657, "trialdata": {"rt": -1, "stimulus": "<p id=\"stim\">PIZZA</p>", "key_press": -1, "type": "PRES_VIS", "word": "pizza", "wordID": 1078, "conditions": [18, 1200, "v", 18000], "trial": 1, "serialpos": 6, "trial_type": "single-stim", "trial_index": 61, "time_elapsed": 300436, "internal_node_id": "0.0-43.0"}}, {"uniqueid": "MTK0679:3IUZPWIU1PEZ1KT16Y27MA8IGNBKW3", "current_trial": 62, "dateTime": 1512590340766, "trialdata": {"rt": -1, "stimulus": "<p id=\"stim\">HEART</p>", "key_press": -1, "type": "PRES_VIS", "word": "heart", "wordID": 696, "conditions": [18, 1200, "v", 18000], "trial": 1, "serialpos": 7, "trial_type": "single-stim", "trial_index": 62, "time_elapsed": 302545, "internal_node_id": "0.0-44.0"}}, {"uniqueid": "MTK0679:3IUZPWIU1PEZ1KT16Y27MA8IGNBKW3", "current_trial": 63, "dateTime": 1512590343119, "trialdata": {"rt": -1, "stimulus": "<p id=\"stim\">LAPEL</p>", "key_press": -1, "type": "PRES_VIS", "word": "lapel", "wordID": 799, "conditions": [18, 1200, "v", 18000], "trial": 1, "serialpos": 8, "trial_type": "single-stim", "trial_index": 63, "time_elapsed": 304897, "internal_node_id": "0.0-45.0"}}, {"uniqueid": "MTK0679:3IUZPWIU1PEZ1KT16Y27MA8IGNBKW3", "current_trial": 64, "dateTime": 1512590345363, "trialdata": {"rt": -1, "stimulus": "<p id=\"stim\">TABLET</p>", "key_press": -1, "type": "PRES_VIS", "word": "tablet", "wordID": 1426, "conditions": [18, 1200, "v", 18000], "trial": 1, "serialpos": 9, "trial_type": "single-stim", "trial_index": 64, "time_elapsed": 307142, "internal_node_id": "0.0-46.0"}}, {"uniqueid": "MTK0679:3IUZPWIU1PEZ1KT16Y27MA8IGNBKW3", "current_trial": 65, "dateTime": 1512590347399, "trialdata": {"rt": -1, "stimulus": "<p id=\"stim\">MOP</p>", "key_press": -1, "type": "PRES_VIS", "word": "mop", "wordID": 915, "conditions": [18, 1200, "v", 18000], "trial": 1, "serialpos": 10, "trial_type": "single-stim", "trial_index": 65, "time_elapsed": 309177, "internal_node_id": "0.0-47.0"}}, {"uniqueid": "MTK0679:3IUZPWIU1PEZ1KT16Y27MA8IGNBKW3", "current_trial": 66, "dateTime": 1512590349542, "trialdata": {"rt": -1, "stimulus": "<p id=\"stim\">TERMITE</p>", "key_press": -1, "type": "PRES_VIS", "word": "termite", "wordID": 1450, "conditions": [18, 1200, "v", 18000], "trial": 1, "serialpos": 11, "trial_type": "single-stim", "trial_index": 66, "time_elapsed": 311321, "internal_node_id": "0.0-48.0"}}, {"uniqueid": "MTK0679:3IUZPWIU1PEZ1KT16Y27MA8IGNBKW3", "current_trial": 67, "dateTime": 1512590351774, "trialdata": {"rt": -1, "stimulus": "<p id=\"stim\">ONION</p>", "key_press": -1, "type": "PRES_VIS", "word": "onion", "wordID": 976, "conditions": [18, 1200, "v", 18000], "trial": 1, "serialpos": 12, "trial_type": "single-stim", "trial_index": 67, "time_elapsed": 313553, "internal_node_id": "0.0-49.0"}}, {"uniqueid": "MTK0679:3IUZPWIU1PEZ1KT16Y27MA8IGNBKW3", "current_trial": 68, "dateTime": 1512590353857, "trialdata": {"rt": -1, "stimulus": "<p id=\"stim\">JELLO</p>", "key_press": -1, "type": "PRES_VIS", "word": "jello", "wordID": 753, "conditions": [18, 1200, "v", 18000], "trial": 1, "serialpos": 13, "trial_type": "single-stim", "trial_index": 68, "time_elapsed": 315627, "internal_node_id": "0.0-50.0"}}, {"uniqueid": "MTK0679:3IUZPWIU1PEZ1KT16Y27MA8IGNBKW3", "current_trial": 69, "dateTime": 1512590356200, "trialdata": {"rt": -1, "stimulus": "<p id=\"stim\">WHISTLE</p>", "key_press": -1, "type": "PRES_VIS", "word": "whistle", "wordID": 1605, "conditions": [18, 1200, "v", 18000], "trial": 1, "serialpos": 14, "trial_type": "single-stim", "trial_index": 69, "time_elapsed": 317979, "internal_node_id": "0.0-51.0"}}, {"uniqueid": "MTK0679:3IUZPWIU1PEZ1KT16Y27MA8IGNBKW3", "current_trial": 70, "dateTime": 1512590358426, "trialdata": {"rt": -1, "stimulus": "<p id=\"stim\">RATTLE</p>", "key_press": -1, "type": "PRES_VIS", "word": "rattle", "wordID": 1169, "conditions": [18, 1200, "v", 18000], "trial": 1, "serialpos": 15, "trial_type": "single-stim", "trial_index": 70, "time_elapsed": 320205, "internal_node_id": "0.0-52.0"}}, {"uniqueid": "MTK0679:3IUZPWIU1PEZ1KT16Y27MA8IGNBKW3", "current_trial": 71, "dateTime": 1512590360585, "trialdata": {"rt": -1, "stimulus": "<p id=\"stim\">LAVA</p>", "key_press": -1, "type": "PRES_VIS", "word": "lava", "wordID": 803, "conditions": [18, 1200, "v", 18000], "trial": 1, "serialpos": 16, "trial_type": "single-stim", "trial_index": 71, "time_elapsed": 322364, "internal_node_id": "0.0-53.0"}}, {"uniqueid": "MTK0679:3IUZPWIU1PEZ1KT16Y27MA8IGNBKW3", "current_trial": 72, "dateTime": 1512590362887, "trialdata": {"rt": -1, "stimulus": "<p id=\"stim\">KETCHUP</p>", "key_press": -1, "type": "PRES_VIS", "word": "ketchup", "wordID": 770, "conditions": [18, 1200, "v", 18000], "trial": 1, "serialpos": 17, "trial_type": "single-stim", "trial_index": 72, "time_elapsed": 324665, "internal_node_id": "0.0-54.0"}}, {"uniqueid": "MTK0679:3IUZPWIU1PEZ1KT16Y27MA8IGNBKW3", "current_trial": 73, "dateTime": 1512590365034, "trialdata": {"rt": -1, "stimulus": "", "key_press": -1, "type": "PRE_RECALL_DELAY", "trial_type": "single-stim", "trial_index": 73, "time_elapsed": 326812, "internal_node_id": "0.0-55.0-0.0"}}, {"uniqueid": "MTK0679:3IUZPWIU1PEZ1KT16Y27MA8IGNBKW3", "current_trial": 74, "dateTime": 1512590365540, "trialdata": {"rt": -1000, "stimulus": "/static/audio/400Hz.wav", "key_press": -1, "type": "PRE_RECALL_ALERT", "trial_type": "single-audio", "trial_index": 74, "time_elapsed": 327319, "internal_node_id": "0.0-56.0"}}, {"uniqueid": "MTK0679:3IUZPWIU1PEZ1KT16Y27MA8IGNBKW3", "current_trial": 75, "dateTime": 1512590425559, "trialdata": {"rt": [2890, 4486, 8144, 11105, 13029, 15057, 18676, 25331], "recwords": ["star", "horse", "stallion", "heart", "pizza", "ketchup", "lapel", "jello"], "type": "FREE_RECALL", "conditions": [18, 1200, "v", 18000], "trial": 1, "trial_type": "free-recall", "trial_index": 75, "time_elapsed": 387328, "internal_node_id": "0.0-57.0-0.0"}}, {"uniqueid": "MTK0679:3IUZPWIU1PEZ1KT16Y27MA8IGNBKW3", "current_trial": 76, "dateTime": 1512590430668, "trialdata": {"rt": 3088, "key_press": 32, "type": "INSTRUCTIONS", "trial_type": "text", "trial_index": 76, "time_elapsed": 392432, "internal_node_id": "0.0-58.0"}}, {"uniqueid": "MTK0679:3IUZPWIU1PEZ1KT16Y27MA8IGNBKW3", "current_trial": 77, "dateTime": 1512590455681, "trialdata": {"rt": [3511, 6335, 9259, 11372, 13386, 14959, 16438, 19011, 22129, 23769], "responses": ["10", "17", "13", "17", "17", "6", "6", "16", "13", "11"], "num1": [3, 6, 1, 7, 2, 1, 1, 9, 5, 1, 7], "num2": [4, 2, 5, 4, 8, 4, 3, 5, 3, 2, 5], "num3": [3, 9, 7, 6, 7, 1, 2, 2, 5, 8, 9], "type": "DISTRACTOR", "conditions": [12, 1600, "v", 24000], "trial": 2, "trial_type": "math-distractor", "trial_index": 77, "time_elapsed": 417459, "internal_node_id": "0.0-59.0"}}, {"uniqueid": "MTK0679:3IUZPWIU1PEZ1KT16Y27MA8IGNBKW3", "current_trial": 78, "dateTime": 1512590458684, "trialdata": {"rt": -1, "stimulus": "<p id=\"stim\">10</p>", "key_press": -1, "trial_type": "single-stim", "trial_index": 78, "time_elapsed": 420462, "internal_node_id": "0.0-60.0-0.0"}}, {"uniqueid": "MTK0679:3IUZPWIU1PEZ1KT16Y27MA8IGNBKW3", "current_trial": 79, "dateTime": 1512590459687, "trialdata": {"rt": -1, "stimulus": "<p id=\"stim\">9</p>", "key_press": -1, "trial_type": "single-stim", "trial_index": 79, "time_elapsed": 421465, "internal_node_id": "0.0-60.0-1.0"}}, {"uniqueid": "MTK0679:3IUZPWIU1PEZ1KT16Y27MA8IGNBKW3", "current_trial": 80, "dateTime": 1512590460688, "trialdata": {"rt": -1, "stimulus": "<p id=\"stim\">8</p>", "key_press": -1, "trial_type": "single-stim", "trial_index": 80, "time_elapsed": 422467, "internal_node_id": "0.0-60.0-2.0"}}, {"uniqueid": "MTK0679:3IUZPWIU1PEZ1KT16Y27MA8IGNBKW3", "current_trial": 81, "dateTime": 1512590461696, "trialdata": {"rt": -1, "stimulus": "<p id=\"stim\">7</p>", "key_press": -1, "trial_type": "single-stim", "trial_index": 81, "time_elapsed": 423474, "internal_node_id": "0.0-60.0-3.0"}}, {"uniqueid": "MTK0679:3IUZPWIU1PEZ1KT16Y27MA8IGNBKW3", "current_trial": 82, "dateTime": 1512590462700, "trialdata": {"rt": -1, "stimulus": "<p id=\"stim\">6</p>", "key_press": -1, "trial_type": "single-stim", "trial_index": 82, "time_elapsed": 424479, "internal_node_id": "0.0-60.0-4.0"}}, {"uniqueid": "MTK0679:3IUZPWIU1PEZ1KT16Y27MA8IGNBKW3", "current_trial": 83, "dateTime": 1512590463703, "trialdata": {"rt": -1, "stimulus": "<p id=\"stim\">5</p>", "key_press": -1, "trial_type": "single-stim", "trial_index": 83, "time_elapsed": 425481, "internal_node_id": "0.0-60.0-5.0"}}, {"uniqueid": "MTK0679:3IUZPWIU1PEZ1KT16Y27MA8IGNBKW3", "current_trial": 84, "dateTime": 1512590464709, "trialdata": {"rt": -1, "stimulus": "<p id=\"stim\">4</p>", "key_press": -1, "trial_type": "single-stim", "trial_index": 84, "time_elapsed": 426488, "internal_node_id": "0.0-60.0-6.0"}}, {"uniqueid": "MTK0679:3IUZPWIU1PEZ1KT16Y27MA8IGNBKW3", "current_trial": 85, "dateTime": 1512590465712, "trialdata": {"rt": -1, "stimulus": "<p id=\"stim\">3</p>", "key_press": -1, "trial_type": "single-stim", "trial_index": 85, "time_elapsed": 427490, "internal_node_id": "0.0-60.0-7.0"}}, {"uniqueid": "MTK0679:3IUZPWIU1PEZ1KT16Y27MA8IGNBKW3", "current_trial": 86, "dateTime": 1512590466715, "trialdata": {"rt": -1, "stimulus": "<p id=\"stim\">2</p>", "key_press": -1, "trial_type": "single-stim", "trial_index": 86, "time_elapsed": 428494, "internal_node_id": "0.0-60.0-8.0"}}, {"uniqueid": "MTK0679:3IUZPWIU1PEZ1KT16Y27MA8IGNBKW3", "current_trial": 87, "dateTime": 1512590467718, "trialdata": {"rt": -1, "stimulus": "<p id=\"stim\">1</p>", "key_press": -1, "trial_type": "single-stim", "trial_index": 87, "time_elapsed": 429496, "internal_node_id": "0.0-60.0-9.0"}}, {"uniqueid": "MTK0679:3IUZPWIU1PEZ1KT16Y27MA8IGNBKW3", "current_trial": 88, "dateTime": 1512590469221, "trialdata": {"rt": -1, "stimulus": "<p id=\"stim\">+</p>", "key_press": -1, "type": "FIXATION", "trial_type": "single-stim", "trial_index": 88, "time_elapsed": 431000, "internal_node_id": "0.0-61.0-0.0"}}, {"uniqueid": "MTK0679:3IUZPWIU1PEZ1KT16Y27MA8IGNBKW3", "current_trial": 89, "dateTime": 1512590470824, "trialdata": {"rt": -1, "stimulus": "<p id=\"stim\">MAILBOX</p>", "key_press": -1, "type": "PRES_VIS", "word": "mailbox", "wordID": 856, "conditions": [12, 1600, "v", 24000], "trial": 2, "serialpos": 0, "trial_type": "single-stim", "trial_index": 89, "time_elapsed": 432603, "internal_node_id": "0.0-62.0"}}, {"uniqueid": "MTK0679:3IUZPWIU1PEZ1KT16Y27MA8IGNBKW3", "current_trial": 90, "dateTime": 1512590473353, "trialdata": {"rt": -1, "stimulus": "<p id=\"stim\">CAMEL</p>", "key_press": -1, "type": "PRES_VIS", "word": "camel", "wordID": 222, "conditions": [12, 1600, "v", 24000], "trial": 2, "serialpos": 1, "trial_type": "single-stim", "trial_index": 90, "time_elapsed": 435132, "internal_node_id": "0.0-63.0"}}, {"uniqueid": "MTK0679:3IUZPWIU1PEZ1KT16Y27MA8IGNBKW3", "current_trial": 91, "dateTime": 1512590475895, "trialdata": {"rt": -1, "stimulus": "<p id=\"stim\">CRAB</p>", "key_press": -1, "type": "PRES_VIS", "word": "crab", "wordID": 396, "conditions": [12, 1600, "v", 24000], "trial": 2, "serialpos": 2, "trial_type": "single-stim", "trial_index": 91, "time_elapsed": 437673, "internal_node_id": "0.0-64.0"}}, {"uniqueid": "MTK0679:3IUZPWIU1PEZ1KT16Y27MA8IGNBKW3", "current_trial": 92, "dateTime": 1512590478756, "trialdata": {"rt": -1, "stimulus": "<p id=\"stim\">SALMON</p>", "key_press": -1, "type": "PRES_VIS", "word": "salmon", "wordID": 1226, "conditions": [12, 1600, "v", 24000], "trial": 2, "serialpos": 3, "trial_type": "single-stim", "trial_index": 92, "time_elapsed": 440535, "internal_node_id": "0.0-65.0"}}, {"uniqueid": "MTK0679:3IUZPWIU1PEZ1KT16Y27MA8IGNBKW3", "current_trial": 93, "dateTime": 1512590481477, "trialdata": {"rt": -1, "stimulus": "<p id=\"stim\">GAVEL</p>", "key_press": -1, "type": "PRES_VIS", "word": "gavel", "wordID": 626, "conditions": [12, 1600, "v", 24000], "trial": 2, "serialpos": 4, "trial_type": "single-stim", "trial_index": 93, "time_elapsed": 443255, "internal_node_id": "0.0-66.0"}}, {"uniqueid": "MTK0679:3IUZPWIU1PEZ1KT16Y27MA8IGNBKW3", "current_trial": 94, "dateTime": 1512590483931, "trialdata": {"rt": -1, "stimulus": "<p id=\"stim\">BROTHER</p>", "key_press": -1, "type": "PRES_VIS", "word": "brother", "wordID": 178, "conditions": [12, 1600, "v", 24000], "trial": 2, "serialpos": 5, "trial_type": "single-stim", "trial_index": 94, "time_elapsed": 445709, "internal_node_id": "0.0-67.0"}}, {"uniqueid": "MTK0679:3IUZPWIU1PEZ1KT16Y27MA8IGNBKW3", "current_trial": 95, "dateTime": 1512590486411, "trialdata": {"rt": -1, "stimulus": "<p id=\"stim\">MESSAGE</p>", "key_press": -1, "type": "PRES_VIS", "word": "message", "wordID": 887, "conditions": [12, 1600, "v", 24000], "trial": 2, "serialpos": 6, "trial_type": "single-stim", "trial_index": 95, "time_elapsed": 448190, "internal_node_id": "0.0-68.0"}}, {"uniqueid": "MTK0679:3IUZPWIU1PEZ1KT16Y27MA8IGNBKW3", "current_trial": 96, "dateTime": 1512590488995, "trialdata": {"rt": -1, "stimulus": "<p id=\"stim\">QUAIL</p>", "key_press": -1, "type": "PRES_VIS", "word": "quail", "wordID": 1146, "conditions": [12, 1600, "v", 24000], "trial": 2, "serialpos": 7, "trial_type": "single-stim", "trial_index": 96, "time_elapsed": 450774, "internal_node_id": "0.0-69.0"}}, {"uniqueid": "MTK0679:3IUZPWIU1PEZ1KT16Y27MA8IGNBKW3", "current_trial": 97, "dateTime": 1512590491780, "trialdata": {"rt": -1, "stimulus": "<p id=\"stim\">TILE</p>", "key_press": -1, "type": "PRES_VIS", "word": "tile", "wordID": 1467, "conditions": [12, 1600, "v", 24000], "trial": 2, "serialpos": 8, "trial_type": "single-stim", "trial_index": 97, "time_elapsed": 453559, "internal_node_id": "0.0-70.0"}}, {"uniqueid": "MTK0679:3IUZPWIU1PEZ1KT16Y27MA8IGNBKW3", "current_trial": 98, "dateTime": 1512590494546, "trialdata": {"rt": -1, "stimulus": "<p id=\"stim\">BANQUET</p>", "key_press": -1, "type": "PRES_VIS", "word": "banquet", "wordID": 85, "conditions": [12, 1600, "v", 24000], "trial": 2, "serialpos": 9, "trial_type": "single-stim", "trial_index": 98, "time_elapsed": 456325, "internal_node_id": "0.0-71.0"}}, {"uniqueid": "MTK0679:3IUZPWIU1PEZ1KT16Y27MA8IGNBKW3", "current_trial": 99, "dateTime": 1512590497045, "trialdata": {"rt": -1, "stimulus": "<p id=\"stim\">WAITER</p>", "key_press": -1, "type": "PRES_VIS", "word": "waiter", "wordID": 1579, "conditions": [12, 1600, "v", 24000], "trial": 2, "serialpos": 10, "trial_type": "single-stim", "trial_index": 99, "time_elapsed": 458823, "internal_node_id": "0.0-72.0"}}, {"uniqueid": "MTK0679:3IUZPWIU1PEZ1KT16Y27MA8IGNBKW3", "current_trial": 100, "dateTime": 1512590499816, "trialdata": {"rt": -1, "stimulus": "<p id=\"stim\">COUSIN</p>", "key_press": -1, "type": "PRES_VIS", "word": "cousin", "wordID": 391, "conditions": [12, 1600, "v", 24000], "trial": 2, "serialpos": 11, "trial_type": "single-stim", "trial_index": 100, "time_elapsed": 461594, "internal_node_id": "0.0-73.0"}}, {"uniqueid": "MTK0679:3IUZPWIU1PEZ1KT16Y27MA8IGNBKW3", "current_trial": 101, "dateTime": 1512590502269, "trialdata": {"rt": -1, "stimulus": "", "key_press": -1, "type": "PRE_RECALL_DELAY", "trial_type": "single-stim", "trial_index": 101, "time_elapsed": 464047, "internal_node_id": "0.0-74.0-0.0"}}, {"uniqueid": "MTK0679:3IUZPWIU1PEZ1KT16Y27MA8IGNBKW3", "current_trial": 102, "dateTime": 1512590502777, "trialdata": {"rt": -1000, "stimulus": "/static/audio/400Hz.wav", "key_press": -1, "type": "PRE_RECALL_ALERT", "trial_type": "single-audio", "trial_index": 102, "time_elapsed": 464555, "internal_node_id": "0.0-75.0"}}, {"uniqueid": "MTK0679:3IUZPWIU1PEZ1KT16Y27MA8IGNBKW3", "current_trial": 103, "dateTime": 1512590562801, "trialdata": {"rt": [3028, 4437, 5778, 7597, 9330, 11961, 14024, 17253, 25280, 36501], "recwords": ["mailbox", "camel", "crab", "salmon", "gavel", "brother", "banquet", "waiter", "cousin", "salmon"], "type": "FREE_RECALL", "conditions": [12, 1600, "v", 24000], "trial": 2, "trial_type": "free-recall", "trial_index": 103, "time_elapsed": 524563, "internal_node_id": "0.0-76.0-0.0"}}, {"uniqueid": "MTK0679:3IUZPWIU1PEZ1KT16Y27MA8IGNBKW3", "current_trial": 104, "dateTime": 1512590567009, "trialdata": {"rt": 2206, "key_press": 32, "type": "INSTRUCTIONS", "trial_type": "text", "trial_index": 104, "time_elapsed": 528788, "internal_node_id": "0.0-77.0"}}, {"uniqueid": "MTK0679:3IUZPWIU1PEZ1KT16Y27MA8IGNBKW3", "current_trial": 105, "dateTime": 1512590593018, "trialdata": {"rt": [3757, 6297, 10434, 12140, 18638, 21422], "responses": ["13", "10", "16", "10", "22", "21"], "num1": [1, 3, 4, 2, 8, 6, 8], "num2": [5, 4, 3, 4, 9, 6, 4], "num3": [7, 3, 9, 4, 5, 9, 9], "type": "DISTRACTOR", "conditions": [24, 800, "v", 24000], "trial": 3, "trial_type": "math-distractor", "trial_index": 105, "time_elapsed": 554795, "internal_node_id": "0.0-78.0"}}, {"uniqueid": "MTK0679:3IUZPWIU1PEZ1KT16Y27MA8IGNBKW3", "current_trial": 106, "dateTime": 1512590596028, "trialdata": {"rt": -1, "stimulus": "<p id=\"stim\">10</p>", "key_press": -1, "trial_type": "single-stim", "trial_index": 106, "time_elapsed": 557807, "internal_node_id": "0.0-79.0-0.0"}}, {"uniqueid": "MTK0679:3IUZPWIU1PEZ1KT16Y27MA8IGNBKW3", "current_trial": 107, "dateTime": 1512590597031, "trialdata": {"rt": -1, "stimulus": "<p id=\"stim\">9</p>", "key_press": -1, "trial_type": "single-stim", "trial_index": 107, "time_elapsed": 558809, "internal_node_id": "0.0-79.0-1.0"}}, {"uniqueid": "MTK0679:3IUZPWIU1PEZ1KT16Y27MA8IGNBKW3", "current_trial": 108, "dateTime": 1512590598033, "trialdata": {"rt": -1, "stimulus": "<p id=\"stim\">8</p>", "key_press": -1, "trial_type": "single-stim", "trial_index": 108, "time_elapsed": 559812, "internal_node_id": "0.0-79.0-2.0"}}, {"uniqueid": "MTK0679:3IUZPWIU1PEZ1KT16Y27MA8IGNBKW3", "current_trial": 109, "dateTime": 1512590599039, "trialdata": {"rt": -1, "stimulus": "<p id=\"stim\">7</p>", "key_press": -1, "trial_type": "single-stim", "trial_index": 109, "time_elapsed": 560817, "internal_node_id": "0.0-79.0-3.0"}}, {"uniqueid": "MTK0679:3IUZPWIU1PEZ1KT16Y27MA8IGNBKW3", "current_trial": 110, "dateTime": 1512590600041, "trialdata": {"rt": -1, "stimulus": "<p id=\"stim\">6</p>", "key_press": -1, "trial_type": "single-stim", "trial_index": 110, "time_elapsed": 561820, "internal_node_id": "0.0-79.0-4.0"}}, {"uniqueid": "MTK0679:3IUZPWIU1PEZ1KT16Y27MA8IGNBKW3", "current_trial": 111, "dateTime": 1512590601045, "trialdata": {"rt": -1, "stimulus": "<p id=\"stim\">5</p>", "key_press": -1, "trial_type": "single-stim", "trial_index": 111, "time_elapsed": 562824, "internal_node_id": "0.0-79.0-5.0"}}, {"uniqueid": "MTK0679:3IUZPWIU1PEZ1KT16Y27MA8IGNBKW3", "current_trial": 112, "dateTime": 1512590602048, "trialdata": {"rt": -1, "stimulus": "<p id=\"stim\">4</p>", "key_press": -1, "trial_type": "single-stim", "trial_index": 112, "time_elapsed": 563826, "internal_node_id": "0.0-79.0-6.0"}}, {"uniqueid": "MTK0679:3IUZPWIU1PEZ1KT16Y27MA8IGNBKW3", "current_trial": 113, "dateTime": 1512590603051, "trialdata": {"rt": -1, "stimulus": "<p id=\"stim\">3</p>", "key_press": -1, "trial_type": "single-stim", "trial_index": 113, "time_elapsed": 564829, "internal_node_id": "0.0-79.0-7.0"}}, {"uniqueid": "MTK0679:3IUZPWIU1PEZ1KT16Y27MA8IGNBKW3", "current_trial": 114, "dateTime": 1512590604055, "trialdata": {"rt": -1, "stimulus": "<p id=\"stim\">2</p>", "key_press": -1, "trial_type": "single-stim", "trial_index": 114, "time_elapsed": 565834, "internal_node_id": "0.0-79.0-8.0"}}, {"uniqueid": "MTK0679:3IUZPWIU1PEZ1KT16Y27MA8IGNBKW3", "current_trial": 115, "dateTime": 1512590605058, "trialdata": {"rt": -1, "stimulus": "<p id=\"stim\">1</p>", "key_press": -1, "trial_type": "single-stim", "trial_index": 115, "time_elapsed": 566836, "internal_node_id": "0.0-79.0-9.0"}}, {"uniqueid": "MTK0679:3IUZPWIU1PEZ1KT16Y27MA8IGNBKW3", "current_trial": 116, "dateTime": 1512590606564, "trialdata": {"rt": -1, "stimulus": "<p id=\"stim\">+</p>", "key_press": -1, "type": "FIXATION", "trial_type": "single-stim", "trial_index": 116, "time_elapsed": 568343, "internal_node_id": "0.0-80.0-0.0"}}, {"uniqueid": "MTK0679:3IUZPWIU1PEZ1KT16Y27MA8IGNBKW3", "current_trial": 117, "dateTime": 1512590607367, "trialdata": {"rt": -1, "stimulus": "<p id=\"stim\">BRIEFCASE</p>", "key_press": -1, "type": "PRES_VIS", "word": "briefcase", "wordID": 174, "conditions": [24, 800, "v", 24000], "trial": 3, "serialpos": 0, "trial_type": "single-stim", "trial_index": 117, "time_elapsed": 569146, "internal_node_id": "0.0-81.0"}}, {"uniqueid": "MTK0679:3IUZPWIU1PEZ1KT16Y27MA8IGNBKW3", "current_trial": 118, "dateTime": 1512590609105, "trialdata": {"rt": -1, "stimulus": "<p id=\"stim\">GRILL</p>", "key_press": -1, "type": "PRES_VIS", "word": "grill", "wordID": 660, "conditions": [24, 800, "v", 24000], "trial": 3, "serialpos": 1, "trial_type": "single-stim", "trial_index": 118, "time_elapsed": 570884, "internal_node_id": "0.0-82.0"}}, {"uniqueid": "MTK0679:3IUZPWIU1PEZ1KT16Y27MA8IGNBKW3", "current_trial": 119, "dateTime": 1512590610726, "trialdata": {"rt": -1, "stimulus": "<p id=\"stim\">MARS</p>", "key_press": -1, "type": "PRES_VIS", "word": "mars", "wordID": 872, "conditions": [24, 800, "v", 24000], "trial": 3, "serialpos": 2, "trial_type": "single-stim", "trial_index": 119, "time_elapsed": 572505, "internal_node_id": "0.0-83.0"}}, {"uniqueid": "MTK0679:3IUZPWIU1PEZ1KT16Y27MA8IGNBKW3", "current_trial": 120, "dateTime": 1512590612366, "trialdata": {"rt": -1, "stimulus": "<p id=\"stim\">PADDLE</p>", "key_press": -1, "type": "PRES_VIS", "word": "paddle", "wordID": 999, "conditions": [24, 800, "v", 24000], "trial": 3, "serialpos": 3, "trial_type": "single-stim", "trial_index": 120, "time_elapsed": 574145, "internal_node_id": "0.0-84.0"}}, {"uniqueid": "MTK0679:3IUZPWIU1PEZ1KT16Y27MA8IGNBKW3", "current_trial": 121, "dateTime": 1512590614292, "trialdata": {"rt": -1, "stimulus": "<p id=\"stim\">FUNGUS</p>", "key_press": -1, "type": "PRES_VIS", "word": "fungus", "wordID": 613, "conditions": [24, 800, "v", 24000], "trial": 3, "serialpos": 4, "trial_type": "single-stim", "trial_index": 121, "time_elapsed": 576071, "internal_node_id": "0.0-85.0"}}, {"uniqueid": "MTK0679:3IUZPWIU1PEZ1KT16Y27MA8IGNBKW3", "current_trial": 122, "dateTime": 1512590615939, "trialdata": {"rt": -1, "stimulus": "<p id=\"stim\">PACKAGE</p>", "key_press": -1, "type": "PRES_VIS", "word": "package", "wordID": 996, "conditions": [24, 800, "v", 24000], "trial": 3, "serialpos": 5, "trial_type": "single-stim", "trial_index": 122, "time_elapsed": 577717, "internal_node_id": "0.0-86.0"}}, {"uniqueid": "MTK0679:3IUZPWIU1PEZ1KT16Y27MA8IGNBKW3", "current_trial": 123, "dateTime": 1512590617944, "trialdata": {"rt": -1, "stimulus": "<p id=\"stim\">TWEEZERS</p>", "key_press": -1, "type": "PRES_VIS", "word": "tweezers", "wordID": 1525, "conditions": [24, 800, "v", 24000], "trial": 3, "serialpos": 6, "trial_type": "single-stim", "trial_index": 123, "time_elapsed": 579722, "internal_node_id": "0.0-87.0"}}, {"uniqueid": "MTK0679:3IUZPWIU1PEZ1KT16Y27MA8IGNBKW3", "current_trial": 124, "dateTime": 1512590619841, "trialdata": {"rt": -1, "stimulus": "<p id=\"stim\">SCISSORS</p>", "key_press": -1, "type": "PRES_VIS", "word": "scissors", "wordID": 1249, "conditions": [24, 800, "v", 24000], "trial": 3, "serialpos": 7, "trial_type": "single-stim", "trial_index": 124, "time_elapsed": 581620, "internal_node_id": "0.0-88.0"}}, {"uniqueid": "MTK0679:3IUZPWIU1PEZ1KT16Y27MA8IGNBKW3", "current_trial": 125, "dateTime": 1512590621786, "trialdata": {"rt": -1, "stimulus": "<p id=\"stim\">CRATER</p>", "key_press": -1, "type": "PRES_VIS", "word": "crater", "wordID": 399, "conditions": [24, 800, "v", 24000], "trial": 3, "serialpos": 8, "trial_type": "single-stim", "trial_index": 125, "time_elapsed": 583564, "internal_node_id": "0.0-89.0"}}, {"uniqueid": "MTK0679:3IUZPWIU1PEZ1KT16Y27MA8IGNBKW3", "current_trial": 126, "dateTime": 1512590623554, "trialdata": {"rt": -1, "stimulus": "<p id=\"stim\">COMET</p>", "key_press": -1, "type": "PRES_VIS", "word": "comet", "wordID": 352, "conditions": [24, 800, "v", 24000], "trial": 3, "serialpos": 9, "trial_type": "single-stim", "trial_index": 126, "time_elapsed": 585333, "internal_node_id": "0.0-90.0"}}, {"uniqueid": "MTK0679:3IUZPWIU1PEZ1KT16Y27MA8IGNBKW3", "current_trial": 127, "dateTime": 1512590625470, "trialdata": {"rt": -1, "stimulus": "<p id=\"stim\">COOK</p>", "key_press": -1, "type": "PRES_VIS", "word": "cook", "wordID": 371, "conditions": [24, 800, "v", 24000], "trial": 3, "serialpos": 10, "trial_type": "single-stim", "trial_index": 127, "time_elapsed": 587247, "internal_node_id": "0.0-91.0"}}, {"uniqueid": "MTK0679:3IUZPWIU1PEZ1KT16Y27MA8IGNBKW3", "current_trial": 128, "dateTime": 1512590627454, "trialdata": {"rt": -1, "stimulus": "<p id=\"stim\">PICNIC</p>", "key_press": -1, "type": "PRES_VIS", "word": "picnic", "wordID": 1059, "conditions": [24, 800, "v", 24000], "trial": 3, "serialpos": 11, "trial_type": "single-stim", "trial_index": 128, "time_elapsed": 589232, "internal_node_id": "0.0-92.0"}}, {"uniqueid": "MTK0679:3IUZPWIU1PEZ1KT16Y27MA8IGNBKW3", "current_trial": 129, "dateTime": 1512590629319, "trialdata": {"rt": -1, "stimulus": "<p id=\"stim\">DAUGHTER</p>", "key_press": -1, "type": "PRES_VIS", "word": "daughter", "wordID": 441, "conditions": [24, 800, "v", 24000], "trial": 3, "serialpos": 12, "trial_type": "single-stim", "trial_index": 129, "time_elapsed": 591098, "internal_node_id": "0.0-93.0"}}, {"uniqueid": "MTK0679:3IUZPWIU1PEZ1KT16Y27MA8IGNBKW3", "current_trial": 130, "dateTime": 1512590630992, "trialdata": {"rt": -1, "stimulus": "<p id=\"stim\">TOMBSTONE</p>", "key_press": -1, "type": "PRES_VIS", "word": "tombstone", "wordID": 1477, "conditions": [24, 800, "v", 24000], "trial": 3, "serialpos": 13, "trial_type": "single-stim", "trial_index": 130, "time_elapsed": 592770, "internal_node_id": "0.0-94.0"}}, {"uniqueid": "MTK0679:3IUZPWIU1PEZ1KT16Y27MA8IGNBKW3", "current_trial": 131, "dateTime": 1512590632639, "trialdata": {"rt": -1, "stimulus": "<p id=\"stim\">DIME</p>", "key_press": -1, "type": "PRES_VIS", "word": "dime", "wordID": 465, "conditions": [24, 800, "v", 24000], "trial": 3, "serialpos": 14, "trial_type": "single-stim", "trial_index": 131, "time_elapsed": 594415, "internal_node_id": "0.0-95.0"}}, {"uniqueid": "MTK0679:3IUZPWIU1PEZ1KT16Y27MA8IGNBKW3", "current_trial": 132, "dateTime": 1512590634568, "trialdata": {"rt": -1, "stimulus": "<p id=\"stim\">WAITRESS</p>", "key_press": -1, "type": "PRES_VIS", "word": "waitress", "wordID": 1580, "conditions": [24, 800, "v", 24000], "trial": 3, "serialpos": 15, "trial_type": "single-stim", "trial_index": 132, "time_elapsed": 596346, "internal_node_id": "0.0-96.0"}}, {"uniqueid": "MTK0679:3IUZPWIU1PEZ1KT16Y27MA8IGNBKW3", "current_trial": 133, "dateTime": 1512590636341, "trialdata": {"rt": -1, "stimulus": "<p id=\"stim\">VALVE</p>", "key_press": -1, "type": "PRES_VIS", "word": "valve", "wordID": 1545, "conditions": [24, 800, "v", 24000], "trial": 3, "serialpos": 16, "trial_type": "single-stim", "trial_index": 133, "time_elapsed": 598120, "internal_node_id": "0.0-97.0"}}, {"uniqueid": "MTK0679:3IUZPWIU1PEZ1KT16Y27MA8IGNBKW3", "current_trial": 134, "dateTime": 1512590638081, "trialdata": {"rt": -1, "stimulus": "<p id=\"stim\">PISTON</p>", "key_press": -1, "type": "PRES_VIS", "word": "piston", "wordID": 1075, "conditions": [24, 800, "v", 24000], "trial": 3, "serialpos": 17, "trial_type": "single-stim", "trial_index": 134, "time_elapsed": 599859, "internal_node_id": "0.0-98.0"}}, {"uniqueid": "MTK0679:3IUZPWIU1PEZ1KT16Y27MA8IGNBKW3", "current_trial": 135, "dateTime": 1512590639777, "trialdata": {"rt": -1, "stimulus": "<p id=\"stim\">CASKET</p>", "key_press": -1, "type": "PRES_VIS", "word": "casket", "wordID": 254, "conditions": [24, 800, "v", 24000], "trial": 3, "serialpos": 18, "trial_type": "single-stim", "trial_index": 135, "time_elapsed": 601556, "internal_node_id": "0.0-99.0"}}, {"uniqueid": "MTK0679:3IUZPWIU1PEZ1KT16Y27MA8IGNBKW3", "current_trial": 136, "dateTime": 1512590641523, "trialdata": {"rt": -1, "stimulus": "<p id=\"stim\">SIBLING</p>", "key_press": -1, "type": "PRES_VIS", "word": "sibling", "wordID": 1300, "conditions": [24, 800, "v", 24000], "trial": 3, "serialpos": 19, "trial_type": "single-stim", "trial_index": 136, "time_elapsed": 603301, "internal_node_id": "0.0-100.0"}}, {"uniqueid": "MTK0679:3IUZPWIU1PEZ1KT16Y27MA8IGNBKW3", "current_trial": 137, "dateTime": 1512590643174, "trialdata": {"rt": -1, "stimulus": "<p id=\"stim\">MAILMAN</p>", "key_press": -1, "type": "PRES_VIS", "word": "mailman", "wordID": 857, "conditions": [24, 800, "v", 24000], "trial": 3, "serialpos": 20, "trial_type": "single-stim", "trial_index": 137, "time_elapsed": 604953, "internal_node_id": "0.0-101.0"}}, {"uniqueid": "MTK0679:3IUZPWIU1PEZ1KT16Y27MA8IGNBKW3", "current_trial": 138, "dateTime": 1512590645009, "trialdata": {"rt": -1, "stimulus": "<p id=\"stim\">ROBIN</p>", "key_press": -1, "type": "PRES_VIS", "word": "robin", "wordID": 1198, "conditions": [24, 800, "v", 24000], "trial": 3, "serialpos": 21, "trial_type": "single-stim", "trial_index": 138, "time_elapsed": 606787, "internal_node_id": "0.0-102.0"}}, {"uniqueid": "MTK0679:3IUZPWIU1PEZ1KT16Y27MA8IGNBKW3", "current_trial": 139, "dateTime": 1512590646960, "trialdata": {"rt": -1, "stimulus": "<p id=\"stim\">CARRIAGE</p>", "key_press": -1, "type": "PRES_VIS", "word": "carriage", "wordID": 247, "conditions": [24, 800, "v", 24000], "trial": 3, "serialpos": 22, "trial_type": "single-stim", "trial_index": 139, "time_elapsed": 608738, "internal_node_id": "0.0-103.0"}}, {"uniqueid": "MTK0679:3IUZPWIU1PEZ1KT16Y27MA8IGNBKW3", "current_trial": 140, "dateTime": 1512590648856, "trialdata": {"rt": -1, "stimulus": "<p id=\"stim\">JAPAN</p>", "key_press": -1, "type": "PRES_VIS", "word": "japan", "wordID": 748, "conditions": [24, 800, "v", 24000], "trial": 3, "serialpos": 23, "trial_type": "single-stim", "trial_index": 140, "time_elapsed": 610634, "internal_node_id": "0.0-104.0"}}, {"uniqueid": "MTK0679:3IUZPWIU1PEZ1KT16Y27MA8IGNBKW3", "current_trial": 141, "dateTime": 1512590651363, "trialdata": {"rt": -1, "stimulus": "", "key_press": -1, "type": "PRE_RECALL_DELAY", "trial_type": "single-stim", "trial_index": 141, "time_elapsed": 613142, "internal_node_id": "0.0-105.0-0.0"}}, {"uniqueid": "MTK0679:3IUZPWIU1PEZ1KT16Y27MA8IGNBKW3", "current_trial": 142, "dateTime": 1512590651867, "trialdata": {"rt": -1000, "stimulus": "/static/audio/400Hz.wav", "key_press": -1, "type": "PRE_RECALL_ALERT", "trial_type": "single-audio", "trial_index": 142, "time_elapsed": 613645, "internal_node_id": "0.0-106.0"}}, {"uniqueid": "MTK0679:3IUZPWIU1PEZ1KT16Y27MA8IGNBKW3", "current_trial": 143, "dateTime": 1512590711912, "trialdata": {"rt": [3306, 5645, 8408, 10415, 11883, 14298, 15880, 23932, 26402, 29697, 32153], "recwords": ["grill", "picnic", "waitress", "mailman", "robin", "piston", "valve", "japan", "mars", "comet", "crater"], "type": "FREE_RECALL", "conditions": [24, 800, "v", 24000], "trial": 3, "trial_type": "free-recall", "trial_index": 143, "time_elapsed": 673655, "internal_node_id": "0.0-107.0-0.0"}}, {"uniqueid": "MTK0679:3IUZPWIU1PEZ1KT16Y27MA8IGNBKW3", "current_trial": 144, "dateTime": 1512590932850, "trialdata": {"rt": 218933, "key_press": 32, "type": "INSTRUCTIONS", "trial_type": "text", "trial_index": 144, "time_elapsed": 894629, "internal_node_id": "0.0-108.0"}}, {"uniqueid": "MTK0679:3IUZPWIU1PEZ1KT16Y27MA8IGNBKW3", "current_trial": 145, "dateTime": 1512590958867, "trialdata": {"rt": [2296, 6082, 8759, 11295, 13428, 20089], "responses": ["17", "13", "6", "14", "17", "24"], "num1": [7, 4, 3, 6, 6, 7, 3], "num2": [3, 1, 1, 5, 6, 9, 7], "num3": [7, 8, 2, 3, 5, 8, 7], "type": "DISTRACTOR", "conditions": [12, 800, "v", 24000], "trial": 4, "trial_type": "math-distractor", "trial_index": 145, "time_elapsed": 920646, "internal_node_id": "0.0-109.0"}}, {"uniqueid": "MTK0679:3IUZPWIU1PEZ1KT16Y27MA8IGNBKW3", "current_trial": 146, "dateTime": 1512590961872, "trialdata": {"rt": -1, "stimulus": "<p id=\"stim\">10</p>", "key_press": -1, "trial_type": "single-stim", "trial_index": 146, "time_elapsed": 923650, "internal_node_id": "0.0-110.0-0.0"}}, {"uniqueid": "MTK0679:3IUZPWIU1PEZ1KT16Y27MA8IGNBKW3", "current_trial": 147, "dateTime": 1512590962875, "trialdata": {"rt": -1, "stimulus": "<p id=\"stim\">9</p>", "key_press": -1, "trial_type": "single-stim", "trial_index": 147, "time_elapsed": 924653, "internal_node_id": "0.0-110.0-1.0"}}, {"uniqueid": "MTK0679:3IUZPWIU1PEZ1KT16Y27MA8IGNBKW3", "current_trial": 148, "dateTime": 1512590963878, "trialdata": {"rt": -1, "stimulus": "<p id=\"stim\">8</p>", "key_press": -1, "trial_type": "single-stim", "trial_index": 148, "time_elapsed": 925657, "internal_node_id": "0.0-110.0-2.0"}}, {"uniqueid": "MTK0679:3IUZPWIU1PEZ1KT16Y27MA8IGNBKW3", "current_trial": 149, "dateTime": 1512590964885, "trialdata": {"rt": -1, "stimulus": "<p id=\"stim\">7</p>", "key_press": -1, "trial_type": "single-stim", "trial_index": 149, "time_elapsed": 926664, "internal_node_id": "0.0-110.0-3.0"}}, {"uniqueid": "MTK0679:3IUZPWIU1PEZ1KT16Y27MA8IGNBKW3", "current_trial": 150, "dateTime": 1512590965889, "trialdata": {"rt": -1, "stimulus": "<p id=\"stim\">6</p>", "key_press": -1, "trial_type": "single-stim", "trial_index": 150, "time_elapsed": 927668, "internal_node_id": "0.0-110.0-4.0"}}, {"uniqueid": "MTK0679:3IUZPWIU1PEZ1KT16Y27MA8IGNBKW3", "current_trial": 151, "dateTime": 1512590966936, "trialdata": {"rt": -1, "stimulus": "<p id=\"stim\">5</p>", "key_press": -1, "trial_type": "single-stim", "trial_index": 151, "time_elapsed": 928714, "internal_node_id": "0.0-110.0-5.0"}}, {"uniqueid": "MTK0679:3IUZPWIU1PEZ1KT16Y27MA8IGNBKW3", "current_trial": 152, "dateTime": 1512590967944, "trialdata": {"rt": -1, "stimulus": "<p id=\"stim\">4</p>", "key_press": -1, "trial_type": "single-stim", "trial_index": 152, "time_elapsed": 929722, "internal_node_id": "0.0-110.0-6.0"}}, {"uniqueid": "MTK0679:3IUZPWIU1PEZ1KT16Y27MA8IGNBKW3", "current_trial": 153, "dateTime": 1512590968955, "trialdata": {"rt": -1, "stimulus": "<p id=\"stim\">3</p>", "key_press": -1, "trial_type": "single-stim", "trial_index": 153, "time_elapsed": 930734, "internal_node_id": "0.0-110.0-7.0"}}, {"uniqueid": "MTK0679:3IUZPWIU1PEZ1KT16Y27MA8IGNBKW3", "current_trial": 154, "dateTime": 1512590969962, "trialdata": {"rt": -1, "stimulus": "<p id=\"stim\">2</p>", "key_press": -1, "trial_type": "single-stim", "trial_index": 154, "time_elapsed": 931740, "internal_node_id": "0.0-110.0-8.0"}}, {"uniqueid": "MTK0679:3IUZPWIU1PEZ1KT16Y27MA8IGNBKW3", "current_trial": 155, "dateTime": 1512590970982, "trialdata": {"rt": -1, "stimulus": "<p id=\"stim\">1</p>", "key_press": -1, "trial_type": "single-stim", "trial_index": 155, "time_elapsed": 932759, "internal_node_id": "0.0-110.0-9.0"}}, {"uniqueid": "MTK0679:3IUZPWIU1PEZ1KT16Y27MA8IGNBKW3", "current_trial": 156, "dateTime": 1512590972484, "trialdata": {"rt": -1, "stimulus": "<p id=\"stim\">+</p>", "key_press": -1, "type": "FIXATION", "trial_type": "single-stim", "trial_index": 156, "time_elapsed": 934263, "internal_node_id": "0.0-111.0-0.0"}}, {"uniqueid": "MTK0679:3IUZPWIU1PEZ1KT16Y27MA8IGNBKW3", "current_trial": 157, "dateTime": 1512590973291, "trialdata": {"rt": -1, "stimulus": "<p id=\"stim\">CHAPEL</p>", "key_press": -1, "type": "PRES_VIS", "word": "chapel", "wordID": 279, "conditions": [12, 800, "v", 24000], "trial": 4, "serialpos": 0, "trial_type": "single-stim", "trial_index": 157, "time_elapsed": 935070, "internal_node_id": "0.0-112.0"}}, {"uniqueid": "MTK0679:3IUZPWIU1PEZ1KT16Y27MA8IGNBKW3", "current_trial": 158, "dateTime": 1512590974908, "trialdata": {"rt": -1, "stimulus": "<p id=\"stim\">ACTRESS</p>", "key_press": -1, "type": "PRES_VIS", "word": "actress", "wordID": 5, "conditions": [12, 800, "v", 24000], "trial": 4, "serialpos": 1, "trial_type": "single-stim", "trial_index": 158, "time_elapsed": 936686, "internal_node_id": "0.0-113.0"}}, {"uniqueid": "MTK0679:3IUZPWIU1PEZ1KT16Y27MA8IGNBKW3", "current_trial": 159, "dateTime": 1512590976669, "trialdata": {"rt": -1, "stimulus": "<p id=\"stim\">CYCLONE</p>", "key_press": -1, "type": "PRES_VIS", "word": "cyclone", "wordID": 430, "conditions": [12, 800, "v", 24000], "trial": 4, "serialpos": 2, "trial_type": "single-stim", "trial_index": 159, "time_elapsed": 938448, "internal_node_id": "0.0-114.0"}}, {"uniqueid": "MTK0679:3IUZPWIU1PEZ1KT16Y27MA8IGNBKW3", "current_trial": 160, "dateTime": 1512590978503, "trialdata": {"rt": -1, "stimulus": "<p id=\"stim\">SMOG</p>", "key_press": -1, "type": "PRES_VIS", "word": "smog", "wordID": 1329, "conditions": [12, 800, "v", 24000], "trial": 4, "serialpos": 3, "trial_type": "single-stim", "trial_index": 160, "time_elapsed": 940282, "internal_node_id": "0.0-115.0"}}, {"uniqueid": "MTK0679:3IUZPWIU1PEZ1KT16Y27MA8IGNBKW3", "current_trial": 161, "dateTime": 1512590980479, "trialdata": {"rt": -1, "stimulus": "<p id=\"stim\">LONDON</p>", "key_press": -1, "type": "PRES_VIS", "word": "london", "wordID": 842, "conditions": [12, 800, "v", 24000], "trial": 4, "serialpos": 4, "trial_type": "single-stim", "trial_index": 161, "time_elapsed": 942257, "internal_node_id": "0.0-116.0"}}, {"uniqueid": "MTK0679:3IUZPWIU1PEZ1KT16Y27MA8IGNBKW3", "current_trial": 162, "dateTime": 1512590982305, "trialdata": {"rt": -1, "stimulus": "<p id=\"stim\">STOMACH</p>", "key_press": -1, "type": "PRES_VIS", "word": "stomach", "wordID": 1383, "conditions": [12, 800, "v", 24000], "trial": 4, "serialpos": 5, "trial_type": "single-stim", "trial_index": 162, "time_elapsed": 944084, "internal_node_id": "0.0-117.0"}}, {"uniqueid": "MTK0679:3IUZPWIU1PEZ1KT16Y27MA8IGNBKW3", "current_trial": 163, "dateTime": 1512590984135, "trialdata": {"rt": -1, "stimulus": "<p id=\"stim\">CHEST</p>", "key_press": -1, "type": "PRES_VIS", "word": "chest", "wordID": 294, "conditions": [12, 800, "v", 24000], "trial": 4, "serialpos": 6, "trial_type": "single-stim", "trial_index": 163, "time_elapsed": 945914, "internal_node_id": "0.0-118.0"}}, {"uniqueid": "MTK0679:3IUZPWIU1PEZ1KT16Y27MA8IGNBKW3", "current_trial": 164, "dateTime": 1512590985926, "trialdata": {"rt": -1, "stimulus": "<p id=\"stim\">LIGHTNING</p>", "key_press": -1, "type": "PRES_VIS", "word": "lightning", "wordID": 819, "conditions": [12, 800, "v", 24000], "trial": 4, "serialpos": 7, "trial_type": "single-stim", "trial_index": 164, "time_elapsed": 947705, "internal_node_id": "0.0-119.0"}}, {"uniqueid": "MTK0679:3IUZPWIU1PEZ1KT16Y27MA8IGNBKW3", "current_trial": 165, "dateTime": 1512590987579, "trialdata": {"rt": -1, "stimulus": "<p id=\"stim\">CHURCH</p>", "key_press": -1, "type": "PRES_VIS", "word": "church", "wordID": 306, "conditions": [12, 800, "v", 24000], "trial": 4, "serialpos": 8, "trial_type": "single-stim", "trial_index": 165, "time_elapsed": 949357, "internal_node_id": "0.0-120.0"}}, {"uniqueid": "MTK0679:3IUZPWIU1PEZ1KT16Y27MA8IGNBKW3", "current_trial": 166, "dateTime": 1512590989599, "trialdata": {"rt": -1, "stimulus": "<p id=\"stim\">NECKLACE</p>", "key_press": -1, "type": "PRES_VIS", "word": "necklace", "wordID": 939, "conditions": [12, 800, "v", 24000], "trial": 4, "serialpos": 9, "trial_type": "single-stim", "trial_index": 166, "time_elapsed": 951377, "internal_node_id": "0.0-121.0"}}, {"uniqueid": "MTK0679:3IUZPWIU1PEZ1KT16Y27MA8IGNBKW3", "current_trial": 167, "dateTime": 1512590991353, "trialdata": {"rt": -1, "stimulus": "<p id=\"stim\">DRAGON</p>", "key_press": -1, "type": "PRES_VIS", "word": "dragon", "wordID": 491, "conditions": [12, 800, "v", 24000], "trial": 4, "serialpos": 10, "trial_type": "single-stim", "trial_index": 167, "time_elapsed": 953132, "internal_node_id": "0.0-122.0"}}, {"uniqueid": "MTK0679:3IUZPWIU1PEZ1KT16Y27MA8IGNBKW3", "current_trial": 168, "dateTime": 1512590993276, "trialdata": {"rt": -1, "stimulus": "<p id=\"stim\">WIFE</p>", "key_press": -1, "type": "PRES_VIS", "word": "wife", "wordID": 1608, "conditions": [12, 800, "v", 24000], "trial": 4, "serialpos": 11, "trial_type": "single-stim", "trial_index": 168, "time_elapsed": 955054, "internal_node_id": "0.0-123.0"}}, {"uniqueid": "MTK0679:3IUZPWIU1PEZ1KT16Y27MA8IGNBKW3", "current_trial": 169, "dateTime": 1512590995594, "trialdata": {"rt": -1, "stimulus": "", "key_press": -1, "type": "PRE_RECALL_DELAY", "trial_type": "single-stim", "trial_index": 169, "time_elapsed": 957372, "internal_node_id": "0.0-124.0-0.0"}}, {"uniqueid": "MTK0679:3IUZPWIU1PEZ1KT16Y27MA8IGNBKW3", "current_trial": 170, "dateTime": 1512590996097, "trialdata": {"rt": -1000, "stimulus": "/static/audio/400Hz.wav", "key_press": -1, "type": "PRE_RECALL_ALERT", "trial_type": "single-audio", "trial_index": 170, "time_elapsed": 957876, "internal_node_id": "0.0-125.0"}}, {"uniqueid": "MTK0679:3IUZPWIU1PEZ1KT16Y27MA8IGNBKW3", "current_trial": 171, "dateTime": 1512591056121, "trialdata": {"rt": [2581, 4475, 6909, 9029, 12220, 16218, 32177, 33772], "recwords": ["wife", "dragon", "chapel", "church", "lightning", "actress", "stomach", "chest"], "type": "FREE_RECALL", "conditions": [12, 800, "v", 24000], "trial": 4, "trial_type": "free-recall", "trial_index": 171, "time_elapsed": 1017888, "internal_node_id": "0.0-126.0-0.0"}}, {"uniqueid": "MTK0679:3IUZPWIU1PEZ1KT16Y27MA8IGNBKW3", "current_trial": 172, "dateTime": 1512591059809, "trialdata": {"rt": 1647, "key_press": 32, "type": "INSTRUCTIONS", "trial_type": "text", "trial_index": 172, "time_elapsed": 1021587, "internal_node_id": "0.0-127.0"}}, {"uniqueid": "MTK0679:3IUZPWIU1PEZ1KT16Y27MA8IGNBKW3", "current_trial": 173, "dateTime": 1512591085830, "trialdata": {"rt": [2498, 4983, 6793, 9895, 11778, 13580, 16093, 18970, 21301, 23497], "responses": ["17", "12", "21", "16", "18", "11", "15", "13", "19", "10"], "num1": [4, 4, 7, 2, 8, 9, 7, 1, 8, 2, 1], "num2": [4, 1, 7, 8, 7, 1, 7, 9, 3, 2, 7], "num3": [9, 7, 7, 6, 3, 1, 1, 3, 8, 4, 8], "type": "DISTRACTOR", "conditions": [12, 1600, "a", 24000], "trial": 5, "trial_type": "math-distractor", "trial_index": 173, "time_elapsed": 1047608, "internal_node_id": "0.0-128.0"}}, {"uniqueid": "MTK0679:3IUZPWIU1PEZ1KT16Y27MA8IGNBKW3", "current_trial": 174, "dateTime": 1512591088836, "trialdata": {"rt": -1, "stimulus": "<p id=\"stim\">10</p>", "key_press": -1, "trial_type": "single-stim", "trial_index": 174, "time_elapsed": 1050614, "internal_node_id": "0.0-129.0-0.0"}}, {"uniqueid": "MTK0679:3IUZPWIU1PEZ1KT16Y27MA8IGNBKW3", "current_trial": 175, "dateTime": 1512591089840, "trialdata": {"rt": -1, "stimulus": "<p id=\"stim\">9</p>", "key_press": -1, "trial_type": "single-stim", "trial_index": 175, "time_elapsed": 1051618, "internal_node_id": "0.0-129.0-1.0"}}, {"uniqueid": "MTK0679:3IUZPWIU1PEZ1KT16Y27MA8IGNBKW3", "current_trial": 176, "dateTime": 1512591090906, "trialdata": {"rt": -1, "stimulus": "<p id=\"stim\">8</p>", "key_press": -1, "trial_type": "single-stim", "trial_index": 176, "time_elapsed": 1052685, "internal_node_id": "0.0-129.0-2.0"}}, {"uniqueid": "MTK0679:3IUZPWIU1PEZ1KT16Y27MA8IGNBKW3", "current_trial": 177, "dateTime": 1512591091908, "trialdata": {"rt": -1, "stimulus": "<p id=\"stim\">7</p>", "key_press": -1, "trial_type": "single-stim", "trial_index": 177, "time_elapsed": 1053687, "internal_node_id": "0.0-129.0-3.0"}}, {"uniqueid": "MTK0679:3IUZPWIU1PEZ1KT16Y27MA8IGNBKW3", "current_trial": 178, "dateTime": 1512591092980, "trialdata": {"rt": -1, "stimulus": "<p id=\"stim\">6</p>", "key_press": -1, "trial_type": "single-stim", "trial_index": 178, "time_elapsed": 1054759, "internal_node_id": "0.0-129.0-4.0"}}, {"uniqueid": "MTK0679:3IUZPWIU1PEZ1KT16Y27MA8IGNBKW3", "current_trial": 179, "dateTime": 1512591093983, "trialdata": {"rt": -1, "stimulus": "<p id=\"stim\">5</p>", "key_press": -1, "trial_type": "single-stim", "trial_index": 179, "time_elapsed": 1055761, "internal_node_id": "0.0-129.0-5.0"}}, {"uniqueid": "MTK0679:3IUZPWIU1PEZ1KT16Y27MA8IGNBKW3", "current_trial": 180, "dateTime": 1512591094986, "trialdata": {"rt": -1, "stimulus": "<p id=\"stim\">4</p>", "key_press": -1, "trial_type": "single-stim", "trial_index": 180, "time_elapsed": 1056764, "internal_node_id": "0.0-129.0-6.0"}}, {"uniqueid": "MTK0679:3IUZPWIU1PEZ1KT16Y27MA8IGNBKW3", "current_trial": 181, "dateTime": 1512591095989, "trialdata": {"rt": -1, "stimulus": "<p id=\"stim\">3</p>", "key_press": -1, "trial_type": "single-stim", "trial_index": 181, "time_elapsed": 1057768, "internal_node_id": "0.0-129.0-7.0"}}, {"uniqueid": "MTK0679:3IUZPWIU1PEZ1KT16Y27MA8IGNBKW3", "current_trial": 182, "dateTime": 1512591096991, "trialdata": {"rt": -1, "stimulus": "<p id=\"stim\">2</p>", "key_press": -1, "trial_type": "single-stim", "trial_index": 182, "time_elapsed": 1058770, "internal_node_id": "0.0-129.0-8.0"}}, {"uniqueid": "MTK0679:3IUZPWIU1PEZ1KT16Y27MA8IGNBKW3", "current_trial": 183, "dateTime": 1512591097994, "trialdata": {"rt": -1, "stimulus": "<p id=\"stim\">1</p>", "key_press": -1, "trial_type": "single-stim", "trial_index": 183, "time_elapsed": 1059772, "internal_node_id": "0.0-129.0-9.0"}}, {"uniqueid": "MTK0679:3IUZPWIU1PEZ1KT16Y27MA8IGNBKW3", "current_trial": 184, "dateTime": 1512591099498, "trialdata": {"rt": -1, "stimulus": "<p id=\"stim\">+</p>", "key_press": -1, "type": "FIXATION", "trial_type": "single-stim", "trial_index": 184, "time_elapsed": 1061277, "internal_node_id": "0.0-130.0-0.0"}}, {"uniqueid": "MTK0679:3IUZPWIU1PEZ1KT16Y27MA8IGNBKW3", "current_trial": 185, "dateTime": 1512591101988, "trialdata": {"rt": -1000, "stimulus": "/static/audio/wordpool/MILK.wav", "key_press": -1, "type": "PRES_AUD", "word": "milk", "wordID": 894, "conditions": [12, 1600, "a", 24000], "trial": 5, "serialpos": 0, "trial_type": "single-audio", "trial_index": 185, "time_elapsed": 1063767, "internal_node_id": "0.0-131.0"}}, {"uniqueid": "MTK0679:3IUZPWIU1PEZ1KT16Y27MA8IGNBKW3", "current_trial": 186, "dateTime": 1512591104419, "trialdata": {"rt": 1731.999999999971, "stimulus": "/static/audio/wordpool/KLEENEX.wav", "key_press": 175, "type": "PRES_AUD", "word": "kleenex", "wordID": 781, "conditions": [12, 1600, "a", 24000], "trial": 5, "serialpos": 1, "trial_type": "single-audio", "trial_index": 186, "time_elapsed": 1066197, "internal_node_id": "0.0-132.0"}}, {"uniqueid": "MTK0679:3IUZPWIU1PEZ1KT16Y27MA8IGNBKW3", "current_trial": 187, "dateTime": 1512591107161, "trialdata": {"rt": -81.33333333330484, "stimulus": "/static/audio/wordpool/YACHT.wav", "key_press": 175, "type": "PRES_AUD", "word": "yacht", "wordID": 1628, "conditions": [12, 1600, "a", 24000], "trial": 5, "serialpos": 2, "trial_type": "single-audio", "trial_index": 187, "time_elapsed": 1068939, "internal_node_id": "0.0-133.0"}}, {"uniqueid": "MTK0679:3IUZPWIU1PEZ1KT16Y27MA8IGNBKW3", "current_trial": 188, "dateTime": 1512591109615, "trialdata": {"rt": -1000, "stimulus": "/static/audio/wordpool/SUPPER.wav", "key_press": -1, "type": "PRES_AUD", "word": "supper", "wordID": 1410, "conditions": [12, 1600, "a", 24000], "trial": 5, "serialpos": 3, "trial_type": "single-audio", "trial_index": 188, "time_elapsed": 1071393, "internal_node_id": "0.0-134.0"}}, {"uniqueid": "MTK0679:3IUZPWIU1PEZ1KT16Y27MA8IGNBKW3", "current_trial": 189, "dateTime": 1512591112116, "trialdata": {"rt": -1000, "stimulus": "/static/audio/wordpool/MUFFIN.wav", "key_press": -1, "type": "PRES_AUD", "word": "muffin", "wordID": 928, "conditions": [12, 1600, "a", 24000], "trial": 5, "serialpos": 4, "trial_type": "single-audio", "trial_index": 189, "time_elapsed": 1073895, "internal_node_id": "0.0-135.0"}}, {"uniqueid": "MTK0679:3IUZPWIU1PEZ1KT16Y27MA8IGNBKW3", "current_trial": 190, "dateTime": 1512591114715, "trialdata": {"rt": -1000, "stimulus": "/static/audio/wordpool/HERO.wav", "key_press": -1, "type": "PRES_AUD", "word": "hero", "wordID": 705, "conditions": [12, 1600, "a", 24000], "trial": 5, "serialpos": 5, "trial_type": "single-audio", "trial_index": 190, "time_elapsed": 1076494, "internal_node_id": "0.0-136.0"}}, {"uniqueid": "MTK0679:3IUZPWIU1PEZ1KT16Y27MA8IGNBKW3", "current_trial": 191, "dateTime": 1512591117257, "trialdata": {"rt": -1000, "stimulus": "/static/audio/wordpool/HANDBAG.wav", "key_press": -1, "type": "PRES_AUD", "word": "handbag", "wordID": 683, "conditions": [12, 1600, "a", 24000], "trial": 5, "serialpos": 6, "trial_type": "single-audio", "trial_index": 191, "time_elapsed": 1079036, "internal_node_id": "0.0-137.0"}}, {"uniqueid": "MTK0679:3IUZPWIU1PEZ1KT16Y27MA8IGNBKW3", "current_trial": 192, "dateTime": 1512591119798, "trialdata": {"rt": -1000, "stimulus": "/static/audio/wordpool/FOX.wav", "key_press": -1, "type": "PRES_AUD", "word": "fox", "wordID": 597, "conditions": [12, 1600, "a", 24000], "trial": 5, "serialpos": 7, "trial_type": "single-audio", "trial_index": 192, "time_elapsed": 1081577, "internal_node_id": "0.0-138.0"}}, {"uniqueid": "MTK0679:3IUZPWIU1PEZ1KT16Y27MA8IGNBKW3", "current_trial": 193, "dateTime": 1512591122510, "trialdata": {"rt": -1000, "stimulus": "/static/audio/wordpool/ROOSTER.wav", "key_press": -1, "type": "PRES_AUD", "word": "rooster", "wordID": 1208, "conditions": [12, 1600, "a", 24000], "trial": 5, "serialpos": 8, "trial_type": "single-audio", "trial_index": 193, "time_elapsed": 1084288, "internal_node_id": "0.0-139.0"}}, {"uniqueid": "MTK0679:3IUZPWIU1PEZ1KT16Y27MA8IGNBKW3", "current_trial": 194, "dateTime": 1512591125186, "trialdata": {"rt": -1000, "stimulus": "/static/audio/wordpool/LUNCH.wav", "key_press": -1, "type": "PRES_AUD", "word": "lunch", "wordID": 848, "conditions": [12, 1600, "a", 24000], "trial": 5, "serialpos": 9, "trial_type": "single-audio", "trial_index": 194, "time_elapsed": 1086964, "internal_node_id": "0.0-140.0"}}, {"uniqueid": "MTK0679:3IUZPWIU1PEZ1KT16Y27MA8IGNBKW3", "current_trial": 195, "dateTime": 1512591127949, "trialdata": {"rt": -1000, "stimulus": "/static/audio/wordpool/COCKTAIL.wav", "key_press": -1, "type": "PRES_AUD", "word": "cocktail", "wordID": 337, "conditions": [12, 1600, "a", 24000], "trial": 5, "serialpos": 10, "trial_type": "single-audio", "trial_index": 195, "time_elapsed": 1089725, "internal_node_id": "0.0-141.0"}}, {"uniqueid": "MTK0679:3IUZPWIU1PEZ1KT16Y27MA8IGNBKW3", "current_trial": 196, "dateTime": 1512591130645, "trialdata": {"rt": -1000, "stimulus": "/static/audio/wordpool/RUG.wav", "key_press": -1, "type": "PRES_AUD", "word": "rug", "wordID": 1214, "conditions": [12, 1600, "a", 24000], "trial": 5, "serialpos": 11, "trial_type": "single-audio", "trial_index": 196, "time_elapsed": 1092424, "internal_node_id": "0.0-142.0"}}, {"uniqueid": "MTK0679:3IUZPWIU1PEZ1KT16Y27MA8IGNBKW3", "current_trial": 197, "dateTime": 1512591131888, "trialdata": {"rt": -1, "stimulus": "", "key_press": -1, "type": "PRE_RECALL_DELAY", "trial_type": "single-stim", "trial_index": 197, "time_elapsed": 1093666, "internal_node_id": "0.0-143.0-0.0"}}, {"uniqueid": "MTK0679:3IUZPWIU1PEZ1KT16Y27MA8IGNBKW3", "current_trial": 198, "dateTime": 1512591132392, "trialdata": {"rt": -1000, "stimulus": "/static/audio/400Hz.wav", "key_press": -1, "type": "PRE_RECALL_ALERT", "trial_type": "single-audio", "trial_index": 198, "time_elapsed": 1094171, "internal_node_id": "0.0-144.0"}}, {"uniqueid": "MTK0679:3IUZPWIU1PEZ1KT16Y27MA8IGNBKW3", "current_trial": 199, "dateTime": 1512591192416, "trialdata": {"rt": [2259, 4209, 6640, 8148, 9295, 11363, 12738, 27345], "recwords": ["rug", "cocktail", "handbag", "rooster", "fox", "muffin", "hero", "supper"], "type": "FREE_RECALL", "conditions": [12, 1600, "a", 24000], "trial": 5, "trial_type": "free-recall", "trial_index": 199, "time_elapsed": 1154182, "internal_node_id": "0.0-145.0-0.0"}}, {"uniqueid": "MTK0679:3IUZPWIU1PEZ1KT16Y27MA8IGNBKW3", "current_trial": 200, "dateTime": 1512591197258, "trialdata": {"rt": 2840, "key_press": 32, "type": "INSTRUCTIONS", "trial_type": "text", "trial_index": 200, "time_elapsed": 1159037, "internal_node_id": "0.0-146.0"}}, {"uniqueid": "MTK0679:3IUZPWIU1PEZ1KT16Y27MA8IGNBKW3", "current_trial": 201, "dateTime": 1512591223274, "trialdata": {"rt": [2252, 3974, 5772, 7520, 10968, 12676, 16415, 21278], "responses": ["14", "19", "15", "15", "17", "4", "20", "25"], "num1": [3, 9, 3, 5, 4, 2, 4, 8, 2], "num2": [7, 8, 7, 2, 4, 1, 9, 9, 4], "num3": [4, 2, 5, 8, 9, 1, 7, 6, 4], "type": "DISTRACTOR", "conditions": [24, 800, "a", 24000], "trial": 6, "trial_type": "math-distractor", "trial_index": 201, "time_elapsed": 1185052, "internal_node_id": "0.0-147.0"}}, {"uniqueid": "MTK0679:3IUZPWIU1PEZ1KT16Y27MA8IGNBKW3", "current_trial": 202, "dateTime": 1512591226277, "trialdata": {"rt": -1, "stimulus": "<p id=\"stim\">10</p>", "key_press": -1, "trial_type": "single-stim", "trial_index": 202, "time_elapsed": 1188055, "internal_node_id": "0.0-148.0-0.0"}}, {"uniqueid": "MTK0679:3IUZPWIU1PEZ1KT16Y27MA8IGNBKW3", "current_trial": 203, "dateTime": 1512591227281, "trialdata": {"rt": -1, "stimulus": "<p id=\"stim\">9</p>", "key_press": -1, "trial_type": "single-stim", "trial_index": 203, "time_elapsed": 1189060, "internal_node_id": "0.0-148.0-1.0"}}, {"uniqueid": "MTK0679:3IUZPWIU1PEZ1KT16Y27MA8IGNBKW3", "current_trial": 204, "dateTime": 1512591228284, "trialdata": {"rt": -1, "stimulus": "<p id=\"stim\">8</p>", "key_press": -1, "trial_type": "single-stim", "trial_index": 204, "time_elapsed": 1190062, "internal_node_id": "0.0-148.0-2.0"}}, {"uniqueid": "MTK0679:3IUZPWIU1PEZ1KT16Y27MA8IGNBKW3", "current_trial": 205, "dateTime": 1512591229288, "trialdata": {"rt": -1, "stimulus": "<p id=\"stim\">7</p>", "key_press": -1, "trial_type": "single-stim", "trial_index": 205, "time_elapsed": 1191067, "internal_node_id": "0.0-148.0-3.0"}}, {"uniqueid": "MTK0679:3IUZPWIU1PEZ1KT16Y27MA8IGNBKW3", "current_trial": 206, "dateTime": 1512591230291, "trialdata": {"rt": -1, "stimulus": "<p id=\"stim\">6</p>", "key_press": -1, "trial_type": "single-stim", "trial_index": 206, "time_elapsed": 1192069, "internal_node_id": "0.0-148.0-4.0"}}, {"uniqueid": "MTK0679:3IUZPWIU1PEZ1KT16Y27MA8IGNBKW3", "current_trial": 207, "dateTime": 1512591231296, "trialdata": {"rt": -1, "stimulus": "<p id=\"stim\">5</p>", "key_press": -1, "trial_type": "single-stim", "trial_index": 207, "time_elapsed": 1193075, "internal_node_id": "0.0-148.0-5.0"}}, {"uniqueid": "MTK0679:3IUZPWIU1PEZ1KT16Y27MA8IGNBKW3", "current_trial": 208, "dateTime": 1512591232300, "trialdata": {"rt": -1, "stimulus": "<p id=\"stim\">4</p>", "key_press": -1, "trial_type": "single-stim", "trial_index": 208, "time_elapsed": 1194079, "internal_node_id": "0.0-148.0-6.0"}}, {"uniqueid": "MTK0679:3IUZPWIU1PEZ1KT16Y27MA8IGNBKW3", "current_trial": 209, "dateTime": 1512591233305, "trialdata": {"rt": -1, "stimulus": "<p id=\"stim\">3</p>", "key_press": -1, "trial_type": "single-stim", "trial_index": 209, "time_elapsed": 1195084, "internal_node_id": "0.0-148.0-7.0"}}, {"uniqueid": "MTK0679:3IUZPWIU1PEZ1KT16Y27MA8IGNBKW3", "current_trial": 210, "dateTime": 1512591234314, "trialdata": {"rt": -1, "stimulus": "<p id=\"stim\">2</p>", "key_press": -1, "trial_type": "single-stim", "trial_index": 210, "time_elapsed": 1196092, "internal_node_id": "0.0-148.0-8.0"}}, {"uniqueid": "MTK0679:3IUZPWIU1PEZ1KT16Y27MA8IGNBKW3", "current_trial": 211, "dateTime": 1512591235317, "trialdata": {"rt": -1, "stimulus": "<p id=\"stim\">1</p>", "key_press": -1, "trial_type": "single-stim", "trial_index": 211, "time_elapsed": 1197096, "internal_node_id": "0.0-148.0-9.0"}}, {"uniqueid": "MTK0679:3IUZPWIU1PEZ1KT16Y27MA8IGNBKW3", "current_trial": 212, "dateTime": 1512591236821, "trialdata": {"rt": -1, "stimulus": "<p id=\"stim\">+</p>", "key_press": -1, "type": "FIXATION", "trial_type": "single-stim", "trial_index": 212, "time_elapsed": 1198600, "internal_node_id": "0.0-149.0-0.0"}}, {"uniqueid": "MTK0679:3IUZPWIU1PEZ1KT16Y27MA8IGNBKW3", "current_trial": 213, "dateTime": 1512591238811, "trialdata": {"rt": -1000, "stimulus": "/static/audio/wordpool/GRAPE.wav", "key_press": -1, "type": "PRES_AUD", "word": "grape", "wordID": 653, "conditions": [24, 800, "a", 24000], "trial": 6, "serialpos": 0, "trial_type": "single-audio", "trial_index": 213, "time_elapsed": 1200590, "internal_node_id": "0.0-150.0"}}, {"uniqueid": "MTK0679:3IUZPWIU1PEZ1KT16Y27MA8IGNBKW3", "current_trial": 214, "dateTime": 1512591240782, "trialdata": {"rt": -1000, "stimulus": "/static/audio/wordpool/ITEM.wav", "key_press": -1, "type": "PRES_AUD", "word": "item", "wordID": 745, "conditions": [24, 800, "a", 24000], "trial": 6, "serialpos": 1, "trial_type": "single-audio", "trial_index": 214, "time_elapsed": 1202560, "internal_node_id": "0.0-151.0"}}, {"uniqueid": "MTK0679:3IUZPWIU1PEZ1KT16Y27MA8IGNBKW3", "current_trial": 215, "dateTime": 1512591242488, "trialdata": {"rt": -1000, "stimulus": "/static/audio/wordpool/JUGGLER.wav", "key_press": -1, "type": "PRES_AUD", "word": "juggler", "wordID": 762, "conditions": [24, 800, "a", 24000], "trial": 6, "serialpos": 2, "trial_type": "single-audio", "trial_index": 215, "time_elapsed": 1204267, "internal_node_id": "0.0-152.0"}}, {"uniqueid": "MTK0679:3IUZPWIU1PEZ1KT16Y27MA8IGNBKW3", "current_trial": 216, "dateTime": 1512591244231, "trialdata": {"rt": -1000, "stimulus": "/static/audio/wordpool/COBRA.wav", "key_press": -1, "type": "PRES_AUD", "word": "cobra", "wordID": 335, "conditions": [24, 800, "a", 24000], "trial": 6, "serialpos": 3, "trial_type": "single-audio", "trial_index": 216, "time_elapsed": 1206010, "internal_node_id": "0.0-153.0"}}, {"uniqueid": "MTK0679:3IUZPWIU1PEZ1KT16Y27MA8IGNBKW3", "current_trial": 217, "dateTime": 1512591245907, "trialdata": {"rt": -1000, "stimulus": "/static/audio/wordpool/RADISH.wav", "key_press": -1, "type": "PRES_AUD", "word": "radish", "wordID": 1157, "conditions": [24, 800, "a", 24000], "trial": 6, "serialpos": 4, "trial_type": "single-audio", "trial_index": 217, "time_elapsed": 1207684, "internal_node_id": "0.0-154.0"}}, {"uniqueid": "MTK0679:3IUZPWIU1PEZ1KT16Y27MA8IGNBKW3", "current_trial": 218, "dateTime": 1512591247809, "trialdata": {"rt": -1000, "stimulus": "/static/audio/wordpool/KIDNEY.wav", "key_press": -1, "type": "PRES_AUD", "word": "kidney", "wordID": 775, "conditions": [24, 800, "a", 24000], "trial": 6, "serialpos": 5, "trial_type": "single-audio", "trial_index": 218, "time_elapsed": 1209587, "internal_node_id": "0.0-155.0"}}, {"uniqueid": "MTK0679:3IUZPWIU1PEZ1KT16Y27MA8IGNBKW3", "current_trial": 219, "dateTime": 1512591249817, "trialdata": {"rt": -1000, "stimulus": "/static/audio/wordpool/TWISTER.wav", "key_press": -1, "type": "PRES_AUD", "word": "twister", "wordID": 1529, "conditions": [24, 800, "a", 24000], "trial": 6, "serialpos": 6, "trial_type": "single-audio", "trial_index": 219, "time_elapsed": 1211596, "internal_node_id": "0.0-156.0"}}, {"uniqueid": "MTK0679:3IUZPWIU1PEZ1KT16Y27MA8IGNBKW3", "current_trial": 220, "dateTime": 1512591251765, "trialdata": {"rt": -1000, "stimulus": "/static/audio/wordpool/SHOULDER.wav", "key_press": -1, "type": "PRES_AUD", "word": "shoulder", "wordID": 1293, "conditions": [24, 800, "a", 24000], "trial": 6, "serialpos": 7, "trial_type": "single-audio", "trial_index": 220, "time_elapsed": 1213544, "internal_node_id": "0.0-157.0"}}, {"uniqueid": "MTK0679:3IUZPWIU1PEZ1KT16Y27MA8IGNBKW3", "current_trial": 221, "dateTime": 1512591253674, "trialdata": {"rt": -1000, "stimulus": "/static/audio/wordpool/SUITCASE.wav", "key_press": -1, "type": "PRES_AUD", "word": "suitcase", "wordID": 1402, "conditions": [24, 800, "a", 24000], "trial": 6, "serialpos": 8, "trial_type": "single-audio", "trial_index": 221, "time_elapsed": 1215452, "internal_node_id": "0.0-158.0"}}, {"uniqueid": "MTK0679:3IUZPWIU1PEZ1KT16Y27MA8IGNBKW3", "current_trial": 222, "dateTime": 1512591255668, "trialdata": {"rt": -1000, "stimulus": "/static/audio/wordpool/KNAPSACK.wav", "key_press": -1, "type": "PRES_AUD", "word": "knapsack", "wordID": 782, "conditions": [24, 800, "a", 24000], "trial": 6, "serialpos": 9, "trial_type": "single-audio", "trial_index": 222, "time_elapsed": 1217446, "internal_node_id": "0.0-159.0"}}, {"uniqueid": "MTK0679:3IUZPWIU1PEZ1KT16Y27MA8IGNBKW3", "current_trial": 223, "dateTime": 1512591257610, "trialdata": {"rt": -1000, "stimulus": "/static/audio/wordpool/LETTUCE.wav", "key_press": -1, "type": "PRES_AUD", "word": "lettuce", "wordID": 813, "conditions": [24, 800, "a", 24000], "trial": 6, "serialpos": 10, "trial_type": "single-audio", "trial_index": 223, "time_elapsed": 1219389, "internal_node_id": "0.0-160.0"}}, {"uniqueid": "MTK0679:3IUZPWIU1PEZ1KT16Y27MA8IGNBKW3", "current_trial": 224, "dateTime": 1512591259508, "trialdata": {"rt": -1000, "stimulus": "/static/audio/wordpool/FRAGRANCE.wav", "key_press": -1, "type": "PRES_AUD", "word": "fragrance", "wordID": 598, "conditions": [24, 800, "a", 24000], "trial": 6, "serialpos": 11, "trial_type": "single-audio", "trial_index": 224, "time_elapsed": 1221286, "internal_node_id": "0.0-161.0"}}, {"uniqueid": "MTK0679:3IUZPWIU1PEZ1KT16Y27MA8IGNBKW3", "current_trial": 225, "dateTime": 1512591261444, "trialdata": {"rt": -1000, "stimulus": "/static/audio/wordpool/LAKE.wav", "key_press": -1, "type": "PRES_AUD", "word": "lake", "wordID": 795, "conditions": [24, 800, "a", 24000], "trial": 6, "serialpos": 12, "trial_type": "single-audio", "trial_index": 225, "time_elapsed": 1223222, "internal_node_id": "0.0-162.0"}}, {"uniqueid": "MTK0679:3IUZPWIU1PEZ1KT16Y27MA8IGNBKW3", "current_trial": 226, "dateTime": 1512591263353, "trialdata": {"rt": -1000, "stimulus": "/static/audio/wordpool/DRIVER.wav", "key_press": -1, "type": "PRES_AUD", "word": "driver", "wordID": 498, "conditions": [24, 800, "a", 24000], "trial": 6, "serialpos": 13, "trial_type": "single-audio", "trial_index": 226, "time_elapsed": 1225132, "internal_node_id": "0.0-163.0"}}, {"uniqueid": "MTK0679:3IUZPWIU1PEZ1KT16Y27MA8IGNBKW3", "current_trial": 227, "dateTime": 1512591265313, "trialdata": {"rt": -1000, "stimulus": "/static/audio/wordpool/CHAMPAGNE.wav", "key_press": -1, "type": "PRES_AUD", "word": "champagne", "wordID": 277, "conditions": [24, 800, "a", 24000], "trial": 6, "serialpos": 14, "trial_type": "single-audio", "trial_index": 227, "time_elapsed": 1227092, "internal_node_id": "0.0-164.0"}}, {"uniqueid": "MTK0679:3IUZPWIU1PEZ1KT16Y27MA8IGNBKW3", "current_trial": 228, "dateTime": 1512591267152, "trialdata": {"rt": -1000, "stimulus": "/static/audio/wordpool/ACTOR.wav", "key_press": -1, "type": "PRES_AUD", "word": "actor", "wordID": 4, "conditions": [24, 800, "a", 24000], "trial": 6, "serialpos": 15, "trial_type": "single-audio", "trial_index": 228, "time_elapsed": 1228930, "internal_node_id": "0.0-165.0"}}, {"uniqueid": "MTK0679:3IUZPWIU1PEZ1KT16Y27MA8IGNBKW3", "current_trial": 229, "dateTime": 1512591268786, "trialdata": {"rt": -1000, "stimulus": "/static/audio/wordpool/FILM.wav", "key_press": -1, "type": "PRES_AUD", "word": "film", "wordID": 564, "conditions": [24, 800, "a", 24000], "trial": 6, "serialpos": 16, "trial_type": "single-audio", "trial_index": 229, "time_elapsed": 1230564, "internal_node_id": "0.0-166.0"}}, {"uniqueid": "MTK0679:3IUZPWIU1PEZ1KT16Y27MA8IGNBKW3", "current_trial": 230, "dateTime": 1512591270707, "trialdata": {"rt": -1000, "stimulus": "/static/audio/wordpool/CARROT.wav", "key_press": -1, "type": "PRES_AUD", "word": "carrot", "wordID": 248, "conditions": [24, 800, "a", 24000], "trial": 6, "serialpos": 17, "trial_type": "single-audio", "trial_index": 230, "time_elapsed": 1232486, "internal_node_id": "0.0-167.0"}}, {"uniqueid": "MTK0679:3IUZPWIU1PEZ1KT16Y27MA8IGNBKW3", "current_trial": 231, "dateTime": 1512591272615, "trialdata": {"rt": -1000, "stimulus": "/static/audio/wordpool/FLESH.wav", "key_press": -1, "type": "PRES_AUD", "word": "flesh", "wordID": 578, "conditions": [24, 800, "a", 24000], "trial": 6, "serialpos": 18, "trial_type": "single-audio", "trial_index": 231, "time_elapsed": 1234393, "internal_node_id": "0.0-168.0"}}, {"uniqueid": "MTK0679:3IUZPWIU1PEZ1KT16Y27MA8IGNBKW3", "current_trial": 232, "dateTime": 1512591274247, "trialdata": {"rt": -1000, "stimulus": "/static/audio/wordpool/LAGOON.wav", "key_press": -1, "type": "PRES_AUD", "word": "lagoon", "wordID": 794, "conditions": [24, 800, "a", 24000], "trial": 6, "serialpos": 19, "trial_type": "single-audio", "trial_index": 232, "time_elapsed": 1236025, "internal_node_id": "0.0-169.0"}}, {"uniqueid": "MTK0679:3IUZPWIU1PEZ1KT16Y27MA8IGNBKW3", "current_trial": 233, "dateTime": 1512591276150, "trialdata": {"rt": -1000, "stimulus": "/static/audio/wordpool/CUPBOARD.wav", "key_press": -1, "type": "PRES_AUD", "word": "cupboard", "wordID": 424, "conditions": [24, 800, "a", 24000], "trial": 6, "serialpos": 20, "trial_type": "single-audio", "trial_index": 233, "time_elapsed": 1237929, "internal_node_id": "0.0-170.0"}}, {"uniqueid": "MTK0679:3IUZPWIU1PEZ1KT16Y27MA8IGNBKW3", "current_trial": 234, "dateTime": 1512591277947, "trialdata": {"rt": -1000, "stimulus": "/static/audio/wordpool/TRIBE.wav", "key_press": -1, "type": "PRES_AUD", "word": "tribe", "wordID": 1504, "conditions": [24, 800, "a", 24000], "trial": 6, "serialpos": 21, "trial_type": "single-audio", "trial_index": 234, "time_elapsed": 1239723, "internal_node_id": "0.0-171.0"}}, {"uniqueid": "MTK0679:3IUZPWIU1PEZ1KT16Y27MA8IGNBKW3", "current_trial": 235, "dateTime": 1512591279888, "trialdata": {"rt": -1000, "stimulus": "/static/audio/wordpool/INMATE.wav", "key_press": -1, "type": "PRES_AUD", "word": "inmate", "wordID": 737, "conditions": [24, 800, "a", 24000], "trial": 6, "serialpos": 22, "trial_type": "single-audio", "trial_index": 235, "time_elapsed": 1241667, "internal_node_id": "0.0-172.0"}}, {"uniqueid": "MTK0679:3IUZPWIU1PEZ1KT16Y27MA8IGNBKW3", "current_trial": 236, "dateTime": 1512591281565, "trialdata": {"rt": -1000, "stimulus": "/static/audio/wordpool/BELLY.wav", "key_press": -1, "type": "PRES_AUD", "word": "belly", "wordID": 118, "conditions": [24, 800, "a", 24000], "trial": 6, "serialpos": 23, "trial_type": "single-audio", "trial_index": 236, "time_elapsed": 1243344, "internal_node_id": "0.0-173.0"}}, {"uniqueid": "MTK0679:3IUZPWIU1PEZ1KT16Y27MA8IGNBKW3", "current_trial": 237, "dateTime": 1512591282782, "trialdata": {"rt": -1, "stimulus": "", "key_press": -1, "type": "PRE_RECALL_DELAY", "trial_type": "single-stim", "trial_index": 237, "time_elapsed": 1244561, "internal_node_id": "0.0-174.0-0.0"}}, {"uniqueid": "MTK0679:3IUZPWIU1PEZ1KT16Y27MA8IGNBKW3", "current_trial": 238, "dateTime": 1512591283287, "trialdata": {"rt": -1000, "stimulus": "/static/audio/400Hz.wav", "key_press": -1, "type": "PRE_RECALL_ALERT", "trial_type": "single-audio", "trial_index": 238, "time_elapsed": 1245065, "internal_node_id": "0.0-175.0"}}, {"uniqueid": "MTK0679:3IUZPWIU1PEZ1KT16Y27MA8IGNBKW3", "current_trial": 239, "dateTime": 1512591343314, "trialdata": {"rt": [2697, 4037, 6106, 7854, 12665, 20714], "recwords": ["belly", "tribe", "inmate", "pepper", "lagoon", "grape"], "type": "FREE_RECALL", "conditions": [24, 800, "a", 24000], "trial": 6, "trial_type": "free-recall", "trial_index": 239, "time_elapsed": 1305080, "internal_node_id": "0.0-176.0-0.0"}}, {"uniqueid": "MTK0679:3IUZPWIU1PEZ1KT16Y27MA8IGNBKW3", "current_trial": 240, "dateTime": 1512591347706, "trialdata": {"rt": 2388, "key_press": 32, "type": "INSTRUCTIONS", "trial_type": "text", "trial_index": 240, "time_elapsed": 1309484, "internal_node_id": "0.0-177.0"}}, {"uniqueid": "MTK0679:3IUZPWIU1PEZ1KT16Y27MA8IGNBKW3", "current_trial": 241, "dateTime": 1512591361715, "trialdata": {"rt": [3156, 5044, 7958, 9661], "responses": ["18", "10", "16", "6"], "num1": [2, 1, 1, 2, 6], "num2": [7, 6, 6, 3, 5], "num3": [9, 3, 9, 1, 8], "type": "DISTRACTOR", "conditions": [12, 1600, "a", 12000], "trial": 7, "trial_type": "math-distractor", "trial_index": 241, "time_elapsed": 1323493, "internal_node_id": "0.0-178.0"}}, {"uniqueid": "MTK0679:3IUZPWIU1PEZ1KT16Y27MA8IGNBKW3", "current_trial": 242, "dateTime": 1512591364718, "trialdata": {"rt": -1, "stimulus": "<p id=\"stim\">10</p>", "key_press": -1, "trial_type": "single-stim", "trial_index": 242, "time_elapsed": 1326497, "internal_node_id": "0.0-179.0-0.0"}}, {"uniqueid": "MTK0679:3IUZPWIU1PEZ1KT16Y27MA8IGNBKW3", "current_trial": 243, "dateTime": 1512591365722, "trialdata": {"rt": -1, "stimulus": "<p id=\"stim\">9</p>", "key_press": -1, "trial_type": "single-stim", "trial_index": 243, "time_elapsed": 1327501, "internal_node_id": "0.0-179.0-1.0"}}, {"uniqueid": "MTK0679:3IUZPWIU1PEZ1KT16Y27MA8IGNBKW3", "current_trial": 244, "dateTime": 1512591366725, "trialdata": {"rt": -1, "stimulus": "<p id=\"stim\">8</p>", "key_press": -1, "trial_type": "single-stim", "trial_index": 244, "time_elapsed": 1328504, "internal_node_id": "0.0-179.0-2.0"}}, {"uniqueid": "MTK0679:3IUZPWIU1PEZ1KT16Y27MA8IGNBKW3", "current_trial": 245, "dateTime": 1512591367729, "trialdata": {"rt": -1, "stimulus": "<p id=\"stim\">7</p>", "key_press": -1, "trial_type": "single-stim", "trial_index": 245, "time_elapsed": 1329508, "internal_node_id": "0.0-179.0-3.0"}}, {"uniqueid": "MTK0679:3IUZPWIU1PEZ1KT16Y27MA8IGNBKW3", "current_trial": 246, "dateTime": 1512591368733, "trialdata": {"rt": -1, "stimulus": "<p id=\"stim\">6</p>", "key_press": -1, "trial_type": "single-stim", "trial_index": 246, "time_elapsed": 1330512, "internal_node_id": "0.0-179.0-4.0"}}, {"uniqueid": "MTK0679:3IUZPWIU1PEZ1KT16Y27MA8IGNBKW3", "current_trial": 247, "dateTime": 1512591369735, "trialdata": {"rt": -1, "stimulus": "<p id=\"stim\">5</p>", "key_press": -1, "trial_type": "single-stim", "trial_index": 247, "time_elapsed": 1331514, "internal_node_id": "0.0-179.0-5.0"}}, {"uniqueid": "MTK0679:3IUZPWIU1PEZ1KT16Y27MA8IGNBKW3", "current_trial": 248, "dateTime": 1512591370740, "trialdata": {"rt": -1, "stimulus": "<p id=\"stim\">4</p>", "key_press": -1, "trial_type": "single-stim", "trial_index": 248, "time_elapsed": 1332518, "internal_node_id": "0.0-179.0-6.0"}}, {"uniqueid": "MTK0679:3IUZPWIU1PEZ1KT16Y27MA8IGNBKW3", "current_trial": 249, "dateTime": 1512591371742, "trialdata": {"rt": -1, "stimulus": "<p id=\"stim\">3</p>", "key_press": -1, "trial_type": "single-stim", "trial_index": 249, "time_elapsed": 1333521, "internal_node_id": "0.0-179.0-7.0"}}, {"uniqueid": "MTK0679:3IUZPWIU1PEZ1KT16Y27MA8IGNBKW3", "current_trial": 250, "dateTime": 1512591372745, "trialdata": {"rt": -1, "stimulus": "<p id=\"stim\">2</p>", "key_press": -1, "trial_type": "single-stim", "trial_index": 250, "time_elapsed": 1334524, "internal_node_id": "0.0-179.0-8.0"}}, {"uniqueid": "MTK0679:3IUZPWIU1PEZ1KT16Y27MA8IGNBKW3", "current_trial": 251, "dateTime": 1512591373749, "trialdata": {"rt": -1, "stimulus": "<p id=\"stim\">1</p>", "key_press": -1, "trial_type": "single-stim", "trial_index": 251, "time_elapsed": 1335527, "internal_node_id": "0.0-179.0-9.0"}}, {"uniqueid": "MTK0679:3IUZPWIU1PEZ1KT16Y27MA8IGNBKW3", "current_trial": 252, "dateTime": 1512591375253, "trialdata": {"rt": -1, "stimulus": "<p id=\"stim\">+</p>", "key_press": -1, "type": "FIXATION", "trial_type": "single-stim", "trial_index": 252, "time_elapsed": 1337030, "internal_node_id": "0.0-180.0-0.0"}}, {"uniqueid": "MTK0679:3IUZPWIU1PEZ1KT16Y27MA8IGNBKW3", "current_trial": 253, "dateTime": 1512591378030, "trialdata": {"rt": -1000, "stimulus": "/static/audio/wordpool/PEACH.wav", "key_press": -1, "type": "PRES_AUD", "word": "peach", "wordID": 1030, "conditions": [12, 1600, "a", 12000], "trial": 7, "serialpos": 0, "trial_type": "single-audio", "trial_index": 253, "time_elapsed": 1339809, "internal_node_id": "0.0-181.0"}}, {"uniqueid": "MTK0679:3IUZPWIU1PEZ1KT16Y27MA8IGNBKW3", "current_trial": 254, "dateTime": 1512591380839, "trialdata": {"rt": -1000, "stimulus": "/static/audio/wordpool/CHIPMUNK.wav", "key_press": -1, "type": "PRES_AUD", "word": "chipmunk", "wordID": 303, "conditions": [12, 1600, "a", 12000], "trial": 7, "serialpos": 1, "trial_type": "single-audio", "trial_index": 254, "time_elapsed": 1342617, "internal_node_id": "0.0-182.0"}}, {"uniqueid": "MTK0679:3IUZPWIU1PEZ1KT16Y27MA8IGNBKW3", "current_trial": 255, "dateTime": 1512591383438, "trialdata": {"rt": -1000, "stimulus": "/static/audio/wordpool/BUGGY.wav", "key_press": -1, "type": "PRES_AUD", "word": "buggy", "wordID": 187, "conditions": [12, 1600, "a", 12000], "trial": 7, "serialpos": 2, "trial_type": "single-audio", "trial_index": 255, "time_elapsed": 1345216, "internal_node_id": "0.0-183.0"}}, {"uniqueid": "MTK0679:3IUZPWIU1PEZ1KT16Y27MA8IGNBKW3", "current_trial": 256, "dateTime": 1512591386071, "trialdata": {"rt": -1000, "stimulus": "/static/audio/wordpool/HARP.wav", "key_press": -1, "type": "PRES_AUD", "word": "harp", "wordID": 688, "conditions": [12, 1600, "a", 12000], "trial": 7, "serialpos": 3, "trial_type": "single-audio", "trial_index": 256, "time_elapsed": 1347850, "internal_node_id": "0.0-184.0"}}, {"uniqueid": "MTK0679:3IUZPWIU1PEZ1KT16Y27MA8IGNBKW3", "current_trial": 257, "dateTime": 1512591388782, "trialdata": {"rt": -1000, "stimulus": "/static/audio/wordpool/PIGMENT.wav", "key_press": -1, "type": "PRES_AUD", "word": "pigment", "wordID": 1065, "conditions": [12, 1600, "a", 12000], "trial": 7, "serialpos": 4, "trial_type": "single-audio", "trial_index": 257, "time_elapsed": 1350561, "internal_node_id": "0.0-185.0"}}, {"uniqueid": "MTK0679:3IUZPWIU1PEZ1KT16Y27MA8IGNBKW3", "current_trial": 258, "dateTime": 1512591391408, "trialdata": {"rt": -1000, "stimulus": "/static/audio/wordpool/PICTURE.wav", "key_press": -1, "type": "PRES_AUD", "word": "picture", "wordID": 1060, "conditions": [12, 1600, "a", 12000], "trial": 7, "serialpos": 5, "trial_type": "single-audio", "trial_index": 258, "time_elapsed": 1353186, "internal_node_id": "0.0-186.0"}}, {"uniqueid": "MTK0679:3IUZPWIU1PEZ1KT16Y27MA8IGNBKW3", "current_trial": 259, "dateTime": 1512591393967, "trialdata": {"rt": -1000, "stimulus": "/static/audio/wordpool/TROMBONE.wav", "key_press": -1, "type": "PRES_AUD", "word": "trombone", "wordID": 1507, "conditions": [12, 1600, "a", 12000], "trial": 7, "serialpos": 6, "trial_type": "single-audio", "trial_index": 259, "time_elapsed": 1355745, "internal_node_id": "0.0-187.0"}}, {"uniqueid": "MTK0679:3IUZPWIU1PEZ1KT16Y27MA8IGNBKW3", "current_trial": 260, "dateTime": 1512591396641, "trialdata": {"rt": -1000, "stimulus": "/static/audio/wordpool/CREATURE.wav", "key_press": -1, "type": "PRES_AUD", "word": "creature", "wordID": 402, "conditions": [12, 1600, "a", 12000], "trial": 7, "serialpos": 7, "trial_type": "single-audio", "trial_index": 260, "time_elapsed": 1358420, "internal_node_id": "0.0-188.0"}}, {"uniqueid": "MTK0679:3IUZPWIU1PEZ1KT16Y27MA8IGNBKW3", "current_trial": 261, "dateTime": 1512591399415, "trialdata": {"rt": -1000, "stimulus": "/static/audio/wordpool/BEAST.wav", "key_press": -1, "type": "PRES_AUD", "word": "beast", "wordID": 107, "conditions": [12, 1600, "a", 12000], "trial": 7, "serialpos": 8, "trial_type": "single-audio", "trial_index": 261, "time_elapsed": 1361194, "internal_node_id": "0.0-189.0"}}, {"uniqueid": "MTK0679:3IUZPWIU1PEZ1KT16Y27MA8IGNBKW3", "current_trial": 262, "dateTime": 1512591401964, "trialdata": {"rt": -1000, "stimulus": "/static/audio/wordpool/SLIDE.wav", "key_press": -1, "type": "PRES_AUD", "word": "slide", "wordID": 1325, "conditions": [12, 1600, "a", 12000], "trial": 7, "serialpos": 9, "trial_type": "single-audio", "trial_index": 262, "time_elapsed": 1363742, "internal_node_id": "0.0-190.0"}}, {"uniqueid": "MTK0679:3IUZPWIU1PEZ1KT16Y27MA8IGNBKW3", "current_trial": 263, "dateTime": 1512591404682, "trialdata": {"rt": -1000, "stimulus": "/static/audio/wordpool/RUST.wav", "key_press": -1, "type": "PRES_AUD", "word": "rust", "wordID": 1218, "conditions": [12, 1600, "a", 12000], "trial": 7, "serialpos": 10, "trial_type": "single-audio", "trial_index": 263, "time_elapsed": 1366461, "internal_node_id": "0.0-191.0"}}, {"uniqueid": "MTK0679:3IUZPWIU1PEZ1KT16Y27MA8IGNBKW3", "current_trial": 264, "dateTime": 1512591407438, "trialdata": {"rt": -1000, "stimulus": "/static/audio/wordpool/MATCH.wav", "key_press": -1, "type": "PRES_AUD", "word": "match", "wordID": 877, "conditions": [12, 1600, "a", 12000], "trial": 7, "serialpos": 11, "trial_type": "single-audio", "trial_index": 264, "time_elapsed": 1369217, "internal_node_id": "0.0-192.0"}}, {"uniqueid": "MTK0679:3IUZPWIU1PEZ1KT16Y27MA8IGNBKW3", "current_trial": 265, "dateTime": 1512591408746, "trialdata": {"rt": -1, "stimulus": "", "key_press": -1, "type": "PRE_RECALL_DELAY", "trial_type": "single-stim", "trial_index": 265, "time_elapsed": 1370525, "internal_node_id": "0.0-193.0-0.0"}}, {"uniqueid": "MTK0679:3IUZPWIU1PEZ1KT16Y27MA8IGNBKW3", "current_trial": 266, "dateTime": 1512591409265, "trialdata": {"rt": -1000, "stimulus": "/static/audio/400Hz.wav", "key_press": -1, "type": "PRE_RECALL_ALERT", "trial_type": "single-audio", "trial_index": 266, "time_elapsed": 1371042, "internal_node_id": "0.0-194.0"}}, {"uniqueid": "MTK0679:3IUZPWIU1PEZ1KT16Y27MA8IGNBKW3", "current_trial": 267, "dateTime": 1512591469293, "trialdata": {"rt": [3010, 5028, 6323, 12939, 15165, 24022, 35972, 37159], "recwords": ["teacher", "preacher", "rust", "trombone", "fly", "kidney", "harp", "feast"], "type": "FREE_RECALL", "conditions": [12, 1600, "a", 12000], "trial": 7, "trial_type": "free-recall", "trial_index": 267, "time_elapsed": 1431054, "internal_node_id": "0.0-195.0-0.0"}}, {"uniqueid": "MTK0679:3IUZPWIU1PEZ1KT16Y27MA8IGNBKW3", "current_trial": 268, "dateTime": 1512591473157, "trialdata": {"rt": 1859, "key_press": 32, "type": "INSTRUCTIONS", "trial_type": "text", "trial_index": 268, "time_elapsed": 1434935, "internal_node_id": "0.0-196.0"}}, {"uniqueid": "MTK0679:3IUZPWIU1PEZ1KT16Y27MA8IGNBKW3", "current_trial": 269, "dateTime": 1512591499171, "trialdata": {"rt": [2127, 5995, 8133, 12494, 14534, 16924, 20453, 23350], "responses": ["7", "17", "18", "15", "20", "18", "13", "13"], "num1": [1, 4, 9, 7, 8, 7, 7, 2, 1], "num2": [2, 4, 1, 2, 8, 5, 1, 4, 9], "num3": [4, 9, 8, 6, 4, 6, 5, 7, 5], "type": "DISTRACTOR", "conditions": [24, 1600, "a", 24000], "trial": 8, "trial_type": "math-distractor", "trial_index": 269, "time_elapsed": 1460950, "internal_node_id": "0.0-197.0"}}, {"uniqueid": "MTK0679:3IUZPWIU1PEZ1KT16Y27MA8IGNBKW3", "current_trial": 270, "dateTime": 1512591502174, "trialdata": {"rt": -1, "stimulus": "<p id=\"stim\">10</p>", "key_press": -1, "trial_type": "single-stim", "trial_index": 270, "time_elapsed": 1463953, "internal_node_id": "0.0-198.0-0.0"}}, {"uniqueid": "MTK0679:3IUZPWIU1PEZ1KT16Y27MA8IGNBKW3", "current_trial": 271, "dateTime": 1512591503179, "trialdata": {"rt": -1, "stimulus": "<p id=\"stim\">9</p>", "key_press": -1, "trial_type": "single-stim", "trial_index": 271, "time_elapsed": 1464958, "internal_node_id": "0.0-198.0-1.0"}}, {"uniqueid": "MTK0679:3IUZPWIU1PEZ1KT16Y27MA8IGNBKW3", "current_trial": 272,