{"condition": 0, "counterbalance": 1647, "assignmentId": "32EYX73OY1G8WKHR1IW35Y9ZQY9RUH", "workerId": "MTK0651", "hitId": "3PIOQ99R7YTLU2R5I9AK7U85AZAUNS", "currenttrial": 626, "bonus": 0, "data": [{"uniqueid": "MTK0651:32EYX73OY1G8WKHR1IW35Y9ZQY9RUH", "current_trial": 0, "dateTime": 1512578622711, "trialdata": {"rt": 2255, "key_press": 32, "type": "INSTRUCTIONS", "trial_type": "text", "trial_index": 0, "time_elapsed": 2261, "internal_node_id": "0.0-0.0"}}, {"uniqueid": "MTK0651:32EYX73OY1G8WKHR1IW35Y9ZQY9RUH", "current_trial": 1, "dateTime": 1512578636938, "trialdata": {"rt": 14224, "key_press": 32, "type": "INSTRUCTIONS", "trial_type": "text", "trial_index": 1, "time_elapsed": 16489, "internal_node_id": "0.0-1.0"}}, {"uniqueid": "MTK0651:32EYX73OY1G8WKHR1IW35Y9ZQY9RUH", "current_trial": 2, "dateTime": 1512578646041, "trialdata": {"rt": [9090], "responses": ["ocean"], "type": "AUDIO_TEST", "trial_type": "audio-test", "trial_index": 2, "time_elapsed": 25592, "internal_node_id": "0.0-2.0"}}, {"uniqueid": "MTK0651:32EYX73OY1G8WKHR1IW35Y9ZQY9RUH", "current_trial": 3, "dateTime": 1512578651801, "trialdata": {"rt": [5756], "responses": ["crystal"], "type": "AUDIO_TEST", "trial_type": "audio-test", "trial_index": 3, "time_elapsed": 31351, "internal_node_id": "0.0-3.0"}}, {"uniqueid": "MTK0651:32EYX73OY1G8WKHR1IW35Y9ZQY9RUH", "current_trial": 4, "dateTime": 1512578655896, "trialdata": {"rt": [4093], "responses": ["spice"], "type": "AUDIO_TEST", "trial_type": "audio-test", "trial_index": 4, "time_elapsed": 35447, "internal_node_id": "0.0-4.0"}}, {"uniqueid": "MTK0651:32EYX73OY1G8WKHR1IW35Y9ZQY9RUH", "current_trial": 5, "dateTime": 1512578670080, "trialdata": {"rt": 13427, "responses": "{\"Q0\":\"12 AM\",\"Q1\":\"8 AM\",\"Q2\":\"5\"}", "type": "SLEEP_SURVEY", "trial_type": "survey-text", "trial_index": 5, "time_elapsed": 49631, "internal_node_id": "0.0-5.0"}}, {"uniqueid": "MTK0651:32EYX73OY1G8WKHR1IW35Y9ZQY9RUH", "current_trial": 6, "dateTime": 1512578825970, "trialdata": {"rt": 154888, "key_press": 32, "type": "INSTRUCTIONS", "trial_type": "text", "trial_index": 6, "time_elapsed": 205521, "internal_node_id": "0.0-6.0"}}, {"uniqueid": "MTK0651:32EYX73OY1G8WKHR1IW35Y9ZQY9RUH", "current_trial": 7, "dateTime": 1512578836969, "trialdata": {"rt": 10497, "key_press": 32, "type": "INSTRUCTIONS", "trial_type": "text", "trial_index": 7, "time_elapsed": 216520, "internal_node_id": "0.0-7.0"}}, {"uniqueid": "MTK0651:32EYX73OY1G8WKHR1IW35Y9ZQY9RUH", "current_trial": 8, "dateTime": 1512578845784, "trialdata": {"rt": 8313, "key_press": 32, "type": "INSTRUCTIONS", "trial_type": "text", "trial_index": 8, "time_elapsed": 225335, "internal_node_id": "0.0-8.0"}}, {"uniqueid": "MTK0651:32EYX73OY1G8WKHR1IW35Y9ZQY9RUH", "current_trial": 9, "dateTime": 1512578864792, "trialdata": {"rt": [4792, 9041, 11785, 14585, 16233, 17984], "responses": ["9", "10", "16", "13", "12", "20"], "num1": [1, 3, 7, 3, 4, 7, 3], "num2": [6, 3, 2, 8, 2, 7, 7], "num3": [2, 4, 7, 2, 6, 6, 2], "type": "DISTRACTOR", "conditions": [18, 1200, "a", 18000], "trial": 0, "trial_type": "math-distractor", "trial_index": 9, "time_elapsed": 244343, "internal_node_id": "0.0-9.0"}}, {"uniqueid": "MTK0651:32EYX73OY1G8WKHR1IW35Y9ZQY9RUH", "current_trial": 10, "dateTime": 1512578867796, "trialdata": {"rt": -1, "stimulus": "<p id=\"stim\">10</p>", "key_press": -1, "trial_type": "single-stim", "trial_index": 10, "time_elapsed": 247347, "internal_node_id": "0.0-10.0-0.0"}}, {"uniqueid": "MTK0651:32EYX73OY1G8WKHR1IW35Y9ZQY9RUH", "current_trial": 11, "dateTime": 1512578868800, "trialdata": {"rt": -1, "stimulus": "<p id=\"stim\">9</p>", "key_press": -1, "trial_type": "single-stim", "trial_index": 11, "time_elapsed": 248351, "internal_node_id": "0.0-10.0-1.0"}}, {"uniqueid": "MTK0651:32EYX73OY1G8WKHR1IW35Y9ZQY9RUH", "current_trial": 12, "dateTime": 1512578869802, "trialdata": {"rt": -1, "stimulus": "<p id=\"stim\">8</p>", "key_press": -1, "trial_type": "single-stim", "trial_index": 12, "time_elapsed": 249353, "internal_node_id": "0.0-10.0-2.0"}}, {"uniqueid": "MTK0651:32EYX73OY1G8WKHR1IW35Y9ZQY9RUH", "current_trial": 13, "dateTime": 1512578870803, "trialdata": {"rt": -1, "stimulus": "<p id=\"stim\">7</p>", "key_press": -1, "trial_type": "single-stim", "trial_index": 13, "time_elapsed": 250354, "internal_node_id": "0.0-10.0-3.0"}}, {"uniqueid": "MTK0651:32EYX73OY1G8WKHR1IW35Y9ZQY9RUH", "current_trial": 14, "dateTime": 1512578871806, "trialdata": {"rt": -1, "stimulus": "<p id=\"stim\">6</p>", "key_press": -1, "trial_type": "single-stim", "trial_index": 14, "time_elapsed": 251356, "internal_node_id": "0.0-10.0-4.0"}}, {"uniqueid": "MTK0651:32EYX73OY1G8WKHR1IW35Y9ZQY9RUH", "current_trial": 15, "dateTime": 1512578872810, "trialdata": {"rt": -1, "stimulus": "<p id=\"stim\">5</p>", "key_press": -1, "trial_type": "single-stim", "trial_index": 15, "time_elapsed": 252361, "internal_node_id": "0.0-10.0-5.0"}}, {"uniqueid": "MTK0651:32EYX73OY1G8WKHR1IW35Y9ZQY9RUH", "current_trial": 16, "dateTime": 1512578873812, "trialdata": {"rt": -1, "stimulus": "<p id=\"stim\">4</p>", "key_press": -1, "trial_type": "single-stim", "trial_index": 16, "time_elapsed": 253363, "internal_node_id": "0.0-10.0-6.0"}}, {"uniqueid": "MTK0651:32EYX73OY1G8WKHR1IW35Y9ZQY9RUH", "current_trial": 17, "dateTime": 1512578874814, "trialdata": {"rt": -1, "stimulus": "<p id=\"stim\">3</p>", "key_press": -1, "trial_type": "single-stim", "trial_index": 17, "time_elapsed": 254365, "internal_node_id": "0.0-10.0-7.0"}}, {"uniqueid": "MTK0651:32EYX73OY1G8WKHR1IW35Y9ZQY9RUH", "current_trial": 18, "dateTime": 1512578875816, "trialdata": {"rt": -1, "stimulus": "<p id=\"stim\">2</p>", "key_press": -1, "trial_type": "single-stim", "trial_index": 18, "time_elapsed": 255367, "internal_node_id": "0.0-10.0-8.0"}}, {"uniqueid": "MTK0651:32EYX73OY1G8WKHR1IW35Y9ZQY9RUH", "current_trial": 19, "dateTime": 1512578876819, "trialdata": {"rt": -1, "stimulus": "<p id=\"stim\">1</p>", "key_press": -1, "trial_type": "single-stim", "trial_index": 19, "time_elapsed": 256370, "internal_node_id": "0.0-10.0-9.0"}}, {"uniqueid": "MTK0651:32EYX73OY1G8WKHR1IW35Y9ZQY9RUH", "current_trial": 20, "dateTime": 1512578878324, "trialdata": {"rt": -1, "stimulus": "<p id=\"stim\">+</p>", "key_press": -1, "type": "FIXATION", "trial_type": "single-stim", "trial_index": 20, "time_elapsed": 257872, "internal_node_id": "0.0-11.0-0.0"}}, {"uniqueid": "MTK0651:32EYX73OY1G8WKHR1IW35Y9ZQY9RUH", "current_trial": 21, "dateTime": 1512578880676, "trialdata": {"rt": -1000, "stimulus": "/static/audio/wordpool/SLIDE.wav", "key_press": -1, "type": "PRES_AUD", "word": "slide", "wordID": 1325, "conditions": [18, 1200, "a", 18000], "trial": 0, "serialpos": 0, "trial_type": "single-audio", "trial_index": 21, "time_elapsed": 260227, "internal_node_id": "0.0-12.0"}}, {"uniqueid": "MTK0651:32EYX73OY1G8WKHR1IW35Y9ZQY9RUH", "current_trial": 22, "dateTime": 1512578882963, "trialdata": {"rt": 1449.3333333332998, "stimulus": "/static/audio/wordpool/SMOG.wav", "key_press": 175, "type": "PRES_AUD", "word": "smog", "wordID": 1329, "conditions": [18, 1200, "a", 18000], "trial": 0, "serialpos": 1, "trial_type": "single-audio", "trial_index": 22, "time_elapsed": 262514, "internal_node_id": "0.0-13.0"}}, {"uniqueid": "MTK0651:32EYX73OY1G8WKHR1IW35Y9ZQY9RUH", "current_trial": 23, "dateTime": 1512578885362, "trialdata": {"rt": 150.66666666666606, "stimulus": "/static/audio/wordpool/ASIA.wav", "key_press": 175, "type": "PRES_AUD", "word": "asia", "wordID": 45, "conditions": [18, 1200, "a", 18000], "trial": 0, "serialpos": 2, "trial_type": "single-audio", "trial_index": 23, "time_elapsed": 264913, "internal_node_id": "0.0-14.0"}}, {"uniqueid": "MTK0651:32EYX73OY1G8WKHR1IW35Y9ZQY9RUH", "current_trial": 24, "dateTime": 1512578887554, "trialdata": {"rt": -1000, "stimulus": "/static/audio/wordpool/LEADER.wav", "key_press": -1, "type": "PRES_AUD", "word": "leader", "wordID": 806, "conditions": [18, 1200, "a", 18000], "trial": 0, "serialpos": 3, "trial_type": "single-audio", "trial_index": 24, "time_elapsed": 267105, "internal_node_id": "0.0-15.0"}}, {"uniqueid": "MTK0651:32EYX73OY1G8WKHR1IW35Y9ZQY9RUH", "current_trial": 25, "dateTime": 1512578889892, "trialdata": {"rt": -1000, "stimulus": "/static/audio/wordpool/CRICKET.wav", "key_press": -1, "type": "PRES_AUD", "word": "cricket", "wordID": 407, "conditions": [18, 1200, "a", 18000], "trial": 0, "serialpos": 4, "trial_type": "single-audio", "trial_index": 25, "time_elapsed": 269443, "internal_node_id": "0.0-16.0"}}, {"uniqueid": "MTK0651:32EYX73OY1G8WKHR1IW35Y9ZQY9RUH", "current_trial": 26, "dateTime": 1512578892171, "trialdata": {"rt": -1000, "stimulus": "/static/audio/wordpool/MONSTER.wav", "key_press": -1, "type": "PRES_AUD", "word": "monster", "wordID": 911, "conditions": [18, 1200, "a", 18000], "trial": 0, "serialpos": 5, "trial_type": "single-audio", "trial_index": 26, "time_elapsed": 271722, "internal_node_id": "0.0-17.0"}}, {"uniqueid": "MTK0651:32EYX73OY1G8WKHR1IW35Y9ZQY9RUH", "current_trial": 27, "dateTime": 1512578894248, "trialdata": {"rt": -1000, "stimulus": "/static/audio/wordpool/CROSS.wav", "key_press": -1, "type": "PRES_AUD", "word": "cross", "wordID": 412, "conditions": [18, 1200, "a", 18000], "trial": 0, "serialpos": 6, "trial_type": "single-audio", "trial_index": 27, "time_elapsed": 273799, "internal_node_id": "0.0-18.0"}}, {"uniqueid": "MTK0651:32EYX73OY1G8WKHR1IW35Y9ZQY9RUH", "current_trial": 28, "dateTime": 1512578896263, "trialdata": {"rt": -1000, "stimulus": "/static/audio/wordpool/VENUS.wav", "key_press": -1, "type": "PRES_AUD", "word": "venus", "wordID": 1556, "conditions": [18, 1200, "a", 18000], "trial": 0, "serialpos": 7, "trial_type": "single-audio", "trial_index": 28, "time_elapsed": 275814, "internal_node_id": "0.0-19.0"}}, {"uniqueid": "MTK0651:32EYX73OY1G8WKHR1IW35Y9ZQY9RUH", "current_trial": 29, "dateTime": 1512578898454, "trialdata": {"rt": -1000, "stimulus": "/static/audio/wordpool/ROBOT.wav", "key_press": -1, "type": "PRES_AUD", "word": "robot", "wordID": 1199, "conditions": [18, 1200, "a", 18000], "trial": 0, "serialpos": 8, "trial_type": "single-audio", "trial_index": 29, "time_elapsed": 278005, "internal_node_id": "0.0-20.0"}}, {"uniqueid": "MTK0651:32EYX73OY1G8WKHR1IW35Y9ZQY9RUH", "current_trial": 30, "dateTime": 1512578900829, "trialdata": {"rt": -1000, "stimulus": "/static/audio/wordpool/LEOPARD.wav", "key_press": -1, "type": "PRES_AUD", "word": "leopard", "wordID": 811, "conditions": [18, 1200, "a", 18000], "trial": 0, "serialpos": 9, "trial_type": "single-audio", "trial_index": 30, "time_elapsed": 280380, "internal_node_id": "0.0-21.0"}}, {"uniqueid": "MTK0651:32EYX73OY1G8WKHR1IW35Y9ZQY9RUH", "current_trial": 31, "dateTime": 1512578903138, "trialdata": {"rt": -1000, "stimulus": "/static/audio/wordpool/SHELTER.wav", "key_press": -1, "type": "PRES_AUD", "word": "shelter", "wordID": 1281, "conditions": [18, 1200, "a", 18000], "trial": 0, "serialpos": 10, "trial_type": "single-audio", "trial_index": 31, "time_elapsed": 282689, "internal_node_id": "0.0-22.0"}}, {"uniqueid": "MTK0651:32EYX73OY1G8WKHR1IW35Y9ZQY9RUH", "current_trial": 32, "dateTime": 1512578905476, "trialdata": {"rt": -1000, "stimulus": "/static/audio/wordpool/BABY.wav", "key_press": -1, "type": "PRES_AUD", "word": "baby", "wordID": 63, "conditions": [18, 1200, "a", 18000], "trial": 0, "serialpos": 11, "trial_type": "single-audio", "trial_index": 32, "time_elapsed": 285027, "internal_node_id": "0.0-23.0"}}, {"uniqueid": "MTK0651:32EYX73OY1G8WKHR1IW35Y9ZQY9RUH", "current_trial": 33, "dateTime": 1512578907515, "trialdata": {"rt": -1000, "stimulus": "/static/audio/wordpool/DUSTPAN.wav", "key_press": -1, "type": "PRES_AUD", "word": "dustpan", "wordID": 508, "conditions": [18, 1200, "a", 18000], "trial": 0, "serialpos": 12, "trial_type": "single-audio", "trial_index": 33, "time_elapsed": 287066, "internal_node_id": "0.0-24.0"}}, {"uniqueid": "MTK0651:32EYX73OY1G8WKHR1IW35Y9ZQY9RUH", "current_trial": 34, "dateTime": 1512578909526, "trialdata": {"rt": -1000, "stimulus": "/static/audio/wordpool/GRAVE.wav", "key_press": -1, "type": "PRES_AUD", "word": "grave", "wordID": 657, "conditions": [18, 1200, "a", 18000], "trial": 0, "serialpos": 13, "trial_type": "single-audio", "trial_index": 34, "time_elapsed": 289077, "internal_node_id": "0.0-25.0"}}, {"uniqueid": "MTK0651:32EYX73OY1G8WKHR1IW35Y9ZQY9RUH", "current_trial": 35, "dateTime": 1512578911832, "trialdata": {"rt": -1000, "stimulus": "/static/audio/wordpool/ICING.wav", "key_press": -1, "type": "PRES_AUD", "word": "icing", "wordID": 731, "conditions": [18, 1200, "a", 18000], "trial": 0, "serialpos": 14, "trial_type": "single-audio", "trial_index": 35, "time_elapsed": 291383, "internal_node_id": "0.0-26.0"}}, {"uniqueid": "MTK0651:32EYX73OY1G8WKHR1IW35Y9ZQY9RUH", "current_trial": 36, "dateTime": 1512578913957, "trialdata": {"rt": -1000, "stimulus": "/static/audio/wordpool/POISON.wav", "key_press": -1, "type": "PRES_AUD", "word": "poison", "wordID": 1095, "conditions": [18, 1200, "a", 18000], "trial": 0, "serialpos": 15, "trial_type": "single-audio", "trial_index": 36, "time_elapsed": 293508, "internal_node_id": "0.0-27.0"}}, {"uniqueid": "MTK0651:32EYX73OY1G8WKHR1IW35Y9ZQY9RUH", "current_trial": 37, "dateTime": 1512578916266, "trialdata": {"rt": -1000, "stimulus": "/static/audio/wordpool/POSSUM.wav", "key_press": -1, "type": "PRES_AUD", "word": "possum", "wordID": 1111, "conditions": [18, 1200, "a", 18000], "trial": 0, "serialpos": 16, "trial_type": "single-audio", "trial_index": 37, "time_elapsed": 295817, "internal_node_id": "0.0-28.0"}}, {"uniqueid": "MTK0651:32EYX73OY1G8WKHR1IW35Y9ZQY9RUH", "current_trial": 38, "dateTime": 1512578918351, "trialdata": {"rt": -1000, "stimulus": "/static/audio/wordpool/DANDRUFF.wav", "key_press": -1, "type": "PRES_AUD", "word": "dandruff", "wordID": 438, "conditions": [18, 1200, "a", 18000], "trial": 0, "serialpos": 17, "trial_type": "single-audio", "trial_index": 38, "time_elapsed": 297902, "internal_node_id": "0.0-29.0"}}, {"uniqueid": "MTK0651:32EYX73OY1G8WKHR1IW35Y9ZQY9RUH", "current_trial": 39, "dateTime": 1512578919588, "trialdata": {"rt": -1, "stimulus": "", "key_press": -1, "type": "PRE_RECALL_DELAY", "trial_type": "single-stim", "trial_index": 39, "time_elapsed": 299139, "internal_node_id": "0.0-30.0-0.0"}}, {"uniqueid": "MTK0651:32EYX73OY1G8WKHR1IW35Y9ZQY9RUH", "current_trial": 40, "dateTime": 1512578920096, "trialdata": {"rt": -1000, "stimulus": "/static/audio/400Hz.wav", "key_press": -1, "type": "PRE_RECALL_ALERT", "trial_type": "single-audio", "trial_index": 40, "time_elapsed": 299647, "internal_node_id": "0.0-31.0"}}, {"uniqueid": "MTK0651:32EYX73OY1G8WKHR1IW35Y9ZQY9RUH", "current_trial": 41, "dateTime": 1512578980105, "trialdata": {"rt": [2948, 5133, 6069, 6997, 8093, 16117, 18213, 22573, 29453, 59669], "recwords": ["asia", "dandruff", "robot", "baby", "slide", "dustpan", "leader", "icing", "monster", "cricket"], "type": "FREE_RECALL", "conditions": [18, 1200, "a", 18000], "trial": 0, "trial_type": "free-recall", "trial_index": 41, "time_elapsed": 359652, "internal_node_id": "0.0-32.0-0.0"}}, {"uniqueid": "MTK0651:32EYX73OY1G8WKHR1IW35Y9ZQY9RUH", "current_trial": 42, "dateTime": 1512578983617, "trialdata": {"rt": 1510, "key_press": 32, "type": "INSTRUCTIONS", "trial_type": "text", "trial_index": 42, "time_elapsed": 363167, "internal_node_id": "0.0-33.0"}}, {"uniqueid": "MTK0651:32EYX73OY1G8WKHR1IW35Y9ZQY9RUH", "current_trial": 43, "dateTime": 1512579003622, "trialdata": {"rt": [2252, 3692, 6029, 8276, 11220, 13468, 15868, 17956], "responses": ["14", "13", "12", "18", "15", "18", "25", "14"], "num1": [4, 3, 1, 6, 5, 6, 9, 3, 9], "num2": [9, 5, 5, 6, 2, 5, 7, 5, 6], "num3": [1, 5, 6, 6, 7, 7, 9, 6, 2], "type": "DISTRACTOR", "conditions": [18, 1200, "v", 18000], "trial": 1, "trial_type": "math-distractor", "trial_index": 43, "time_elapsed": 383173, "internal_node_id": "0.0-34.0"}}, {"uniqueid": "MTK0651:32EYX73OY1G8WKHR1IW35Y9ZQY9RUH", "current_trial": 44, "dateTime": 1512579006625, "trialdata": {"rt": -1, "stimulus": "<p id=\"stim\">10</p>", "key_press": -1, "trial_type": "single-stim", "trial_index": 44, "time_elapsed": 386175, "internal_node_id": "0.0-35.0-0.0"}}, {"uniqueid": "MTK0651:32EYX73OY1G8WKHR1IW35Y9ZQY9RUH", "current_trial": 45, "dateTime": 1512579007628, "trialdata": {"rt": -1, "stimulus": "<p id=\"stim\">9</p>", "key_press": -1, "trial_type": "single-stim", "trial_index": 45, "time_elapsed": 387179, "internal_node_id": "0.0-35.0-1.0"}}, {"uniqueid": "MTK0651:32EYX73OY1G8WKHR1IW35Y9ZQY9RUH", "current_trial": 46, "dateTime": 1512579008629, "trialdata": {"rt": -1, "stimulus": "<p id=\"stim\">8</p>", "key_press": -1, "trial_type": "single-stim", "trial_index": 46, "time_elapsed": 388180, "internal_node_id": "0.0-35.0-2.0"}}, {"uniqueid": "MTK0651:32EYX73OY1G8WKHR1IW35Y9ZQY9RUH", "current_trial": 47, "dateTime": 1512579009631, "trialdata": {"rt": -1, "stimulus": "<p id=\"stim\">7</p>", "key_press": -1, "trial_type": "single-stim", "trial_index": 47, "time_elapsed": 389182, "internal_node_id": "0.0-35.0-3.0"}}, {"uniqueid": "MTK0651:32EYX73OY1G8WKHR1IW35Y9ZQY9RUH", "current_trial": 48, "dateTime": 1512579010633, "trialdata": {"rt": -1, "stimulus": "<p id=\"stim\">6</p>", "key_press": -1, "trial_type": "single-stim", "trial_index": 48, "time_elapsed": 390184, "internal_node_id": "0.0-35.0-4.0"}}, {"uniqueid": "MTK0651:32EYX73OY1G8WKHR1IW35Y9ZQY9RUH", "current_trial": 49, "dateTime": 1512579011635, "trialdata": {"rt": -1, "stimulus": "<p id=\"stim\">5</p>", "key_press": -1, "trial_type": "single-stim", "trial_index": 49, "time_elapsed": 391186, "internal_node_id": "0.0-35.0-5.0"}}, {"uniqueid": "MTK0651:32EYX73OY1G8WKHR1IW35Y9ZQY9RUH", "current_trial": 50, "dateTime": 1512579012638, "trialdata": {"rt": -1, "stimulus": "<p id=\"stim\">4</p>", "key_press": -1, "trial_type": "single-stim", "trial_index": 50, "time_elapsed": 392189, "internal_node_id": "0.0-35.0-6.0"}}, {"uniqueid": "MTK0651:32EYX73OY1G8WKHR1IW35Y9ZQY9RUH", "current_trial": 51, "dateTime": 1512579013640, "trialdata": {"rt": -1, "stimulus": "<p id=\"stim\">3</p>", "key_press": -1, "trial_type": "single-stim", "trial_index": 51, "time_elapsed": 393191, "internal_node_id": "0.0-35.0-7.0"}}, {"uniqueid": "MTK0651:32EYX73OY1G8WKHR1IW35Y9ZQY9RUH", "current_trial": 52, "dateTime": 1512579014643, "trialdata": {"rt": -1, "stimulus": "<p id=\"stim\">2</p>", "key_press": -1, "trial_type": "single-stim", "trial_index": 52, "time_elapsed": 394194, "internal_node_id": "0.0-35.0-8.0"}}, {"uniqueid": "MTK0651:32EYX73OY1G8WKHR1IW35Y9ZQY9RUH", "current_trial": 53, "dateTime": 1512579015646, "trialdata": {"rt": -1, "stimulus": "<p id=\"stim\">1</p>", "key_press": -1, "trial_type": "single-stim", "trial_index": 53, "time_elapsed": 395196, "internal_node_id": "0.0-35.0-9.0"}}, {"uniqueid": "MTK0651:32EYX73OY1G8WKHR1IW35Y9ZQY9RUH", "current_trial": 54, "dateTime": 1512579017148, "trialdata": {"rt": -1, "stimulus": "<p id=\"stim\">+</p>", "key_press": -1, "type": "FIXATION", "trial_type": "single-stim", "trial_index": 54, "time_elapsed": 396698, "internal_node_id": "0.0-36.0-0.0"}}, {"uniqueid": "MTK0651:32EYX73OY1G8WKHR1IW35Y9ZQY9RUH", "current_trial": 55, "dateTime": 1512579018350, "trialdata": {"rt": -1, "stimulus": "<p id=\"stim\">PISTON</p>", "key_press": -1, "type": "PRES_VIS", "word": "piston", "wordID": 1075, "conditions": [18, 1200, "v", 18000], "trial": 1, "serialpos": 0, "trial_type": "single-stim", "trial_index": 55, "time_elapsed": 397900, "internal_node_id": "0.0-37.0"}}, {"uniqueid": "MTK0651:32EYX73OY1G8WKHR1IW35Y9ZQY9RUH", "current_trial": 56, "dateTime": 1512579020412, "trialdata": {"rt": -1, "stimulus": "<p id=\"stim\">SPIDER</p>", "key_press": -1, "type": "PRES_VIS", "word": "spider", "wordID": 1350, "conditions": [18, 1200, "v", 18000], "trial": 1, "serialpos": 1, "trial_type": "single-stim", "trial_index": 56, "time_elapsed": 399962, "internal_node_id": "0.0-38.0"}}, {"uniqueid": "MTK0651:32EYX73OY1G8WKHR1IW35Y9ZQY9RUH", "current_trial": 57, "dateTime": 1512579022502, "trialdata": {"rt": -1, "stimulus": "<p id=\"stim\">TORTOISE</p>", "key_press": -1, "type": "PRES_VIS", "word": "tortoise", "wordID": 1485, "conditions": [18, 1200, "v", 18000], "trial": 1, "serialpos": 2, "trial_type": "single-stim", "trial_index": 57, "time_elapsed": 402053, "internal_node_id": "0.0-39.0"}}, {"uniqueid": "MTK0651:32EYX73OY1G8WKHR1IW35Y9ZQY9RUH", "current_trial": 58, "dateTime": 1512579024626, "trialdata": {"rt": -1, "stimulus": "<p id=\"stim\">SLOPE</p>", "key_press": -1, "type": "PRES_VIS", "word": "slope", "wordID": 1327, "conditions": [18, 1200, "v", 18000], "trial": 1, "serialpos": 3, "trial_type": "single-stim", "trial_index": 58, "time_elapsed": 404177, "internal_node_id": "0.0-40.0"}}, {"uniqueid": "MTK0651:32EYX73OY1G8WKHR1IW35Y9ZQY9RUH", "current_trial": 59, "dateTime": 1512579027022, "trialdata": {"rt": -1, "stimulus": "<p id=\"stim\">PUDDLE</p>", "key_press": -1, "type": "PRES_VIS", "word": "puddle", "wordID": 1139, "conditions": [18, 1200, "v", 18000], "trial": 1, "serialpos": 4, "trial_type": "single-stim", "trial_index": 59, "time_elapsed": 406573, "internal_node_id": "0.0-41.0"}}, {"uniqueid": "MTK0651:32EYX73OY1G8WKHR1IW35Y9ZQY9RUH", "current_trial": 60, "dateTime": 1512579029155, "trialdata": {"rt": -1, "stimulus": "<p id=\"stim\">DRUG</p>", "key_press": -1, "type": "PRES_VIS", "word": "drug", "wordID": 500, "conditions": [18, 1200, "v", 18000], "trial": 1, "serialpos": 5, "trial_type": "single-stim", "trial_index": 60, "time_elapsed": 408705, "internal_node_id": "0.0-42.0"}}, {"uniqueid": "MTK0651:32EYX73OY1G8WKHR1IW35Y9ZQY9RUH", "current_trial": 61, "dateTime": 1512579031518, "trialdata": {"rt": -1, "stimulus": "<p id=\"stim\">SUSPECT</p>", "key_press": -1, "type": "PRES_VIS", "word": "suspect", "wordID": 1414, "conditions": [18, 1200, "v", 18000], "trial": 1, "serialpos": 6, "trial_type": "single-stim", "trial_index": 61, "time_elapsed": 411069, "internal_node_id": "0.0-43.0"}}, {"uniqueid": "MTK0651:32EYX73OY1G8WKHR1IW35Y9ZQY9RUH", "current_trial": 62, "dateTime": 1512579033581, "trialdata": {"rt": -1, "stimulus": "<p id=\"stim\">JELLO</p>", "key_press": -1, "type": "PRES_VIS", "word": "jello", "wordID": 753, "conditions": [18, 1200, "v", 18000], "trial": 1, "serialpos": 7, "trial_type": "single-stim", "trial_index": 62, "time_elapsed": 413132, "internal_node_id": "0.0-44.0"}}, {"uniqueid": "MTK0651:32EYX73OY1G8WKHR1IW35Y9ZQY9RUH", "current_trial": 63, "dateTime": 1512579035737, "trialdata": {"rt": -1, "stimulus": "<p id=\"stim\">SUITCASE</p>", "key_press": -1, "type": "PRES_VIS", "word": "suitcase", "wordID": 1402, "conditions": [18, 1200, "v", 18000], "trial": 1, "serialpos": 8, "trial_type": "single-stim", "trial_index": 63, "time_elapsed": 415288, "internal_node_id": "0.0-45.0"}}, {"uniqueid": "MTK0651:32EYX73OY1G8WKHR1IW35Y9ZQY9RUH", "current_trial": 64, "dateTime": 1512579038098, "trialdata": {"rt": -1, "stimulus": "<p id=\"stim\">BANK</p>", "key_press": -1, "type": "PRES_VIS", "word": "bank", "wordID": 82, "conditions": [18, 1200, "v", 18000], "trial": 1, "serialpos": 9, "trial_type": "single-stim", "trial_index": 64, "time_elapsed": 417649, "internal_node_id": "0.0-46.0"}}, {"uniqueid": "MTK0651:32EYX73OY1G8WKHR1IW35Y9ZQY9RUH", "current_trial": 65, "dateTime": 1512579040279, "trialdata": {"rt": -1, "stimulus": "<p id=\"stim\">COOKBOOK</p>", "key_press": -1, "type": "PRES_VIS", "word": "cookbook", "wordID": 372, "conditions": [18, 1200, "v", 18000], "trial": 1, "serialpos": 10, "trial_type": "single-stim", "trial_index": 65, "time_elapsed": 419830, "internal_node_id": "0.0-47.0"}}, {"uniqueid": "MTK0651:32EYX73OY1G8WKHR1IW35Y9ZQY9RUH", "current_trial": 66, "dateTime": 1512579042388, "trialdata": {"rt": -1, "stimulus": "<p id=\"stim\">DRESSER</p>", "key_press": -1, "type": "PRES_VIS", "word": "dresser", "wordID": 495, "conditions": [18, 1200, "v", 18000], "trial": 1, "serialpos": 11, "trial_type": "single-stim", "trial_index": 66, "time_elapsed": 421938, "internal_node_id": "0.0-48.0"}}, {"uniqueid": "MTK0651:32EYX73OY1G8WKHR1IW35Y9ZQY9RUH", "current_trial": 67, "dateTime": 1512579044396, "trialdata": {"rt": -1, "stimulus": "<p id=\"stim\">CIGAR</p>", "key_press": -1, "type": "PRES_VIS", "word": "cigar", "wordID": 307, "conditions": [18, 1200, "v", 18000], "trial": 1, "serialpos": 12, "trial_type": "single-stim", "trial_index": 67, "time_elapsed": 423946, "internal_node_id": "0.0-49.0"}}, {"uniqueid": "MTK0651:32EYX73OY1G8WKHR1IW35Y9ZQY9RUH", "current_trial": 68, "dateTime": 1512579046452, "trialdata": {"rt": -1, "stimulus": "<p id=\"stim\">SPHINX</p>", "key_press": -1, "type": "PRES_VIS", "word": "sphinx", "wordID": 1348, "conditions": [18, 1200, "v", 18000], "trial": 1, "serialpos": 13, "trial_type": "single-stim", "trial_index": 68, "time_elapsed": 425999, "internal_node_id": "0.0-50.0"}}, {"uniqueid": "MTK0651:32EYX73OY1G8WKHR1IW35Y9ZQY9RUH", "current_trial": 69, "dateTime": 1512579048701, "trialdata": {"rt": -1, "stimulus": "<p id=\"stim\">NECKLACE</p>", "key_press": -1, "type": "PRES_VIS", "word": "necklace", "wordID": 939, "conditions": [18, 1200, "v", 18000], "trial": 1, "serialpos": 14, "trial_type": "single-stim", "trial_index": 69, "time_elapsed": 428252, "internal_node_id": "0.0-51.0"}}, {"uniqueid": "MTK0651:32EYX73OY1G8WKHR1IW35Y9ZQY9RUH", "current_trial": 70, "dateTime": 1512579050726, "trialdata": {"rt": -1, "stimulus": "<p id=\"stim\">SPARROW</p>", "key_press": -1, "type": "PRES_VIS", "word": "sparrow", "wordID": 1346, "conditions": [18, 1200, "v", 18000], "trial": 1, "serialpos": 15, "trial_type": "single-stim", "trial_index": 70, "time_elapsed": 430277, "internal_node_id": "0.0-52.0"}}, {"uniqueid": "MTK0651:32EYX73OY1G8WKHR1IW35Y9ZQY9RUH", "current_trial": 71, "dateTime": 1512579052837, "trialdata": {"rt": -1, "stimulus": "<p id=\"stim\">ORANGE</p>", "key_press": -1, "type": "PRES_VIS", "word": "orange", "wordID": 979, "conditions": [18, 1200, "v", 18000], "trial": 1, "serialpos": 16, "trial_type": "single-stim", "trial_index": 71, "time_elapsed": 432387, "internal_node_id": "0.0-53.0"}}, {"uniqueid": "MTK0651:32EYX73OY1G8WKHR1IW35Y9ZQY9RUH", "current_trial": 72, "dateTime": 1512579055086, "trialdata": {"rt": -1, "stimulus": "<p id=\"stim\">DAUGHTER</p>", "key_press": -1, "type": "PRES_VIS", "word": "daughter", "wordID": 441, "conditions": [18, 1200, "v", 18000], "trial": 1, "serialpos": 17, "trial_type": "single-stim", "trial_index": 72, "time_elapsed": 434637, "internal_node_id": "0.0-54.0"}}, {"uniqueid": "MTK0651:32EYX73OY1G8WKHR1IW35Y9ZQY9RUH", "current_trial": 73, "dateTime": 1512579057493, "trialdata": {"rt": -1, "stimulus": "", "key_press": -1, "type": "PRE_RECALL_DELAY", "trial_type": "single-stim", "trial_index": 73, "time_elapsed": 437043, "internal_node_id": "0.0-55.0-0.0"}}, {"uniqueid": "MTK0651:32EYX73OY1G8WKHR1IW35Y9ZQY9RUH", "current_trial": 74, "dateTime": 1512579058001, "trialdata": {"rt": -1000, "stimulus": "/static/audio/400Hz.wav", "key_press": -1, "type": "PRE_RECALL_ALERT", "trial_type": "single-audio", "trial_index": 74, "time_elapsed": 437551, "internal_node_id": "0.0-56.0"}}, {"uniqueid": "MTK0651:32EYX73OY1G8WKHR1IW35Y9ZQY9RUH", "current_trial": 75, "dateTime": 1512579118008, "trialdata": {"rt": [2973, 4405, 5485, 6413, 8709, 14533, 18101, 20581, 26029, 28173, 32869, 36717], "recwords": ["puddle", "daughter", "piston", "spider", "tortoise", "suitcase", "slope", "orange", "necklace", "sphinx", "sparrow", "suspect"], "type": "FREE_RECALL", "conditions": [18, 1200, "v", 18000], "trial": 1, "trial_type": "free-recall", "trial_index": 75, "time_elapsed": 497556, "internal_node_id": "0.0-57.0-0.0"}}, {"uniqueid": "MTK0651:32EYX73OY1G8WKHR1IW35Y9ZQY9RUH", "current_trial": 76, "dateTime": 1512579123167, "trialdata": {"rt": 3150, "key_press": 32, "type": "INSTRUCTIONS", "trial_type": "text", "trial_index": 76, "time_elapsed": 502712, "internal_node_id": "0.0-58.0"}}, {"uniqueid": "MTK0651:32EYX73OY1G8WKHR1IW35Y9ZQY9RUH", "current_trial": 77, "dateTime": 1512579136173, "trialdata": {"rt": [2742, 4982, 6646, 10838], "responses": ["20", "13", "15", "12"], "num1": [8, 1, 5, 1, 5], "num2": [4, 5, 2, 8, 7], "num3": [8, 7, 8, 3, 3], "type": "DISTRACTOR", "conditions": [12, 1600, "v", 12000], "trial": 2, "trial_type": "math-distractor", "trial_index": 77, "time_elapsed": 515724, "internal_node_id": "0.0-59.0"}}, {"uniqueid": "MTK0651:32EYX73OY1G8WKHR1IW35Y9ZQY9RUH", "current_trial": 78, "dateTime": 1512579139174, "trialdata": {"rt": -1, "stimulus": "<p id=\"stim\">10</p>", "key_press": -1, "trial_type": "single-stim", "trial_index": 78, "time_elapsed": 518725, "internal_node_id": "0.0-60.0-0.0"}}, {"uniqueid": "MTK0651:32EYX73OY1G8WKHR1IW35Y9ZQY9RUH", "current_trial": 79, "dateTime": 1512579140176, "trialdata": {"rt": -1, "stimulus": "<p id=\"stim\">9</p>", "key_press": -1, "trial_type": "single-stim", "trial_index": 79, "time_elapsed": 519727, "internal_node_id": "0.0-60.0-1.0"}}, {"uniqueid": "MTK0651:32EYX73OY1G8WKHR1IW35Y9ZQY9RUH", "current_trial": 80, "dateTime": 1512579141178, "trialdata": {"rt": -1, "stimulus": "<p id=\"stim\">8</p>", "key_press": -1, "trial_type": "single-stim", "trial_index": 80, "time_elapsed": 520729, "internal_node_id": "0.0-60.0-2.0"}}, {"uniqueid": "MTK0651:32EYX73OY1G8WKHR1IW35Y9ZQY9RUH", "current_trial": 81, "dateTime": 1512579142180, "trialdata": {"rt": -1, "stimulus": "<p id=\"stim\">7</p>", "key_press": -1, "trial_type": "single-stim", "trial_index": 81, "time_elapsed": 521731, "internal_node_id": "0.0-60.0-3.0"}}, {"uniqueid": "MTK0651:32EYX73OY1G8WKHR1IW35Y9ZQY9RUH", "current_trial": 82, "dateTime": 1512579143183, "trialdata": {"rt": -1, "stimulus": "<p id=\"stim\">6</p>", "key_press": -1, "trial_type": "single-stim", "trial_index": 82, "time_elapsed": 522734, "internal_node_id": "0.0-60.0-4.0"}}, {"uniqueid": "MTK0651:32EYX73OY1G8WKHR1IW35Y9ZQY9RUH", "current_trial": 83, "dateTime": 1512579144186, "trialdata": {"rt": -1, "stimulus": "<p id=\"stim\">5</p>", "key_press": -1, "trial_type": "single-stim", "trial_index": 83, "time_elapsed": 523737, "internal_node_id": "0.0-60.0-5.0"}}, {"uniqueid": "MTK0651:32EYX73OY1G8WKHR1IW35Y9ZQY9RUH", "current_trial": 84, "dateTime": 1512579145188, "trialdata": {"rt": -1, "stimulus": "<p id=\"stim\">4</p>", "key_press": -1, "trial_type": "single-stim", "trial_index": 84, "time_elapsed": 524739, "internal_node_id": "0.0-60.0-6.0"}}, {"uniqueid": "MTK0651:32EYX73OY1G8WKHR1IW35Y9ZQY9RUH", "current_trial": 85, "dateTime": 1512579146189, "trialdata": {"rt": -1, "stimulus": "<p id=\"stim\">3</p>", "key_press": -1, "trial_type": "single-stim", "trial_index": 85, "time_elapsed": 525740, "internal_node_id": "0.0-60.0-7.0"}}, {"uniqueid": "MTK0651:32EYX73OY1G8WKHR1IW35Y9ZQY9RUH", "current_trial": 86, "dateTime": 1512579147191, "trialdata": {"rt": -1, "stimulus": "<p id=\"stim\">2</p>", "key_press": -1, "trial_type": "single-stim", "trial_index": 86, "time_elapsed": 526742, "internal_node_id": "0.0-60.0-8.0"}}, {"uniqueid": "MTK0651:32EYX73OY1G8WKHR1IW35Y9ZQY9RUH", "current_trial": 87, "dateTime": 1512579148194, "trialdata": {"rt": -1, "stimulus": "<p id=\"stim\">1</p>", "key_press": -1, "trial_type": "single-stim", "trial_index": 87, "time_elapsed": 527745, "internal_node_id": "0.0-60.0-9.0"}}, {"uniqueid": "MTK0651:32EYX73OY1G8WKHR1IW35Y9ZQY9RUH", "current_trial": 88, "dateTime": 1512579149696, "trialdata": {"rt": -1, "stimulus": "<p id=\"stim\">+</p>", "key_press": -1, "type": "FIXATION", "trial_type": "single-stim", "trial_index": 88, "time_elapsed": 529247, "internal_node_id": "0.0-61.0-0.0"}}, {"uniqueid": "MTK0651:32EYX73OY1G8WKHR1IW35Y9ZQY9RUH", "current_trial": 89, "dateTime": 1512579151299, "trialdata": {"rt": -1, "stimulus": "<p id=\"stim\">BLOCKADE</p>", "key_press": -1, "type": "PRES_VIS", "word": "blockade", "wordID": 136, "conditions": [12, 1600, "v", 12000], "trial": 2, "serialpos": 0, "trial_type": "single-stim", "trial_index": 89, "time_elapsed": 530850, "internal_node_id": "0.0-62.0"}}, {"uniqueid": "MTK0651:32EYX73OY1G8WKHR1IW35Y9ZQY9RUH", "current_trial": 90, "dateTime": 1512579153847, "trialdata": {"rt": -1, "stimulus": "<p id=\"stim\">EGYPT</p>", "key_press": -1, "type": "PRES_VIS", "word": "egypt", "wordID": 518, "conditions": [12, 1600, "v", 12000], "trial": 2, "serialpos": 1, "trial_type": "single-stim", "trial_index": 90, "time_elapsed": 533398, "internal_node_id": "0.0-63.0"}}, {"uniqueid": "MTK0651:32EYX73OY1G8WKHR1IW35Y9ZQY9RUH", "current_trial": 91, "dateTime": 1512579156315, "trialdata": {"rt": -1, "stimulus": "<p id=\"stim\">POLICE</p>", "key_press": -1, "type": "PRES_VIS", "word": "police", "wordID": 1097, "conditions": [12, 1600, "v", 12000], "trial": 2, "serialpos": 2, "trial_type": "single-stim", "trial_index": 91, "time_elapsed": 535865, "internal_node_id": "0.0-64.0"}}, {"uniqueid": "MTK0651:32EYX73OY1G8WKHR1IW35Y9ZQY9RUH", "current_trial": 92, "dateTime": 1512579158973, "trialdata": {"rt": -1, "stimulus": "<p id=\"stim\">CLOTHES</p>", "key_press": -1, "type": "PRES_VIS", "word": "clothes", "wordID": 326, "conditions": [12, 1600, "v", 12000], "trial": 2, "serialpos": 3, "trial_type": "single-stim", "trial_index": 92, "time_elapsed": 538523, "internal_node_id": "0.0-65.0"}}, {"uniqueid": "MTK0651:32EYX73OY1G8WKHR1IW35Y9ZQY9RUH", "current_trial": 93, "dateTime": 1512579161411, "trialdata": {"rt": -1, "stimulus": "<p id=\"stim\">TOMBSTONE</p>", "key_press": -1, "type": "PRES_VIS", "word": "tombstone", "wordID": 1477, "conditions": [12, 1600, "v", 12000], "trial": 2, "serialpos": 4, "trial_type": "single-stim", "trial_index": 93, "time_elapsed": 540962, "internal_node_id": "0.0-66.0"}}, {"uniqueid": "MTK0651:32EYX73OY1G8WKHR1IW35Y9ZQY9RUH", "current_trial": 94, "dateTime": 1512579163913, "trialdata": {"rt": -1, "stimulus": "<p id=\"stim\">MARSH</p>", "key_press": -1, "type": "PRES_VIS", "word": "marsh", "wordID": 873, "conditions": [12, 1600, "v", 12000], "trial": 2, "serialpos": 5, "trial_type": "single-stim", "trial_index": 94, "time_elapsed": 543464, "internal_node_id": "0.0-67.0"}}, {"uniqueid": "MTK0651:32EYX73OY1G8WKHR1IW35Y9ZQY9RUH", "current_trial": 95, "dateTime": 1512579166508, "trialdata": {"rt": -1, "stimulus": "<p id=\"stim\">MAILMAN</p>", "key_press": -1, "type": "PRES_VIS", "word": "mailman", "wordID": 857, "conditions": [12, 1600, "v", 12000], "trial": 2, "serialpos": 6, "trial_type": "single-stim", "trial_index": 95, "time_elapsed": 546058, "internal_node_id": "0.0-68.0"}}, {"uniqueid": "MTK0651:32EYX73OY1G8WKHR1IW35Y9ZQY9RUH", "current_trial": 96, "dateTime": 1512579169135, "trialdata": {"rt": -1, "stimulus": "<p id=\"stim\">CANAL</p>", "key_press": -1, "type": "PRES_VIS", "word": "canal", "wordID": 225, "conditions": [12, 1600, "v", 12000], "trial": 2, "serialpos": 7, "trial_type": "single-stim", "trial_index": 96, "time_elapsed": 548686, "internal_node_id": "0.0-69.0"}}, {"uniqueid": "MTK0651:32EYX73OY1G8WKHR1IW35Y9ZQY9RUH", "current_trial": 97, "dateTime": 1512579171691, "trialdata": {"rt": -1, "stimulus": "<p id=\"stim\">BROTHER</p>", "key_press": -1, "type": "PRES_VIS", "word": "brother", "wordID": 178, "conditions": [12, 1600, "v", 12000], "trial": 2, "serialpos": 8, "trial_type": "single-stim", "trial_index": 97, "time_elapsed": 551242, "internal_node_id": "0.0-70.0"}}, {"uniqueid": "MTK0651:32EYX73OY1G8WKHR1IW35Y9ZQY9RUH", "current_trial": 98, "dateTime": 1512579174390, "trialdata": {"rt": -1, "stimulus": "<p id=\"stim\">WIFE</p>", "key_press": -1, "type": "PRES_VIS", "word": "wife", "wordID": 1608, "conditions": [12, 1600, "v", 12000], "trial": 2, "serialpos": 9, "trial_type": "single-stim", "trial_index": 98, "time_elapsed": 553940, "internal_node_id": "0.0-71.0"}}, {"uniqueid": "MTK0651:32EYX73OY1G8WKHR1IW35Y9ZQY9RUH", "current_trial": 99, "dateTime": 1512579176870, "trialdata": {"rt": -1, "stimulus": "<p id=\"stim\">CONCERT</p>", "key_press": -1, "type": "PRES_VIS", "word": "concert", "wordID": 359, "conditions": [12, 1600, "v", 12000], "trial": 2, "serialpos": 10, "trial_type": "single-stim", "trial_index": 99, "time_elapsed": 556420, "internal_node_id": "0.0-72.0"}}, {"uniqueid": "MTK0651:32EYX73OY1G8WKHR1IW35Y9ZQY9RUH", "current_trial": 100, "dateTime": 1512579179528, "trialdata": {"rt": -1, "stimulus": "<p id=\"stim\">DRESS</p>", "key_press": -1, "type": "PRES_VIS", "word": "dress", "wordID": 494, "conditions": [12, 1600, "v", 12000], "trial": 2, "serialpos": 11, "trial_type": "single-stim", "trial_index": 100, "time_elapsed": 559078, "internal_node_id": "0.0-73.0"}}, {"uniqueid": "MTK0651:32EYX73OY1G8WKHR1IW35Y9ZQY9RUH", "current_trial": 101, "dateTime": 1512579181940, "trialdata": {"rt": -1, "stimulus": "", "key_press": -1, "type": "PRE_RECALL_DELAY", "trial_type": "single-stim", "trial_index": 101, "time_elapsed": 561491, "internal_node_id": "0.0-74.0-0.0"}}, {"uniqueid": "MTK0651:32EYX73OY1G8WKHR1IW35Y9ZQY9RUH", "current_trial": 102, "dateTime": 1512579182453, "trialdata": {"rt": -1000, "stimulus": "/static/audio/400Hz.wav", "key_press": -1, "type": "PRE_RECALL_ALERT", "trial_type": "single-audio", "trial_index": 102, "time_elapsed": 562004, "internal_node_id": "0.0-75.0"}}, {"uniqueid": "MTK0651:32EYX73OY1G8WKHR1IW35Y9ZQY9RUH", "current_trial": 103, "dateTime": 1512579242460, "trialdata": {"rt": [2121, 3177, 4225, 7145, 8496, 10649, 11513, 14601, 20505, 21457], "recwords": ["concert", "dress", "mailman", "egypt", "police", "blockade", "canal", "clothes", "brother", "wife"], "type": "FREE_RECALL", "conditions": [12, 1600, "v", 12000], "trial": 2, "trial_type": "free-recall", "trial_index": 103, "time_elapsed": 622008, "internal_node_id": "0.0-76.0-0.0"}}, {"uniqueid": "MTK0651:32EYX73OY1G8WKHR1IW35Y9ZQY9RUH", "current_trial": 104, "dateTime": 1512579257993, "trialdata": {"rt": 13530, "key_press": 32, "type": "INSTRUCTIONS", "trial_type": "text", "trial_index": 104, "time_elapsed": 637544, "internal_node_id": "0.0-77.0"}}, {"uniqueid": "MTK0651:32EYX73OY1G8WKHR1IW35Y9ZQY9RUH", "current_trial": 105, "dateTime": 1512579283998, "trialdata": {"rt": [1955, 3787, 5899, 7571, 9107, 10563, 12468, 14227, 16867, 18371, 21059], "responses": ["20", "18", "14", "15", "11", "13", "16", "19", "14", "14", "18"], "num1": [6, 1, 2, 7, 1, 5, 4, 7, 4, 5, 3, 3], "num2": [7, 9, 4, 1, 6, 3, 6, 9, 3, 5, 6, 3], "num3": [7, 8, 8, 7, 4, 5, 6, 3, 7, 4, 9, 6], "type": "DISTRACTOR", "conditions": [12, 800, "v", 24000], "trial": 3, "trial_type": "math-distractor", "trial_index": 105, "time_elapsed": 663549, "internal_node_id": "0.0-78.0"}}, {"uniqueid": "MTK0651:32EYX73OY1G8WKHR1IW35Y9ZQY9RUH", "current_trial": 106, "dateTime": 1512579287000, "trialdata": {"rt": -1, "stimulus": "<p id=\"stim\">10</p>", "key_press": -1, "trial_type": "single-stim", "trial_index": 106, "time_elapsed": 666551, "internal_node_id": "0.0-79.0-0.0"}}, {"uniqueid": "MTK0651:32EYX73OY1G8WKHR1IW35Y9ZQY9RUH", "current_trial": 107, "dateTime": 1512579288002, "trialdata": {"rt": -1, "stimulus": "<p id=\"stim\">9</p>", "key_press": -1, "trial_type": "single-stim", "trial_index": 107, "time_elapsed": 667553, "internal_node_id": "0.0-79.0-1.0"}}, {"uniqueid": "MTK0651:32EYX73OY1G8WKHR1IW35Y9ZQY9RUH", "current_trial": 108, "dateTime": 1512579289003, "trialdata": {"rt": -1, "stimulus": "<p id=\"stim\">8</p>", "key_press": -1, "trial_type": "single-stim", "trial_index": 108, "time_elapsed": 668554, "internal_node_id": "0.0-79.0-2.0"}}, {"uniqueid": "MTK0651:32EYX73OY1G8WKHR1IW35Y9ZQY9RUH", "current_trial": 109, "dateTime": 1512579290004, "trialdata": {"rt": -1, "stimulus": "<p id=\"stim\">7</p>", "key_press": -1, "trial_type": "single-stim", "trial_index": 109, "time_elapsed": 669555, "internal_node_id": "0.0-79.0-3.0"}}, {"uniqueid": "MTK0651:32EYX73OY1G8WKHR1IW35Y9ZQY9RUH", "current_trial": 110, "dateTime": 1512579291006, "trialdata": {"rt": -1, "stimulus": "<p id=\"stim\">6</p>", "key_press": -1, "trial_type": "single-stim", "trial_index": 110, "time_elapsed": 670556, "internal_node_id": "0.0-79.0-4.0"}}, {"uniqueid": "MTK0651:32EYX73OY1G8WKHR1IW35Y9ZQY9RUH", "current_trial": 111, "dateTime": 1512579292007, "trialdata": {"rt": -1, "stimulus": "<p id=\"stim\">5</p>", "key_press": -1, "trial_type": "single-stim", "trial_index": 111, "time_elapsed": 671558, "internal_node_id": "0.0-79.0-5.0"}}, {"uniqueid": "MTK0651:32EYX73OY1G8WKHR1IW35Y9ZQY9RUH", "current_trial": 112, "dateTime": 1512579293008, "trialdata": {"rt": -1, "stimulus": "<p id=\"stim\">4</p>", "key_press": -1, "trial_type": "single-stim", "trial_index": 112, "time_elapsed": 672559, "internal_node_id": "0.0-79.0-6.0"}}, {"uniqueid": "MTK0651:32EYX73OY1G8WKHR1IW35Y9ZQY9RUH", "current_trial": 113, "dateTime": 1512579294010, "trialdata": {"rt": -1, "stimulus": "<p id=\"stim\">3</p>", "key_press": -1, "trial_type": "single-stim", "trial_index": 113, "time_elapsed": 673561, "internal_node_id": "0.0-79.0-7.0"}}, {"uniqueid": "MTK0651:32EYX73OY1G8WKHR1IW35Y9ZQY9RUH", "current_trial": 114, "dateTime": 1512579295014, "trialdata": {"rt": -1, "stimulus": "<p id=\"stim\">2</p>", "key_press": -1, "trial_type": "single-stim", "trial_index": 114, "time_elapsed": 674564, "internal_node_id": "0.0-79.0-8.0"}}, {"uniqueid": "MTK0651:32EYX73OY1G8WKHR1IW35Y9ZQY9RUH", "current_trial": 115, "dateTime": 1512579296015, "trialdata": {"rt": -1, "stimulus": "<p id=\"stim\">1</p>", "key_press": -1, "trial_type": "single-stim", "trial_index": 115, "time_elapsed": 675566, "internal_node_id": "0.0-79.0-9.0"}}, {"uniqueid": "MTK0651:32EYX73OY1G8WKHR1IW35Y9ZQY9RUH", "current_trial": 116, "dateTime": 1512579297517, "trialdata": {"rt": -1, "stimulus": "<p id=\"stim\">+</p>", "key_press": -1, "type": "FIXATION", "trial_type": "single-stim", "trial_index": 116, "time_elapsed": 677068, "internal_node_id": "0.0-80.0-0.0"}}, {"uniqueid": "MTK0651:32EYX73OY1G8WKHR1IW35Y9ZQY9RUH", "current_trial": 117, "dateTime": 1512579298319, "trialdata": {"rt": -1, "stimulus": "<p id=\"stim\">OUTFIT</p>", "key_press": -1, "type": "PRES_VIS", "word": "outfit", "wordID": 987, "conditions": [12, 800, "v", 24000], "trial": 3, "serialpos": 0, "trial_type": "single-stim", "trial_index": 117, "time_elapsed": 677870, "internal_node_id": "0.0-81.0"}}, {"uniqueid": "MTK0651:32EYX73OY1G8WKHR1IW35Y9ZQY9RUH", "current_trial": 118, "dateTime": 1512579300294, "trialdata": {"rt": -1, "stimulus": "<p id=\"stim\">PLAID</p>", "key_press": -1, "type": "PRES_VIS", "word": "plaid", "wordID": 1079, "conditions": [12, 800, "v", 24000], "trial": 3, "serialpos": 1, "trial_type": "single-stim", "trial_index": 118, "time_elapsed": 679844, "internal_node_id": "0.0-82.0"}}, {"uniqueid": "MTK0651:32EYX73OY1G8WKHR1IW35Y9ZQY9RUH", "current_trial": 119, "dateTime": 1512579301945, "trialdata": {"rt": -1, "stimulus": "<p id=\"stim\">OINTMENT</p>", "key_press": -1, "type": "PRES_VIS", "word": "ointment", "wordID": 973, "conditions": [12, 800, "v", 24000], "trial": 3, "serialpos": 2, "trial_type": "single-stim", "trial_index": 119, "time_elapsed": 681496, "internal_node_id": "0.0-83.0"}}, {"uniqueid": "MTK0651:32EYX73OY1G8WKHR1IW35Y9ZQY9RUH", "current_trial": 120, "dateTime": 1512579303811, "trialdata": {"rt": -1, "stimulus": "<p id=\"stim\">LILY</p>", "key_press": -1, "type": "PRES_VIS", "word": "lily", "wordID": 820, "conditions": [12, 800, "v", 24000], "trial": 3, "serialpos": 3, "trial_type": "single-stim", "trial_index": 120, "time_elapsed": 683362, "internal_node_id": "0.0-84.0"}}, {"uniqueid": "MTK0651:32EYX73OY1G8WKHR1IW35Y9ZQY9RUH", "current_trial": 121, "dateTime": 1512579305691, "trialdata": {"rt": -1, "stimulus": "<p id=\"stim\">ORCHID</p>", "key_press": -1, "type": "PRES_VIS", "word": "orchid", "wordID": 981, "conditions": [12, 800, "v", 24000], "trial": 3, "serialpos": 4, "trial_type": "single-stim", "trial_index": 121, "time_elapsed": 685242, "internal_node_id": "0.0-85.0"}}, {"uniqueid": "MTK0651:32EYX73OY1G8WKHR1IW35Y9ZQY9RUH", "current_trial": 122, "dateTime": 1512579307614, "trialdata": {"rt": -1, "stimulus": "<p id=\"stim\">BANKER</p>", "key_press": -1, "type": "PRES_VIS", "word": "banker", "wordID": 83, "conditions": [12, 800, "v", 24000], "trial": 3, "serialpos": 5, "trial_type": "single-stim", "trial_index": 122, "time_elapsed": 687165, "internal_node_id": "0.0-86.0"}}, {"uniqueid": "MTK0651:32EYX73OY1G8WKHR1IW35Y9ZQY9RUH", "current_trial": 123, "dateTime": 1512579309222, "trialdata": {"rt": -1, "stimulus": "<p id=\"stim\">BEAST</p>", "key_press": -1, "type": "PRES_VIS", "word": "beast", "wordID": 107, "conditions": [12, 800, "v", 24000], "trial": 3, "serialpos": 6, "trial_type": "single-stim", "trial_index": 123, "time_elapsed": 688773, "internal_node_id": "0.0-87.0"}}, {"uniqueid": "MTK0651:32EYX73OY1G8WKHR1IW35Y9ZQY9RUH", "current_trial": 124, "dateTime": 1512579310991, "trialdata": {"rt": -1, "stimulus": "<p id=\"stim\">BACON</p>", "key_press": -1, "type": "PRES_VIS", "word": "bacon", "wordID": 66, "conditions": [12, 800, "v", 24000], "trial": 3, "serialpos": 7, "trial_type": "single-stim", "trial_index": 124, "time_elapsed": 690542, "internal_node_id": "0.0-88.0"}}, {"uniqueid": "MTK0651:32EYX73OY1G8WKHR1IW35Y9ZQY9RUH", "current_trial": 125, "dateTime": 1512579312747, "trialdata": {"rt": -1, "stimulus": "<p id=\"stim\">LIPSTICK</p>", "key_press": -1, "type": "PRES_VIS", "word": "lipstick", "wordID": 828, "conditions": [12, 800, "v", 24000], "trial": 3, "serialpos": 8, "trial_type": "single-stim", "trial_index": 125, "time_elapsed": 692297, "internal_node_id": "0.0-89.0"}}, {"uniqueid": "MTK0651:32EYX73OY1G8WKHR1IW35Y9ZQY9RUH", "current_trial": 126, "dateTime": 1512579314674, "trialdata": {"rt": -1, "stimulus": "<p id=\"stim\">COBRA</p>", "key_press": -1, "type": "PRES_VIS", "word": "cobra", "wordID": 335, "conditions": [12, 800, "v", 24000], "trial": 3, "serialpos": 9, "trial_type": "single-stim", "trial_index": 126, "time_elapsed": 694225, "internal_node_id": "0.0-90.0"}}, {"uniqueid": "MTK0651:32EYX73OY1G8WKHR1IW35Y9ZQY9RUH", "current_trial": 127, "dateTime": 1512579316670, "trialdata": {"rt": -1, "stimulus": "<p id=\"stim\">OMELET</p>", "key_press": -1, "type": "PRES_VIS", "word": "omelet", "wordID": 975, "conditions": [12, 800, "v", 24000], "trial": 3, "serialpos": 10, "trial_type": "single-stim", "trial_index": 127, "time_elapsed": 696221, "internal_node_id": "0.0-91.0"}}, {"uniqueid": "MTK0651:32EYX73OY1G8WKHR1IW35Y9ZQY9RUH", "current_trial": 128, "dateTime": 1512579318428, "trialdata": {"rt": -1, "stimulus": "<p id=\"stim\">ANTLER</p>", "key_press": -1, "type": "PRES_VIS", "word": "antler", "wordID": 28, "conditions": [12, 800, "v", 24000], "trial": 3, "serialpos": 11, "trial_type": "single-stim", "trial_index": 128, "time_elapsed": 697979, "internal_node_id": "0.0-92.0"}}, {"uniqueid": "MTK0651:32EYX73OY1G8WKHR1IW35Y9ZQY9RUH", "current_trial": 129, "dateTime": 1512579320609, "trialdata": {"rt": -1, "stimulus": "", "key_press": -1, "type": "PRE_RECALL_DELAY", "trial_type": "single-stim", "trial_index": 129, "time_elapsed": 700160, "internal_node_id": "0.0-93.0-0.0"}}, {"uniqueid": "MTK0651:32EYX73OY1G8WKHR1IW35Y9ZQY9RUH", "current_trial": 130, "dateTime": 1512579321112, "trialdata": {"rt": -1000, "stimulus": "/static/audio/400Hz.wav", "key_press": -1, "type": "PRE_RECALL_ALERT", "trial_type": "single-audio", "trial_index": 130, "time_elapsed": 700663, "internal_node_id": "0.0-94.0"}}, {"uniqueid": "MTK0651:32EYX73OY1G8WKHR1IW35Y9ZQY9RUH", "current_trial": 131, "dateTime": 1512579381121, "trialdata": {"rt": [8469, 10381, 11413, 12453, 13502, 17389, 37605], "recwords": ["banker", "bacon", "beast", "outfit", "plaid", "lily", "omelette"], "type": "FREE_RECALL", "conditions": [12, 800, "v", 24000], "trial": 3, "trial_type": "free-recall", "trial_index": 131, "time_elapsed": 760668, "internal_node_id": "0.0-95.0-0.0"}}, {"uniqueid": "MTK0651:32EYX73OY1G8WKHR1IW35Y9ZQY9RUH", "current_trial": 132, "dateTime": 1512579384753, "trialdata": {"rt": 1632, "key_press": 32, "type": "INSTRUCTIONS", "trial_type": "text", "trial_index": 132, "time_elapsed": 764304, "internal_node_id": "0.0-96.0"}}, {"uniqueid": "MTK0651:32EYX73OY1G8WKHR1IW35Y9ZQY9RUH", "current_trial": 133, "dateTime": 1512579410759, "trialdata": {"rt": [3132, 5580, 7052, 9235, 10724, 14099, 16163, 18787, 21324, 22739], "responses": ["14", "14", "8", "15", "17", "21", "20", "17", "17", "9"], "num1": [4, 9, 1, 8, 9, 8, 9, 6, 8, 1, 2], "num2": [4, 2, 6, 4, 1, 6, 8, 3, 6, 2, 9], "num3": [6, 3, 1, 3, 7, 7, 3, 8, 3, 6, 4], "type": "DISTRACTOR", "conditions": [24, 800, "a", 24000], "trial": 4, "trial_type": "math-distractor", "trial_index": 133, "time_elapsed": 790310, "internal_node_id": "0.0-97.0"}}, {"uniqueid": "MTK0651:32EYX73OY1G8WKHR1IW35Y9ZQY9RUH", "current_trial": 134, "dateTime": 1512579413760, "trialdata": {"rt": -1, "stimulus": "<p id=\"stim\">10</p>", "key_press": -1, "trial_type": "single-stim", "trial_index": 134, "time_elapsed": 793311, "internal_node_id": "0.0-98.0-0.0"}}, {"uniqueid": "MTK0651:32EYX73OY1G8WKHR1IW35Y9ZQY9RUH", "current_trial": 135, "dateTime": 1512579414763, "trialdata": {"rt": -1, "stimulus": "<p id=\"stim\">9</p>", "key_press": -1, "trial_type": "single-stim", "trial_index": 135, "time_elapsed": 794313, "internal_node_id": "0.0-98.0-1.0"}}, {"uniqueid": "MTK0651:32EYX73OY1G8WKHR1IW35Y9ZQY9RUH", "current_trial": 136, "dateTime": 1512579415765, "trialdata": {"rt": -1, "stimulus": "<p id=\"stim\">8</p>", "key_press": -1, "trial_type": "single-stim", "trial_index": 136, "time_elapsed": 795316, "internal_node_id": "0.0-98.0-2.0"}}, {"uniqueid": "MTK0651:32EYX73OY1G8WKHR1IW35Y9ZQY9RUH", "current_trial": 137, "dateTime": 1512579416767, "trialdata": {"rt": -1, "stimulus": "<p id=\"stim\">7</p>", "key_press": -1, "trial_type": "single-stim", "trial_index": 137, "time_elapsed": 796318, "internal_node_id": "0.0-98.0-3.0"}}, {"uniqueid": "MTK0651:32EYX73OY1G8WKHR1IW35Y9ZQY9RUH", "current_trial": 138, "dateTime": 1512579417768, "trialdata": {"rt": -1, "stimulus": "<p id=\"stim\">6</p>", "key_press": -1, "trial_type": "single-stim", "trial_index": 138, "time_elapsed": 797319, "internal_node_id": "0.0-98.0-4.0"}}, {"uniqueid": "MTK0651:32EYX73OY1G8WKHR1IW35Y9ZQY9RUH", "current_trial": 139, "dateTime": 1512579418769, "trialdata": {"rt": -1, "stimulus": "<p id=\"stim\">5</p>", "key_press": -1, "trial_type": "single-stim", "trial_index": 139, "time_elapsed": 798320, "internal_node_id": "0.0-98.0-5.0"}}, {"uniqueid": "MTK0651:32EYX73OY1G8WKHR1IW35Y9ZQY9RUH", "current_trial": 140, "dateTime": 1512579419772, "trialdata": {"rt": -1, "stimulus": "<p id=\"stim\">4</p>", "key_press": -1, "trial_type": "single-stim", "trial_index": 140, "time_elapsed": 799323, "internal_node_id": "0.0-98.0-6.0"}}, {"uniqueid": "MTK0651:32EYX73OY1G8WKHR1IW35Y9ZQY9RUH", "current_trial": 141, "dateTime": 1512579420774, "trialdata": {"rt": -1, "stimulus": "<p id=\"stim\">3</p>", "key_press": -1, "trial_type": "single-stim", "trial_index": 141, "time_elapsed": 800324, "internal_node_id": "0.0-98.0-7.0"}}, {"uniqueid": "MTK0651:32EYX73OY1G8WKHR1IW35Y9ZQY9RUH", "current_trial": 142, "dateTime": 1512579421775, "trialdata": {"rt": -1, "stimulus": "<p id=\"stim\">2</p>", "key_press": -1, "trial_type": "single-stim", "trial_index": 142, "time_elapsed": 801326, "internal_node_id": "0.0-98.0-8.0"}}, {"uniqueid": "MTK0651:32EYX73OY1G8WKHR1IW35Y9ZQY9RUH", "current_trial": 143, "dateTime": 1512579422777, "trialdata": {"rt": -1, "stimulus": "<p id=\"stim\">1</p>", "key_press": -1, "trial_type": "single-stim", "trial_index": 143, "time_elapsed": 802328, "internal_node_id": "0.0-98.0-9.0"}}, {"uniqueid": "MTK0651:32EYX73OY1G8WKHR1IW35Y9ZQY9RUH", "current_trial": 144, "dateTime": 1512579424280, "trialdata": {"rt": -1, "stimulus": "<p id=\"stim\">+</p>", "key_press": -1, "type": "FIXATION", "trial_type": "single-stim", "trial_index": 144, "time_elapsed": 803831, "internal_node_id": "0.0-99.0-0.0"}}, {"uniqueid": "MTK0651:32EYX73OY1G8WKHR1IW35Y9ZQY9RUH", "current_trial": 145, "dateTime": 1512579425985, "trialdata": {"rt": -1000, "stimulus": "/static/audio/wordpool/SHERIFF.wav", "key_press": -1, "type": "PRES_AUD", "word": "sheriff", "wordID": 1283, "conditions": [24, 800, "a", 24000], "trial": 4, "serialpos": 0, "trial_type": "single-audio", "trial_index": 145, "time_elapsed": 805536, "internal_node_id": "0.0-100.0"}}, {"uniqueid": "MTK0651:32EYX73OY1G8WKHR1IW35Y9ZQY9RUH", "current_trial": 146, "dateTime": 1512579427674, "trialdata": {"rt": -1000, "stimulus": "/static/audio/wordpool/COUNTY.wav", "key_press": -1, "type": "PRES_AUD", "word": "county", "wordID": 388, "conditions": [24, 800, "a", 24000], "trial": 4, "serialpos": 1, "trial_type": "single-audio", "trial_index": 146, "time_elapsed": 807225, "internal_node_id": "0.0-101.0"}}, {"uniqueid": "MTK0651:32EYX73OY1G8WKHR1IW35Y9ZQY9RUH", "current_trial": 147, "dateTime": 1512579429581, "trialdata": {"rt": -1000, "stimulus": "/static/audio/wordpool/GAZELLE.wav", "key_press": -1, "type": "PRES_AUD", "word": "gazelle", "wordID": 627, "conditions": [24, 800, "a", 24000], "trial": 4, "serialpos": 2, "trial_type": "single-audio", "trial_index": 147, "time_elapsed": 809132, "internal_node_id": "0.0-102.0"}}, {"uniqueid": "MTK0651:32EYX73OY1G8WKHR1IW35Y9ZQY9RUH", "current_trial": 148, "dateTime": 1512579431244, "trialdata": {"rt": -1000, "stimulus": "/static/audio/wordpool/HORNET.wav", "key_press": -1, "type": "PRES_AUD", "word": "hornet", "wordID": 717, "conditions": [24, 800, "a", 24000], "trial": 4, "serialpos": 3, "trial_type": "single-audio", "trial_index": 148, "time_elapsed": 810795, "internal_node_id": "0.0-103.0"}}, {"uniqueid": "MTK0651:32EYX73OY1G8WKHR1IW35Y9ZQY9RUH", "current_trial": 149, "dateTime": 1512579433213, "trialdata": {"rt": -1000, "stimulus": "/static/audio/wordpool/BEAKER.wav", "key_press": -1, "type": "PRES_AUD", "word": "beaker", "wordID": 103, "conditions": [24, 800, "a", 24000], "trial": 4, "serialpos": 4, "trial_type": "single-audio", "trial_index": 149, "time_elapsed": 812764, "internal_node_id": "0.0-104.0"}}, {"uniqueid": "MTK0651:32EYX73OY1G8WKHR1IW35Y9ZQY9RUH", "current_trial": 150, "dateTime": 1512579435191, "trialdata": {"rt": -1000, "stimulus": "/static/audio/wordpool/COSTUME.wav", "key_press": -1, "type": "PRES_AUD", "word": "costume", "wordID": 382, "conditions": [24, 800, "a", 24000], "trial": 4, "serialpos": 5, "trial_type": "single-audio", "trial_index": 150, "time_elapsed": 814742, "internal_node_id": "0.0-105.0"}}, {"uniqueid": "MTK0651:32EYX73OY1G8WKHR1IW35Y9ZQY9RUH", "current_trial": 151, "dateTime": 1512579436888, "trialdata": {"rt": -1000, "stimulus": "/static/audio/wordpool/HOSTESS.wav", "key_press": -1, "type": "PRES_AUD", "word": "hostess", "wordID": 722, "conditions": [24, 800, "a", 24000], "trial": 4, "serialpos": 6, "trial_type": "single-audio", "trial_index": 151, "time_elapsed": 816439, "internal_node_id": "0.0-106.0"}}, {"uniqueid": "MTK0651:32EYX73OY1G8WKHR1IW35Y9ZQY9RUH", "current_trial": 152, "dateTime": 1512579438856, "trialdata": {"rt": -1000, "stimulus": "/static/audio/wordpool/SKILLET.wav", "key_press": -1, "type": "PRES_AUD", "word": "skillet", "wordID": 1316, "conditions": [24, 800, "a", 24000], "trial": 4, "serialpos": 7, "trial_type": "single-audio", "trial_index": 152, "time_elapsed": 818407, "internal_node_id": "0.0-107.0"}}, {"uniqueid": "MTK0651:32EYX73OY1G8WKHR1IW35Y9ZQY9RUH", "current_trial": 153, "dateTime": 1512579440494, "trialdata": {"rt": -1000, "stimulus": "/static/audio/wordpool/FLEET.wav", "key_press": -1, "type": "PRES_AUD", "word": "fleet", "wordID": 577, "conditions": [24, 800, "a", 24000], "trial": 4, "serialpos": 8, "trial_type": "single-audio", "trial_index": 153, "time_elapsed": 820045, "internal_node_id": "0.0-108.0"}}, {"uniqueid": "MTK0651:32EYX73OY1G8WKHR1IW35Y9ZQY9RUH", "current_trial": 154, "dateTime": 1512579442138, "trialdata": {"rt": -1000, "stimulus": "/static/audio/wordpool/FLOWER.wav", "key_press": -1, "type": "PRES_AUD", "word": "flower", "wordID": 583, "conditions": [24, 800, "a", 24000], "trial": 4, "serialpos": 9, "trial_type": "single-audio", "trial_index": 154, "time_elapsed": 821689, "internal_node_id": "0.0-109.0"}}, {"uniqueid": "MTK0651:32EYX73OY1G8WKHR1IW35Y9ZQY9RUH", "current_trial": 155, "dateTime": 1512579444051, "trialdata": {"rt": -1000, "stimulus": "/static/audio/wordpool/STALLION.wav", "key_press": -1, "type": "PRES_AUD", "word": "stallion", "wordID": 1368, "conditions": [24, 800, "a", 24000], "trial": 4, "serialpos": 10, "trial_type": "single-audio", "trial_index": 155, "time_elapsed": 823602, "internal_node_id": "0.0-110.0"}}, {"uniqueid": "MTK0651:32EYX73OY1G8WKHR1IW35Y9ZQY9RUH", "current_trial": 156, "dateTime": 1512579445883, "trialdata": {"rt": -1000, "stimulus": "/static/audio/wordpool/TUTU.wav", "key_press": -1, "type": "PRES_AUD", "word": "tutu", "wordID": 1523, "conditions": [24, 800, "a", 24000], "trial": 4, "serialpos": 11, "trial_type": "single-audio", "trial_index": 156, "time_elapsed": 825434, "internal_node_id": "0.0-111.0"}}, {"uniqueid": "MTK0651:32EYX73OY1G8WKHR1IW35Y9ZQY9RUH", "current_trial": 157, "dateTime": 1512579447565, "trialdata": {"rt": -1000, "stimulus": "/static/audio/wordpool/TILE.wav", "key_press": -1, "type": "PRES_AUD", "word": "tile", "wordID": 1467, "conditions": [24, 800, "a", 24000], "trial": 4, "serialpos": 12, "trial_type": "single-audio", "trial_index": 157, "time_elapsed": 827116, "internal_node_id": "0.0-112.0"}}, {"uniqueid": "MTK0651:32EYX73OY1G8WKHR1IW35Y9ZQY9RUH", "current_trial": 158, "dateTime": 1512579449528, "trialdata": {"rt": -1000, "stimulus": "/static/audio/wordpool/MESSAGE.wav", "key_press": -1, "type": "PRES_AUD", "word": "message", "wordID": 887, "conditions": [24, 800, "a", 24000], "trial": 4, "serialpos": 13, "trial_type": "single-audio", "trial_index": 158, "time_elapsed": 829079, "internal_node_id": "0.0-113.0"}}, {"uniqueid": "MTK0651:32EYX73OY1G8WKHR1IW35Y9ZQY9RUH", "current_trial": 159, "dateTime": 1512579451496, "trialdata": {"rt": -1000, "stimulus": "/static/audio/wordpool/SUMMIT.wav", "key_press": -1, "type": "PRES_AUD", "word": "summit", "wordID": 1404, "conditions": [24, 800, "a", 24000], "trial": 4, "serialpos": 14, "trial_type": "single-audio", "trial_index": 159, "time_elapsed": 831047, "internal_node_id": "0.0-114.0"}}, {"uniqueid": "MTK0651:32EYX73OY1G8WKHR1IW35Y9ZQY9RUH", "current_trial": 160, "dateTime": 1512579453452, "trialdata": {"rt": -1000, "stimulus": "/static/audio/wordpool/OYSTER.wav", "key_press": -1, "type": "PRES_AUD", "word": "oyster", "wordID": 994, "conditions": [24, 800, "a", 24000], "trial": 4, "serialpos": 15, "trial_type": "single-audio", "trial_index": 160, "time_elapsed": 833003, "internal_node_id": "0.0-115.0"}}, {"uniqueid": "MTK0651:32EYX73OY1G8WKHR1IW35Y9ZQY9RUH", "current_trial": 161, "dateTime": 1512579455314, "trialdata": {"rt": -1000, "stimulus": "/static/audio/wordpool/PIZZA.wav", "key_press": -1, "type": "PRES_AUD", "word": "pizza", "wordID": 1078, "conditions": [24, 800, "a", 24000], "trial": 4, "serialpos": 16, "trial_type": "single-audio", "trial_index": 161, "time_elapsed": 834865, "internal_node_id": "0.0-116.0"}}, {"uniqueid": "MTK0651:32EYX73OY1G8WKHR1IW35Y9ZQY9RUH", "current_trial": 162, "dateTime": 1512579457284, "trialdata": {"rt": -1000, "stimulus": "/static/audio/wordpool/MATTRESS.wav", "key_press": -1, "type": "PRES_AUD", "word": "mattress", "wordID": 878, "conditions": [24, 800, "a", 24000], "trial": 4, "serialpos": 17, "trial_type": "single-audio", "trial_index": 162, "time_elapsed": 836835, "internal_node_id": "0.0-117.0"}}, {"uniqueid": "MTK0651:32EYX73OY1G8WKHR1IW35Y9ZQY9RUH", "current_trial": 163, "dateTime": 1512579459140, "trialdata": {"rt": -1000, "stimulus": "/static/audio/wordpool/COUCH.wav", "key_press": -1, "type": "PRES_AUD", "word": "couch", "wordID": 385, "conditions": [24, 800, "a", 24000], "trial": 4, "serialpos": 18, "trial_type": "single-audio", "trial_index": 163, "time_elapsed": 838691, "internal_node_id": "0.0-118.0"}}, {"uniqueid": "MTK0651:32EYX73OY1G8WKHR1IW35Y9ZQY9RUH", "current_trial": 164, "dateTime": 1512579461016, "trialdata": {"rt": -1000, "stimulus": "/static/audio/wordpool/SALMON.wav", "key_press": -1, "type": "PRES_AUD", "word": "salmon", "wordID": 1226, "conditions": [24, 800, "a", 24000], "trial": 4, "serialpos": 19, "trial_type": "single-audio", "trial_index": 164, "time_elapsed": 840567, "internal_node_id": "0.0-119.0"}}, {"uniqueid": "MTK0651:32EYX73OY1G8WKHR1IW35Y9ZQY9RUH", "current_trial": 165, "dateTime": 1512579462905, "trialdata": {"rt": -1000, "stimulus": "/static/audio/wordpool/ZEBRA.wav", "key_press": -1, "type": "PRES_AUD", "word": "zebra", "wordID": 1634, "conditions": [24, 800, "a", 24000], "trial": 4, "serialpos": 20, "trial_type": "single-audio", "trial_index": 165, "time_elapsed": 842456, "internal_node_id": "0.0-120.0"}}, {"uniqueid": "MTK0651:32EYX73OY1G8WKHR1IW35Y9ZQY9RUH", "current_trial": 166, "dateTime": 1512579464607, "trialdata": {"rt": -1000, "stimulus": "/static/audio/wordpool/DOUGHNUT.wav", "key_press": -1, "type": "PRES_AUD", "word": "doughnut", "wordID": 489, "conditions": [24, 800, "a", 24000], "trial": 4, "serialpos": 21, "trial_type": "single-audio", "trial_index": 166, "time_elapsed": 844158, "internal_node_id": "0.0-121.0"}}, {"uniqueid": "MTK0651:32EYX73OY1G8WKHR1IW35Y9ZQY9RUH", "current_trial": 167, "dateTime": 1512579466349, "trialdata": {"rt": -1000, "stimulus": "/static/audio/wordpool/STATUE.wav", "key_press": -1, "type": "PRES_AUD", "word": "statue", "wordID": 1373, "conditions": [24, 800, "a", 24000], "trial": 4, "serialpos": 22, "trial_type": "single-audio", "trial_index": 167, "time_elapsed": 845900, "internal_node_id": "0.0-122.0"}}, {"uniqueid": "MTK0651:32EYX73OY1G8WKHR1IW35Y9ZQY9RUH", "current_trial": 168, "dateTime": 1512579468250, "trialdata": {"rt": -1000, "stimulus": "/static/audio/wordpool/DASHBOARD.wav", "key_press": -1, "type": "PRES_AUD", "word": "dashboard", "wordID": 440, "conditions": [24, 800, "a", 24000], "trial": 4, "serialpos": 23, "trial_type": "single-audio", "trial_index": 168, "time_elapsed": 847801, "internal_node_id": "0.0-123.0"}}, {"uniqueid": "MTK0651:32EYX73OY1G8WKHR1IW35Y9ZQY9RUH", "current_trial": 169, "dateTime": 1512579469593, "trialdata": {"rt": -1, "stimulus": "", "key_press": -1, "type": "PRE_RECALL_DELAY", "trial_type": "single-stim", "trial_index": 169, "time_elapsed": 849144, "internal_node_id": "0.0-124.0-0.0"}}, {"uniqueid": "MTK0651:32EYX73OY1G8WKHR1IW35Y9ZQY9RUH", "current_trial": 170, "dateTime": 1512579470098, "trialdata": {"rt": -1000, "stimulus": "/static/audio/400Hz.wav", "key_press": -1, "type": "PRE_RECALL_ALERT", "trial_type": "single-audio", "trial_index": 170, "time_elapsed": 849649, "internal_node_id": "0.0-125.0"}}, {"uniqueid": "MTK0651:32EYX73OY1G8WKHR1IW35Y9ZQY9RUH", "current_trial": 171, "dateTime": 1512579530106, "trialdata": {"rt": [1668, 3460, 4844, 8060, 9299, 12195, 22275, 23667], "recwords": ["statue", "dashboard", "zebra", "gazelle", "county", "sherriff", "oyster", "pizza"], "type": "FREE_RECALL", "conditions": [24, 800, "a", 24000], "trial": 4, "trial_type": "free-recall", "trial_index": 171, "time_elapsed": 909653, "internal_node_id": "0.0-126.0-0.0"}}, {"uniqueid": "MTK0651:32EYX73OY1G8WKHR1IW35Y9ZQY9RUH", "current_trial": 172, "dateTime": 1512579568458, "trialdata": {"rt": 36348, "key_press": 32, "type": "INSTRUCTIONS", "trial_type": "text", "trial_index": 172, "time_elapsed": 948009, "internal_node_id": "0.0-127.0"}}, {"uniqueid": "MTK0651:32EYX73OY1G8WKHR1IW35Y9ZQY9RUH", "current_trial": 173, "dateTime": 1512579582462, "trialdata": {"rt": [2076, 4900, 6812, 8867, 10652], "responses": ["16", "16", "15", "16", "17"], "num1": [8, 4, 8, 7, 7, 2], "num2": [1, 5, 1, 8, 2, 6], "num3": [7, 7, 6, 1, 8, 4], "type": "DISTRACTOR", "conditions": [24, 800, "a", 12000], "trial": 5, "trial_type": "math-distractor", "trial_index": 173, "time_elapsed": 962013, "internal_node_id": "0.0-128.0"}}, {"uniqueid": "MTK0651:32EYX73OY1G8WKHR1IW35Y9ZQY9RUH", "current_trial": 174, "dateTime": 1512579585465, "trialdata": {"rt": -1, "stimulus": "<p id=\"stim\">10</p>", "key_press": -1, "trial_type": "single-stim", "trial_index": 174, "time_elapsed": 965016, "internal_node_id": "0.0-129.0-0.0"}}, {"uniqueid": "MTK0651:32EYX73OY1G8WKHR1IW35Y9ZQY9RUH", "current_trial": 175, "dateTime": 1512579586468, "trialdata": {"rt": -1, "stimulus": "<p id=\"stim\">9</p>", "key_press": -1, "trial_type": "single-stim", "trial_index": 175, "time_elapsed": 966019, "internal_node_id": "0.0-129.0-1.0"}}, {"uniqueid": "MTK0651:32EYX73OY1G8WKHR1IW35Y9ZQY9RUH", "current_trial": 176, "dateTime": 1512579587471, "trialdata": {"rt": -1, "stimulus": "<p id=\"stim\">8</p>", "key_press": -1, "trial_type": "single-stim", "trial_index": 176, "time_elapsed": 967021, "internal_node_id": "0.0-129.0-2.0"}}, {"uniqueid": "MTK0651:32EYX73OY1G8WKHR1IW35Y9ZQY9RUH", "current_trial": 177, "dateTime": 1512579588472, "trialdata": {"rt": -1, "stimulus": "<p id=\"stim\">7</p>", "key_press": -1, "trial_type": "single-stim", "trial_index": 177, "time_elapsed": 968023, "internal_node_id": "0.0-129.0-3.0"}}, {"uniqueid": "MTK0651:32EYX73OY1G8WKHR1IW35Y9ZQY9RUH", "current_trial": 178, "dateTime": 1512579589475, "trialdata": {"rt": -1, "stimulus": "<p id=\"stim\">6</p>", "key_press": -1, "trial_type": "single-stim", "trial_index": 178, "time_elapsed": 969025, "internal_node_id": "0.0-129.0-4.0"}}, {"uniqueid": "MTK0651:32EYX73OY1G8WKHR1IW35Y9ZQY9RUH", "current_trial": 179, "dateTime": 1512579590477, "trialdata": {"rt": -1, "stimulus": "<p id=\"stim\">5</p>", "key_press": -1, "trial_type": "single-stim", "trial_index": 179, "time_elapsed": 970027, "internal_node_id": "0.0-129.0-5.0"}}, {"uniqueid": "MTK0651:32EYX73OY1G8WKHR1IW35Y9ZQY9RUH", "current_trial": 180, "dateTime": 1512579591478, "trialdata": {"rt": -1, "stimulus": "<p id=\"stim\">4</p>", "key_press": -1, "trial_type": "single-stim", "trial_index": 180, "time_elapsed": 971029, "internal_node_id": "0.0-129.0-6.0"}}, {"uniqueid": "MTK0651:32EYX73OY1G8WKHR1IW35Y9ZQY9RUH", "current_trial": 181, "dateTime": 1512579592481, "trialdata": {"rt": -1, "stimulus": "<p id=\"stim\">3</p>", "key_press": -1, "trial_type": "single-stim", "trial_index": 181, "time_elapsed": 972031, "internal_node_id": "0.0-129.0-7.0"}}, {"uniqueid": "MTK0651:32EYX73OY1G8WKHR1IW35Y9ZQY9RUH", "current_trial": 182, "dateTime": 1512579593482, "trialdata": {"rt": -1, "stimulus": "<p id=\"stim\">2</p>", "key_press": -1, "trial_type": "single-stim", "trial_index": 182, "time_elapsed": 973033, "internal_node_id": "0.0-129.0-8.0"}}, {"uniqueid": "MTK0651:32EYX73OY1G8WKHR1IW35Y9ZQY9RUH", "current_trial": 183, "dateTime": 1512579594483, "trialdata": {"rt": -1, "stimulus": "<p id=\"stim\">1</p>", "key_press": -1, "trial_type": "single-stim", "trial_index": 183, "time_elapsed": 974034, "internal_node_id": "0.0-129.0-9.0"}}, {"uniqueid": "MTK0651:32EYX73OY1G8WKHR1IW35Y9ZQY9RUH", "current_trial": 184, "dateTime": 1512579595985, "trialdata": {"rt": -1, "stimulus": "<p id=\"stim\">+</p>", "key_press": -1, "type": "FIXATION", "trial_type": "single-stim", "trial_index": 184, "time_elapsed": 975536, "internal_node_id": "0.0-130.0-0.0"}}, {"uniqueid": "MTK0651:32EYX73OY1G8WKHR1IW35Y9ZQY9RUH", "current_trial": 185, "dateTime": 1512579597927, "trialdata": {"rt": -1000, "stimulus": "/static/audio/wordpool/WAITRESS.wav", "key_press": -1, "type": "PRES_AUD", "word": "waitress", "wordID": 1580, "conditions": [24, 800, "a", 12000], "trial": 5, "serialpos": 0, "trial_type": "single-audio", "trial_index": 185, "time_elapsed": 977478, "internal_node_id": "0.0-131.0"}}, {"uniqueid": "MTK0651:32EYX73OY1G8WKHR1IW35Y9ZQY9RUH", "current_trial": 186, "dateTime": 1512579599820, "trialdata": {"rt": -1000, "stimulus": "/static/audio/wordpool/BARREL.wav", "key_press": -1, "type": "PRES_AUD", "word": "barrel", "wordID": 90, "conditions": [24, 800, "a", 12000], "trial": 5, "serialpos": 1, "trial_type": "single-audio", "trial_index": 186, "time_elapsed": 979371, "internal_node_id": "0.0-132.0"}}, {"uniqueid": "MTK0651:32EYX73OY1G8WKHR1IW35Y9ZQY9RUH", "current_trial": 187, "dateTime": 1512579601601, "trialdata": {"rt": -1000, "stimulus": "/static/audio/wordpool/GALLON.wav", "key_press": -1, "type": "PRES_AUD", "word": "gallon", "wordID": 617, "conditions": [24, 800, "a", 12000], "trial": 5, "serialpos": 2, "trial_type": "single-audio", "trial_index": 187, "time_elapsed": 981152, "internal_node_id": "0.0-133.0"}}, {"uniqueid": "MTK0651:32EYX73OY1G8WKHR1IW35Y9ZQY9RUH", "current_trial": 188, "dateTime": 1512579603481, "trialdata": {"rt": -1000, "stimulus": "/static/audio/wordpool/SNAIL.wav", "key_press": -1, "type": "PRES_AUD", "word": "snail", "wordID": 1331, "conditions": [24, 800, "a", 12000], "trial": 5, "serialpos": 3, "trial_type": "single-audio", "trial_index": 188, "time_elapsed": 983032, "internal_node_id": "0.0-134.0"}}, {"uniqueid": "MTK0651:32EYX73OY1G8WKHR1IW35Y9ZQY9RUH", "current_trial": 189, "dateTime": 1512579605176, "trialdata": {"rt": -1000, "stimulus": "/static/audio/wordpool/JURY.wav", "key_press": -1, "type": "PRES_AUD", "word": "jury", "wordID": 765, "conditions": [24, 800, "a", 12000], "trial": 5, "serialpos": 4, "trial_type": "single-audio", "trial_index": 189, "time_elapsed": 984727, "internal_node_id": "0.0-135.0"}}, {"uniqueid": "MTK0651:32EYX73OY1G8WKHR1IW35Y9ZQY9RUH", "current_trial": 190, "dateTime": 1512579607052, "trialdata": {"rt": -1000, "stimulus": "/static/audio/wordpool/HEADBAND.wav", "key_press": -1, "type": "PRES_AUD", "word": "headband", "wordID": 695, "conditions": [24, 800, "a", 12000], "trial": 5, "serialpos": 5, "trial_type": "single-audio", "trial_index": 190, "time_elapsed": 986603, "internal_node_id": "0.0-136.0"}}, {"uniqueid": "MTK0651:32EYX73OY1G8WKHR1IW35Y9ZQY9RUH", "current_trial": 191, "dateTime": 1512579608801, "trialdata": {"rt": -1000, "stimulus": "/static/audio/wordpool/RUST.wav", "key_press": -1, "type": "PRES_AUD", "word": "rust", "wordID": 1218, "conditions": [24, 800, "a", 12000], "trial": 5, "serialpos": 6, "trial_type": "single-audio", "trial_index": 191, "time_elapsed": 988352, "internal_node_id": "0.0-137.0"}}, {"uniqueid": "MTK0651:32EYX73OY1G8WKHR1IW35Y9ZQY9RUH", "current_trial": 192, "dateTime": 1512579610723, "trialdata": {"rt": -1000, "stimulus": "/static/audio/wordpool/DUST.wav", "key_press": -1, "type": "PRES_AUD", "word": "dust", "wordID": 507, "conditions": [24, 800, "a", 12000], "trial": 5, "serialpos": 7, "trial_type": "single-audio", "trial_index": 192, "time_elapsed": 990274, "internal_node_id": "0.0-138.0"}}, {"uniqueid": "MTK0651:32EYX73OY1G8WKHR1IW35Y9ZQY9RUH", "current_trial": 193, "dateTime": 1512579612328, "trialdata": {"rt": -1000, "stimulus": "/static/audio/wordpool/EYELASH.wav", "key_press": -1, "type": "PRES_AUD", "word": "eyelash", "wordID": 545, "conditions": [24, 800, "a", 12000], "trial": 5, "serialpos": 8, "trial_type": "single-audio", "trial_index": 193, "time_elapsed": 991879, "internal_node_id": "0.0-139.0"}}, {"uniqueid": "MTK0651:32EYX73OY1G8WKHR1IW35Y9ZQY9RUH", "current_trial": 194, "dateTime": 1512579614162, "trialdata": {"rt": -1000, "stimulus": "/static/audio/wordpool/CATCHER.wav", "key_press": -1, "type": "PRES_AUD", "word": "catcher", "wordID": 257, "conditions": [24, 800, "a", 12000], "trial": 5, "serialpos": 9, "trial_type": "single-audio", "trial_index": 194, "time_elapsed": 993713, "internal_node_id": "0.0-140.0"}}, {"uniqueid": "MTK0651:32EYX73OY1G8WKHR1IW35Y9ZQY9RUH", "current_trial": 195, "dateTime": 1512579616122, "trialdata": {"rt": -1000, "stimulus": "/static/audio/wordpool/LIZARD.wav", "key_press": -1, "type": "PRES_AUD", "word": "lizard", "wordID": 833, "conditions": [24, 800, "a", 12000], "trial": 5, "serialpos": 10, "trial_type": "single-audio", "trial_index": 195, "time_elapsed": 995673, "internal_node_id": "0.0-141.0"}}, {"uniqueid": "MTK0651:32EYX73OY1G8WKHR1IW35Y9ZQY9RUH", "current_trial": 196, "dateTime": 1512579617758, "trialdata": {"rt": -1000, "stimulus": "/static/audio/wordpool/HUSBAND.wav", "key_press": -1, "type": "PRES_AUD", "word": "husband", "wordID": 727, "conditions": [24, 800, "a", 12000], "trial": 5, "serialpos": 11, "trial_type": "single-audio", "trial_index": 196, "time_elapsed": 997309, "internal_node_id": "0.0-142.0"}}, {"uniqueid": "MTK0651:32EYX73OY1G8WKHR1IW35Y9ZQY9RUH", "current_trial": 197, "dateTime": 1512579619452, "trialdata": {"rt": -1000, "stimulus": "/static/audio/wordpool/GLOBE.wav", "key_press": -1, "type": "PRES_AUD", "word": "globe", "wordID": 640, "conditions": [24, 800, "a", 12000], "trial": 5, "serialpos": 12, "trial_type": "single-audio", "trial_index": 197, "time_elapsed": 999003, "internal_node_id": "0.0-143.0"}}, {"uniqueid": "MTK0651:32EYX73OY1G8WKHR1IW35Y9ZQY9RUH", "current_trial": 198, "dateTime": 1512579621113, "trialdata": {"rt": -1000, "stimulus": "/static/audio/wordpool/AGENT.wav", "key_press": -1, "type": "PRES_AUD", "word": "agent", "wordID": 9, "conditions": [24, 800, "a", 12000], "trial": 5, "serialpos": 13, "trial_type": "single-audio", "trial_index": 198, "time_elapsed": 1000664, "internal_node_id": "0.0-144.0"}}, {"uniqueid": "MTK0651:32EYX73OY1G8WKHR1IW35Y9ZQY9RUH", "current_trial": 199, "dateTime": 1512579623074, "trialdata": {"rt": -1000, "stimulus": "/static/audio/wordpool/BADGE.wav", "key_press": -1, "type": "PRES_AUD", "word": "badge", "wordID": 67, "conditions": [24, 800, "a", 12000], "trial": 5, "serialpos": 14, "trial_type": "single-audio", "trial_index": 199, "time_elapsed": 1002625, "internal_node_id": "0.0-145.0"}}, {"uniqueid": "MTK0651:32EYX73OY1G8WKHR1IW35Y9ZQY9RUH", "current_trial": 200, "dateTime": 1512579624677, "trialdata": {"rt": -1000, "stimulus": "/static/audio/wordpool/KITCHEN.wav", "key_press": -1, "type": "PRES_AUD", "word": "kitchen", "wordID": 777, "conditions": [24, 800, "a", 12000], "trial": 5, "serialpos": 15, "trial_type": "single-audio", "trial_index": 200, "time_elapsed": 1004228, "internal_node_id": "0.0-146.0"}}, {"uniqueid": "MTK0651:32EYX73OY1G8WKHR1IW35Y9ZQY9RUH", "current_trial": 201, "dateTime": 1512579626429, "trialdata": {"rt": -1000, "stimulus": "/static/audio/wordpool/LAKE.wav", "key_press": -1, "type": "PRES_AUD", "word": "lake", "wordID": 795, "conditions": [24, 800, "a", 12000], "trial": 5, "serialpos": 16, "trial_type": "single-audio", "trial_index": 201, "time_elapsed": 1005980, "internal_node_id": "0.0-147.0"}}, {"uniqueid": "MTK0651:32EYX73OY1G8WKHR1IW35Y9ZQY9RUH", "current_trial": 202, "dateTime": 1512579628263, "trialdata": {"rt": -1000, "stimulus": "/static/audio/wordpool/LAGOON.wav", "key_press": -1, "type": "PRES_AUD", "word": "lagoon", "wordID": 794, "conditions": [24, 800, "a", 12000], "trial": 5, "serialpos": 17, "trial_type": "single-audio", "trial_index": 202, "time_elapsed": 1007814, "internal_node_id": "0.0-148.0"}}, {"uniqueid": "MTK0651:32EYX73OY1G8WKHR1IW35Y9ZQY9RUH", "current_trial": 203, "dateTime": 1512579629873, "trialdata": {"rt": -1000, "stimulus": "/static/audio/wordpool/ATOM.wav", "key_press": -1, "type": "PRES_AUD", "word": "atom", "wordID": 54, "conditions": [24, 800, "a", 12000], "trial": 5, "serialpos": 18, "trial_type": "single-audio", "trial_index": 203, "time_elapsed": 1009424, "internal_node_id": "0.0-149.0"}}, {"uniqueid": "MTK0651:32EYX73OY1G8WKHR1IW35Y9ZQY9RUH", "current_trial": 204, "dateTime": 1512579631644, "trialdata": {"rt": -1000, "stimulus": "/static/audio/wordpool/STICKER.wav", "key_press": -1, "type": "PRES_AUD", "word": "sticker", "wordID": 1381, "conditions": [24, 800, "a", 12000], "trial": 5, "serialpos": 19, "trial_type": "single-audio", "trial_index": 204, "time_elapsed": 1011195, "internal_node_id": "0.0-150.0"}}, {"uniqueid": "MTK0651:32EYX73OY1G8WKHR1IW35Y9ZQY9RUH", "current_trial": 205, "dateTime": 1512579633335, "trialdata": {"rt": -1000, "stimulus": "/static/audio/wordpool/MUMMY.wav", "key_press": -1, "type": "PRES_AUD", "word": "mummy", "wordID": 931, "conditions": [24, 800, "a", 12000], "trial": 5, "serialpos": 20, "trial_type": "single-audio", "trial_index": 205, "time_elapsed": 1012885, "internal_node_id": "0.0-151.0"}}, {"uniqueid": "MTK0651:32EYX73OY1G8WKHR1IW35Y9ZQY9RUH", "current_trial": 206, "dateTime": 1512579635063, "trialdata": {"rt": -1000, "stimulus": "/static/audio/wordpool/HERO.wav", "key_press": -1, "type": "PRES_AUD", "word": "hero", "wordID": 705, "conditions": [24, 800, "a", 12000], "trial": 5, "serialpos": 21, "trial_type": "single-audio", "trial_index": 206, "time_elapsed": 1014614, "internal_node_id": "0.0-152.0"}}, {"uniqueid": "MTK0651:32EYX73OY1G8WKHR1IW35Y9ZQY9RUH", "current_trial": 207, "dateTime": 1512579636729, "trialdata": {"rt": -1000, "stimulus": "/static/audio/wordpool/RELISH.wav", "key_press": -1, "type": "PRES_AUD", "word": "relish", "wordID": 1182, "conditions": [24, 800, "a", 12000], "trial": 5, "serialpos": 22, "trial_type": "single-audio", "trial_index": 207, "time_elapsed": 1016280, "internal_node_id": "0.0-153.0"}}, {"uniqueid": "MTK0651:32EYX73OY1G8WKHR1IW35Y9ZQY9RUH", "current_trial": 208, "dateTime": 1512579638594, "trialdata": {"rt": -1000, "stimulus": "/static/audio/wordpool/PENGUIN.wav", "key_press": -1, "type": "PRES_AUD", "word": "penguin", "wordID": 1043, "conditions": [24, 800, "a", 12000], "trial": 5, "serialpos": 23, "trial_type": "single-audio", "trial_index": 208, "time_elapsed": 1018145, "internal_node_id": "0.0-154.0"}}, {"uniqueid": "MTK0651:32EYX73OY1G8WKHR1IW35Y9ZQY9RUH", "current_trial": 209, "dateTime": 1512579639831, "trialdata": {"rt": -1, "stimulus": "", "key_press": -1, "type": "PRE_RECALL_DELAY", "trial_type": "single-stim", "trial_index": 209, "time_elapsed": 1019382, "internal_node_id": "0.0-155.0-0.0"}}, {"uniqueid": "MTK0651:32EYX73OY1G8WKHR1IW35Y9ZQY9RUH", "current_trial": 210, "dateTime": 1512579640340, "trialdata": {"rt": -1000, "stimulus": "/static/audio/400Hz.wav", "key_press": -1, "type": "PRE_RECALL_ALERT", "trial_type": "single-audio", "trial_index": 210, "time_elapsed": 1019891, "internal_node_id": "0.0-156.0"}}, {"uniqueid": "MTK0651:32EYX73OY1G8WKHR1IW35Y9ZQY9RUH", "current_trial": 211, "dateTime": 1512579700350, "trialdata": {"rt": [1961, 3553, 4682, 5466, 6506, 7794, 10946, 14825, 16458, 17603, 19633, 20601], "recwords": ["atom", "sticker", "mummy", "hero", "relish", "penguin", "eyelash", "waitress", "gallon", "barrel", "rust", "dust"], "type": "FREE_RECALL", "conditions": [24, 800, "a", 12000], "trial": 5, "trial_type": "free-recall", "trial_index": 211, "time_elapsed": 1079895, "internal_node_id": "0.0-157.0-0.0"}}, {"uniqueid": "MTK0651:32EYX73OY1G8WKHR1IW35Y9ZQY9RUH", "current_trial": 212, "dateTime": 1512579704704, "trialdata": {"rt": 2351, "key_press": 32, "type": "INSTRUCTIONS", "trial_type": "text", "trial_index": 212, "time_elapsed": 1084255, "internal_node_id": "0.0-158.0"}}, {"uniqueid": "MTK0651:32EYX73OY1G8WKHR1IW35Y9ZQY9RUH", "current_trial": 213, "dateTime": 1512579718710, "trialdata": {"rt": [3221, 6267, 8036, 9853], "responses": ["10", "17", "12", "15"], "num1": [2, 3, 2, 2, 4], "num2": [6, 8, 1, 4, 3], "num3": [2, 6, 9, 9, 6], "type": "DISTRACTOR", "conditions": [12, 1600, "a", 12000], "trial": 6, "trial_type": "math-distractor", "trial_index": 213, "time_elapsed": 1098261, "internal_node_id": "0.0-159.0"}}, {"uniqueid": "MTK0651:32EYX73OY1G8WKHR1IW35Y9ZQY9RUH", "current_trial": 214, "dateTime": 1512579721713, "trialdata": {"rt": -1, "stimulus": "<p id=\"stim\">10</p>", "key_press": -1, "trial_type": "single-stim", "trial_index": 214, "time_elapsed": 1101263, "internal_node_id": "0.0-160.0-0.0"}}, {"uniqueid": "MTK0651:32EYX73OY1G8WKHR1IW35Y9ZQY9RUH", "current_trial": 215, "dateTime": 1512579722713, "trialdata": {"rt": -1, "stimulus": "<p id=\"stim\">9</p>", "key_press": -1, "trial_type": "single-stim", "trial_index": 215, "time_elapsed": 1102264, "internal_node_id": "0.0-160.0-1.0"}}, {"uniqueid": "MTK0651:32EYX73OY1G8WKHR1IW35Y9ZQY9RUH", "current_trial": 216, "dateTime": 1512579723717, "trialdata": {"rt": -1, "stimulus": "<p id=\"stim\">8</p>", "key_press": -1, "trial_type": "single-stim", "trial_index": 216, "time_elapsed": 1103267, "internal_node_id": "0.0-160.0-2.0"}}, {"uniqueid": "MTK0651:32EYX73OY1G8WKHR1IW35Y9ZQY9RUH", "current_trial": 217, "dateTime": 1512579724719, "trialdata": {"rt": -1, "stimulus": "<p id=\"stim\">7</p>", "key_press": -1, "trial_type": "single-stim", "trial_index": 217, "time_elapsed": 1104270, "internal_node_id": "0.0-160.0-3.0"}}, {"uniqueid": "MTK0651:32EYX73OY1G8WKHR1IW35Y9ZQY9RUH", "current_trial": 218, "dateTime": 1512579725720, "trialdata": {"rt": -1, "stimulus": "<p id=\"stim\">6</p>", "key_press": -1, "trial_type": "single-stim", "trial_index": 218, "time_elapsed": 1105271, "internal_node_id": "0.0-160.0-4.0"}}, {"uniqueid": "MTK0651:32EYX73OY1G8WKHR1IW35Y9ZQY9RUH", "current_trial": 219, "dateTime": 1512579726725, "trialdata": {"rt": -1, "stimulus": "<p id=\"stim\">5</p>", "key_press": -1, "trial_type": "single-stim", "trial_index": 219, "time_elapsed": 1106273, "internal_node_id": "0.0-160.0-5.0"}}, {"uniqueid": "MTK0651:32EYX73OY1G8WKHR1IW35Y9ZQY9RUH", "current_trial": 220, "dateTime": 1512579727726, "trialdata": {"rt": -1, "stimulus": "<p id=\"stim\">4</p>", "key_press": -1, "trial_type": "single-stim", "trial_index": 220, "time_elapsed": 1107277, "internal_node_id": "0.0-160.0-6.0"}}, {"uniqueid": "MTK0651:32EYX73OY1G8WKHR1IW35Y9ZQY9RUH", "current_trial": 221, "dateTime": 1512579728729, "trialdata": {"rt": -1, "stimulus": "<p id=\"stim\">3</p>", "key_press": -1, "trial_type": "single-stim", "trial_index": 221, "time_elapsed": 1108279, "internal_node_id": "0.0-160.0-7.0"}}, {"uniqueid": "MTK0651:32EYX73OY1G8WKHR1IW35Y9ZQY9RUH", "current_trial": 222, "dateTime": 1512579729731, "trialdata": {"rt": -1, "stimulus": "<p id=\"stim\">2</p>", "key_press": -1, "trial_type": "single-stim", "trial_index": 222, "time_elapsed": 1109282, "internal_node_id": "0.0-160.0-8.0"}}, {"uniqueid": "MTK0651:32EYX73OY1G8WKHR1IW35Y9ZQY9RUH", "current_trial": 223, "dateTime": 1512579730733, "trialdata": {"rt": -1, "stimulus": "<p id=\"stim\">1</p>", "key_press": -1, "trial_type": "single-stim", "trial_index": 223, "time_elapsed": 1110284, "internal_node_id": "0.0-160.0-9.0"}}, {"uniqueid": "MTK0651:32EYX73OY1G8WKHR1IW35Y9ZQY9RUH", "current_trial": 224, "dateTime": 1512579732235, "trialdata": {"rt": -1, "stimulus": "<p id=\"stim\">+</p>", "key_press": -1, "type": "FIXATION", "trial_type": "single-stim", "trial_index": 224, "time_elapsed": 1111786, "internal_node_id": "0.0-161.0-0.0"}}, {"uniqueid": "MTK0651:32EYX73OY1G8WKHR1IW35Y9ZQY9RUH", "current_trial": 225, "dateTime": 1512579734775, "trialdata": {"rt": -1000, "stimulus": "/static/audio/wordpool/BUNNY.wav", "key_press": -1, "type": "PRES_AUD", "word": "bunny", "wordID": 197, "conditions": [12, 1600, "a", 12000], "trial": 6, "serialpos": 0, "trial_type": "single-audio", "trial_index": 225, "time_elapsed": 1114326, "internal_node_id": "0.0-162.0"}}, {"uniqueid": "MTK0651:32EYX73OY1G8WKHR1IW35Y9ZQY9RUH", "current_trial": 226, "dateTime": 1512579737292, "trialdata": {"rt": -1000, "stimulus": "/static/audio/wordpool/BASEMENT.wav", "key_press": -1, "type": "PRES_AUD", "word": "basement", "wordID": 93, "conditions": [12, 1600, "a", 12000], "trial": 6, "serialpos": 1, "trial_type": "single-audio", "trial_index": 226, "time_elapsed": 1116843, "internal_node_id": "0.0-163.0"}}, {"uniqueid": "MTK0651:32EYX73OY1G8WKHR1IW35Y9ZQY9RUH", "current_trial": 227, "dateTime": 1512579739871, "trialdata": {"rt": -1000, "stimulus": "/static/audio/wordpool/CELLAR.wav", "key_press": -1, "type": "PRES_AUD", "word": "cellar", "wordID": 266, "conditions": [12, 1600, "a", 12000], "trial": 6, "serialpos": 2, "trial_type": "single-audio", "trial_index": 227, "time_elapsed": 1119422, "internal_node_id": "0.0-164.0"}}, {"uniqueid": "MTK0651:32EYX73OY1G8WKHR1IW35Y9ZQY9RUH", "current_trial": 228, "dateTime": 1512579742329, "trialdata": {"rt": -1000, "stimulus": "/static/audio/wordpool/SPACE.wav", "key_press": -1, "type": "PRES_AUD", "word": "space", "wordID": 1344, "conditions": [12, 1600, "a", 12000], "trial": 6, "serialpos": 3, "trial_type": "single-audio", "trial_index": 228, "time_elapsed": 1121880, "internal_node_id": "0.0-165.0"}}, {"uniqueid": "MTK0651:32EYX73OY1G8WKHR1IW35Y9ZQY9RUH", "current_trial": 229, "dateTime": 1512579745032, "trialdata": {"rt": -1000, "stimulus": "/static/audio/wordpool/PROTON.wav", "key_press": -1, "type": "PRES_AUD", "word": "proton", "wordID": 1131, "conditions": [12, 1600, "a", 12000], "trial": 6, "serialpos": 4, "trial_type": "single-audio", "trial_index": 229, "time_elapsed": 1124583, "internal_node_id": "0.0-166.0"}}, {"uniqueid": "MTK0651:32EYX73OY1G8WKHR1IW35Y9ZQY9RUH", "current_trial": 230, "dateTime": 1512579747825, "trialdata": {"rt": -1000, "stimulus": "/static/audio/wordpool/LETTUCE.wav", "key_press": -1, "type": "PRES_AUD", "word": "lettuce", "wordID": 813, "conditions": [12, 1600, "a", 12000], "trial": 6, "serialpos": 5, "trial_type": "single-audio", "trial_index": 230, "time_elapsed": 1127376, "internal_node_id": "0.0-167.0"}}, {"uniqueid": "MTK0651:32EYX73OY1G8WKHR1IW35Y9ZQY9RUH", "current_trial": 231, "dateTime": 1512579750241, "trialdata": {"rt": -1000, "stimulus": "/static/audio/wordpool/CHIPMUNK.wav", "key_press": -1, "type": "PRES_AUD", "word": "chipmunk", "wordID": 303, "conditions": [12, 1600, "a", 12000], "trial": 6, "serialpos": 6, "trial_type": "single-audio", "trial_index": 231, "time_elapsed": 1129792, "internal_node_id": "0.0-168.0"}}, {"uniqueid": "MTK0651:32EYX73OY1G8WKHR1IW35Y9ZQY9RUH", "current_trial": 232, "dateTime": 1512579753020, "trialdata": {"rt": -1000, "stimulus": "/static/audio/wordpool/INMATE.wav", "key_press": -1, "type": "PRES_AUD", "word": "inmate", "wordID": 737, "conditions": [12, 1600, "a", 12000], "trial": 6, "serialpos": 7, "trial_type": "single-audio", "trial_index": 232, "time_elapsed": 1132571, "internal_node_id": "0.0-169.0"}}, {"uniqueid": "MTK0651:32EYX73OY1G8WKHR1IW35Y9ZQY9RUH", "current_trial": 233, "dateTime": 1512579755461, "trialdata": {"rt": -1000, "stimulus": "/static/audio/wordpool/POSTAGE.wav", "key_press": -1, "type": "PRES_AUD", "word": "postage", "wordID": 1112, "conditions": [12, 1600, "a", 12000], "trial": 6, "serialpos": 8, "trial_type": "single-audio", "trial_index": 233, "time_elapsed": 1135012, "internal_node_id": "0.0-170.0"}}, {"uniqueid": "MTK0651:32EYX73OY1G8WKHR1IW35Y9ZQY9RUH", "current_trial": 234, "dateTime": 1512579758198, "trialdata": {"rt": -1000, "stimulus": "/static/audio/wordpool/SISTER.wav", "key_press": -1, "type": "PRES_AUD", "word": "sister", "wordID": 1311, "conditions": [12, 1600, "a", 12000], "trial": 6, "serialpos": 9, "trial_type": "single-audio", "trial_index": 234, "time_elapsed": 1137748, "internal_node_id": "0.0-171.0"}}, {"uniqueid": "MTK0651:32EYX73OY1G8WKHR1IW35Y9ZQY9RUH", "current_trial": 235, "dateTime": 1512579760653, "trialdata": {"rt": -1000, "stimulus": "/static/audio/wordpool/CASHIER.wav", "key_press": -1, "type": "PRES_AUD", "word": "cashier", "wordID": 253, "conditions": [12, 1600, "a", 12000], "trial": 6, "serialpos": 10, "trial_type": "single-audio", "trial_index": 235, "time_elapsed": 1140204, "internal_node_id": "0.0-172.0"}}, {"uniqueid": "MTK0651:32EYX73OY1G8WKHR1IW35Y9ZQY9RUH", "current_trial": 236, "dateTime": 1512579763074, "trialdata": {"rt": -1000, "stimulus": "/static/audio/wordpool/CHILD.wav", "key_press": -1, "type": "PRES_AUD", "word": "child", "wordID": 298, "conditions": [12, 1600, "a", 12000], "trial": 6, "serialpos": 11, "trial_type": "single-audio", "trial_index": 236, "time_elapsed": 1142625, "internal_node_id": "0.0-173.0"}}, {"uniqueid": "MTK0651:32EYX73OY1G8WKHR1IW35Y9ZQY9RUH", "current_trial": 237, "dateTime": 1512579764310, "trialdata": {"rt": -1, "stimulus": "", "key_press": -1, "type": "PRE_RECALL_DELAY", "trial_type": "single-stim", "trial_index": 237, "time_elapsed": 1143861, "internal_node_id": "0.0-174.0-0.0"}}, {"uniqueid": "MTK0651:32EYX73OY1G8WKHR1IW35Y9ZQY9RUH", "current_trial": 238, "dateTime": 1512579764812, "trialdata": {"rt": -1000, "stimulus": "/static/audio/400Hz.wav", "key_press": -1, "type": "PRE_RECALL_ALERT", "trial_type": "single-audio", "trial_index": 238, "time_elapsed": 1144363, "internal_node_id": "0.0-175.0"}}, {"uniqueid": "MTK0651:32EYX73OY1G8WKHR1IW35Y9ZQY9RUH", "current_trial": 239, "dateTime": 1512579824821, "trialdata": {"rt": [1884, 2876, 4604, 5740, 6404, 7284, 9652, 12540, 13899, 17148], "recwords": ["sister", "child", "basement", "cellar", "space", "proton", "bunny", "lettuce", "chipmunk", "cashier"], "type": "FREE_RECALL", "conditions": [12, 1600, "a", 12000], "trial": 6, "trial_type": "free-recall", "trial_index": 239, "time_elapsed": 1204365, "internal_node_id": "0.0-176.0-0.0"}}, {"uniqueid": "MTK0651:32EYX73OY1G8WKHR1IW35Y9ZQY9RUH", "current_trial": 240, "dateTime": 1512579836451, "trialdata": {"rt": 9628, "key_press": 32, "type": "INSTRUCTIONS", "trial_type": "text", "trial_index": 240, "time_elapsed": 1216002, "internal_node_id": "0.0-177.0"}}, {"uniqueid": "MTK0651:32EYX73OY1G8WKHR1IW35Y9ZQY9RUH", "current_trial": 241, "dateTime": 1512579862455, "trialdata": {"rt": [2435, 4378, 6331, 8051, 9923, 12690, 14411, 15810, 17451, 19147, 20955, 22411], "responses": ["19", "12", "8", "18", "12", "15", "12", "12", "9", "13", "20", "9"], "num1": [5, 8, 2, 7, 3, 6, 1, 2, 1, 8, 6, 1, 3], "num2": [6, 3, 2, 2, 8, 6, 7, 5, 3, 3, 7, 3, 9], "num3": [8, 1, 4, 9, 1, 3, 4, 5, 5, 2, 7, 5, 2], "type": "DISTRACTOR", "conditions": [12, 1600, "a", 24000], "trial": 7, "trial_type": "math-distractor", "trial_index": 241, "time_elapsed": 1242006, "internal_node_id": "0.0-178.0"}}, {"uniqueid": "MTK0651:32EYX73OY1G8WKHR1IW35Y9ZQY9RUH", "current_trial": 242, "dateTime": 1512579865459, "trialdata": {"rt": -1, "stimulus": "<p id=\"stim\">10</p>", "key_press": -1, "trial_type": "single-stim", "trial_index": 242, "time_elapsed": 1245009, "internal_node_id": "0.0-179.0-0.0"}}, {"uniqueid": "MTK0651:32EYX73OY1G8WKHR1IW35Y9ZQY9RUH", "current_trial": 243, "dateTime": 1512579866461, "trialdata": {"rt": -1, "stimulus": "<p id=\"stim\">9</p>", "key_press": -1, "trial_type": "single-stim", "trial_index": 243, "time_elapsed": 1246012, "internal_node_id": "0.0-179.0-1.0"}}, {"uniqueid": "MTK0651:32EYX73OY1G8WKHR1IW35Y9ZQY9RUH", "current_trial": 244, "dateTime": 1512579867463, "trialdata": {"rt": -1, "stimulus": "<p id=\"stim\">8</p>", "key_press": -1, "trial_type": "single-stim", "trial_index": 244, "time_elapsed": 1247014, "internal_node_id": "0.0-179.0-2.0"}}, {"uniqueid": "MTK0651:32EYX73OY1G8WKHR1IW35Y9ZQY9RUH", "current_trial": 245, "dateTime": 1512579868466, "trialdata": {"rt": -1, "stimulus": "<p id=\"stim\">7</p>", "key_press": -1, "trial_type": "single-stim", "trial_index": 245, "time_elapsed": 1248017, "internal_node_id": "0.0-179.0-3.0"}}, {"uniqueid": "MTK0651:32EYX73OY1G8WKHR1IW35Y9ZQY9RUH", "current_trial": 246, "dateTime": 1512579869469, "trialdata": {"rt": -1, "stimulus": "<p id=\"stim\">6</p>", "key_press": -1, "trial_type": "single-stim", "trial_index": 246, "time_elapsed": 1249019, "internal_node_id": "0.0-179.0-4.0"}}, {"uniqueid": "MTK0651:32EYX73OY1G8WKHR1IW35Y9ZQY9RUH", "current_trial": 247, "dateTime": 1512579870471, "trialdata": {"rt": -1, "stimulus": "<p id=\"stim\">5</p>", "key_press": -1, "trial_type": "single-stim", "trial_index": 247, "time_elapsed": 1250021, "internal_node_id": "0.0-179.0-5.0"}}, {"uniqueid": "MTK0651:32EYX73OY1G8WKHR1IW35Y9ZQY9RUH", "current_trial": 248, "dateTime": 1512579871472, "trialdata": {"rt": -1, "stimulus": "<p id=\"stim\">4</p>", "key_press": -1, "trial_type": "single-stim", "trial_index": 248, "time_elapsed": 1251023, "internal_node_id": "0.0-179.0-6.0"}}, {"uniqueid": "MTK0651:32EYX73OY1G8WKHR1IW35Y9ZQY9RUH", "current_trial": 249, "dateTime": 1512579872474, "trialdata": {"rt": -1, "stimulus": "<p id=\"stim\">3</p>", "key_press": -1, "trial_type": "single-stim", "trial_index": 249, "time_elapsed": 1252025, "internal_node_id": "0.0-179.0-7.0"}}, {"uniqueid": "MTK0651:32EYX73OY1G8WKHR1IW35Y9ZQY9RUH", "current_trial": 250, "dateTime": 1512579873476, "trialdata": {"rt": -1, "stimulus": "<p id=\"stim\">2</p>", "key_press": -1, "trial_type": "single-stim", "trial_index": 250, "time_elapsed": 1253027, "internal_node_id": "0.0-179.0-8.0"}}, {"uniqueid": "MTK0651:32EYX73OY1G8WKHR1IW35Y9ZQY9RUH", "current_trial": 251, "dateTime": 1512579874479, "trialdata": {"rt": -1, "stimulus": "<p id=\"stim\">1</p>", "key_press": -1, "trial_type": "single-stim", "trial_index": 251, "time_elapsed": 1254029, "internal_node_id": "0.0-179.0-9.0"}}, {"uniqueid": "MTK0651:32EYX73OY1G8WKHR1IW35Y9ZQY9RUH", "current_trial": 252, "dateTime": 1512579875981, "trialdata": {"rt": -1, "stimulus": "<p id=\"stim\">+</p>", "key_press": -1, "type": "FIXATION", "trial_type": "single-stim", "trial_index": 252, "time_elapsed": 1255531, "internal_node_id": "0.0-180.0-0.0"}}, {"uniqueid": "MTK0651:32EYX73OY1G8WKHR1IW35Y9ZQY9RUH", "current_trial": 253, "dateTime": 1512579878648, "trialdata": {"rt": -1000, "stimulus": "/static/audio/wordpool/CONVICT.wav", "key_press": -1, "type": "PRES_AUD", "word": "convict", "wordID": 370, "conditions": [12, 1600, "a", 24000], "trial": 7, "serialpos": 0, "trial_type": "single-audio", "trial_index": 253, "time_elapsed": 1258199, "internal_node_id": "0.0-181.0"}}, {"uniqueid": "MTK0651:32EYX73OY1G8WKHR1IW35Y9ZQY9RUH", "current_trial": 254, "dateTime": 1512579881193, "trialdata": {"rt": -1000, "stimulus": "/static/audio/wordpool/SPOON.wav", "key_press": -1, "type": "PRES_AUD", "word": "spoon", "wordID": 1356, "conditions": [12, 1600, "a", 24000], "trial": 7, "serialpos": 1, "trial_type": "single-audio", "trial_index": 254, "time_elapsed": 1260744, "internal_node_id": "0.0-182.0"}}, {"uniqueid": "MTK0651:32EYX73OY1G8WKHR1IW35Y9ZQY9RUH", "current_trial": 255, "dateTime": 1512579883848, "trialdata": {"rt": -1000, "stimulus": "/static/audio/wordpool/LIVER.wav", "key_press": -1, "type": "PRES_AUD", "word": "liver", "wordID": 832, "conditions": [12, 1600, "a", 24000], "trial": 7, "serialpos": 2, "trial_type": "single-audio", "trial_index": 255, "time_elapsed": 1263399, "internal_node_id": "0.0-183.0"}}, {"uniqueid": "MTK0651:32EYX73OY1G8WKHR1IW35Y9ZQY9RUH", "current_trial": 256, "dateTime": 1512579886375, "trialdata": {"rt": -1000, "stimulus": "/static/audio/wordpool/SCALPEL.wav", "key_press": -1, "type": "PRES_AUD", "word": "scalpel", "wordID": 1242, "conditions": [12, 1600, "a", 24000], "trial": 7, "serialpos": 3, "trial_type": "single-audio", "trial_index": 256, "time_elapsed": 1265926, "internal_node_id": "0.0-184.0"}}, {"uniqueid": "MTK0651:32EYX73OY1G8WKHR1IW35Y9ZQY9RUH", "current_trial": 257, "dateTime": 1512579889065, "trialdata": {"rt": -1000, "stimulus": "/static/audio/wordpool/PRINCESS.wav", "key_press": -1, "type": "PRES_AUD", "word": "princess", "wordID": 1124, "conditions": [12, 1600, "a", 24000], "trial": 7, "serialpos": 4, "trial_type": "single-audio", "trial_index": 257, "time_elapsed": 1268616, "internal_node_id": "0.0-185.0"}}, {"uniqueid": "MTK0651:32EYX73OY1G8WKHR1IW35Y9ZQY9RUH", "current_trial": 258, "dateTime": 1512579891794, "trialdata": {"rt": -1000, "stimulus": "/static/audio/wordpool/QUEEN.wav", "key_press": -1, "type": "PRES_AUD", "word": "queen", "wordID": 1148, "conditions": [12, 1600, "a", 24000], "trial": 7, "serialpos": 5, "trial_type": "single-audio", "trial_index": 258, "time_elapsed": 1271345, "internal_node_id": "0.0-186.0"}}, {"uniqueid": "MTK0651:32EYX73OY1G8WKHR1IW35Y9ZQY9RUH", "current_trial": 259, "dateTime": 1512579894313, "trialdata": {"rt": -1000, "stimulus": "/static/audio/wordpool/GARLIC.wav", "key_press": -1, "type": "PRES_AUD", "word": "garlic", "wordID": 623, "conditions": [12, 1600, "a", 24000], "trial": 7, "serialpos": 6, "trial_type": "single-audio", "trial_index": 259, "time_elapsed": 1273864, "internal_node_id": "0.0-187.0"}}, {"uniqueid": "MTK0651:32EYX73OY1G8WKHR1IW35Y9ZQY9RUH", "current_trial": 260, "dateTime": 1512579897056, "trialdata": {"rt": -1000, "stimulus": "/static/audio/wordpool/LOVER.wav", "key_press": -1, "type": "PRES_AUD", "word": "lover", "wordID": 845, "conditions": [12, 1600, "a", 24000], "trial": 7, "serialpos": 7, "trial_type": "single-audio", "trial_index": 260, "time_elapsed": 1276607, "internal_node_id": "0.0-188.0"}}, {"uniqueid": "MTK0651:32EYX73OY1G8WKHR1IW35Y9ZQY9RUH", "current_trial": 261, "dateTime": 1512579899571, "trialdata": {"rt": -1000, "stimulus": "/static/audio/wordpool/POPCORN.wav", "key_press": -1, "type": "PRES_AUD", "word": "popcorn", "wordID": 1103, "conditions": [12, 1600, "a", 24000], "trial": 7, "serialpos": 8, "trial_type": "single-audio", "trial_index": 261, "time_elapsed": 1279122, "internal_node_id": "0.0-189.0"}}, {"uniqueid": "MTK0651:32EYX73OY1G8WKHR1IW35Y9ZQY9RUH", "current_trial": 262, "dateTime": 1512579902040, "trialdata": {"rt": -1000, "stimulus": "/static/audio/wordpool/FILM.wav", "key_press": -1, "type": "PRES_AUD", "word": "film", "wordID": 564, "conditions": [12, 1600, "a", 24000], "trial": 7, "serialpos": 9, "trial_type": "single-audio", "trial_index": 262, "time_elapsed": 1281591, "internal_node_id": "0.0-190.0"}}, {"uniqueid": "MTK0651:32EYX73OY1G8WKHR1IW35Y9ZQY9RUH", "current_trial": 263, "dateTime": 1512579904610, "trialdata": {"rt": -1000, "stimulus": "/static/audio/wordpool/MARROW.wav", "key_press": -1, "type": "PRES_AUD", "word": "marrow", "wordID": 871, "conditions": [12, 1600, "a", 24000], "trial": 7, "serialpos": 10, "trial_type": "single-audio", "trial_index": 263, "time_elapsed": 1284161, "internal_node_id": "0.0-191.0"}}, {"uniqueid": "MTK0651:32EYX73OY1G8WKHR1IW35Y9ZQY9RUH", "current_trial": 264, "dateTime": 1512579907400, "trialdata": {"rt": -1000, "stimulus": "/static/audio/wordpool/CRAB.wav", "key_press": -1, "type": "PRES_AUD", "word": "crab", "wordID": 396, "conditions": [12, 1600, "a", 24000], "trial": 7, "serialpos": 11, "trial_type": "single-audio", "trial_index": 264, "time_elapsed": 1286951, "internal_node_id": "0.0-192.0"}}, {"uniqueid": "MTK0651:32EYX73OY1G8WKHR1IW35Y9ZQY9RUH", "current_trial": 265, "dateTime": 1512579908669, "trialdata": {"rt": -1, "stimulus": "", "key_press": -1, "type": "PRE_RECALL_DELAY", "trial_type": "single-stim", "trial_index": 265, "time_elapsed": 1288220, "internal_node_id": "0.0-193.0-0.0"}}, {"uniqueid": "MTK0651:32EYX73OY1G8WKHR1IW35Y9ZQY9RUH", "current_trial": 266, "dateTime": 1512579909173, "trialdata": {"rt": -1000, "stimulus": "/static/audio/400Hz.wav", "key_press": -1, "type": "PRE_RECALL_ALERT", "trial_type": "single-audio", "trial_index": 266, "time_elapsed": 1288723, "internal_node_id": "0.0-194.0"}}, {"uniqueid": "MTK0651:32EYX73OY1G8WKHR1IW35Y9ZQY9RUH", "current_trial": 267, "dateTime": 1512579969187, "trialdata": {"rt": [2304, 3273, 4505, 5393, 7872, 9777, 10817, 11577, 12409, 20113], "recwords": ["crab", "marrow", "princess", "queen", "convict", "scapel", "spoon", "liver", "lover", "garlic"], "type": "FREE_RECALL", "conditions": [12, 1600, "a", 24000], "trial": 7, "trial_type": "free-recall", "trial_index": 267, "time_elapsed": 1348729, "internal_node_id": "0.0-195.0-0.0"}}, {"uniqueid": "MTK0651:32EYX73OY1G8WKHR1IW35Y9ZQY9RUH", "current_trial": 268, "dateTime": 1512579975387, "trialdata": {"rt": 4198, "key_press": 32, "type": "INSTRUCTIONS", "trial_type": "text", "trial_index": 268, "time_elapsed": 1354937, "internal_node_id": "0.0-196.0"}}, {"uniqueid": "MTK0651:32EYX73OY1G8WKHR1IW35Y9ZQY9RUH", "current_trial": 269, "dateTime": 1512579989392, "trialdata": {"rt": [2267, 4235, 5731, 8195], "responses": ["11", "19", "15", "18"], "num1": [4, 3, 7, 9, 5], "num2": [2, 8, 7, 2, 6], "num3": [5, 8, 1, 7, 6], "type": "DISTRACTOR", "conditions": [24, 800, "v", 12000], "trial": 8, "trial_type": "math-distractor", "trial_index": 269, "time_elapsed": 1368943, "internal_node_id": "0.0-197.0"}}, {"uniqueid": "MTK0651:32EYX73OY1G8WKHR1IW35Y9ZQY9RUH", "current_trial": 270, "dateTime": 1512579992395, "trialdata": {"rt": -1, "stimulus": "<p id=\"stim\">10</p>", "key_press": -1, "trial_type": "single-stim", "trial_index": 270, "ti