{"condition": 0, "counterbalance": 817, "assignmentId": "3I3WADAZ9RBOESZW8P7R3RCEFYC5OR", "workerId": "MTK0381", "hitId": "3OID399FXGENP832YQ1IPPV8MRSFDX", "currenttrial": 630, "bonus": 0, "data": [{"uniqueid": "MTK0381:3I3WADAZ9RBOESZW8P7R3RCEFYC5OR", "current_trial": 0, "dateTime": 1510777225863, "trialdata": {"rt": 2305, "key_press": 32, "type": "INSTRUCTIONS", "trial_type": "text", "trial_index": 0, "time_elapsed": 2308, "internal_node_id": "0.0-0.0"}}, {"uniqueid": "MTK0381:3I3WADAZ9RBOESZW8P7R3RCEFYC5OR", "current_trial": 1, "dateTime": 1510777255593, "trialdata": {"rt": 29728, "key_press": 32, "type": "INSTRUCTIONS", "trial_type": "text", "trial_index": 1, "time_elapsed": 32039, "internal_node_id": "0.0-1.0"}}, {"uniqueid": "MTK0381:3I3WADAZ9RBOESZW8P7R3RCEFYC5OR", "current_trial": 2, "dateTime": 1510777282953, "trialdata": {"rt": [27350], "responses": ["ocean"], "type": "AUDIO_TEST", "trial_type": "audio-test", "trial_index": 2, "time_elapsed": 59399, "internal_node_id": "0.0-2.0"}}, {"uniqueid": "MTK0381:3I3WADAZ9RBOESZW8P7R3RCEFYC5OR", "current_trial": 3, "dateTime": 1510777291024, "trialdata": {"rt": [8065], "responses": ["crystal"], "type": "AUDIO_TEST", "trial_type": "audio-test", "trial_index": 3, "time_elapsed": 67470, "internal_node_id": "0.0-3.0"}}, {"uniqueid": "MTK0381:3I3WADAZ9RBOESZW8P7R3RCEFYC5OR", "current_trial": 4, "dateTime": 1510777298640, "trialdata": {"rt": [7611], "responses": ["spice"], "type": "AUDIO_TEST", "trial_type": "audio-test", "trial_index": 4, "time_elapsed": 75086, "internal_node_id": "0.0-4.0"}}, {"uniqueid": "MTK0381:3I3WADAZ9RBOESZW8P7R3RCEFYC5OR", "current_trial": 5, "dateTime": 1510777333496, "trialdata": {"rt": 34102, "responses": "{\"Q0\":\"9:15\",\"Q1\":\"4:21\",\"Q2\":\"4\"}", "type": "SLEEP_SURVEY", "trial_type": "survey-text", "trial_index": 5, "time_elapsed": 109942, "internal_node_id": "0.0-5.0"}}, {"uniqueid": "MTK0381:3I3WADAZ9RBOESZW8P7R3RCEFYC5OR", "current_trial": 6, "dateTime": 1510777450106, "trialdata": {"rt": 115608, "key_press": 74, "type": "INSTRUCTIONS", "trial_type": "text", "trial_index": 6, "time_elapsed": 226552, "internal_node_id": "0.0-6.0"}}, {"uniqueid": "MTK0381:3I3WADAZ9RBOESZW8P7R3RCEFYC5OR", "current_trial": 7, "dateTime": 1510777518376, "trialdata": {"rt": 67768, "key_press": 74, "type": "INSTRUCTIONS", "trial_type": "text", "trial_index": 7, "time_elapsed": 294822, "internal_node_id": "0.0-7.0"}}, {"uniqueid": "MTK0381:3I3WADAZ9RBOESZW8P7R3RCEFYC5OR", "current_trial": 8, "dateTime": 1510777544066, "trialdata": {"rt": 25188, "key_press": 74, "type": "INSTRUCTIONS", "trial_type": "text", "trial_index": 8, "time_elapsed": 320512, "internal_node_id": "0.0-8.0"}}, {"uniqueid": "MTK0381:3I3WADAZ9RBOESZW8P7R3RCEFYC5OR", "current_trial": 9, "dateTime": 1510777563136, "trialdata": {"rt": [5778, 13464], "responses": ["16", "15"], "num1": [9, 9, 3], "num2": [6, 5, 4], "num3": [1, 1, 4], "type": "DISTRACTOR", "conditions": [18, 1200, "a", 18000], "trial": 0, "trial_type": "math-distractor", "trial_index": 9, "time_elapsed": 339582, "internal_node_id": "0.0-9.0"}}, {"uniqueid": "MTK0381:3I3WADAZ9RBOESZW8P7R3RCEFYC5OR", "current_trial": 10, "dateTime": 1510777566138, "trialdata": {"rt": -1, "stimulus": "<p id=\"stim\">10</p>", "key_press": -1, "trial_type": "single-stim", "trial_index": 10, "time_elapsed": 342584, "internal_node_id": "0.0-10.0-0.0"}}, {"uniqueid": "MTK0381:3I3WADAZ9RBOESZW8P7R3RCEFYC5OR", "current_trial": 11, "dateTime": 1510777567139, "trialdata": {"rt": -1, "stimulus": "<p id=\"stim\">9</p>", "key_press": -1, "trial_type": "single-stim", "trial_index": 11, "time_elapsed": 343585, "internal_node_id": "0.0-10.0-1.0"}}, {"uniqueid": "MTK0381:3I3WADAZ9RBOESZW8P7R3RCEFYC5OR", "current_trial": 12, "dateTime": 1510777568140, "trialdata": {"rt": -1, "stimulus": "<p id=\"stim\">8</p>", "key_press": -1, "trial_type": "single-stim", "trial_index": 12, "time_elapsed": 344586, "internal_node_id": "0.0-10.0-2.0"}}, {"uniqueid": "MTK0381:3I3WADAZ9RBOESZW8P7R3RCEFYC5OR", "current_trial": 13, "dateTime": 1510777569142, "trialdata": {"rt": -1, "stimulus": "<p id=\"stim\">7</p>", "key_press": -1, "trial_type": "single-stim", "trial_index": 13, "time_elapsed": 345588, "internal_node_id": "0.0-10.0-3.0"}}, {"uniqueid": "MTK0381:3I3WADAZ9RBOESZW8P7R3RCEFYC5OR", "current_trial": 14, "dateTime": 1510777570144, "trialdata": {"rt": -1, "stimulus": "<p id=\"stim\">6</p>", "key_press": -1, "trial_type": "single-stim", "trial_index": 14, "time_elapsed": 346589, "internal_node_id": "0.0-10.0-4.0"}}, {"uniqueid": "MTK0381:3I3WADAZ9RBOESZW8P7R3RCEFYC5OR", "current_trial": 15, "dateTime": 1510777571145, "trialdata": {"rt": -1, "stimulus": "<p id=\"stim\">5</p>", "key_press": -1, "trial_type": "single-stim", "trial_index": 15, "time_elapsed": 347591, "internal_node_id": "0.0-10.0-5.0"}}, {"uniqueid": "MTK0381:3I3WADAZ9RBOESZW8P7R3RCEFYC5OR", "current_trial": 16, "dateTime": 1510777572146, "trialdata": {"rt": -1, "stimulus": "<p id=\"stim\">4</p>", "key_press": -1, "trial_type": "single-stim", "trial_index": 16, "time_elapsed": 348592, "internal_node_id": "0.0-10.0-6.0"}}, {"uniqueid": "MTK0381:3I3WADAZ9RBOESZW8P7R3RCEFYC5OR", "current_trial": 17, "dateTime": 1510777573148, "trialdata": {"rt": -1, "stimulus": "<p id=\"stim\">3</p>", "key_press": -1, "trial_type": "single-stim", "trial_index": 17, "time_elapsed": 349594, "internal_node_id": "0.0-10.0-7.0"}}, {"uniqueid": "MTK0381:3I3WADAZ9RBOESZW8P7R3RCEFYC5OR", "current_trial": 18, "dateTime": 1510777574148, "trialdata": {"rt": -1, "stimulus": "<p id=\"stim\">2</p>", "key_press": -1, "trial_type": "single-stim", "trial_index": 18, "time_elapsed": 350594, "internal_node_id": "0.0-10.0-8.0"}}, {"uniqueid": "MTK0381:3I3WADAZ9RBOESZW8P7R3RCEFYC5OR", "current_trial": 19, "dateTime": 1510777575150, "trialdata": {"rt": -1, "stimulus": "<p id=\"stim\">1</p>", "key_press": -1, "trial_type": "single-stim", "trial_index": 19, "time_elapsed": 351595, "internal_node_id": "0.0-10.0-9.0"}}, {"uniqueid": "MTK0381:3I3WADAZ9RBOESZW8P7R3RCEFYC5OR", "current_trial": 20, "dateTime": 1510777576652, "trialdata": {"rt": -1, "stimulus": "<p id=\"stim\">+</p>", "key_press": -1, "type": "FIXATION", "trial_type": "single-stim", "trial_index": 20, "time_elapsed": 353098, "internal_node_id": "0.0-11.0-0.0"}}, {"uniqueid": "MTK0381:3I3WADAZ9RBOESZW8P7R3RCEFYC5OR", "current_trial": 21, "dateTime": 1510777578928, "trialdata": {"rt": -1000, "stimulus": "/static/audio/wordpool/MUSTARD.wav", "key_press": -1, "type": "PRES_AUD", "word": "mustard", "wordID": 934, "conditions": [18, 1200, "a", 18000], "trial": 0, "serialpos": 0, "trial_type": "single-audio", "trial_index": 21, "time_elapsed": 355374, "internal_node_id": "0.0-12.0"}}, {"uniqueid": "MTK0381:3I3WADAZ9RBOESZW8P7R3RCEFYC5OR", "current_trial": 22, "dateTime": 1510777581133, "trialdata": {"rt": -1000, "stimulus": "/static/audio/wordpool/BACON.wav", "key_press": -1, "type": "PRES_AUD", "word": "bacon", "wordID": 66, "conditions": [18, 1200, "a", 18000], "trial": 0, "serialpos": 1, "trial_type": "single-audio", "trial_index": 22, "time_elapsed": 357579, "internal_node_id": "0.0-13.0"}}, {"uniqueid": "MTK0381:3I3WADAZ9RBOESZW8P7R3RCEFYC5OR", "current_trial": 23, "dateTime": 1510777583354, "trialdata": {"rt": -1000, "stimulus": "/static/audio/wordpool/SWITCH.wav", "key_press": -1, "type": "PRES_AUD", "word": "switch", "wordID": 1421, "conditions": [18, 1200, "a", 18000], "trial": 0, "serialpos": 2, "trial_type": "single-audio", "trial_index": 23, "time_elapsed": 359800, "internal_node_id": "0.0-14.0"}}, {"uniqueid": "MTK0381:3I3WADAZ9RBOESZW8P7R3RCEFYC5OR", "current_trial": 24, "dateTime": 1510777585728, "trialdata": {"rt": -1000, "stimulus": "/static/audio/wordpool/GALLON.wav", "key_press": -1, "type": "PRES_AUD", "word": "gallon", "wordID": 617, "conditions": [18, 1200, "a", 18000], "trial": 0, "serialpos": 3, "trial_type": "single-audio", "trial_index": 24, "time_elapsed": 362174, "internal_node_id": "0.0-15.0"}}, {"uniqueid": "MTK0381:3I3WADAZ9RBOESZW8P7R3RCEFYC5OR", "current_trial": 25, "dateTime": 1510777587832, "trialdata": {"rt": -1000, "stimulus": "/static/audio/wordpool/SMOG.wav", "key_press": -1, "type": "PRES_AUD", "word": "smog", "wordID": 1329, "conditions": [18, 1200, "a", 18000], "trial": 0, "serialpos": 4, "trial_type": "single-audio", "trial_index": 25, "time_elapsed": 364278, "internal_node_id": "0.0-16.0"}}, {"uniqueid": "MTK0381:3I3WADAZ9RBOESZW8P7R3RCEFYC5OR", "current_trial": 26, "dateTime": 1510777589865, "trialdata": {"rt": -1000, "stimulus": "/static/audio/wordpool/DANDRUFF.wav", "key_press": -1, "type": "PRES_AUD", "word": "dandruff", "wordID": 438, "conditions": [18, 1200, "a", 18000], "trial": 0, "serialpos": 5, "trial_type": "single-audio", "trial_index": 26, "time_elapsed": 366311, "internal_node_id": "0.0-17.0"}}, {"uniqueid": "MTK0381:3I3WADAZ9RBOESZW8P7R3RCEFYC5OR", "current_trial": 27, "dateTime": 1510777592245, "trialdata": {"rt": -1000, "stimulus": "/static/audio/wordpool/LAMP.wav", "key_press": -1, "type": "PRES_AUD", "word": "lamp", "wordID": 797, "conditions": [18, 1200, "a", 18000], "trial": 0, "serialpos": 6, "trial_type": "single-audio", "trial_index": 27, "time_elapsed": 368691, "internal_node_id": "0.0-18.0"}}, {"uniqueid": "MTK0381:3I3WADAZ9RBOESZW8P7R3RCEFYC5OR", "current_trial": 28, "dateTime": 1510777594286, "trialdata": {"rt": -1000, "stimulus": "/static/audio/wordpool/PISTON.wav", "key_press": -1, "type": "PRES_AUD", "word": "piston", "wordID": 1075, "conditions": [18, 1200, "a", 18000], "trial": 0, "serialpos": 7, "trial_type": "single-audio", "trial_index": 28, "time_elapsed": 370732, "internal_node_id": "0.0-19.0"}}, {"uniqueid": "MTK0381:3I3WADAZ9RBOESZW8P7R3RCEFYC5OR", "current_trial": 29, "dateTime": 1510777596442, "trialdata": {"rt": -1000, "stimulus": "/static/audio/wordpool/COUCH.wav", "key_press": -1, "type": "PRES_AUD", "word": "couch", "wordID": 385, "conditions": [18, 1200, "a", 18000], "trial": 0, "serialpos": 8, "trial_type": "single-audio", "trial_index": 29, "time_elapsed": 372888, "internal_node_id": "0.0-20.0"}}, {"uniqueid": "MTK0381:3I3WADAZ9RBOESZW8P7R3RCEFYC5OR", "current_trial": 30, "dateTime": 1510777598525, "trialdata": {"rt": -1000, "stimulus": "/static/audio/wordpool/WIFE.wav", "key_press": -1, "type": "PRES_AUD", "word": "wife", "wordID": 1608, "conditions": [18, 1200, "a", 18000], "trial": 0, "serialpos": 9, "trial_type": "single-audio", "trial_index": 30, "time_elapsed": 374971, "internal_node_id": "0.0-21.0"}}, {"uniqueid": "MTK0381:3I3WADAZ9RBOESZW8P7R3RCEFYC5OR", "current_trial": 31, "dateTime": 1510777600678, "trialdata": {"rt": -1000, "stimulus": "/static/audio/wordpool/MOTOR.wav", "key_press": -1, "type": "PRES_AUD", "word": "motor", "wordID": 921, "conditions": [18, 1200, "a", 18000], "trial": 0, "serialpos": 10, "trial_type": "single-audio", "trial_index": 31, "time_elapsed": 377124, "internal_node_id": "0.0-22.0"}}, {"uniqueid": "MTK0381:3I3WADAZ9RBOESZW8P7R3RCEFYC5OR", "current_trial": 32, "dateTime": 1510777602816, "trialdata": {"rt": -1000, "stimulus": "/static/audio/wordpool/STREAM.wav", "key_press": -1, "type": "PRES_AUD", "word": "stream", "wordID": 1391, "conditions": [18, 1200, "a", 18000], "trial": 0, "serialpos": 11, "trial_type": "single-audio", "trial_index": 32, "time_elapsed": 379262, "internal_node_id": "0.0-23.0"}}, {"uniqueid": "MTK0381:3I3WADAZ9RBOESZW8P7R3RCEFYC5OR", "current_trial": 33, "dateTime": 1510777604895, "trialdata": {"rt": -1000, "stimulus": "/static/audio/wordpool/PIMPLE.wav", "key_press": -1, "type": "PRES_AUD", "word": "pimple", "wordID": 1070, "conditions": [18, 1200, "a", 18000], "trial": 0, "serialpos": 12, "trial_type": "single-audio", "trial_index": 33, "time_elapsed": 381341, "internal_node_id": "0.0-24.0"}}, {"uniqueid": "MTK0381:3I3WADAZ9RBOESZW8P7R3RCEFYC5OR", "current_trial": 34, "dateTime": 1510777606995, "trialdata": {"rt": -1000, "stimulus": "/static/audio/wordpool/SUITCASE.wav", "key_press": -1, "type": "PRES_AUD", "word": "suitcase", "wordID": 1402, "conditions": [18, 1200, "a", 18000], "trial": 0, "serialpos": 13, "trial_type": "single-audio", "trial_index": 34, "time_elapsed": 383441, "internal_node_id": "0.0-25.0"}}, {"uniqueid": "MTK0381:3I3WADAZ9RBOESZW8P7R3RCEFYC5OR", "current_trial": 35, "dateTime": 1510777609285, "trialdata": {"rt": -1000, "stimulus": "/static/audio/wordpool/MAILMAN.wav", "key_press": -1, "type": "PRES_AUD", "word": "mailman", "wordID": 857, "conditions": [18, 1200, "a", 18000], "trial": 0, "serialpos": 14, "trial_type": "single-audio", "trial_index": 35, "time_elapsed": 385731, "internal_node_id": "0.0-26.0"}}, {"uniqueid": "MTK0381:3I3WADAZ9RBOESZW8P7R3RCEFYC5OR", "current_trial": 36, "dateTime": 1510777611608, "trialdata": {"rt": -1000, "stimulus": "/static/audio/wordpool/TABLE.wav", "key_press": -1, "type": "PRES_AUD", "word": "table", "wordID": 1425, "conditions": [18, 1200, "a", 18000], "trial": 0, "serialpos": 15, "trial_type": "single-audio", "trial_index": 36, "time_elapsed": 388054, "internal_node_id": "0.0-27.0"}}, {"uniqueid": "MTK0381:3I3WADAZ9RBOESZW8P7R3RCEFYC5OR", "current_trial": 37, "dateTime": 1510777613620, "trialdata": {"rt": -1000, "stimulus": "/static/audio/wordpool/QUAIL.wav", "key_press": -1, "type": "PRES_AUD", "word": "quail", "wordID": 1146, "conditions": [18, 1200, "a", 18000], "trial": 0, "serialpos": 16, "trial_type": "single-audio", "trial_index": 37, "time_elapsed": 390066, "internal_node_id": "0.0-28.0"}}, {"uniqueid": "MTK0381:3I3WADAZ9RBOESZW8P7R3RCEFYC5OR", "current_trial": 38, "dateTime": 1510777615936, "trialdata": {"rt": -1000, "stimulus": "/static/audio/wordpool/BROTHER.wav", "key_press": -1, "type": "PRES_AUD", "word": "brother", "wordID": 178, "conditions": [18, 1200, "a", 18000], "trial": 0, "serialpos": 17, "trial_type": "single-audio", "trial_index": 38, "time_elapsed": 392382, "internal_node_id": "0.0-29.0"}}, {"uniqueid": "MTK0381:3I3WADAZ9RBOESZW8P7R3RCEFYC5OR", "current_trial": 39, "dateTime": 1510777617299, "trialdata": {"rt": -1, "stimulus": "", "key_press": -1, "type": "PRE_RECALL_DELAY", "trial_type": "single-stim", "trial_index": 39, "time_elapsed": 393745, "internal_node_id": "0.0-30.0-0.0"}}, {"uniqueid": "MTK0381:3I3WADAZ9RBOESZW8P7R3RCEFYC5OR", "current_trial": 40, "dateTime": 1510777617802, "trialdata": {"rt": -1000, "stimulus": "/static/audio/400Hz.wav", "key_press": -1, "type": "PRE_RECALL_ALERT", "trial_type": "single-audio", "trial_index": 40, "time_elapsed": 394248, "internal_node_id": "0.0-31.0"}}, {"uniqueid": "MTK0381:3I3WADAZ9RBOESZW8P7R3RCEFYC5OR", "current_trial": 41, "dateTime": 1510777677809, "trialdata": {"rt": [2650, 5074, 6869, 9948, 12398, 14012, 20572, 26635], "recwords": ["brother", "mustard", "bacon", "switch", "lamp", "table", "quail", "cotton"], "type": "FREE_RECALL", "conditions": [18, 1200, "a", 18000], "trial": 0, "trial_type": "free-recall", "trial_index": 41, "time_elapsed": 454252, "internal_node_id": "0.0-32.0-0.0"}}, {"uniqueid": "MTK0381:3I3WADAZ9RBOESZW8P7R3RCEFYC5OR", "current_trial": 42, "dateTime": 1510777792651, "trialdata": {"rt": 112840, "key_press": 74, "type": "INSTRUCTIONS", "trial_type": "text", "trial_index": 42, "time_elapsed": 569097, "internal_node_id": "0.0-33.0"}}, {"uniqueid": "MTK0381:3I3WADAZ9RBOESZW8P7R3RCEFYC5OR", "current_trial": 43, "dateTime": 1510777812653, "trialdata": {"rt": [9476, 14774], "responses": ["22 ", "15"], "num1": [7, 8, 8], "num2": [8, 4, 6], "num3": [7, 3, 7], "type": "DISTRACTOR", "conditions": [18, 1200, "v", 18000], "trial": 1, "trial_type": "math-distractor", "trial_index": 43, "time_elapsed": 589099, "internal_node_id": "0.0-34.0"}}, {"uniqueid": "MTK0381:3I3WADAZ9RBOESZW8P7R3RCEFYC5OR", "current_trial": 44, "dateTime": 1510777815655, "trialdata": {"rt": -1, "stimulus": "<p id=\"stim\">10</p>", "key_press": -1, "trial_type": "single-stim", "trial_index": 44, "time_elapsed": 592101, "internal_node_id": "0.0-35.0-0.0"}}, {"uniqueid": "MTK0381:3I3WADAZ9RBOESZW8P7R3RCEFYC5OR", "current_trial": 45, "dateTime": 1510777816656, "trialdata": {"rt": -1, "stimulus": "<p id=\"stim\">9</p>", "key_press": -1, "trial_type": "single-stim", "trial_index": 45, "time_elapsed": 593102, "internal_node_id": "0.0-35.0-1.0"}}, {"uniqueid": "MTK0381:3I3WADAZ9RBOESZW8P7R3RCEFYC5OR", "current_trial": 46, "dateTime": 1510777817658, "trialdata": {"rt": -1, "stimulus": "<p id=\"stim\">8</p>", "key_press": -1, "trial_type": "single-stim", "trial_index": 46, "time_elapsed": 594104, "internal_node_id": "0.0-35.0-2.0"}}, {"uniqueid": "MTK0381:3I3WADAZ9RBOESZW8P7R3RCEFYC5OR", "current_trial": 47, "dateTime": 1510777818660, "trialdata": {"rt": -1, "stimulus": "<p id=\"stim\">7</p>", "key_press": -1, "trial_type": "single-stim", "trial_index": 47, "time_elapsed": 595106, "internal_node_id": "0.0-35.0-3.0"}}, {"uniqueid": "MTK0381:3I3WADAZ9RBOESZW8P7R3RCEFYC5OR", "current_trial": 48, "dateTime": 1510777819660, "trialdata": {"rt": -1, "stimulus": "<p id=\"stim\">6</p>", "key_press": -1, "trial_type": "single-stim", "trial_index": 48, "time_elapsed": 596106, "internal_node_id": "0.0-35.0-4.0"}}, {"uniqueid": "MTK0381:3I3WADAZ9RBOESZW8P7R3RCEFYC5OR", "current_trial": 49, "dateTime": 1510777820662, "trialdata": {"rt": -1, "stimulus": "<p id=\"stim\">5</p>", "key_press": -1, "trial_type": "single-stim", "trial_index": 49, "time_elapsed": 597107, "internal_node_id": "0.0-35.0-5.0"}}, {"uniqueid": "MTK0381:3I3WADAZ9RBOESZW8P7R3RCEFYC5OR", "current_trial": 50, "dateTime": 1510777821664, "trialdata": {"rt": -1, "stimulus": "<p id=\"stim\">4</p>", "key_press": -1, "trial_type": "single-stim", "trial_index": 50, "time_elapsed": 598109, "internal_node_id": "0.0-35.0-6.0"}}, {"uniqueid": "MTK0381:3I3WADAZ9RBOESZW8P7R3RCEFYC5OR", "current_trial": 51, "dateTime": 1510777822664, "trialdata": {"rt": -1, "stimulus": "<p id=\"stim\">3</p>", "key_press": -1, "trial_type": "single-stim", "trial_index": 51, "time_elapsed": 599110, "internal_node_id": "0.0-35.0-7.0"}}, {"uniqueid": "MTK0381:3I3WADAZ9RBOESZW8P7R3RCEFYC5OR", "current_trial": 52, "dateTime": 1510777823666, "trialdata": {"rt": -1, "stimulus": "<p id=\"stim\">2</p>", "key_press": -1, "trial_type": "single-stim", "trial_index": 52, "time_elapsed": 600112, "internal_node_id": "0.0-35.0-8.0"}}, {"uniqueid": "MTK0381:3I3WADAZ9RBOESZW8P7R3RCEFYC5OR", "current_trial": 53, "dateTime": 1510777824667, "trialdata": {"rt": -1, "stimulus": "<p id=\"stim\">1</p>", "key_press": -1, "trial_type": "single-stim", "trial_index": 53, "time_elapsed": 601113, "internal_node_id": "0.0-35.0-9.0"}}, {"uniqueid": "MTK0381:3I3WADAZ9RBOESZW8P7R3RCEFYC5OR", "current_trial": 54, "dateTime": 1510777826168, "trialdata": {"rt": -1, "stimulus": "<p id=\"stim\">+</p>", "key_press": -1, "type": "FIXATION", "trial_type": "single-stim", "trial_index": 54, "time_elapsed": 602614, "internal_node_id": "0.0-36.0-0.0"}}, {"uniqueid": "MTK0381:3I3WADAZ9RBOESZW8P7R3RCEFYC5OR", "current_trial": 55, "dateTime": 1510777827369, "trialdata": {"rt": -1, "stimulus": "<p id=\"stim\">VALVE</p>", "key_press": -1, "type": "PRES_VIS", "word": "valve", "wordID": 1545, "conditions": [18, 1200, "v", 18000], "trial": 1, "serialpos": 0, "trial_type": "single-stim", "trial_index": 55, "time_elapsed": 603815, "internal_node_id": "0.0-37.0"}}, {"uniqueid": "MTK0381:3I3WADAZ9RBOESZW8P7R3RCEFYC5OR", "current_trial": 56, "dateTime": 1510777829699, "trialdata": {"rt": -1, "stimulus": "<p id=\"stim\">HEDGE</p>", "key_press": -1, "type": "PRES_VIS", "word": "hedge", "wordID": 698, "conditions": [18, 1200, "v", 18000], "trial": 1, "serialpos": 1, "trial_type": "single-stim", "trial_index": 56, "time_elapsed": 606145, "internal_node_id": "0.0-38.0"}}, {"uniqueid": "MTK0381:3I3WADAZ9RBOESZW8P7R3RCEFYC5OR", "current_trial": 57, "dateTime": 1510777831911, "trialdata": {"rt": -1, "stimulus": "<p id=\"stim\">FRECKLE</p>", "key_press": -1, "type": "PRES_VIS", "word": "freckle", "wordID": 601, "conditions": [18, 1200, "v", 18000], "trial": 1, "serialpos": 2, "trial_type": "single-stim", "trial_index": 57, "time_elapsed": 608357, "internal_node_id": "0.0-39.0"}}, {"uniqueid": "MTK0381:3I3WADAZ9RBOESZW8P7R3RCEFYC5OR", "current_trial": 58, "dateTime": 1510777834310, "trialdata": {"rt": -1, "stimulus": "<p id=\"stim\">VENUS</p>", "key_press": -1, "type": "PRES_VIS", "word": "venus", "wordID": 1556, "conditions": [18, 1200, "v", 18000], "trial": 1, "serialpos": 3, "trial_type": "single-stim", "trial_index": 58, "time_elapsed": 610756, "internal_node_id": "0.0-40.0"}}, {"uniqueid": "MTK0381:3I3WADAZ9RBOESZW8P7R3RCEFYC5OR", "current_trial": 59, "dateTime": 1510777836661, "trialdata": {"rt": -1, "stimulus": "<p id=\"stim\">XEROX</p>", "key_press": -1, "type": "PRES_VIS", "word": "xerox", "wordID": 1627, "conditions": [18, 1200, "v", 18000], "trial": 1, "serialpos": 4, "trial_type": "single-stim", "trial_index": 59, "time_elapsed": 613107, "internal_node_id": "0.0-41.0"}}, {"uniqueid": "MTK0381:3I3WADAZ9RBOESZW8P7R3RCEFYC5OR", "current_trial": 60, "dateTime": 1510777838912, "trialdata": {"rt": -1, "stimulus": "<p id=\"stim\">FINGER</p>", "key_press": -1, "type": "PRES_VIS", "word": "finger", "wordID": 566, "conditions": [18, 1200, "v", 18000], "trial": 1, "serialpos": 5, "trial_type": "single-stim", "trial_index": 60, "time_elapsed": 615358, "internal_node_id": "0.0-42.0"}}, {"uniqueid": "MTK0381:3I3WADAZ9RBOESZW8P7R3RCEFYC5OR", "current_trial": 61, "dateTime": 1510777841065, "trialdata": {"rt": -1, "stimulus": "<p id=\"stim\">BEAKER</p>", "key_press": -1, "type": "PRES_VIS", "word": "beaker", "wordID": 103, "conditions": [18, 1200, "v", 18000], "trial": 1, "serialpos": 6, "trial_type": "single-stim", "trial_index": 61, "time_elapsed": 617511, "internal_node_id": "0.0-43.0"}}, {"uniqueid": "MTK0381:3I3WADAZ9RBOESZW8P7R3RCEFYC5OR", "current_trial": 62, "dateTime": 1510777843162, "trialdata": {"rt": -1, "stimulus": "<p id=\"stim\">DANCER</p>", "key_press": -1, "type": "PRES_VIS", "word": "dancer", "wordID": 436, "conditions": [18, 1200, "v", 18000], "trial": 1, "serialpos": 7, "trial_type": "single-stim", "trial_index": 62, "time_elapsed": 619608, "internal_node_id": "0.0-44.0"}}, {"uniqueid": "MTK0381:3I3WADAZ9RBOESZW8P7R3RCEFYC5OR", "current_trial": 63, "dateTime": 1510777845205, "trialdata": {"rt": -1, "stimulus": "<p id=\"stim\">TUNNEL</p>", "key_press": -1, "type": "PRES_VIS", "word": "tunnel", "wordID": 1518, "conditions": [18, 1200, "v", 18000], "trial": 1, "serialpos": 8, "trial_type": "single-stim", "trial_index": 63, "time_elapsed": 621651, "internal_node_id": "0.0-45.0"}}, {"uniqueid": "MTK0381:3I3WADAZ9RBOESZW8P7R3RCEFYC5OR", "current_trial": 64, "dateTime": 1510777847220, "trialdata": {"rt": -1, "stimulus": "<p id=\"stim\">SCOTCH</p>", "key_press": -1, "type": "PRES_VIS", "word": "scotch", "wordID": 1250, "conditions": [18, 1200, "v", 18000], "trial": 1, "serialpos": 9, "trial_type": "single-stim", "trial_index": 64, "time_elapsed": 623666, "internal_node_id": "0.0-46.0"}}, {"uniqueid": "MTK0381:3I3WADAZ9RBOESZW8P7R3RCEFYC5OR", "current_trial": 65, "dateTime": 1510777849566, "trialdata": {"rt": -1, "stimulus": "<p id=\"stim\">DRIVER</p>", "key_press": -1, "type": "PRES_VIS", "word": "driver", "wordID": 498, "conditions": [18, 1200, "v", 18000], "trial": 1, "serialpos": 10, "trial_type": "single-stim", "trial_index": 65, "time_elapsed": 626012, "internal_node_id": "0.0-47.0"}}, {"uniqueid": "MTK0381:3I3WADAZ9RBOESZW8P7R3RCEFYC5OR", "current_trial": 66, "dateTime": 1510777851670, "trialdata": {"rt": -1, "stimulus": "<p id=\"stim\">SKIRT</p>", "key_press": -1, "type": "PRES_VIS", "word": "skirt", "wordID": 1318, "conditions": [18, 1200, "v", 18000], "trial": 1, "serialpos": 11, "trial_type": "single-stim", "trial_index": 66, "time_elapsed": 628116, "internal_node_id": "0.0-48.0"}}, {"uniqueid": "MTK0381:3I3WADAZ9RBOESZW8P7R3RCEFYC5OR", "current_trial": 67, "dateTime": 1510777853865, "trialdata": {"rt": -1, "stimulus": "<p id=\"stim\">COTTAGE</p>", "key_press": -1, "type": "PRES_VIS", "word": "cottage", "wordID": 383, "conditions": [18, 1200, "v", 18000], "trial": 1, "serialpos": 12, "trial_type": "single-stim", "trial_index": 67, "time_elapsed": 630311, "internal_node_id": "0.0-49.0"}}, {"uniqueid": "MTK0381:3I3WADAZ9RBOESZW8P7R3RCEFYC5OR", "current_trial": 68, "dateTime": 1510777855942, "trialdata": {"rt": -1, "stimulus": "<p id=\"stim\">DONKEY</p>", "key_press": -1, "type": "PRES_VIS", "word": "donkey", "wordID": 483, "conditions": [18, 1200, "v", 18000], "trial": 1, "serialpos": 13, "trial_type": "single-stim", "trial_index": 68, "time_elapsed": 632385, "internal_node_id": "0.0-50.0"}}, {"uniqueid": "MTK0381:3I3WADAZ9RBOESZW8P7R3RCEFYC5OR", "current_trial": 69, "dateTime": 1510777858264, "trialdata": {"rt": -1, "stimulus": "<p id=\"stim\">BUBBLE</p>", "key_press": -1, "type": "PRES_VIS", "word": "bubble", "wordID": 182, "conditions": [18, 1200, "v", 18000], "trial": 1, "serialpos": 14, "trial_type": "single-stim", "trial_index": 69, "time_elapsed": 634710, "internal_node_id": "0.0-51.0"}}, {"uniqueid": "MTK0381:3I3WADAZ9RBOESZW8P7R3RCEFYC5OR", "current_trial": 70, "dateTime": 1510777860410, "trialdata": {"rt": -1, "stimulus": "<p id=\"stim\">CELLAR</p>", "key_press": -1, "type": "PRES_VIS", "word": "cellar", "wordID": 266, "conditions": [18, 1200, "v", 18000], "trial": 1, "serialpos": 15, "trial_type": "single-stim", "trial_index": 70, "time_elapsed": 636856, "internal_node_id": "0.0-52.0"}}, {"uniqueid": "MTK0381:3I3WADAZ9RBOESZW8P7R3RCEFYC5OR", "current_trial": 71, "dateTime": 1510777862718, "trialdata": {"rt": -1, "stimulus": "<p id=\"stim\">OYSTER</p>", "key_press": -1, "type": "PRES_VIS", "word": "oyster", "wordID": 994, "conditions": [18, 1200, "v", 18000], "trial": 1, "serialpos": 16, "trial_type": "single-stim", "trial_index": 71, "time_elapsed": 639164, "internal_node_id": "0.0-53.0"}}, {"uniqueid": "MTK0381:3I3WADAZ9RBOESZW8P7R3RCEFYC5OR", "current_trial": 72, "dateTime": 1510777864874, "trialdata": {"rt": -1, "stimulus": "<p id=\"stim\">ROCKET</p>", "key_press": -1, "type": "PRES_VIS", "word": "rocket", "wordID": 1201, "conditions": [18, 1200, "v", 18000], "trial": 1, "serialpos": 17, "trial_type": "single-stim", "trial_index": 72, "time_elapsed": 641320, "internal_node_id": "0.0-54.0"}}, {"uniqueid": "MTK0381:3I3WADAZ9RBOESZW8P7R3RCEFYC5OR", "current_trial": 73, "dateTime": 1510777867000, "trialdata": {"rt": -1, "stimulus": "", "key_press": -1, "type": "PRE_RECALL_DELAY", "trial_type": "single-stim", "trial_index": 73, "time_elapsed": 643446, "internal_node_id": "0.0-55.0-0.0"}}, {"uniqueid": "MTK0381:3I3WADAZ9RBOESZW8P7R3RCEFYC5OR", "current_trial": 74, "dateTime": 1510777867501, "trialdata": {"rt": -1000, "stimulus": "/static/audio/400Hz.wav", "key_press": -1, "type": "PRE_RECALL_ALERT", "trial_type": "single-audio", "trial_index": 74, "time_elapsed": 643947, "internal_node_id": "0.0-56.0"}}, {"uniqueid": "MTK0381:3I3WADAZ9RBOESZW8P7R3RCEFYC5OR", "current_trial": 75, "dateTime": 1510777927507, "trialdata": {"rt": [2835, 4938, 7256, 10889, 12971, 15931], "recwords": ["rocket", "oyster", "cellar", "valve", "hedge", "venus"], "type": "FREE_RECALL", "conditions": [18, 1200, "v", 18000], "trial": 1, "trial_type": "free-recall", "trial_index": 75, "time_elapsed": 703951, "internal_node_id": "0.0-57.0-0.0"}}, {"uniqueid": "MTK0381:3I3WADAZ9RBOESZW8P7R3RCEFYC5OR", "current_trial": 76, "dateTime": 1510778330058, "trialdata": {"rt": 400547, "key_press": 72, "type": "INSTRUCTIONS", "trial_type": "text", "trial_index": 76, "time_elapsed": 1106500, "internal_node_id": "0.0-58.0"}}, {"uniqueid": "MTK0381:3I3WADAZ9RBOESZW8P7R3RCEFYC5OR", "current_trial": 77, "dateTime": 1510778343061, "trialdata": {"rt": [3983, 8279], "responses": ["14", "17"], "num1": [6, 7, 4], "num2": [6, 6, 6], "num3": [2, 4, 1], "type": "DISTRACTOR", "conditions": [12, 1600, "v", 12000], "trial": 2, "trial_type": "math-distractor", "trial_index": 77, "time_elapsed": 1119507, "internal_node_id": "0.0-59.0"}}, {"uniqueid": "MTK0381:3I3WADAZ9RBOESZW8P7R3RCEFYC5OR", "current_trial": 78, "dateTime": 1510778346063, "trialdata": {"rt": -1, "stimulus": "<p id=\"stim\">10</p>", "key_press": -1, "trial_type": "single-stim", "trial_index": 78, "time_elapsed": 1122509, "internal_node_id": "0.0-60.0-0.0"}}, {"uniqueid": "MTK0381:3I3WADAZ9RBOESZW8P7R3RCEFYC5OR", "current_trial": 79, "dateTime": 1510778347065, "trialdata": {"rt": -1, "stimulus": "<p id=\"stim\">9</p>", "key_press": -1, "trial_type": "single-stim", "trial_index": 79, "time_elapsed": 1123511, "internal_node_id": "0.0-60.0-1.0"}}, {"uniqueid": "MTK0381:3I3WADAZ9RBOESZW8P7R3RCEFYC5OR", "current_trial": 80, "dateTime": 1510778348065, "trialdata": {"rt": -1, "stimulus": "<p id=\"stim\">8</p>", "key_press": -1, "trial_type": "single-stim", "trial_index": 80, "time_elapsed": 1124511, "internal_node_id": "0.0-60.0-2.0"}}, {"uniqueid": "MTK0381:3I3WADAZ9RBOESZW8P7R3RCEFYC5OR", "current_trial": 81, "dateTime": 1510778349066, "trialdata": {"rt": -1, "stimulus": "<p id=\"stim\">7</p>", "key_press": -1, "trial_type": "single-stim", "trial_index": 81, "time_elapsed": 1125512, "internal_node_id": "0.0-60.0-3.0"}}, {"uniqueid": "MTK0381:3I3WADAZ9RBOESZW8P7R3RCEFYC5OR", "current_trial": 82, "dateTime": 1510778350069, "trialdata": {"rt": -1, "stimulus": "<p id=\"stim\">6</p>", "key_press": -1, "trial_type": "single-stim", "trial_index": 82, "time_elapsed": 1126514, "internal_node_id": "0.0-60.0-4.0"}}, {"uniqueid": "MTK0381:3I3WADAZ9RBOESZW8P7R3RCEFYC5OR", "current_trial": 83, "dateTime": 1510778351070, "trialdata": {"rt": -1, "stimulus": "<p id=\"stim\">5</p>", "key_press": -1, "trial_type": "single-stim", "trial_index": 83, "time_elapsed": 1127516, "internal_node_id": "0.0-60.0-5.0"}}, {"uniqueid": "MTK0381:3I3WADAZ9RBOESZW8P7R3RCEFYC5OR", "current_trial": 84, "dateTime": 1510778352071, "trialdata": {"rt": -1, "stimulus": "<p id=\"stim\">4</p>", "key_press": -1, "trial_type": "single-stim", "trial_index": 84, "time_elapsed": 1128517, "internal_node_id": "0.0-60.0-6.0"}}, {"uniqueid": "MTK0381:3I3WADAZ9RBOESZW8P7R3RCEFYC5OR", "current_trial": 85, "dateTime": 1510778353073, "trialdata": {"rt": -1, "stimulus": "<p id=\"stim\">3</p>", "key_press": -1, "trial_type": "single-stim", "trial_index": 85, "time_elapsed": 1129519, "internal_node_id": "0.0-60.0-7.0"}}, {"uniqueid": "MTK0381:3I3WADAZ9RBOESZW8P7R3RCEFYC5OR", "current_trial": 86, "dateTime": 1510778354074, "trialdata": {"rt": -1, "stimulus": "<p id=\"stim\">2</p>", "key_press": -1, "trial_type": "single-stim", "trial_index": 86, "time_elapsed": 1130520, "internal_node_id": "0.0-60.0-8.0"}}, {"uniqueid": "MTK0381:3I3WADAZ9RBOESZW8P7R3RCEFYC5OR", "current_trial": 87, "dateTime": 1510778355077, "trialdata": {"rt": -1, "stimulus": "<p id=\"stim\">1</p>", "key_press": -1, "trial_type": "single-stim", "trial_index": 87, "time_elapsed": 1131522, "internal_node_id": "0.0-60.0-9.0"}}, {"uniqueid": "MTK0381:3I3WADAZ9RBOESZW8P7R3RCEFYC5OR", "current_trial": 88, "dateTime": 1510778356577, "trialdata": {"rt": -1, "stimulus": "<p id=\"stim\">+</p>", "key_press": -1, "type": "FIXATION", "trial_type": "single-stim", "trial_index": 88, "time_elapsed": 1133023, "internal_node_id": "0.0-61.0-0.0"}}, {"uniqueid": "MTK0381:3I3WADAZ9RBOESZW8P7R3RCEFYC5OR", "current_trial": 89, "dateTime": 1510778358179, "trialdata": {"rt": -1, "stimulus": "<p id=\"stim\">LACE</p>", "key_press": -1, "type": "PRES_VIS", "word": "lace", "wordID": 791, "conditions": [12, 1600, "v", 12000], "trial": 2, "serialpos": 0, "trial_type": "single-stim", "trial_index": 89, "time_elapsed": 1134625, "internal_node_id": "0.0-62.0"}}, {"uniqueid": "MTK0381:3I3WADAZ9RBOESZW8P7R3RCEFYC5OR", "current_trial": 90, "dateTime": 1510778360851, "trialdata": {"rt": -1, "stimulus": "<p id=\"stim\">ASIA</p>", "key_press": -1, "type": "PRES_VIS", "word": "asia", "wordID": 45, "conditions": [12, 1600, "v", 12000], "trial": 2, "serialpos": 1, "trial_type": "single-stim", "trial_index": 90, "time_elapsed": 1137296, "internal_node_id": "0.0-63.0"}}, {"uniqueid": "MTK0381:3I3WADAZ9RBOESZW8P7R3RCEFYC5OR", "current_trial": 91, "dateTime": 1510778363303, "trialdata": {"rt": -1, "stimulus": "<p id=\"stim\">PLUTO</p>", "key_press": -1, "type": "PRES_VIS", "word": "pluto", "wordID": 1091, "conditions": [12, 1600, "v", 12000], "trial": 2, "serialpos": 2, "trial_type": "single-stim", "trial_index": 91, "time_elapsed": 1139749, "internal_node_id": "0.0-64.0"}}, {"uniqueid": "MTK0381:3I3WADAZ9RBOESZW8P7R3RCEFYC5OR", "current_trial": 92, "dateTime": 1510778365872, "trialdata": {"rt": -1, "stimulus": "<p id=\"stim\">LION</p>", "key_press": -1, "type": "PRES_VIS", "word": "lion", "wordID": 826, "conditions": [12, 1600, "v", 12000], "trial": 2, "serialpos": 3, "trial_type": "single-stim", "trial_index": 92, "time_elapsed": 1142318, "internal_node_id": "0.0-65.0"}}, {"uniqueid": "MTK0381:3I3WADAZ9RBOESZW8P7R3RCEFYC5OR", "current_trial": 93, "dateTime": 1510778368310, "trialdata": {"rt": -1, "stimulus": "<p id=\"stim\">CRUTCH</p>", "key_press": -1, "type": "PRES_VIS", "word": "crutch", "wordID": 416, "conditions": [12, 1600, "v", 12000], "trial": 2, "serialpos": 4, "trial_type": "single-stim", "trial_index": 93, "time_elapsed": 1144755, "internal_node_id": "0.0-66.0"}}, {"uniqueid": "MTK0381:3I3WADAZ9RBOESZW8P7R3RCEFYC5OR", "current_trial": 94, "dateTime": 1510778370740, "trialdata": {"rt": -1, "stimulus": "<p id=\"stim\">HOOK</p>", "key_press": -1, "type": "PRES_VIS", "word": "hook", "wordID": 714, "conditions": [12, 1600, "v", 12000], "trial": 2, "serialpos": 5, "trial_type": "single-stim", "trial_index": 94, "time_elapsed": 1147185, "internal_node_id": "0.0-67.0"}}, {"uniqueid": "MTK0381:3I3WADAZ9RBOESZW8P7R3RCEFYC5OR", "current_trial": 95, "dateTime": 1510778373181, "trialdata": {"rt": -1, "stimulus": "<p id=\"stim\">GLOVE</p>", "key_press": -1, "type": "PRES_VIS", "word": "glove", "wordID": 641, "conditions": [12, 1600, "v", 12000], "trial": 2, "serialpos": 6, "trial_type": "single-stim", "trial_index": 95, "time_elapsed": 1149627, "internal_node_id": "0.0-68.0"}}, {"uniqueid": "MTK0381:3I3WADAZ9RBOESZW8P7R3RCEFYC5OR", "current_trial": 96, "dateTime": 1510778375857, "trialdata": {"rt": -1, "stimulus": "<p id=\"stim\">RAZOR</p>", "key_press": -1, "type": "PRES_VIS", "word": "razor", "wordID": 1170, "conditions": [12, 1600, "v", 12000], "trial": 2, "serialpos": 7, "trial_type": "single-stim", "trial_index": 96, "time_elapsed": 1152303, "internal_node_id": "0.0-69.0"}}, {"uniqueid": "MTK0381:3I3WADAZ9RBOESZW8P7R3RCEFYC5OR", "current_trial": 97, "dateTime": 1510778378276, "trialdata": {"rt": -1, "stimulus": "<p id=\"stim\">WOMAN</p>", "key_press": -1, "type": "PRES_VIS", "word": "woman", "wordID": 1619, "conditions": [12, 1600, "v", 12000], "trial": 2, "serialpos": 8, "trial_type": "single-stim", "trial_index": 97, "time_elapsed": 1154722, "internal_node_id": "0.0-70.0"}}, {"uniqueid": "MTK0381:3I3WADAZ9RBOESZW8P7R3RCEFYC5OR", "current_trial": 98, "dateTime": 1510778380781, "trialdata": {"rt": -1, "stimulus": "<p id=\"stim\">GIRL</p>", "key_press": -1, "type": "PRES_VIS", "word": "girl", "wordID": 636, "conditions": [12, 1600, "v", 12000], "trial": 2, "serialpos": 9, "trial_type": "single-stim", "trial_index": 98, "time_elapsed": 1157227, "internal_node_id": "0.0-71.0"}}, {"uniqueid": "MTK0381:3I3WADAZ9RBOESZW8P7R3RCEFYC5OR", "current_trial": 99, "dateTime": 1510778383501, "trialdata": {"rt": -1, "stimulus": "<p id=\"stim\">MAILBOX</p>", "key_press": -1, "type": "PRES_VIS", "word": "mailbox", "wordID": 856, "conditions": [12, 1600, "v", 12000], "trial": 2, "serialpos": 10, "trial_type": "single-stim", "trial_index": 99, "time_elapsed": 1159947, "internal_node_id": "0.0-72.0"}}, {"uniqueid": "MTK0381:3I3WADAZ9RBOESZW8P7R3RCEFYC5OR", "current_trial": 100, "dateTime": 1510778385969, "trialdata": {"rt": -1, "stimulus": "<p id=\"stim\">JAPAN</p>", "key_press": -1, "type": "PRES_VIS", "word": "japan", "wordID": 748, "conditions": [12, 1600, "v", 12000], "trial": 2, "serialpos": 11, "trial_type": "single-stim", "trial_index": 100, "time_elapsed": 1162415, "internal_node_id": "0.0-73.0"}}, {"uniqueid": "MTK0381:3I3WADAZ9RBOESZW8P7R3RCEFYC5OR", "current_trial": 101, "dateTime": 1510778388340, "trialdata": {"rt": -1, "stimulus": "", "key_press": -1, "type": "PRE_RECALL_DELAY", "trial_type": "single-stim", "trial_index": 101, "time_elapsed": 1164786, "internal_node_id": "0.0-74.0-0.0"}}, {"uniqueid": "MTK0381:3I3WADAZ9RBOESZW8P7R3RCEFYC5OR", "current_trial": 102, "dateTime": 1510778388841, "trialdata": {"rt": -1000, "stimulus": "/static/audio/400Hz.wav", "key_press": -1, "type": "PRE_RECALL_ALERT", "trial_type": "single-audio", "trial_index": 102, "time_elapsed": 1165287, "internal_node_id": "0.0-75.0"}}, {"uniqueid": "MTK0381:3I3WADAZ9RBOESZW8P7R3RCEFYC5OR", "current_trial": 103, "dateTime": 1510778448845, "trialdata": {"rt": [2360, 3700, 5330, 7175, 8572, 12284, 19965], "recwords": ["asia", "lace", "pluto", "woman", "girl", "mailbox", "glove"], "type": "FREE_RECALL", "conditions": [12, 1600, "v", 12000], "trial": 2, "trial_type": "free-recall", "trial_index": 103, "time_elapsed": 1225289, "internal_node_id": "0.0-76.0-0.0"}}, {"uniqueid": "MTK0381:3I3WADAZ9RBOESZW8P7R3RCEFYC5OR", "current_trial": 104, "dateTime": 1510779366900, "trialdata": {"rt": 916055, "key_press": 32, "type": "INSTRUCTIONS", "trial_type": "text", "trial_index": 104, "time_elapsed": 2143346, "internal_node_id": "0.0-77.0"}}, {"uniqueid": "MTK0381:3I3WADAZ9RBOESZW8P7R3RCEFYC5OR", "current_trial": 105, "dateTime": 1510779380905, "trialdata": {"rt": [3630, 7456], "responses": ["14", "13"], "num1": [6, 5, 8], "num2": [5, 6, 9], "num3": [3, 2, 8], "type": "DISTRACTOR", "conditions": [24, 1600, "v", 12000], "trial": 3, "trial_type": "math-distractor", "trial_index": 105, "time_elapsed": 2157351, "internal_node_id": "0.0-78.0"}}, {"uniqueid": "MTK0381:3I3WADAZ9RBOESZW8P7R3RCEFYC5OR", "current_trial": 106, "dateTime": 1510779383906, "trialdata": {"rt": -1, "stimulus": "<p id=\"stim\">10</p>", "key_press": -1, "trial_type": "single-stim", "trial_index": 106, "time_elapsed": 2160352, "internal_node_id": "0.0-79.0-0.0"}}, {"uniqueid": "MTK0381:3I3WADAZ9RBOESZW8P7R3RCEFYC5OR", "current_trial": 107, "dateTime": 1510779384906, "trialdata": {"rt": -1, "stimulus": "<p id=\"stim\">9</p>", "key_press": -1, "trial_type": "single-stim", "trial_index": 107, "time_elapsed": 2161352, "internal_node_id": "0.0-79.0-1.0"}}, {"uniqueid": "MTK0381:3I3WADAZ9RBOESZW8P7R3RCEFYC5OR", "current_trial": 108, "dateTime": 1510779385909, "trialdata": {"rt": -1, "stimulus": "<p id=\"stim\">8</p>", "key_press": -1, "trial_type": "single-stim", "trial_index": 108, "time_elapsed": 2162354, "internal_node_id": "0.0-79.0-2.0"}}, {"uniqueid": "MTK0381:3I3WADAZ9RBOESZW8P7R3RCEFYC5OR", "current_trial": 109, "dateTime": 1510779386909, "trialdata": {"rt": -1, "stimulus": "<p id=\"stim\">7</p>", "key_press": -1, "trial_type": "single-stim", "trial_index": 109, "time_elapsed": 2163355, "internal_node_id": "0.0-79.0-3.0"}}, {"uniqueid": "MTK0381:3I3WADAZ9RBOESZW8P7R3RCEFYC5OR", "current_trial": 110, "dateTime": 1510779387910, "trialdata": {"rt": -1, "stimulus": "<p id=\"stim\">6</p>", "key_press": -1, "trial_type": "single-stim", "trial_index": 110, "time_elapsed": 2164356, "internal_node_id": "0.0-79.0-4.0"}}, {"uniqueid": "MTK0381:3I3WADAZ9RBOESZW8P7R3RCEFYC5OR", "current_trial": 111, "dateTime": 1510779388912, "trialdata": {"rt": -1, "stimulus": "<p id=\"stim\">5</p>", "key_press": -1, "trial_type": "single-stim", "trial_index": 111, "time_elapsed": 2165358, "internal_node_id": "0.0-79.0-5.0"}}, {"uniqueid": "MTK0381:3I3WADAZ9RBOESZW8P7R3RCEFYC5OR", "current_trial": 112, "dateTime": 1510779389914, "trialdata": {"rt": -1, "stimulus": "<p id=\"stim\">4</p>", "key_press": -1, "trial_type": "single-stim", "trial_index": 112, "time_elapsed": 2166360, "internal_node_id": "0.0-79.0-6.0"}}, {"uniqueid": "MTK0381:3I3WADAZ9RBOESZW8P7R3RCEFYC5OR", "current_trial": 113, "dateTime": 1510779390915, "trialdata": {"rt": -1, "stimulus": "<p id=\"stim\">3</p>", "key_press": -1, "trial_type": "single-stim", "trial_index": 113, "time_elapsed": 2167361, "internal_node_id": "0.0-79.0-7.0"}}, {"uniqueid": "MTK0381:3I3WADAZ9RBOESZW8P7R3RCEFYC5OR", "current_trial": 114, "dateTime": 1510779391918, "trialdata": {"rt": -1, "stimulus": "<p id=\"stim\">2</p>", "key_press": -1, "trial_type": "single-stim", "trial_index": 114, "time_elapsed": 2168363, "internal_node_id": "0.0-79.0-8.0"}}, {"uniqueid": "MTK0381:3I3WADAZ9RBOESZW8P7R3RCEFYC5OR", "current_trial": 115, "dateTime": 1510779392919, "trialdata": {"rt": -1, "stimulus": "<p id=\"stim\">1</p>", "key_press": -1, "trial_type": "single-stim", "trial_index": 115, "time_elapsed": 2169365, "internal_node_id": "0.0-79.0-9.0"}}, {"uniqueid": "MTK0381:3I3WADAZ9RBOESZW8P7R3RCEFYC5OR", "current_trial": 116, "dateTime": 1510779394420, "trialdata": {"rt": -1, "stimulus": "<p id=\"stim\">+</p>", "key_press": -1, "type": "FIXATION", "trial_type": "single-stim", "trial_index": 116, "time_elapsed": 2170866, "internal_node_id": "0.0-80.0-0.0"}}, {"uniqueid": "MTK0381:3I3WADAZ9RBOESZW8P7R3RCEFYC5OR", "current_trial": 117, "dateTime": 1510779396021, "trialdata": {"rt": -1, "stimulus": "<p id=\"stim\">STATUE</p>", "key_press": -1, "type": "PRES_VIS", "word": "statue", "wordID": 1373, "conditions": [24, 1600, "v", 12000], "trial": 3, "serialpos": 0, "trial_type": "single-stim", "trial_index": 117, "time_elapsed": 2172467, "internal_node_id": "0.0-81.0"}}, {"uniqueid": "MTK0381:3I3WADAZ9RBOESZW8P7R3RCEFYC5OR", "current_trial": 118, "dateTime": 1510779398814, "trialdata": {"rt": -1, "stimulus": "<p id=\"stim\">TOASTER</p>", "key_press": -1, "type": "PRES_VIS", "word": "toaster", "wordID": 1471, "conditions": [24, 1600, "v", 12000], "trial": 3, "serialpos": 1, "trial_type": "single-stim", "trial_index": 118, "time_elapsed": 2175259, "internal_node_id": "0.0-82.0"}}, {"uniqueid": "MTK0381:3I3WADAZ9RBOESZW8P7R3RCEFYC5OR", "current_trial": 119, "dateTime": 1510779401508, "trialdata": {"rt": -1, "stimulus": "<p id=\"stim\">COOK</p>", "key_press": -1, "type": "PRES_VIS", "word": "cook", "wordID": 371, "conditions": [24, 1600, "v", 12000], "trial": 3, "serialpos": 2, "trial_type": "single-stim", "trial_index": 119, "time_elapsed": 2177954, "internal_node_id": "0.0-83.0"}}, {"uniqueid": "MTK0381:3I3WADAZ9RBOESZW8P7R3RCEFYC5OR", "current_trial": 120, "dateTime": 1510779404139, "trialdata": {"rt": -1, "stimulus": "<p id=\"stim\">CONCERT</p>", "key_press": -1, "type": "PRES_VIS", "word": "concert", "wordID": 359, "conditions": [24, 1600, "v", 12000], "trial": 3, "serialpos": 3, "trial_type": "single-stim", "trial_index": 120, "time_elapsed": 2180585, "internal_node_id": "0.0-84.0"}}, {"uniqueid": "MTK0381:3I3WADAZ9RBOESZW8P7R3RCEFYC5OR", "current_trial": 121, "dateTime": 1510779406629, "trialdata": {"rt": -1, "stimulus": "<p id=\"stim\">PERMIT</p>", "key_press": -1, "type": "PRES_VIS", "word": "permit", "wordID": 1050, "conditions": [24, 1600, "v", 12000], "trial": 3, "serialpos": 4, "trial_type": "single-stim", "trial_index": 121, "time_elapsed": 2183075, "internal_node_id": "0.0-85.0"}}, {"uniqueid": "MTK0381:3I3WADAZ9RBOESZW8P7R3RCEFYC5OR", "current_trial": 122, "dateTime": 1510779409118, "trialdata": {"rt": -1, "stimulus": "<p id=\"stim\">DIVER</p>", "key_press": -1, "type": "PRES_VIS", "word": "diver", "wordID": 475, "conditions": [24, 1600, "v", 12000], "trial": 3, "serialpos": 5, "trial_type": "single-stim", "trial_index": 122, "time_elapsed": 2185564, "internal_node_id": "0.0-86.0"}}, {"uniqueid": "MTK0381:3I3WADAZ9RBOESZW8P7R3RCEFYC5OR", "current_trial": 123, "dateTime": 1510779411777, "trialdata": {"rt": -1, "stimulus": "<p id=\"stim\">FLESH</p>", "key_press": -1, "type": "PRES_VIS", "word": "flesh", "wordID": 578, "conditions": [24, 1600, "v", 12000], "trial": 3, "serialpos": 6, "trial_type": "single-stim", "trial_index": 123, "time_elapsed": 2188223, "internal_node_id": "0.0-87.0"}}, {"uniqueid": "MTK0381:3I3WADAZ9RBOESZW8P7R3RCEFYC5OR", "current_trial": 124, "dateTime": 1510779414196, "trialdata": {"rt": -1, "stimulus": "<p id=\"stim\">SUPPER</p>", "key_press": -1, "type": "PRES_VIS", "word": "supper", "wordID": 1410, "conditions": [24, 1600, "v", 12000], "trial": 3, "serialpos": 7, "trial_type": "single-stim", "trial_index": 124, "time_elapsed": 2190642, "internal_node_id": "0.0-88.0"}}, {"uniqueid": "MTK0381:3I3WADAZ9RBOESZW8P7R3RCEFYC5OR", "current_trial": 125, "dateTime": 1510779416735, "trialdata": {"rt": -1, "stimulus": "<p id=\"stim\">SURVEY</p>", "key_press": -1, "type": "PRES_VIS", "word": "survey", "wordID": 1413, "conditions": [24, 1600, "v", 12000], "trial": 3, "serialpos": 8, "trial_type": "single-stim", "trial_index": 125, "time_elapsed": 2193181, "internal_node_id": "0.0-89.0"}}, {"uniqueid": "MTK0381:3I3WADAZ9RBOESZW8P7R3RCEFYC5OR", "current_trial": 126, "dateTime": 1510779419435, "trialdata": {"rt": -1, "stimulus": "<p id=\"stim\">REPORT</p>", "key_press": -1, "type": "PRES_VIS", "word": "report", "wordID": 1183, "conditions": [24, 1600, "v", 12000], "trial": 3, "serialpos": 9, "trial_type": "single-stim", "trial_index": 126, "time_elapsed": 2195881, "internal_node_id": "0.0-90.0"}}, {"uniqueid": "MTK0381:3I3WADAZ9RBOESZW8P7R3RCEFYC5OR", "current_trial": 127, "dateTime": 1510779422051, "trialdata": {"rt": -1, "stimulus": "<p id=\"stim\">BANQUET</p>", "key_press": -1, "type": "PRES_VIS", "word": "banquet", "wordID": 85, "conditions": [24, 1600, "v", 12000], "trial": 3, "serialpos": 10, "trial_type": "single-stim", "trial_index": 127, "time_elapsed": 2198497, "internal_node_id": "0.0-91.0"}}, {"uniqueid": "MTK0381:3I3WADAZ9RBOESZW8P7R3RCEFYC5OR", "current_trial": 128, "dateTime": 1510779424498, "trialdata": {"rt": -1, "stimulus": "<p id=\"stim\">GUITAR</p>", "key_press": -1, "type": "PRES_VIS", "word": "guitar", "wordID": 669, "conditions": [24, 1600, "v", 12000], "trial": 3, "serialpos": 11, "trial_type": "single-stim", "trial_index": 128, "time_elapsed": 2200944, "internal_node_id": "0.0-92.0"}}, {"uniqueid": "MTK0381:3I3WADAZ9RBOESZW8P7R3RCEFYC5OR", "current_trial": 129, "dateTime": 1510779427221, "trialdata": {"rt": -1, "stimulus": "<p id=\"stim\">COBRA</p>", "key_press": -1, "type": "PRES_VIS", "word": "cobra", "wordID": 335, "conditions": [24, 1600, "v", 12000], "trial": 3, "serialpos": 12, "trial_type": "single-stim", "trial_index": 129, "time_elapsed": 2203667, "internal_node_id": "0.0-93.0"}}, {"uniqueid": "MTK0381:3I3WADAZ9RBOESZW8P7R3RCEFYC5OR", "current_trial": 130, "dateTime": 1510779429858, "trialdata": {"rt": -1, "stimulus": "<p id=\"stim\">DRUG</p>", "key_press": -1, "type": "PRES_VIS", "word": "drug", "wordID": 500, "conditions": [24, 1600, "v", 12000], "trial": 3, "serialpos": 13, "trial_type": "single-stim", "trial_index": 130, "time_elapsed": 2206304, "internal_node_id": "0.0-94.0"}}, {"uniqueid": "MTK0381:3I3WADAZ9RBOESZW8P7R3RCEFYC5OR", "current_trial": 131, "dateTime": 1510779432356, "trialdata": {"rt": -1, "stimulus": "<p id=\"stim\">LADY</p>", "key_press": -1, "type": "PRES_VIS", "word": "lady", "wordID": 793, "conditions": [24, 1600, "v", 12000], "trial": 3, "serialpos": 14, "trial_type": "single-stim", "trial_index": 131, "time_elapsed": 2208802, "internal_node_id": "0.0-95.0"}}, {"uniqueid": "MTK0381:3I3WADAZ9RBOESZW8P7R3RCEFYC5OR", "current_trial": 132, "dateTime": 1510779435094, "trialdata": {"rt": -1, "stimulus": "<p id=\"stim\">CHEST</p>", "key_press": -1, "type": "PRES_VIS", "word": "chest", "wordID": 294, "conditions": [24, 1600, "v", 12000], "trial": 3, "serialpos": 15, "trial_type": "single-stim", "trial_index": 132, "time_elapsed": 2211540, "internal_node_id": "0.0-96.0"}}, {"uniqueid": "MTK0381:3I3WADAZ9RBOESZW8P7R3RCEFYC5OR", "current_trial": 133, "dateTime": 1510779437850, "trialdata": {"rt": -1, "stimulus": "<p id=\"stim\">SNACK</p>", "key_press": -1, "type": "PRES_VIS", "word": "snack", "wordID": 1330, "conditions": [24, 1600, "v", 12000], "trial": 3, "serialpos": 16, "trial_type": "single-stim", "trial_index": 133, "time_elapsed": 2214296, "internal_node_id": "0.0-97.0"}}, {"uniqueid": "MTK0381:3I3WADAZ9RBOESZW8P7R3RCEFYC5OR", "current_trial": 134, "dateTime": 1510779440538, "trialdata": {"rt": -1, "stimulus": "<p id=\"stim\">POPCORN</p>", "key_press": -1, "type": "PRES_VIS", "word": "popcorn", "wordID": 1103, "conditions": [24, 1600, "v", 12000], "trial": 3, "serialpos": 17, "trial_type": "single-stim", "trial_index": 134, "time_elapsed": 2216984, "internal_node_id": "0.0-98.0"}}, {"uniqueid": "MTK0381:3I3WADAZ9RBOESZW8P7R3RCEFYC5OR", "current_trial": 135, "dateTime": 1510779443064, "trialdata": {"rt": -1, "stimulus": "<p id=\"stim\">KEEPER</p>", "key_press": -1, "type": "PRES_VIS", "word": "keeper", "wordID": 768, "conditions": [24, 1600, "v", 12000], "trial": 3, "serialpos": 18, "trial_type": "single-stim", "trial_index": 135, "time_elapsed": 2219510, "internal_node_id": "0.0-99.0"}}, {"uniqueid": "MTK0381:3I3WADAZ9RBOESZW8P7R3RCEFYC5OR", "current_trial": 136, "dateTime": 1510779445630, "trialdata": {"rt": -1, "stimulus": "<p id=\"stim\">YACHT</p>", "key_press": -1, "type": "PRES_VIS", "word": "yacht", "wordID": 1628, "conditions": [24, 1600, "v", 12000], "trial": 3, "serialpos": 19, "trial_type": "single-stim", "trial_index": 136, "time_elapsed": 2222076, "internal_node_id": "0.0-100.0"}}, {"uniqueid": "MTK0381:3I3WADAZ9RBOESZW8P7R3RCEFYC5OR", "current_trial": 137, "dateTime": 1510779448203, "trialdata": {"rt": -1, "stimulus": "<p id=\"stim\">PUDDLE</p>", "key_press": -1, "type": "PRES_VIS", "word": "puddle", "wordID": 1139, "conditions": [24, 1600, "v", 12000], "trial": 3, "serialpos": 20, "trial_type": "single-stim", "trial_index": 137, "time_elapsed": 2224649, "internal_node_id": "0.0-101.0"}}, {"uniqueid": "MTK0381:3I3WADAZ9RBOESZW8P7R3RCEFYC5OR", "current_trial": 138, "dateTime": 1510779450618, "trialdata": {"rt": -1, "stimulus": "<p id=\"stim\">DRINK</p>", "key_press": -1, "type": "PRES_VIS", "word": "drink", "wordID": 497, "conditions": [24, 1600, "v", 12000], "trial": 3, "serialpos": 21, "trial_type": "single-stim", "trial_index": 138, "time_elapsed": 2227064, "internal_node_id": "0.0-102.0"}}, {"uniqueid": "MTK0381:3I3WADAZ9RBOESZW8P7R3RCEFYC5OR", "current_trial": 139, "dateTime": 1510779453059, "trialdata": {"rt": -1, "stimulus": "<p id=\"stim\">STOMACH</p>", "key_press": -1, "type": "PRES_VIS", "word": "stomach", "wordID": 1383, "conditions": [24, 1600, "v", 12000], "trial": 3, "serialpos": 22, "trial_type": "single-stim", "trial_index": 139, "time_elapsed": 2229505, "internal_node_id": "0.0-103.0"}}, {"uniqueid": "MTK0381:3I3WADAZ9RBOESZW8P7R3RCEFYC5OR", "current_trial": 140, "dateTime": 1510779455835, "trialdata": {"rt": -1, "stimulus": "<p id=\"stim\">CATCHER</p>", "key_press": -1, "type": "PRES_VIS", "word": "catcher", "wordID": 257, "conditions": [24, 1600, "v", 12000], "trial": 3, "serialpos": 23, "trial_type": "single-stim", "trial_index": 140, "time_elapsed": 2232281, "internal_node_id": "0.0-104.0"}}, {"uniqueid": "MTK0381:3I3WADAZ9RBOESZW8P7R3RCEFYC5OR", "current_trial": 141, "dateTime": 1510779458172, "trialdata": {"rt": -1, "stimulus": "", "key_press": -1, "type": "PRE_RECALL_DELAY", "trial_type": "single-stim", "trial_index": 141, "time_elapsed": 2234618, "internal_node_id": "0.0-105.0-0.0"}}, {"uniqueid": "MTK0381:3I3WADAZ9RBOESZW8P7R3RCEFYC5OR", "current_trial": 142, "dateTime": 1510779458673, "trialdata": {"rt": -1000, "stimulus": "/static/audio/400Hz.wav", "key_press": -1, "type": "PRE_RECALL_ALERT", "trial_type": "single-audio", "trial_index": 142, "time_elapsed": 2235119, "internal_node_id": "0.0-106.0"}}, {"uniqueid": "MTK0381:3I3WADAZ9RBOESZW8P7R3RCEFYC5OR", "current_trial": 143, "dateTime": 1510779518680, "trialdata": {"rt": [3132, 4574, 7209, 8639, 10765, 12183, 14889, 18735], "recwords": ["catcher", "drink", "stomach", "puddle", "popcorn", "diver", "flesh", "banquet"], "type": "FREE_RECALL", "conditions": [24, 1600, "v", 12000], "trial": 3, "trial_type": "free-recall", "trial_index": 143, "time_elapsed": 2295123, "internal_node_id": "0.0-107.0-0.0"}}, {"uniqueid": "MTK0381:3I3WADAZ9RBOESZW8P7R3RCEFYC5OR", "current_trial": 144, "dateTime": 1510779711678, "trialdata": {"rt": 190997, "key_press": 72, "type": "INSTRUCTIONS", "trial_type": "text", "trial_index": 144, "time_elapsed": 2488124, "internal_node_id": "0.0-108.0"}}, {"uniqueid": "MTK0381:3I3WADAZ9RBOESZW8P7R3RCEFYC5OR", "current_trial": 145, "dateTime": 1510779737680, "trialdata": {"rt": [5255, 8344, 13295, 17593, 23050], "responses": ["20", "13", "19", "6", "14"], "num1": [5, 5, 8, 1, 6, 2], "num2": [7, 2, 5, 2, 3, 5], "num3": [8, 6, 6, 3, 5, 9], "type": "DISTRACTOR", "conditions": [24, 1600, "a", 24000], "trial": 4, "trial_type": "math-distractor", "trial_index": 145, "time_elapsed": 2514125, "internal_node_id": "0.0-109.0"}}, {"uniqueid": "MTK0381:3I3WADAZ9RBOESZW8P7R3RCEFYC5OR", "current_trial": 146, "dateTime": 1510779740681, "trialdata": {"rt": -1, "stimulus": "<p id=\"stim\">10</p>", "key_press": -1, "trial_type": "single-stim", "trial_index": 146, "time_elapsed": 2517127, "internal_node_id": "0.0-110.0-0.0"}}, {"uniqueid": "MTK0381:3I3WADAZ9RBOESZW8P7R3RCEFYC5OR", "current_trial": 147, "dateTime": 1510779741682, "trialdata": {"rt": -1, "stimulus": "<p id=\"stim\">9</p>", "key_press": -1, "trial_type": "single-stim", "trial_index": 147, "time_elapsed": 2518128, "internal_node_id": "0.0-110.0-1.0"}}, {"uniqueid": "MTK0381:3I3WADAZ9RBOESZW8P7R3RCEFYC5OR", "current_trial": 148, "dateTime": 1510779742684, "trialdata": {"rt": -1, "stimulus": "<p id=\"stim\">8</p>", "key_press": -1, "trial_type": "single-stim", "trial_index": 148, "time_elapsed": 2519130, "internal_node_id": "0.0-110.0-2.0"}}, {"uniqueid": "MTK0381:3I3WADAZ9RBOESZW8P7R3RCEFYC5OR", "current_trial": 149, "dateTime": 1510779743686, "trialdata": {"rt": -1, "stimulus": "<p id=\"stim\">7</p>", "key_press": -1, "trial_type": "single-stim", "trial_index": 149, "time_elapsed": 2520132, "internal_node_id": "0.0-110.0-3.0"}}, {"uniqueid": "MTK0381:3I3WADAZ9RBOESZW8P7R3RCEFYC5OR", "current_trial": 150, "dateTime": 1510779744687, "trialdata": {"rt": -1, "stimulus": "<p id=\"stim\">6</p>", "key_press": -1, "trial_type": "single-stim", "trial_index": 150, "time_elapsed": 2521133, "internal_node_id": "0.0-110.0-4.0"}}, {"uniqueid": "MTK0381:3I3WADAZ9RBOESZW8P7R3RCEFYC5OR", "current_trial": 151, "dateTime": 1510779745688, "trialdata": {"rt": -1, "stimulus": "<p id=\"stim\">5</p>", "key_press": -1, "trial_type": "single-stim", "trial_index": 151, "time_elapsed": 2522134, "internal_node_id": "0.0-110.0-5.0"}}, {"uniqueid": "MTK0381:3I3WADAZ9RBOESZW8P7R3RCEFYC5OR", "current_trial": 152, "dateTime": 1510779746689, "trialdata": {"rt": -1, "stimulus": "<p id=\"stim\">4</p>", "key_press": -1, "trial_type": "single-stim", "trial_index": 152, "time_elapsed": 2523135, "internal_node_id": "0.0-110.0-6.0"}}, {"uniqueid": "MTK0381:3I3WADAZ9RBOESZW8P7R3RCEFYC5OR", "current_trial": 153, "dateTime": 1510779747690, "trialdata": {"rt": -1, "stimulus": "<p id=\"stim\">3</p>", "key_press": -1, "trial_type": "single-stim", "trial_index": 153, "time_elapsed": 2524136, "internal_node_id": "0.0-110.0-7.0"}}, {"uniqueid": "MTK0381:3I3WADAZ9RBOESZW8P7R3RCEFYC5OR", "current_trial": 154, "dateTime": 1510779748692, "trialdata": {"rt": -1, "stimulus": "<p id=\"stim\">2</p>", "key_press": -1, "trial_type": "single-stim", "trial_index": 154, "time_elapsed": 2525138, "internal_node_id": "0.0-110.0-8.0"}}, {"uniqueid": "MTK0381:3I3WADAZ9RBOESZW8P7R3RCEFYC5OR", "current_trial": 155, "dateTime": 1510779749695, "trialdata": {"rt": -1, "stimulus": "<p id=\"stim\">1</p>", "key_press": -1, "trial_type": "single-stim", "trial_index": 155, "time_elapsed": 2526140, "internal_node_id": "0.0-110.0-9.0"}}, {"uniqueid": "MTK0381:3I3WADAZ9RBOESZW8P7R3RCEFYC5OR", "current_trial": 156, "dateTime": 1510779751195, "trialdata": {"rt": -1, "stimulus": "<p id=\"stim\">+</p>", "key_press": -1, "type": "FIXATION", "trial_type": "single-stim", "trial_index": 156, "time_elapsed": 2527641, "internal_node_id": "0.0-111.0-0.0"}}, {"uniqueid": "MTK0381:3I3WADAZ9RBOESZW8P7R3RCEFYC5OR", "current_trial": 157, "dateTime": 1510779753759, "trialdata": {"rt": -1000, "stimulus": "/static/audio/wordpool/SAUSAGE.wav", "key_press": -1, "type": "PRES_AUD", "word": "sausage", "wordID": 1237, "conditions": [24, 1600, "a", 24000], "trial": 4, "serialpos": 0, "trial_type": "single-audio", "trial_index": 157, "time_elapsed": 2530205, "internal_node_id": "0.0-112.0"}}, {"uniqueid": "MTK0381:3I3WADAZ9RBOESZW8P7R3RCEFYC5OR", "current_trial": 158, "dateTime": 1510779756216, "trialdata": {"rt": -1000, "stimulus": "/static/audio/wordpool/HOSTESS.wav", "key_press": -1, "type": "PRES_AUD", "word": "hostess", "wordID": 722, "conditions": [24, 1600, "a", 24000], "trial": 4, "serialpos": 1, "trial_type": "single-audio", "trial_index": 158, "time_elapsed": 2532662, "internal_node_id": "0.0-113.0"}}, {"uniqueid": "MTK0381:3I3WADAZ9RBOESZW8P7R3RCEFYC5OR", "current_trial": 159, "dateTime": 1510779758743, "trialdata": {"rt": -1000, "stimulus": "/static/audio/wordpool/BRANDY.wav", "key_press": -1, "type": "PRES_AUD", "word": "brandy", "wordID": 168, "conditions": [24, 1600, "a", 24000], "trial": 4, "serialpos": 2, "trial_type": "single-audio", "trial_index": 159, "time_elapsed": 2535189, "internal_node_id": "0.0-114.0"}}, {"uniqueid": "MTK0381:3I3WADAZ9RBOESZW8P7R3RCEFYC5OR", "current_trial": 160, "dateTime": 1510779761207, "trialdata": {"rt": -1000, "stimulus": "/static/audio/wordpool/LIVER.wav", "key_press": -1, "type": "PRES_AUD", "word": "liver", "wordID": 832, "conditions": [24, 1600, "a", 24000], "trial": 4, "serialpos": 3, "trial_type": "single-audio", "trial_index": 160, "time_elapsed": 2537653, "internal_node_id": "0.0-115.0"}}, {"uniqueid": "MTK0381:3I3WADAZ9RBOESZW8P7R3RCEFYC5OR", "current_trial": 161, "dateTime": 1510779763611, "trialdata": {"rt": -1000, "stimulus": "/static/audio/wordpool/ROD.wav", "key_press": -1, "type": "PRES_AUD", "word": "rod", "wordID": 1202, "conditions": [24, 1600, "a", 24000], "trial": 4, "serialpos": 4, "trial_type": "single-audio", "trial_index": 161, "time_elapsed": 2540057, "internal_node_id": "0.0-116.0"}}, {"uniqueid": "MTK0381:3I3WADAZ9RBOESZW8P7R3RCEFYC5OR", "current_trial": 162, "dateTime": 1510779766350, "trialdata": {"rt": -1000, "stimulus": "/static/audio/wordpool/PLATE.wav", "key_press": -1, "type": "PRES_AUD", "word": "plate", "wordID": 1085, "conditions": [24, 1600, "a", 24000], "trial": 4, "serialpos": 5, "trial_type": "single-audio", "trial_index": 162, "time_elapsed": 2542796, "internal_node_id": "0.0-117.0"}}, {"uniqueid": "MTK0381:3I3WADAZ9RBOESZW8P7R3RCEFYC5OR", "current_trial": 163, "dateTime": 1510779769029, "trialdata": {"rt": -1000, "stimulus": "/static/audio/wordpool/TWISTER.wav", "key_press": -1, "type": "PRES_AUD", "word": "twister", "wordID": 1529, "conditions": [24, 1600, "a", 24000], "trial": 4, "serialpos": 6, "trial_type": "single-audio", "trial_index": 163, "time_elapsed": 2545475, "internal_node_id": "0.0-118.0"}}, {"uniqueid": "MTK0381:3I3WADAZ9RBOESZW8P7R3RCEFYC5OR", "current_trial": 164, "dateTime": 1510779771828, "trialdata": {"rt": -1000, "stimulus": "/static/audio/wordpool/TURTLE.wav", "key_press": -1, "type": "PRES_AUD", "word": "turtle", "wordID": 1521, "conditions": [24, 1600, "a", 24000], "trial": 4, "serialpos": 7, "trial_type": "single-audio", "trial_index": 164, "time_elapsed": 2548274, "internal_node_id": "0.0-119.0"}}, {"uniqueid": "MTK0381:3I3WADAZ9RBOESZW8P7R3RCEFYC5OR", "current_trial": 165, "dateTime": 1510779774414, "trialdata": {"rt": -1000, "stimulus": "/static/audio/wordpool/SNAKE.wav", "key_press": -1, "type": "PRES_AUD", "word": "snake", "wordID": 1332, "conditions": [24, 1600, "a", 24000], "trial": 4, "serialpos": 8, "trial_type": "single-audio", "trial_index": 165, "time_elapsed": 2550860, "internal_node_id": "0.0-120.0"}}, {"uniqueid": "MTK0381:3I3WADAZ9RBOESZW8P7R3RCEFYC5OR", "current_trial": 166, "dateTime": 1510779776952, "trialdata": {"rt": -1000, "stimulus": "/static/audio/wordpool/SANDWICH.wav", "key_press": -1, "type": "PRES_AUD", "word": "sandwich", "wordID": 1231, "conditions": [24, 1600, "a", 24000], "trial": 4, "serialpos": 9, "trial_type": "single-audio", "trial_index": 166, "time_elapsed": 2553398, "internal_node_id": "0.0-121.0"}}, {"uniqueid": "MTK0381:3I3WADAZ9RBOESZW8P7R3RCEFYC5OR", "current_trial": 167, "dateTime": 1510779779431, "trialdata": {"rt": -1000, "stimulus": "/static/audio/wordpool/OMELET.wav", "key_press": -1, "type": "PRES_AUD", "word": "omelet", "wordID": 975, "conditions": [24, 1600, "a", 24000], "trial": 4, "serialpos": 10, "trial_type": "single-audio", "trial_index": 167, "time_elapsed": 2555877, "internal_node_id": "0.0-122.0"}}, {"uniqueid": "MTK0381:3I3WADAZ9RBOESZW8P7R3RCEFYC5OR", "current_trial": 168, "dateTime": 1510779781970, "trialdata": {"rt": -1000, "stimulus": "/static/audio/wordpool/FRIEND.wav", "key_press": -1, "type": "PRES_AUD", "word": "friend", "wordID": 605, "conditions": [24, 1600, "a", 24000], "trial": 4, "serialpos": 11, "trial_type": "single-audio", "trial_index": 168, "time_elapsed": 2558416, "internal_node_id": "0.0-123.0"}}, {"uniqueid": "MTK0381:3I3WADAZ9RBOESZW8P7R3RCEFYC5OR", "current_trial": 169, "dateTime": 1510779784625, "trialdata": {"rt": -1000, "stimulus": "/static/audio/wordpool/MUFFIN.wav", "key_press": -1, "type": "PRES_AUD", "word": "muffin", "wordID": 928, "conditions": [24, 1600, "a", 24000], "trial": 4, "serialpos": 12, "trial_type": "single-audio", "trial_index": 169, "time_elapsed": 2561071, "internal_node_id": "0.0-124.0"}}, {"uniqueid": "MTK0381:3I3WADAZ9RBOESZW8P7R3RCEFYC5OR", "current_trial": 170, "dateTime": 1510779787327, "trialdata": {"rt": -1000, "stimulus": "/static/audio/wordpool/DENIM.wav", "key_press": -1, "type": "PRES_AUD", "word": "denim", "wordID": 445, "conditions": [24, 1600, "a", 24000], "trial": 4, "serialpos": 13, "trial_type": "single-audio", "trial_index": 170, "time_elapsed": 2563773, "internal_node_id": "0.0-125.0"}}, {"uniqueid": "MTK0381:3I3WADAZ9RBOESZW8P7R3RCEFYC5OR", "current_trial": 171, "dateTime": 1510779789829, "trialdata": {"rt": -1000, "stimulus": "/static/audio/wordpool/CABIN.wav", "key_press": -1, "type": "PRES_AUD", "word": "cabin", "wordID": 210, "conditions": [24, 1600, "a", 24000], "trial": 4, "serialpos": 14, "trial_type": "single-audio", "trial_index": 171, "time_elapsed": 2566275, "internal_node_id": "0.0-126.0"}}, {"uniqueid": "MTK0381:3I3WADAZ9RBOESZW8P7R3RCEFYC5OR", "current_trial": 172, "dateTime": 1510779792531, "trialdata": {"rt": -1000, "stimulus": "/static/audio/wordpool/PACKAGE.wav", "key_press": -1, "type": "PRES_AUD", "word": "package", "wordID": 996, "conditions": [24, 1600, "a", 24000], "trial": 4, "serialpos": 15, "trial_type": "single-audio", "trial_index": 172, "time_elapsed": 2568977, "internal_node_id": "0.0-127.0"}}, {"uniqueid": "MTK0381:3I3WADAZ9RBOESZW8P7R3RCEFYC5OR", "current_trial": 173, "dateTime": 1510779795006, "trialdata": {"rt": -1000, "stimulus": "/static/audio/wordpool/PASTRY.wav", "key_press": -1, "type": "PRES_AUD", "word": "pastry", "wordID": 1021, "conditions": [24, 1600, "a", 24000], "trial": 4, "serialpos": 16, "trial_type": "single-audio", "trial_index": 173, "time_elapsed": 2571452, "internal_node_id": "0.0-128.0"}}, {"uniqueid": "MTK0381:3I3WADAZ9RBOESZW8P7R3RCEFYC5OR", "current_trial": 174, "dateTime": 1510779797436, "trialdata": {"rt": -1000, "stimulus": "/static/audio/wordpool/HEADBAND.wav", "key_press": -1, "type": "PRES_AUD", "word": "headband", "wordID": 695, "conditions": [24, 1600, "a", 24000], "trial": 4, "serialpos": 17, "trial_type": "single-audio", "trial_index": 174, "time_elapsed": 2573882, "internal_node_id": "0.0-129.0"}}, {"uniqueid": "MTK0381:3I3WADAZ9RBOESZW8P7R3RCEFYC5OR", "current_trial": 175, "dateTime": 1510779800185, "trialdata": {"rt": -1000, "stimulus": "/static/audio/wordpool/MAPLE.wav", "key_press": -1, "type": "PRES_AUD", "word": "maple", "wordID": 865, "conditions": [24, 1600, "a", 24000], "trial": 4, "serialpos": 18, "trial_type": "single-audio", "trial_index": 175, "time_elapsed": 2576631, "internal_node_id": "0.0-130.0"}}, {"uniqueid": "MTK0381:3I3WADAZ9RBOESZW8P7R3RCEFYC5OR", "current_trial": 176, "dateTime": 1510779802957, "trialdata": {"rt": -1000, "stimulus": "/static/audio/wordpool/YARN.wav", "key_press": -1, "type": "PRES_AUD", "word": "yarn", "wordID": 1630, "conditions": [24, 1600, "a", 24000], "trial": 4, "serialpos": 19, "trial_type": "single-audio", "trial_index": 176, "time_elapsed": 2579403, "internal_node_id": "0.0-131.0"}}, {"uniqueid": "MTK0381:3I3WADAZ9RBOESZW8P7R3RCEFYC5OR", "current_trial": 177, "dateTime": 1510779805704, "trialdata": {"rt": -1000, "stimulus": "/static/audio/wordpool/ORANGE.wav", "key_press": -1, "type": "PRES_AUD", "word": "orange", "wordID": 979, "conditions": [24, 1600, "a", 24000], "trial": 4, "serialpos": 20, "trial_type": "single-audio", "trial_index": 177, "time_elapsed": 2582150, "internal_node_id": "0.0-132.0"}}, {"uniqueid": "MTK0381:3I3WADAZ9RBOESZW8P7R3RCEFYC5OR", "current_trial": 178, "dateTime": 1510779808377, "trialdata": {"rt": -1000, "stimulus": "/static/audio/wordpool/TROMBONE.wav", "key_press": -1, "type": "PRES_AUD", "word": "trombone", "wordID": 1507, "conditions": [24, 1600, "a", 24000], "trial": 4, "serialpos": 21, "trial_type": "single-audio", "trial_index": 178, "time_elapsed": 2584823, "internal_node_id": "0.0-133.0"}}, {"uniqueid": "MTK0381:3I3WADAZ9RBOESZW8P7R3RCEFYC5OR", "current_trial": 179, "dateTime": 1510779810891, "trialdata": {"rt": -1000, "stimulus": "/static/audio/wordpool/TOMBSTONE.wav", "key_press": -1, "type": "PRES_AUD", "word": "tombstone", "wordID": 1477, "conditions": [24, 1600, "a", 24000], "trial": 4, "serialpos": 22, "trial_type": "single-audio", "trial_index": 179, "time_elapsed": 2587337, "internal_node_id": "0.0-134.0"}}, {"uniqueid": "MTK0381:3I3WADAZ9RBOESZW8P7R3RCEFYC5OR", "current_trial": 180, "dateTime": 1510779813563, "trialdata": {"rt": -1000, "stimulus": "/static/audio/wordpool/CASKET.wav", "key_press": -1, "type": "PRES_AUD", "word": "casket", "wordID": 254, "conditions": [24, 1600, "a", 24000], "trial": 4, "serialpos": 23, "trial_type": "single-audio", "trial_index": 180, "time_elapsed": 2590009, "internal_node_id": "0.0-135.0"}}, {"uniqueid": "MTK0381:3I3WADAZ9RBOESZW8P7R3RCEFYC5OR", "current_trial": 181, "dateTime": 1510779814849, "trialdata": {"rt": -1, "stimulus": "", "key_press": -1, "type": "PRE_RECALL_DELAY", "trial_type": "single-stim", "trial_index": 181, "time_elapsed": 2591295, "internal_node_id": "0.0-136.0-0.0"}}, {"uniqueid": "MTK0381:3I3WADAZ9RBOESZW8P7R3RCEFYC5OR", "current_trial": 182, "dateTime": 1510779815352, "trialdata": {"rt": -1000, "stimulus": "/static/audio/400Hz.wav", "key_press": -1, "type": "PRE_RECALL_ALERT", "trial_type": "single-audio", "trial_index": 182, "time_elapsed": 2591795, "internal_node_id": "0.0-137.0"}}, {"uniqueid": "MTK0381:3I3WADAZ9RBOESZW8P7R3RCEFYC5OR", "current_trial": 183, "dateTime": 1510779875358, "trialdata": {"rt": [2894, 4370, 6451, 8975, 12123, 20973, 24032, 27896, 38212, 46336, 56961], "recwords": ["brandy", "liver", "sausage", "sandwich", "pastry", "cabin", "tombstone", "trambone", "casket", "orange", "omelette"], "type": "FREE_RECALL", "conditions": [24, 1600, "a", 24000], "trial": 4, "trial_type": "free-recall", "trial_index": 183, "time_elapsed": 2651801, "internal_node_id": "0.0-138.0-0.0"}}, {"uniqueid": "MTK0381:3I3WADAZ9RBOESZW8P7R3RCEFYC5OR", "current_trial": 184, "dateTime": 1510779878777, "trialdata": {"rt": 1419, "key_press": 74, "type": "INSTRUCTIONS", "trial_type": "text", "trial_index": 184, "time_elapsed": 2655223, "internal_node_id": "0.0-139.0"}}, {"uniqueid": "MTK0381:3I3WADAZ9RBOESZW8P7R3RCEFYC5OR", "current_trial": 185, "dateTime": 1510779892781, "trialdata": {"rt": [2956, 5750, 9616], "responses": ["16", "18", "10"], "num1": [2, 8, 6, 9], "num2": [8, 8, 1, 9], "num3": [6, 2, 3, 8], "type": "DISTRACTOR", "conditions": [12, 800, "a", 12000], "trial": 5, "trial_type": "math-distractor", "trial_index": 185, "time_elapsed": 2669226, "internal_node_id": "0.0-140.0"}}, {"uniqueid": "MTK0381:3I3WADAZ9RBOESZW8P7R3RCEFYC5OR", "current_trial": 186, "dateTime": 1510779895781, "trialdata": {"rt": -1, "stimulus": "<p id=\"stim\">10</p>", "key_press": -1, "trial_type": "single-stim", "trial_index": 186, "time_elapsed": 2672227, "internal_node_id": "0.0-141.0-0.0"}}, {"uniqueid": "MTK0381:3I3WADAZ9RBOESZW8P7R3RCEFYC5OR", "current_trial": 187, "dateTime": 1510779896783, "trialdata": {"rt": -1, "stimulus": "<p id=\"stim\">9</p>", "key_press": -1, "trial_type": "single-stim", "trial_index": 187, "time_elapsed": 2673229, "internal_node_id": "0.0-141.0-1.0"}}, {"uniqueid": "MTK0381:3I3WADAZ9RBOESZW8P7R3RCEFYC5OR", "current_trial": 188, "dateTime": 1510779897783, "trialdata": {"rt": -1, "stimulus": "<p id=\"stim\">8</p>", "key_press": -1, "trial_type": "single-stim", "trial_index": 188, "time_elapsed": 2674229, "internal_node_id": "0.0-141.0-2.0"}}, {"uniqueid": "MTK0381:3I3WADAZ9RBOESZW8P7R3RCEFYC5OR", "current_trial": 189, "dateTime": 1510779898786, "trialdata": {"rt": -1, "stimulus": "<p id=\"stim\">7</p>", "key_press": -1, "trial_type": "single-stim", "trial_index": 189, "time_elapsed": 2675231, "internal_node_id": "0.0-141.0-3.0"}}, {"uniqueid": "MTK0381:3I3WADAZ9RBOESZW8P7R3RCEFYC5OR", "current_trial": 190, "dateTime": 1510779899786, "trialdata": {"rt": -1, "stimulus": "<p id=\"stim\">6</p>", "key_press": -1, "trial_type": "single-stim", "trial_index": 190, "time_elapsed": 2676232, "internal_node_id": "0.0-141.0-4.0"}}, {"uniqueid": "MTK0381:3I3WADAZ9RBOESZW8P7R3RCEFYC5OR", "current_trial": 191, "dateTime": 1510779900787, "trialdata": {"rt": -1, "stimulus": "<p id=\"stim\">5</p>", "key_press": -1, "trial_type": "single-stim", "trial_index": 191, "time_elapsed": 2677233, "internal_node_id": "0.0-141.0-5.0"}}, {"uniqueid": "MTK0381:3I3WADAZ9RBOESZW8P7R3RCEFYC5OR", "current_trial": 192, "dateTime": 1510779901787, "trialdata": {"rt": -1, "stimulus": "<p id=\"stim\">4</p>", "key_press": -1, "trial_type": "single-stim", "trial_index": 192, "time_elapsed": 2678233, "internal_node_id": "0.0-141.0-6.0"}}, {"uniqueid": "MTK0381:3I3WADAZ9RBOESZW8P7R3RCEFYC5OR", "current_trial": 193, "dateTime": 1510779902788, "trialdata": {"rt": -1, "stimulus": "<p id=\"stim\">3</p>", "key_press": -1, "trial_type": "single-stim", "trial_index": 193, "time_elapsed": 2679234, "internal_node_id": "0.0-141.0-7.0"}}, {"uniqueid": "MTK0381:3I3WADAZ9RBOESZW8P7R3RCEFYC5OR", "current_trial": 194, "dateTime": 1510779903791, "trialdata": {"rt": -1, "stimulus": "<p id=\"stim\">2</p>", "key_press": -1, "trial_type": "single-stim", "trial_index": 194, "time_elapsed": 2680236, "internal_node_id": "0.0-141.0-8.0"}}, {"uniqueid": "MTK0381:3I3WADAZ9RBOESZW8P7R3RCEFYC5OR", "current_trial": 195, "dateTime": 1510779904791, "trialdata": {"rt": -1, "stimulus": "<p id=\"stim\">1</p>", "key_press": -1, "trial_type": "single-stim", "trial_index": 195, "time_elapsed": 2681237, "internal_node_id": "0.0-141.0-9.0"}}, {"uniqueid": "MTK0381:3I3WADAZ9RBOESZW8P7R3RCEFYC5OR", "current_trial": 196, "dateTime": 1510779906292, "trialdata": {"rt": -1, "stimulus": "<p id=\"stim\">+</p>", "key_press": -1, "type": "FIXATION", "trial_type": "single-stim", "trial_index": 196, "time_elapsed": 2682738, "internal_node_id": "0.0-142.0-0.0"}}, {"uniqueid": "MTK0381:3I3WADAZ9RBOESZW8P7R3RCEFYC5OR", "current_trial": 197, "dateTime": 1510779908026, "trialdata": {"rt": -1000, "stimulus": "/static/audio/wordpool/COUSIN.wav", "key_press": -1, "type": "PRES_AUD", "word": "cousin", "wordID": 391, "conditions": [12, 800, "a", 12000], "trial": 5, "serialpos": 0, "trial_type": "single-audio", "trial_index": 197, "time_elapsed": 2684472, "internal_node_id": "0.0-143.0"}}, {"uniqueid": "MTK0381:3I3WADAZ9RBOESZW8P7R3RCEFYC5OR", "current_trial": 198, "dateTime": 1510779909779, "trialdata": {"rt": -1000, "stimulus": "/static/audio/wordpool/WAITER.wav", "key_press": -1, "type": "PRES_AUD", "word": "waiter", "wordID": 1579, "conditions": [12, 800, "a", 12000], "trial": 5, "serialpos": 1, "trial_type": "single-audio", "trial_index": 198, "time_elapsed": 2686225, "internal_node_id": "0.0-144.0"}}, {"uniqueid": "MTK0381:3I3WADAZ9RBOESZW8P7R3RCEFYC5OR", "current_trial": 199, "dateTime": 1510779911496, "trialdata": {"rt": -1000, "stimulus": "/static/audio/wordpool/BLADE.wav", "key_press": -1, "type": "PRES_AUD", "word": "blade", "wordID": 133, "conditions": [12, 800, "a", 12000], "trial": 5, "serialpos": 2, "trial_type": "single-audio", "trial_index": 199, "time_elapsed": 2687942, "internal_node_id": "0.0-145.0"}}, {"uniqueid": "MTK0381:3I3WADAZ9RBOESZW8P7R3RCEFYC5OR", "current_trial": 200, "dateTime": 1510779913488, "trialdata": {"rt": -1000, "stimulus": "/static/audio/wordpool/RELISH.wav", "key_press": -1, "type": "PRES_AUD", "word": "relish", "wordID": 1182, "conditions": [12, 800, "a", 12000], "trial": 5, "serialpos": 3, "trial_type": "single-audio", "trial_index": 200, "time_elapsed": 2689934, "internal_node_id": "0.0-146.0"}}, {"uniqueid": "MTK0381:3I3WADAZ9RBOESZW8P7R3RCEFYC5OR", "current_trial": 201, "dateTime": 1510779915390, "trialdata": {"rt": -1000, "stimulus": "/static/audio/wordpool/FIDDLE.wav", "key_press": -1, "type": "PRES_AUD", "word": "fiddle", "wordID": 560, "conditions": [12, 800, "a", 12000], "trial": 5, "serialpos": 4, "trial_type": "single-audio", "trial_index": 201, "time_elapsed": 2691836, "internal_node_id": "0.0-147.0"}}, {"uniqueid": "MTK0381:3I3WADAZ9RBOESZW8P7R3RCEFYC5OR", "current_trial": 202, "dateTime": 1510779917375, "trialdata": {"rt": -1000, "stimulus": "/static/audio/wordpool/SIBLING.wav", "key_press": -1, "type": "PRES_AUD", "word": "sibling", "wordID": 1300, "conditions": [12, 800, "a", 12000], "trial": 5, "serialpos": 5, "trial_type": "single-audio", "trial_index": 202, "time_elapsed": 2693821, "internal_node_id": "0.0-148.0"}}, {"uniqueid": "MTK0381:3I3WADAZ9RBOESZW8P7R3RCEFYC5OR", "current_trial": 203, "dateTime": 1510779919186, "trialdata": {"rt": -1000, "stimulus": "/static/audio/wordpool/RECEIPT.wav", "key_press": -1, "type": "PRES_AUD", "word": "receipt", "wordID": 1172, "conditions": [12, 800, "a", 12000], "trial": 5, "serialpos": 6, "trial_type": "single-audio", "trial_index": 203, "time_elapsed": 2695632, "internal_node_id": "0.0-149.0"}}, {"uniqueid": "MTK0381:3I3WADAZ9RBOESZW8P7R3RCEFYC5OR", "current_trial": 204, "dateTime": 1510779921136, "trialdata": {"rt": -1000, "stimulus": "/static/audio/wordpool/SALMON.wav", "key_press": -1, "type": "PRES_AUD", "word": "salmon", "wordID": 1226, "conditions": [12, 800, "a", 12000], "trial": 5, "serialpos": 7, "trial_type": "single-audio", "trial_index": 204, "time_elapsed": 2697582, "internal_node_id": "0.0-150.0"}}, {"uniqueid": "MTK0381:3I3WADAZ9RBOESZW8P7R3RCEFYC5OR", "current_trial": 205, "dateTime": 1510779922938, "trialdata": {"rt": -1000, "stimulus": "/static/audio/wordpool/CRAB.wav", "key_press": -1, "type": "PRES_AUD", "word": "crab", "wordID": 396, "conditions": [12, 800, "a", 12000], "trial": 5, "serialpos": 8, "trial_type": "single-audio", "trial_index": 205, "time_elapsed": 2699384, "internal_node_id": "0.0-151.0"}}, {"uniqueid": "MTK0381:3I3WADAZ9RBOESZW8P7R3RCEFYC5OR", "current_trial": 206, "dateTime": 1510779924640, "trialdata": {"rt": -1000, "stimulus": "/static/audio/wordpool/LEADER.wav", "key_press": -1, "type": "PRES_AUD", "word": "leader", "wordID": 806, "conditions": [12, 800, "a", 12000], "trial": 5, "serialpos": 9, "trial_type": "single-audio", "trial_index": 206, "time_elapsed": 2701086, "internal_node_id": "0.0-152.0"}}, {"uniqueid": "MTK0381:3I3WADAZ9RBOESZW8P7R3RCEFYC5OR", "current_trial": 207, "dateTime": 1510779926469, "trialdata": {"rt": -1000, "stimulus": "/static/audio/wordpool/ELBOW.wav", "key_press": -1, "type": "PRES_AUD", "word": "elbow", "wordID": 519, "conditions": [12, 800, "a", 12000], "trial": 5, "serialpos": 10, "trial_type": "single-audio", "trial_index": 207, "time_elapsed": 2702915, "internal_node_id": "0.0-153.0"}}, {"uniqueid": "MTK0381:3I3WADAZ9RBOESZW8P7R3RCEFYC5OR", "current_trial": 208, "dateTime": 1510779928221, "trialdata": {"rt": -1000, "stimulus": "/static/audio/wordpool/FARMER.wav", "key_press": -1, "type": "PRES_AUD", "word": "farmer", "wordID": 552, "conditions": [12, 800, "a", 12000], "trial": 5, "serialpos": 11, "trial_type": "single-audio", "trial_index": 208, "time_elapsed": 2704667, "internal_node_id": "0.0-154.0"}}, {"uniqueid": "MTK0381:3I3WADAZ9RBOESZW8P7R3RCEFYC5OR", "current_trial": 209, "dateTime": 1510779929526, "trialdata": {"rt": -1, "stimulus": "", "key_press": -1, "type": "PRE_RECALL_DELAY", "trial_type": "single-stim", "trial_index": 209, "time_elapsed": 2705972, "internal_node_id": "0.0-155.0-0.0"}}, {"uniqueid": "MTK0381:3I3WADAZ9RBOESZW8P7R3RCEFYC5OR", "current_trial": 210, "dateTime": 1510779930033, "trialdata": {"rt": -1000, "stimulus": "/static/audio/400Hz.wav", "key_press": -1, "type": "PRE_RECALL_ALERT", "trial_type": "single-audio", "trial_index": 210, "time_elapsed": 2706479, "internal_node_id": "0.0-156.0"}}, {"uniqueid": "MTK0381:3I3WADAZ9RBOESZW8P7R3RCEFYC5OR", "current_trial": 211, "dateTime": 1510779990038, "trialdata": {"rt": [1817, 3520, 4978, 7129, 14268, 19405, 47844], "recwords": ["farmer", "waiter", "sister", "cousin", "crab", "elbow", "twister"], "type": "FREE_RECALL", "conditions": [12, 800, "a", 12000], "trial": 5, "trial_type": "free-recall", "trial_index": 211, "time_elapsed": 2766481, "internal_node_id": "0.0-157.0-0.0"}}, {"uniqueid": "MTK0381:3I3WADAZ9RBOESZW8P7R3RCEFYC5OR", "current_trial": 212, "dateTime": 1510779996574, "trialdata": {"rt": 4534, "key_press": 74, "type": "INSTRUCTIONS", "trial_type": "text", "trial_index": 212, "time_elapsed": 2773019, "internal_node_id": "0.0-158.0"}}, {"uniqueid": "MTK0381:3I3WADAZ9RBOESZW8P7R3RCEFYC5OR", "current_trial": 213, "dateTime": 1510780010578, "trialdata": {"rt": [3159, 7865, 10917], "responses": ["16", "15", "18"], "num1": [5, 3, 6, 8], "num2": [6, 8, 7, 5], "num3": [5, 4, 5, 3], "type": "DISTRACTOR", "conditions": [24, 800, "v", 12000], "trial": 6, "trial_type": "math-distractor", "trial_index": 213, "time_elapsed": 2787024, "internal_node_id": "0.0-159.0"}}, {"uniqueid": "MTK0381:3I3WADAZ9RBOESZW8P7R3RCEFYC5OR", "current_trial": 214, "dateTime": 1510780013578, "trialdata": {"rt": -1, "stimulus": "<p id=\"stim\">10</p>", "key_press": -1, "trial_type": "single-stim", "trial_index": 214, "time_elapsed": 2790024, "internal_node_id": "0.0-160.0-0.0"}}, {"uniqueid": "MTK0381:3I3WADAZ9RBOESZW8P7R3RCEFYC5OR", "current_trial": 215, "dateTime": 1510780014580, "trialdata": {"rt": -1, "stimulus": "<p id=\"stim\">9</p>", "key_press": -1, "trial_type": "single-stim", "trial_index": 215, "time_elapsed": 2791026, "internal_node_id": "0.0-160.0-1.0"}}, {"uniqueid": "MTK0381:3I3WADAZ9RBOESZW8P7R3RCEFYC5OR", "current_trial": 216, "dateTime": 1510780015581, "trialdata": {"rt": -1, "stimulus": "<p id=\"stim\">8</p>", "key_press": -1, "trial_type": "single-stim", "trial_index": 216, "time_elapsed": 2792027, "internal_node_id": "0.0-160.0-2.0"}}, {"uniqueid": "MTK0381:3I3WADAZ9RBOESZW8P7R3RCEFYC5OR", "current_trial": 217, "dateTime": 1510780016582, "trialdata": {"rt": -1, "stimulus": "<p id=\"stim\">7</p>", "key_press": -1, "trial_type": "single-stim", "trial_index": 217, "time_elapsed": 2793028, "internal_node_id": "0.0-160.0-3.0"}}, {"uniqueid": "MTK0381:3I3WADAZ9RBOESZW8P7R3RCEFYC5OR", "current_trial": 218, "dateTime": 1510780017585, "trialdata": {"rt": -1, "stimulus": "<p id=\"stim\">6</p>", "key_press": -1, "trial_type": "single-stim", "trial_index": 218, "time_elapsed": 2794029, "internal_node_id": "0.0-160.0-4.0"}}, {"uniqueid": "MTK0381:3I3WADAZ9RBOESZW8P7R3RCEFYC5OR", "current_trial": 219, "dateTime": 1510780018586, "trialdata": {"rt": -1, "stimulus": "<p id=\"stim\">5</p>", "key_press": -1, "trial_type": "single-stim", "trial_index": 219, "time_elapsed": 2795032, "internal_node_id": "0.0-160.0-5.0"}}, {"uniqueid": "MTK0381:3I3WADAZ9RBOESZW8P7R3RCEFYC5OR", "current_trial": 220, "dateTime": 1510780019586, "trialdata": {"rt": -1, "stimulus": "<p id=\"stim\">4</p>", "key_press": -1, "trial_type": "single-stim", "trial_index": 220, "time_elapsed": 2796032, "internal_node_id": "0.0-160.0-6.0"}}, {"uniqueid": "MTK0381:3I3WADAZ9RBOESZW8P7R3RCEFYC5OR", "current_trial": 221, "dateTime": 1510780020587, "trialdata": {"rt": -1, "stimulus": "<p id=\"stim\">3</p>", "key_press": -1, "trial_type": "single-stim", "trial_index": 221, "time_elapsed": 2797033, "internal_node_id": "0.0-160.0-7.0"}}, {"uniqueid": "MTK0381:3I3WADAZ9RBOESZW8P7R3RCEFYC5OR", "current_trial": 222, "dateTime": 1510780021588, "trialdata": {"rt": -1, "stimulus": "<p id=\"stim\">2</p>", "key_press": -1, "trial_type": "single-stim", "trial_index": 222, "time_elapsed": 2798034, "internal_node_id": "0.0-160.0-8.0"}}, {"uniqueid": "MTK0381:3I3WADAZ9RBOESZW8P7R3RCEFYC5OR", "current_trial": 223, "dateTime": 1510780022589, "trialdata": {"rt": -1, "stimulus": "<p id=\"stim\">1</p>", "key_press": -1, "trial_type": "single-stim", "trial_index": 223, "time_elapsed": 2799035, "internal_node_id": "0.0-160.0-9.0"}}, {"uniqueid": "MTK0381:3I3WADAZ9RBOESZW8P7R3RCEFYC5OR", "current_trial": 224, "dateTime": 1510780024091, "trialdata": {"rt": -1, "stimulus": "<p id=\"stim\">+</p>", "key_press": -1, "type": "FIXATION", "trial_type": "single-stim", "trial_index": 224, "time_elapsed": 2800537, "internal_node_id": "0.0-161.0-0.0"}}, {"uniqueid": "MTK0381:3I3WADAZ9RBOESZW8P7R3RCEFYC5OR", "current_trial": 225, "dateTime": 1510780024893, "trialdata": {"rt": -1, "stimulus": "<p id=\"stim\">CIGAR</p>", "key_press": -1, "type": "PRES_VIS", "word": "cigar", "wordID": 307, "conditions": [24, 800, "v", 12000], "trial": 6, "serialpos": 0, "trial_type": "single-stim", "trial_index": 225, "time_elapsed": 2801339, "internal_node_id": "0.0-162.0"}}, {"uniqueid": "MTK0381:3I3WADAZ9RBOESZW8P7R3RCEFYC5OR", "current_trial": 226, "dateTime": 1510780026519, "trialdata": {"rt": -1, "stimulus": "<p id=\"stim\">TRANSPLANT</p>", "key_press": -1, "type": "PRES_VIS", "word": "transplant", "wordID": 1495, "conditions": [24, 800, "v", 12000], "trial": 6, "serialpos": 1, "trial_type": "single-stim", "trial_index": 226, "time_elapsed": 2802965, "internal_node_id": "0.0-163.0"}}, {"uniqueid": "MTK0381:3I3WADAZ9RBOESZW8P7R3RCEFYC5OR", "current_trial": 227, "dateTime": 1510780028390, "trialdata": {"rt": -1, "stimulus": "<p id=\"stim\">BRICK</p>", "key_press": -1, "type": "PRES_VIS", "word": "brick", "wordID": 171, "conditions": [24, 800, "v", 12000], "trial": 6, "serialpos": 2, "trial_type": "single-stim", "trial_index": 227, "time_elapsed": 2804835, "internal_node_id": "0.0-164.0"}}, {"uniqueid": "MTK0381:3I3WADAZ9RBOESZW8P7R3RCEFYC5OR", "current_trial": 228, "dateTime": 1510780030242, "trialdata": {"rt": -1, "stimulus": "<p id=\"stim\">STONE</p>", "key_press": -1, "type": "PRES_VIS", "word": "stone", "wordID": 1384, "conditions": [24, 800, "v", 12000], "trial": 6, "serialpos": 3, "trial_type": "single-stim", "trial_index": 228, "time_elapsed": 2806688, "internal_node_id": "0.0-165.0"}}, {"uniqueid": "MTK0381:3I3WADAZ9RBOESZW8P7R3RCEFYC5OR", "current_trial": 229, "dateTime": 1510780031906, "trialdata": {"rt": -1, "stimulus": "<p id=\"stim\">MAMMAL</p>", "key_press": -1, "type": "PRES_VIS", "word": "mammal", "wordID": 860, "conditions": [24, 800, "v", 12000], "trial": 6, "serialpos": 4, "trial_type": "single-stim", "trial_index": 229, "time_elapsed": 2808352, "internal_node_id": "0.0-166.0"}}, {"uniqueid": "MTK0381:3I3WADAZ9RBOESZW8P7R3RCEFYC5OR", "current_trial": 230, "dateTime": 1510780033867, "trialdata": {"rt": -1, "stimulus": "<p id=\"stim\">GARLIC</p>", "key_press": -1, "type": "PRES_VIS", "word": "garlic", "wordID": 623, "conditions": [24, 800, "v", 12000], "trial": 6, "serialpos": 5, "trial_type": "single-stim", "trial_index": 230, "time_elapsed": 2810313, "internal_node_id": "0.0-167.0"}}, {"uniqueid": "MTK0381:3I3WADAZ9RBOESZW8P7R3RCEFYC5OR", "current_trial": 231, "dateTime": 1510780035488, "trialdata": {"rt": -1, "stimulus": "<p id=\"stim\">FEMALE</p>", "key_press": -1, "type": "PRES_VIS", "word": "female", "wordID": 558, "conditions": [24, 800, "v", 12000], "trial": 6, "serialpos": 6, "trial_type": "single-stim", "trial_index": 231, "time_elapsed": 2811934, "internal_node_id": "0.0-168.0"}}, {"uniqueid": "MTK0381:3I3WADAZ9RBOESZW8P7R3RCEFYC5OR", "current_trial": 232, "dateTime": 1510780037216, "trialdata": {"rt": -1, "stimulus": "<p id=\"stim\">PUPPY</p>", "key_press": -1, "type": "PRES_VIS", "word": "puppy", "wordID": 1143, "conditions": [24, 800, "v", 12000], "trial": 6, "serialpos": 7, "trial_type": "single-stim", "trial_index": 232, "time_elapsed": 2813662, "internal_node_id": "0.0-169.0"}}, {"uniqueid": "MTK0381:3I3WADAZ9RBOESZW8P7R3RCEFYC5OR", "current_trial": 233, "dateTime": 1510780038885, "trialdata": {"rt": -1, "stimulus": "<p id=\"stim\">ULCER</p>", "key_press": -1, "type": "PRES_VIS", "word": "ulcer", "wordID": 1532, "conditions": [24, 800, "v", 12000], "trial": 6, "serialpos": 8, "trial_type": "single-stim", "trial_index": 233, "time_elapsed": 2815331, "internal_node_id": "0.0-170.0"}}, {"uniqueid": "MTK0381:3I3WADAZ9RBOESZW8P7R3RCEFYC5OR", "current_trial": 234, "dateTime": 1510780040670, "trialdata": {"rt": -1, "stimulus": "<p id=\"stim\">SKETCH</p>", "key_press": -1, "type": "PRES_VIS", "word": "sketch", "wordID": 1314, "conditions": [24, 800, "v", 12000], "trial": 6, "serialpos": 9, "trial_type": "single-stim", "trial_index": 234, "time_elapsed": 2817116, "internal_node_id": "0.0-171.0"}}, {"uniqueid": "MTK0381:3I3WADAZ9RBOESZW8P7R3RCEFYC5OR", "current_trial": 235, "dateTime": 1510780042290, "trialdata": {"rt": -1, "stimulus": "<p id=\"stim\">SUNSET</p>", "key_press": -1, "type": "PRES_VIS", "word": "sunset", "wordID": 1407, "conditions": [24, 800, "v", 12000], "trial": 6, "serialpos": 10, "trial_type": "single-stim", "trial_index": 235, "time_elapsed": 2818736, "internal_node_id": "0.0-172.0"}}, {"uniqueid": "MTK0381:3I3WADAZ9RBOESZW8P7R3RCEFYC5OR", "current_trial": 236, "dateTime": 1510780044000, "trialdata": {"rt": -1, "stimulus": "<p id=\"stim\">SALAD</p>", "key_press": -1, "type": "PRES_VIS", "word": "salad", "wordID": 1223, "conditions": [24, 800, "v", 12000], "trial": 6, "serialpos": 11, "trial_type": "single-stim", "trial_index": 236, "time_elapsed": 2820446, "internal_node_id": "0.0-173.0"}}, {"uniqueid": "MTK0381:3I3WADAZ9RBOESZW8P7R3RCEFYC5OR", "current_trial": 237, "dateTime": 1510780045827, "trialdata": {"rt": -1, "stimulus": "<p id=\"stim\">SIDEWALK</p>", "key_press": -1, "type": "PRES_VIS", "word": "sidewalk", "wordID": 1302, "conditions": [24, 800, "v", 12000], "trial": 6, "serialpos": 12, "trial_type": "single-stim", "trial_index": 237, "time_elapsed": 2822273, "internal_node_id": "0.0-174.0"}}, {"uniqueid": "MTK0381:3I3WADAZ9RBOESZW8P7R3RCEFYC5OR", "current_trial": 238, "dateTime": 1510780047446, "trialdata": {"rt": -1, "stimulus": "<p id=\"stim\">CHURCH</p>", "key_press": -1, "type": "PRES_VIS", "word": "church", "wordID": 306, "conditions": [24, 800, "v", 12000], "trial": 6, "serialpos": 13, "trial_type": "single-stim", "trial_index": 238, "time_elapsed": 2823892, "internal_node_id": "0.0-175.0"}}, {"uniqueid": "MTK0381:3I3WADAZ9RBOESZW8P7R3RCEFYC5OR", "current_trial": 239, "dateTime": 1510780049200, "trialdata": {"rt": -1, "stimulus": "<p id=\"stim\">MOTEL</p>", "key_press": -1, "type": "PRES_VIS", "word": "motel", "wordID": 918, "conditions": [24, 800, "v", 12000], "trial": 6, "serialpos": 14, "trial_type": "single-stim", "trial_index": 239, "time_elapsed": 2825646, "internal_node_id": "0.0-176.0"}}, {"uniqueid": "MTK0381:3I3WADAZ9RBOESZW8P7R3RCEFYC5OR", "current_trial": 240, "dateTime": 1510780051098, "trialdata": {"rt": -1, "stimulus": "<p id=\"stim\">BINDER</p>", "key_press": -1, "type": "PRES_VIS", "word": "binder", "wordID": 126, "conditions": [24, 800, "v", 12000], "trial": 6, "serialpos": 15, "trial_type": "single-stim", "trial_index": 240, "time_elapsed": 2827544, "internal_node_id": "0.0-177.0"}}, {"uniqueid": "MTK0381:3I3WADAZ9RBOESZW8P7R3RCEFYC5OR", "current_trial": 241, "dateTime": 1510780052989, "trialdata": {"rt": -1, "stimulus": "<p id=\"stim\">LASER</p>", "key_press": -1, "type": "PRES_VIS", "word": "laser", "wordID": 800, "conditions": [24, 800, "v", 12000], "trial": 6, "serialpos": 16, "trial_type": "single-stim", "trial_index": 241, "time_elapsed": 2829435, "internal_node_id": "0.0-178.0"}}, {"uniqueid": "MTK0381:3I3WADAZ9RBOESZW8P7R3RCEFYC5OR", "current_trial": 242, "dateTime": 1510780054840, "trialdata": {"rt": -1, "stimulus": "<p id=\"stim\">THREAD</p>", "key_press": -1, "type": "PRES_VIS", "word": "thread", "wordID": 1459, "conditions": [24, 800, "v", 12000], "trial": 6, "serialpos": 17, "trial_type": "single-stim", "trial_index": 242, "time_elapsed": 2831286, "internal_node_id": "0.0-179.0"}}, {"uniqueid": "MTK0381:3I3WADAZ9RBOESZW8P7R3RCEFYC5OR", "current_trial": 243, "dateTime": 1510780056516, "trialdata": {"rt": -1, "stimulus": "<p id=\"stim\">MILDEW</p>", "key_press": -1, "type": "PRES_VIS", "word": "mildew", "wordID": 892, "conditions": [24, 800, "v", 12000], "trial": 6, "serialpos": 18, "trial_type": "single-stim", "trial_index": 243, "time_elapsed": 2832962, "internal_node_id": "0.0-180.0"}}, {"uniqueid": "MTK0381:3I3WADAZ9RBOESZW8P7R3RCEFYC5OR", "current_trial": 244, "dateTime": 1510780058172, "trialdata": {"rt": -1, "stimulus": "<p id=\"stim\">PREACHER</p>", "key_press": -1, "type": "PRES_VIS", "word": "preacher", "wordID": 1118, "conditions": [24, 800, "v", 12000], "trial": 6, "serialpos": 19, "trial_type": "single-stim", "trial_index": 244, "time_elapsed": 2834618, "internal_node_id": "0.0-181.0"}}, {"uniqueid": "MTK0381:3I3WADAZ9RBOESZW8P7R3RCEFYC5OR", "current_trial": 245, "dateTime": 1510780059998, "trialdata": {"rt": -1, "stimulus": "<p id=\"stim\">PLAZA</p>", "key_press": -1, "type": "PRES_VIS", "word": "plaza", "wordID": 1087, "conditions": [24, 800, "v", 12000], "trial": 6, "serialpos": 20, "trial_type": "single-stim", "trial_index": 245, "time_elapsed": 2836444, "internal_node_id": "0.0-182.0"}}, {"uniqueid": "MTK0381:3I3WADAZ9RBOESZW8P7R3RCEFYC5OR", "current_trial": 246, "dateTime": 1510780061620, "trialdata": {"rt": -1, "stimulus": "<p id=\"stim\">STUDENT</p>", "key_press": -1, "type": "PRES_VIS", "word": "student", "wordID": 1394, "conditions": [24, 800, "v", 12000], "trial": 6, "serialpos": 21, "trial_type": "single-stim", "trial_index": 246, "time_elapsed": 2838066, "internal_node_id": "0.0-183.0"}}, {"uniqueid": "MTK0381:3I3WADAZ9RBOESZW8P7R3RCEFYC5OR", "current_trial": 247, "dateTime": 1510780063425, "trialdata": {"rt": -1, "stimulus": "<p id=\"stim\">COLLEGE</p>", "key_press": -1, "type": "PRES_VIS", "word": "college", "wordID": 345, "conditions": [24, 800, "v", 12000], "trial": 6, "serialpos": 22, "trial_type": "single-stim", "trial_index": 247, "time_elapsed": 2839871, "internal_node_id": "0.0-184.0"}}, {"uniqueid": "MTK0381:3I3WADAZ9RBOESZW8P7R3RCEFYC5OR", "current_trial": 248, "dateTime": 1510780065272, "trialdata": {"rt": -1, "stimulus": "<p id=\"stim\">GOBLIN</p>", "key_press": -1, "type": "PRES_VIS", "word": "goblin", "wordID": 644, "conditions": [24, 800, "v", 12000], "trial": 6, "serialpos": 23, "trial_type": "single-stim", "trial_index": 248, "time_elapsed": 2841718, "internal_node_id": "0.0-185.0"}}, {"uniqueid": "MTK0381:3I3WADAZ9RBOESZW8P7R3RCEFYC5OR", "current_trial": 249, "dateTime": 1510780067483, "trialdata": {"rt": -1, "stimulus": "", "key_press": -1, "type": "PRE_RECALL_DELAY", "trial_type": "single-stim", "trial_index": 249, "time_elapsed": 2843929, "internal_node_id": "0.0-186.0-0.0"}}, {"uniqueid": "MTK0381:3I3WADAZ9RBOESZW8P7R3RCEFYC5OR", "current_trial": 250, "dateTime": 1510780067992, "trialdata": {"rt": -1000, "stimulus": "/static/audio/400Hz.wav", "key_press": -1, "type": "PRE_RECALL_ALERT", "trial_type": "single-audio", "trial_index": 250, "time_elapsed": 2844438, "internal_node_id": "0.0-187.0"}}, {"uniqueid": "MTK0381:3I3WADAZ9RBOESZW8P7R3RCEFYC5OR", "current_trial": 251, "dateTime": 1510780127999, "trialdata": {"rt": [3483, 5486, 7329, 9778, 12812, 26928, 49603, 55929], "recwords": ["stretch", "student", "college", "preacher", "church", "goblin", "stretch", "sunset"], "type": "FREE_RECALL", "conditions": [24, 800, "v", 12000], "trial": 6, "trial_type": "free-recall", "trial_index": 251, "time_elapsed": 2904441, "internal_node_id": "0.0-188.0-0.0"}}, {"uniqueid": "MTK0381:3I3WADAZ9RBOESZW8P7R3RCEFYC5OR", "current_trial": 252, "dateTime": 1510780131442, "trialdata": {"rt": 1442, "key_press": 32, "type": "INSTRUCTIONS", "trial_type": "text", "trial_index": 252, "time_elapsed": 2907887, "internal_node_id": "0.0-189.0"}}, {"uniqueid": "MTK0381:3I3WADAZ9RBOESZW8P7R3RCEFYC5OR", "current_trial": 253, "dateTime": 1510780157444, "trialdata": {"rt": [2259, 4758, 7818, 10390, 16002, 18160, 22276], "responses": ["13", "13", "19", "13", "20", "6", "12"], "num1": [5, 3, 9, 1, 7, 2, 2, 7], "num2": [3, 2, 7, 5, 6, 2, 2, 1], "num3": [5, 8, 3, 7, 7, 2, 8, 3], "type": "DISTRACTOR", "conditions": [12, 1600, "a", 24000], "trial": 7, "trial_type": "math-distractor", "trial_index": 253, "time_elapsed": 2933890, "internal_node_id": "0.0-190.0"}}, {"uniqueid": "MTK0381:3I3WADAZ9RBOESZW8P7R3RCEFYC5OR", "current_trial": 254, "dateTime": 1510780160445, "trialdata": {"rt": -1, "stimulus": "<p id=\"stim\">10</p>", "key_press": -1, "trial_type": "single-stim", "trial_index": 254, "time_elapsed": 2936891, "internal_node_id": "0.0-191.0-0.0"}}, {"uniqueid": "MTK0381:3I3WADAZ9RBOESZW8P7R3RCEFYC5OR", "current_trial": 255, "dateTime": 1510780161447, "trialdata": {"rt": -1, "stimulus": "<p id=\"stim\">9</p>", "key_press": -1, "trial_type": "single-stim", "trial_index": 255, "time_elapsed": 2937893, "internal_node_id": "0.0-191.0-1.0"}}, {"uniqueid": "MTK0381:3I3WADAZ9RBOESZW8P7R3RCEFYC5OR", "current_trial": 256, "dateTime": 1510780162448, "trialdata": {"rt": -1, "stimulus": "<p id=\"stim\">8</p>", "key_press": -1, "trial_type": "single-stim", "trial_index": 256, "time_elapsed": 2938894, "internal_node_id": "0.0-191.0-2.0"}}, {"uniqueid": "MTK0381:3I3WADAZ9RBOESZW8P7R3RCEFYC5OR", "current_trial": 257, "dateTime": 1510780163450, "trialdata": {"rt": -1, "stimulus": "<p id=\"stim\">7</p>", "key_press": -1, "trial_type": "single-stim", "trial_index": 257, "time_elapsed": 2939895, "internal_node_id": "0.0-191.0-3.0"}}, {"uniqueid": "MTK0381:3I3WADAZ9RBOESZW8P7R3RCEFYC5OR", "current_trial": 258, "dateTime": 1510780164450, "trialdata": {"rt": -1, "stimulus": "<p id=\"stim\">6</p>", "key_press": -1, "trial_type": "single-stim", "trial_index": 258, "time_elapsed": 2940896, "internal_node_id": "0.0-191.0-4.0"}}, {"uniqueid": "MTK0381:3I3WADAZ9RBOESZW8P7R3RCEFYC5OR", "current_trial": 259, "dateTime": 1510780165451, "trialdata": {"rt": -1, "stimulus": "<p id=\"stim\">5</p>", "key_press": -1, "trial_type": "single-stim", "trial_index": 259, "time_elapsed": 2941897, "internal_node_id": "0.0-191.0-5.0"}}, {"uniqueid": "MTK0381:3I3WADAZ9RBOESZW8P7R3RCEFYC5OR", "current_trial": 260, "dateTime": 1510780166454, "trialdata": {"rt": -1, "stimulus": "<p id=\"stim\">4</p>", "key_press": -1, "trial_type": "single-stim", "trial_index": 260, "time_elapsed": 2942898, "internal_node_id": "0.0-191.0-6.0"}}, {"uniqueid": "MTK0381:3I3WADAZ9RBOESZW8P7R3RCEFYC5OR", "current_trial": 261, "dateTime": 1510780167455, "trialdata": {"rt": -1, "stimulus": "<p id=\"stim\">3</p>", "key_press": -1, "trial_type": "single-stim", "trial_index": 261, "time_elapsed": 2943901, "internal_node_id": "0.0-191.0-7.0"}}, {"uniqueid": "MTK0381:3I3WADAZ9RBOESZW8P7R3RCEFYC5OR", "current_trial": 262, "dateTime": 1510780168456, "trialdata": {"rt": -1, "stimulus": "<p id=\"stim\">2</p>", "key_press": -1, "trial_type": "single-stim", "trial_index": 262, "time_elapsed": 2944902, "internal_node_id": "0.0-191.0-8.0"}}, {"uniqueid": "MTK0381:3I3WADAZ9RBOESZW8P7R3RCEFYC5OR", "current_trial": 263, "dateTime": 1510780169458, "trialdata": {"rt": -1, "stimulus": "<p id=\"stim\">1</p>", "key_press": -1, "trial_type": "single-stim", "trial_index": 263, "time_elapsed": 2945904, "internal_node_id": "0.0-191.0-9.0"}}, {"uniqueid": "MTK0381:3I3WADAZ9RBOESZW8P7R3RCEFYC5OR", "current_trial": 264, "dateTime": 1510780170959, "trialdata": {"rt": -1, "stimulus": "<p id=\"stim\">+</p>", "key_press": -1, "type": "FIXATION", "trial_type": "single-stim", "trial_index": 264, "time_elapsed": 2947405, "internal_node_id": "0.0-192.0-0.0"}}, {"uniqueid": "MTK0381:3I3WADAZ9RBOESZW8P7R3RCEFYC5OR", "current_trial": 265, "dateTime": 1510780173455, "trialdata": {"rt": -1000, "stimulus": "/static/audio/wordpool/SCISSORS.wav", "key_press": -1, "type": "PRES_AUD", "word": "scissors", "wordID": 1249, "conditions": [12, 1600, "a", 24000], "trial": 7, "serialpos": 0, "trial_type": "single-audio", "trial_index": 265, "time_elapsed": 2949901, "internal_node_id": "0.0-193.0"}}, {"uniqueid": "MTK0381:3I3WADAZ9RBOESZW8P7R3RCEFYC5OR", "current_trial": 266, "dateTime": 1510780176015, "trialdata": {"rt": -1000, "stimulus": "/static/audio/wordpool/PLIERS.wav", "key_press": -1, "type": "PRES_AUD", "word": "pliers", "wordID": 1088, "conditions": [12, 1600, "a", 24000], "trial": 7, "serialpos": 1, "trial_type": "single-audio", "trial_index": 266, "time_elapsed": 2952461, "internal_node_id": "0.0-194.0"}}, {"uniqueid": "MTK0381:3I3WADAZ9RBOESZW8P7R3RCEFYC5OR", "current_trial": 267, "dateTime": 1510780178501, "trialdata": {"rt": -1000, "stimulus": "/static/audio/wordpool/DOUGHNUT.wav", "key_press": -1, "type": "PRES_AUD", "word": "doughnut", "wordID": 489, "conditions": [12, 1600, "a", 24000], "trial": 7, "serialpos": 2, "trial_type": "single-audio", "trial_index": 267, "time_elapsed": 2954947, "internal_node_id": "0.0-195.0"}}, {"uniqueid": "MTK0381:3I3WADAZ9RBOESZW8P7R3RCEFYC5OR", "current_trial": 268, "dateTime": 1510780181095, "trialdata": {"rt": -1000, "stimulus": "/static/audio/wordpool/POISON.wav", "key_press": -1, "type": "PRES_AUD", "word": "poison", "wordID": 1095, "conditions": [12, 1600, "a", 24000], "trial": 7, "serialpos": 3, "trial_type": "single-audio", "trial_index": 268, "time_elapsed": 2957541, "internal_node_id": "0.0-196.0"}}, {"uniqueid": "MTK0381:3I3WADAZ9RBOESZW8P7R3RCEFYC5OR", "current_trial": 269, "dateTime": 1510780183684, "trialdata": {"rt": -1000, "stimulus": "/static/audio/wordpool/FLEET.wav", "key_press": -1, "type": "PRES_AUD", "word": "fleet", "wordID": 577, "conditions": [12, 1600, "a", 24000], "trial": 7, "serialpos": 4, "trial_type": "single-audio", "trial_index": 269, "time_elapsed": 2960130, "internal_node_id": "0.0-197.0"}}, {"uniqueid": "MTK0381:3I3WADAZ9RBOESZW8P7R3RCEFYC5OR", "current_trial": 270, "dateTime": 1510780186395, "trialdata": {"rt": -1000, "stimulus": "/static/audio/wordpool/COFFEE.wav", "key_press": -1, "type": "PRES_AUD", "word": "coffee", "wordID": 340, "conditions": [12, 1600, "a", 24000], "trial": 7, "serialpos": 5, "trial_type": "single-audio", "trial_index": 270, "time_elapsed": 2962841, "internal_node_id": "0.0-198.0"}}, {"uniqueid": "MTK0381:3I3WADAZ9RBOESZW8P7R3RCEFYC5OR", "current_trial": 271, "dateTime": 1510780189177, "trialdata": {"rt": -1000, "stimulus": "/static/audio/wordpool/PIZZA.wav", "key_press": -1, "type": "PRES_AUD", "word": "pizza", "wordID": 1078, "conditions": [12, 1600, "a", 24000], "trial": 7, "serialpos": 6, "trial_type": "single-audio", "trial_index": 271, "time_elapsed": 2965623, "internal_node_id": "0.0-199.0"}}, {"uniqueid": "MTK0381:3I3WADAZ9RBOESZW8P7R3RCEFYC5OR", "current_trial": 272, "dateTime": 1510780191806, "trialdata": {"rt": -1000, "stimulus": "/static/audio/wordpool/CLOTHES.wav", "key_press": -1, "type": "PRES_AUD", "word": "clothes", "wordID": 326, "conditions": [12, 1600, "a", 24000], "trial": 7, "serialpos": 7, "trial_type": "single-audio", "trial_index": 272, "tim