{"condition": 0, "counterbalance": 412, "assignmentId": "3X31TUMD7YTHKPVGUAPN8KV38DO1LA", "workerId": "MTK0361", "hitId": "39AYGO6AFFR0SR14MRCHROUP7WR6N3", "currenttrial": 626, "bonus": 0, "data": [{"uniqueid": "MTK0361:3X31TUMD7YTHKPVGUAPN8KV38DO1LA", "current_trial": 0, "dateTime": 1510773823700, "trialdata": {"rt": 2269, "key_press": 32, "type": "INSTRUCTIONS", "trial_type": "text", "trial_index": 0, "time_elapsed": 2271, "internal_node_id": "0.0-0.0"}}, {"uniqueid": "MTK0361:3X31TUMD7YTHKPVGUAPN8KV38DO1LA", "current_trial": 1, "dateTime": 1510773852475, "trialdata": {"rt": 28775, "key_press": 32, "type": "INSTRUCTIONS", "trial_type": "text", "trial_index": 1, "time_elapsed": 31047, "internal_node_id": "0.0-1.0"}}, {"uniqueid": "MTK0361:3X31TUMD7YTHKPVGUAPN8KV38DO1LA", "current_trial": 2, "dateTime": 1510773888498, "trialdata": {"rt": [35991], "responses": ["ocean"], "type": "AUDIO_TEST", "trial_type": "audio-test", "trial_index": 2, "time_elapsed": 67070, "internal_node_id": "0.0-2.0"}}, {"uniqueid": "MTK0361:3X31TUMD7YTHKPVGUAPN8KV38DO1LA", "current_trial": 3, "dateTime": 1510773893258, "trialdata": {"rt": [4757], "responses": ["crystal"], "type": "AUDIO_TEST", "trial_type": "audio-test", "trial_index": 3, "time_elapsed": 71830, "internal_node_id": "0.0-3.0"}}, {"uniqueid": "MTK0361:3X31TUMD7YTHKPVGUAPN8KV38DO1LA", "current_trial": 4, "dateTime": 1510773898015, "trialdata": {"rt": [4754], "responses": ["spice"], "type": "AUDIO_TEST", "trial_type": "audio-test", "trial_index": 4, "time_elapsed": 76587, "internal_node_id": "0.0-4.0"}}, {"uniqueid": "MTK0361:3X31TUMD7YTHKPVGUAPN8KV38DO1LA", "current_trial": 5, "dateTime": 1510773919920, "trialdata": {"rt": 21153, "responses": "{\"Q0\":\"9:00\",\"Q1\":\"5:00\",\"Q2\":\"4\"}", "type": "SLEEP_SURVEY", "trial_type": "survey-text", "trial_index": 5, "time_elapsed": 98492, "internal_node_id": "0.0-5.0"}}, {"uniqueid": "MTK0361:3X31TUMD7YTHKPVGUAPN8KV38DO1LA", "current_trial": 6, "dateTime": 1510773968924, "trialdata": {"rt": 48002, "key_press": 32, "type": "INSTRUCTIONS", "trial_type": "text", "trial_index": 6, "time_elapsed": 147496, "internal_node_id": "0.0-6.0"}}, {"uniqueid": "MTK0361:3X31TUMD7YTHKPVGUAPN8KV38DO1LA", "current_trial": 7, "dateTime": 1510773991548, "trialdata": {"rt": 22122, "key_press": 32, "type": "INSTRUCTIONS", "trial_type": "text", "trial_index": 7, "time_elapsed": 170120, "internal_node_id": "0.0-7.0"}}, {"uniqueid": "MTK0361:3X31TUMD7YTHKPVGUAPN8KV38DO1LA", "current_trial": 8, "dateTime": 1510774007872, "trialdata": {"rt": 15822, "key_press": 32, "type": "INSTRUCTIONS", "trial_type": "text", "trial_index": 8, "time_elapsed": 186444, "internal_node_id": "0.0-8.0"}}, {"uniqueid": "MTK0361:3X31TUMD7YTHKPVGUAPN8KV38DO1LA", "current_trial": 9, "dateTime": 1510774026880, "trialdata": {"rt": [5090, 7362, 9252, 10839, 12133, 14000, 16543], "responses": ["15", "14", "18", "10", "6", "18", "24"], "num1": [7, 8, 6, 4, 2, 2, 9, 8], "num2": [5, 3, 3, 5, 2, 9, 9, 9], "num3": [3, 3, 9, 1, 2, 7, 6, 8], "type": "DISTRACTOR", "conditions": [18, 1200, "a", 18000], "trial": 0, "trial_type": "math-distractor", "trial_index": 9, "time_elapsed": 205451, "internal_node_id": "0.0-9.0"}}, {"uniqueid": "MTK0361:3X31TUMD7YTHKPVGUAPN8KV38DO1LA", "current_trial": 10, "dateTime": 1510774029883, "trialdata": {"rt": -1, "stimulus": "<p id=\"stim\">10</p>", "key_press": -1, "trial_type": "single-stim", "trial_index": 10, "time_elapsed": 208455, "internal_node_id": "0.0-10.0-0.0"}}, {"uniqueid": "MTK0361:3X31TUMD7YTHKPVGUAPN8KV38DO1LA", "current_trial": 11, "dateTime": 1510774030885, "trialdata": {"rt": -1, "stimulus": "<p id=\"stim\">9</p>", "key_press": -1, "trial_type": "single-stim", "trial_index": 11, "time_elapsed": 209457, "internal_node_id": "0.0-10.0-1.0"}}, {"uniqueid": "MTK0361:3X31TUMD7YTHKPVGUAPN8KV38DO1LA", "current_trial": 12, "dateTime": 1510774031888, "trialdata": {"rt": -1, "stimulus": "<p id=\"stim\">8</p>", "key_press": -1, "trial_type": "single-stim", "trial_index": 12, "time_elapsed": 210459, "internal_node_id": "0.0-10.0-2.0"}}, {"uniqueid": "MTK0361:3X31TUMD7YTHKPVGUAPN8KV38DO1LA", "current_trial": 13, "dateTime": 1510774032890, "trialdata": {"rt": -1, "stimulus": "<p id=\"stim\">7</p>", "key_press": -1, "trial_type": "single-stim", "trial_index": 13, "time_elapsed": 211462, "internal_node_id": "0.0-10.0-3.0"}}, {"uniqueid": "MTK0361:3X31TUMD7YTHKPVGUAPN8KV38DO1LA", "current_trial": 14, "dateTime": 1510774033891, "trialdata": {"rt": -1, "stimulus": "<p id=\"stim\">6</p>", "key_press": -1, "trial_type": "single-stim", "trial_index": 14, "time_elapsed": 212463, "internal_node_id": "0.0-10.0-4.0"}}, {"uniqueid": "MTK0361:3X31TUMD7YTHKPVGUAPN8KV38DO1LA", "current_trial": 15, "dateTime": 1510774034892, "trialdata": {"rt": -1, "stimulus": "<p id=\"stim\">5</p>", "key_press": -1, "trial_type": "single-stim", "trial_index": 15, "time_elapsed": 213464, "internal_node_id": "0.0-10.0-5.0"}}, {"uniqueid": "MTK0361:3X31TUMD7YTHKPVGUAPN8KV38DO1LA", "current_trial": 16, "dateTime": 1510774035894, "trialdata": {"rt": -1, "stimulus": "<p id=\"stim\">4</p>", "key_press": -1, "trial_type": "single-stim", "trial_index": 16, "time_elapsed": 214466, "internal_node_id": "0.0-10.0-6.0"}}, {"uniqueid": "MTK0361:3X31TUMD7YTHKPVGUAPN8KV38DO1LA", "current_trial": 17, "dateTime": 1510774036896, "trialdata": {"rt": -1, "stimulus": "<p id=\"stim\">3</p>", "key_press": -1, "trial_type": "single-stim", "trial_index": 17, "time_elapsed": 215468, "internal_node_id": "0.0-10.0-7.0"}}, {"uniqueid": "MTK0361:3X31TUMD7YTHKPVGUAPN8KV38DO1LA", "current_trial": 18, "dateTime": 1510774037898, "trialdata": {"rt": -1, "stimulus": "<p id=\"stim\">2</p>", "key_press": -1, "trial_type": "single-stim", "trial_index": 18, "time_elapsed": 216470, "internal_node_id": "0.0-10.0-8.0"}}, {"uniqueid": "MTK0361:3X31TUMD7YTHKPVGUAPN8KV38DO1LA", "current_trial": 19, "dateTime": 1510774038900, "trialdata": {"rt": -1, "stimulus": "<p id=\"stim\">1</p>", "key_press": -1, "trial_type": "single-stim", "trial_index": 19, "time_elapsed": 217472, "internal_node_id": "0.0-10.0-9.0"}}, {"uniqueid": "MTK0361:3X31TUMD7YTHKPVGUAPN8KV38DO1LA", "current_trial": 20, "dateTime": 1510774040402, "trialdata": {"rt": -1, "stimulus": "<p id=\"stim\">+</p>", "key_press": -1, "type": "FIXATION", "trial_type": "single-stim", "trial_index": 20, "time_elapsed": 218974, "internal_node_id": "0.0-11.0-0.0"}}, {"uniqueid": "MTK0361:3X31TUMD7YTHKPVGUAPN8KV38DO1LA", "current_trial": 21, "dateTime": 1510774042779, "trialdata": {"rt": -1000, "stimulus": "/static/audio/wordpool/COCKTAIL.wav", "key_press": -1, "type": "PRES_AUD", "word": "cocktail", "wordID": 337, "conditions": [18, 1200, "a", 18000], "trial": 0, "serialpos": 0, "trial_type": "single-audio", "trial_index": 21, "time_elapsed": 221351, "internal_node_id": "0.0-12.0"}}, {"uniqueid": "MTK0361:3X31TUMD7YTHKPVGUAPN8KV38DO1LA", "current_trial": 22, "dateTime": 1510774045117, "trialdata": {"rt": -1000, "stimulus": "/static/audio/wordpool/HORNET.wav", "key_press": -1, "type": "PRES_AUD", "word": "hornet", "wordID": 717, "conditions": [18, 1200, "a", 18000], "trial": 0, "serialpos": 1, "trial_type": "single-audio", "trial_index": 22, "time_elapsed": 223689, "internal_node_id": "0.0-13.0"}}, {"uniqueid": "MTK0361:3X31TUMD7YTHKPVGUAPN8KV38DO1LA", "current_trial": 23, "dateTime": 1510774047460, "trialdata": {"rt": -1000, "stimulus": "/static/audio/wordpool/HOOD.wav", "key_press": -1, "type": "PRES_AUD", "word": "hood", "wordID": 713, "conditions": [18, 1200, "a", 18000], "trial": 0, "serialpos": 2, "trial_type": "single-audio", "trial_index": 23, "time_elapsed": 226032, "internal_node_id": "0.0-14.0"}}, {"uniqueid": "MTK0361:3X31TUMD7YTHKPVGUAPN8KV38DO1LA", "current_trial": 24, "dateTime": 1510774049718, "trialdata": {"rt": -1000, "stimulus": "/static/audio/wordpool/TERMITE.wav", "key_press": -1, "type": "PRES_AUD", "word": "termite", "wordID": 1450, "conditions": [18, 1200, "a", 18000], "trial": 0, "serialpos": 3, "trial_type": "single-audio", "trial_index": 24, "time_elapsed": 228290, "internal_node_id": "0.0-15.0"}}, {"uniqueid": "MTK0361:3X31TUMD7YTHKPVGUAPN8KV38DO1LA", "current_trial": 25, "dateTime": 1510774052095, "trialdata": {"rt": -1000, "stimulus": "/static/audio/wordpool/SODA.wav", "key_press": -1, "type": "PRES_AUD", "word": "soda", "wordID": 1340, "conditions": [18, 1200, "a", 18000], "trial": 0, "serialpos": 4, "trial_type": "single-audio", "trial_index": 25, "time_elapsed": 230667, "internal_node_id": "0.0-16.0"}}, {"uniqueid": "MTK0361:3X31TUMD7YTHKPVGUAPN8KV38DO1LA", "current_trial": 26, "dateTime": 1510774054401, "trialdata": {"rt": -1000, "stimulus": "/static/audio/wordpool/BLUEPRINT.wav", "key_press": -1, "type": "PRES_AUD", "word": "blueprint", "wordID": 141, "conditions": [18, 1200, "a", 18000], "trial": 0, "serialpos": 5, "trial_type": "single-audio", "trial_index": 26, "time_elapsed": 232973, "internal_node_id": "0.0-17.0"}}, {"uniqueid": "MTK0361:3X31TUMD7YTHKPVGUAPN8KV38DO1LA", "current_trial": 27, "dateTime": 1510774056516, "trialdata": {"rt": -1000, "stimulus": "/static/audio/wordpool/PERMIT.wav", "key_press": -1, "type": "PRES_AUD", "word": "permit", "wordID": 1050, "conditions": [18, 1200, "a", 18000], "trial": 0, "serialpos": 6, "trial_type": "single-audio", "trial_index": 27, "time_elapsed": 235088, "internal_node_id": "0.0-18.0"}}, {"uniqueid": "MTK0361:3X31TUMD7YTHKPVGUAPN8KV38DO1LA", "current_trial": 28, "dateTime": 1510774058843, "trialdata": {"rt": -1000, "stimulus": "/static/audio/wordpool/SISTER.wav", "key_press": -1, "type": "PRES_AUD", "word": "sister", "wordID": 1311, "conditions": [18, 1200, "a", 18000], "trial": 0, "serialpos": 7, "trial_type": "single-audio", "trial_index": 28, "time_elapsed": 237415, "internal_node_id": "0.0-19.0"}}, {"uniqueid": "MTK0361:3X31TUMD7YTHKPVGUAPN8KV38DO1LA", "current_trial": 29, "dateTime": 1510774061085, "trialdata": {"rt": -1000, "stimulus": "/static/audio/wordpool/CAMEL.wav", "key_press": -1, "type": "PRES_AUD", "word": "camel", "wordID": 222, "conditions": [18, 1200, "a", 18000], "trial": 0, "serialpos": 8, "trial_type": "single-audio", "trial_index": 29, "time_elapsed": 239657, "internal_node_id": "0.0-20.0"}}, {"uniqueid": "MTK0361:3X31TUMD7YTHKPVGUAPN8KV38DO1LA", "current_trial": 30, "dateTime": 1510774063299, "trialdata": {"rt": -1000, "stimulus": "/static/audio/wordpool/RECORD.wav", "key_press": -1, "type": "PRES_AUD", "word": "record", "wordID": 1175, "conditions": [18, 1200, "a", 18000], "trial": 0, "serialpos": 9, "trial_type": "single-audio", "trial_index": 30, "time_elapsed": 241870, "internal_node_id": "0.0-21.0"}}, {"uniqueid": "MTK0361:3X31TUMD7YTHKPVGUAPN8KV38DO1LA", "current_trial": 31, "dateTime": 1510774065365, "trialdata": {"rt": -1000, "stimulus": "/static/audio/wordpool/WORKER.wav", "key_press": -1, "type": "PRES_AUD", "word": "worker", "wordID": 1620, "conditions": [18, 1200, "a", 18000], "trial": 0, "serialpos": 10, "trial_type": "single-audio", "trial_index": 31, "time_elapsed": 243937, "internal_node_id": "0.0-22.0"}}, {"uniqueid": "MTK0361:3X31TUMD7YTHKPVGUAPN8KV38DO1LA", "current_trial": 32, "dateTime": 1510774067593, "trialdata": {"rt": -1000, "stimulus": "/static/audio/wordpool/POWDER.wav", "key_press": -1, "type": "PRES_AUD", "word": "powder", "wordID": 1116, "conditions": [18, 1200, "a", 18000], "trial": 0, "serialpos": 11, "trial_type": "single-audio", "trial_index": 32, "time_elapsed": 246165, "internal_node_id": "0.0-23.0"}}, {"uniqueid": "MTK0361:3X31TUMD7YTHKPVGUAPN8KV38DO1LA", "current_trial": 33, "dateTime": 1510774069814, "trialdata": {"rt": -1000, "stimulus": "/static/audio/wordpool/DAUGHTER.wav", "key_press": -1, "type": "PRES_AUD", "word": "daughter", "wordID": 441, "conditions": [18, 1200, "a", 18000], "trial": 0, "serialpos": 12, "trial_type": "single-audio", "trial_index": 33, "time_elapsed": 248386, "internal_node_id": "0.0-24.0"}}, {"uniqueid": "MTK0361:3X31TUMD7YTHKPVGUAPN8KV38DO1LA", "current_trial": 34, "dateTime": 1510774071967, "trialdata": {"rt": -1000, "stimulus": "/static/audio/wordpool/SAUSAGE.wav", "key_press": -1, "type": "PRES_AUD", "word": "sausage", "wordID": 1237, "conditions": [18, 1200, "a", 18000], "trial": 0, "serialpos": 13, "trial_type": "single-audio", "trial_index": 34, "time_elapsed": 250539, "internal_node_id": "0.0-25.0"}}, {"uniqueid": "MTK0361:3X31TUMD7YTHKPVGUAPN8KV38DO1LA", "current_trial": 35, "dateTime": 1510774074355, "trialdata": {"rt": -1000, "stimulus": "/static/audio/wordpool/WAITRESS.wav", "key_press": -1, "type": "PRES_AUD", "word": "waitress", "wordID": 1580, "conditions": [18, 1200, "a", 18000], "trial": 0, "serialpos": 14, "trial_type": "single-audio", "trial_index": 35, "time_elapsed": 252927, "internal_node_id": "0.0-26.0"}}, {"uniqueid": "MTK0361:3X31TUMD7YTHKPVGUAPN8KV38DO1LA", "current_trial": 36, "dateTime": 1510774076475, "trialdata": {"rt": -1000, "stimulus": "/static/audio/wordpool/TABLET.wav", "key_press": -1, "type": "PRES_AUD", "word": "tablet", "wordID": 1426, "conditions": [18, 1200, "a", 18000], "trial": 0, "serialpos": 15, "trial_type": "single-audio", "trial_index": 36, "time_elapsed": 255047, "internal_node_id": "0.0-27.0"}}, {"uniqueid": "MTK0361:3X31TUMD7YTHKPVGUAPN8KV38DO1LA", "current_trial": 37, "dateTime": 1510774078827, "trialdata": {"rt": -1000, "stimulus": "/static/audio/wordpool/COMET.wav", "key_press": -1, "type": "PRES_AUD", "word": "comet", "wordID": 352, "conditions": [18, 1200, "a", 18000], "trial": 0, "serialpos": 16, "trial_type": "single-audio", "trial_index": 37, "time_elapsed": 257399, "internal_node_id": "0.0-28.0"}}, {"uniqueid": "MTK0361:3X31TUMD7YTHKPVGUAPN8KV38DO1LA", "current_trial": 38, "dateTime": 1510774081131, "trialdata": {"rt": -1000, "stimulus": "/static/audio/wordpool/FLAG.wav", "key_press": -1, "type": "PRES_AUD", "word": "flag", "wordID": 572, "conditions": [18, 1200, "a", 18000], "trial": 0, "serialpos": 17, "trial_type": "single-audio", "trial_index": 38, "time_elapsed": 259703, "internal_node_id": "0.0-29.0"}}, {"uniqueid": "MTK0361:3X31TUMD7YTHKPVGUAPN8KV38DO1LA", "current_trial": 39, "dateTime": 1510774082416, "trialdata": {"rt": -1, "stimulus": "", "key_press": -1, "type": "PRE_RECALL_DELAY", "trial_type": "single-stim", "trial_index": 39, "time_elapsed": 260988, "internal_node_id": "0.0-30.0-0.0"}}, {"uniqueid": "MTK0361:3X31TUMD7YTHKPVGUAPN8KV38DO1LA", "current_trial": 40, "dateTime": 1510774082917, "trialdata": {"rt": -1000, "stimulus": "/static/audio/400Hz.wav", "key_press": -1, "type": "PRE_RECALL_ALERT", "trial_type": "single-audio", "trial_index": 40, "time_elapsed": 261489, "internal_node_id": "0.0-31.0"}}, {"uniqueid": "MTK0361:3X31TUMD7YTHKPVGUAPN8KV38DO1LA", "current_trial": 41, "dateTime": 1510774143484, "trialdata": {"rt": [2688, 4229, 5804, 8864, 11249, 14950, 22679], "recwords": ["flag", "comet", "sister", "waitress", "hood", "daughter", "worker"], "type": "FREE_RECALL", "conditions": [18, 1200, "a", 18000], "trial": 0, "trial_type": "free-recall", "trial_index": 41, "time_elapsed": 322053, "internal_node_id": "0.0-32.0-0.0"}}, {"uniqueid": "MTK0361:3X31TUMD7YTHKPVGUAPN8KV38DO1LA", "current_trial": 42, "dateTime": 1510774353595, "trialdata": {"rt": 207115, "key_press": 32, "type": "INSTRUCTIONS", "trial_type": "text", "trial_index": 42, "time_elapsed": 532166, "internal_node_id": "0.0-33.0"}}, {"uniqueid": "MTK0361:3X31TUMD7YTHKPVGUAPN8KV38DO1LA", "current_trial": 43, "dateTime": 1510774373598, "trialdata": {"rt": [2384, 4521, 6130, 8044, 9663, 11193, 12791, 15985], "responses": ["20", "18", "12", "16", "17", "12", "19", "14"], "num1": [3, 5, 8, 2, 6, 3, 9, 7, 1], "num2": [8, 6, 1, 9, 4, 2, 3, 4, 8], "num3": [9, 7, 3, 5, 7, 7, 8, 3, 7], "type": "DISTRACTOR", "conditions": [18, 1200, "v", 18000], "trial": 1, "trial_type": "math-distractor", "trial_index": 43, "time_elapsed": 552170, "internal_node_id": "0.0-34.0"}}, {"uniqueid": "MTK0361:3X31TUMD7YTHKPVGUAPN8KV38DO1LA", "current_trial": 44, "dateTime": 1510774376600, "trialdata": {"rt": -1, "stimulus": "<p id=\"stim\">10</p>", "key_press": -1, "trial_type": "single-stim", "trial_index": 44, "time_elapsed": 555172, "internal_node_id": "0.0-35.0-0.0"}}, {"uniqueid": "MTK0361:3X31TUMD7YTHKPVGUAPN8KV38DO1LA", "current_trial": 45, "dateTime": 1510774377602, "trialdata": {"rt": -1, "stimulus": "<p id=\"stim\">9</p>", "key_press": -1, "trial_type": "single-stim", "trial_index": 45, "time_elapsed": 556174, "internal_node_id": "0.0-35.0-1.0"}}, {"uniqueid": "MTK0361:3X31TUMD7YTHKPVGUAPN8KV38DO1LA", "current_trial": 46, "dateTime": 1510774378602, "trialdata": {"rt": -1, "stimulus": "<p id=\"stim\">8</p>", "key_press": -1, "trial_type": "single-stim", "trial_index": 46, "time_elapsed": 557174, "internal_node_id": "0.0-35.0-2.0"}}, {"uniqueid": "MTK0361:3X31TUMD7YTHKPVGUAPN8KV38DO1LA", "current_trial": 47, "dateTime": 1510774379605, "trialdata": {"rt": -1, "stimulus": "<p id=\"stim\">7</p>", "key_press": -1, "trial_type": "single-stim", "trial_index": 47, "time_elapsed": 558176, "internal_node_id": "0.0-35.0-3.0"}}, {"uniqueid": "MTK0361:3X31TUMD7YTHKPVGUAPN8KV38DO1LA", "current_trial": 48, "dateTime": 1510774380606, "trialdata": {"rt": -1, "stimulus": "<p id=\"stim\">6</p>", "key_press": -1, "trial_type": "single-stim", "trial_index": 48, "time_elapsed": 559178, "internal_node_id": "0.0-35.0-4.0"}}, {"uniqueid": "MTK0361:3X31TUMD7YTHKPVGUAPN8KV38DO1LA", "current_trial": 49, "dateTime": 1510774381607, "trialdata": {"rt": -1, "stimulus": "<p id=\"stim\">5</p>", "key_press": -1, "trial_type": "single-stim", "trial_index": 49, "time_elapsed": 560179, "internal_node_id": "0.0-35.0-5.0"}}, {"uniqueid": "MTK0361:3X31TUMD7YTHKPVGUAPN8KV38DO1LA", "current_trial": 50, "dateTime": 1510774382609, "trialdata": {"rt": -1, "stimulus": "<p id=\"stim\">4</p>", "key_press": -1, "trial_type": "single-stim", "trial_index": 50, "time_elapsed": 561181, "internal_node_id": "0.0-35.0-6.0"}}, {"uniqueid": "MTK0361:3X31TUMD7YTHKPVGUAPN8KV38DO1LA", "current_trial": 51, "dateTime": 1510774383611, "trialdata": {"rt": -1, "stimulus": "<p id=\"stim\">3</p>", "key_press": -1, "trial_type": "single-stim", "trial_index": 51, "time_elapsed": 562183, "internal_node_id": "0.0-35.0-7.0"}}, {"uniqueid": "MTK0361:3X31TUMD7YTHKPVGUAPN8KV38DO1LA", "current_trial": 52, "dateTime": 1510774384613, "trialdata": {"rt": -1, "stimulus": "<p id=\"stim\">2</p>", "key_press": -1, "trial_type": "single-stim", "trial_index": 52, "time_elapsed": 563185, "internal_node_id": "0.0-35.0-8.0"}}, {"uniqueid": "MTK0361:3X31TUMD7YTHKPVGUAPN8KV38DO1LA", "current_trial": 53, "dateTime": 1510774385615, "trialdata": {"rt": -1, "stimulus": "<p id=\"stim\">1</p>", "key_press": -1, "trial_type": "single-stim", "trial_index": 53, "time_elapsed": 564187, "internal_node_id": "0.0-35.0-9.0"}}, {"uniqueid": "MTK0361:3X31TUMD7YTHKPVGUAPN8KV38DO1LA", "current_trial": 54, "dateTime": 1510774387116, "trialdata": {"rt": -1, "stimulus": "<p id=\"stim\">+</p>", "key_press": -1, "type": "FIXATION", "trial_type": "single-stim", "trial_index": 54, "time_elapsed": 565688, "internal_node_id": "0.0-36.0-0.0"}}, {"uniqueid": "MTK0361:3X31TUMD7YTHKPVGUAPN8KV38DO1LA", "current_trial": 55, "dateTime": 1510774388318, "trialdata": {"rt": -1, "stimulus": "<p id=\"stim\">SALMON</p>", "key_press": -1, "type": "PRES_VIS", "word": "salmon", "wordID": 1226, "conditions": [18, 1200, "v", 18000], "trial": 1, "serialpos": 0, "trial_type": "single-stim", "trial_index": 55, "time_elapsed": 566890, "internal_node_id": "0.0-37.0"}}, {"uniqueid": "MTK0361:3X31TUMD7YTHKPVGUAPN8KV38DO1LA", "current_trial": 56, "dateTime": 1510774390433, "trialdata": {"rt": -1, "stimulus": "<p id=\"stim\">WOMAN</p>", "key_press": -1, "type": "PRES_VIS", "word": "woman", "wordID": 1619, "conditions": [18, 1200, "v", 18000], "trial": 1, "serialpos": 1, "trial_type": "single-stim", "trial_index": 56, "time_elapsed": 569005, "internal_node_id": "0.0-38.0"}}, {"uniqueid": "MTK0361:3X31TUMD7YTHKPVGUAPN8KV38DO1LA", "current_trial": 57, "dateTime": 1510774392755, "trialdata": {"rt": -1, "stimulus": "<p id=\"stim\">COWBOY</p>", "key_press": -1, "type": "PRES_VIS", "word": "cowboy", "wordID": 394, "conditions": [18, 1200, "v", 18000], "trial": 1, "serialpos": 2, "trial_type": "single-stim", "trial_index": 57, "time_elapsed": 571327, "internal_node_id": "0.0-39.0"}}, {"uniqueid": "MTK0361:3X31TUMD7YTHKPVGUAPN8KV38DO1LA", "current_trial": 58, "dateTime": 1510774395065, "trialdata": {"rt": -1, "stimulus": "<p id=\"stim\">COUNTY</p>", "key_press": -1, "type": "PRES_VIS", "word": "county", "wordID": 388, "conditions": [18, 1200, "v", 18000], "trial": 1, "serialpos": 3, "trial_type": "single-stim", "trial_index": 58, "time_elapsed": 573637, "internal_node_id": "0.0-40.0"}}, {"uniqueid": "MTK0361:3X31TUMD7YTHKPVGUAPN8KV38DO1LA", "current_trial": 59, "dateTime": 1510774397074, "trialdata": {"rt": -1, "stimulus": "<p id=\"stim\">SPOON</p>", "key_press": -1, "type": "PRES_VIS", "word": "spoon", "wordID": 1356, "conditions": [18, 1200, "v", 18000], "trial": 1, "serialpos": 4, "trial_type": "single-stim", "trial_index": 59, "time_elapsed": 575646, "internal_node_id": "0.0-41.0"}}, {"uniqueid": "MTK0361:3X31TUMD7YTHKPVGUAPN8KV38DO1LA", "current_trial": 60, "dateTime": 1510774399454, "trialdata": {"rt": -1, "stimulus": "<p id=\"stim\">STAR</p>", "key_press": -1, "type": "PRES_VIS", "word": "star", "wordID": 1372, "conditions": [18, 1200, "v", 18000], "trial": 1, "serialpos": 5, "trial_type": "single-stim", "trial_index": 60, "time_elapsed": 578026, "internal_node_id": "0.0-42.0"}}, {"uniqueid": "MTK0361:3X31TUMD7YTHKPVGUAPN8KV38DO1LA", "current_trial": 61, "dateTime": 1510774401740, "trialdata": {"rt": -1, "stimulus": "<p id=\"stim\">BRACES</p>", "key_press": -1, "type": "PRES_VIS", "word": "braces", "wordID": 163, "conditions": [18, 1200, "v", 18000], "trial": 1, "serialpos": 6, "trial_type": "single-stim", "trial_index": 61, "time_elapsed": 580312, "internal_node_id": "0.0-43.0"}}, {"uniqueid": "MTK0361:3X31TUMD7YTHKPVGUAPN8KV38DO1LA", "current_trial": 62, "dateTime": 1510774403877, "trialdata": {"rt": -1, "stimulus": "<p id=\"stim\">YACHT</p>", "key_press": -1, "type": "PRES_VIS", "word": "yacht", "wordID": 1628, "conditions": [18, 1200, "v", 18000], "trial": 1, "serialpos": 7, "trial_type": "single-stim", "trial_index": 62, "time_elapsed": 582449, "internal_node_id": "0.0-44.0"}}, {"uniqueid": "MTK0361:3X31TUMD7YTHKPVGUAPN8KV38DO1LA", "current_trial": 63, "dateTime": 1510774405909, "trialdata": {"rt": -1, "stimulus": "<p id=\"stim\">SHIRT</p>", "key_press": -1, "type": "PRES_VIS", "word": "shirt", "wordID": 1286, "conditions": [18, 1200, "v", 18000], "trial": 1, "serialpos": 8, "trial_type": "single-stim", "trial_index": 63, "time_elapsed": 584481, "internal_node_id": "0.0-45.0"}}, {"uniqueid": "MTK0361:3X31TUMD7YTHKPVGUAPN8KV38DO1LA", "current_trial": 64, "dateTime": 1510774408246, "trialdata": {"rt": -1, "stimulus": "<p id=\"stim\">MISTER</p>", "key_press": -1, "type": "PRES_VIS", "word": "mister", "wordID": 900, "conditions": [18, 1200, "v", 18000], "trial": 1, "serialpos": 9, "trial_type": "single-stim", "trial_index": 64, "time_elapsed": 586818, "internal_node_id": "0.0-46.0"}}, {"uniqueid": "MTK0361:3X31TUMD7YTHKPVGUAPN8KV38DO1LA", "current_trial": 65, "dateTime": 1510774410613, "trialdata": {"rt": -1, "stimulus": "<p id=\"stim\">BATHTUB</p>", "key_press": -1, "type": "PRES_VIS", "word": "bathtub", "wordID": 99, "conditions": [18, 1200, "v", 18000], "trial": 1, "serialpos": 10, "trial_type": "single-stim", "trial_index": 65, "time_elapsed": 589185, "internal_node_id": "0.0-47.0"}}, {"uniqueid": "MTK0361:3X31TUMD7YTHKPVGUAPN8KV38DO1LA", "current_trial": 66, "dateTime": 1510774412844, "trialdata": {"rt": -1, "stimulus": "<p id=\"stim\">MILDEW</p>", "key_press": -1, "type": "PRES_VIS", "word": "mildew", "wordID": 892, "conditions": [18, 1200, "v", 18000], "trial": 1, "serialpos": 11, "trial_type": "single-stim", "trial_index": 66, "time_elapsed": 591416, "internal_node_id": "0.0-48.0"}}, {"uniqueid": "MTK0361:3X31TUMD7YTHKPVGUAPN8KV38DO1LA", "current_trial": 67, "dateTime": 1510774415202, "trialdata": {"rt": -1, "stimulus": "<p id=\"stim\">BUTCHER</p>", "key_press": -1, "type": "PRES_VIS", "word": "butcher", "wordID": 202, "conditions": [18, 1200, "v", 18000], "trial": 1, "serialpos": 12, "trial_type": "single-stim", "trial_index": 67, "time_elapsed": 593774, "internal_node_id": "0.0-49.0"}}, {"uniqueid": "MTK0361:3X31TUMD7YTHKPVGUAPN8KV38DO1LA", "current_trial": 68, "dateTime": 1510774417237, "trialdata": {"rt": -1, "stimulus": "<p id=\"stim\">SWAMP</p>", "key_press": -1, "type": "PRES_VIS", "word": "swamp", "wordID": 1415, "conditions": [18, 1200, "v", 18000], "trial": 1, "serialpos": 13, "trial_type": "single-stim", "trial_index": 68, "time_elapsed": 595807, "internal_node_id": "0.0-50.0"}}, {"uniqueid": "MTK0361:3X31TUMD7YTHKPVGUAPN8KV38DO1LA", "current_trial": 69, "dateTime": 1510774419406, "trialdata": {"rt": -1, "stimulus": "<p id=\"stim\">FLOWER</p>", "key_press": -1, "type": "PRES_VIS", "word": "flower", "wordID": 583, "conditions": [18, 1200, "v", 18000], "trial": 1, "serialpos": 14, "trial_type": "single-stim", "trial_index": 69, "time_elapsed": 597978, "internal_node_id": "0.0-51.0"}}, {"uniqueid": "MTK0361:3X31TUMD7YTHKPVGUAPN8KV38DO1LA", "current_trial": 70, "dateTime": 1510774421631, "trialdata": {"rt": -1, "stimulus": "<p id=\"stim\">ORANGE</p>", "key_press": -1, "type": "PRES_VIS", "word": "orange", "wordID": 979, "conditions": [18, 1200, "v", 18000], "trial": 1, "serialpos": 15, "trial_type": "single-stim", "trial_index": 70, "time_elapsed": 600203, "internal_node_id": "0.0-52.0"}}, {"uniqueid": "MTK0361:3X31TUMD7YTHKPVGUAPN8KV38DO1LA", "current_trial": 71, "dateTime": 1510774423766, "trialdata": {"rt": -1, "stimulus": "<p id=\"stim\">KLEENEX</p>", "key_press": -1, "type": "PRES_VIS", "word": "kleenex", "wordID": 781, "conditions": [18, 1200, "v", 18000], "trial": 1, "serialpos": 16, "trial_type": "single-stim", "trial_index": 71, "time_elapsed": 602338, "internal_node_id": "0.0-53.0"}}, {"uniqueid": "MTK0361:3X31TUMD7YTHKPVGUAPN8KV38DO1LA", "current_trial": 72, "dateTime": 1510774426004, "trialdata": {"rt": -1, "stimulus": "<p id=\"stim\">PIZZA</p>", "key_press": -1, "type": "PRES_VIS", "word": "pizza", "wordID": 1078, "conditions": [18, 1200, "v", 18000], "trial": 1, "serialpos": 17, "trial_type": "single-stim", "trial_index": 72, "time_elapsed": 604576, "internal_node_id": "0.0-54.0"}}, {"uniqueid": "MTK0361:3X31TUMD7YTHKPVGUAPN8KV38DO1LA", "current_trial": 73, "dateTime": 1510774428485, "trialdata": {"rt": -1, "stimulus": "", "key_press": -1, "type": "PRE_RECALL_DELAY", "trial_type": "single-stim", "trial_index": 73, "time_elapsed": 607057, "internal_node_id": "0.0-55.0-0.0"}}, {"uniqueid": "MTK0361:3X31TUMD7YTHKPVGUAPN8KV38DO1LA", "current_trial": 74, "dateTime": 1510774428987, "trialdata": {"rt": -1000, "stimulus": "/static/audio/400Hz.wav", "key_press": -1, "type": "PRE_RECALL_ALERT", "trial_type": "single-audio", "trial_index": 74, "time_elapsed": 607559, "internal_node_id": "0.0-56.0"}}, {"uniqueid": "MTK0361:3X31TUMD7YTHKPVGUAPN8KV38DO1LA", "current_trial": 75, "dateTime": 1510774488988, "trialdata": {"rt": [3074, 4369, 5707, 7124, 9858, 11939, 14280, 22154, 31514, 37240], "recwords": ["kleenex", "pizza", "yacht", "shop", "mister", "butcher", "shirt", "woman", "flower", "spoon"], "type": "FREE_RECALL", "conditions": [18, 1200, "v", 18000], "trial": 1, "trial_type": "free-recall", "trial_index": 75, "time_elapsed": 667559, "internal_node_id": "0.0-57.0-0.0"}}, {"uniqueid": "MTK0361:3X31TUMD7YTHKPVGUAPN8KV38DO1LA", "current_trial": 76, "dateTime": 1510774493962, "trialdata": {"rt": 2970, "key_press": 32, "type": "INSTRUCTIONS", "trial_type": "text", "trial_index": 76, "time_elapsed": 672532, "internal_node_id": "0.0-58.0"}}, {"uniqueid": "MTK0361:3X31TUMD7YTHKPVGUAPN8KV38DO1LA", "current_trial": 77, "dateTime": 1510774506967, "trialdata": {"rt": [2815, 6173, 8186, 10019, 11719], "responses": ["16", "17", "15", "10", "15"], "num1": [8, 7, 8, 3, 5, 3], "num2": [6, 6, 4, 5, 2, 8], "num3": [2, 4, 3, 2, 8, 7], "type": "DISTRACTOR", "conditions": [12, 1600, "a", 12000], "trial": 2, "trial_type": "math-distractor", "trial_index": 77, "time_elapsed": 685538, "internal_node_id": "0.0-59.0"}}, {"uniqueid": "MTK0361:3X31TUMD7YTHKPVGUAPN8KV38DO1LA", "current_trial": 78, "dateTime": 1510774509969, "trialdata": {"rt": -1, "stimulus": "<p id=\"stim\">10</p>", "key_press": -1, "trial_type": "single-stim", "trial_index": 78, "time_elapsed": 688541, "internal_node_id": "0.0-60.0-0.0"}}, {"uniqueid": "MTK0361:3X31TUMD7YTHKPVGUAPN8KV38DO1LA", "current_trial": 79, "dateTime": 1510774510972, "trialdata": {"rt": -1, "stimulus": "<p id=\"stim\">9</p>", "key_press": -1, "trial_type": "single-stim", "trial_index": 79, "time_elapsed": 689543, "internal_node_id": "0.0-60.0-1.0"}}, {"uniqueid": "MTK0361:3X31TUMD7YTHKPVGUAPN8KV38DO1LA", "current_trial": 80, "dateTime": 1510774511973, "trialdata": {"rt": -1, "stimulus": "<p id=\"stim\">8</p>", "key_press": -1, "trial_type": "single-stim", "trial_index": 80, "time_elapsed": 690545, "internal_node_id": "0.0-60.0-2.0"}}, {"uniqueid": "MTK0361:3X31TUMD7YTHKPVGUAPN8KV38DO1LA", "current_trial": 81, "dateTime": 1510774513464, "trialdata": {"rt": -1, "stimulus": "<p id=\"stim\">7</p>", "key_press": -1, "trial_type": "single-stim", "trial_index": 81, "time_elapsed": 692036, "internal_node_id": "0.0-60.0-3.0"}}, {"uniqueid": "MTK0361:3X31TUMD7YTHKPVGUAPN8KV38DO1LA", "current_trial": 82, "dateTime": 1510774514465, "trialdata": {"rt": -1, "stimulus": "<p id=\"stim\">6</p>", "key_press": -1, "trial_type": "single-stim", "trial_index": 82, "time_elapsed": 693037, "internal_node_id": "0.0-60.0-4.0"}}, {"uniqueid": "MTK0361:3X31TUMD7YTHKPVGUAPN8KV38DO1LA", "current_trial": 83, "dateTime": 1510774515466, "trialdata": {"rt": -1, "stimulus": "<p id=\"stim\">5</p>", "key_press": -1, "trial_type": "single-stim", "trial_index": 83, "time_elapsed": 694038, "internal_node_id": "0.0-60.0-5.0"}}, {"uniqueid": "MTK0361:3X31TUMD7YTHKPVGUAPN8KV38DO1LA", "current_trial": 84, "dateTime": 1510774516467, "trialdata": {"rt": -1, "stimulus": "<p id=\"stim\">4</p>", "key_press": -1, "trial_type": "single-stim", "trial_index": 84, "time_elapsed": 695039, "internal_node_id": "0.0-60.0-6.0"}}, {"uniqueid": "MTK0361:3X31TUMD7YTHKPVGUAPN8KV38DO1LA", "current_trial": 85, "dateTime": 1510774517469, "trialdata": {"rt": -1, "stimulus": "<p id=\"stim\">3</p>", "key_press": -1, "trial_type": "single-stim", "trial_index": 85, "time_elapsed": 696040, "internal_node_id": "0.0-60.0-7.0"}}, {"uniqueid": "MTK0361:3X31TUMD7YTHKPVGUAPN8KV38DO1LA", "current_trial": 86, "dateTime": 1510774518469, "trialdata": {"rt": -1, "stimulus": "<p id=\"stim\">2</p>", "key_press": -1, "trial_type": "single-stim", "trial_index": 86, "time_elapsed": 697041, "internal_node_id": "0.0-60.0-8.0"}}, {"uniqueid": "MTK0361:3X31TUMD7YTHKPVGUAPN8KV38DO1LA", "current_trial": 87, "dateTime": 1510774519471, "trialdata": {"rt": -1, "stimulus": "<p id=\"stim\">1</p>", "key_press": -1, "trial_type": "single-stim", "trial_index": 87, "time_elapsed": 698043, "internal_node_id": "0.0-60.0-9.0"}}, {"uniqueid": "MTK0361:3X31TUMD7YTHKPVGUAPN8KV38DO1LA", "current_trial": 88, "dateTime": 1510774520972, "trialdata": {"rt": -1, "stimulus": "<p id=\"stim\">+</p>", "key_press": -1, "type": "FIXATION", "trial_type": "single-stim", "trial_index": 88, "time_elapsed": 699544, "internal_node_id": "0.0-61.0-0.0"}}, {"uniqueid": "MTK0361:3X31TUMD7YTHKPVGUAPN8KV38DO1LA", "current_trial": 89, "dateTime": 1510774523727, "trialdata": {"rt": -1000, "stimulus": "/static/audio/wordpool/SCALLOP.wav", "key_press": -1, "type": "PRES_AUD", "word": "scallop", "wordID": 1241, "conditions": [12, 1600, "a", 12000], "trial": 2, "serialpos": 0, "trial_type": "single-audio", "trial_index": 89, "time_elapsed": 702299, "internal_node_id": "0.0-62.0"}}, {"uniqueid": "MTK0361:3X31TUMD7YTHKPVGUAPN8KV38DO1LA", "current_trial": 90, "dateTime": 1510774526224, "trialdata": {"rt": -1000, "stimulus": "/static/audio/wordpool/FLESH.wav", "key_press": -1, "type": "PRES_AUD", "word": "flesh", "wordID": 578, "conditions": [12, 1600, "a", 12000], "trial": 2, "serialpos": 1, "trial_type": "single-audio", "trial_index": 90, "time_elapsed": 704796, "internal_node_id": "0.0-63.0"}}, {"uniqueid": "MTK0361:3X31TUMD7YTHKPVGUAPN8KV38DO1LA", "current_trial": 91, "dateTime": 1510774528818, "trialdata": {"rt": -1000, "stimulus": "/static/audio/wordpool/DONKEY.wav", "key_press": -1, "type": "PRES_AUD", "word": "donkey", "wordID": 483, "conditions": [12, 1600, "a", 12000], "trial": 2, "serialpos": 2, "trial_type": "single-audio", "trial_index": 91, "time_elapsed": 707390, "internal_node_id": "0.0-64.0"}}, {"uniqueid": "MTK0361:3X31TUMD7YTHKPVGUAPN8KV38DO1LA", "current_trial": 92, "dateTime": 1510774531387, "trialdata": {"rt": -1000, "stimulus": "/static/audio/wordpool/MUFFIN.wav", "key_press": -1, "type": "PRES_AUD", "word": "muffin", "wordID": 928, "conditions": [12, 1600, "a", 12000], "trial": 2, "serialpos": 3, "trial_type": "single-audio", "trial_index": 92, "time_elapsed": 709959, "internal_node_id": "0.0-65.0"}}, {"uniqueid": "MTK0361:3X31TUMD7YTHKPVGUAPN8KV38DO1LA", "current_trial": 93, "dateTime": 1510774533997, "trialdata": {"rt": -1000, "stimulus": "/static/audio/wordpool/DIVER.wav", "key_press": -1, "type": "PRES_AUD", "word": "diver", "wordID": 475, "conditions": [12, 1600, "a", 12000], "trial": 2, "serialpos": 4, "trial_type": "single-audio", "trial_index": 93, "time_elapsed": 712569, "internal_node_id": "0.0-66.0"}}, {"uniqueid": "MTK0361:3X31TUMD7YTHKPVGUAPN8KV38DO1LA", "current_trial": 94, "dateTime": 1510774536791, "trialdata": {"rt": -1000, "stimulus": "/static/audio/wordpool/OFFICE.wav", "key_press": -1, "type": "PRES_AUD", "word": "office", "wordID": 971, "conditions": [12, 1600, "a", 12000], "trial": 2, "serialpos": 5, "trial_type": "single-audio", "trial_index": 94, "time_elapsed": 715363, "internal_node_id": "0.0-67.0"}}, {"uniqueid": "MTK0361:3X31TUMD7YTHKPVGUAPN8KV38DO1LA", "current_trial": 95, "dateTime": 1510774539484, "trialdata": {"rt": -1000, "stimulus": "/static/audio/wordpool/AIRPLANE.wav", "key_press": -1, "type": "PRES_AUD", "word": "airplane", "wordID": 11, "conditions": [12, 1600, "a", 12000], "trial": 2, "serialpos": 6, "trial_type": "single-audio", "trial_index": 95, "time_elapsed": 718056, "internal_node_id": "0.0-68.0"}}, {"uniqueid": "MTK0361:3X31TUMD7YTHKPVGUAPN8KV38DO1LA", "current_trial": 96, "dateTime": 1510774542134, "trialdata": {"rt": -1000, "stimulus": "/static/audio/wordpool/TREAT.wav", "key_press": -1, "type": "PRES_AUD", "word": "treat", "wordID": 1500, "conditions": [12, 1600, "a", 12000], "trial": 2, "serialpos": 7, "trial_type": "single-audio", "trial_index": 96, "time_elapsed": 720706, "internal_node_id": "0.0-69.0"}}, {"uniqueid": "MTK0361:3X31TUMD7YTHKPVGUAPN8KV38DO1LA", "current_trial": 97, "dateTime": 1510774544764, "trialdata": {"rt": -1000, "stimulus": "/static/audio/wordpool/COD.wav", "key_press": -1, "type": "PRES_AUD", "word": "cod", "wordID": 339, "conditions": [12, 1600, "a", 12000], "trial": 2, "serialpos": 8, "trial_type": "single-audio", "trial_index": 97, "time_elapsed": 723336, "internal_node_id": "0.0-70.0"}}, {"uniqueid": "MTK0361:3X31TUMD7YTHKPVGUAPN8KV38DO1LA", "current_trial": 98, "dateTime": 1510774547326, "trialdata": {"rt": -1000, "stimulus": "/static/audio/wordpool/PEACH.wav", "key_press": -1, "type": "PRES_AUD", "word": "peach", "wordID": 1030, "conditions": [12, 1600, "a", 12000], "trial": 2, "serialpos": 9, "trial_type": "single-audio", "trial_index": 98, "time_elapsed": 725898, "internal_node_id": "0.0-71.0"}}, {"uniqueid": "MTK0361:3X31TUMD7YTHKPVGUAPN8KV38DO1LA", "current_trial": 99, "dateTime": 1510774549953, "trialdata": {"rt": -1000, "stimulus": "/static/audio/wordpool/GRAPE.wav", "key_press": -1, "type": "PRES_AUD", "word": "grape", "wordID": 653, "conditions": [12, 1600, "a", 12000], "trial": 2, "serialpos": 10, "trial_type": "single-audio", "trial_index": 99, "time_elapsed": 728525, "internal_node_id": "0.0-72.0"}}, {"uniqueid": "MTK0361:3X31TUMD7YTHKPVGUAPN8KV38DO1LA", "current_trial": 100, "dateTime": 1510774552597, "trialdata": {"rt": -1000, "stimulus": "/static/audio/wordpool/PARENT.wav", "key_press": -1, "type": "PRES_AUD", "word": "parent", "wordID": 1012, "conditions": [12, 1600, "a", 12000], "trial": 2, "serialpos": 11, "trial_type": "single-audio", "trial_index": 100, "time_elapsed": 731168, "internal_node_id": "0.0-73.0"}}, {"uniqueid": "MTK0361:3X31TUMD7YTHKPVGUAPN8KV38DO1LA", "current_trial": 101, "dateTime": 1510774553835, "trialdata": {"rt": -1, "stimulus": "", "key_press": -1, "type": "PRE_RECALL_DELAY", "trial_type": "single-stim", "trial_index": 101, "time_elapsed": 732406, "internal_node_id": "0.0-74.0-0.0"}}, {"uniqueid": "MTK0361:3X31TUMD7YTHKPVGUAPN8KV38DO1LA", "current_trial": 102, "dateTime": 1510774554336, "trialdata": {"rt": -1000, "stimulus": "/static/audio/400Hz.wav", "key_press": -1, "type": "PRE_RECALL_ALERT", "trial_type": "single-audio", "trial_index": 102, "time_elapsed": 732908, "internal_node_id": "0.0-75.0"}}, {"uniqueid": "MTK0361:3X31TUMD7YTHKPVGUAPN8KV38DO1LA", "current_trial": 103, "dateTime": 1510774614336, "trialdata": {"rt": [2467, 3950, 4861, 5514, 8383, 19667, 23987, 30995], "recwords": ["parent", "peach", "office", "cod", "muffin", "treat", "airplane", "scallop"], "type": "FREE_RECALL", "conditions": [12, 1600, "a", 12000], "trial": 2, "trial_type": "free-recall", "trial_index": 103, "time_elapsed": 792907, "internal_node_id": "0.0-76.0-0.0"}}, {"uniqueid": "MTK0361:3X31TUMD7YTHKPVGUAPN8KV38DO1LA", "current_trial": 104, "dateTime": 1510774618083, "trialdata": {"rt": 1744, "key_press": 32, "type": "INSTRUCTIONS", "trial_type": "text", "trial_index": 104, "time_elapsed": 796654, "internal_node_id": "0.0-77.0"}}, {"uniqueid": "MTK0361:3X31TUMD7YTHKPVGUAPN8KV38DO1LA", "current_trial": 105, "dateTime": 1510774632109, "trialdata": {"rt": [2529, 4127, 6524, 8628, 9977, 11451], "responses": ["13", "21", "22", "7", "11", "12"], "num1": [8, 8, 8, 2, 8, 1, 7], "num2": [4, 8, 8, 1, 1, 8, 4], "num3": [1, 5, 6, 4, 2, 3, 6], "type": "DISTRACTOR", "conditions": [12, 800, "a", 12000], "trial": 3, "trial_type": "math-distractor", "trial_index": 105, "time_elapsed": 810681, "internal_node_id": "0.0-78.0"}}, {"uniqueid": "MTK0361:3X31TUMD7YTHKPVGUAPN8KV38DO1LA", "current_trial": 106, "dateTime": 1510774635123, "trialdata": {"rt": -1, "stimulus": "<p id=\"stim\">10</p>", "key_press": -1, "trial_type": "single-stim", "trial_index": 106, "time_elapsed": 813695, "internal_node_id": "0.0-79.0-0.0"}}, {"uniqueid": "MTK0361:3X31TUMD7YTHKPVGUAPN8KV38DO1LA", "current_trial": 107, "dateTime": 1510774636130, "trialdata": {"rt": -1, "stimulus": "<p id=\"stim\">9</p>", "key_press": -1, "trial_type": "single-stim", "trial_index": 107, "time_elapsed": 814702, "internal_node_id": "0.0-79.0-1.0"}}, {"uniqueid": "MTK0361:3X31TUMD7YTHKPVGUAPN8KV38DO1LA", "current_trial": 108, "dateTime": 1510774637455, "trialdata": {"rt": -1, "stimulus": "<p id=\"stim\">8</p>", "key_press": -1, "trial_type": "single-stim", "trial_index": 108, "time_elapsed": 816027, "internal_node_id": "0.0-79.0-2.0"}}, {"uniqueid": "MTK0361:3X31TUMD7YTHKPVGUAPN8KV38DO1LA", "current_trial": 109, "dateTime": 1510774639454, "trialdata": {"rt": -1, "stimulus": "<p id=\"stim\">7</p>", "key_press": -1, "trial_type": "single-stim", "trial_index": 109, "time_elapsed": 818026, "internal_node_id": "0.0-79.0-3.0"}}, {"uniqueid": "MTK0361:3X31TUMD7YTHKPVGUAPN8KV38DO1LA", "current_trial": 110, "dateTime": 1510774641456, "trialdata": {"rt": -1, "stimulus": "<p id=\"stim\">6</p>", "key_press": -1, "trial_type": "single-stim", "trial_index": 110, "time_elapsed": 820026, "internal_node_id": "0.0-79.0-4.0"}}, {"uniqueid": "MTK0361:3X31TUMD7YTHKPVGUAPN8KV38DO1LA", "current_trial": 111, "dateTime": 1510774643406, "trialdata": {"rt": -1, "stimulus": "<p id=\"stim\">5</p>", "key_press": -1, "trial_type": "single-stim", "trial_index": 111, "time_elapsed": 821978, "internal_node_id": "0.0-79.0-5.0"}}, {"uniqueid": "MTK0361:3X31TUMD7YTHKPVGUAPN8KV38DO1LA", "current_trial": 112, "dateTime": 1510774644407, "trialdata": {"rt": -1, "stimulus": "<p id=\"stim\">4</p>", "key_press": -1, "trial_type": "single-stim", "trial_index": 112, "time_elapsed": 822979, "internal_node_id": "0.0-79.0-6.0"}}, {"uniqueid": "MTK0361:3X31TUMD7YTHKPVGUAPN8KV38DO1LA", "current_trial": 113, "dateTime": 1510774645408, "trialdata": {"rt": -1, "stimulus": "<p id=\"stim\">3</p>", "key_press": -1, "trial_type": "single-stim", "trial_index": 113, "time_elapsed": 823980, "internal_node_id": "0.0-79.0-7.0"}}, {"uniqueid": "MTK0361:3X31TUMD7YTHKPVGUAPN8KV38DO1LA", "current_trial": 114, "dateTime": 1510774646410, "trialdata": {"rt": -1, "stimulus": "<p id=\"stim\">2</p>", "key_press": -1, "trial_type": "single-stim", "trial_index": 114, "time_elapsed": 824982, "internal_node_id": "0.0-79.0-8.0"}}, {"uniqueid": "MTK0361:3X31TUMD7YTHKPVGUAPN8KV38DO1LA", "current_trial": 115, "dateTime": 1510774647411, "trialdata": {"rt": -1, "stimulus": "<p id=\"stim\">1</p>", "key_press": -1, "trial_type": "single-stim", "trial_index": 115, "time_elapsed": 825983, "internal_node_id": "0.0-79.0-9.0"}}, {"uniqueid": "MTK0361:3X31TUMD7YTHKPVGUAPN8KV38DO1LA", "current_trial": 116, "dateTime": 1510774648912, "trialdata": {"rt": -1, "stimulus": "<p id=\"stim\">+</p>", "key_press": -1, "type": "FIXATION", "trial_type": "single-stim", "trial_index": 116, "time_elapsed": 827484, "internal_node_id": "0.0-80.0-0.0"}}, {"uniqueid": "MTK0361:3X31TUMD7YTHKPVGUAPN8KV38DO1LA", "current_trial": 117, "dateTime": 1510774650807, "trialdata": {"rt": -1000, "stimulus": "/static/audio/wordpool/CUSTARD.wav", "key_press": -1, "type": "PRES_AUD", "word": "custard", "wordID": 428, "conditions": [12, 800, "a", 12000], "trial": 3, "serialpos": 0, "trial_type": "single-audio", "trial_index": 117, "time_elapsed": 829379, "internal_node_id": "0.0-81.0"}}, {"uniqueid": "MTK0361:3X31TUMD7YTHKPVGUAPN8KV38DO1LA", "current_trial": 118, "dateTime": 1510774652532, "trialdata": {"rt": -1000, "stimulus": "/static/audio/wordpool/PASTRY.wav", "key_press": -1, "type": "PRES_AUD", "word": "pastry", "wordID": 1021, "conditions": [12, 800, "a", 12000], "trial": 3, "serialpos": 1, "trial_type": "single-audio", "trial_index": 118, "time_elapsed": 831104, "internal_node_id": "0.0-82.0"}}, {"uniqueid": "MTK0361:3X31TUMD7YTHKPVGUAPN8KV38DO1LA", "current_trial": 119, "dateTime": 1510774654297, "trialdata": {"rt": -1000, "stimulus": "/static/audio/wordpool/DORM.wav", "key_press": -1, "type": "PRES_AUD", "word": "dorm", "wordID": 487, "conditions": [12, 800, "a", 12000], "trial": 3, "serialpos": 2, "trial_type": "single-audio", "trial_index": 119, "time_elapsed": 832869, "internal_node_id": "0.0-83.0"}}, {"uniqueid": "MTK0361:3X31TUMD7YTHKPVGUAPN8KV38DO1LA", "current_trial": 120, "dateTime": 1510774656023, "trialdata": {"rt": -1000, "stimulus": "/static/audio/wordpool/COTTAGE.wav", "key_press": -1, "type": "PRES_AUD", "word": "cottage", "wordID": 383, "conditions": [12, 800, "a", 12000], "trial": 3, "serialpos": 3, "trial_type": "single-audio", "trial_index": 120, "time_elapsed": 834595, "internal_node_id": "0.0-84.0"}}, {"uniqueid": "MTK0361:3X31TUMD7YTHKPVGUAPN8KV38DO1LA", "current_trial": 121, "dateTime": 1510774657808, "trialdata": {"rt": -1000, "stimulus": "/static/audio/wordpool/FIDDLE.wav", "key_press": -1, "type": "PRES_AUD", "word": "fiddle", "wordID": 560, "conditions": [12, 800, "a", 12000], "trial": 3, "serialpos": 4, "trial_type": "single-audio", "trial_index": 121, "time_elapsed": 836380, "internal_node_id": "0.0-85.0"}}, {"uniqueid": "MTK0361:3X31TUMD7YTHKPVGUAPN8KV38DO1LA", "current_trial": 122, "dateTime": 1510774659795, "trialdata": {"rt": -1000, "stimulus": "/static/audio/wordpool/CUPBOARD.wav", "key_press": -1, "type": "PRES_AUD", "word": "cupboard", "wordID": 424, "conditions": [12, 800, "a", 12000], "trial": 3, "serialpos": 5, "trial_type": "single-audio", "trial_index": 122, "time_elapsed": 838367, "internal_node_id": "0.0-86.0"}}, {"uniqueid": "MTK0361:3X31TUMD7YTHKPVGUAPN8KV38DO1LA", "current_trial": 123, "dateTime": 1510774661490, "trialdata": {"rt": -1000, "stimulus": "/static/audio/wordpool/BOUQUET.wav", "key_press": -1, "type": "PRES_AUD", "word": "bouquet", "wordID": 156, "conditions": [12, 800, "a", 12000], "trial": 3, "serialpos": 6, "trial_type": "single-audio", "trial_index": 123, "time_elapsed": 840061, "internal_node_id": "0.0-87.0"}}, {"uniqueid": "MTK0361:3X31TUMD7YTHKPVGUAPN8KV38DO1LA", "current_trial": 124, "dateTime": 1510774663231, "trialdata": {"rt": -1000, "stimulus": "/static/audio/wordpool/LAPEL.wav", "key_press": -1, "type": "PRES_AUD", "word": "lapel", "wordID": 799, "conditions": [12, 800, "a", 12000], "trial": 3, "serialpos": 7, "trial_type": "single-audio", "trial_index": 124, "time_elapsed": 841803, "internal_node_id": "0.0-88.0"}}, {"uniqueid": "MTK0361:3X31TUMD7YTHKPVGUAPN8KV38DO1LA", "current_trial": 125, "dateTime": 1510774664912, "trialdata": {"rt": -1000, "stimulus": "/static/audio/wordpool/PAPER.wav", "key_press": -1, "type": "PRES_AUD", "word": "paper", "wordID": 1010, "conditions": [12, 800, "a", 12000], "trial": 3, "serialpos": 8, "trial_type": "single-audio", "trial_index": 125, "time_elapsed": 843484, "internal_node_id": "0.0-89.0"}}, {"uniqueid": "MTK0361:3X31TUMD7YTHKPVGUAPN8KV38DO1LA", "current_trial": 126, "dateTime": 1510774666727, "trialdata": {"rt": -1000, "stimulus": "/static/audio/wordpool/SERVER.wav", "key_press": -1, "type": "PRES_AUD", "word": "server", "wordID": 1271, "conditions": [12, 800, "a", 12000], "trial": 3, "serialpos": 9, "trial_type": "single-audio", "trial_index": 126, "time_elapsed": 845298, "internal_node_id": "0.0-90.0"}}, {"uniqueid": "MTK0361:3X31TUMD7YTHKPVGUAPN8KV38DO1LA", "current_trial": 127, "dateTime": 1510774668502, "trialdata": {"rt": -1000, "stimulus": "/static/audio/wordpool/DRESSER.wav", "key_press": -1, "type": "PRES_AUD", "word": "dresser", "wordID": 495, "conditions": [12, 800, "a", 12000], "trial": 3, "serialpos": 10, "trial_type": "single-audio", "trial_index": 127, "time_elapsed": 847074, "internal_node_id": "0.0-91.0"}}, {"uniqueid": "MTK0361:3X31TUMD7YTHKPVGUAPN8KV38DO1LA", "current_trial": 128, "dateTime": 1510774670222, "trialdata": {"rt": -1000, "stimulus": "/static/audio/wordpool/MARS.wav", "key_press": -1, "type": "PRES_AUD", "word": "mars", "wordID": 872, "conditions": [12, 800, "a", 12000], "trial": 3, "serialpos": 11, "trial_type": "single-audio", "trial_index": 128, "time_elapsed": 848794, "internal_node_id": "0.0-92.0"}}, {"uniqueid": "MTK0361:3X31TUMD7YTHKPVGUAPN8KV38DO1LA", "current_trial": 129, "dateTime": 1510774671485, "trialdata": {"rt": -1, "stimulus": "", "key_press": -1, "type": "PRE_RECALL_DELAY", "trial_type": "single-stim", "trial_index": 129, "time_elapsed": 850057, "internal_node_id": "0.0-93.0-0.0"}}, {"uniqueid": "MTK0361:3X31TUMD7YTHKPVGUAPN8KV38DO1LA", "current_trial": 130, "dateTime": 1510774672002, "trialdata": {"rt": -1000, "stimulus": "/static/audio/400Hz.wav", "key_press": -1, "type": "PRE_RECALL_ALERT", "trial_type": "single-audio", "trial_index": 130, "time_elapsed": 850574, "internal_node_id": "0.0-94.0"}}, {"uniqueid": "MTK0361:3X31TUMD7YTHKPVGUAPN8KV38DO1LA", "current_trial": 131, "dateTime": 1510774732451, "trialdata": {"rt": [1090, 2047, 3487, 11057, 23819, 41906], "recwords": ["paper", "mars", "dresser", "cupboard", "salmon", "paper"], "type": "FREE_RECALL", "conditions": [12, 800, "a", 12000], "trial": 3, "trial_type": "free-recall", "trial_index": 131, "time_elapsed": 911021, "internal_node_id": "0.0-95.0-0.0"}}, {"uniqueid": "MTK0361:3X31TUMD7YTHKPVGUAPN8KV38DO1LA", "current_trial": 132, "dateTime": 1510774741483, "trialdata": {"rt": 6033, "key_press": 32, "type": "INSTRUCTIONS", "trial_type": "text", "trial_index": 132, "time_elapsed": 920055, "internal_node_id": "0.0-96.0"}}, {"uniqueid": "MTK0361:3X31TUMD7YTHKPVGUAPN8KV38DO1LA", "current_trial": 133, "dateTime": 1510774767486, "trialdata": {"rt": [1700, 3340, 4858, 6974, 9214, 10676, 13262, 14815, 17481, 19686, 21565, 23140], "responses": ["8", "17", "17", "19", "13", "14", "13", "20", "24", "10", "17", "13"], "num1": [1, 5, 7, 6, 3, 9, 2, 9, 9, 5, 3, 6, 3], "num2": [2, 8, 5, 5, 2, 2, 6, 3, 9, 1, 7, 6, 8], "num3": [5, 4, 5, 8, 8, 3, 5, 8, 6, 4, 7, 1, 6], "type": "DISTRACTOR", "conditions": [24, 800, "v", 24000], "trial": 4, "trial_type": "math-distractor", "trial_index": 133, "time_elapsed": 946058, "internal_node_id": "0.0-97.0"}}, {"uniqueid": "MTK0361:3X31TUMD7YTHKPVGUAPN8KV38DO1LA", "current_trial": 134, "dateTime": 1510774770489, "trialdata": {"rt": -1, "stimulus": "<p id=\"stim\">10</p>", "key_press": -1, "trial_type": "single-stim", "trial_index": 134, "time_elapsed": 949061, "internal_node_id": "0.0-98.0-0.0"}}, {"uniqueid": "MTK0361:3X31TUMD7YTHKPVGUAPN8KV38DO1LA", "current_trial": 135, "dateTime": 1510774771490, "trialdata": {"rt": -1, "stimulus": "<p id=\"stim\">9</p>", "key_press": -1, "trial_type": "single-stim", "trial_index": 135, "time_elapsed": 950062, "internal_node_id": "0.0-98.0-1.0"}}, {"uniqueid": "MTK0361:3X31TUMD7YTHKPVGUAPN8KV38DO1LA", "current_trial": 136, "dateTime": 1510774772492, "trialdata": {"rt": -1, "stimulus": "<p id=\"stim\">8</p>", "key_press": -1, "trial_type": "single-stim", "trial_index": 136, "time_elapsed": 951064, "internal_node_id": "0.0-98.0-2.0"}}, {"uniqueid": "MTK0361:3X31TUMD7YTHKPVGUAPN8KV38DO1LA", "current_trial": 137, "dateTime": 1510774773494, "trialdata": {"rt": -1, "stimulus": "<p id=\"stim\">7</p>", "key_press": -1, "trial_type": "single-stim", "trial_index": 137, "time_elapsed": 952066, "internal_node_id": "0.0-98.0-3.0"}}, {"uniqueid": "MTK0361:3X31TUMD7YTHKPVGUAPN8KV38DO1LA", "current_trial": 138, "dateTime": 1510774774496, "trialdata": {"rt": -1, "stimulus": "<p id=\"stim\">6</p>", "key_press": -1, "trial_type": "single-stim", "trial_index": 138, "time_elapsed": 953068, "internal_node_id": "0.0-98.0-4.0"}}, {"uniqueid": "MTK0361:3X31TUMD7YTHKPVGUAPN8KV38DO1LA", "current_trial": 139, "dateTime": 1510774775499, "trialdata": {"rt": -1, "stimulus": "<p id=\"stim\">5</p>", "key_press": -1, "trial_type": "single-stim", "trial_index": 139, "time_elapsed": 954070, "internal_node_id": "0.0-98.0-5.0"}}, {"uniqueid": "MTK0361:3X31TUMD7YTHKPVGUAPN8KV38DO1LA", "current_trial": 140, "dateTime": 1510774776501, "trialdata": {"rt": -1, "stimulus": "<p id=\"stim\">4</p>", "key_press": -1, "trial_type": "single-stim", "trial_index": 140, "time_elapsed": 955073, "internal_node_id": "0.0-98.0-6.0"}}, {"uniqueid": "MTK0361:3X31TUMD7YTHKPVGUAPN8KV38DO1LA", "current_trial": 141, "dateTime": 1510774777503, "trialdata": {"rt": -1, "stimulus": "<p id=\"stim\">3</p>", "key_press": -1, "trial_type": "single-stim", "trial_index": 141, "time_elapsed": 956075, "internal_node_id": "0.0-98.0-7.0"}}, {"uniqueid": "MTK0361:3X31TUMD7YTHKPVGUAPN8KV38DO1LA", "current_trial": 142, "dateTime": 1510774778574, "trialdata": {"rt": -1, "stimulus": "<p id=\"stim\">2</p>", "key_press": -1, "trial_type": "single-stim", "trial_index": 142, "time_elapsed": 957146, "internal_node_id": "0.0-98.0-8.0"}}, {"uniqueid": "MTK0361:3X31TUMD7YTHKPVGUAPN8KV38DO1LA", "current_trial": 143, "dateTime": 1510774779575, "trialdata": {"rt": -1, "stimulus": "<p id=\"stim\">1</p>", "key_press": -1, "trial_type": "single-stim", "trial_index": 143, "time_elapsed": 958147, "internal_node_id": "0.0-98.0-9.0"}}, {"uniqueid": "MTK0361:3X31TUMD7YTHKPVGUAPN8KV38DO1LA", "current_trial": 144, "dateTime": 1510774781077, "trialdata": {"rt": -1, "stimulus": "<p id=\"stim\">+</p>", "key_press": -1, "type": "FIXATION", "trial_type": "single-stim", "trial_index": 144, "time_elapsed": 959649, "internal_node_id": "0.0-99.0-0.0"}}, {"uniqueid": "MTK0361:3X31TUMD7YTHKPVGUAPN8KV38DO1LA", "current_trial": 145, "dateTime": 1510774781879, "trialdata": {"rt": -1, "stimulus": "<p id=\"stim\">ASIA</p>", "key_press": -1, "type": "PRES_VIS", "word": "asia", "wordID": 45, "conditions": [24, 800, "v", 24000], "trial": 4, "serialpos": 0, "trial_type": "single-stim", "trial_index": 145, "time_elapsed": 960451, "internal_node_id": "0.0-100.0"}}, {"uniqueid": "MTK0361:3X31TUMD7YTHKPVGUAPN8KV38DO1LA", "current_trial": 146, "dateTime": 1510774783804, "trialdata": {"rt": -1, "stimulus": "<p id=\"stim\">TUTU</p>", "key_press": -1, "type": "PRES_VIS", "word": "tutu", "wordID": 1523, "conditions": [24, 800, "v", 24000], "trial": 4, "serialpos": 1, "trial_type": "single-stim", "trial_index": 146, "time_elapsed": 962376, "internal_node_id": "0.0-101.0"}}, {"uniqueid": "MTK0361:3X31TUMD7YTHKPVGUAPN8KV38DO1LA", "current_trial": 147, "dateTime": 1510774785727, "trialdata": {"rt": -1, "stimulus": "<p id=\"stim\">LODGE</p>", "key_press": -1, "type": "PRES_VIS", "word": "lodge", "wordID": 838, "conditions": [24, 800, "v", 24000], "trial": 4, "serialpos": 2, "trial_type": "single-stim", "trial_index": 147, "time_elapsed": 964299, "internal_node_id": "0.0-102.0"}}, {"uniqueid": "MTK0361:3X31TUMD7YTHKPVGUAPN8KV38DO1LA", "current_trial": 148, "dateTime": 1510774787607, "trialdata": {"rt": -1, "stimulus": "<p id=\"stim\">ROOSTER</p>", "key_press": -1, "type": "PRES_VIS", "word": "rooster", "wordID": 1208, "conditions": [24, 800, "v", 24000], "trial": 4, "serialpos": 3, "trial_type": "single-stim", "trial_index": 148, "time_elapsed": 966179, "internal_node_id": "0.0-103.0"}}, {"uniqueid": "MTK0361:3X31TUMD7YTHKPVGUAPN8KV38DO1LA", "current_trial": 149, "dateTime": 1510774789276, "trialdata": {"rt": -1, "stimulus": "<p id=\"stim\">FOX</p>", "key_press": -1, "type": "PRES_VIS", "word": "fox", "wordID": 597, "conditions": [24, 800, "v", 24000], "trial": 4, "serialpos": 4, "trial_type": "single-stim", "trial_index": 149, "time_elapsed": 967848, "internal_node_id": "0.0-104.0"}}, {"uniqueid": "MTK0361:3X31TUMD7YTHKPVGUAPN8KV38DO1LA", "current_trial": 150, "dateTime": 1510774790977, "trialdata": {"rt": -1, "stimulus": "<p id=\"stim\">RECEIPT</p>", "key_press": -1, "type": "PRES_VIS", "word": "receipt", "wordID": 1172, "conditions": [24, 800, "v", 24000], "trial": 4, "serialpos": 5, "trial_type": "single-stim", "trial_index": 150, "time_elapsed": 969549, "internal_node_id": "0.0-105.0"}}, {"uniqueid": "MTK0361:3X31TUMD7YTHKPVGUAPN8KV38DO1LA", "current_trial": 151, "dateTime": 1510774792885, "trialdata": {"rt": -1, "stimulus": "<p id=\"stim\">PARSLEY</p>", "key_press": -1, "type": "PRES_VIS", "word": "parsley", "wordID": 1015, "conditions": [24, 800, "v", 24000], "trial": 4, "serialpos": 6, "trial_type": "single-stim", "trial_index": 151, "time_elapsed": 971457, "internal_node_id": "0.0-106.0"}}, {"uniqueid": "MTK0361:3X31TUMD7YTHKPVGUAPN8KV38DO1LA", "current_trial": 152, "dateTime": 1510774794878, "trialdata": {"rt": -1, "stimulus": "<p id=\"stim\">CRAB</p>", "key_press": -1, "type": "PRES_VIS", "word": "crab", "wordID": 396, "conditions": [24, 800, "v", 24000], "trial": 4, "serialpos": 7, "trial_type": "single-stim", "trial_index": 152, "time_elapsed": 973450, "internal_node_id": "0.0-107.0"}}, {"uniqueid": "MTK0361:3X31TUMD7YTHKPVGUAPN8KV38DO1LA", "current_trial": 153, "dateTime": 1510774796589, "trialdata": {"rt": -1, "stimulus": "<p id=\"stim\">RABBIT</p>", "key_press": -1, "type": "PRES_VIS", "word": "rabbit", "wordID": 1151, "conditions": [24, 800, "v", 24000], "trial": 4, "serialpos": 8, "trial_type": "single-stim", "trial_index": 153, "time_elapsed": 975161, "internal_node_id": "0.0-108.0"}}, {"uniqueid": "MTK0361:3X31TUMD7YTHKPVGUAPN8KV38DO1LA", "current_trial": 154, "dateTime": 1510774798290, "trialdata": {"rt": -1, "stimulus": "<p id=\"stim\">GRILL</p>", "key_press": -1, "type": "PRES_VIS", "word": "grill", "wordID": 660, "conditions": [24, 800, "v", 24000], "trial": 4, "serialpos": 9, "trial_type": "single-stim", "trial_index": 154, "time_elapsed": 976862, "internal_node_id": "0.0-109.0"}}, {"uniqueid": "MTK0361:3X31TUMD7YTHKPVGUAPN8KV38DO1LA", "current_trial": 155, "dateTime": 1510774800184, "trialdata": {"rt": -1, "stimulus": "<p id=\"stim\">GLOBE</p>", "key_press": -1, "type": "PRES_VIS", "word": "globe", "wordID": 640, "conditions": [24, 800, "v", 24000], "trial": 4, "serialpos": 10, "trial_type": "single-stim", "trial_index": 155, "time_elapsed": 978756, "internal_node_id": "0.0-110.0"}}, {"uniqueid": "MTK0361:3X31TUMD7YTHKPVGUAPN8KV38DO1LA", "current_trial": 156, "dateTime": 1510774802116, "trialdata": {"rt": -1, "stimulus": "<p id=\"stim\">BEAVER</p>", "key_press": -1, "type": "PRES_VIS", "word": "beaver", "wordID": 108, "conditions": [24, 800, "v", 24000], "trial": 4, "serialpos": 11, "trial_type": "single-stim", "trial_index": 156, "time_elapsed": 980688, "internal_node_id": "0.0-111.0"}}, {"uniqueid": "MTK0361:3X31TUMD7YTHKPVGUAPN8KV38DO1LA", "current_trial": 157, "dateTime": 1510774803963, "trialdata": {"rt": -1, "stimulus": "<p id=\"stim\">OX</p>", "key_press": -1, "type": "PRES_VIS", "word": "ox", "wordID": 993, "conditions": [24, 800, "v", 24000], "trial": 4, "serialpos": 12, "trial_type": "single-stim", "trial_index": 157, "time_elapsed": 982534, "internal_node_id": "0.0-112.0"}}, {"uniqueid": "MTK0361:3X31TUMD7YTHKPVGUAPN8KV38DO1LA", "current_trial": 158, "dateTime": 1510774805830, "trialdata": {"rt": -1, "stimulus": "<p id=\"stim\">HERO</p>", "key_press": -1, "type": "PRES_VIS", "word": "hero", "wordID": 705, "conditions": [24, 800, "v", 24000], "trial": 4, "serialpos": 13, "trial_type": "single-stim", "trial_index": 158, "time_elapsed": 984402, "internal_node_id": "0.0-113.0"}}, {"uniqueid": "MTK0361:3X31TUMD7YTHKPVGUAPN8KV38DO1LA", "current_trial": 159, "dateTime": 1510774807629, "trialdata": {"rt": -1, "stimulus": "<p id=\"stim\">TRUCK</p>", "key_press": -1, "type": "PRES_VIS", "word": "truck", "wordID": 1511, "conditions": [24, 800, "v", 24000], "trial": 4, "serialpos": 14, "trial_type": "single-stim", "trial_index": 159, "time_elapsed": 986201, "internal_node_id": "0.0-114.0"}}, {"uniqueid": "MTK0361:3X31TUMD7YTHKPVGUAPN8KV38DO1LA", "current_trial": 160, "dateTime": 1510774809441, "trialdata": {"rt": -1, "stimulus": "<p id=\"stim\">MARKER</p>", "key_press": -1, "type": "PRES_VIS", "word": "marker", "wordID": 869, "conditions": [24, 800, "v", 24000], "trial": 4, "serialpos": 15, "trial_type": "single-stim", "trial_index": 160, "time_elapsed": 988012, "internal_node_id": "0.0-115.0"}}, {"uniqueid": "MTK0361:3X31TUMD7YTHKPVGUAPN8KV38DO1LA", "current_trial": 161, "dateTime": 1510774811298, "trialdata": {"rt": -1, "stimulus": "<p id=\"stim\">ONION</p>", "key_press": -1, "type": "PRES_VIS", "word": "onion", "wordID": 976, "conditions": [24, 800, "v", 24000], "trial": 4, "serialpos": 16, "trial_type": "single-stim", "trial_index": 161, "time_elapsed": 989870, "internal_node_id": "0.0-116.0"}}, {"uniqueid": "MTK0361:3X31TUMD7YTHKPVGUAPN8KV38DO1LA", "current_trial": 162, "dateTime": 1510774813289, "trialdata": {"rt": -1, "stimulus": "<p id=\"stim\">EGYPT</p>", "key_press": -1, "type": "PRES_VIS", "word": "egypt", "wordID": 518, "conditions": [24, 800, "v", 24000], "trial": 4, "serialpos": 17, "trial_type": "single-stim", "trial_index": 162, "time_elapsed": 991861, "internal_node_id": "0.0-117.0"}}, {"uniqueid": "MTK0361:3X31TUMD7YTHKPVGUAPN8KV38DO1LA", "current_trial": 163, "dateTime": 1510774815121, "trialdata": {"rt": -1, "stimulus": "<p id=\"stim\">GOBLIN</p>", "key_press": -1, "type": "PRES_VIS", "word": "goblin", "wordID": 644, "conditions": [24, 800, "v", 24000], "trial": 4, "serialpos": 18, "trial_type": "single-stim", "trial_index": 163, "time_elapsed": 993693, "internal_node_id": "0.0-118.0"}}, {"uniqueid": "MTK0361:3X31TUMD7YTHKPVGUAPN8KV38DO1LA", "current_trial": 164, "dateTime": 1510774816913, "trialdata": {"rt": -1, "stimulus": "<p id=\"stim\">MILK</p>", "key_press": -1, "type": "PRES_VIS", "word": "milk", "wordID": 894, "conditions": [24, 800, "v", 24000], "trial": 4, "serialpos": 19, "trial_type": "single-stim", "trial_index": 164, "time_elapsed": 995485, "internal_node_id": "0.0-119.0"}}, {"uniqueid": "MTK0361:3X31TUMD7YTHKPVGUAPN8KV38DO1LA", "current_trial": 165, "dateTime": 1510774818886, "trialdata": {"rt": -1, "stimulus": "<p id=\"stim\">SUITCASE</p>", "key_press": -1, "type": "PRES_VIS", "word": "suitcase", "wordID": 1402, "conditions": [24, 800, "v", 24000], "trial": 4, "serialpos": 20, "trial_type": "single-stim", "trial_index": 165, "time_elapsed": 997458, "internal_node_id": "0.0-120.0"}}, {"uniqueid": "MTK0361:3X31TUMD7YTHKPVGUAPN8KV38DO1LA", "current_trial": 166, "dateTime": 1510774820495, "trialdata": {"rt": -1, "stimulus": "<p id=\"stim\">LUGGAGE</p>", "key_press": -1, "type": "PRES_VIS", "word": "luggage", "wordID": 846, "conditions": [24, 800, "v", 24000], "trial": 4, "serialpos": 21, "trial_type": "single-stim", "trial_index": 166, "time_elapsed": 999067, "internal_node_id": "0.0-121.0"}}, {"uniqueid": "MTK0361:3X31TUMD7YTHKPVGUAPN8KV38DO1LA", "current_trial": 167, "dateTime": 1510774822242, "trialdata": {"rt": -1, "stimulus": "<p id=\"stim\">DRIVER</p>", "key_press": -1, "type": "PRES_VIS", "word": "driver", "wordID": 498, "conditions": [24, 800, "v", 24000], "trial": 4, "serialpos": 22, "trial_type": "single-stim", "trial_index": 167, "time_elapsed": 1000814, "internal_node_id": "0.0-122.0"}}, {"uniqueid": "MTK0361:3X31TUMD7YTHKPVGUAPN8KV38DO1LA", "current_trial": 168, "dateTime": 1510774823921, "trialdata": {"rt": -1, "stimulus": "<p id=\"stim\">SILK</p>", "key_press": -1, "type": "PRES_VIS", "word": "silk", "wordID": 1306, "conditions": [24, 800, "v", 24000], "trial": 4, "serialpos": 23, "trial_type": "single-stim", "trial_index": 168, "time_elapsed": 1002493, "internal_node_id": "0.0-123.0"}}, {"uniqueid": "MTK0361:3X31TUMD7YTHKPVGUAPN8KV38DO1LA", "current_trial": 169, "dateTime": 1510774826071, "trialdata": {"rt": -1, "stimulus": "", "key_press": -1, "type": "PRE_RECALL_DELAY", "trial_type": "single-stim", "trial_index": 169, "time_elapsed": 1004643, "internal_node_id": "0.0-124.0-0.0"}}, {"uniqueid": "MTK0361:3X31TUMD7YTHKPVGUAPN8KV38DO1LA", "current_trial": 170, "dateTime": 1510774826573, "trialdata": {"rt": -1000, "stimulus": "/static/audio/400Hz.wav", "key_press": -1, "type": "PRE_RECALL_ALERT", "trial_type": "single-audio", "trial_index": 170, "time_elapsed": 1005145, "internal_node_id": "0.0-125.0"}}, {"uniqueid": "MTK0361:3X31TUMD7YTHKPVGUAPN8KV38DO1LA", "current_trial": 171, "dateTime": 1510774886574, "trialdata": {"rt": [2129, 3456, 4615, 7338, 8463, 13300, 14808, 17845, 20962, 27317, 30513, 39951, 41425, 46397], "recwords": ["silk", "driver", "asia", "luggage", "rooster", "tutu", "fox", "driver", "milk", "beaver", "receipt", "grill", "rabbit", "party"], "type": "FREE_RECALL", "conditions": [24, 800, "v", 24000], "trial": 4, "trial_type": "free-recall", "trial_index": 171, "time_elapsed": 1065145, "internal_node_id": "0.0-126.0-0.0"}}, {"uniqueid": "MTK0361:3X31TUMD7YTHKPVGUAPN8KV38DO1LA", "current_trial": 172, "dateTime": 1510774889543, "trialdata": {"rt": 968, "key_press": 32, "type": "INSTRUCTIONS", "trial_type": "text", "trial_index": 172, "time_elapsed": 1068115, "internal_node_id": "0.0-127.0"}}, {"uniqueid": "MTK0361:3X31TUMD7YTHKPVGUAPN8KV38DO1LA", "current_trial": 173, "dateTime": 1510774915546, "trialdata": {"rt": [1744, 3246, 4950, 6637, 8673, 10507, 11880, 13634, 15570, 17831, 19135, 20745, 22488, 23737], "responses": ["14", "17", "18", "13", "12", "9", "11", "16", "25", "17", "11", "13", "16", "9"], "num1": [8, 5, 5, 4, 6, 3, 2, 9, 6, 7, 1, 1, 7, 1, 5], "num2": [6, 7, 9, 5, 2, 2, 7, 5, 8, 9, 3, 9, 7, 4, 5], "num3": [4, 5, 4, 4, 5, 4, 2, 2, 9, 1, 7, 3, 2, 4, 7], "type": "DISTRACTOR", "conditions": [12, 800, "a", 24000], "trial": 5, "trial_type": "math-distractor", "trial_index": 173, "time_elapsed": 1094118, "internal_node_id": "0.0-128.0"}}, {"uniqueid": "MTK0361:3X31TUMD7YTHKPVGUAPN8KV38DO1LA", "current_trial": 174, "dateTime": 1510774918548, "trialdata": {"rt": -1, "stimulus": "<p id=\"stim\">10</p>", "key_press": -1, "trial_type": "single-stim", "trial_index": 174, "time_elapsed": 1097120, "internal_node_id": "0.0-129.0-0.0"}}, {"uniqueid": "MTK0361:3X31TUMD7YTHKPVGUAPN8KV38DO1LA", "current_trial": 175, "dateTime": 1510774919551, "trialdata": {"rt": -1, "stimulus": "<p id=\"stim\">9</p>", "key_press": -1, "trial_type": "single-stim", "trial_index": 175, "time_elapsed": 1098123, "internal_node_id": "0.0-129.0-1.0"}}, {"uniqueid": "MTK0361:3X31TUMD7YTHKPVGUAPN8KV38DO1LA", "current_trial": 176, "dateTime": 1510774920552, "trialdata": {"rt": -1, "stimulus": "<p id=\"stim\">8</p>", "key_press": -1, "trial_type": "single-stim", "trial_index": 176, "time_elapsed": 1099124, "internal_node_id": "0.0-129.0-2.0"}}, {"uniqueid": "MTK0361:3X31TUMD7YTHKPVGUAPN8KV38DO1LA", "current_trial": 177, "dateTime": 1510774921554, "trialdata": {"rt": -1, "stimulus": "<p id=\"stim\">7</p>", "key_press": -1, "trial_type": "single-stim", "trial_index": 177, "time_elapsed": 1100125, "internal_node_id": "0.0-129.0-3.0"}}, {"uniqueid": "MTK0361:3X31TUMD7YTHKPVGUAPN8KV38DO1LA", "current_trial": 178, "dateTime": 1510774922554, "trialdata": {"rt": -1, "stimulus": "<p id=\"stim\">6</p>", "key_press": -1, "trial_type": "single-stim", "trial_index": 178, "time_elapsed": 1101126, "internal_node_id": "0.0-129.0-4.0"}}, {"uniqueid": "MTK0361:3X31TUMD7YTHKPVGUAPN8KV38DO1LA", "current_trial": 179, "dateTime": 1510774923556, "trialdata": {"rt": -1, "stimulus": "<p id=\"stim\">5</p>", "key_press": -1, "trial_type": "single-stim", "trial_index": 179, "time_elapsed": 1102128, "internal_node_id": "0.0-129.0-5.0"}}, {"uniqueid": "MTK0361:3X31TUMD7YTHKPVGUAPN8KV38DO1LA", "current_trial": 180, "dateTime": 1510774924558, "trialdata": {"rt": -1, "stimulus": "<p id=\"stim\">4</p>", "key_press": -1, "trial_type": "single-stim", "trial_index": 180, "time_elapsed": 1103130, "internal_node_id": "0.0-129.0-6.0"}}, {"uniqueid": "MTK0361:3X31TUMD7YTHKPVGUAPN8KV38DO1LA", "current_trial": 181, "dateTime": 1510774925560, "trialdata": {"rt": -1, "stimulus": "<p id=\"stim\">3</p>", "key_press": -1, "trial_type": "single-stim", "trial_index": 181, "time_elapsed": 1104132, "internal_node_id": "0.0-129.0-7.0"}}, {"uniqueid": "MTK0361:3X31TUMD7YTHKPVGUAPN8KV38DO1LA", "current_trial": 182, "dateTime": 1510774926560, "trialdata": {"rt": -1, "stimulus": "<p id=\"stim\">2</p>", "key_press": -1, "trial_type": "single-stim", "trial_index": 182, "time_elapsed": 1105132, "internal_node_id": "0.0-129.0-8.0"}}, {"uniqueid": "MTK0361:3X31TUMD7YTHKPVGUAPN8KV38DO1LA", "current_trial": 183, "dateTime": 1510774927562, "trialdata": {"rt": -1, "stimulus": "<p id=\"stim\">1</p>", "key_press": -1, "trial_type": "single-stim", "trial_index": 183, "time_elapsed": 1106134, "internal_node_id": "0.0-129.0-9.0"}}, {"uniqueid": "MTK0361:3X31TUMD7YTHKPVGUAPN8KV38DO1LA", "current_trial": 184, "dateTime": 1510774929063, "trialdata": {"rt": -1, "stimulus": "<p id=\"stim\">+</p>", "key_press": -1, "type": "FIXATION", "trial_type": "single-stim", "trial_index": 184, "time_elapsed": 1107635, "internal_node_id": "0.0-130.0-0.0"}}, {"uniqueid": "MTK0361:3X31TUMD7YTHKPVGUAPN8KV38DO1LA", "current_trial": 185, "dateTime": 1510774930980, "trialdata": {"rt": -1000, "stimulus": "/static/audio/wordpool/ROBIN.wav", "key_press": -1, "type": "PRES_AUD", "word": "robin", "wordID": 1198, "conditions": [12, 800, "a", 24000], "trial": 5, "serialpos": 0, "trial_type": "single-audio", "trial_index": 185, "time_elapsed": 1109552, "internal_node_id": "0.0-131.0"}}, {"uniqueid": "MTK0361:3X31TUMD7YTHKPVGUAPN8KV38DO1LA", "current_trial": 186, "dateTime": 1510774932602, "trialdata": {"rt": -1000, "stimulus": "/static/audio/wordpool/WASP.wav", "key_press": -1, "type": "PRES_AUD", "word": "wasp", "wordID": 1592, "conditions": [12, 800, "a", 24000], "trial": 5, "serialpos": 1, "trial_type": "single-audio", "trial_index": 186, "time_elapsed": 1111174, "internal_node_id": "0.0-132.0"}}, {"uniqueid": "MTK0361:3X31TUMD7YTHKPVGUAPN8KV38DO1LA", "current_trial": 187, "dateTime": 1510774934362, "trialdata": {"rt": -1000, "stimulus": "/static/audio/wordpool/POCKET.wav", "key_press": -1, "type": "PRES_AUD", "word": "pocket", "wordID": 1092, "conditions": [12, 800, "a", 24000], "trial": 5, "serialpos": 2, "trial_type": "single-audio", "trial_index": 187, "time_elapsed": 1112933, "internal_node_id": "0.0-133.0"}}, {"uniqueid": "MTK0361:3X31TUMD7YTHKPVGUAPN8KV38DO1LA", "current_trial": 188, "dateTime": 1510774936292, "trialdata": {"rt": -1000, "stimulus": "/static/audio/wordpool/PLAID.wav", "key_press": -1, "type": "PRES_AUD", "word": "plaid", "wordID": 1079, "conditions": [12, 800, "a", 24000], "trial": 5, "serialpos": 3, "trial_type": "single-audio", "trial_index": 188, "time_elapsed": 1114864, "internal_node_id": "0.0-134.0"}}, {"uniqueid": "MTK0361:3X31TUMD7YTHKPVGUAPN8KV38DO1LA", "current_trial": 189, "dateTime": 1510774938063, "trialdata": {"rt": -1000, "stimulus": "/static/audio/wordpool/LEOPARD.wav", "key_press": -1, "type": "PRES_AUD", "word": "leopard", "wordID": 811, "conditions": [12, 800, "a", 24000], "trial": 5, "serialpos": 4, "trial_type": "single-audio", "trial_index": 189, "time_elapsed": 1116635, "internal_node_id": "0.0-135.0"}}, {"uniqueid": "MTK0361:3X31TUMD7YTHKPVGUAPN8KV38DO1LA", "current_trial": 190, "dateTime": 1510774940013, "trialdata": {"rt": -1000, "stimulus": "/static/audio/wordpool/VALVE.wav", "key_press": -1, "type": "PRES_AUD", "word": "valve", "wordID": 1545, "conditions": [12, 800, "a", 24000], "trial": 5, "serialpos": 5, "trial_type": "single-audio", "trial_index": 190, "time_elapsed": 1118585, "internal_node_id": "0.0-136.0"}}, {"uniqueid": "MTK0361:3X31TUMD7YTHKPVGUAPN8KV38DO1LA", "current_trial": 191, "dateTime": 1510774941833, "trialdata": {"rt": -1000, "stimulus": "/static/audio/wordpool/CHIPMUNK.wav", "key_press": -1, "type": "PRES_AUD", "word": "chipmunk", "wordID": 303, "conditions": [12, 800, "a", 24000], "trial": 5, "serialpos": 6, "trial_type": "single-audio", "trial_index": 191, "time_elapsed": 1120405, "internal_node_id": "0.0-137.0"}}, {"uniqueid": "MTK0361:3X31TUMD7YTHKPVGUAPN8KV38DO1LA", "current_trial": 192, "dateTime": 1510774943698, "trialdata": {"rt": -1000, "stimulus": "/static/audio/wordpool/TURKEY.wav", "key_press": -1, "type": "PRES_AUD", "word": "turkey", "wordID": 1519, "conditions": [12, 800, "a", 24000], "trial": 5, "serialpos": 7, "trial_type": "single-audio", "trial_index": 192, "time_elapsed": 1122269, "internal_node_id": "0.0-138.0"}}, {"uniqueid": "MTK0361:3X31TUMD7YTHKPVGUAPN8KV38DO1LA", "current_trial": 193, "dateTime": 1510774945488, "trialdata": {"rt": -1000, "stimulus": "/static/audio/wordpool/SKILLET.wav", "key_press": -1, "type": "PRES_AUD", "word": "skillet", "wordID": 1316, "conditions": [12, 800, "a", 24000], "trial": 5, "serialpos": 8, "trial_type": "single-audio", "trial_index": 193, "time_elapsed": 1124060, "internal_node_id": "0.0-139.0"}}, {"uniqueid": "MTK0361:3X31TUMD7YTHKPVGUAPN8KV38DO1LA", "current_trial": 194, "dateTime": 1510774947291, "trialdata": {"rt": -1000, "stimulus": "/static/audio/wordpool/LIZARD.wav", "key_press": -1, "type": "PRES_AUD", "word": "lizard", "wordID": 833, "conditions": [12, 800, "a", 24000], "trial": 5, "serialpos": 9, "trial_type": "single-audio", "trial_index": 194, "time_elapsed": 1125863, "internal_node_id": "0.0-140.0"}}, {"uniqueid": "MTK0361:3X31TUMD7YTHKPVGUAPN8KV38DO1LA", "current_trial": 195, "dateTime": 1510774948901, "trialdata": {"rt": -1000, "stimulus": "/static/audio/wordpool/SHOVEL.wav", "key_press": -1, "type": "PRES_AUD", "word": "shovel", "wordID": 1294, "conditions": [12, 800, "a", 24000], "trial": 5, "serialpos": 10, "trial_type": "single-audio", "trial_index": 195, "time_elapsed": 1127472, "internal_node_id": "0.0-141.0"}}, {"uniqueid": "MTK0361:3X31TUMD7YTHKPVGUAPN8KV38DO1LA", "current_trial": 196, "dateTime": 1510774950831, "trialdata": {"rt": -1000, "stimulus": "/static/audio/wordpool/POLICE.wav", "key_press": -1, "type": "PRES_AUD", "word": "police", "wordID": 1097, "conditions": [12, 800, "a", 24000], "trial": 5, "serialpos": 11, "trial_type": "single-audio", "trial_index": 196, "time_elapsed": 1129403, "internal_node_id": "0.0-142.0"}}, {"uniqueid": "MTK0361:3X31TUMD7YTHKPVGUAPN8KV38DO1LA", "current_trial": 197, "dateTime": 1510774952042, "trialdata": {"rt": -1, "stimulus": "", "key_press": -1, "type": "PRE_RECALL_DELAY", "trial_type": "single-stim", "trial_index": 197, "time_elapsed": 1130614, "internal_node_id": "0.0-143.0-0.0"}}, {"uniqueid": "MTK0361:3X31TUMD7YTHKPVGUAPN8KV38DO1LA", "current_trial": 198, "dateTime": 1510774952543, "trialdata": {"rt": -1000, "stimulus": "/static/audio/400Hz.wav", "key_press": -1, "type": "PRE_RECALL_ALERT", "trial_type": "single-audio", "trial_index": 198, "time_elapsed": 1131115, "internal_node_id": "0.0-144.0"}}, {"uniqueid": "MTK0361:3X31TUMD7YTHKPVGUAPN8KV38DO1LA", "current_trial": 199, "dateTime": 1510775012547, "trialdata": {"rt": [1731, 3070, 4870, 6329, 22487, 26942, 42918], "recwords": ["lizard", "shovel", "skillet", "police", "turkey", "wasp", "plaid"], "type": "FREE_RECALL", "conditions": [12, 800, "a", 24000], "trial": 5, "trial_type": "free-recall", "trial_index": 199, "time_elapsed": 1191115, "internal_node_id": "0.0-145.0-0.0"}}, {"uniqueid": "MTK0361:3X31TUMD7YTHKPVGUAPN8KV38DO1LA", "current_trial": 200, "dateTime": 1510775016388, "trialdata": {"rt": 1839, "key_press": 32, "type": "INSTRUCTIONS", "trial_type": "text", "trial_index": 200, "time_elapsed": 1194960, "internal_node_id": "0.0-146.0"}}, {"uniqueid": "MTK0361:3X31TUMD7YTHKPVGUAPN8KV38DO1LA", "current_trial": 201, "dateTime": 1510775030392, "trialdata": {"rt": [1619, 3295, 4859, 7491, 10226], "responses": ["13", "21", "15", "15", "12"], "num1": [1, 3, 6, 3, 6, 2], "num2": [6, 9, 1, 6, 1, 2], "num3": [6, 9, 8, 6, 5, 3], "type": "DISTRACTOR", "conditions": [12, 800, "v", 12000], "trial": 6, "trial_type": "math-distractor", "trial_index": 201, "time_elapsed": 1208964, "internal_node_id": "0.0-147.0"}}, {"uniqueid": "MTK0361:3X31TUMD7YTHKPVGUAPN8KV38DO1LA", "current_trial": 202, "dateTime": 1510775033395, "trialdata": {"rt": -1, "stimulus": "<p id=\"stim\">10</p>", "key_press": -1, "trial_type": "single-stim", "trial_index": 202, "time_elapsed": 1211967, "internal_node_id": "0.0-148.0-0.0"}}, {"uniqueid": "MTK0361:3X31TUMD7YTHKPVGUAPN8KV38DO1LA", "current_trial": 203, "dateTime": 1510775034396, "trialdata": {"rt": -1, "stimulus": "<p id=\"stim\">9</p>", "key_press": -1, "trial_type": "single-stim", "trial_index": 203, "time_elapsed": 1212968, "internal_node_id": "0.0-148.0-1.0"}}, {"uniqueid": "MTK0361:3X31TUMD7YTHKPVGUAPN8KV38DO1LA", "current_trial": 204, "dateTime": 1510775035398, "trialdata": {"rt": -1, "stimulus": "<p id=\"stim\">8</p>", "key_press": -1, "trial_type": "single-stim", "trial_index": 204, "time_elapsed": 1213970, "internal_node_id": "0.0-148.0-2.0"}}, {"uniqueid": "MTK0361:3X31TUMD7YTHKPVGUAPN8KV38DO1LA", "current_trial": 205, "dateTime": 1510775036400, "trialdata": {"rt": -1, "stimulus": "<p id=\"stim\">7</p>", "key_press": -1, "trial_type": "single-stim", "trial_index": 205, "time_elapsed": 1214972, "internal_node_id": "0.0-148.0-3.0"}}, {"uniqueid": "MTK0361:3X31TUMD7YTHKPVGUAPN8KV38DO1LA", "current_trial": 206, "dateTime": 1510775037402, "trialdata": {"rt": -1, "stimulus": "<p id=\"stim\">6</p>", "key_press": -1, "trial_type": "single-stim", "trial_index": 206, "time_elapsed": 1215974, "internal_node_id": "0.0-148.0-4.0"}}, {"uniqueid": "MTK0361:3X31TUMD7YTHKPVGUAPN8KV38DO1LA", "current_trial": 207, "dateTime": 1510775038404, "trialdata": {"rt": -1, "stimulus": "<p id=\"stim\">5</p>", "key_press": -1, "trial_type": "single-stim", "trial_index": 207, "time_elapsed": 1216976, "internal_node_id": "0.0-148.0-5.0"}}, {"uniqueid": "MTK0361:3X31TUMD7YTHKPVGUAPN8KV38DO1LA", "current_trial": 208, "dateTime": 1510775039406, "trialdata": {"rt": -1, "stimulus": "<p id=\"stim\">4</p>", "key_press": -1, "trial_type": "single-stim", "trial_index": 208, "time_elapsed": 1217978, "internal_node_id": "0.0-148.0-6.0"}}, {"uniqueid": "MTK0361:3X31TUMD7YTHKPVGUAPN8KV38DO1LA", "current_trial": 209, "dateTime": 1510775040408, "trialdata": {"rt": -1, "stimulus": "<p id=\"stim\">3</p>", "key_press": -1, "trial_type": "single-stim", "trial_index": 209, "time_elapsed": 1218979, "internal_node_id": "0.0-148.0-7.0"}}, {"uniqueid": "MTK0361:3X31TUMD7YTHKPVGUAPN8KV38DO1LA", "current_trial": 210, "dateTime": 1510775041410, "trialdata": {"rt": -1, "stimulus": "<p id=\"stim\">2</p>", "key_press": -1, "trial_type": "single-stim", "trial_index": 210, "time_elapsed": 1219981, "internal_node_id": "0.0-148.0-8.0"}}, {"uniqueid": "MTK0361:3X31TUMD7YTHKPVGUAPN8KV38DO1LA", "current_trial": 211, "dateTime": 1510775042411, "trialdata": {"rt": -1, "stimulus": "<p id=\"stim\">1</p>", "key_press": -1, "trial_type": "single-stim", "trial_index": 211, "time_elapsed": 1220982, "internal_node_id": "0.0-148.0-9.0"}}, {"uniqueid": "MTK0361:3X31TUMD7YTHKPVGUAPN8KV38DO1LA", "current_trial": 212, "dateTime": 1510775043913, "trialdata": {"rt": -1, "stimulus": "<p id=\"stim\">+</p>", "key_press": -1, "type": "FIXATION", "trial_type": "single-stim", "trial_index": 212, "time_elapsed": 1222485, "internal_node_id": "0.0-149.0-0.0"}}, {"uniqueid": "MTK0361:3X31TUMD7YTHKPVGUAPN8KV38DO1LA", "current_trial": 213, "dateTime": 1510775044715, "trialdata": {"rt": -1, "stimulus": "<p id=\"stim\">SNAKE</p>", "key_press": -1, "type": "PRES_VIS", "word": "snake", "wordID": 1332, "conditions": [12, 800, "v", 12000], "trial": 6, "serialpos": 0, "trial_type": "single-stim", "trial_index": 213, "time_elapsed": 1223287, "internal_node_id": "0.0-150.0"}}, {"uniqueid": "MTK0361:3X31TUMD7YTHKPVGUAPN8KV38DO1LA", "current_trial": 214, "dateTime": 1510775046440, "trialdata": {"rt": -1, "stimulus": "<p id=\"stim\">KNIFE</p>", "key_press": -1, "type": "PRES_VIS", "word": "knife", "wordID": 784, "conditions": [12, 800, "v", 12000], "trial": 6, "serialpos": 1, "trial_type": "single-stim", "trial_index": 214, "time_elapsed": 1225012, "internal_node_id": "0.0-151.0"}}, {"uniqueid": "MTK0361:3X31TUMD7YTHKPVGUAPN8KV38DO1LA", "current_trial": 215, "dateTime": 1510775048327, "trialdata": {"rt": -1, "stimulus": "<p id=\"stim\">PISTOL</p>", "key_press": -1, "type": "PRES_VIS", "word": "pistol", "wordID": 1074, "conditions": [12, 800, "v", 12000], "trial": 6, "serialpos": 2, "trial_type": "single-stim", "trial_index": 215, "time_elapsed": 1226899, "internal_node_id": "0.0-152.0"}}, {"uniqueid": "MTK0361:3X31TUMD7YTHKPVGUAPN8KV38DO1LA", "current_trial": 216, "dateTime": 1510775049930, "trialdata": {"rt": -1, "stimulus": "<p id=\"stim\">GIRL</p>", "key_press": -1, "type": "PRES_VIS", "word": "girl", "wordID": 636, "conditions": [12, 800, "v", 12000], "trial": 6, "serialpos": 3, "trial_type": "single-stim", "trial_index": 216, "time_elapsed": 1228501, "internal_node_id": "0.0-153.0"}}, {"uniqueid": "MTK0361:3X31TUMD7YTHKPVGUAPN8KV38DO1LA", "current_trial": 217, "dateTime": 1510775051912, "trialdata": {"rt": -1, "stimulus": "<p id=\"stim\">PORK</p>", "key_press": -1, "type": "PRES_VIS", "word": "pork", "wordID": 1107, "conditions": [12, 800, "v", 12000], "trial": 6, "serialpos": 4, "trial_type": "single-stim", "trial_index": 217, "time_elapsed": 1230484, "internal_node_id": "0.0-154.0"}}, {"uniqueid": "MTK0361:3X31TUMD7YTHKPVGUAPN8KV38DO1LA", "current_trial": 218, "dateTime": 1510775053801, "trialdata": {"rt": -1, "stimulus": "<p id=\"stim\">GARLIC</p>", "key_press": -1, "type": "PRES_VIS", "word": "garlic", "wordID": 623, "conditions": [12, 800, "v", 12000], "trial": 6, "serialpos": 5, "trial_type": "single-stim", "trial_index": 218, "time_elapsed": 1232373, "internal_node_id": "0.0-155.0"}}, {"uniqueid": "MTK0361:3X31TUMD7YTHKPVGUAPN8KV38DO1LA", "current_trial": 219, "dateTime": 1510775055595, "trialdata": {"rt": -1, "stimulus": "<p id=\"stim\">MISSILE</p>", "key_press": -1, "type": "PRES_VIS", "word": "missile", "wordID": 899, "conditions": [12, 800, "v", 12000], "trial": 6, "serialpos": 6, "trial_type": "single-stim", "trial_index": 219, "time_elapsed": 1234167, "internal_node_id": "0.0-156.0"}}, {"uniqueid": "MTK0361:3X31TUMD7YTHKPVGUAPN8KV38DO1LA", "current_trial": 220, "dateTime": 1510775057564, "trialdata": {"rt": -1, "stimulus": "<p id=\"stim\">NIGHTGOWN</p>", "key_press": -1, "type": "PRES_VIS", "word": "nightgown", "wordID": 952, "conditions": [12, 800, "v", 12000], "trial": 6, "serialpos": 7, "trial_type": "single-stim", "trial_index": 220, "time_elapsed": 1236136, "internal_node_id": "0.0-157.0"}}, {"uniqueid": "MTK0361:3X31TUMD7YTHKPVGUAPN8KV38DO1LA", "current_trial": 221, "dateTime": 1510775059200, "trialdata": {"rt": -1, "stimulus": "<p id=\"stim\">DOUGHNUT</p>", "key_press": -1, "type": "PRES_VIS", "word": "doughnut", "wordID": 489, "conditions": [12, 800, "v", 12000], "trial": 6, "serialpos": 8, "trial_type": "single-stim", "trial_index": 221, "time_elapsed": 1237771, "internal_node_id": "0.0-158.0"}}, {"uniqueid": "MTK0361:3X31TUMD7YTHKPVGUAPN8KV38DO1LA", "current_trial": 222, "dateTime": 1510775060952, "trialdata": {"rt": -1, "stimulus": "<p id=\"stim\">COBRA</p>", "key_press": -1, "type": "PRES_VIS", "word": "cobra", "wordID": 335, "conditions": [12, 800, "v", 12000], "trial": 6, "serialpos": 9, "trial_type": "single-stim", "trial_index": 222, "time_elapsed": 1239524, "internal_node_id": "0.0-159.0"}}, {"uniqueid": "MTK0361:3X31TUMD7YTHKPVGUAPN8KV38DO1LA", "current_trial": 223, "dateTime": 1510775062620, "trialdata": {"rt": -1, "stimulus": "<p id=\"stim\">CASKET</p>", "key_press": -1, "type": "PRES_VIS", "word": "casket", "wordID": 254, "conditions": [12, 800, "v", 12000], "trial": 6, "serialpos": 10, "trial_type": "single-stim", "trial_index": 223, "time_elapsed": 1241192, "internal_node_id": "0.0-160.0"}}, {"uniqueid": "MTK0361:3X31TUMD7YTHKPVGUAPN8KV38DO1LA", "current_trial": 224, "dateTime": 1510775064604, "trialdata": {"rt": -1, "stimulus": "<p id=\"stim\">PILOT</p>", "key_press": -1, "type": "PRES_VIS", "word": "pilot", "wordID": 1069, "conditions": [12, 800, "v", 12000], "trial": 6, "serialpos": 11, "trial_type": "single-stim", "trial_index": 224, "time_elapsed": 1243176, "internal_node_id": "0.0-161.0"}}, {"uniqueid": "MTK0361:3X31TUMD7YTHKPVGUAPN8KV38DO1LA", "current_trial": 225, "dateTime": 1510775066829, "trialdata": {"rt": -1, "stimulus": "", "key_press": -1, "type": "PRE_RECALL_DELAY", "trial_type": "single-stim", "trial_index": 225, "time_elapsed": 1245401, "internal_node_id": "0.0-162.0-0.0"}}, {"uniqueid": "MTK0361:3X31TUMD7YTHKPVGUAPN8KV38DO1LA", "current_trial": 226, "dateTime": 1510775067364, "trialdata": {"rt": -1000, "stimulus": "/static/audio/400Hz.wav", "key_press": -1, "type": "PRE_RECALL_ALERT", "trial_type": "single-audio", "trial_index": 226, "time_elapsed": 1245936, "internal_node_id": "0.0-163.0"}}, {"uniqueid": "MTK0361:3X31TUMD7YTHKPVGUAPN8KV38DO1LA", "current_trial": 227, "dateTime": 1510775127365, "trialdata": {"rt": [1548, 3505, 4890, 7422, 9895, 13192, 16184], "recwords": ["pilot", "snake", "knife", "casket", "doughnut", "nightgown", "missile"], "type": "FREE_RECALL", "conditions": [12, 800, "v", 12000], "trial": 6, "trial_type": "free-recall", "trial_index": 227, "time_elapsed": 1305935, "internal_node_id": "0.0-164.0-0.0"}}, {"uniqueid": "MTK0361:3X31TUMD7YTHKPVGUAPN8KV38DO1LA", "current_trial": 228, "dateTime": 1510775130023, "trialdata": {"rt": 656, "key_press": 32, "type": "INSTRUCTIONS", "trial_type": "text", "trial_index": 228, "time_elapsed": 1308595, "internal_node_id": "0.0-165.0"}}, {"uniqueid": "MTK0361:3X31TUMD7YTHKPVGUAPN8KV38DO1LA", "current_trial": 229, "dateTime": 1510775156027, "trialdata": {"rt": [1800, 3374, 4668, 5973, 7897, 10159, 12430, 14523, 16753, 18055, 19451, 21419, 23061], "responses": ["15", "18", "11", "18", "16", "20", "13", "16", "13", "12", "17", "17", "17"], "num1": [5, 2, 1, 7, 2, 9, 9, 1, 4, 6, 9, 3, 3, 9], "num2": [6, 7, 4, 7, 8, 5, 2, 9, 4, 4, 1, 5, 8, 5], "num3": [4, 9, 6, 4, 6, 6, 1, 6, 5, 2, 7, 9, 6, 1], "type": "DISTRACTOR", "conditions": [12, 1600, "v", 24000], "trial": 7, "trial_type": "math-distractor", "trial_index": 229, "time_elapsed": 1334599, "internal_node_id": "0.0-166.0"}}, {"uniqueid": "MTK0361:3X31TUMD7YTHKPVGUAPN8KV38DO1LA", "current_trial": 230, "dateTime": 1510775159031, "trialdata": {"rt": -1, "stimulus": "<p id=\"stim\">10</p>", "key_press": -1, "trial_type": "single-stim", "trial_index": 230, "time_elapsed": 1337602, "internal_node_id": "0.0-167.0-0.0"}}, {"uniqueid": "MTK0361:3X31TUMD7YTHKPVGUAPN8KV38DO1LA", "current_trial": 231, "dateTime": 1510775160033, "trialdata": {"rt": -1, "stimulus": "<p id=\"stim\">9</p>", "key_press": -1, "trial_type": "single-stim", "trial_index": 231, "time_elapsed": 1338604, "internal_node_id": "0.0-167.0-1.0"}}, {"uniqueid": "MTK0361:3X31TUMD7YTHKPVGUAPN8KV38DO1LA", "current_trial": 232, "dateTime": 1510775161033, "trialdata": {"rt": -1, "stimulus": "<p id=\"stim\">8</p>", "key_press": -1, "trial_type": "single-stim", "trial_index": 232, "time_elapsed": 1339605, "internal_node_id": "0.0-167.0-2.0"}}, {"uniqueid": "MTK0361:3X31TUMD7YTHKPVGUAPN8KV38DO1LA", "current_trial": 233, "dateTime": 1510775162035, "trialdata": {"rt": -1, "stimulus": "<p id=\"stim\">7</p>", "key_press": -1, "trial_type": "single-stim", "trial_index": 233, "time_elapsed": 1340606, "internal_node_id": "0.0-167.0-3.0"}}, {"uniqueid": "MTK0361:3X31TUMD7YTHKPVGUAPN8KV38DO1LA", "current_trial": 234, "dateTime": 1510775163037, "trialdata": {"rt": -1, "stimulus": "<p id=\"stim\">6</p>", "key_press": -1, "trial_type": "single-stim", "trial_index": 234, "time_elapsed": 1341608, "internal_node_id": "0.0-167.0-4.0"}}, {"uniqueid": "MTK0361:3X31TUMD7YTHKPVGUAPN8KV38DO1LA", "current_trial": 235, "dateTime": 1510775164039, "trialdata": {"rt": -1, "stimulus": "<p id=\"stim\">5</p>", "key_press": -1, "trial_type": "single-stim", "trial_index": 235, "time_elapsed": 1342610, "internal_node_id": "0.0-167.0-5.0"}}, {"uniqueid": "MTK0361:3X31TUMD7YTHKPVGUAPN8KV38DO1LA", "current_trial": 236, "dateTime": 1510775165042, "trialdata": {"rt": -1, "stimulus": "<p id=\"stim\">4</p>", "key_press": -1, "trial_type": "single-stim", "trial_index": 236, "time_elapsed": 1343613, "internal_node_id": "0.0-167.0-6.0"}}, {"uniqueid": "MTK0361:3X31TUMD7YTHKPVGUAPN8KV38DO1LA", "current_trial": 237, "dateTime": 1510775166044, "trialdata": {"rt": -1, "stimulus": "<p id=\"stim\">3</p>", "key_press": -1, "trial_type": "single-stim", "trial_index": 237, "time_elapsed": 1344616, "internal_node_id": "0.0-167.0-7.0"}}, {"uniqueid": "MTK0361:3X31TUMD7YTHKPVGUAPN8KV38DO1LA", "current_trial": 238, "dateTime": 1510775167046, "trialdata": {"rt": -1, "stimulus": "<p id=\"stim\">2</p>", "key_press": -1, "trial_type": "single-stim", "trial_index": 238, "time_elapsed": 1345618, "internal_node_id": "0.0-167.0-8.0"}}, {"uniqueid": "MTK0361:3X31TUMD7YTHKPVGUAPN8KV38DO1LA", "current_trial": 239, "dateTime": 1510775168047, "trialdata": {"rt": -1, "stimulus": "<p id=\"stim\">1</p>", "key_press": -1, "trial_type": "single-stim", "trial_index": 239, "time_elapsed": 1346619, "internal_node_id": "0.0-167.0-9.0"}}, {"uniqueid": "MTK0361:3X31TUMD7YTHKPVGUAPN8KV38DO1LA", "current_trial": 240, "dateTime": 1510775169549, "trialdata": {"rt": -1, "stimulus": "<p id=\"stim\">+</p>", "key_press": -1, "type": "FIXATION", "trial_type": "single-stim", "trial_index": 240, "time_elapsed": 1348121, "internal_node_id": "0.0-168.0-0.0"}}, {"uniqueid": "MTK0361:3X31TUMD7YTHKPVGUAPN8KV38DO1LA", "current_trial": 241, "dateTime": 1510775171151, "trialdata": {"rt": -1, "stimulus": "<p id=\"stim\">PLAYGROUND</p>", "key_press": -1, "type": "PRES_VIS", "word": "playground", "wordID": 1086, "conditions": [12, 1600, "v", 24000], "trial": 7, "serialpos": 0, "trial_type": "single-stim", "trial_index": 241, "time_elapsed": 1349723, "internal_node_id": "0.0-169.0"}}, {"uniqueid": "MTK0361:3X31TUMD7YTHKPVGUAPN8KV38DO1LA", "current_trial": 242, "dateTime": 1510775173682, "trialdata": {"rt": -1, "stimulus": "<p id=\"stim\">JAPAN</p>", "key_press": -1, "type": "PRES_VIS", "word": "japan", "wordID": 748, "conditions": [12, 1600, "v", 24000], "trial": 7, "serialpos": 1, "trial_type": "single-stim", "trial_index": 242, "time_elapsed": 1352254, "internal_node_id": "0.0-170.0"}}, {"uniqueid": "MTK0361:3X31TUMD7YTHKPVGUAPN8KV38DO1LA", "current_trial": 243, "dateTime": 1510775176421, "trialdata": {"rt": -1, "stimulus": "<p id=\"stim\">EUROPE</p>", "key_press": -1, "type": "PRES_VIS", "word": "europe", "wordID": 540, "conditions": [12, 1600, "v", 24000], "trial": 7, "serialpos": 2, "trial_type": "single-stim", "trial_index": 243, "time_elapsed": 1354993, "internal_node_id": "0.0-171.0"}}, {"uniqueid": "MTK0361:3X31TUMD7YTHKPVGUAPN8KV38DO1LA", "current_trial": 244, "dateTime": 1510775179171, "trialdata": {"rt": -1, "stimulus": "<p id=\"stim\">CREVICE</p>", "key_press": -1, "type": "PRES_VIS", "word": "crevice", "wordID": 404, "conditions": [12, 1600, "v", 24000], "trial": 7, "serialpos": 3, "trial_type": "single-stim", "trial_index": 244, "time_elapsed": 1357743, "internal_node_id": "0.0-172.0"}}, {"uniqueid": "MTK0361:3X31TUMD7YTHKPVGUAPN8KV38DO1LA", "current_trial": 245, "dateTime": 1510775181631, "trialdata": {"rt": -1, "stimulus": "<p id=\"stim\">CLAM</p>", "key_press": -1, "type": "PRES_VIS", "word": "clam", "wordID": 314, "conditions": [12, 1600, "v", 24000], "trial": 7, "serialpos": 4, "trial_type": "single-stim", "trial_index": 245, "time_elapsed": 1360203, "internal_node_id": "0.0-173.0"}}, {"uniqueid": "MTK0361:3X31TUMD7YTHKPVGUAPN8KV38DO1LA", "current_trial": 246, "dateTime": 1510775184094, "trialdata": {"rt": -1, "stimulus": "<p id=\"stim\">PERFUME</p>", "key_press": -1, "type": "PRES_VIS", "word": "perfume", "wordID": 1048, "conditions": [12, 1600, "v", 24000], "trial": 7, "serialpos": 5, "trial_type": "single-stim", "trial_index": 246, "time_elapsed": 1362666, "internal_node_id": "0.0-174.0"}}, {"uniqueid": "MTK0361:3X31TUMD7YTHKPVGUAPN8KV38DO1LA", "current_trial": 247, "dateTime": 1510775186778, "trialdata": {"rt": -1, "stimulus": "<p id=\"stim\">PICTURE</p>", "key_press": -1, "type": "PRES_VIS", "word": "picture", "wordID": 1060, "conditions": [12, 1600, "v", 24000], "trial": 7, "serialpos": 6, "trial_type": "single-stim", "trial_index": 247, "time_elapsed": 1365350, "internal_node_id": "0.0-175.0"}}, {"uniqueid": "MTK0361:3X31TUMD7YTHKPVGUAPN8KV38DO1LA", "current_trial": 248, "dateTime": 1510775189225, "trialdata": {"rt": -1, "stimulus": "<p id=\"stim\">DUSTPAN</p>", "key_press": -1, "type": "PRES_VIS", "word": "dustpan", "wordID": 508, "conditions": [12, 1600, "v", 24000], "trial": 7, "serialpos": 7, "trial_type": "single-stim", "trial_index": 248, "time_elapsed": 1367797, "internal_node_id": "0.0-176.0"}}, {"uniqueid": "MTK0361:3X31TUMD7YTHKPVGUAPN8KV38DO1LA", "current_trial": 249, "dateTime": 1510775191827, "trialdata": {"rt": -1, "stimulus": "<p id=\"stim\">WASHER</p>", "key_press": -1, "type": "PRES_VIS", "word": "washer", "wordID": 1591, "conditions": [12, 1600, "v", 24000], "trial": 7, "serialpos": 8, "trial_type": "single-stim", "trial_index": 249, "time_elapsed": 1370398, "internal_node_id": "0.0-177.0"}}, {"uniqueid": "MTK0361:3X31TUMD7YTHKPVGUAPN8KV38DO1LA", "current_trial": 250, "dateTime": 1510775194267, "trialdata": {"rt": -1, "stimulus": "<p id=\"stim\">ROD</p>", "key_press": -1, "type": "PRES_VIS", "word": "rod", "wordID": 1202, "conditions": [12, 1600, "v", 24000], "trial": 7, "serialpos": 9, "trial_type": "single-stim", "trial_index": 250, "time_elapsed": 1372839, "internal_node_id": "0.0-178.0"}}, {"uniqueid": "MTK0361:3X31TUMD7YTHKPVGUAPN8KV38DO1LA", "current_trial": 251, "dateTime": 1510775196977, "trialdata": {"rt": -1, "stimulus": "<p id=\"stim\">PREACHER</p>", "key_press": -1, "type": "PRES_VIS", "word": "preacher", "wordID": 1118, "conditions": [12, 1600, "v", 24000], "trial": 7, "serialpos": 10, "trial_type": "single-stim", "trial_index": 251, "time_elapsed": 1375549, "internal_node_id": "0.0-179.0"}}, {"uniqueid": "MTK0361:3X31TUMD7YTHKPVGUAPN8KV38DO1LA", "current_trial": 252, "dateTime": 1510775199496, "trialdata": {"rt": -1, "stimulus": "<p id=\"stim\">FRAGRANCE</p>", "key_press": -1, "type": "PRES_VIS", "word": "fragrance", "wordID": 598, "conditions": [12, 1600, "v", 24000], "trial": 7, "serialpos": 11, "trial_type": "single-stim", "trial_index": 252, "time_elapsed": 1378067, "internal_node_id": "0.0-180.0"}}, {"uniqueid": "MTK0361:3X31TUMD7YTHKPVGUAPN8KV38DO1LA", "current_trial": 253, "dateTime": 1510775202051, "trialdata": {"rt": -1, "stimulus": "", "key_press": -1, "type": "PRE_RECALL_DELAY", "trial_type": "single-stim", "trial_index": 253, "time_elapsed": 1380622, "internal_node_id": "0.0-181.0-0.0"}}, {"uniqueid": "MTK0361:3X31TUMD7YTHKPVGUAPN8KV38DO1LA", "current_trial": 254, "dateTime": 1510775202580, "trialdata": {"rt": -1000, "stimulus": "/static/audio/400Hz.wav", "key_press": -1, "type": "PRE_RECALL_ALERT", "trial_type": "single-audio", "trial_index": 254, "time_elapsed": 1381152, "internal_node_id": "0.0-182.0"}}, {"uniqueid": "MTK0361:3X31TUMD7YTHKPVGUAPN8KV38DO1LA", "current_trial": 255, "dateTime": 1510775263142, "trialdata": {"rt": [2130, 3122, 4110, 4887, 7620, 11075, 15068, 17295], "recwords": ["fragrance", "japan", "europe", "clam", "preacher", "crevice", "rod", "clam"], "type": "FREE_RECALL", "conditions": [12, 1600, "v", 24000], "trial": 7, "trial_type": "free-recall", "trial_index": 255, "time_elapsed": 1441712, "internal_node_id": "0.0-183.0-0.0"}}, {"uniqueid": "MTK0361:3X31TUMD7YTHKPVGUAPN8KV38DO1LA", "current_trial": 256, "dateTime": 1510775265981, "trialdata": {"rt": 836, "key_press": 32, "type": "INSTRUCTIONS", "trial_type": "text", "trial_index": 256, "time_elapsed": 1444553, "internal_node_id": "0.0-184.0"}}, {"uniqueid": "MTK0361:3X31TUMD7YTHKPVGUAPN8KV38DO1LA", "current_trial": 257, "dateTime": 1510775279986, "trialdata": {"rt": [1369, 2911, 4396, 6184, 7782, 9132, 10427], "responses": ["12", "18", "20", "20", "15", "10", "9"], "num1": [2, 9, 5, 9, 5, 4, 1, 4], "num2": [8, 2, 8, 3, 3, 4, 5, 2], "num3": [2, 7, 7, 8, 7, 2, 3, 8], "type": "DISTRACTOR", "conditions": [24, 800, "a", 12000], "trial": 8, "trial_type": "math-distractor", "trial_index": 257, "time_elapsed": 1458557, "internal_node_id": "0.0-185.0"}}, {"uniqueid": "MTK0361:3X31TUMD7YTHKPVGUAPN8KV38DO1LA", "current_trial": 258, "dateTime": 1510775282988, "trialdata": {"rt": -1, "stimulus": "<p id=\"stim\">10</p>", "key_press": -1, "trial_type": "single-stim", "trial_index": 258, "time_elapsed": 1461560, "internal_node_id": "0.0-186.0-0.0"}}, {"uniqueid": "MTK0361:3X31TUMD7YTHKPVGUAPN8KV38DO1LA", "current_trial": 259, "dateTime": 1510775283990, "trialdata": {"rt": -1, "stimulus": "<p id=\"stim\">9</p>", "key_press": -1, "trial_type": "single-stim", "trial_index": 259, "time_elapsed": 1462562, "internal_node_id": "0.0-186.0-1.0"}}, {"uniqueid": "MTK0361:3X31TUMD7YTHKPVGUAPN8KV38DO1LA", "current_trial": 260, "dateTime": 1510775284991, "trialdata": {"rt": -1, "stimulus": "<p id=\"stim\">8</p>", "key_press": -1, "trial_type": "single-stim", "trial_index": 260, "time_elapsed": 1463563, "internal_node_id": "0.0-186.0-2.0"}}, {"uniqueid": "MTK0361:3X31TUMD7YTHKPVGUAPN8KV38DO1LA", "current_trial": 261, "dateTime": 1510775285993, "trialdata": {"rt": -1, "stimulus": "<p id=\"stim\">7</p>", "key_press": -1, "trial_type": "single-stim", "trial_index": 261, "time_elapsed": 1464565, "internal_node_id": "0.0-186.0-3.0"}}, {"uniqueid": "MTK0361:3X31TUMD7YTHKPVGUAPN8KV38DO1LA", "current_trial": 262, "dateTime": 1510775286994, "trialdata": {"rt": -1, "stimulus": "<p id=\"stim\">6</p>", "key_press": -1, "trial_type": "single-stim", "trial_index": 262, "time_elapsed": 1465566, "internal_node_id": "0.0-186.0-4.0"}}, {"uniqueid": "MTK0361:3X31TUMD7YTHKPVGUAPN8KV38DO1LA", "current_trial": 263, "dateTime": 1510775287996, "trialdata": {"rt": -1, "stimulus": "<p id=\"stim\">5</p>", "key_press": -1, "trial_type": "single-stim", "trial_index": 263, "time_elapsed": 1466568, "internal_node_id": "0.0-186.0-5.0"}}, {"uniqueid": "MTK0361:3X31TUMD7YTHKPVGUAPN8KV38DO1LA", "current_trial": 264, "dateTime": 1510775288997, "trialdata": {"rt": -1, "stimulus": "<p id=\"stim\">4</p>", "key_press": -1, "trial_type": "single-stim", "trial_index": 264, "time_elapsed": 1467569, "internal_node_id": "0.0-186.0-6.0"}}, {"uniqueid": "MTK0361:3X31TUMD7YTHKPVGUAPN8KV38DO1LA", "current_trial": 265, "dateTime": 1510775289999, "trialdata": {"rt": -1, "stimulus": "<p id=\"stim\">3</p>", "key_press": -1, "trial_type": "single-stim", "trial_index": 265, "time_elapsed": 1468571, "internal_node_id": "0.0-186.0-7.0"}}, {"uniqueid": "MTK0361:3X31TUMD7YTHKPVGUAPN8KV38DO1LA", "current_trial": 266, "dateTime": 1510775291001, "trialdata": {"rt": -1, "stimulus": "<p id=\"stim\">2</p>", "key_press": -1, "trial_type": "single-stim", "trial_index": 266, "time_elapsed": 1469573, "internal_node_id": "0.0-186.0-8.0"}}, {"uniqueid": "MTK0361:3X31TUMD7YTHKPVGUAPN8KV38DO1LA", "current_trial": 267, "dateTime": 1510775292002, "trialdata": {"rt": -1, "stimulus": "<p id=\"stim\">1</p>", "key_press": -1, "trial_type": "single-stim", "trial_index": 267, "time_elapsed": 1470574, "internal_node_id": "0.0-186.0-9.0"}}, {"uniqueid": "MTK0361:3X31TUMD7YTHKPVGUAPN8KV38DO1LA", "current_trial": 268, "dateTime": 1510775293503, "trialdata": {"rt": -1, "stimulus": "<p id=\"stim\">+</p>", "key_press": -1, "type": "FIXATION", "trial_type": "single-stim", "trial_index": 268, "time_elapsed": 1472075, "internal_node_id": "0.0-187.0-0.0"}}, {"uniqueid": "MTK0361:3X31TUMD7YTHKPVGUAPN8KV38DO1LA", "current_trial": 269, "dateTime": 1510775295452, "trialdata": {"rt": -1000, "stimulus": "/static/audio/wordpool/PICNIC.wav", "key_press": -1, "type": "PRES_AUD", "word": "picnic", "wordID": 1059, "conditions": [24, 800, "a", 12000], "trial": 8, "serialpos": 0, "trial_type": "single-audio", "trial_index": 269, "time_elapsed": 1474024, "internal_node_id": "0.0-188.0"}}, {"uniqueid": "MTK0361:3X31TUMD7YTHKPVGUAPN8KV38DO1LA", "current_trial": 270, "dateTime": 1510775297232, "trialdata": {"rt": -1000, "stimulus": "/static/audio/wordpool/SCRIBBLE.wav", "key_press": -1, "type": "PRES_AUD", "word": "scribble", "wordID": 1255, "conditions": [24, 800, "a", 12000], "trial": 8, "serialpos": 1, "trial_type": "single-audio", "trial_index": 270, "time_elapsed": 1475804, "internal_node_id": "0.0-189.0"}}, {"uniqueid": "MTK0361:3X31TUMD7YTHKPVGUAPN8KV38DO1LA", "current_trial": 271, "dateTime": 1510775299068, "trialdata": {"rt": -1000, "stimulus": "/static/audio/wordpool/KNAPSACK.wav", "key_press": -1, "type": "PRES_AUD", "word": "knapsack", "wordID": 782, "conditions": [24, 800, "a", 12000], "trial": 8, "serialpos": 2, "trial_type": "single-audio", "trial_index": 271, "time_elapsed": 1477640, "internal_node_id": "0.0-190.0"}}, {"uniqueid": "MTK0361:3X31TUMD7YTHKPVGUAPN8KV38DO1LA", "current_trial": 272, "dateTime": 1510775300797, "trialdata": {"rt": -1000, "stimulus": "/static/audio/wordpool/PUPPY.wav", "key_press": -1, "type": "PRES_AUD", "word": "puppy", "wordID": 1143, "conditions": [24, 800, "a", 12000], "trial": 8, "serialpos": 3, "trial_type": "single-audio", "trial_index": 272, "time_elapsed": 1479369, "internal_node_id": "0.0-191.0"}}, {"uniqueid": "MTK0361:3X31TUMD7YTHKPVGUAPN8KV38DO1LA", "current_trial": 273, "dateTime": 1510775302740, "trialdata": {"rt": -1000, "stimulus": "/static/audio/wordpool/BUNNY.wav", "key_press": -1, "type": "PRES_AUD", "word": "bunny", "wordID": 197, "conditions": [24, 800, "a", 12000], "trial": 8, "serialpos": 4, "trial_type": "single-audio", "trial_index": 273, "time_elapsed": 1481312, "internal_node_id": "0.0-192.0"}}, {"uniqueid": "MTK0361:3X31TUMD7YTHKPVGUAPN8KV38DO1LA", "current_trial": 274, "dateTime": 1510775304403, "trialdata": {"rt": -1000, "stimulus": "/static/audio/wordpool/SUPPER.wav", "key_press": -1, "type": "PRES_AUD", "word": "supper", "wordI