{"condition": 0, "counterbalance": 61, "assignmentId": "3PS7W85Z809NS76G7W679HN302A9T6", "workerId": "MTK0377", "hitId": "3Z56AA6EK47UA9G4AQXHE95P26H6M3", "currenttrial": 626, "bonus": 0, "data": [{"uniqueid": "MTK0377:3PS7W85Z809NS76G7W679HN302A9T6", "current_trial": 0, "dateTime": 1510777724518, "trialdata": {"rt": 2551, "key_press": 74, "type": "INSTRUCTIONS", "trial_type": "text", "trial_index": 0, "time_elapsed": 2554, "internal_node_id": "0.0-0.0"}}, {"uniqueid": "MTK0377:3PS7W85Z809NS76G7W679HN302A9T6", "current_trial": 1, "dateTime": 1510777743820, "trialdata": {"rt": 19301, "key_press": 74, "type": "INSTRUCTIONS", "trial_type": "text", "trial_index": 1, "time_elapsed": 21857, "internal_node_id": "0.0-1.0"}}, {"uniqueid": "MTK0377:3PS7W85Z809NS76G7W679HN302A9T6", "current_trial": 2, "dateTime": 1510777759806, "trialdata": {"rt": [15976], "responses": ["ocean"], "type": "AUDIO_TEST", "trial_type": "audio-test", "trial_index": 2, "time_elapsed": 37843, "internal_node_id": "0.0-2.0"}}, {"uniqueid": "MTK0377:3PS7W85Z809NS76G7W679HN302A9T6", "current_trial": 3, "dateTime": 1510777765355, "trialdata": {"rt": [5545], "responses": ["crystal"], "type": "AUDIO_TEST", "trial_type": "audio-test", "trial_index": 3, "time_elapsed": 43392, "internal_node_id": "0.0-3.0"}}, {"uniqueid": "MTK0377:3PS7W85Z809NS76G7W679HN302A9T6", "current_trial": 4, "dateTime": 1510777770102, "trialdata": {"rt": [4743], "responses": ["spice"], "type": "AUDIO_TEST", "trial_type": "audio-test", "trial_index": 4, "time_elapsed": 48138, "internal_node_id": "0.0-4.0"}}, {"uniqueid": "MTK0377:3PS7W85Z809NS76G7W679HN302A9T6", "current_trial": 5, "dateTime": 1510777790860, "trialdata": {"rt": 20004, "responses": "{\"Q0\":\"12:30 am\",\"Q1\":\"8:00 am\",\"Q2\":\"5\"}", "type": "SLEEP_SURVEY", "trial_type": "survey-text", "trial_index": 5, "time_elapsed": 68897, "internal_node_id": "0.0-5.0"}}, {"uniqueid": "MTK0377:3PS7W85Z809NS76G7W679HN302A9T6", "current_trial": 6, "dateTime": 1510778040960, "trialdata": {"rt": 249098, "key_press": 72, "type": "INSTRUCTIONS", "trial_type": "text", "trial_index": 6, "time_elapsed": 318997, "internal_node_id": "0.0-6.0"}}, {"uniqueid": "MTK0377:3PS7W85Z809NS76G7W679HN302A9T6", "current_trial": 7, "dateTime": 1510778058937, "trialdata": {"rt": 17475, "key_press": 72, "type": "INSTRUCTIONS", "trial_type": "text", "trial_index": 7, "time_elapsed": 336974, "internal_node_id": "0.0-7.0"}}, {"uniqueid": "MTK0377:3PS7W85Z809NS76G7W679HN302A9T6", "current_trial": 8, "dateTime": 1510778074097, "trialdata": {"rt": 14658, "key_press": 72, "type": "INSTRUCTIONS", "trial_type": "text", "trial_index": 8, "time_elapsed": 352134, "internal_node_id": "0.0-8.0"}}, {"uniqueid": "MTK0377:3PS7W85Z809NS76G7W679HN302A9T6", "current_trial": 9, "dateTime": 1510778093126, "trialdata": {"rt": [5382, 10996, 15686], "responses": ["15", "16", "14"], "num1": [1, 5, 1, 1], "num2": [7, 4, 8, 3], "num3": [7, 7, 5, 9], "type": "DISTRACTOR", "conditions": [18, 1200, "v", 18000], "trial": 0, "trial_type": "math-distractor", "trial_index": 9, "time_elapsed": 371163, "internal_node_id": "0.0-9.0"}}, {"uniqueid": "MTK0377:3PS7W85Z809NS76G7W679HN302A9T6", "current_trial": 10, "dateTime": 1510778096131, "trialdata": {"rt": -1, "stimulus": "<p id=\"stim\">10</p>", "key_press": -1, "trial_type": "single-stim", "trial_index": 10, "time_elapsed": 374168, "internal_node_id": "0.0-10.0-0.0"}}, {"uniqueid": "MTK0377:3PS7W85Z809NS76G7W679HN302A9T6", "current_trial": 11, "dateTime": 1510778097134, "trialdata": {"rt": -1, "stimulus": "<p id=\"stim\">9</p>", "key_press": -1, "trial_type": "single-stim", "trial_index": 11, "time_elapsed": 375171, "internal_node_id": "0.0-10.0-1.0"}}, {"uniqueid": "MTK0377:3PS7W85Z809NS76G7W679HN302A9T6", "current_trial": 12, "dateTime": 1510778098136, "trialdata": {"rt": -1, "stimulus": "<p id=\"stim\">8</p>", "key_press": -1, "trial_type": "single-stim", "trial_index": 12, "time_elapsed": 376172, "internal_node_id": "0.0-10.0-2.0"}}, {"uniqueid": "MTK0377:3PS7W85Z809NS76G7W679HN302A9T6", "current_trial": 13, "dateTime": 1510778099138, "trialdata": {"rt": -1, "stimulus": "<p id=\"stim\">7</p>", "key_press": -1, "trial_type": "single-stim", "trial_index": 13, "time_elapsed": 377175, "internal_node_id": "0.0-10.0-3.0"}}, {"uniqueid": "MTK0377:3PS7W85Z809NS76G7W679HN302A9T6", "current_trial": 14, "dateTime": 1510778100140, "trialdata": {"rt": -1, "stimulus": "<p id=\"stim\">6</p>", "key_press": -1, "trial_type": "single-stim", "trial_index": 14, "time_elapsed": 378176, "internal_node_id": "0.0-10.0-4.0"}}, {"uniqueid": "MTK0377:3PS7W85Z809NS76G7W679HN302A9T6", "current_trial": 15, "dateTime": 1510778101141, "trialdata": {"rt": -1, "stimulus": "<p id=\"stim\">5</p>", "key_press": -1, "trial_type": "single-stim", "trial_index": 15, "time_elapsed": 379178, "internal_node_id": "0.0-10.0-5.0"}}, {"uniqueid": "MTK0377:3PS7W85Z809NS76G7W679HN302A9T6", "current_trial": 16, "dateTime": 1510778102143, "trialdata": {"rt": -1, "stimulus": "<p id=\"stim\">4</p>", "key_press": -1, "trial_type": "single-stim", "trial_index": 16, "time_elapsed": 380180, "internal_node_id": "0.0-10.0-6.0"}}, {"uniqueid": "MTK0377:3PS7W85Z809NS76G7W679HN302A9T6", "current_trial": 17, "dateTime": 1510778103146, "trialdata": {"rt": -1, "stimulus": "<p id=\"stim\">3</p>", "key_press": -1, "trial_type": "single-stim", "trial_index": 17, "time_elapsed": 381183, "internal_node_id": "0.0-10.0-7.0"}}, {"uniqueid": "MTK0377:3PS7W85Z809NS76G7W679HN302A9T6", "current_trial": 18, "dateTime": 1510778104148, "trialdata": {"rt": -1, "stimulus": "<p id=\"stim\">2</p>", "key_press": -1, "trial_type": "single-stim", "trial_index": 18, "time_elapsed": 382185, "internal_node_id": "0.0-10.0-8.0"}}, {"uniqueid": "MTK0377:3PS7W85Z809NS76G7W679HN302A9T6", "current_trial": 19, "dateTime": 1510778105151, "trialdata": {"rt": -1, "stimulus": "<p id=\"stim\">1</p>", "key_press": -1, "trial_type": "single-stim", "trial_index": 19, "time_elapsed": 383187, "internal_node_id": "0.0-10.0-9.0"}}, {"uniqueid": "MTK0377:3PS7W85Z809NS76G7W679HN302A9T6", "current_trial": 20, "dateTime": 1510778106652, "trialdata": {"rt": -1, "stimulus": "<p id=\"stim\">+</p>", "key_press": -1, "type": "FIXATION", "trial_type": "single-stim", "trial_index": 20, "time_elapsed": 384689, "internal_node_id": "0.0-11.0-0.0"}}, {"uniqueid": "MTK0377:3PS7W85Z809NS76G7W679HN302A9T6", "current_trial": 21, "dateTime": 1510778107853, "trialdata": {"rt": -1, "stimulus": "<p id=\"stim\">BUBBLE</p>", "key_press": -1, "type": "PRES_VIS", "word": "bubble", "wordID": 182, "conditions": [18, 1200, "v", 18000], "trial": 0, "serialpos": 0, "trial_type": "single-stim", "trial_index": 21, "time_elapsed": 385890, "internal_node_id": "0.0-12.0"}}, {"uniqueid": "MTK0377:3PS7W85Z809NS76G7W679HN302A9T6", "current_trial": 22, "dateTime": 1510778109924, "trialdata": {"rt": -1, "stimulus": "<p id=\"stim\">PLATE</p>", "key_press": -1, "type": "PRES_VIS", "word": "plate", "wordID": 1085, "conditions": [18, 1200, "v", 18000], "trial": 0, "serialpos": 1, "trial_type": "single-stim", "trial_index": 22, "time_elapsed": 387961, "internal_node_id": "0.0-13.0"}}, {"uniqueid": "MTK0377:3PS7W85Z809NS76G7W679HN302A9T6", "current_trial": 23, "dateTime": 1510778112303, "trialdata": {"rt": -1, "stimulus": "<p id=\"stim\">DOUGHNUT</p>", "key_press": -1, "type": "PRES_VIS", "word": "doughnut", "wordID": 489, "conditions": [18, 1200, "v", 18000], "trial": 0, "serialpos": 2, "trial_type": "single-stim", "trial_index": 23, "time_elapsed": 390340, "internal_node_id": "0.0-14.0"}}, {"uniqueid": "MTK0377:3PS7W85Z809NS76G7W679HN302A9T6", "current_trial": 24, "dateTime": 1510778114571, "trialdata": {"rt": -1, "stimulus": "<p id=\"stim\">INMATE</p>", "key_press": -1, "type": "PRES_VIS", "word": "inmate", "wordID": 737, "conditions": [18, 1200, "v", 18000], "trial": 0, "serialpos": 3, "trial_type": "single-stim", "trial_index": 24, "time_elapsed": 392608, "internal_node_id": "0.0-15.0"}}, {"uniqueid": "MTK0377:3PS7W85Z809NS76G7W679HN302A9T6", "current_trial": 25, "dateTime": 1510778116952, "trialdata": {"rt": -1, "stimulus": "<p id=\"stim\">OFFICE</p>", "key_press": -1, "type": "PRES_VIS", "word": "office", "wordID": 971, "conditions": [18, 1200, "v", 18000], "trial": 0, "serialpos": 4, "trial_type": "single-stim", "trial_index": 25, "time_elapsed": 394989, "internal_node_id": "0.0-16.0"}}, {"uniqueid": "MTK0377:3PS7W85Z809NS76G7W679HN302A9T6", "current_trial": 26, "dateTime": 1510778118961, "trialdata": {"rt": -1, "stimulus": "<p id=\"stim\">TYPIST</p>", "key_press": -1, "type": "PRES_VIS", "word": "typist", "wordID": 1531, "conditions": [18, 1200, "v", 18000], "trial": 0, "serialpos": 5, "trial_type": "single-stim", "trial_index": 26, "time_elapsed": 396997, "internal_node_id": "0.0-17.0"}}, {"uniqueid": "MTK0377:3PS7W85Z809NS76G7W679HN302A9T6", "current_trial": 27, "dateTime": 1510778121267, "trialdata": {"rt": -1, "stimulus": "<p id=\"stim\">STAMP</p>", "key_press": -1, "type": "PRES_VIS", "word": "stamp", "wordID": 1369, "conditions": [18, 1200, "v", 18000], "trial": 0, "serialpos": 6, "trial_type": "single-stim", "trial_index": 27, "time_elapsed": 399304, "internal_node_id": "0.0-18.0"}}, {"uniqueid": "MTK0377:3PS7W85Z809NS76G7W679HN302A9T6", "current_trial": 28, "dateTime": 1510778123378, "trialdata": {"rt": -1, "stimulus": "<p id=\"stim\">CHAPEL</p>", "key_press": -1, "type": "PRES_VIS", "word": "chapel", "wordID": 279, "conditions": [18, 1200, "v", 18000], "trial": 0, "serialpos": 7, "trial_type": "single-stim", "trial_index": 28, "time_elapsed": 401415, "internal_node_id": "0.0-19.0"}}, {"uniqueid": "MTK0377:3PS7W85Z809NS76G7W679HN302A9T6", "current_trial": 29, "dateTime": 1510778125573, "trialdata": {"rt": -1, "stimulus": "<p id=\"stim\">FLUTE</p>", "key_press": -1, "type": "PRES_VIS", "word": "flute", "wordID": 584, "conditions": [18, 1200, "v", 18000], "trial": 0, "serialpos": 8, "trial_type": "single-stim", "trial_index": 29, "time_elapsed": 403610, "internal_node_id": "0.0-20.0"}}, {"uniqueid": "MTK0377:3PS7W85Z809NS76G7W679HN302A9T6", "current_trial": 30, "dateTime": 1510778127838, "trialdata": {"rt": -1, "stimulus": "<p id=\"stim\">BUGGY</p>", "key_press": -1, "type": "PRES_VIS", "word": "buggy", "wordID": 187, "conditions": [18, 1200, "v", 18000], "trial": 0, "serialpos": 9, "trial_type": "single-stim", "trial_index": 30, "time_elapsed": 405875, "internal_node_id": "0.0-21.0"}}, {"uniqueid": "MTK0377:3PS7W85Z809NS76G7W679HN302A9T6", "current_trial": 31, "dateTime": 1510778130222, "trialdata": {"rt": -1, "stimulus": "<p id=\"stim\">TART</p>", "key_press": -1, "type": "PRES_VIS", "word": "tart", "wordID": 1435, "conditions": [18, 1200, "v", 18000], "trial": 0, "serialpos": 10, "trial_type": "single-stim", "trial_index": 31, "time_elapsed": 408259, "internal_node_id": "0.0-22.0"}}, {"uniqueid": "MTK0377:3PS7W85Z809NS76G7W679HN302A9T6", "current_trial": 32, "dateTime": 1510778132591, "trialdata": {"rt": -1, "stimulus": "<p id=\"stim\">CATTLE</p>", "key_press": -1, "type": "PRES_VIS", "word": "cattle", "wordID": 260, "conditions": [18, 1200, "v", 18000], "trial": 0, "serialpos": 11, "trial_type": "single-stim", "trial_index": 32, "time_elapsed": 410627, "internal_node_id": "0.0-23.0"}}, {"uniqueid": "MTK0377:3PS7W85Z809NS76G7W679HN302A9T6", "current_trial": 33, "dateTime": 1510778134673, "trialdata": {"rt": -1, "stimulus": "<p id=\"stim\">STAPLE</p>", "key_press": -1, "type": "PRES_VIS", "word": "staple", "wordID": 1370, "conditions": [18, 1200, "v", 18000], "trial": 0, "serialpos": 12, "trial_type": "single-stim", "trial_index": 33, "time_elapsed": 412709, "internal_node_id": "0.0-24.0"}}, {"uniqueid": "MTK0377:3PS7W85Z809NS76G7W679HN302A9T6", "current_trial": 34, "dateTime": 1510778136991, "trialdata": {"rt": -1, "stimulus": "<p id=\"stim\">WIFE</p>", "key_press": -1, "type": "PRES_VIS", "word": "wife", "wordID": 1608, "conditions": [18, 1200, "v", 18000], "trial": 0, "serialpos": 13, "trial_type": "single-stim", "trial_index": 34, "time_elapsed": 415027, "internal_node_id": "0.0-25.0"}}, {"uniqueid": "MTK0377:3PS7W85Z809NS76G7W679HN302A9T6", "current_trial": 35, "dateTime": 1510778139095, "trialdata": {"rt": -1, "stimulus": "<p id=\"stim\">BLACKBOARD</p>", "key_press": -1, "type": "PRES_VIS", "word": "blackboard", "wordID": 132, "conditions": [18, 1200, "v", 18000], "trial": 0, "serialpos": 14, "trial_type": "single-stim", "trial_index": 35, "time_elapsed": 417131, "internal_node_id": "0.0-26.0"}}, {"uniqueid": "MTK0377:3PS7W85Z809NS76G7W679HN302A9T6", "current_trial": 36, "dateTime": 1510778141263, "trialdata": {"rt": -1, "stimulus": "<p id=\"stim\">DRESS</p>", "key_press": -1, "type": "PRES_VIS", "word": "dress", "wordID": 494, "conditions": [18, 1200, "v", 18000], "trial": 0, "serialpos": 15, "trial_type": "single-stim", "trial_index": 36, "time_elapsed": 419299, "internal_node_id": "0.0-27.0"}}, {"uniqueid": "MTK0377:3PS7W85Z809NS76G7W679HN302A9T6", "current_trial": 37, "dateTime": 1510778143573, "trialdata": {"rt": -1, "stimulus": "<p id=\"stim\">BEEF</p>", "key_press": -1, "type": "PRES_VIS", "word": "beef", "wordID": 112, "conditions": [18, 1200, "v", 18000], "trial": 0, "serialpos": 16, "trial_type": "single-stim", "trial_index": 37, "time_elapsed": 421610, "internal_node_id": "0.0-28.0"}}, {"uniqueid": "MTK0377:3PS7W85Z809NS76G7W679HN302A9T6", "current_trial": 38, "dateTime": 1510778145656, "trialdata": {"rt": -1, "stimulus": "<p id=\"stim\">TERMITE</p>", "key_press": -1, "type": "PRES_VIS", "word": "termite", "wordID": 1450, "conditions": [18, 1200, "v", 18000], "trial": 0, "serialpos": 17, "trial_type": "single-stim", "trial_index": 38, "time_elapsed": 423693, "internal_node_id": "0.0-29.0"}}, {"uniqueid": "MTK0377:3PS7W85Z809NS76G7W679HN302A9T6", "current_trial": 39, "dateTime": 1510778147858, "trialdata": {"rt": -1, "stimulus": "", "key_press": -1, "type": "PRE_RECALL_DELAY", "trial_type": "single-stim", "trial_index": 39, "time_elapsed": 425895, "internal_node_id": "0.0-30.0-0.0"}}, {"uniqueid": "MTK0377:3PS7W85Z809NS76G7W679HN302A9T6", "current_trial": 40, "dateTime": 1510778148361, "trialdata": {"rt": -1000, "stimulus": "/static/audio/400Hz.wav", "key_press": -1, "type": "PRE_RECALL_ALERT", "trial_type": "single-audio", "trial_index": 40, "time_elapsed": 426398, "internal_node_id": "0.0-31.0"}}, {"uniqueid": "MTK0377:3PS7W85Z809NS76G7W679HN302A9T6", "current_trial": 41, "dateTime": 1510778208366, "trialdata": {"rt": [8007, 9976, 11348, 14067, 18267, 19870, 26177, 28307, 30717, 32500, 36235, 44250, 47403, 49469, 51756, 56938], "recwords": ["bubble", "chapel", "wife", "blackboard", "staple", "knife", "doughnut", "candy", "style", "friend", "drivere", "bubble", "steam", "red", "blue", "wife"], "type": "FREE_RECALL", "conditions": [18, 1200, "v", 18000], "trial": 0, "trial_type": "free-recall", "trial_index": 41, "time_elapsed": 486401, "internal_node_id": "0.0-32.0-0.0"}}, {"uniqueid": "MTK0377:3PS7W85Z809NS76G7W679HN302A9T6", "current_trial": 42, "dateTime": 1510778212652, "trialdata": {"rt": 2285, "key_press": 74, "type": "INSTRUCTIONS", "trial_type": "text", "trial_index": 42, "time_elapsed": 490689, "internal_node_id": "0.0-33.0"}}, {"uniqueid": "MTK0377:3PS7W85Z809NS76G7W679HN302A9T6", "current_trial": 43, "dateTime": 1510778232658, "trialdata": {"rt": [3188, 5584, 9055, 13516, 15372], "responses": ["13", "16", "21", "23", "7"], "num1": [1, 5, 9, 8, 1, 7], "num2": [9, 5, 8, 8, 3, 4], "num3": [3, 6, 7, 7, 3, 3], "type": "DISTRACTOR", "conditions": [18, 1200, "a", 18000], "trial": 1, "trial_type": "math-distractor", "trial_index": 43, "time_elapsed": 510695, "internal_node_id": "0.0-34.0"}}, {"uniqueid": "MTK0377:3PS7W85Z809NS76G7W679HN302A9T6", "current_trial": 44, "dateTime": 1510778235660, "trialdata": {"rt": -1, "stimulus": "<p id=\"stim\">10</p>", "key_press": -1, "trial_type": "single-stim", "trial_index": 44, "time_elapsed": 513697, "internal_node_id": "0.0-35.0-0.0"}}, {"uniqueid": "MTK0377:3PS7W85Z809NS76G7W679HN302A9T6", "current_trial": 45, "dateTime": 1510778236664, "trialdata": {"rt": -1, "stimulus": "<p id=\"stim\">9</p>", "key_press": -1, "trial_type": "single-stim", "trial_index": 45, "time_elapsed": 514700, "internal_node_id": "0.0-35.0-1.0"}}, {"uniqueid": "MTK0377:3PS7W85Z809NS76G7W679HN302A9T6", "current_trial": 46, "dateTime": 1510778237664, "trialdata": {"rt": -1, "stimulus": "<p id=\"stim\">8</p>", "key_press": -1, "trial_type": "single-stim", "trial_index": 46, "time_elapsed": 515701, "internal_node_id": "0.0-35.0-2.0"}}, {"uniqueid": "MTK0377:3PS7W85Z809NS76G7W679HN302A9T6", "current_trial": 47, "dateTime": 1510778238665, "trialdata": {"rt": -1, "stimulus": "<p id=\"stim\">7</p>", "key_press": -1, "trial_type": "single-stim", "trial_index": 47, "time_elapsed": 516702, "internal_node_id": "0.0-35.0-3.0"}}, {"uniqueid": "MTK0377:3PS7W85Z809NS76G7W679HN302A9T6", "current_trial": 48, "dateTime": 1510778239667, "trialdata": {"rt": -1, "stimulus": "<p id=\"stim\">6</p>", "key_press": -1, "trial_type": "single-stim", "trial_index": 48, "time_elapsed": 517704, "internal_node_id": "0.0-35.0-4.0"}}, {"uniqueid": "MTK0377:3PS7W85Z809NS76G7W679HN302A9T6", "current_trial": 49, "dateTime": 1510778240668, "trialdata": {"rt": -1, "stimulus": "<p id=\"stim\">5</p>", "key_press": -1, "trial_type": "single-stim", "trial_index": 49, "time_elapsed": 518705, "internal_node_id": "0.0-35.0-5.0"}}, {"uniqueid": "MTK0377:3PS7W85Z809NS76G7W679HN302A9T6", "current_trial": 50, "dateTime": 1510778241669, "trialdata": {"rt": -1, "stimulus": "<p id=\"stim\">4</p>", "key_press": -1, "trial_type": "single-stim", "trial_index": 50, "time_elapsed": 519706, "internal_node_id": "0.0-35.0-6.0"}}, {"uniqueid": "MTK0377:3PS7W85Z809NS76G7W679HN302A9T6", "current_trial": 51, "dateTime": 1510778242671, "trialdata": {"rt": -1, "stimulus": "<p id=\"stim\">3</p>", "key_press": -1, "trial_type": "single-stim", "trial_index": 51, "time_elapsed": 520707, "internal_node_id": "0.0-35.0-7.0"}}, {"uniqueid": "MTK0377:3PS7W85Z809NS76G7W679HN302A9T6", "current_trial": 52, "dateTime": 1510778243673, "trialdata": {"rt": -1, "stimulus": "<p id=\"stim\">2</p>", "key_press": -1, "trial_type": "single-stim", "trial_index": 52, "time_elapsed": 521709, "internal_node_id": "0.0-35.0-8.0"}}, {"uniqueid": "MTK0377:3PS7W85Z809NS76G7W679HN302A9T6", "current_trial": 53, "dateTime": 1510778244675, "trialdata": {"rt": -1, "stimulus": "<p id=\"stim\">1</p>", "key_press": -1, "trial_type": "single-stim", "trial_index": 53, "time_elapsed": 522711, "internal_node_id": "0.0-35.0-9.0"}}, {"uniqueid": "MTK0377:3PS7W85Z809NS76G7W679HN302A9T6", "current_trial": 54, "dateTime": 1510778246175, "trialdata": {"rt": -1, "stimulus": "<p id=\"stim\">+</p>", "key_press": -1, "type": "FIXATION", "trial_type": "single-stim", "trial_index": 54, "time_elapsed": 524212, "internal_node_id": "0.0-36.0-0.0"}}, {"uniqueid": "MTK0377:3PS7W85Z809NS76G7W679HN302A9T6", "current_trial": 55, "dateTime": 1510778248264, "trialdata": {"rt": -1000, "stimulus": "/static/audio/wordpool/STREAM.wav", "key_press": -1, "type": "PRES_AUD", "word": "stream", "wordID": 1391, "conditions": [18, 1200, "a", 18000], "trial": 1, "serialpos": 0, "trial_type": "single-audio", "trial_index": 55, "time_elapsed": 526300, "internal_node_id": "0.0-37.0"}}, {"uniqueid": "MTK0377:3PS7W85Z809NS76G7W679HN302A9T6", "current_trial": 56, "dateTime": 1510778250526, "trialdata": {"rt": -1000, "stimulus": "/static/audio/wordpool/EUROPE.wav", "key_press": -1, "type": "PRES_AUD", "word": "europe", "wordID": 540, "conditions": [18, 1200, "a", 18000], "trial": 1, "serialpos": 1, "trial_type": "single-audio", "trial_index": 56, "time_elapsed": 528563, "internal_node_id": "0.0-38.0"}}, {"uniqueid": "MTK0377:3PS7W85Z809NS76G7W679HN302A9T6", "current_trial": 57, "dateTime": 1510778252751, "trialdata": {"rt": -1000, "stimulus": "/static/audio/wordpool/BREAST.wav", "key_press": -1, "type": "PRES_AUD", "word": "breast", "wordID": 170, "conditions": [18, 1200, "a", 18000], "trial": 1, "serialpos": 2, "trial_type": "single-audio", "trial_index": 57, "time_elapsed": 530788, "internal_node_id": "0.0-39.0"}}, {"uniqueid": "MTK0377:3PS7W85Z809NS76G7W679HN302A9T6", "current_trial": 58, "dateTime": 1510778254986, "trialdata": {"rt": -1000, "stimulus": "/static/audio/wordpool/BRANDY.wav", "key_press": -1, "type": "PRES_AUD", "word": "brandy", "wordID": 168, "conditions": [18, 1200, "a", 18000], "trial": 1, "serialpos": 3, "trial_type": "single-audio", "trial_index": 58, "time_elapsed": 533023, "internal_node_id": "0.0-40.0"}}, {"uniqueid": "MTK0377:3PS7W85Z809NS76G7W679HN302A9T6", "current_trial": 59, "dateTime": 1510778257242, "trialdata": {"rt": -1000, "stimulus": "/static/audio/wordpool/GARLIC.wav", "key_press": -1, "type": "PRES_AUD", "word": "garlic", "wordID": 623, "conditions": [18, 1200, "a", 18000], "trial": 1, "serialpos": 4, "trial_type": "single-audio", "trial_index": 59, "time_elapsed": 535279, "internal_node_id": "0.0-41.0"}}, {"uniqueid": "MTK0377:3PS7W85Z809NS76G7W679HN302A9T6", "current_trial": 60, "dateTime": 1510778259623, "trialdata": {"rt": -1000, "stimulus": "/static/audio/wordpool/GIRL.wav", "key_press": -1, "type": "PRES_AUD", "word": "girl", "wordID": 636, "conditions": [18, 1200, "a", 18000], "trial": 1, "serialpos": 5, "trial_type": "single-audio", "trial_index": 60, "time_elapsed": 537660, "internal_node_id": "0.0-42.0"}}, {"uniqueid": "MTK0377:3PS7W85Z809NS76G7W679HN302A9T6", "current_trial": 61, "dateTime": 1510778261743, "trialdata": {"rt": -1000, "stimulus": "/static/audio/wordpool/MAPLE.wav", "key_press": -1, "type": "PRES_AUD", "word": "maple", "wordID": 865, "conditions": [18, 1200, "a", 18000], "trial": 1, "serialpos": 6, "trial_type": "single-audio", "trial_index": 61, "time_elapsed": 539780, "internal_node_id": "0.0-43.0"}}, {"uniqueid": "MTK0377:3PS7W85Z809NS76G7W679HN302A9T6", "current_trial": 62, "dateTime": 1510778263942, "trialdata": {"rt": -1000, "stimulus": "/static/audio/wordpool/QUEEN.wav", "key_press": -1, "type": "PRES_AUD", "word": "queen", "wordID": 1148, "conditions": [18, 1200, "a", 18000], "trial": 1, "serialpos": 7, "trial_type": "single-audio", "trial_index": 62, "time_elapsed": 541979, "internal_node_id": "0.0-44.0"}}, {"uniqueid": "MTK0377:3PS7W85Z809NS76G7W679HN302A9T6", "current_trial": 63, "dateTime": 1510778266322, "trialdata": {"rt": -1000, "stimulus": "/static/audio/wordpool/COCKTAIL.wav", "key_press": -1, "type": "PRES_AUD", "word": "cocktail", "wordID": 337, "conditions": [18, 1200, "a", 18000], "trial": 1, "serialpos": 8, "trial_type": "single-audio", "trial_index": 63, "time_elapsed": 544359, "internal_node_id": "0.0-45.0"}}, {"uniqueid": "MTK0377:3PS7W85Z809NS76G7W679HN302A9T6", "current_trial": 64, "dateTime": 1510778268507, "trialdata": {"rt": -1000, "stimulus": "/static/audio/wordpool/TOURIST.wav", "key_press": -1, "type": "PRES_AUD", "word": "tourist", "wordID": 1487, "conditions": [18, 1200, "a", 18000], "trial": 1, "serialpos": 9, "trial_type": "single-audio", "trial_index": 64, "time_elapsed": 546544, "internal_node_id": "0.0-46.0"}}, {"uniqueid": "MTK0377:3PS7W85Z809NS76G7W679HN302A9T6", "current_trial": 65, "dateTime": 1510778270809, "trialdata": {"rt": -1000, "stimulus": "/static/audio/wordpool/YARN.wav", "key_press": -1, "type": "PRES_AUD", "word": "yarn", "wordID": 1630, "conditions": [18, 1200, "a", 18000], "trial": 1, "serialpos": 10, "trial_type": "single-audio", "trial_index": 65, "time_elapsed": 548846, "internal_node_id": "0.0-47.0"}}, {"uniqueid": "MTK0377:3PS7W85Z809NS76G7W679HN302A9T6", "current_trial": 66, "dateTime": 1510778272827, "trialdata": {"rt": -1000, "stimulus": "/static/audio/wordpool/WITNESS.wav", "key_press": -1, "type": "PRES_AUD", "word": "witness", "wordID": 1617, "conditions": [18, 1200, "a", 18000], "trial": 1, "serialpos": 11, "trial_type": "single-audio", "trial_index": 66, "time_elapsed": 550864, "internal_node_id": "0.0-48.0"}}, {"uniqueid": "MTK0377:3PS7W85Z809NS76G7W679HN302A9T6", "current_trial": 67, "dateTime": 1510778274873, "trialdata": {"rt": -1000, "stimulus": "/static/audio/wordpool/SPONGE.wav", "key_press": -1, "type": "PRES_AUD", "word": "sponge", "wordID": 1354, "conditions": [18, 1200, "a", 18000], "trial": 1, "serialpos": 12, "trial_type": "single-audio", "trial_index": 67, "time_elapsed": 552910, "internal_node_id": "0.0-49.0"}}, {"uniqueid": "MTK0377:3PS7W85Z809NS76G7W679HN302A9T6", "current_trial": 68, "dateTime": 1510778276962, "trialdata": {"rt": -1000, "stimulus": "/static/audio/wordpool/STALLION.wav", "key_press": -1, "type": "PRES_AUD", "word": "stallion", "wordID": 1368, "conditions": [18, 1200, "a", 18000], "trial": 1, "serialpos": 13, "trial_type": "single-audio", "trial_index": 68, "time_elapsed": 554998, "internal_node_id": "0.0-50.0"}}, {"uniqueid": "MTK0377:3PS7W85Z809NS76G7W679HN302A9T6", "current_trial": 69, "dateTime": 1510778279024, "trialdata": {"rt": -1000, "stimulus": "/static/audio/wordpool/AUTHOR.wav", "key_press": -1, "type": "PRES_AUD", "word": "author", "wordID": 60, "conditions": [18, 1200, "a", 18000], "trial": 1, "serialpos": 14, "trial_type": "single-audio", "trial_index": 69, "time_elapsed": 557061, "internal_node_id": "0.0-51.0"}}, {"uniqueid": "MTK0377:3PS7W85Z809NS76G7W679HN302A9T6", "current_trial": 70, "dateTime": 1510778281332, "trialdata": {"rt": -1000, "stimulus": "/static/audio/wordpool/JUDGE.wav", "key_press": -1, "type": "PRES_AUD", "word": "judge", "wordID": 760, "conditions": [18, 1200, "a", 18000], "trial": 1, "serialpos": 15, "trial_type": "single-audio", "trial_index": 70, "time_elapsed": 559369, "internal_node_id": "0.0-52.0"}}, {"uniqueid": "MTK0377:3PS7W85Z809NS76G7W679HN302A9T6", "current_trial": 71, "dateTime": 1510778283577, "trialdata": {"rt": -1000, "stimulus": "/static/audio/wordpool/MARROW.wav", "key_press": -1, "type": "PRES_AUD", "word": "marrow", "wordID": 871, "conditions": [18, 1200, "a", 18000], "trial": 1, "serialpos": 16, "trial_type": "single-audio", "trial_index": 71, "time_elapsed": 561614, "internal_node_id": "0.0-53.0"}}, {"uniqueid": "MTK0377:3PS7W85Z809NS76G7W679HN302A9T6", "current_trial": 72, "dateTime": 1510778285761, "trialdata": {"rt": -1000, "stimulus": "/static/audio/wordpool/FILM.wav", "key_press": -1, "type": "PRES_AUD", "word": "film", "wordID": 564, "conditions": [18, 1200, "a", 18000], "trial": 1, "serialpos": 17, "trial_type": "single-audio", "trial_index": 72, "time_elapsed": 563798, "internal_node_id": "0.0-54.0"}}, {"uniqueid": "MTK0377:3PS7W85Z809NS76G7W679HN302A9T6", "current_trial": 73, "dateTime": 1510778287029, "trialdata": {"rt": -1, "stimulus": "", "key_press": -1, "type": "PRE_RECALL_DELAY", "trial_type": "single-stim", "trial_index": 73, "time_elapsed": 565066, "internal_node_id": "0.0-55.0-0.0"}}, {"uniqueid": "MTK0377:3PS7W85Z809NS76G7W679HN302A9T6", "current_trial": 74, "dateTime": 1510778287530, "trialdata": {"rt": -1000, "stimulus": "/static/audio/400Hz.wav", "key_press": -1, "type": "PRE_RECALL_ALERT", "trial_type": "single-audio", "trial_index": 74, "time_elapsed": 565567, "internal_node_id": "0.0-56.0"}}, {"uniqueid": "MTK0377:3PS7W85Z809NS76G7W679HN302A9T6", "current_trial": 75, "dateTime": 1510778347537, "trialdata": {"rt": [4215, 6928, 9628, 13131, 15491, 18885, 20866, 22262, 25335, 28002, 31657, 35283, 37977, 40539, 44260, 45778, 49498, 58207], "recwords": ["stream", "rest", "brandy", "cocktail", "tourist", "garlic", "girl", "maple", "queen", "yarn", "sponge", "stallion", "author", "judge", "marrow", "film", "witness", "yarn"], "type": "FREE_RECALL", "conditions": [18, 1200, "a", 18000], "trial": 1, "trial_type": "free-recall", "trial_index": 75, "time_elapsed": 625570, "internal_node_id": "0.0-57.0-0.0"}}, {"uniqueid": "MTK0377:3PS7W85Z809NS76G7W679HN302A9T6", "current_trial": 76, "dateTime": 1510778352618, "trialdata": {"rt": 3077, "key_press": 75, "type": "INSTRUCTIONS", "trial_type": "text", "trial_index": 76, "time_elapsed": 630652, "internal_node_id": "0.0-58.0"}}, {"uniqueid": "MTK0377:3PS7W85Z809NS76G7W679HN302A9T6", "current_trial": 77, "dateTime": 1510778365622, "trialdata": {"rt": [3343, 7106, 10751], "responses": ["18", "17", "12"], "num1": [8, 4, 7, 3], "num2": [7, 8, 4, 3], "num3": [3, 5, 1, 7], "type": "DISTRACTOR", "conditions": [24, 800, "a", 12000], "trial": 2, "trial_type": "math-distractor", "trial_index": 77, "time_elapsed": 643658, "internal_node_id": "0.0-59.0"}}, {"uniqueid": "MTK0377:3PS7W85Z809NS76G7W679HN302A9T6", "current_trial": 78, "dateTime": 1510778368624, "trialdata": {"rt": -1, "stimulus": "<p id=\"stim\">10</p>", "key_press": -1, "trial_type": "single-stim", "trial_index": 78, "time_elapsed": 646660, "internal_node_id": "0.0-60.0-0.0"}}, {"uniqueid": "MTK0377:3PS7W85Z809NS76G7W679HN302A9T6", "current_trial": 79, "dateTime": 1510778369626, "trialdata": {"rt": -1, "stimulus": "<p id=\"stim\">9</p>", "key_press": -1, "trial_type": "single-stim", "trial_index": 79, "time_elapsed": 647663, "internal_node_id": "0.0-60.0-1.0"}}, {"uniqueid": "MTK0377:3PS7W85Z809NS76G7W679HN302A9T6", "current_trial": 80, "dateTime": 1510778370629, "trialdata": {"rt": -1, "stimulus": "<p id=\"stim\">8</p>", "key_press": -1, "trial_type": "single-stim", "trial_index": 80, "time_elapsed": 648665, "internal_node_id": "0.0-60.0-2.0"}}, {"uniqueid": "MTK0377:3PS7W85Z809NS76G7W679HN302A9T6", "current_trial": 81, "dateTime": 1510778371631, "trialdata": {"rt": -1, "stimulus": "<p id=\"stim\">7</p>", "key_press": -1, "trial_type": "single-stim", "trial_index": 81, "time_elapsed": 649668, "internal_node_id": "0.0-60.0-3.0"}}, {"uniqueid": "MTK0377:3PS7W85Z809NS76G7W679HN302A9T6", "current_trial": 82, "dateTime": 1510778372634, "trialdata": {"rt": -1, "stimulus": "<p id=\"stim\">6</p>", "key_press": -1, "trial_type": "single-stim", "trial_index": 82, "time_elapsed": 650670, "internal_node_id": "0.0-60.0-4.0"}}, {"uniqueid": "MTK0377:3PS7W85Z809NS76G7W679HN302A9T6", "current_trial": 83, "dateTime": 1510778373636, "trialdata": {"rt": -1, "stimulus": "<p id=\"stim\">5</p>", "key_press": -1, "trial_type": "single-stim", "trial_index": 83, "time_elapsed": 651673, "internal_node_id": "0.0-60.0-5.0"}}, {"uniqueid": "MTK0377:3PS7W85Z809NS76G7W679HN302A9T6", "current_trial": 84, "dateTime": 1510778374639, "trialdata": {"rt": -1, "stimulus": "<p id=\"stim\">4</p>", "key_press": -1, "trial_type": "single-stim", "trial_index": 84, "time_elapsed": 652675, "internal_node_id": "0.0-60.0-6.0"}}, {"uniqueid": "MTK0377:3PS7W85Z809NS76G7W679HN302A9T6", "current_trial": 85, "dateTime": 1510778375642, "trialdata": {"rt": -1, "stimulus": "<p id=\"stim\">3</p>", "key_press": -1, "trial_type": "single-stim", "trial_index": 85, "time_elapsed": 653678, "internal_node_id": "0.0-60.0-7.0"}}, {"uniqueid": "MTK0377:3PS7W85Z809NS76G7W679HN302A9T6", "current_trial": 86, "dateTime": 1510778376644, "trialdata": {"rt": -1, "stimulus": "<p id=\"stim\">2</p>", "key_press": -1, "trial_type": "single-stim", "trial_index": 86, "time_elapsed": 654680, "internal_node_id": "0.0-60.0-8.0"}}, {"uniqueid": "MTK0377:3PS7W85Z809NS76G7W679HN302A9T6", "current_trial": 87, "dateTime": 1510778377645, "trialdata": {"rt": -1, "stimulus": "<p id=\"stim\">1</p>", "key_press": -1, "trial_type": "single-stim", "trial_index": 87, "time_elapsed": 655682, "internal_node_id": "0.0-60.0-9.0"}}, {"uniqueid": "MTK0377:3PS7W85Z809NS76G7W679HN302A9T6", "current_trial": 88, "dateTime": 1510778379147, "trialdata": {"rt": -1, "stimulus": "<p id=\"stim\">+</p>", "key_press": -1, "type": "FIXATION", "trial_type": "single-stim", "trial_index": 88, "time_elapsed": 657184, "internal_node_id": "0.0-61.0-0.0"}}, {"uniqueid": "MTK0377:3PS7W85Z809NS76G7W679HN302A9T6", "current_trial": 89, "dateTime": 1510778380920, "trialdata": {"rt": -1000, "stimulus": "/static/audio/wordpool/FOREHEAD.wav", "key_press": -1, "type": "PRES_AUD", "word": "forehead", "wordID": 591, "conditions": [24, 800, "a", 12000], "trial": 2, "serialpos": 0, "trial_type": "single-audio", "trial_index": 89, "time_elapsed": 658957, "internal_node_id": "0.0-62.0"}}, {"uniqueid": "MTK0377:3PS7W85Z809NS76G7W679HN302A9T6", "current_trial": 90, "dateTime": 1510778382588, "trialdata": {"rt": -1000, "stimulus": "/static/audio/wordpool/CHEST.wav", "key_press": -1, "type": "PRES_AUD", "word": "chest", "wordID": 294, "conditions": [24, 800, "a", 12000], "trial": 2, "serialpos": 1, "trial_type": "single-audio", "trial_index": 90, "time_elapsed": 660625, "internal_node_id": "0.0-63.0"}}, {"uniqueid": "MTK0377:3PS7W85Z809NS76G7W679HN302A9T6", "current_trial": 91, "dateTime": 1510778384266, "trialdata": {"rt": -1000, "stimulus": "/static/audio/wordpool/SHORTCAKE.wav", "key_press": -1, "type": "PRES_AUD", "word": "shortcake", "wordID": 1291, "conditions": [24, 800, "a", 12000], "trial": 2, "serialpos": 2, "trial_type": "single-audio", "trial_index": 91, "time_elapsed": 662303, "internal_node_id": "0.0-64.0"}}, {"uniqueid": "MTK0377:3PS7W85Z809NS76G7W679HN302A9T6", "current_trial": 92, "dateTime": 1510778385874, "trialdata": {"rt": -1000, "stimulus": "/static/audio/wordpool/CABIN.wav", "key_press": -1, "type": "PRES_AUD", "word": "cabin", "wordID": 210, "conditions": [24, 800, "a", 12000], "trial": 2, "serialpos": 3, "trial_type": "single-audio", "trial_index": 92, "time_elapsed": 663911, "internal_node_id": "0.0-65.0"}}, {"uniqueid": "MTK0377:3PS7W85Z809NS76G7W679HN302A9T6", "current_trial": 93, "dateTime": 1510778387488, "trialdata": {"rt": -1000, "stimulus": "/static/audio/wordpool/UMPIRE.wav", "key_press": -1, "type": "PRES_AUD", "word": "umpire", "wordID": 1534, "conditions": [24, 800, "a", 12000], "trial": 2, "serialpos": 4, "trial_type": "single-audio", "trial_index": 93, "time_elapsed": 665525, "internal_node_id": "0.0-66.0"}}, {"uniqueid": "MTK0377:3PS7W85Z809NS76G7W679HN302A9T6", "current_trial": 94, "dateTime": 1510778389093, "trialdata": {"rt": -1000, "stimulus": "/static/audio/wordpool/BASEMENT.wav", "key_press": -1, "type": "PRES_AUD", "word": "basement", "wordID": 93, "conditions": [24, 800, "a", 12000], "trial": 2, "serialpos": 5, "trial_type": "single-audio", "trial_index": 94, "time_elapsed": 667129, "internal_node_id": "0.0-67.0"}}, {"uniqueid": "MTK0377:3PS7W85Z809NS76G7W679HN302A9T6", "current_trial": 95, "dateTime": 1510778390945, "trialdata": {"rt": -1000, "stimulus": "/static/audio/wordpool/ANKLE.wav", "key_press": -1, "type": "PRES_AUD", "word": "ankle", "wordID": 23, "conditions": [24, 800, "a", 12000], "trial": 2, "serialpos": 6, "trial_type": "single-audio", "trial_index": 95, "time_elapsed": 668982, "internal_node_id": "0.0-68.0"}}, {"uniqueid": "MTK0377:3PS7W85Z809NS76G7W679HN302A9T6", "current_trial": 96, "dateTime": 1510778392912, "trialdata": {"rt": -1000, "stimulus": "/static/audio/wordpool/COUCH.wav", "key_press": -1, "type": "PRES_AUD", "word": "couch", "wordID": 385, "conditions": [24, 800, "a", 12000], "trial": 2, "serialpos": 7, "trial_type": "single-audio", "trial_index": 96, "time_elapsed": 670949, "internal_node_id": "0.0-69.0"}}, {"uniqueid": "MTK0377:3PS7W85Z809NS76G7W679HN302A9T6", "current_trial": 97, "dateTime": 1510778394630, "trialdata": {"rt": -1000, "stimulus": "/static/audio/wordpool/PIMPLE.wav", "key_press": -1, "type": "PRES_AUD", "word": "pimple", "wordID": 1070, "conditions": [24, 800, "a", 12000], "trial": 2, "serialpos": 8, "trial_type": "single-audio", "trial_index": 97, "time_elapsed": 672667, "internal_node_id": "0.0-70.0"}}, {"uniqueid": "MTK0377:3PS7W85Z809NS76G7W679HN302A9T6", "current_trial": 98, "dateTime": 1510778396247, "trialdata": {"rt": -1000, "stimulus": "/static/audio/wordpool/FLIPPER.wav", "key_press": -1, "type": "PRES_AUD", "word": "flipper", "wordID": 579, "conditions": [24, 800, "a", 12000], "trial": 2, "serialpos": 9, "trial_type": "single-audio", "trial_index": 98, "time_elapsed": 674284, "internal_node_id": "0.0-71.0"}}, {"uniqueid": "MTK0377:3PS7W85Z809NS76G7W679HN302A9T6", "current_trial": 99, "dateTime": 1510778397934, "trialdata": {"rt": -1000, "stimulus": "/static/audio/wordpool/LOFT.wav", "key_press": -1, "type": "PRES_AUD", "word": "loft", "wordID": 839, "conditions": [24, 800, "a", 12000], "trial": 2, "serialpos": 10, "trial_type": "single-audio", "trial_index": 99, "time_elapsed": 675971, "internal_node_id": "0.0-72.0"}}, {"uniqueid": "MTK0377:3PS7W85Z809NS76G7W679HN302A9T6", "current_trial": 100, "dateTime": 1510778399543, "trialdata": {"rt": -1000, "stimulus": "/static/audio/wordpool/PASTRY.wav", "key_press": -1, "type": "PRES_AUD", "word": "pastry", "wordID": 1021, "conditions": [24, 800, "a", 12000], "trial": 2, "serialpos": 11, "trial_type": "single-audio", "trial_index": 100, "time_elapsed": 677580, "internal_node_id": "0.0-73.0"}}, {"uniqueid": "MTK0377:3PS7W85Z809NS76G7W679HN302A9T6", "current_trial": 101, "dateTime": 1510778401355, "trialdata": {"rt": -1000, "stimulus": "/static/audio/wordpool/DANCER.wav", "key_press": -1, "type": "PRES_AUD", "word": "dancer", "wordID": 436, "conditions": [24, 800, "a", 12000], "trial": 2, "serialpos": 12, "trial_type": "single-audio", "trial_index": 101, "time_elapsed": 679392, "internal_node_id": "0.0-74.0"}}, {"uniqueid": "MTK0377:3PS7W85Z809NS76G7W679HN302A9T6", "current_trial": 102, "dateTime": 1510778403004, "trialdata": {"rt": -1000, "stimulus": "/static/audio/wordpool/FIDDLE.wav", "key_press": -1, "type": "PRES_AUD", "word": "fiddle", "wordID": 560, "conditions": [24, 800, "a", 12000], "trial": 2, "serialpos": 13, "trial_type": "single-audio", "trial_index": 102, "time_elapsed": 681041, "internal_node_id": "0.0-75.0"}}, {"uniqueid": "MTK0377:3PS7W85Z809NS76G7W679HN302A9T6", "current_trial": 103, "dateTime": 1510778404785, "trialdata": {"rt": -1000, "stimulus": "/static/audio/wordpool/MATTRESS.wav", "key_press": -1, "type": "PRES_AUD", "word": "mattress", "wordID": 878, "conditions": [24, 800, "a", 12000], "trial": 2, "serialpos": 14, "trial_type": "single-audio", "trial_index": 103, "time_elapsed": 682822, "internal_node_id": "0.0-76.0"}}, {"uniqueid": "MTK0377:3PS7W85Z809NS76G7W679HN302A9T6", "current_trial": 104, "dateTime": 1510778406438, "trialdata": {"rt": -1000, "stimulus": "/static/audio/wordpool/PRINCESS.wav", "key_press": -1, "type": "PRES_AUD", "word": "princess", "wordID": 1124, "conditions": [24, 800, "a", 12000], "trial": 2, "serialpos": 15, "trial_type": "single-audio", "trial_index": 104, "time_elapsed": 684475, "internal_node_id": "0.0-77.0"}}, {"uniqueid": "MTK0377:3PS7W85Z809NS76G7W679HN302A9T6", "current_trial": 105, "dateTime": 1510778408318, "trialdata": {"rt": -1000, "stimulus": "/static/audio/wordpool/TABLE.wav", "key_press": -1, "type": "PRES_AUD", "word": "table", "wordID": 1425, "conditions": [24, 800, "a", 12000], "trial": 2, "serialpos": 16, "trial_type": "single-audio", "trial_index": 105, "time_elapsed": 686355, "internal_node_id": "0.0-78.0"}}, {"uniqueid": "MTK0377:3PS7W85Z809NS76G7W679HN302A9T6", "current_trial": 106, "dateTime": 1510778410000, "trialdata": {"rt": -1000, "stimulus": "/static/audio/wordpool/KNAPSACK.wav", "key_press": -1, "type": "PRES_AUD", "word": "knapsack", "wordID": 782, "conditions": [24, 800, "a", 12000], "trial": 2, "serialpos": 17, "trial_type": "single-audio", "trial_index": 106, "time_elapsed": 688037, "internal_node_id": "0.0-79.0"}}, {"uniqueid": "MTK0377:3PS7W85Z809NS76G7W679HN302A9T6", "current_trial": 107, "dateTime": 1510778411722, "trialdata": {"rt": -1000, "stimulus": "/static/audio/wordpool/POCKET.wav", "key_press": -1, "type": "PRES_AUD", "word": "pocket", "wordID": 1092, "conditions": [24, 800, "a", 12000], "trial": 2, "serialpos": 18, "trial_type": "single-audio", "trial_index": 107, "time_elapsed": 689759, "internal_node_id": "0.0-80.0"}}, {"uniqueid": "MTK0377:3PS7W85Z809NS76G7W679HN302A9T6", "current_trial": 108, "dateTime": 1510778413426, "trialdata": {"rt": -1000, "stimulus": "/static/audio/wordpool/LEG.wav", "key_press": -1, "type": "PRES_AUD", "word": "leg", "wordID": 808, "conditions": [24, 800, "a", 12000], "trial": 2, "serialpos": 19, "trial_type": "single-audio", "trial_index": 108, "time_elapsed": 691463, "internal_node_id": "0.0-81.0"}}, {"uniqueid": "MTK0377:3PS7W85Z809NS76G7W679HN302A9T6", "current_trial": 109, "dateTime": 1510778415345, "trialdata": {"rt": -1000, "stimulus": "/static/audio/wordpool/SHOULDER.wav", "key_press": -1, "type": "PRES_AUD", "word": "shoulder", "wordID": 1293, "conditions": [24, 800, "a", 12000], "trial": 2, "serialpos": 20, "trial_type": "single-audio", "trial_index": 109, "time_elapsed": 693382, "internal_node_id": "0.0-82.0"}}, {"uniqueid": "MTK0377:3PS7W85Z809NS76G7W679HN302A9T6", "current_trial": 110, "dateTime": 1510778417164, "trialdata": {"rt": -1000, "stimulus": "/static/audio/wordpool/GYMNAST.wav", "key_press": -1, "type": "PRES_AUD", "word": "gymnast", "wordID": 674, "conditions": [24, 800, "a", 12000], "trial": 2, "serialpos": 21, "trial_type": "single-audio", "trial_index": 110, "time_elapsed": 695201, "internal_node_id": "0.0-83.0"}}, {"uniqueid": "MTK0377:3PS7W85Z809NS76G7W679HN302A9T6", "current_trial": 111, "dateTime": 1510778419132, "trialdata": {"rt": -1000, "stimulus": "/static/audio/wordpool/CAFE.wav", "key_press": -1, "type": "PRES_AUD", "word": "cafe", "wordID": 215, "conditions": [24, 800, "a", 12000], "trial": 2, "serialpos": 22, "trial_type": "single-audio", "trial_index": 111, "time_elapsed": 697169, "internal_node_id": "0.0-84.0"}}, {"uniqueid": "MTK0377:3PS7W85Z809NS76G7W679HN302A9T6", "current_trial": 112, "dateTime": 1510778421006, "trialdata": {"rt": -1000, "stimulus": "/static/audio/wordpool/FLASK.wav", "key_press": -1, "type": "PRES_AUD", "word": "flask", "wordID": 575, "conditions": [24, 800, "a", 12000], "trial": 2, "serialpos": 23, "trial_type": "single-audio", "trial_index": 112, "time_elapsed": 699043, "internal_node_id": "0.0-85.0"}}, {"uniqueid": "MTK0377:3PS7W85Z809NS76G7W679HN302A9T6", "current_trial": 113, "dateTime": 1510778422254, "trialdata": {"rt": -1, "stimulus": "", "key_press": -1, "type": "PRE_RECALL_DELAY", "trial_type": "single-stim", "trial_index": 113, "time_elapsed": 700290, "internal_node_id": "0.0-86.0-0.0"}}, {"uniqueid": "MTK0377:3PS7W85Z809NS76G7W679HN302A9T6", "current_trial": 114, "dateTime": 1510778422755, "trialdata": {"rt": -1000, "stimulus": "/static/audio/400Hz.wav", "key_press": -1, "type": "PRE_RECALL_ALERT", "trial_type": "single-audio", "trial_index": 114, "time_elapsed": 700792, "internal_node_id": "0.0-87.0"}}, {"uniqueid": "MTK0377:3PS7W85Z809NS76G7W679HN302A9T6", "current_trial": 115, "dateTime": 1510778482764, "trialdata": {"rt": [7392, 10484, 14199, 16931, 18150, 20351, 23953, 26707, 31917, 34510, 37958, 41542, 48733, 52135, 57201], "recwords": ["forehed", "chest", "umpire", "dancer", "table", "leg", "basement", "ankle", "pimple", "loft", "pasty", "princess", "pocket", "flask", "napsack"], "type": "FREE_RECALL", "conditions": [24, 800, "a", 12000], "trial": 2, "trial_type": "free-recall", "trial_index": 115, "time_elapsed": 760796, "internal_node_id": "0.0-88.0-0.0"}}, {"uniqueid": "MTK0377:3PS7W85Z809NS76G7W679HN302A9T6", "current_trial": 116, "dateTime": 1510778487364, "trialdata": {"rt": 2598, "key_press": 75, "type": "INSTRUCTIONS", "trial_type": "text", "trial_index": 116, "time_elapsed": 765401, "internal_node_id": "0.0-89.0"}}, {"uniqueid": "MTK0377:3PS7W85Z809NS76G7W679HN302A9T6", "current_trial": 117, "dateTime": 1510778501369, "trialdata": {"rt": [5368, 8339, 11177], "responses": ["25", "7", "17"], "num1": [8, 4, 4, 2], "num2": [6, 2, 6, 9], "num3": [9, 1, 7, 4], "type": "DISTRACTOR", "conditions": [12, 1600, "a", 12000], "trial": 3, "trial_type": "math-distractor", "trial_index": 117, "time_elapsed": 779406, "internal_node_id": "0.0-90.0"}}, {"uniqueid": "MTK0377:3PS7W85Z809NS76G7W679HN302A9T6", "current_trial": 118, "dateTime": 1510778504371, "trialdata": {"rt": -1, "stimulus": "<p id=\"stim\">10</p>", "key_press": -1, "trial_type": "single-stim", "trial_index": 118, "time_elapsed": 782408, "internal_node_id": "0.0-91.0-0.0"}}, {"uniqueid": "MTK0377:3PS7W85Z809NS76G7W679HN302A9T6", "current_trial": 119, "dateTime": 1510778505373, "trialdata": {"rt": -1, "stimulus": "<p id=\"stim\">9</p>", "key_press": -1, "trial_type": "single-stim", "trial_index": 119, "time_elapsed": 783409, "internal_node_id": "0.0-91.0-1.0"}}, {"uniqueid": "MTK0377:3PS7W85Z809NS76G7W679HN302A9T6", "current_trial": 120, "dateTime": 1510778506376, "trialdata": {"rt": -1, "stimulus": "<p id=\"stim\">8</p>", "key_press": -1, "trial_type": "single-stim", "trial_index": 120, "time_elapsed": 784412, "internal_node_id": "0.0-91.0-2.0"}}, {"uniqueid": "MTK0377:3PS7W85Z809NS76G7W679HN302A9T6", "current_trial": 121, "dateTime": 1510778507377, "trialdata": {"rt": -1, "stimulus": "<p id=\"stim\">7</p>", "key_press": -1, "trial_type": "single-stim", "trial_index": 121, "time_elapsed": 785413, "internal_node_id": "0.0-91.0-3.0"}}, {"uniqueid": "MTK0377:3PS7W85Z809NS76G7W679HN302A9T6", "current_trial": 122, "dateTime": 1510778508378, "trialdata": {"rt": -1, "stimulus": "<p id=\"stim\">6</p>", "key_press": -1, "trial_type": "single-stim", "trial_index": 122, "time_elapsed": 786415, "internal_node_id": "0.0-91.0-4.0"}}, {"uniqueid": "MTK0377:3PS7W85Z809NS76G7W679HN302A9T6", "current_trial": 123, "dateTime": 1510778509381, "trialdata": {"rt": -1, "stimulus": "<p id=\"stim\">5</p>", "key_press": -1, "trial_type": "single-stim", "trial_index": 123, "time_elapsed": 787417, "internal_node_id": "0.0-91.0-5.0"}}, {"uniqueid": "MTK0377:3PS7W85Z809NS76G7W679HN302A9T6", "current_trial": 124, "dateTime": 1510778510381, "trialdata": {"rt": -1, "stimulus": "<p id=\"stim\">4</p>", "key_press": -1, "trial_type": "single-stim", "trial_index": 124, "time_elapsed": 788418, "internal_node_id": "0.0-91.0-6.0"}}, {"uniqueid": "MTK0377:3PS7W85Z809NS76G7W679HN302A9T6", "current_trial": 125, "dateTime": 1510778511384, "trialdata": {"rt": -1, "stimulus": "<p id=\"stim\">3</p>", "key_press": -1, "trial_type": "single-stim", "trial_index": 125, "time_elapsed": 789421, "internal_node_id": "0.0-91.0-7.0"}}, {"uniqueid": "MTK0377:3PS7W85Z809NS76G7W679HN302A9T6", "current_trial": 126, "dateTime": 1510778512385, "trialdata": {"rt": -1, "stimulus": "<p id=\"stim\">2</p>", "key_press": -1, "trial_type": "single-stim", "trial_index": 126, "time_elapsed": 790422, "internal_node_id": "0.0-91.0-8.0"}}, {"uniqueid": "MTK0377:3PS7W85Z809NS76G7W679HN302A9T6", "current_trial": 127, "dateTime": 1510778513387, "trialdata": {"rt": -1, "stimulus": "<p id=\"stim\">1</p>", "key_press": -1, "trial_type": "single-stim", "trial_index": 127, "time_elapsed": 791424, "internal_node_id": "0.0-91.0-9.0"}}, {"uniqueid": "MTK0377:3PS7W85Z809NS76G7W679HN302A9T6", "current_trial": 128, "dateTime": 1510778514890, "trialdata": {"rt": -1, "stimulus": "<p id=\"stim\">+</p>", "key_press": -1, "type": "FIXATION", "trial_type": "single-stim", "trial_index": 128, "time_elapsed": 792926, "internal_node_id": "0.0-92.0-0.0"}}, {"uniqueid": "MTK0377:3PS7W85Z809NS76G7W679HN302A9T6", "current_trial": 129, "dateTime": 1510778517353, "trialdata": {"rt": -1000, "stimulus": "/static/audio/wordpool/CRATER.wav", "key_press": -1, "type": "PRES_AUD", "word": "crater", "wordID": 399, "conditions": [12, 1600, "a", 12000], "trial": 3, "serialpos": 0, "trial_type": "single-audio", "trial_index": 129, "time_elapsed": 795390, "internal_node_id": "0.0-93.0"}}, {"uniqueid": "MTK0377:3PS7W85Z809NS76G7W679HN302A9T6", "current_trial": 130, "dateTime": 1510778520128, "trialdata": {"rt": -1000, "stimulus": "/static/audio/wordpool/CATCHER.wav", "key_press": -1, "type": "PRES_AUD", "word": "catcher", "wordID": 257, "conditions": [12, 1600, "a", 12000], "trial": 3, "serialpos": 1, "trial_type": "single-audio", "trial_index": 130, "time_elapsed": 798165, "internal_node_id": "0.0-94.0"}}, {"uniqueid": "MTK0377:3PS7W85Z809NS76G7W679HN302A9T6", "current_trial": 131, "dateTime": 1510778522638, "trialdata": {"rt": -1000, "stimulus": "/static/audio/wordpool/SWIMMER.wav", "key_press": -1, "type": "PRES_AUD", "word": "swimmer", "wordID": 1419, "conditions": [12, 1600, "a", 12000], "trial": 3, "serialpos": 2, "trial_type": "single-audio", "trial_index": 131, "time_elapsed": 800675, "internal_node_id": "0.0-95.0"}}, {"uniqueid": "MTK0377:3PS7W85Z809NS76G7W679HN302A9T6", "current_trial": 132, "dateTime": 1510778525175, "trialdata": {"rt": -1000, "stimulus": "/static/audio/wordpool/FRUIT.wav", "key_press": -1, "type": "PRES_AUD", "word": "fruit", "wordID": 609, "conditions": [12, 1600, "a", 12000], "trial": 3, "serialpos": 3, "trial_type": "single-audio", "trial_index": 132, "time_elapsed": 803212, "internal_node_id": "0.0-96.0"}}, {"uniqueid": "MTK0377:3PS7W85Z809NS76G7W679HN302A9T6", "current_trial": 133, "dateTime": 1510778527609, "trialdata": {"rt": -1000, "stimulus": "/static/audio/wordpool/PEACH.wav", "key_press": -1, "type": "PRES_AUD", "word": "peach", "wordID": 1030, "conditions": [12, 1600, "a", 12000], "trial": 3, "serialpos": 4, "trial_type": "single-audio", "trial_index": 133, "time_elapsed": 805646, "internal_node_id": "0.0-97.0"}}, {"uniqueid": "MTK0377:3PS7W85Z809NS76G7W679HN302A9T6", "current_trial": 134, "dateTime": 1510778530400, "trialdata": {"rt": -1000, "stimulus": "/static/audio/wordpool/RUG.wav", "key_press": -1, "type": "PRES_AUD", "word": "rug", "wordID": 1214, "conditions": [12, 1600, "a", 12000], "trial": 3, "serialpos": 5, "trial_type": "single-audio", "trial_index": 134, "time_elapsed": 808437, "internal_node_id": "0.0-98.0"}}, {"uniqueid": "MTK0377:3PS7W85Z809NS76G7W679HN302A9T6", "current_trial": 135, "dateTime": 1510778533182, "trialdata": {"rt": -1000, "stimulus": "/static/audio/wordpool/TRACTOR.wav", "key_press": -1, "type": "PRES_AUD", "word": "tractor", "wordID": 1492, "conditions": [12, 1600, "a", 12000], "trial": 3, "serialpos": 6, "trial_type": "single-audio", "trial_index": 135, "time_elapsed": 811218, "internal_node_id": "0.0-99.0"}}, {"uniqueid": "MTK0377:3PS7W85Z809NS76G7W679HN302A9T6", "current_trial": 136, "dateTime": 1510778535652, "trialdata": {"rt": -1000, "stimulus": "/static/audio/wordpool/BANJO.wav", "key_press": -1, "type": "PRES_AUD", "word": "banjo", "wordID": 81, "conditions": [12, 1600, "a", 12000], "trial": 3, "serialpos": 7, "trial_type": "single-audio", "trial_index": 136, "time_elapsed": 813689, "internal_node_id": "0.0-100.0"}}, {"uniqueid": "MTK0377:3PS7W85Z809NS76G7W679HN302A9T6", "current_trial": 137, "dateTime": 1510778538184, "trialdata": {"rt": -1000, "stimulus": "/static/audio/wordpool/LASER.wav", "key_press": -1, "type": "PRES_AUD", "word": "laser", "wordID": 800, "conditions": [12, 1600, "a", 12000], "trial": 3, "serialpos": 8, "trial_type": "single-audio", "trial_index": 137, "time_elapsed": 816221, "internal_node_id": "0.0-101.0"}}, {"uniqueid": "MTK0377:3PS7W85Z809NS76G7W679HN302A9T6", "current_trial": 138, "dateTime": 1510778540667, "trialdata": {"rt": -1000, "stimulus": "/static/audio/wordpool/TRANSPLANT.wav", "key_press": -1, "type": "PRES_AUD", "word": "transplant", "wordID": 1495, "conditions": [12, 1600, "a", 12000], "trial": 3, "serialpos": 9, "trial_type": "single-audio", "trial_index": 138, "time_elapsed": 818704, "internal_node_id": "0.0-102.0"}}, {"uniqueid": "MTK0377:3PS7W85Z809NS76G7W679HN302A9T6", "current_trial": 139, "dateTime": 1510778543324, "trialdata": {"rt": -1000, "stimulus": "/static/audio/wordpool/DIVER.wav", "key_press": -1, "type": "PRES_AUD", "word": "diver", "wordID": 475, "conditions": [12, 1600, "a", 12000], "trial": 3, "serialpos": 10, "trial_type": "single-audio", "trial_index": 139, "time_elapsed": 821361, "internal_node_id": "0.0-103.0"}}, {"uniqueid": "MTK0377:3PS7W85Z809NS76G7W679HN302A9T6", "current_trial": 140, "dateTime": 1510778546100, "trialdata": {"rt": -1000, "stimulus": "/static/audio/wordpool/PIANO.wav", "key_press": -1, "type": "PRES_AUD", "word": "piano", "wordID": 1056, "conditions": [12, 1600, "a", 12000], "trial": 3, "serialpos": 11, "trial_type": "single-audio", "trial_index": 140, "time_elapsed": 824137, "internal_node_id": "0.0-104.0"}}, {"uniqueid": "MTK0377:3PS7W85Z809NS76G7W679HN302A9T6", "current_trial": 141, "dateTime": 1510778547328, "trialdata": {"rt": -1, "stimulus": "", "key_press": -1, "type": "PRE_RECALL_DELAY", "trial_type": "single-stim", "trial_index": 141, "time_elapsed": 825365, "internal_node_id": "0.0-105.0-0.0"}}, {"uniqueid": "MTK0377:3PS7W85Z809NS76G7W679HN302A9T6", "current_trial": 142, "dateTime": 1510778547830, "trialdata": {"rt": -1000, "stimulus": "/static/audio/400Hz.wav", "key_press": -1, "type": "PRE_RECALL_ALERT", "trial_type": "single-audio", "trial_index": 142, "time_elapsed": 825867, "internal_node_id": "0.0-106.0"}}, {"uniqueid": "MTK0377:3PS7W85Z809NS76G7W679HN302A9T6", "current_trial": 143, "dateTime": 1510778607839, "trialdata": {"rt": [3517, 6159, 9005, 10629, 13306, 16179, 17718, 22747, 25547, 28104, 32141, 37595, 43616], "recwords": ["crator", "catcher", "swimmer]", "fruit", "rug", "tractor", "banjo", "transplant", "diver", "piano", "peach", "lazer", "rug"], "type": "FREE_RECALL", "conditions": [12, 1600, "a", 12000], "trial": 3, "trial_type": "free-recall", "trial_index": 143, "time_elapsed": 885870, "internal_node_id": "0.0-107.0-0.0"}}, {"uniqueid": "MTK0377:3PS7W85Z809NS76G7W679HN302A9T6", "current_trial": 144, "dateTime": 1510778611036, "trialdata": {"rt": 1194, "key_press": 75, "type": "INSTRUCTIONS", "trial_type": "text", "trial_index": 144, "time_elapsed": 889073, "internal_node_id": "0.0-108.0"}}, {"uniqueid": "MTK0377:3PS7W85Z809NS76G7W679HN302A9T6", "current_trial": 145, "dateTime": 1510778637040, "trialdata": {"rt": [3225, 5548, 7969, 9984, 12337, 15435, 17812, 19618, 21346, 23074], "responses": ["21", "18", "13", "18", "22", "19", "8", "12", "15", "6"], "num1": [9, 3, 1, 4, 4, 6, 4, 5, 9, 2, 3], "num2": [8, 6, 9, 5, 9, 7, 1, 4, 1, 3, 7], "num3": [4, 9, 3, 9, 9, 6, 3, 3, 5, 1, 3], "type": "DISTRACTOR", "conditions": [24, 800, "a", 24000], "trial": 4, "trial_type": "math-distractor", "trial_index": 145, "time_elapsed": 915077, "internal_node_id": "0.0-109.0"}}, {"uniqueid": "MTK0377:3PS7W85Z809NS76G7W679HN302A9T6", "current_trial": 146, "dateTime": 1510778640043, "trialdata": {"rt": -1, "stimulus": "<p id=\"stim\">10</p>", "key_press": -1, "trial_type": "single-stim", "trial_index": 146, "time_elapsed": 918080, "internal_node_id": "0.0-110.0-0.0"}}, {"uniqueid": "MTK0377:3PS7W85Z809NS76G7W679HN302A9T6", "current_trial": 147, "dateTime": 1510778641046, "trialdata": {"rt": -1, "stimulus": "<p id=\"stim\">9</p>", "key_press": -1, "trial_type": "single-stim", "trial_index": 147, "time_elapsed": 919082, "internal_node_id": "0.0-110.0-1.0"}}, {"uniqueid": "MTK0377:3PS7W85Z809NS76G7W679HN302A9T6", "current_trial": 148, "dateTime": 1510778642048, "trialdata": {"rt": -1, "stimulus": "<p id=\"stim\">8</p>", "key_press": -1, "trial_type": "single-stim", "trial_index": 148, "time_elapsed": 920084, "internal_node_id": "0.0-110.0-2.0"}}, {"uniqueid": "MTK0377:3PS7W85Z809NS76G7W679HN302A9T6", "current_trial": 149, "dateTime": 1510778643049, "trialdata": {"rt": -1, "stimulus": "<p id=\"stim\">7</p>", "key_press": -1, "trial_type": "single-stim", "trial_index": 149, "time_elapsed": 921085, "internal_node_id": "0.0-110.0-3.0"}}, {"uniqueid": "MTK0377:3PS7W85Z809NS76G7W679HN302A9T6", "current_trial": 150, "dateTime": 1510778644050, "trialdata": {"rt": -1, "stimulus": "<p id=\"stim\">6</p>", "key_press": -1, "trial_type": "single-stim", "trial_index": 150, "time_elapsed": 922087, "internal_node_id": "0.0-110.0-4.0"}}, {"uniqueid": "MTK0377:3PS7W85Z809NS76G7W679HN302A9T6", "current_trial": 151, "dateTime": 1510778645052, "trialdata": {"rt": -1, "stimulus": "<p id=\"stim\">5</p>", "key_press": -1, "trial_type": "single-stim", "trial_index": 151, "time_elapsed": 923089, "internal_node_id": "0.0-110.0-5.0"}}, {"uniqueid": "MTK0377:3PS7W85Z809NS76G7W679HN302A9T6", "current_trial": 152, "dateTime": 1510778646054, "trialdata": {"rt": -1, "stimulus": "<p id=\"stim\">4</p>", "key_press": -1, "trial_type": "single-stim", "trial_index": 152, "time_elapsed": 924091, "internal_node_id": "0.0-110.0-6.0"}}, {"uniqueid": "MTK0377:3PS7W85Z809NS76G7W679HN302A9T6", "current_trial": 153, "dateTime": 1510778647055, "trialdata": {"rt": -1, "stimulus": "<p id=\"stim\">3</p>", "key_press": -1, "trial_type": "single-stim", "trial_index": 153, "time_elapsed": 925092, "internal_node_id": "0.0-110.0-7.0"}}, {"uniqueid": "MTK0377:3PS7W85Z809NS76G7W679HN302A9T6", "current_trial": 154, "dateTime": 1510778648056, "trialdata": {"rt": -1, "stimulus": "<p id=\"stim\">2</p>", "key_press": -1, "trial_type": "single-stim", "trial_index": 154, "time_elapsed": 926093, "internal_node_id": "0.0-110.0-8.0"}}, {"uniqueid": "MTK0377:3PS7W85Z809NS76G7W679HN302A9T6", "current_trial": 155, "dateTime": 1510778649059, "trialdata": {"rt": -1, "stimulus": "<p id=\"stim\">1</p>", "key_press": -1, "trial_type": "single-stim", "trial_index": 155, "time_elapsed": 927096, "internal_node_id": "0.0-110.0-9.0"}}, {"uniqueid": "MTK0377:3PS7W85Z809NS76G7W679HN302A9T6", "current_trial": 156, "dateTime": 1510778650561, "trialdata": {"rt": -1, "stimulus": "<p id=\"stim\">+</p>", "key_press": -1, "type": "FIXATION", "trial_type": "single-stim", "trial_index": 156, "time_elapsed": 928598, "internal_node_id": "0.0-111.0-0.0"}}, {"uniqueid": "MTK0377:3PS7W85Z809NS76G7W679HN302A9T6", "current_trial": 157, "dateTime": 1510778652206, "trialdata": {"rt": -1000, "stimulus": "/static/audio/wordpool/BUG.wav", "key_press": -1, "type": "PRES_AUD", "word": "bug", "wordID": 186, "conditions": [24, 800, "a", 24000], "trial": 4, "serialpos": 0, "trial_type": "single-audio", "trial_index": 157, "time_elapsed": 930243, "internal_node_id": "0.0-112.0"}}, {"uniqueid": "MTK0377:3PS7W85Z809NS76G7W679HN302A9T6", "current_trial": 158, "dateTime": 1510778653808, "trialdata": {"rt": -1000, "stimulus": "/static/audio/wordpool/DRAWING.wav", "key_press": -1, "type": "PRES_AUD", "word": "drawing", "wordID": 493, "conditions": [24, 800, "a", 24000], "trial": 4, "serialpos": 1, "trial_type": "single-audio", "trial_index": 158, "time_elapsed": 931845, "internal_node_id": "0.0-113.0"}}, {"uniqueid": "MTK0377:3PS7W85Z809NS76G7W679HN302A9T6", "current_trial": 159, "dateTime": 1510778655629, "trialdata": {"rt": -1000, "stimulus": "/static/audio/wordpool/TWEEZERS.wav", "key_press": -1, "type": "PRES_AUD", "word": "tweezers", "wordID": 1525, "conditions": [24, 800, "a", 24000], "trial": 4, "serialpos": 2, "trial_type": "single-audio", "trial_index": 159, "time_elapsed": 933666, "internal_node_id": "0.0-114.0"}}, {"uniqueid": "MTK0377:3PS7W85Z809NS76G7W679HN302A9T6", "current_trial": 160, "dateTime": 1510778657400, "trialdata": {"rt": -1000, "stimulus": "/static/audio/wordpool/PATIENT.wav", "key_press": -1, "type": "PRES_AUD", "word": "patient", "wordID": 1023, "conditions": [24, 800, "a", 24000], "trial": 4, "serialpos": 3, "trial_type": "single-audio", "trial_index": 160, "time_elapsed": 935437, "internal_node_id": "0.0-115.0"}}, {"uniqueid": "MTK0377:3PS7W85Z809NS76G7W679HN302A9T6", "current_trial": 161, "dateTime": 1510778659368, "trialdata": {"rt": -1000, "stimulus": "/static/audio/wordpool/NURSE.wav", "key_press": -1, "type": "PRES_AUD", "word": "nurse", "wordID": 962, "conditions": [24, 800, "a", 24000], "trial": 4, "serialpos": 4, "trial_type": "single-audio", "trial_index": 161, "time_elapsed": 937405, "internal_node_id": "0.0-116.0"}}, {"uniqueid": "MTK0377:3PS7W85Z809NS76G7W679HN302A9T6", "current_trial": 162, "dateTime": 1510778661123, "trialdata": {"rt": -1000, "stimulus": "/static/audio/wordpool/POPCORN.wav", "key_press": -1, "type": "PRES_AUD", "word": "popcorn", "wordID": 1103, "conditions": [24, 800, "a", 24000], "trial": 4, "serialpos": 5, "trial_type": "single-audio", "trial_index": 162, "time_elapsed": 939160, "internal_node_id": "0.0-117.0"}}, {"uniqueid": "MTK0377:3PS7W85Z809NS76G7W679HN302A9T6", "current_trial": 163, "dateTime": 1510778662885, "trialdata": {"rt": -1000, "stimulus": "/static/audio/wordpool/RADISH.wav", "key_press": -1, "type": "PRES_AUD", "word": "radish", "wordID": 1157, "conditions": [24, 800, "a", 24000], "trial": 4, "serialpos": 6, "trial_type": "single-audio", "trial_index": 163, "time_elapsed": 940922, "internal_node_id": "0.0-118.0"}}, {"uniqueid": "MTK0377:3PS7W85Z809NS76G7W679HN302A9T6", "current_trial": 164, "dateTime": 1510778664880, "trialdata": {"rt": -1000, "stimulus": "/static/audio/wordpool/LUNCH.wav", "key_press": -1, "type": "PRES_AUD", "word": "lunch", "wordID": 848, "conditions": [24, 800, "a", 24000], "trial": 4, "serialpos": 7, "trial_type": "single-audio", "trial_index": 164, "time_elapsed": 942917, "internal_node_id": "0.0-119.0"}}, {"uniqueid": "MTK0377:3PS7W85Z809NS76G7W679HN302A9T6", "current_trial": 165, "dateTime": 1510778666714, "trialdata": {"rt": -1000, "stimulus": "/static/audio/wordpool/IGLOO.wav", "key_press": -1, "type": "PRES_AUD", "word": "igloo", "wordID": 733, "conditions": [24, 800, "a", 24000], "trial": 4, "serialpos": 8, "trial_type": "single-audio", "trial_index": 165, "time_elapsed": 944751, "internal_node_id": "0.0-120.0"}}, {"uniqueid": "MTK0377:3PS7W85Z809NS76G7W679HN302A9T6", "current_trial": 166, "dateTime": 1510778668587, "trialdata": {"rt": -1000, "stimulus": "/static/audio/wordpool/PALACE.wav", "key_press": -1, "type": "PRES_AUD", "word": "palace", "wordID": 1005, "conditions": [24, 800, "a", 24000], "trial": 4, "serialpos": 9, "trial_type": "single-audio", "trial_index": 166, "time_elapsed": 946624, "internal_node_id": "0.0-121.0"}}, {"uniqueid": "MTK0377:3PS7W85Z809NS76G7W679HN302A9T6", "current_trial": 167, "dateTime": 1510778670283, "trialdata": {"rt": -1000, "stimulus": "/static/audio/wordpool/ONION.wav", "key_press": -1, "type": "PRES_AUD", "word": "onion", "wordID": 976, "conditions": [24, 800, "a", 24000], "trial": 4, "serialpos": 10, "trial_type": "single-audio", "trial_index": 167, "time_elapsed": 948319, "internal_node_id": "0.0-122.0"}}, {"uniqueid": "MTK0377:3PS7W85Z809NS76G7W679HN302A9T6", "current_trial": 168, "dateTime": 1510778672253, "trialdata": {"rt": -1000, "stimulus": "/static/audio/wordpool/MUSTARD.wav", "key_press": -1, "type": "PRES_AUD", "word": "mustard", "wordID": 934, "conditions": [24, 800, "a", 24000], "trial": 4, "serialpos": 11, "trial_type": "single-audio", "trial_index": 168, "time_elapsed": 950290, "internal_node_id": "0.0-123.0"}}, {"uniqueid": "MTK0377:3PS7W85Z809NS76G7W679HN302A9T6", "current_trial": 169, "dateTime": 1510778673995, "trialdata": {"rt": -1000, "stimulus": "/static/audio/wordpool/BANQUET.wav", "key_press": -1, "type": "PRES_AUD", "word": "banquet", "wordID": 85, "conditions": [24, 800, "a", 24000], "trial": 4, "serialpos": 12, "trial_type": "single-audio", "trial_index": 169, "time_elapsed": 952032, "internal_node_id": "0.0-124.0"}}, {"uniqueid": "MTK0377:3PS7W85Z809NS76G7W679HN302A9T6", "current_trial": 170, "dateTime": 1510778675664, "trialdata": {"rt": -1000, "stimulus": "/static/audio/wordpool/WRIST.wav", "key_press": -1, "type": "PRES_AUD", "word": "wrist", "wordID": 1625, "conditions": [24, 800, "a", 24000], "trial": 4, "serialpos": 13, "trial_type": "single-audio", "trial_index": 170, "time_elapsed": 953701, "internal_node_id": "0.0-125.0"}}, {"uniqueid": "MTK0377:3PS7W85Z809NS76G7W679HN302A9T6", "current_trial": 171, "dateTime": 1510778677594, "trialdata": {"rt": -1000, "stimulus": "/static/audio/wordpool/ELBOW.wav", "key_press": -1, "type": "PRES_AUD", "word": "elbow", "wordID": 519, "conditions": [24, 800, "a", 24000], "trial": 4, "serialpos": 14, "trial_type": "single-audio", "trial_index": 171, "time_elapsed": 955631, "internal_node_id": "0.0-126.0"}}, {"uniqueid": "MTK0377:3PS7W85Z809NS76G7W679HN302A9T6", "current_trial": 172, "dateTime": 1510778679317, "trialdata": {"rt": -1000, "stimulus": "/static/audio/wordpool/TUTU.wav", "key_press": -1, "type": "PRES_AUD", "word": "tutu", "wordID": 1523, "conditions": [24, 800, "a", 24000], "trial": 4, "serialpos": 15, "trial_type": "single-audio", "trial_index": 172, "time_elapsed": 957354, "internal_node_id": "0.0-127.0"}}, {"uniqueid": "MTK0377:3PS7W85Z809NS76G7W679HN302A9T6", "current_trial": 173, "dateTime": 1510778681216, "trialdata": {"rt": -1000, "stimulus": "/static/audio/wordpool/AWARD.wav", "key_press": -1, "type": "PRES_AUD", "word": "award", "wordID": 62, "conditions": [24, 800, "a", 24000], "trial": 4, "serialpos": 16, "trial_type": "single-audio", "trial_index": 173, "time_elapsed": 959253, "internal_node_id": "0.0-128.0"}}, {"uniqueid": "MTK0377:3PS7W85Z809NS76G7W679HN302A9T6", "current_trial": 174, "dateTime": 1510778683107, "trialdata": {"rt": -1000, "stimulus": "/static/audio/wordpool/TURKEY.wav", "key_press": -1, "type": "PRES_AUD", "word": "turkey", "wordID": 1519, "conditions": [24, 800, "a", 24000], "trial": 4, "serialpos": 17, "trial_type": "single-audio", "trial_index": 174, "time_elapsed": 961144, "internal_node_id": "0.0-129.0"}}, {"uniqueid": "MTK0377:3PS7W85Z809NS76G7W679HN302A9T6", "current_trial": 175, "dateTime": 1510778684712, "trialdata": {"rt": -1000, "stimulus": "/static/audio/wordpool/SKILLET.wav", "key_press": -1, "type": "PRES_AUD", "word": "skillet", "wordID": 1316, "conditions": [24, 800, "a", 24000], "trial": 4, "serialpos": 18, "trial_type": "single-audio", "trial_index": 175, "time_elapsed": 962749, "internal_node_id": "0.0-130.0"}}, {"uniqueid": "MTK0377:3PS7W85Z809NS76G7W679HN302A9T6", "current_trial": 176, "dateTime": 1510778686594, "trialdata": {"rt": -1000, "stimulus": "/static/audio/wordpool/NIGHTGOWN.wav", "key_press": -1, "type": "PRES_AUD", "word": "nightgown", "wordID": 952, "conditions": [24, 800, "a", 24000], "trial": 4, "serialpos": 19, "trial_type": "single-audio", "trial_index": 176, "time_elapsed": 964631, "internal_node_id": "0.0-131.0"}}, {"uniqueid": "MTK0377:3PS7W85Z809NS76G7W679HN302A9T6", "current_trial": 177, "dateTime": 1510778688210, "trialdata": {"rt": -1000, "stimulus": "/static/audio/wordpool/HUMAN.wav", "key_press": -1, "type": "PRES_AUD", "word": "human", "wordID": 725, "conditions": [24, 800, "a", 24000], "trial": 4, "serialpos": 20, "trial_type": "single-audio", "trial_index": 177, "time_elapsed": 966247, "internal_node_id": "0.0-132.0"}}, {"uniqueid": "MTK0377:3PS7W85Z809NS76G7W679HN302A9T6", "current_trial": 178, "dateTime": 1510778690211, "trialdata": {"rt": -1000, "stimulus": "/static/audio/wordpool/FOX.wav", "key_press": -1, "type": "PRES_AUD", "word": "fox", "wordID": 597, "conditions": [24, 800, "a", 24000], "trial": 4, "serialpos": 21, "trial_type": "single-audio", "trial_index": 178, "time_elapsed": 968248, "internal_node_id": "0.0-133.0"}}, {"uniqueid": "MTK0377:3PS7W85Z809NS76G7W679HN302A9T6", "current_trial": 179, "dateTime": 1510778691878, "trialdata": {"rt": -1000, "stimulus": "/static/audio/wordpool/AGENT.wav", "key_press": -1, "type": "PRES_AUD", "word": "agent", "wordID": 9, "conditions": [24, 800, "a", 24000], "trial": 4, "serialpos": 22, "trial_type": "single-audio", "trial_index": 179, "time_elapsed": 969915, "internal_node_id": "0.0-134.0"}}, {"uniqueid": "MTK0377:3PS7W85Z809NS76G7W679HN302A9T6", "current_trial": 180, "dateTime": 1510778693571, "trialdata": {"rt": -1000, "stimulus": "/static/audio/wordpool/CHEMIST.wav", "key_press": -1, "type": "PRES_AUD", "word": "chemist", "wordID": 291, "conditions": [24, 800, "a", 24000], "trial": 4, "serialpos": 23, "trial_type": "single-audio", "trial_index": 180, "time_elapsed": 971608, "internal_node_id": "0.0-135.0"}}, {"uniqueid": "MTK0377:3PS7W85Z809NS76G7W679HN302A9T6", "current_trial": 181, "dateTime": 1510778694940, "trialdata": {"rt": -1, "stimulus": "", "key_press": -1, "type": "PRE_RECALL_DELAY", "trial_type": "single-stim", "trial_index": 181, "time_elapsed": 972977, "internal_node_id": "0.0-136.0-0.0"}}, {"uniqueid": "MTK0377:3PS7W85Z809NS76G7W679HN302A9T6", "current_trial": 182, "dateTime": 1510778695442, "trialdata": {"rt": -1000, "stimulus": "/static/audio/400Hz.wav", "key_press": -1, "type": "PRE_RECALL_ALERT", "trial_type": "single-audio", "trial_index": 182, "time_elapsed": 973479, "internal_node_id": "0.0-137.0"}}, {"uniqueid": "MTK0377:3PS7W85Z809NS76G7W679HN302A9T6", "current_trial": 183, "dateTime": 1510778755454, "trialdata": {"rt": [2911, 6355, 10350, 13092, 16631, 19871, 22784, 26021, 28754, 35659, 39788, 42639, 45513, 49970, 54047, 57679], "recwords": ["drawing", "tweezer", "patient", "igloo", "nurse", "popcorn", "palace", "banquet", "award", "nightgown", "radish", "lunch", "onion", "wrist", "fox", "ticket"], "type": "FREE_RECALL", "conditions": [24, 800, "a", 24000], "trial": 4, "trial_type": "free-recall", "trial_index": 183, "time_elapsed": 1033485, "internal_node_id": "0.0-138.0-0.0"}}, {"uniqueid": "MTK0377:3PS7W85Z809NS76G7W679HN302A9T6", "current_trial": 184, "dateTime": 1510778759819, "trialdata": {"rt": 2362, "key_press": 67, "type": "INSTRUCTIONS", "trial_type": "text", "trial_index": 184, "time_elapsed": 1037855, "internal_node_id": "0.0-139.0"}}, {"uniqueid": "MTK0377:3PS7W85Z809NS76G7W679HN302A9T6", "current_trial": 185, "dateTime": 1510778785824, "trialdata": {"rt": [2479, 4401, 6299, 8174, 11372, 13797, 16783, 19244, 21451], "responses": ["11", "14", "4", "13", "6", "15", "9", "19", "10"], "num1": [3, 6, 2, 8, 1, 6, 3, 7, 1, 3], "num2": [1, 6, 1, 4, 3, 4, 2, 3, 5, 7], "num3": [7, 4, 1, 1, 2, 5, 4, 9, 4, 7], "type": "DISTRACTOR", "conditions": [24, 1600, "v", 24000], "trial": 5, "trial_type": "math-distractor", "trial_index": 185, "time_elapsed": 1063860, "internal_node_id": "0.0-140.0"}}, {"uniqueid": "MTK0377:3PS7W85Z809NS76G7W679HN302A9T6", "current_trial": 186, "dateTime": 1510778788828, "trialdata": {"rt": -1, "stimulus": "<p id=\"stim\">10</p>", "key_press": -1, "trial_type": "single-stim", "trial_index": 186, "time_elapsed": 1066865, "internal_node_id": "0.0-141.0-0.0"}}, {"uniqueid": "MTK0377:3PS7W85Z809NS76G7W679HN302A9T6", "current_trial": 187, "dateTime": 1510778789830, "trialdata": {"rt": -1, "stimulus": "<p id=\"stim\">9</p>", "key_press": -1, "trial_type": "single-stim", "trial_index": 187, "time_elapsed": 1067867, "internal_node_id": "0.0-141.0-1.0"}}, {"uniqueid": "MTK0377:3PS7W85Z809NS76G7W679HN302A9T6", "current_trial": 188, "dateTime": 1510778790833, "trialdata": {"rt": -1, "stimulus": "<p id=\"stim\">8</p>", "key_press": -1, "trial_type": "single-stim", "trial_index": 188, "time_elapsed": 1068869, "internal_node_id": "0.0-141.0-2.0"}}, {"uniqueid": "MTK0377:3PS7W85Z809NS76G7W679HN302A9T6", "current_trial": 189, "dateTime": 1510778791835, "trialdata": {"rt": -1, "stimulus": "<p id=\"stim\">7</p>", "key_press": -1, "trial_type": "single-stim", "trial_index": 189, "time_elapsed": 1069871, "internal_node_id": "0.0-141.0-3.0"}}, {"uniqueid": "MTK0377:3PS7W85Z809NS76G7W679HN302A9T6", "current_trial": 190, "dateTime": 1510778792836, "trialdata": {"rt": -1, "stimulus": "<p id=\"stim\">6</p>", "key_press": -1, "trial_type": "single-stim", "trial_index": 190, "time_elapsed": 1070873, "internal_node_id": "0.0-141.0-4.0"}}, {"uniqueid": "MTK0377:3PS7W85Z809NS76G7W679HN302A9T6", "current_trial": 191, "dateTime": 1510778793837, "trialdata": {"rt": -1, "stimulus": "<p id=\"stim\">5</p>", "key_press": -1, "trial_type": "single-stim", "trial_index": 191, "time_elapsed": 1071874, "internal_node_id": "0.0-141.0-5.0"}}, {"uniqueid": "MTK0377:3PS7W85Z809NS76G7W679HN302A9T6", "current_trial": 192, "dateTime": 1510778794841, "trialdata": {"rt": -1, "stimulus": "<p id=\"stim\">4</p>", "key_press": -1, "trial_type": "single-stim", "trial_index": 192, "time_elapsed": 1072877, "internal_node_id": "0.0-141.0-6.0"}}, {"uniqueid": "MTK0377:3PS7W85Z809NS76G7W679HN302A9T6", "current_trial": 193, "dateTime": 1510778795843, "trialdata": {"rt": -1, "stimulus": "<p id=\"stim\">3</p>", "key_press": -1, "trial_type": "single-stim", "trial_index": 193, "time_elapsed": 1073880, "internal_node_id": "0.0-141.0-7.0"}}, {"uniqueid": "MTK0377:3PS7W85Z809NS76G7W679HN302A9T6", "current_trial": 194, "dateTime": 1510778796846, "trialdata": {"rt": -1, "stimulus": "<p id=\"stim\">2</p>", "key_press": -1, "trial_type": "single-stim", "trial_index": 194, "time_elapsed": 1074882, "internal_node_id": "0.0-141.0-8.0"}}, {"uniqueid": "MTK0377:3PS7W85Z809NS76G7W679HN302A9T6", "current_trial": 195, "dateTime": 1510778797848, "trialdata": {"rt": -1, "stimulus": "<p id=\"stim\">1</p>", "key_press": -1, "trial_type": "single-stim", "trial_index": 195, "time_elapsed": 1075885, "internal_node_id": "0.0-141.0-9.0"}}, {"uniqueid": "MTK0377:3PS7W85Z809NS76G7W679HN302A9T6", "current_trial": 196, "dateTime": 1510778799350, "trialdata": {"rt": -1, "stimulus": "<p id=\"stim\">+</p>", "key_press": -1, "type": "FIXATION", "trial_type": "single-stim", "trial_index": 196, "time_elapsed": 1077387, "internal_node_id": "0.0-142.0-0.0"}}, {"uniqueid": "MTK0377:3PS7W85Z809NS76G7W679HN302A9T6", "current_trial": 197, "dateTime": 1510778800952, "trialdata": {"rt": -1, "stimulus": "<p id=\"stim\">WASHER</p>", "key_press": -1, "type": "PRES_VIS", "word": "washer", "wordID": 1591, "conditions": [24, 1600, "v", 24000], "trial": 5, "serialpos": 0, "trial_type": "single-stim", "trial_index": 197, "time_elapsed": 1078988, "internal_node_id": "0.0-143.0"}}, {"uniqueid": "MTK0377:3PS7W85Z809NS76G7W679HN302A9T6", "current_trial": 198, "dateTime": 1510778803667, "trialdata": {"rt": -1, "stimulus": "<p id=\"stim\">RAZOR</p>", "key_press": -1, "type": "PRES_VIS", "word": "razor", "wordID": 1170, "conditions": [24, 1600, "v", 24000], "trial": 5, "serialpos": 1, "trial_type": "single-stim", "trial_index": 198, "time_elapsed": 1081702, "internal_node_id": "0.0-144.0"}}, {"uniqueid": "MTK0377:3PS7W85Z809NS76G7W679HN302A9T6", "current_trial": 199, "dateTime": 1510778806117, "trialdata": {"rt": -1, "stimulus": "<p id=\"stim\">UNCLE</p>", "key_press": -1, "type": "PRES_VIS", "word": "uncle", "wordID": 1535, "conditions": [24, 1600, "v", 24000], "trial": 5, "serialpos": 2, "trial_type": "single-stim", "trial_index": 199, "time_elapsed": 1084154, "internal_node_id": "0.0-145.0"}}, {"uniqueid": "MTK0377:3PS7W85Z809NS76G7W679HN302A9T6", "current_trial": 200, "dateTime": 1510778808660, "trialdata": {"rt": -1, "stimulus": "<p id=\"stim\">PISTON</p>", "key_press": -1, "type": "PRES_VIS", "word": "piston", "wordID": 1075, "conditions": [24, 1600, "v", 24000], "trial": 5, "serialpos": 3, "trial_type": "single-stim", "trial_index": 200, "time_elapsed": 1086697, "internal_node_id": "0.0-146.0"}}, {"uniqueid": "MTK0377:3PS7W85Z809NS76G7W679HN302A9T6", "current_trial": 201, "dateTime": 1510778811108, "trialdata": {"rt": -1, "stimulus": "<p id=\"stim\">BELLY</p>", "key_press": -1, "type": "PRES_VIS", "word": "belly", "wordID": 118, "conditions": [24, 1600, "v", 24000], "trial": 5, "serialpos": 4, "trial_type": "single-stim", "trial_index": 201, "time_elapsed": 1089145, "internal_node_id": "0.0-147.0"}}, {"uniqueid": "MTK0377:3PS7W85Z809NS76G7W679HN302A9T6", "current_trial": 202, "dateTime": 1510778813776, "trialdata": {"rt": -1, "stimulus": "<p id=\"stim\">BULLET</p>", "key_press": -1, "type": "PRES_VIS", "word": "bullet", "wordID": 193, "conditions": [24, 1600, "v", 24000], "trial": 5, "serialpos": 5, "trial_type": "single-stim", "trial_index": 202, "time_elapsed": 1091812, "internal_node_id": "0.0-148.0"}}, {"uniqueid": "MTK0377:3PS7W85Z809NS76G7W679HN302A9T6", "current_trial": 203, "dateTime": 1510778816461, "trialdata": {"rt": -1, "stimulus": "<p id=\"stim\">SCALPEL</p>", "key_press": -1, "type": "PRES_VIS", "word": "scalpel", "wordID": 1242, "conditions": [24, 1600, "v", 24000], "trial": 5, "serialpos": 6, "trial_type": "single-stim", "trial_index": 203, "time_elapsed": 1094498, "internal_node_id": "0.0-149.0"}}, {"uniqueid": "MTK0377:3PS7W85Z809NS76G7W679HN302A9T6", "current_trial": 204, "dateTime": 1510778818876, "trialdata": {"rt": -1, "stimulus": "<p id=\"stim\">DINER</p>", "key_press": -1, "type": "PRES_VIS", "word": "diner", "wordID": 466, "conditions": [24, 1600, "v", 24000], "trial": 5, "serialpos": 7, "trial_type": "single-stim", "trial_index": 204, "time_elapsed": 1096912, "internal_node_id": "0.0-150.0"}}, {"uniqueid": "MTK0377:3PS7W85Z809NS76G7W679HN302A9T6", "current_trial": 205, "dateTime": 1510778821639, "trialdata": {"rt": -1, "stimulus": "<p id=\"stim\">WAITER</p>", "key_press": -1, "type": "PRES_VIS", "word": "waiter", "wordID": 1579, "conditions": [24, 1600, "v", 24000], "trial": 5, "serialpos": 8, "trial_type": "single-stim", "trial_index": 205, "time_elapsed": 1099675, "internal_node_id": "0.0-151.0"}}, {"uniqueid": "MTK0377:3PS7W85Z809NS76G7W679HN302A9T6", "current_trial": 206, "dateTime": 1510778824042, "trialdata": {"rt": -1, "stimulus": "<p id=\"stim\">BRICK</p>", "key_press": -1, "type": "PRES_VIS", "word": "brick", "wordID": 171, "conditions": [24, 1600, "v", 24000], "trial": 5, "serialpos": 9, "trial_type": "single-stim", "trial_index": 206, "time_elapsed": 1102079, "internal_node_id": "0.0-152.0"}}, {"uniqueid": "MTK0377:3PS7W85Z809NS76G7W679HN302A9T6", "current_trial": 207, "dateTime": 1510778826675, "trialdata": {"rt": -1, "stimulus": "<p id=\"stim\">MONEY</p>", "key_press": -1, "type": "PRES_VIS", "word": "money", "wordID": 907, "conditions": [24, 1600, "v", 24000], "trial": 5, "serialpos": 10, "trial_type": "single-stim", "trial_index": 207, "time_elapsed": 1104711, "internal_node_id": "0.0-153.0"}}, {"uniqueid": "MTK0377:3PS7W85Z809NS76G7W679HN302A9T6", "current_trial": 208, "dateTime": 1510778829458, "trialdata": {"rt": -1, "stimulus": "<p id=\"stim\">SANDWICH</p>", "key_press": -1, "type": "PRES_VIS", "word": "sandwich", "wordID": 1231, "conditions": [24, 1600, "v", 24000], "trial": 5, "serialpos": 11, "trial_type": "single-stim", "trial_index": 208, "time_elapsed": 1107495, "internal_node_id": "0.0-154.0"}}, {"uniqueid": "MTK0377:3PS7W85Z809NS76G7W679HN302A9T6", "current_trial": 209, "dateTime": 1510778831937, "trialdata": {"rt": -1, "stimulus": "<p id=\"stim\">FOREST</p>", "key_press": -1, "type": "PRES_VIS", "word": "forest", "wordID": 592, "conditions": [24, 1600, "v", 24000], "trial": 5, "serialpos": 12, "trial_type": "single-stim", "trial_index": 209, "time_elapsed": 1109974, "internal_node_id": "0.0-155.0"}}, {"uniqueid": "MTK0377:3PS7W85Z809NS76G7W679HN302A9T6", "current_trial": 210, "dateTime": 1510778834567, "trialdata": {"rt": -1, "stimulus": "<p id=\"stim\">DOLPHIN</p>", "key_press": -1, "type": "PRES_VIS", "word": "dolphin", "wordID": 482, "conditions": [24, 1600, "v", 24000], "trial": 5, "serialpos": 13, "trial_type": "single-stim", "trial_index": 210, "time_elapsed": 1112604, "internal_node_id": "0.0-156.0"}}, {"uniqueid": "MTK0377:3PS7W85Z809NS76G7W679HN302A9T6", "current_trial": 211, "dateTime": 1510778837316, "trialdata": {"rt": -1, "stimulus": "<p id=\"stim\">FRAME</p>", "key_press": -1, "type": "PRES_VIS", "word": "frame", "wordID": 599, "conditions": [24, 1600, "v", 24000], "trial": 5, "serialpos": 14, "trial_type": "single-stim", "trial_index": 211, "time_elapsed": 1115353, "internal_node_id": "0.0-157.0"}}, {"uniqueid": "MTK0377:3PS7W85Z809NS76G7W679HN302A9T6", "current_trial": 212, "dateTime": 1510778840020, "trialdata": {"rt": -1, "stimulus": "<p id=\"stim\">ULCER</p>", "key_press": -1, "type": "PRES_VIS", "word": "ulcer", "wordID": 1532, "conditions": [24, 1600, "v", 24000], "trial": 5, "serialpos": 15, "trial_type": "single-stim", "trial_index": 212, "time_elapsed": 1118057, "internal_node_id": "0.0-158.0"}}, {"uniqueid": "MTK0377:3PS7W85Z809NS76G7W679HN302A9T6", "current_trial": 213, "dateTime": 1510778842560, "trialdata": {"rt": -1, "stimulus": "<p id=\"stim\">HAND</p>", "key_press": -1, "type": "PRES_VIS", "word": "hand", "wordID": 682, "conditions": [24, 1600, "v", 24000], "trial": 5, "serialpos": 16, "trial_type": "single-stim", "trial_index": 213, "time_elapsed": 1120596, "internal_node_id": "0.0-159.0"}}, {"uniqueid": "MTK0377:3PS7W85Z809NS76G7W679HN302A9T6", "current_trial": 214, "dateTime": 1510778845044, "trialdata": {"rt": -1, "stimulus": "<p id=\"stim\">SPARROW</p>", "key_press": -1, "type": "PRES_VIS", "word": "sparrow", "wordID": 1346, "conditions": [24, 1600, "v", 24000], "trial": 5, "serialpos": 17, "trial_type": "single-stim", "trial_index": 214, "time_elapsed": 1123081, "internal_node_id": "0.0-160.0"}}, {"uniqueid": "MTK0377:3PS7W85Z809NS76G7W679HN302A9T6", "current_trial": 215, "dateTime": 1510778847562, "trialdata": {"rt": -1, "stimulus": "<p id=\"stim\">CURTAIN</p>", "key_press": -1, "type": "PRES_VIS", "word": "curtain", "wordID": 426, "conditions": [24, 1600, "v", 24000], "trial": 5, "serialpos": 18, "trial_type": "single-stim", "trial_index": 215, "time_elapsed": 1125598, "internal_node_id": "0.0-161.0"}}, {"uniqueid": "MTK0377:3PS7W85Z809NS76G7W679HN302A9T6", "current_trial": 216, "dateTime": 1510778850005, "trialdata": {"rt": -1, "stimulus": "<p id=\"stim\">GAVEL</p>", "key_press": -1, "type": "PRES_VIS", "word": "gavel", "wordID": 626, "conditions": [24, 1600, "v", 24000], "trial": 5, "serialpos": 19, "trial_type": "single-stim", "trial_index": 216, "time_elapsed": 1128042, "internal_node_id": "0.0-162.0"}}, {"uniqueid": "MTK0377:3PS7W85Z809NS76G7W679HN302A9T6", "current_trial": 217, "dateTime": 1510778852765, "trialdata": {"rt": -1, "stimulus": "<p id=\"stim\">SUNSET</p>", "key_press": -1, "type": "PRES_VIS", "word": "sunset", "wordID": 1407, "conditions": [24, 1600, "v", 24000], "trial": 5, "serialpos": 20, "trial_type": "single-stim", "trial_index": 217, "time_elapsed": 1130802, "internal_node_id": "0.0-163.0"}}, {"uniqueid": "MTK0377:3PS7W85Z809NS76G7W679HN302A9T6", "current_trial": 218, "dateTime": 1510778855482, "trialdata": {"rt": -1, "stimulus": "<p id=\"stim\">SUNRISE</p>", "key_press": -1, "type": "PRES_VIS", "word": "sunrise", "wordID": 1406, "conditions": [24, 1600, "v", 24000], "trial": 5, "serialpos": 21, "trial_type": "single-stim", "trial_index": 218, "time_elapsed": 1133519, "internal_node_id": "0.0-164.0"}}, {"uniqueid": "MTK0377:3PS7W85Z809NS76G7W679HN302A9T6", "current_trial": 219, "dateTime": 1510778858026, "trialdata": {"rt": -1, "stimulus": "<p id=\"stim\">ROBIN</p>", "key_press": -1, "type": "PRES_VIS", "word": "robin", "wordID": 1198, "conditions": [24, 1600, "v", 24000], "trial": 5, "serialpos": 22, "trial_type": "single-stim", "trial_index": 219, "time_elapsed": 1136063, "internal_node_id": "0.0-165.0"}}, {"uniqueid": "MTK0377:3PS7W85Z809NS76G7W679HN302A9T6", "current_trial": 220, "dateTime": 1510778860680, "trialdata": {"rt": -1, "stimulus": "<p id=\"stim\">PIGMENT</p>", "key_press": -1, "type": "PRES_VIS", "word": "pigment", "wordID": 1065, "conditions": [24, 1600, "v", 24000], "trial": 5, "serialpos": 23, "trial_type": "single-stim", "trial_index": 220, "time_elapsed": 1138716, "internal_node_id": "0.0-166.0"}}, {"uniqueid": "MTK0377:3PS7W85Z809NS76G7W679HN302A9T6", "current_trial": 221, "dateTime": 1510778862983, "trialdata": {"rt": -1, "stimulus": "", "key_press": -1, "type": "PRE_RECALL_DELAY", "trial_type": "single-stim", "trial_index": 221, "time_elapsed": 1141020, "internal_node_id": "0.0-167.0-0.0"}}, {"uniqueid": "MTK0377:3PS7W85Z809NS76G7W679HN302A9T6", "current_trial": 222, "dateTime": 1510778863486, "trialdata": {"rt": -1000, "stimulus": "/static/audio/400Hz.wav", "key_press": -1, "type": "PRE_RECALL_ALERT", "trial_type": "single-audio", "trial_index": 222, "time_elapsed": 1141522, "internal_node_id": "0.0-168.0"}}, {"uniqueid": "MTK0377:3PS7W85Z809NS76G7W679HN302A9T6", "current_trial": 223, "dateTime": 1510778923497, "trialdata": {"rt": [3025, 7547, 9440, 12076, 14323, 17375, 20061, 22575, 25032, 31910, 35520, 39565, 41949, 45387, 48379, 53541], "recwords": ["uncle", "piston", "diner", "hand", "gavel", "bullet", "brick", "sparrow", "sunset", "sandwich", "frame", "curtain", "sunrise", "", "money", "dolphin"], "type": "FREE_RECALL", "conditions": [24, 1600, "v", 24000], "trial": 5, "trial_type": "free-recall", "trial_index": 223, "time_elapsed": 1201526, "internal_node_id": "0.0-169.0-0.0"}}, {"uniqueid": "MTK0377:3PS7W85Z809NS76G7W679HN302A9T6", "current_trial": 224, "dateTime": 1510778926914, "trialdata": {"rt": 1414, "key_press": 74, "type": "INSTRUCTIONS", "trial_type": "text", "trial_index": 224, "time_elapsed": 1204951, "internal_node_id": "0.0-170.0"}}, {"uniqueid": "MTK0377:3PS7W85Z809NS76G7W679HN302A9T6", "current_trial": 225, "dateTime": 1510778940921, "trialdata": {"rt": [2990, 5207, 8493, 10394], "responses": ["17", "16", "21", "8"], "num1": [7, 3, 4, 5, 4], "num2": [9, 6, 9, 2, 1], "num3": [1, 7, 9, 1, 9], "type": "DISTRACTOR", "conditions": [12, 800, "v", 12000], "trial": 6, "trial_type": "math-distractor", "trial_index": 225, "time_elapsed": 1218958, "internal_node_id": "0.0-171.0"}}, {"uniqueid": "MTK0377:3PS7W85Z809NS76G7W679HN302A9T6", "current_trial": 226, "dateTime": 1510778943923, "trialdata": {"rt": -1, "stimulus": "<p id=\"stim\">10</p>", "key_press": -1, "trial_type": "single-stim", "trial_index": 226, "time_elapsed": 1221960, "internal_node_id": "0.0-172.0-0.0"}}, {"uniqueid": "MTK0377:3PS7W85Z809NS76G7W679HN302A9T6", "current_trial": 227, "dateTime": 1510778944925, "trialdata": {"rt": -1, "stimulus": "<p id=\"stim\">9</p>", "key_press": -1, "trial_type": "single-stim", "trial_index": 227, "time_elapsed": 1222961, "internal_node_id": "0.0-172.0-1.0"}}, {"uniqueid": "MTK0377:3PS7W85Z809NS76G7W679HN302A9T6", "current_trial": 228, "dateTime": 1510778945926, "trialdata": {"rt": -1, "stimulus": "<p id=\"stim\">8</p>", "key_press": -1, "trial_type": "single-stim", "trial_index": 228, "time_elapsed": 1223963, "internal_node_id": "0.0-172.0-2.0"}}, {"uniqueid": "MTK0377:3PS7W85Z809NS76G7W679HN302A9T6", "current_trial": 229, "dateTime": 1510778946930, "trialdata": {"rt": -1, "stimulus": "<p id=\"stim\">7</p>", "key_press": -1, "trial_type": "single-stim", "trial_index": 229, "time_elapsed": 1224966, "internal_node_id": "0.0-172.0-3.0"}}, {"uniqueid": "MTK0377:3PS7W85Z809NS76G7W679HN302A9T6", "current_trial": 230, "dateTime": 1510778947931, "trialdata": {"rt": -1, "stimulus": "<p id=\"stim\">6</p>", "key_press": -1, "trial_type": "single-stim", "trial_index": 230, "time_elapsed": 1225968, "internal_node_id": "0.0-172.0-4.0"}}, {"uniqueid": "MTK0377:3PS7W85Z809NS76G7W679HN302A9T6", "current_trial": 231, "dateTime": 1510778948934, "trialdata": {"rt": -1, "stimulus": "<p id=\"stim\">5</p>", "key_press": -1, "trial_type": "single-stim", "trial_index": 231, "time_elapsed": 1226970, "internal_node_id": "0.0-172.0-5.0"}}, {"uniqueid": "MTK0377:3PS7W85Z809NS76G7W679HN302A9T6", "current_trial": 232, "dateTime": 1510778949935, "trialdata": {"rt": -1, "stimulus": "<p id=\"stim\">4</p>", "key_press": -1, "trial_type": "single-stim", "trial_index": 232, "time_elapsed": 1227972, "internal_node_id": "0.0-172.0-6.0"}}, {"uniqueid": "MTK0377:3PS7W85Z809NS76G7W679HN302A9T6", "current_trial": 233, "dateTime": 1510778950938, "trialdata": {"rt": -1, "stimulus": "<p id=\"stim\">3</p>", "key_press": -1, "trial_type": "single-stim", "trial_index": 233, "time_elapsed": 1228974, "internal_node_id": "0.0-172.0-7.0"}}, {"uniqueid": "MTK0377:3PS7W85Z809NS76G7W679HN302A9T6", "current_trial": 234, "dateTime": 1510778951939, "trialdata": {"rt": -1, "stimulus": "<p id=\"stim\">2</p>", "key_press": -1, "trial_type": "single-stim", "trial_index": 234, "time_elapsed": 1229976, "internal_node_id": "0.0-172.0-8.0"}}, {"uniqueid": "MTK0377:3PS7W85Z809NS76G7W679HN302A9T6", "current_trial": 235, "dateTime": 1510778952940, "trialdata": {"rt": -1, "stimulus": "<p id=\"stim\">1</p>", "key_press": -1, "trial_type": "single-stim", "trial_index": 235, "time_elapsed": 1230977, "internal_node_id": "0.0-172.0-9.0"}}, {"uniqueid": "MTK0377:3PS7W85Z809NS76G7W679HN302A9T6", "current_trial": 236, "dateTime": 1510778954441, "trialdata": {"rt": -1, "stimulus": "<p id=\"stim\">+</p>", "key_press": -1, "type": "FIXATION", "trial_type": "single-stim", "trial_index": 236, "time_elapsed": 1232478, "internal_node_id": "0.0-173.0-0.0"}}, {"uniqueid": "MTK0377:3PS7W85Z809NS76G7W679HN302A9T6", "current_trial": 237, "dateTime": 1510778955242, "trialdata": {"rt": -1, "stimulus": "<p id=\"stim\">CRITIC</p>", "key_press": -1, "type": "PRES_VIS", "word": "critic", "wordID": 409, "conditions": [12, 800, "v", 12000], "trial": 6, "serialpos": 0, "trial_type": "single-stim", "trial_index": 237, "time_elapsed": 1233279, "internal_node_id": "0.0-174.0"}}, {"uniqueid": "MTK0377:3PS7W85Z809NS76G7W679HN302A9T6", "current_trial": 238, "dateTime": 1510778957069, "trialdata": {"rt": -1, "stimulus": "<p id=\"stim\">MISTER</p>", "key_press": -1, "type": "PRES_VIS", "word": "mister", "wordID": 900, "conditions": [12, 800, "v", 12000], "trial": 6, "serialpos": 1, "trial_type": "single-stim", "trial_index": 238, "time_elapsed": 1235106, "internal_node_id": "0.0-175.0"}}, {"uniqueid": "MTK0377:3PS7W85Z809NS76G7W679HN302A9T6", "current_trial": 239, "dateTime": 1510778958984, "trialdata": {"rt": -1, "stimulus": "<p id=\"stim\">SHIRT</p>", "key_press": -1, "type": "PRES_VIS", "word": "shirt", "wordID": 1286, "conditions": [12, 800, "v", 12000], "trial": 6, "serialpos": 2, "trial_type": "single-stim", "trial_index": 239, "time_elapsed": 1237016, "internal_node_id": "0.0-176.0"}}, {"uniqueid": "MTK0377:3PS7W85Z809NS76G7W679HN302A9T6", "current_trial": 240, "dateTime": 1510778960979, "trialdata": {"rt": -1, "stimulus": "<p id=\"stim\">PACKAGE</p>", "key_press": -1, "type": "PRES_VIS", "word": "package", "wordID": 996, "conditions": [12, 800, "v", 12000], "trial": 6, "serialpos": 3, "trial_type": "single-stim", "trial_index": 240, "time_elapsed": 1239016, "internal_node_id": "0.0-177.0"}}, {"uniqueid": "MTK0377:3PS7W85Z809NS76G7W679HN302A9T6", "current_trial": 241, "dateTime": 1510778962978, "trialdata": {"rt": -1, "stimulus": "<p id=\"stim\">PASSAGE</p>", "key_press": -1, "type": "PRES_VIS", "word": "passage", "wordID": 1018, "conditions": [12, 800, "v", 12000], "trial": 6, "serialpos": 4, "trial_type": "single-stim", "trial_index": 241, "time_elapsed": 1241014, "internal_node_id": "0.0-178.0"}}, {"uniqueid": "MTK0377:3PS7W85Z809NS76G7W679HN302A9T6", "current_trial": 242, "dateTime": 1510778964705, "trialdata": {"rt": -1, "stimulus": "<p id=\"stim\">NEUTRON</p>", "key_press": -1, "type": "PRES_VIS", "word": "neutron", "wordID": 946, "conditions": [12, 800, "v", 12000], "trial": 6, "serialpos": 5, "trial_type": "single-stim", "trial_index": 242, "time_elapsed": 1242741, "internal_node_id": "0.0-179.0"}}, {"uniqueid": "MTK0377:3PS7W85Z809NS76G7W679HN302A9T6", "current_trial": 243, "dateTime": 1510778966494, "trialdata": {"rt": -1, "stimulus": "<p id=\"stim\">SCULPTURE</p>", "key_press": -1, "type": "PRES_VIS", "word": "sculpture", "wordID": 1257, "conditions": [12, 800, "v", 12000], "trial": 6, "serialpos": 6, "trial_type": "single-stim", "trial_index": 243, "time_elapsed": 1244531, "internal_node_id": "0.0-180.0"}}, {"uniqueid": "MTK0377:3PS7W85Z809NS76G7W679HN302A9T6", "current_trial": 244, "dateTime": 1510778968240, "trialdata": {"rt": -1, "stimulus": "<p id=\"stim\">LUGGAGE</p>", "key_press": -1, "type": "PRES_VIS", "word": "luggage", "wordID": 846, "conditions": [12, 800, "v", 12000], "trial": 6, "serialpos": 7, "trial_type": "single-stim", "trial_index": 244, "time_elapsed": 1246276, "internal_node_id": "0.0-181.0"}}, {"uniqueid": "MTK0377:3PS7W85Z809NS76G7W679HN302A9T6", "current_trial": 245, "dateTime": 1510778970064, "trialdata": {"rt": -1, "stimulus": "<p id=\"stim\">LONDON</p>", "key_press": -1, "type": "PRES_VIS", "word": "london", "wordID": 842, "conditions": [12, 800, "v", 12000], "trial": 6, "serialpos": 8, "trial_type": "single-stim", "trial_index": 245, "time_elapsed": 1248101, "internal_node_id": "0.0-182.0"}}, {"uniqueid": "MTK0377:3PS7W85Z809NS76G7W679HN302A9T6", "current_trial": 246, "dateTime": 1510778971844, "trialdata": {"rt": -1, "stimulus": "<p id=\"stim\">STATUE</p>", "key_press": -1, "type": "PRES_VIS", "word": "statue", "wordID": 1373, "conditions": [12, 800, "v", 12000], "trial": 6, "serialpos": 9, "trial_type": "single-stim", "trial_index": 246, "time_elapsed": 1249880, "internal_node_id": "0.0-183.0"}}, {"uniqueid": "MTK0377:3PS7W85Z809NS76G7W679HN302A9T6", "current_trial": 247, "dateTime": 1510778973542, "trialdata": {"rt": -1, "stimulus": "<p id=\"stim\">GOBLIN</p>", "key_press": -1, "type": "PRES_VIS", "word": "goblin", "wordID": 644, "conditions": [12, 800, "v", 12000], "trial": 6, "serialpos": 10, "trial_type": "single-stim", "trial_index": 247, "time_elapsed": 1251579, "internal_node_id": "0.0-184.0"}}, {"uniqueid": "MTK0377:3PS7W85Z809NS76G7W679HN302A9T6", "current_trial": 248, "dateTime": 1510778975319, "trialdata": {"rt": -1, "stimulus": "<p id=\"stim\">DRAGON</p>", "key_press": -1, "type": "PRES_VIS", "word": "dragon", "wordID": 491, "conditions": [12, 800, "v", 12000], "trial": 6, "serialpos": 11, "trial_type": "single-stim", "trial_index": 248, "time_elapsed": 1253356, "internal_node_id": "0.0-185.0"}}, {"uniqueid": "MTK0377:3PS7W85Z809NS76G7W679HN302A9T6", "current_trial": 249, "dateTime": 1510778977422, "trialdata": {"rt": -1, "stimulus": "", "key_press": -1, "type": "PRE_RECALL_DELAY", "trial_type": "single-stim", "trial_index": 249, "time_elapsed": 1255459, "internal_node_id": "0.0-186.0-0.0"}}, {"uniqueid": "MTK0377:3PS7W85Z809NS76G7W679HN302A9T6", "current_trial": 250, "dateTime": 1510778977924, "trialdata": {"rt": -1000, "stimulus": "/static/audio/400Hz.wav", "key_press": -1, "type": "PRE_RECALL_ALERT", "trial_type": "single-audio", "trial_index": 250, "time_elapsed": 1255960, "internal_node_id": "0.0-187.0"}}, {"uniqueid": "MTK0377:3PS7W85Z809NS76G7W679HN302A9T6", "current_trial": 251, "dateTime": 1510779037936, "trialdata": {"rt": [2916, 5164, 8320, 11872, 17336, 22356, 28568, 38428], "recwords": ["critic", "mister", "package", "neutron", "london", "dragon", "sculpture", "package"], "type": "FREE_RECALL", "conditions": [12, 800, "v", 12000], "trial": 6, "trial_type": "free-recall", "trial_index": 251, "time_elapsed": 1315965, "internal_node_id": "0.0-188.0-0.0"}}, {"uniqueid": "MTK0377:3PS7W85Z809NS76G7W679HN302A9T6", "current_trial": 252, "dateTime": 1510779040791, "trialdata": {"rt": 852, "key_press": 75, "type": "INSTRUCTIONS", "trial_type": "text", "trial_index": 252, "time_elapsed": 1318828, "internal_node_id": "0.0-189.0"}}, {"uniqueid": "MTK0377:3PS7W85Z809NS76G7W679HN302A9T6", "current_trial": 253, "dateTime": 1510779066796, "trialdata": {"rt": [4028, 6307, 9063, 11667, 13846, 16691, 19343, 21754, 23643], "responses": ["15", "15", "14", "13", "12", "8", "16", "17", "6"], "num1": [4, 2, 4, 2, 1, 4, 7, 6, 4, 7], "num2": [3, 8, 9, 4, 8, 2, 6, 7, 1, 3], "num3": [8, 5, 1, 7, 3, 4, 3, 4, 1, 4], "type": "DISTRACTOR", "conditions": [24, 1600, "a", 24000], "trial": 7, "trial_type": "math-distractor", "trial_index": 253, "time_elapsed": 1344833, "internal_node_id": "0.0-190.0"}}, {"uniqueid": "MTK0377:3PS7W85Z809NS76G7W679HN302A9T6", "current_trial": 254, "dateTime": 1510779069797, "trialdata": {"rt": -1, "stimulus": "<p id=\"stim\">10</p>", "key_press": -1, "trial_type": "single-stim", "trial_index": 254, "time_elapsed": 1347834, "internal_node_id": "0.0-191.0-0.0"}}, {"uniqueid": "MTK0377:3PS7W85Z809NS76G7W679HN302A9T6", "current_trial": 255, "dateTime": 1510779070798, "trialdata": {"rt": -1, "stimulus": "<p id=\"stim\">9</p>", "key_press": -1, "trial_type": "single-stim", "trial_index": 255, "time_elapsed": 1348835, "internal_node_id": "0.0-191.0-1.0"}}, {"uniqueid": "MTK0377:3PS7W85Z809NS76G7W679HN302A9T6", "current_trial": 256, "dateTime": 1510779071801, "trialdata": {"rt": -1, "stimulus": "<p id=\"stim\">8</p>", "key_press": -1, "trial_type": "single-stim", "trial_index": 256, "time_elapsed": 1349838, "internal_node_id": "0.0-191.0-2.0"}}, {"uniqueid": "MTK0377:3PS7W85Z809NS76G7W679HN302A9T6", "current_trial": 257, "dateTime": 1510779072803, "trialdata": {"rt": -1, "stimulus": "<p id=\"stim\">7</p>", "key_press": -1, "trial_type": "single-stim", "trial_index": 257, "time_elapsed": 1350840, "internal_node_id": "0.0-191.0-3.0"}}, {"uniqueid": "MTK0377:3PS7W85Z809NS76G7W679HN302A9T6", "current_trial": 258, "dateTime": 1510779073806, "trialdata": {"rt": -1, "stimulus": "<p id=\"stim\">6</p>", "key_press": -1, "trial_type": "single-stim", "trial_index": 258, "time_elapsed": 1351842, "internal_node_id": "0.0-191.0-4.0"}}, {"uniqueid": "MTK0377:3PS7W85Z809NS76G7W679HN302A9T6", "current_trial": 259, "dateTime": 1510779074809, "trialdata": {"rt": -1, "stimulus": "<p id=\"stim\">5</p>", "key_press": -1, "trial_type": "single-stim", "trial_index": 259, "time_elapsed": 1352845, "internal_node_id": "0.0-191.0-5.0"}}, {"uniqueid": "MTK0377:3PS7W85Z809NS76G7W679HN302A9T6", "current_trial": 260, "dateTime": 1510779075810, "trialdata": {"rt": -1, "stimulus": "<p id=\"stim\">4</p>", "key_press": -1, "trial_type": "single-stim", "trial_index": 260, "time_elapsed": 1353847, "internal_node_id": "0.0-191.0-6.0"}}, {"uniqueid": "MTK0377:3PS7W85Z809NS76G7W679HN302A9T6", "current_trial": 261, "dateTime": 1510779076812, "trialdata": {"rt": -1, "stimulus": "<p id=\"stim\">3</p>", "key_press": -1, "trial_type": "single-stim", "trial_index": 261, "time_elapsed": 1354848, "internal_node_id": "0.0-191.0-7.0"}}, {"uniqueid": "MTK0377:3PS7W85Z809NS76G7W679HN302A9T6", "current_trial": 262, "dateTime": 1510779077814, "trialdata": {"rt": -1, "stimulus": "<p id=\"stim\">2</p>", "key_press": -1, "trial_type": "single-stim", "trial_index": 262, "time_elapsed": 1355850, "internal_node_id": "0.0-191.0-8.0"}}, {"uniqueid": "MTK0377:3PS7W85Z809NS76G7W679HN302A9T6", "current_trial": 263, "dateTime": 1510779078817, "trialdata": {"rt": -1, "stimulus": "<p id=\"stim\">1</p>", "key_press": -1, "trial_type": "single-stim", "trial_index": 263, "time_elapsed": 1356853, "internal_node_id": "0.0-191.0-9.0"}}, {"uniqueid": "MTK0377:3PS7W85Z809NS76G7W679HN302A9T6", "current_trial": 264, "dateTime": 1510779080317, "trialdata": {"rt": -1, "stimulus": "<p id=\"stim\">+</p>", "key_press": -1, "type": "FIXATION", "trial_type": "single-stim", "trial_index": 264, "time_elapsed": 1358354, "internal_node_id": "0.0-192.0-0.0"}}, {"uniqueid": "MTK0377:3PS7W85Z809NS76G7W679HN302A9T6", "current_trial": 265, "dateTime": 1510779083044, "trialdata": {"rt": -1000, "stimulus": "/static/audio/wordpool/ACTOR.wav", "key_press": -1, "type": "PRES_AUD", "word": "actor", "wordID": 4, "conditions": [24, 1600, "a", 24000], "trial": 7, "serialpos": 0, "trial_type": "single-audio", "trial_index": 265, "time_elapsed": 1361081, "internal_node_id": "0.0-193.0"}}, {"uniqueid": "MTK0377:3PS7W85Z809NS76G7W679HN302A9T6", "current_trial": 266, "dateTime": 1510779085725, "trialdata": {"rt": -1000, "stimulus": "/static/audio/wordpool/MARKET.wav", "key_press": -1, "type": "PRES_AUD", "word": "market", "wordID": 870, "conditions": [24, 1600, "a", 24000], "trial": 7, "serialpos": 1, "trial_type": "single-audio", "trial_index": 266, "time_elapsed": 1363762, "internal_node_id": "0.0-194.0"}}, {"uniqueid": "MTK0377:3PS7W85Z809NS76G7W679HN302A9T6", "current_trial": 267, "dateTime": 1510779088432, "trialdata": {"rt": -1000, "stimulus": "/static/audio/wordpool/SHELTER.wav", "key_press": -1, "type": "PRES_AUD", "word": "shelter", "wordID": 1281, "conditions": [24, 1600, "a", 24000], "trial": 7, "serialpos": 2, "trial_type": "single-audio", "trial_index": 267, "time_elapsed": 1366469, "internal_node_id": "0.0-195.0"}}, {"uniqueid": "MTK0377:3PS7W85Z809NS76G7W679HN302A9T6", "current_trial": 268, "dateTime": 1510779091173, "trialdata": {"rt": -1000, "stimulus": "/static/audio/wordpool/ASIA.wav", "key_press": -1, "type": "PRES_AUD", "word": "asia", "wordID": 45, "conditions": [24, 1600, "a", 24000], "trial": 7, "serialpos": 3, "trial_type": "single-audio", "trial_index": 268, "time_elapsed": 1369210, "internal_node_id": "0.0-196.0"}}, {"uniqueid": "MTK0377:3PS7W85Z809NS76G7W679HN302A9T6", "current_trial": 269, "dateTime": 1510779093633, "trialdata": {"rt": -1000, "stimulus": "/static/audio/wordpool/JAPAN.wav", "key_press": -1, "type": "PRES_AUD", "word": "japan", "wordID": 748, "conditions": [24, 1600,