{"condition": 0, "counterbalance": 663, "assignmentId": "3I2PTA7R3U1UHNXFUP31ULQWRB4QKS", "workerId": "MTK0580", "hitId": "3VDVA3ILIDMZBDJLTHN568UBYFBG15", "currenttrial": 626, "bonus": 0, "data": [{"uniqueid": "MTK0580:3I2PTA7R3U1UHNXFUP31ULQWRB4QKS", "current_trial": 0, "dateTime": 1511220789737, "trialdata": {"rt": 15235, "key_press": 74, "type": "INSTRUCTIONS", "trial_type": "text", "trial_index": 0, "time_elapsed": 15239, "internal_node_id": "0.0-0.0"}}, {"uniqueid": "MTK0580:3I2PTA7R3U1UHNXFUP31ULQWRB4QKS", "current_trial": 1, "dateTime": 1511222671450, "trialdata": {"rt": 1881705, "key_press": 32, "type": "INSTRUCTIONS", "trial_type": "text", "trial_index": 1, "time_elapsed": 1896951, "internal_node_id": "0.0-1.0"}}, {"uniqueid": "MTK0580:3I2PTA7R3U1UHNXFUP31ULQWRB4QKS", "current_trial": 2, "dateTime": 1511222680703, "trialdata": {"rt": [9053], "responses": ["ocean"], "type": "AUDIO_TEST", "trial_type": "audio-test", "trial_index": 2, "time_elapsed": 1906206, "internal_node_id": "0.0-2.0"}}, {"uniqueid": "MTK0580:3I2PTA7R3U1UHNXFUP31ULQWRB4QKS", "current_trial": 3, "dateTime": 1511222688010, "trialdata": {"rt": [7277], "responses": ["crystal"], "type": "AUDIO_TEST", "trial_type": "audio-test", "trial_index": 3, "time_elapsed": 1913514, "internal_node_id": "0.0-3.0"}}, {"uniqueid": "MTK0580:3I2PTA7R3U1UHNXFUP31ULQWRB4QKS", "current_trial": 4, "dateTime": 1511222693793, "trialdata": {"rt": [5747], "responses": ["spice"], "type": "AUDIO_TEST", "trial_type": "audio-test", "trial_index": 4, "time_elapsed": 1919297, "internal_node_id": "0.0-4.0"}}, {"uniqueid": "MTK0580:3I2PTA7R3U1UHNXFUP31ULQWRB4QKS", "current_trial": 5, "dateTime": 1511222767475, "trialdata": {"rt": 72924, "responses": "{\"Q0\":\"1 am\",\"Q1\":\"9 am\",\"Q2\":\"4\"}", "type": "SLEEP_SURVEY", "trial_type": "survey-text", "trial_index": 5, "time_elapsed": 1992978, "internal_node_id": "0.0-5.0"}}, {"uniqueid": "MTK0580:3I2PTA7R3U1UHNXFUP31ULQWRB4QKS", "current_trial": 6, "dateTime": 1511222810749, "trialdata": {"rt": 42266, "key_press": 17, "type": "INSTRUCTIONS", "trial_type": "text", "trial_index": 6, "time_elapsed": 2036252, "internal_node_id": "0.0-6.0"}}, {"uniqueid": "MTK0580:3I2PTA7R3U1UHNXFUP31ULQWRB4QKS", "current_trial": 7, "dateTime": 1511222863258, "trialdata": {"rt": 52002, "key_press": 32, "type": "INSTRUCTIONS", "trial_type": "text", "trial_index": 7, "time_elapsed": 2088761, "internal_node_id": "0.0-7.0"}}, {"uniqueid": "MTK0580:3I2PTA7R3U1UHNXFUP31ULQWRB4QKS", "current_trial": 8, "dateTime": 1511223040947, "trialdata": {"rt": 177185, "key_press": 32, "type": "INSTRUCTIONS", "trial_type": "text", "trial_index": 8, "time_elapsed": 2266450, "internal_node_id": "0.0-8.0"}}, {"uniqueid": "MTK0580:3I2PTA7R3U1UHNXFUP31ULQWRB4QKS", "current_trial": 9, "dateTime": 1511223060009, "trialdata": {"rt": [3567, 6857, 11852, 14576, 16577], "responses": ["12", "13", "23", "15", "9"], "num1": [3, 4, 5, 2, 3, 5], "num2": [7, 7, 9, 9, 3, 4], "num3": [2, 2, 9, 4, 3, 3], "type": "DISTRACTOR", "conditions": [18, 1200, "a", 18000], "trial": 0, "trial_type": "math-distractor", "trial_index": 9, "time_elapsed": 2285512, "internal_node_id": "0.0-9.0"}}, {"uniqueid": "MTK0580:3I2PTA7R3U1UHNXFUP31ULQWRB4QKS", "current_trial": 10, "dateTime": 1511223063025, "trialdata": {"rt": -1, "stimulus": "<p id=\"stim\">10</p>", "key_press": -1, "trial_type": "single-stim", "trial_index": 10, "time_elapsed": 2288528, "internal_node_id": "0.0-10.0-0.0"}}, {"uniqueid": "MTK0580:3I2PTA7R3U1UHNXFUP31ULQWRB4QKS", "current_trial": 11, "dateTime": 1511223064028, "trialdata": {"rt": -1, "stimulus": "<p id=\"stim\">9</p>", "key_press": -1, "trial_type": "single-stim", "trial_index": 11, "time_elapsed": 2289531, "internal_node_id": "0.0-10.0-1.0"}}, {"uniqueid": "MTK0580:3I2PTA7R3U1UHNXFUP31ULQWRB4QKS", "current_trial": 12, "dateTime": 1511223065031, "trialdata": {"rt": -1, "stimulus": "<p id=\"stim\">8</p>", "key_press": -1, "trial_type": "single-stim", "trial_index": 12, "time_elapsed": 2290534, "internal_node_id": "0.0-10.0-2.0"}}, {"uniqueid": "MTK0580:3I2PTA7R3U1UHNXFUP31ULQWRB4QKS", "current_trial": 13, "dateTime": 1511223066034, "trialdata": {"rt": -1, "stimulus": "<p id=\"stim\">7</p>", "key_press": -1, "trial_type": "single-stim", "trial_index": 13, "time_elapsed": 2291538, "internal_node_id": "0.0-10.0-3.0"}}, {"uniqueid": "MTK0580:3I2PTA7R3U1UHNXFUP31ULQWRB4QKS", "current_trial": 14, "dateTime": 1511223067036, "trialdata": {"rt": -1, "stimulus": "<p id=\"stim\">6</p>", "key_press": -1, "trial_type": "single-stim", "trial_index": 14, "time_elapsed": 2292540, "internal_node_id": "0.0-10.0-4.0"}}, {"uniqueid": "MTK0580:3I2PTA7R3U1UHNXFUP31ULQWRB4QKS", "current_trial": 15, "dateTime": 1511223068039, "trialdata": {"rt": -1, "stimulus": "<p id=\"stim\">5</p>", "key_press": -1, "trial_type": "single-stim", "trial_index": 15, "time_elapsed": 2293542, "internal_node_id": "0.0-10.0-5.0"}}, {"uniqueid": "MTK0580:3I2PTA7R3U1UHNXFUP31ULQWRB4QKS", "current_trial": 16, "dateTime": 1511223069041, "trialdata": {"rt": -1, "stimulus": "<p id=\"stim\">4</p>", "key_press": -1, "trial_type": "single-stim", "trial_index": 16, "time_elapsed": 2294544, "internal_node_id": "0.0-10.0-6.0"}}, {"uniqueid": "MTK0580:3I2PTA7R3U1UHNXFUP31ULQWRB4QKS", "current_trial": 17, "dateTime": 1511223070043, "trialdata": {"rt": -1, "stimulus": "<p id=\"stim\">3</p>", "key_press": -1, "trial_type": "single-stim", "trial_index": 17, "time_elapsed": 2295547, "internal_node_id": "0.0-10.0-7.0"}}, {"uniqueid": "MTK0580:3I2PTA7R3U1UHNXFUP31ULQWRB4QKS", "current_trial": 18, "dateTime": 1511223071047, "trialdata": {"rt": -1, "stimulus": "<p id=\"stim\">2</p>", "key_press": -1, "trial_type": "single-stim", "trial_index": 18, "time_elapsed": 2296550, "internal_node_id": "0.0-10.0-8.0"}}, {"uniqueid": "MTK0580:3I2PTA7R3U1UHNXFUP31ULQWRB4QKS", "current_trial": 19, "dateTime": 1511223072051, "trialdata": {"rt": -1, "stimulus": "<p id=\"stim\">1</p>", "key_press": -1, "trial_type": "single-stim", "trial_index": 19, "time_elapsed": 2297554, "internal_node_id": "0.0-10.0-9.0"}}, {"uniqueid": "MTK0580:3I2PTA7R3U1UHNXFUP31ULQWRB4QKS", "current_trial": 20, "dateTime": 1511223073555, "trialdata": {"rt": -1, "stimulus": "<p id=\"stim\">+</p>", "key_press": -1, "type": "FIXATION", "trial_type": "single-stim", "trial_index": 20, "time_elapsed": 2299059, "internal_node_id": "0.0-11.0-0.0"}}, {"uniqueid": "MTK0580:3I2PTA7R3U1UHNXFUP31ULQWRB4QKS", "current_trial": 21, "dateTime": 1511223075755, "trialdata": {"rt": -1000, "stimulus": "/static/audio/wordpool/SNAKE.wav", "key_press": -1, "type": "PRES_AUD", "word": "snake", "wordID": 1332, "conditions": [18, 1200, "a", 18000], "trial": 0, "serialpos": 0, "trial_type": "single-audio", "trial_index": 21, "time_elapsed": 2301259, "internal_node_id": "0.0-12.0"}}, {"uniqueid": "MTK0580:3I2PTA7R3U1UHNXFUP31ULQWRB4QKS", "current_trial": 22, "dateTime": 1511223078051, "trialdata": {"rt": -1000, "stimulus": "/static/audio/wordpool/STREAM.wav", "key_press": -1, "type": "PRES_AUD", "word": "stream", "wordID": 1391, "conditions": [18, 1200, "a", 18000], "trial": 0, "serialpos": 1, "trial_type": "single-audio", "trial_index": 22, "time_elapsed": 2303555, "internal_node_id": "0.0-13.0"}}, {"uniqueid": "MTK0580:3I2PTA7R3U1UHNXFUP31ULQWRB4QKS", "current_trial": 23, "dateTime": 1511223080178, "trialdata": {"rt": -1000, "stimulus": "/static/audio/wordpool/NOTEBOOK.wav", "key_press": -1, "type": "PRES_AUD", "word": "notebook", "wordID": 958, "conditions": [18, 1200, "a", 18000], "trial": 0, "serialpos": 2, "trial_type": "single-audio", "trial_index": 23, "time_elapsed": 2305681, "internal_node_id": "0.0-14.0"}}, {"uniqueid": "MTK0580:3I2PTA7R3U1UHNXFUP31ULQWRB4QKS", "current_trial": 24, "dateTime": 1511223082412, "trialdata": {"rt": -1000, "stimulus": "/static/audio/wordpool/ZEBRA.wav", "key_press": -1, "type": "PRES_AUD", "word": "zebra", "wordID": 1634, "conditions": [18, 1200, "a", 18000], "trial": 0, "serialpos": 3, "trial_type": "single-audio", "trial_index": 24, "time_elapsed": 2307916, "internal_node_id": "0.0-15.0"}}, {"uniqueid": "MTK0580:3I2PTA7R3U1UHNXFUP31ULQWRB4QKS", "current_trial": 25, "dateTime": 1511223084759, "trialdata": {"rt": -1000, "stimulus": "/static/audio/wordpool/GRILL.wav", "key_press": -1, "type": "PRES_AUD", "word": "grill", "wordID": 660, "conditions": [18, 1200, "a", 18000], "trial": 0, "serialpos": 4, "trial_type": "single-audio", "trial_index": 25, "time_elapsed": 2310262, "internal_node_id": "0.0-16.0"}}, {"uniqueid": "MTK0580:3I2PTA7R3U1UHNXFUP31ULQWRB4QKS", "current_trial": 26, "dateTime": 1511223086964, "trialdata": {"rt": -1000, "stimulus": "/static/audio/wordpool/SHIRT.wav", "key_press": -1, "type": "PRES_AUD", "word": "shirt", "wordID": 1286, "conditions": [18, 1200, "a", 18000], "trial": 0, "serialpos": 5, "trial_type": "single-audio", "trial_index": 26, "time_elapsed": 2312467, "internal_node_id": "0.0-17.0"}}, {"uniqueid": "MTK0580:3I2PTA7R3U1UHNXFUP31ULQWRB4QKS", "current_trial": 27, "dateTime": 1511223089170, "trialdata": {"rt": -1000, "stimulus": "/static/audio/wordpool/PIGEON.wav", "key_press": -1, "type": "PRES_AUD", "word": "pigeon", "wordID": 1064, "conditions": [18, 1200, "a", 18000], "trial": 0, "serialpos": 6, "trial_type": "single-audio", "trial_index": 27, "time_elapsed": 2314674, "internal_node_id": "0.0-18.0"}}, {"uniqueid": "MTK0580:3I2PTA7R3U1UHNXFUP31ULQWRB4QKS", "current_trial": 28, "dateTime": 1511223091260, "trialdata": {"rt": -1000, "stimulus": "/static/audio/wordpool/PLAZA.wav", "key_press": -1, "type": "PRES_AUD", "word": "plaza", "wordID": 1087, "conditions": [18, 1200, "a", 18000], "trial": 0, "serialpos": 7, "trial_type": "single-audio", "trial_index": 28, "time_elapsed": 2316764, "internal_node_id": "0.0-19.0"}}, {"uniqueid": "MTK0580:3I2PTA7R3U1UHNXFUP31ULQWRB4QKS", "current_trial": 29, "dateTime": 1511223093412, "trialdata": {"rt": -1000, "stimulus": "/static/audio/wordpool/ROBBER.wav", "key_press": -1, "type": "PRES_AUD", "word": "robber", "wordID": 1196, "conditions": [18, 1200, "a", 18000], "trial": 0, "serialpos": 8, "trial_type": "single-audio", "trial_index": 29, "time_elapsed": 2318916, "internal_node_id": "0.0-20.0"}}, {"uniqueid": "MTK0580:3I2PTA7R3U1UHNXFUP31ULQWRB4QKS", "current_trial": 30, "dateTime": 1511223095489, "trialdata": {"rt": -1000, "stimulus": "/static/audio/wordpool/BLADE.wav", "key_press": -1, "type": "PRES_AUD", "word": "blade", "wordID": 133, "conditions": [18, 1200, "a", 18000], "trial": 0, "serialpos": 9, "trial_type": "single-audio", "trial_index": 30, "time_elapsed": 2320992, "internal_node_id": "0.0-21.0"}}, {"uniqueid": "MTK0580:3I2PTA7R3U1UHNXFUP31ULQWRB4QKS", "current_trial": 31, "dateTime": 1511223097878, "trialdata": {"rt": -1000, "stimulus": "/static/audio/wordpool/DIME.wav", "key_press": -1, "type": "PRES_AUD", "word": "dime", "wordID": 465, "conditions": [18, 1200, "a", 18000], "trial": 0, "serialpos": 10, "trial_type": "single-audio", "trial_index": 31, "time_elapsed": 2323382, "internal_node_id": "0.0-22.0"}}, {"uniqueid": "MTK0580:3I2PTA7R3U1UHNXFUP31ULQWRB4QKS", "current_trial": 32, "dateTime": 1511223100028, "trialdata": {"rt": -1000, "stimulus": "/static/audio/wordpool/QUARTER.wav", "key_press": -1, "type": "PRES_AUD", "word": "quarter", "wordID": 1147, "conditions": [18, 1200, "a", 18000], "trial": 0, "serialpos": 11, "trial_type": "single-audio", "trial_index": 32, "time_elapsed": 2325531, "internal_node_id": "0.0-23.0"}}, {"uniqueid": "MTK0580:3I2PTA7R3U1UHNXFUP31ULQWRB4QKS", "current_trial": 33, "dateTime": 1511223102383, "trialdata": {"rt": -1000, "stimulus": "/static/audio/wordpool/ARM.wav", "key_press": -1, "type": "PRES_AUD", "word": "arm", "wordID": 37, "conditions": [18, 1200, "a", 18000], "trial": 0, "serialpos": 12, "trial_type": "single-audio", "trial_index": 33, "time_elapsed": 2327887, "internal_node_id": "0.0-24.0"}}, {"uniqueid": "MTK0580:3I2PTA7R3U1UHNXFUP31ULQWRB4QKS", "current_trial": 34, "dateTime": 1511223104508, "trialdata": {"rt": -1000, "stimulus": "/static/audio/wordpool/OZONE.wav", "key_press": -1, "type": "PRES_AUD", "word": "ozone", "wordID": 995, "conditions": [18, 1200, "a", 18000], "trial": 0, "serialpos": 13, "trial_type": "single-audio", "trial_index": 34, "time_elapsed": 2330011, "internal_node_id": "0.0-25.0"}}, {"uniqueid": "MTK0580:3I2PTA7R3U1UHNXFUP31ULQWRB4QKS", "current_trial": 35, "dateTime": 1511223106671, "trialdata": {"rt": -1000, "stimulus": "/static/audio/wordpool/BANK.wav", "key_press": -1, "type": "PRES_AUD", "word": "bank", "wordID": 82, "conditions": [18, 1200, "a", 18000], "trial": 0, "serialpos": 14, "trial_type": "single-audio", "trial_index": 35, "time_elapsed": 2332174, "internal_node_id": "0.0-26.0"}}, {"uniqueid": "MTK0580:3I2PTA7R3U1UHNXFUP31ULQWRB4QKS", "current_trial": 36, "dateTime": 1511223108711, "trialdata": {"rt": -1000, "stimulus": "/static/audio/wordpool/OYSTER.wav", "key_press": -1, "type": "PRES_AUD", "word": "oyster", "wordID": 994, "conditions": [18, 1200, "a", 18000], "trial": 0, "serialpos": 15, "trial_type": "single-audio", "trial_index": 36, "time_elapsed": 2334214, "internal_node_id": "0.0-27.0"}}, {"uniqueid": "MTK0580:3I2PTA7R3U1UHNXFUP31ULQWRB4QKS", "current_trial": 37, "dateTime": 1511223110861, "trialdata": {"rt": -1000, "stimulus": "/static/audio/wordpool/MILK.wav", "key_press": -1, "type": "PRES_AUD", "word": "milk", "wordID": 894, "conditions": [18, 1200, "a", 18000], "trial": 0, "serialpos": 16, "trial_type": "single-audio", "trial_index": 37, "time_elapsed": 2336365, "internal_node_id": "0.0-28.0"}}, {"uniqueid": "MTK0580:3I2PTA7R3U1UHNXFUP31ULQWRB4QKS", "current_trial": 38, "dateTime": 1511223113028, "trialdata": {"rt": -1000, "stimulus": "/static/audio/wordpool/PICNIC.wav", "key_press": -1, "type": "PRES_AUD", "word": "picnic", "wordID": 1059, "conditions": [18, 1200, "a", 18000], "trial": 0, "serialpos": 17, "trial_type": "single-audio", "trial_index": 38, "time_elapsed": 2338531, "internal_node_id": "0.0-29.0"}}, {"uniqueid": "MTK0580:3I2PTA7R3U1UHNXFUP31ULQWRB4QKS", "current_trial": 39, "dateTime": 1511223114381, "trialdata": {"rt": -1, "stimulus": "", "key_press": -1, "type": "PRE_RECALL_DELAY", "trial_type": "single-stim", "trial_index": 39, "time_elapsed": 2339885, "internal_node_id": "0.0-30.0-0.0"}}, {"uniqueid": "MTK0580:3I2PTA7R3U1UHNXFUP31ULQWRB4QKS", "current_trial": 40, "dateTime": 1511223114883, "trialdata": {"rt": -1000, "stimulus": "/static/audio/400Hz.wav", "key_press": -1, "type": "PRE_RECALL_ALERT", "trial_type": "single-audio", "trial_index": 40, "time_elapsed": 2340386, "internal_node_id": "0.0-31.0"}}, {"uniqueid": "MTK0580:3I2PTA7R3U1UHNXFUP31ULQWRB4QKS", "current_trial": 41, "dateTime": 1511223174905, "trialdata": {"rt": [3873, 6263, 9318, 13942, 18199, 21812, 26479, 31019, 34861, 50539], "recwords": ["milk", "snake", "stream", "zebra", "plaza", "tree", "picinic", "bear", "donut", ""], "type": "FREE_RECALL", "conditions": [18, 1200, "a", 18000], "trial": 0, "trial_type": "free-recall", "trial_index": 41, "time_elapsed": 2400397, "internal_node_id": "0.0-32.0-0.0"}}, {"uniqueid": "MTK0580:3I2PTA7R3U1UHNXFUP31ULQWRB4QKS", "current_trial": 42, "dateTime": 1511223180286, "trialdata": {"rt": 3378, "key_press": 13, "type": "INSTRUCTIONS", "trial_type": "text", "trial_index": 42, "time_elapsed": 2405789, "internal_node_id": "0.0-33.0"}}, {"uniqueid": "MTK0580:3I2PTA7R3U1UHNXFUP31ULQWRB4QKS", "current_trial": 43, "dateTime": 1511223200300, "trialdata": {"rt": [5068, 7224, 11698, 14205], "responses": ["15", "18", "24", "20"], "num1": [3, 8, 6, 8, 6], "num2": [5, 5, 9, 3, 7], "num3": [7, 5, 9, 9, 2], "type": "DISTRACTOR", "conditions": [18, 1200, "v", 18000], "trial": 1, "trial_type": "math-distractor", "trial_index": 43, "time_elapsed": 2425803, "internal_node_id": "0.0-34.0"}}, {"uniqueid": "MTK0580:3I2PTA7R3U1UHNXFUP31ULQWRB4QKS", "current_trial": 44, "dateTime": 1511223203312, "trialdata": {"rt": -1, "stimulus": "<p id=\"stim\">10</p>", "key_press": -1, "trial_type": "single-stim", "trial_index": 44, "time_elapsed": 2428815, "internal_node_id": "0.0-35.0-0.0"}}, {"uniqueid": "MTK0580:3I2PTA7R3U1UHNXFUP31ULQWRB4QKS", "current_trial": 45, "dateTime": 1511223204322, "trialdata": {"rt": -1, "stimulus": "<p id=\"stim\">9</p>", "key_press": -1, "trial_type": "single-stim", "trial_index": 45, "time_elapsed": 2429825, "internal_node_id": "0.0-35.0-1.0"}}, {"uniqueid": "MTK0580:3I2PTA7R3U1UHNXFUP31ULQWRB4QKS", "current_trial": 46, "dateTime": 1511223205325, "trialdata": {"rt": -1, "stimulus": "<p id=\"stim\">8</p>", "key_press": -1, "trial_type": "single-stim", "trial_index": 46, "time_elapsed": 2430829, "internal_node_id": "0.0-35.0-2.0"}}, {"uniqueid": "MTK0580:3I2PTA7R3U1UHNXFUP31ULQWRB4QKS", "current_trial": 47, "dateTime": 1511223206329, "trialdata": {"rt": -1, "stimulus": "<p id=\"stim\">7</p>", "key_press": -1, "trial_type": "single-stim", "trial_index": 47, "time_elapsed": 2431833, "internal_node_id": "0.0-35.0-3.0"}}, {"uniqueid": "MTK0580:3I2PTA7R3U1UHNXFUP31ULQWRB4QKS", "current_trial": 48, "dateTime": 1511223207356, "trialdata": {"rt": -1, "stimulus": "<p id=\"stim\">6</p>", "key_press": -1, "trial_type": "single-stim", "trial_index": 48, "time_elapsed": 2432859, "internal_node_id": "0.0-35.0-4.0"}}, {"uniqueid": "MTK0580:3I2PTA7R3U1UHNXFUP31ULQWRB4QKS", "current_trial": 49, "dateTime": 1511223208360, "trialdata": {"rt": -1, "stimulus": "<p id=\"stim\">5</p>", "key_press": -1, "trial_type": "single-stim", "trial_index": 49, "time_elapsed": 2433864, "internal_node_id": "0.0-35.0-5.0"}}, {"uniqueid": "MTK0580:3I2PTA7R3U1UHNXFUP31ULQWRB4QKS", "current_trial": 50, "dateTime": 1511223209364, "trialdata": {"rt": -1, "stimulus": "<p id=\"stim\">4</p>", "key_press": -1, "trial_type": "single-stim", "trial_index": 50, "time_elapsed": 2434868, "internal_node_id": "0.0-35.0-6.0"}}, {"uniqueid": "MTK0580:3I2PTA7R3U1UHNXFUP31ULQWRB4QKS", "current_trial": 51, "dateTime": 1511223210368, "trialdata": {"rt": -1, "stimulus": "<p id=\"stim\">3</p>", "key_press": -1, "trial_type": "single-stim", "trial_index": 51, "time_elapsed": 2435871, "internal_node_id": "0.0-35.0-7.0"}}, {"uniqueid": "MTK0580:3I2PTA7R3U1UHNXFUP31ULQWRB4QKS", "current_trial": 52, "dateTime": 1511223211373, "trialdata": {"rt": -1, "stimulus": "<p id=\"stim\">2</p>", "key_press": -1, "trial_type": "single-stim", "trial_index": 52, "time_elapsed": 2436875, "internal_node_id": "0.0-35.0-8.0"}}, {"uniqueid": "MTK0580:3I2PTA7R3U1UHNXFUP31ULQWRB4QKS", "current_trial": 53, "dateTime": 1511223212376, "trialdata": {"rt": -1, "stimulus": "<p id=\"stim\">1</p>", "key_press": -1, "trial_type": "single-stim", "trial_index": 53, "time_elapsed": 2437880, "internal_node_id": "0.0-35.0-9.0"}}, {"uniqueid": "MTK0580:3I2PTA7R3U1UHNXFUP31ULQWRB4QKS", "current_trial": 54, "dateTime": 1511223213887, "trialdata": {"rt": -1, "stimulus": "<p id=\"stim\">+</p>", "key_press": -1, "type": "FIXATION", "trial_type": "single-stim", "trial_index": 54, "time_elapsed": 2439391, "internal_node_id": "0.0-36.0-0.0"}}, {"uniqueid": "MTK0580:3I2PTA7R3U1UHNXFUP31ULQWRB4QKS", "current_trial": 55, "dateTime": 1511223215118, "trialdata": {"rt": -1, "stimulus": "<p id=\"stim\">FLESH</p>", "key_press": -1, "type": "PRES_VIS", "word": "flesh", "wordID": 578, "conditions": [18, 1200, "v", 18000], "trial": 1, "serialpos": 0, "trial_type": "single-stim", "trial_index": 55, "time_elapsed": 2440621, "internal_node_id": "0.0-37.0"}}, {"uniqueid": "MTK0580:3I2PTA7R3U1UHNXFUP31ULQWRB4QKS", "current_trial": 56, "dateTime": 1511223217398, "trialdata": {"rt": -1, "stimulus": "<p id=\"stim\">PORTRAIT</p>", "key_press": -1, "type": "PRES_VIS", "word": "portrait", "wordID": 1110, "conditions": [18, 1200, "v", 18000], "trial": 1, "serialpos": 1, "trial_type": "single-stim", "trial_index": 56, "time_elapsed": 2442901, "internal_node_id": "0.0-38.0"}}, {"uniqueid": "MTK0580:3I2PTA7R3U1UHNXFUP31ULQWRB4QKS", "current_trial": 57, "dateTime": 1511223219710, "trialdata": {"rt": -1, "stimulus": "<p id=\"stim\">LILY</p>", "key_press": -1, "type": "PRES_VIS", "word": "lily", "wordID": 820, "conditions": [18, 1200, "v", 18000], "trial": 1, "serialpos": 2, "trial_type": "single-stim", "trial_index": 57, "time_elapsed": 2445213, "internal_node_id": "0.0-39.0"}}, {"uniqueid": "MTK0580:3I2PTA7R3U1UHNXFUP31ULQWRB4QKS", "current_trial": 58, "dateTime": 1511223222054, "trialdata": {"rt": -1, "stimulus": "<p id=\"stim\">WASHER</p>", "key_press": -1, "type": "PRES_VIS", "word": "washer", "wordID": 1591, "conditions": [18, 1200, "v", 18000], "trial": 1, "serialpos": 3, "trial_type": "single-stim", "trial_index": 58, "time_elapsed": 2447557, "internal_node_id": "0.0-40.0"}}, {"uniqueid": "MTK0580:3I2PTA7R3U1UHNXFUP31ULQWRB4QKS", "current_trial": 59, "dateTime": 1511223224309, "trialdata": {"rt": -1, "stimulus": "<p id=\"stim\">FILM</p>", "key_press": -1, "type": "PRES_VIS", "word": "film", "wordID": 564, "conditions": [18, 1200, "v", 18000], "trial": 1, "serialpos": 4, "trial_type": "single-stim", "trial_index": 59, "time_elapsed": 2449812, "internal_node_id": "0.0-41.0"}}, {"uniqueid": "MTK0580:3I2PTA7R3U1UHNXFUP31ULQWRB4QKS", "current_trial": 60, "dateTime": 1511223226361, "trialdata": {"rt": -1, "stimulus": "<p id=\"stim\">OUTLAW</p>", "key_press": -1, "type": "PRES_VIS", "word": "outlaw", "wordID": 988, "conditions": [18, 1200, "v", 18000], "trial": 1, "serialpos": 5, "trial_type": "single-stim", "trial_index": 60, "time_elapsed": 2451864, "internal_node_id": "0.0-42.0"}}, {"uniqueid": "MTK0580:3I2PTA7R3U1UHNXFUP31ULQWRB4QKS", "current_trial": 61, "dateTime": 1511223228479, "trialdata": {"rt": -1, "stimulus": "<p id=\"stim\">GROUND</p>", "key_press": -1, "type": "PRES_VIS", "word": "ground", "wordID": 665, "conditions": [18, 1200, "v", 18000], "trial": 1, "serialpos": 6, "trial_type": "single-stim", "trial_index": 61, "time_elapsed": 2453982, "internal_node_id": "0.0-43.0"}}, {"uniqueid": "MTK0580:3I2PTA7R3U1UHNXFUP31ULQWRB4QKS", "current_trial": 62, "dateTime": 1511223230647, "trialdata": {"rt": -1, "stimulus": "<p id=\"stim\">DRINK</p>", "key_press": -1, "type": "PRES_VIS", "word": "drink", "wordID": 497, "conditions": [18, 1200, "v", 18000], "trial": 1, "serialpos": 7, "trial_type": "single-stim", "trial_index": 62, "time_elapsed": 2456151, "internal_node_id": "0.0-44.0"}}, {"uniqueid": "MTK0580:3I2PTA7R3U1UHNXFUP31ULQWRB4QKS", "current_trial": 63, "dateTime": 1511223232989, "trialdata": {"rt": -1, "stimulus": "<p id=\"stim\">HONEY</p>", "key_press": -1, "type": "PRES_VIS", "word": "honey", "wordID": 712, "conditions": [18, 1200, "v", 18000], "trial": 1, "serialpos": 8, "trial_type": "single-stim", "trial_index": 63, "time_elapsed": 2458493, "internal_node_id": "0.0-45.0"}}, {"uniqueid": "MTK0580:3I2PTA7R3U1UHNXFUP31ULQWRB4QKS", "current_trial": 64, "dateTime": 1511223235396, "trialdata": {"rt": -1, "stimulus": "<p id=\"stim\">KIDNEY</p>", "key_press": -1, "type": "PRES_VIS", "word": "kidney", "wordID": 775, "conditions": [18, 1200, "v", 18000], "trial": 1, "serialpos": 9, "trial_type": "single-stim", "trial_index": 64, "time_elapsed": 2460900, "internal_node_id": "0.0-46.0"}}, {"uniqueid": "MTK0580:3I2PTA7R3U1UHNXFUP31ULQWRB4QKS", "current_trial": 65, "dateTime": 1511223237506, "trialdata": {"rt": -1, "stimulus": "<p id=\"stim\">SWIMMER</p>", "key_press": -1, "type": "PRES_VIS", "word": "swimmer", "wordID": 1419, "conditions": [18, 1200, "v", 18000], "trial": 1, "serialpos": 10, "trial_type": "single-stim", "trial_index": 65, "time_elapsed": 2463009, "internal_node_id": "0.0-47.0"}}, {"uniqueid": "MTK0580:3I2PTA7R3U1UHNXFUP31ULQWRB4QKS", "current_trial": 66, "dateTime": 1511223239713, "trialdata": {"rt": -1, "stimulus": "<p id=\"stim\">CHAMPAGNE</p>", "key_press": -1, "type": "PRES_VIS", "word": "champagne", "wordID": 277, "conditions": [18, 1200, "v", 18000], "trial": 1, "serialpos": 11, "trial_type": "single-stim", "trial_index": 66, "time_elapsed": 2465216, "internal_node_id": "0.0-48.0"}}, {"uniqueid": "MTK0580:3I2PTA7R3U1UHNXFUP31ULQWRB4QKS", "current_trial": 67, "dateTime": 1511223241986, "trialdata": {"rt": -1, "stimulus": "<p id=\"stim\">SKETCH</p>", "key_press": -1, "type": "PRES_VIS", "word": "sketch", "wordID": 1314, "conditions": [18, 1200, "v", 18000], "trial": 1, "serialpos": 12, "trial_type": "single-stim", "trial_index": 67, "time_elapsed": 2467490, "internal_node_id": "0.0-49.0"}}, {"uniqueid": "MTK0580:3I2PTA7R3U1UHNXFUP31ULQWRB4QKS", "current_trial": 68, "dateTime": 1511223244005, "trialdata": {"rt": -1, "stimulus": "<p id=\"stim\">CRUTCH</p>", "key_press": -1, "type": "PRES_VIS", "word": "crutch", "wordID": 416, "conditions": [18, 1200, "v", 18000], "trial": 1, "serialpos": 13, "trial_type": "single-stim", "trial_index": 68, "time_elapsed": 2469508, "internal_node_id": "0.0-50.0"}}, {"uniqueid": "MTK0580:3I2PTA7R3U1UHNXFUP31ULQWRB4QKS", "current_trial": 69, "dateTime": 1511223246310, "trialdata": {"rt": -1, "stimulus": "<p id=\"stim\">BEAST</p>", "key_press": -1, "type": "PRES_VIS", "word": "beast", "wordID": 107, "conditions": [18, 1200, "v", 18000], "trial": 1, "serialpos": 14, "trial_type": "single-stim", "trial_index": 69, "time_elapsed": 2471813, "internal_node_id": "0.0-51.0"}}, {"uniqueid": "MTK0580:3I2PTA7R3U1UHNXFUP31ULQWRB4QKS", "current_trial": 70, "dateTime": 1511223248472, "trialdata": {"rt": -1, "stimulus": "<p id=\"stim\">MARKET</p>", "key_press": -1, "type": "PRES_VIS", "word": "market", "wordID": 870, "conditions": [18, 1200, "v", 18000], "trial": 1, "serialpos": 15, "trial_type": "single-stim", "trial_index": 70, "time_elapsed": 2473976, "internal_node_id": "0.0-52.0"}}, {"uniqueid": "MTK0580:3I2PTA7R3U1UHNXFUP31ULQWRB4QKS", "current_trial": 71, "dateTime": 1511223250620, "trialdata": {"rt": -1, "stimulus": "<p id=\"stim\">HOSTESS</p>", "key_press": -1, "type": "PRES_VIS", "word": "hostess", "wordID": 722, "conditions": [18, 1200, "v", 18000], "trial": 1, "serialpos": 16, "trial_type": "single-stim", "trial_index": 71, "time_elapsed": 2476124, "internal_node_id": "0.0-53.0"}}, {"uniqueid": "MTK0580:3I2PTA7R3U1UHNXFUP31ULQWRB4QKS", "current_trial": 72, "dateTime": 1511223252639, "trialdata": {"rt": -1, "stimulus": "<p id=\"stim\">GARBAGE</p>", "key_press": -1, "type": "PRES_VIS", "word": "garbage", "wordID": 621, "conditions": [18, 1200, "v", 18000], "trial": 1, "serialpos": 17, "trial_type": "single-stim", "trial_index": 72, "time_elapsed": 2478142, "internal_node_id": "0.0-54.0"}}, {"uniqueid": "MTK0580:3I2PTA7R3U1UHNXFUP31ULQWRB4QKS", "current_trial": 73, "dateTime": 1511223254965, "trialdata": {"rt": -1, "stimulus": "", "key_press": -1, "type": "PRE_RECALL_DELAY", "trial_type": "single-stim", "trial_index": 73, "time_elapsed": 2480468, "internal_node_id": "0.0-55.0-0.0"}}, {"uniqueid": "MTK0580:3I2PTA7R3U1UHNXFUP31ULQWRB4QKS", "current_trial": 74, "dateTime": 1511223255470, "trialdata": {"rt": -1000, "stimulus": "/static/audio/400Hz.wav", "key_press": -1, "type": "PRE_RECALL_ALERT", "trial_type": "single-audio", "trial_index": 74, "time_elapsed": 2480974, "internal_node_id": "0.0-56.0"}}, {"uniqueid": "MTK0580:3I2PTA7R3U1UHNXFUP31ULQWRB4QKS", "current_trial": 75, "dateTime": 1511223315486, "trialdata": {"rt": [5193, 12101, 17306, 20048, 23478, 39473, 41466, 45726, 48496, 51972, 55347], "recwords": ["honey", "honey", "flesh", "lily", "kidney", "washer", "beast", "film", "sketch", "ground", "market"], "type": "FREE_RECALL", "conditions": [18, 1200, "v", 18000], "trial": 1, "trial_type": "free-recall", "trial_index": 75, "time_elapsed": 2540982, "internal_node_id": "0.0-57.0-0.0"}}, {"uniqueid": "MTK0580:3I2PTA7R3U1UHNXFUP31ULQWRB4QKS", "current_trial": 76, "dateTime": 1511223385113, "trialdata": {"rt": 67580, "key_press": 32, "type": "INSTRUCTIONS", "trial_type": "text", "trial_index": 76, "time_elapsed": 2610600, "internal_node_id": "0.0-58.0"}}, {"uniqueid": "MTK0580:3I2PTA7R3U1UHNXFUP31ULQWRB4QKS", "current_trial": 77, "dateTime": 1511223398126, "trialdata": {"rt": [2639, 5303, 7176, 9039], "responses": ["13", "12", "19", "10"], "num1": [6, 4, 6, 7, 3], "num2": [1, 8, 4, 2, 4], "num3": [6, 1, 9, 1, 8], "type": "DISTRACTOR", "conditions": [12, 1600, "v", 12000], "trial": 2, "trial_type": "math-distractor", "trial_index": 77, "time_elapsed": 2623629, "internal_node_id": "0.0-59.0"}}, {"uniqueid": "MTK0580:3I2PTA7R3U1UHNXFUP31ULQWRB4QKS", "current_trial": 78, "dateTime": 1511223401133, "trialdata": {"rt": -1, "stimulus": "<p id=\"stim\">10</p>", "key_press": -1, "trial_type": "single-stim", "trial_index": 78, "time_elapsed": 2626636, "internal_node_id": "0.0-60.0-0.0"}}, {"uniqueid": "MTK0580:3I2PTA7R3U1UHNXFUP31ULQWRB4QKS", "current_trial": 79, "dateTime": 1511223402229, "trialdata": {"rt": -1, "stimulus": "<p id=\"stim\">9</p>", "key_press": -1, "trial_type": "single-stim", "trial_index": 79, "time_elapsed": 2627732, "internal_node_id": "0.0-60.0-1.0"}}, {"uniqueid": "MTK0580:3I2PTA7R3U1UHNXFUP31ULQWRB4QKS", "current_trial": 80, "dateTime": 1511223403233, "trialdata": {"rt": -1, "stimulus": "<p id=\"stim\">8</p>", "key_press": -1, "trial_type": "single-stim", "trial_index": 80, "time_elapsed": 2628736, "internal_node_id": "0.0-60.0-2.0"}}, {"uniqueid": "MTK0580:3I2PTA7R3U1UHNXFUP31ULQWRB4QKS", "current_trial": 81, "dateTime": 1511223404237, "trialdata": {"rt": -1, "stimulus": "<p id=\"stim\">7</p>", "key_press": -1, "trial_type": "single-stim", "trial_index": 81, "time_elapsed": 2629740, "internal_node_id": "0.0-60.0-3.0"}}, {"uniqueid": "MTK0580:3I2PTA7R3U1UHNXFUP31ULQWRB4QKS", "current_trial": 82, "dateTime": 1511223405239, "trialdata": {"rt": -1, "stimulus": "<p id=\"stim\">6</p>", "key_press": -1, "trial_type": "single-stim", "trial_index": 82, "time_elapsed": 2630743, "internal_node_id": "0.0-60.0-4.0"}}, {"uniqueid": "MTK0580:3I2PTA7R3U1UHNXFUP31ULQWRB4QKS", "current_trial": 83, "dateTime": 1511223406241, "trialdata": {"rt": -1, "stimulus": "<p id=\"stim\">5</p>", "key_press": -1, "trial_type": "single-stim", "trial_index": 83, "time_elapsed": 2631744, "internal_node_id": "0.0-60.0-5.0"}}, {"uniqueid": "MTK0580:3I2PTA7R3U1UHNXFUP31ULQWRB4QKS", "current_trial": 84, "dateTime": 1511223407243, "trialdata": {"rt": -1, "stimulus": "<p id=\"stim\">4</p>", "key_press": -1, "trial_type": "single-stim", "trial_index": 84, "time_elapsed": 2632746, "internal_node_id": "0.0-60.0-6.0"}}, {"uniqueid": "MTK0580:3I2PTA7R3U1UHNXFUP31ULQWRB4QKS", "current_trial": 85, "dateTime": 1511223408272, "trialdata": {"rt": -1, "stimulus": "<p id=\"stim\">3</p>", "key_press": -1, "trial_type": "single-stim", "trial_index": 85, "time_elapsed": 2633775, "internal_node_id": "0.0-60.0-7.0"}}, {"uniqueid": "MTK0580:3I2PTA7R3U1UHNXFUP31ULQWRB4QKS", "current_trial": 86, "dateTime": 1511223409334, "trialdata": {"rt": -1, "stimulus": "<p id=\"stim\">2</p>", "key_press": -1, "trial_type": "single-stim", "trial_index": 86, "time_elapsed": 2634837, "internal_node_id": "0.0-60.0-8.0"}}, {"uniqueid": "MTK0580:3I2PTA7R3U1UHNXFUP31ULQWRB4QKS", "current_trial": 87, "dateTime": 1511223410347, "trialdata": {"rt": -1, "stimulus": "<p id=\"stim\">1</p>", "key_press": -1, "trial_type": "single-stim", "trial_index": 87, "time_elapsed": 2635849, "internal_node_id": "0.0-60.0-9.0"}}, {"uniqueid": "MTK0580:3I2PTA7R3U1UHNXFUP31ULQWRB4QKS", "current_trial": 88, "dateTime": 1511223411862, "trialdata": {"rt": -1, "stimulus": "<p id=\"stim\">+</p>", "key_press": -1, "type": "FIXATION", "trial_type": "single-stim", "trial_index": 88, "time_elapsed": 2637366, "internal_node_id": "0.0-61.0-0.0"}}, {"uniqueid": "MTK0580:3I2PTA7R3U1UHNXFUP31ULQWRB4QKS", "current_trial": 89, "dateTime": 1511223413467, "trialdata": {"rt": -1, "stimulus": "<p id=\"stim\">WORKER</p>", "key_press": -1, "type": "PRES_VIS", "word": "worker", "wordID": 1620, "conditions": [12, 1600, "v", 12000], "trial": 2, "serialpos": 0, "trial_type": "single-stim", "trial_index": 89, "time_elapsed": 2638970, "internal_node_id": "0.0-62.0"}}, {"uniqueid": "MTK0580:3I2PTA7R3U1UHNXFUP31ULQWRB4QKS", "current_trial": 90, "dateTime": 1511223416120, "trialdata": {"rt": -1, "stimulus": "<p id=\"stim\">CAPTIVE</p>", "key_press": -1, "type": "PRES_VIS", "word": "captive", "wordID": 239, "conditions": [12, 1600, "v", 12000], "trial": 2, "serialpos": 1, "trial_type": "single-stim", "trial_index": 90, "time_elapsed": 2641624, "internal_node_id": "0.0-63.0"}}, {"uniqueid": "MTK0580:3I2PTA7R3U1UHNXFUP31ULQWRB4QKS", "current_trial": 91, "dateTime": 1511223418864, "trialdata": {"rt": -1, "stimulus": "<p id=\"stim\">PUPPY</p>", "key_press": -1, "type": "PRES_VIS", "word": "puppy", "wordID": 1143, "conditions": [12, 1600, "v", 12000], "trial": 2, "serialpos": 2, "trial_type": "single-stim", "trial_index": 91, "time_elapsed": 2644368, "internal_node_id": "0.0-64.0"}}, {"uniqueid": "MTK0580:3I2PTA7R3U1UHNXFUP31ULQWRB4QKS", "current_trial": 92, "dateTime": 1511223421361, "trialdata": {"rt": -1, "stimulus": "<p id=\"stim\">RAFT</p>", "key_press": -1, "type": "PRES_VIS", "word": "raft", "wordID": 1158, "conditions": [12, 1600, "v", 12000], "trial": 2, "serialpos": 3, "trial_type": "single-stim", "trial_index": 92, "time_elapsed": 2646864, "internal_node_id": "0.0-65.0"}}, {"uniqueid": "MTK0580:3I2PTA7R3U1UHNXFUP31ULQWRB4QKS", "current_trial": 93, "dateTime": 1511223423773, "trialdata": {"rt": -1, "stimulus": "<p id=\"stim\">FIDDLE</p>", "key_press": -1, "type": "PRES_VIS", "word": "fiddle", "wordID": 560, "conditions": [12, 1600, "v", 12000], "trial": 2, "serialpos": 4, "trial_type": "single-stim", "trial_index": 93, "time_elapsed": 2649276, "internal_node_id": "0.0-66.0"}}, {"uniqueid": "MTK0580:3I2PTA7R3U1UHNXFUP31ULQWRB4QKS", "current_trial": 94, "dateTime": 1511223426383, "trialdata": {"rt": -1, "stimulus": "<p id=\"stim\">DAUGHTER</p>", "key_press": -1, "type": "PRES_VIS", "word": "daughter", "wordID": 441, "conditions": [12, 1600, "v", 12000], "trial": 2, "serialpos": 5, "trial_type": "single-stim", "trial_index": 94, "time_elapsed": 2651886, "internal_node_id": "0.0-67.0"}}, {"uniqueid": "MTK0580:3I2PTA7R3U1UHNXFUP31ULQWRB4QKS", "current_trial": 95, "dateTime": 1511223429131, "trialdata": {"rt": -1, "stimulus": "<p id=\"stim\">BABY</p>", "key_press": -1, "type": "PRES_VIS", "word": "baby", "wordID": 63, "conditions": [12, 1600, "v", 12000], "trial": 2, "serialpos": 6, "trial_type": "single-stim", "trial_index": 95, "time_elapsed": 2654634, "internal_node_id": "0.0-68.0"}}, {"uniqueid": "MTK0580:3I2PTA7R3U1UHNXFUP31ULQWRB4QKS", "current_trial": 96, "dateTime": 1511223431751, "trialdata": {"rt": -1, "stimulus": "<p id=\"stim\">CITRUS</p>", "key_press": -1, "type": "PRES_VIS", "word": "citrus", "wordID": 312, "conditions": [12, 1600, "v", 12000], "trial": 2, "serialpos": 7, "trial_type": "single-stim", "trial_index": 96, "time_elapsed": 2657254, "internal_node_id": "0.0-69.0"}}, {"uniqueid": "MTK0580:3I2PTA7R3U1UHNXFUP31ULQWRB4QKS", "current_trial": 97, "dateTime": 1511223434382, "trialdata": {"rt": -1, "stimulus": "<p id=\"stim\">OMELET</p>", "key_press": -1, "type": "PRES_VIS", "word": "omelet", "wordID": 975, "conditions": [12, 1600, "v", 12000], "trial": 2, "serialpos": 8, "trial_type": "single-stim", "trial_index": 97, "time_elapsed": 2659885, "internal_node_id": "0.0-70.0"}}, {"uniqueid": "MTK0580:3I2PTA7R3U1UHNXFUP31ULQWRB4QKS", "current_trial": 98, "dateTime": 1511223436870, "trialdata": {"rt": -1, "stimulus": "<p id=\"stim\">TURTLE</p>", "key_press": -1, "type": "PRES_VIS", "word": "turtle", "wordID": 1521, "conditions": [12, 1600, "v", 12000], "trial": 2, "serialpos": 9, "trial_type": "single-stim", "trial_index": 98, "time_elapsed": 2662373, "internal_node_id": "0.0-71.0"}}, {"uniqueid": "MTK0580:3I2PTA7R3U1UHNXFUP31ULQWRB4QKS", "current_trial": 99, "dateTime": 1511223439551, "trialdata": {"rt": -1, "stimulus": "<p id=\"stim\">CLAMP</p>", "key_press": -1, "type": "PRES_VIS", "word": "clamp", "wordID": 315, "conditions": [12, 1600, "v", 12000], "trial": 2, "serialpos": 10, "trial_type": "single-stim", "trial_index": 99, "time_elapsed": 2665055, "internal_node_id": "0.0-72.0"}}, {"uniqueid": "MTK0580:3I2PTA7R3U1UHNXFUP31ULQWRB4QKS", "current_trial": 100, "dateTime": 1511223442151, "trialdata": {"rt": -1, "stimulus": "<p id=\"stim\">HARP</p>", "key_press": -1, "type": "PRES_VIS", "word": "harp", "wordID": 688, "conditions": [12, 1600, "v", 12000], "trial": 2, "serialpos": 11, "trial_type": "single-stim", "trial_index": 100, "time_elapsed": 2667654, "internal_node_id": "0.0-73.0"}}, {"uniqueid": "MTK0580:3I2PTA7R3U1UHNXFUP31ULQWRB4QKS", "current_trial": 101, "dateTime": 1511223444283, "trialdata": {"rt": -1, "stimulus": "", "key_press": -1, "type": "PRE_RECALL_DELAY", "trial_type": "single-stim", "trial_index": 101, "time_elapsed": 2669787, "internal_node_id": "0.0-74.0-0.0"}}, {"uniqueid": "MTK0580:3I2PTA7R3U1UHNXFUP31ULQWRB4QKS", "current_trial": 102, "dateTime": 1511223444857, "trialdata": {"rt": -1000, "stimulus": "/static/audio/400Hz.wav", "key_press": -1, "type": "PRE_RECALL_ALERT", "trial_type": "single-audio", "trial_index": 102, "time_elapsed": 2670361, "internal_node_id": "0.0-75.0"}}, {"uniqueid": "MTK0580:3I2PTA7R3U1UHNXFUP31ULQWRB4QKS", "current_trial": 103, "dateTime": 1511223504877, "trialdata": {"rt": [6087, 9705, 11283, 14155, 16109, 19415, 23969, 29984, 34185, 37339, 41735, 45483], "recwords": ["stars", "daughter", "baby", "worker", "raft", "captive", "puppy", "omelet", "fiddle", "citrus", "turtle", "clamp"], "type": "FREE_RECALL", "conditions": [12, 1600, "v", 12000], "trial": 2, "trial_type": "free-recall", "trial_index": 103, "time_elapsed": 2730372, "internal_node_id": "0.0-76.0-0.0"}}, {"uniqueid": "MTK0580:3I2PTA7R3U1UHNXFUP31ULQWRB4QKS", "current_trial": 104, "dateTime": 1511223525184, "trialdata": {"rt": 18265, "key_press": 32, "type": "INSTRUCTIONS", "trial_type": "text", "trial_index": 104, "time_elapsed": 2750687, "internal_node_id": "0.0-77.0"}}, {"uniqueid": "MTK0580:3I2PTA7R3U1UHNXFUP31ULQWRB4QKS", "current_trial": 105, "dateTime": 1511223539197, "trialdata": {"rt": [2410, 6297, 11218], "responses": ["11", "15", "21"], "num1": [2, 6, 9, 1], "num2": [3, 3, 5, 5], "num3": [6, 6, 8, 4], "type": "DISTRACTOR", "conditions": [24, 800, "v", 12000], "trial": 3, "trial_type": "math-distractor", "trial_index": 105, "time_elapsed": 2764701, "internal_node_id": "0.0-78.0"}}, {"uniqueid": "MTK0580:3I2PTA7R3U1UHNXFUP31ULQWRB4QKS", "current_trial": 106, "dateTime": 1511223542202, "trialdata": {"rt": -1, "stimulus": "<p id=\"stim\">10</p>", "key_press": -1, "trial_type": "single-stim", "trial_index": 106, "time_elapsed": 2767705, "internal_node_id": "0.0-79.0-0.0"}}, {"uniqueid": "MTK0580:3I2PTA7R3U1UHNXFUP31ULQWRB4QKS", "current_trial": 107, "dateTime": 1511223543205, "trialdata": {"rt": -1, "stimulus": "<p id=\"stim\">9</p>", "key_press": -1, "trial_type": "single-stim", "trial_index": 107, "time_elapsed": 2768708, "internal_node_id": "0.0-79.0-1.0"}}, {"uniqueid": "MTK0580:3I2PTA7R3U1UHNXFUP31ULQWRB4QKS", "current_trial": 108, "dateTime": 1511223544209, "trialdata": {"rt": -1, "stimulus": "<p id=\"stim\">8</p>", "key_press": -1, "trial_type": "single-stim", "trial_index": 108, "time_elapsed": 2769712, "internal_node_id": "0.0-79.0-2.0"}}, {"uniqueid": "MTK0580:3I2PTA7R3U1UHNXFUP31ULQWRB4QKS", "current_trial": 109, "dateTime": 1511223545211, "trialdata": {"rt": -1, "stimulus": "<p id=\"stim\">7</p>", "key_press": -1, "trial_type": "single-stim", "trial_index": 109, "time_elapsed": 2770715, "internal_node_id": "0.0-79.0-3.0"}}, {"uniqueid": "MTK0580:3I2PTA7R3U1UHNXFUP31ULQWRB4QKS", "current_trial": 110, "dateTime": 1511223546214, "trialdata": {"rt": -1, "stimulus": "<p id=\"stim\">6</p>", "key_press": -1, "trial_type": "single-stim", "trial_index": 110, "time_elapsed": 2771718, "internal_node_id": "0.0-79.0-4.0"}}, {"uniqueid": "MTK0580:3I2PTA7R3U1UHNXFUP31ULQWRB4QKS", "current_trial": 111, "dateTime": 1511223547217, "trialdata": {"rt": -1, "stimulus": "<p id=\"stim\">5</p>", "key_press": -1, "trial_type": "single-stim", "trial_index": 111, "time_elapsed": 2772721, "internal_node_id": "0.0-79.0-5.0"}}, {"uniqueid": "MTK0580:3I2PTA7R3U1UHNXFUP31ULQWRB4QKS", "current_trial": 112, "dateTime": 1511223548220, "trialdata": {"rt": -1, "stimulus": "<p id=\"stim\">4</p>", "key_press": -1, "trial_type": "single-stim", "trial_index": 112, "time_elapsed": 2773723, "internal_node_id": "0.0-79.0-6.0"}}, {"uniqueid": "MTK0580:3I2PTA7R3U1UHNXFUP31ULQWRB4QKS", "current_trial": 113, "dateTime": 1511223549230, "trialdata": {"rt": -1, "stimulus": "<p id=\"stim\">3</p>", "key_press": -1, "trial_type": "single-stim", "trial_index": 113, "time_elapsed": 2774733, "internal_node_id": "0.0-79.0-7.0"}}, {"uniqueid": "MTK0580:3I2PTA7R3U1UHNXFUP31ULQWRB4QKS", "current_trial": 114, "dateTime": 1511223550235, "trialdata": {"rt": -1, "stimulus": "<p id=\"stim\">2</p>", "key_press": -1, "trial_type": "single-stim", "trial_index": 114, "time_elapsed": 2775738, "internal_node_id": "0.0-79.0-8.0"}}, {"uniqueid": "MTK0580:3I2PTA7R3U1UHNXFUP31ULQWRB4QKS", "current_trial": 115, "dateTime": 1511223551240, "trialdata": {"rt": -1, "stimulus": "<p id=\"stim\">1</p>", "key_press": -1, "trial_type": "single-stim", "trial_index": 115, "time_elapsed": 2776743, "internal_node_id": "0.0-79.0-9.0"}}, {"uniqueid": "MTK0580:3I2PTA7R3U1UHNXFUP31ULQWRB4QKS", "current_trial": 116, "dateTime": 1511223552832, "trialdata": {"rt": -1, "stimulus": "<p id=\"stim\">+</p>", "key_press": -1, "type": "FIXATION", "trial_type": "single-stim", "trial_index": 116, "time_elapsed": 2778335, "internal_node_id": "0.0-80.0-0.0"}}, {"uniqueid": "MTK0580:3I2PTA7R3U1UHNXFUP31ULQWRB4QKS", "current_trial": 117, "dateTime": 1511223553635, "trialdata": {"rt": -1, "stimulus": "<p id=\"stim\">ONION</p>", "key_press": -1, "type": "PRES_VIS", "word": "onion", "wordID": 976, "conditions": [24, 800, "v", 12000], "trial": 3, "serialpos": 0, "trial_type": "single-stim", "trial_index": 117, "time_elapsed": 2779139, "internal_node_id": "0.0-81.0"}}, {"uniqueid": "MTK0580:3I2PTA7R3U1UHNXFUP31ULQWRB4QKS", "current_trial": 118, "dateTime": 1511223555255, "trialdata": {"rt": -1, "stimulus": "<p id=\"stim\">LETTUCE</p>", "key_press": -1, "type": "PRES_VIS", "word": "lettuce", "wordID": 813, "conditions": [24, 800, "v", 12000], "trial": 3, "serialpos": 1, "trial_type": "single-stim", "trial_index": 118, "time_elapsed": 2780758, "internal_node_id": "0.0-82.0"}}, {"uniqueid": "MTK0580:3I2PTA7R3U1UHNXFUP31ULQWRB4QKS", "current_trial": 119, "dateTime": 1511223556877, "trialdata": {"rt": -1, "stimulus": "<p id=\"stim\">RUG</p>", "key_press": -1, "type": "PRES_VIS", "word": "rug", "wordID": 1214, "conditions": [24, 800, "v", 12000], "trial": 3, "serialpos": 2, "trial_type": "single-stim", "trial_index": 119, "time_elapsed": 2782380, "internal_node_id": "0.0-83.0"}}, {"uniqueid": "MTK0580:3I2PTA7R3U1UHNXFUP31ULQWRB4QKS", "current_trial": 120, "dateTime": 1511223558520, "trialdata": {"rt": -1, "stimulus": "<p id=\"stim\">CATTLE</p>", "key_press": -1, "type": "PRES_VIS", "word": "cattle", "wordID": 260, "conditions": [24, 800, "v", 12000], "trial": 3, "serialpos": 3, "trial_type": "single-stim", "trial_index": 120, "time_elapsed": 2784024, "internal_node_id": "0.0-84.0"}}, {"uniqueid": "MTK0580:3I2PTA7R3U1UHNXFUP31ULQWRB4QKS", "current_trial": 121, "dateTime": 1511223560206, "trialdata": {"rt": -1, "stimulus": "<p id=\"stim\">INFANT</p>", "key_press": -1, "type": "PRES_VIS", "word": "infant", "wordID": 736, "conditions": [24, 800, "v", 12000], "trial": 3, "serialpos": 4, "trial_type": "single-stim", "trial_index": 121, "time_elapsed": 2785710, "internal_node_id": "0.0-85.0"}}, {"uniqueid": "MTK0580:3I2PTA7R3U1UHNXFUP31ULQWRB4QKS", "current_trial": 122, "dateTime": 1511223562177, "trialdata": {"rt": -1, "stimulus": "<p id=\"stim\">MESSAGE</p>", "key_press": -1, "type": "PRES_VIS", "word": "message", "wordID": 887, "conditions": [24, 800, "v", 12000], "trial": 3, "serialpos": 5, "trial_type": "single-stim", "trial_index": 122, "time_elapsed": 2787679, "internal_node_id": "0.0-86.0"}}, {"uniqueid": "MTK0580:3I2PTA7R3U1UHNXFUP31ULQWRB4QKS", "current_trial": 123, "dateTime": 1511223563950, "trialdata": {"rt": -1, "stimulus": "<p id=\"stim\">CRICKET</p>", "key_press": -1, "type": "PRES_VIS", "word": "cricket", "wordID": 407, "conditions": [24, 800, "v", 12000], "trial": 3, "serialpos": 6, "trial_type": "single-stim", "trial_index": 123, "time_elapsed": 2789453, "internal_node_id": "0.0-87.0"}}, {"uniqueid": "MTK0580:3I2PTA7R3U1UHNXFUP31ULQWRB4QKS", "current_trial": 124, "dateTime": 1511223565745, "trialdata": {"rt": -1, "stimulus": "<p id=\"stim\">BEEF</p>", "key_press": -1, "type": "PRES_VIS", "word": "beef", "wordID": 112, "conditions": [24, 800, "v", 12000], "trial": 3, "serialpos": 7, "trial_type": "single-stim", "trial_index": 124, "time_elapsed": 2791247, "internal_node_id": "0.0-88.0"}}, {"uniqueid": "MTK0580:3I2PTA7R3U1UHNXFUP31ULQWRB4QKS", "current_trial": 125, "dateTime": 1511223567732, "trialdata": {"rt": -1, "stimulus": "<p id=\"stim\">ACTRESS</p>", "key_press": -1, "type": "PRES_VIS", "word": "actress", "wordID": 5, "conditions": [24, 800, "v", 12000], "trial": 3, "serialpos": 8, "trial_type": "single-stim", "trial_index": 125, "time_elapsed": 2793235, "internal_node_id": "0.0-89.0"}}, {"uniqueid": "MTK0580:3I2PTA7R3U1UHNXFUP31ULQWRB4QKS", "current_trial": 126, "dateTime": 1511223569448, "trialdata": {"rt": -1, "stimulus": "<p id=\"stim\">AWARD</p>", "key_press": -1, "type": "PRES_VIS", "word": "award", "wordID": 62, "conditions": [24, 800, "v", 12000], "trial": 3, "serialpos": 9, "trial_type": "single-stim", "trial_index": 126, "time_elapsed": 2794951, "internal_node_id": "0.0-90.0"}}, {"uniqueid": "MTK0580:3I2PTA7R3U1UHNXFUP31ULQWRB4QKS", "current_trial": 127, "dateTime": 1511223571096, "trialdata": {"rt": -1, "stimulus": "<p id=\"stim\">CLOUD</p>", "key_press": -1, "type": "PRES_VIS", "word": "cloud", "wordID": 327, "conditions": [24, 800, "v", 12000], "trial": 3, "serialpos": 10, "trial_type": "single-stim", "trial_index": 127, "time_elapsed": 2796600, "internal_node_id": "0.0-91.0"}}, {"uniqueid": "MTK0580:3I2PTA7R3U1UHNXFUP31ULQWRB4QKS", "current_trial": 128, "dateTime": 1511223572936, "trialdata": {"rt": -1, "stimulus": "<p id=\"stim\">EYELASH</p>", "key_press": -1, "type": "PRES_VIS", "word": "eyelash", "wordID": 545, "conditions": [24, 800, "v", 12000], "trial": 3, "serialpos": 11, "trial_type": "single-stim", "trial_index": 128, "time_elapsed": 2798439, "internal_node_id": "0.0-92.0"}}, {"uniqueid": "MTK0580:3I2PTA7R3U1UHNXFUP31ULQWRB4QKS", "current_trial": 129, "dateTime": 1511223574800, "trialdata": {"rt": -1, "stimulus": "<p id=\"stim\">HAMPER</p>", "key_press": -1, "type": "PRES_VIS", "word": "hamper", "wordID": 681, "conditions": [24, 800, "v", 12000], "trial": 3, "serialpos": 12, "trial_type": "single-stim", "trial_index": 129, "time_elapsed": 2800303, "internal_node_id": "0.0-93.0"}}, {"uniqueid": "MTK0580:3I2PTA7R3U1UHNXFUP31ULQWRB4QKS", "current_trial": 130, "dateTime": 1511223576583, "trialdata": {"rt": -1, "stimulus": "<p id=\"stim\">ORCHID</p>", "key_press": -1, "type": "PRES_VIS", "word": "orchid", "wordID": 981, "conditions": [24, 800, "v", 12000], "trial": 3, "serialpos": 13, "trial_type": "single-stim", "trial_index": 130, "time_elapsed": 2802086, "internal_node_id": "0.0-94.0"}}, {"uniqueid": "MTK0580:3I2PTA7R3U1UHNXFUP31ULQWRB4QKS", "current_trial": 131, "dateTime": 1511223578518, "trialdata": {"rt": -1, "stimulus": "<p id=\"stim\">SALMON</p>", "key_press": -1, "type": "PRES_VIS", "word": "salmon", "wordID": 1226, "conditions": [24, 800, "v", 12000], "trial": 3, "serialpos": 14, "trial_type": "single-stim", "trial_index": 131, "time_elapsed": 2804022, "internal_node_id": "0.0-95.0"}}, {"uniqueid": "MTK0580:3I2PTA7R3U1UHNXFUP31ULQWRB4QKS", "current_trial": 132, "dateTime": 1511223580302, "trialdata": {"rt": -1, "stimulus": "<p id=\"stim\">MISSILE</p>", "key_press": -1, "type": "PRES_VIS", "word": "missile", "wordID": 899, "conditions": [24, 800, "v", 12000], "trial": 3, "serialpos": 15, "trial_type": "single-stim", "trial_index": 132, "time_elapsed": 2805806, "internal_node_id": "0.0-96.0"}}, {"uniqueid": "MTK0580:3I2PTA7R3U1UHNXFUP31ULQWRB4QKS", "current_trial": 133, "dateTime": 1511223582041, "trialdata": {"rt": -1, "stimulus": "<p id=\"stim\">MAILBOX</p>", "key_press": -1, "type": "PRES_VIS", "word": "mailbox", "wordID": 856, "conditions": [24, 800, "v", 12000], "trial": 3, "serialpos": 16, "trial_type": "single-stim", "trial_index": 133, "time_elapsed": 2807544, "internal_node_id": "0.0-97.0"}}, {"uniqueid": "MTK0580:3I2PTA7R3U1UHNXFUP31ULQWRB4QKS", "current_trial": 134, "dateTime": 1511223583999, "trialdata": {"rt": -1, "stimulus": "<p id=\"stim\">MAILMAN</p>", "key_press": -1, "type": "PRES_VIS", "word": "mailman", "wordID": 857, "conditions": [24, 800, "v", 12000], "trial": 3, "serialpos": 17, "trial_type": "single-stim", "trial_index": 134, "time_elapsed": 2809502, "internal_node_id": "0.0-98.0"}}, {"uniqueid": "MTK0580:3I2PTA7R3U1UHNXFUP31ULQWRB4QKS", "current_trial": 135, "dateTime": 1511223585951, "trialdata": {"rt": -1, "stimulus": "<p id=\"stim\">COFFEE</p>", "key_press": -1, "type": "PRES_VIS", "word": "coffee", "wordID": 340, "conditions": [24, 800, "v", 12000], "trial": 3, "serialpos": 18, "trial_type": "single-stim", "trial_index": 135, "time_elapsed": 2811454, "internal_node_id": "0.0-99.0"}}, {"uniqueid": "MTK0580:3I2PTA7R3U1UHNXFUP31ULQWRB4QKS", "current_trial": 136, "dateTime": 1511223587923, "trialdata": {"rt": -1, "stimulus": "<p id=\"stim\">WAITER</p>", "key_press": -1, "type": "PRES_VIS", "word": "waiter", "wordID": 1579, "conditions": [24, 800, "v", 12000], "trial": 3, "serialpos": 19, "trial_type": "single-stim", "trial_index": 136, "time_elapsed": 2813426, "internal_node_id": "0.0-100.0"}}, {"uniqueid": "MTK0580:3I2PTA7R3U1UHNXFUP31ULQWRB4QKS", "current_trial": 137, "dateTime": 1511223589751, "trialdata": {"rt": -1, "stimulus": "<p id=\"stim\">WARDROBE</p>", "key_press": -1, "type": "PRES_VIS", "word": "wardrobe", "wordID": 1586, "conditions": [24, 800, "v", 12000], "trial": 3, "serialpos": 20, "trial_type": "single-stim", "trial_index": 137, "time_elapsed": 2815254, "internal_node_id": "0.0-101.0"}}, {"uniqueid": "MTK0580:3I2PTA7R3U1UHNXFUP31ULQWRB4QKS", "current_trial": 138, "dateTime": 1511223591489, "trialdata": {"rt": -1, "stimulus": "<p id=\"stim\">PATROL</p>", "key_press": -1, "type": "PRES_VIS", "word": "patrol", "wordID": 1026, "conditions": [24, 800, "v", 12000], "trial": 3, "serialpos": 21, "trial_type": "single-stim", "trial_index": 138, "time_elapsed": 2816992, "internal_node_id": "0.0-102.0"}}, {"uniqueid": "MTK0580:3I2PTA7R3U1UHNXFUP31ULQWRB4QKS", "current_trial": 139, "dateTime": 1511223593490, "trialdata": {"rt": -1, "stimulus": "<p id=\"stim\">SODA</p>", "key_press": -1, "type": "PRES_VIS", "word": "soda", "wordID": 1340, "conditions": [24, 800, "v", 12000], "trial": 3, "serialpos": 22, "trial_type": "single-stim", "trial_index": 139, "time_elapsed": 2818993, "internal_node_id": "0.0-103.0"}}, {"uniqueid": "MTK0580:3I2PTA7R3U1UHNXFUP31ULQWRB4QKS", "current_trial": 140, "dateTime": 1511223595191, "trialdata": {"rt": -1, "stimulus": "<p id=\"stim\">SHELF</p>", "key_press": -1, "type": "PRES_VIS", "word": "shelf", "wordID": 1279, "conditions": [24, 800, "v", 12000], "trial": 3, "serialpos": 23, "trial_type": "single-stim", "trial_index": 140, "time_elapsed": 2820695, "internal_node_id": "0.0-104.0"}}, {"uniqueid": "MTK0580:3I2PTA7R3U1UHNXFUP31ULQWRB4QKS", "current_trial": 141, "dateTime": 1511223597439, "trialdata": {"rt": -1, "stimulus": "", "key_press": -1, "type": "PRE_RECALL_DELAY", "trial_type": "single-stim", "trial_index": 141, "time_elapsed": 2822942, "internal_node_id": "0.0-105.0-0.0"}}, {"uniqueid": "MTK0580:3I2PTA7R3U1UHNXFUP31ULQWRB4QKS", "current_trial": 142, "dateTime": 1511223597941, "trialdata": {"rt": -1000, "stimulus": "/static/audio/400Hz.wav", "key_press": -1, "type": "PRE_RECALL_ALERT", "trial_type": "single-audio", "trial_index": 142, "time_elapsed": 2823444, "internal_node_id": "0.0-106.0"}}, {"uniqueid": "MTK0580:3I2PTA7R3U1UHNXFUP31ULQWRB4QKS", "current_trial": 143, "dateTime": 1511223657961, "trialdata": {"rt": [5063, 6724, 10643, 12582, 15990, 20464, 24361, 29121, 32141, 35260, 39055, 43159, 47144, 51705, 57387], "recwords": ["shelf", "soda", "onion", "mailman", "mailbox", "lettuce", "cattle", "message", "beef", "actress", "hamper", "coffee", "waiter", "soda", "salmon"], "type": "FREE_RECALL", "conditions": [24, 800, "v", 12000], "trial": 3, "trial_type": "free-recall", "trial_index": 143, "time_elapsed": 2883454, "internal_node_id": "0.0-107.0-0.0"}}, {"uniqueid": "MTK0580:3I2PTA7R3U1UHNXFUP31ULQWRB4QKS", "current_trial": 144, "dateTime": 1511223663262, "trialdata": {"rt": 3287, "key_press": 32, "type": "INSTRUCTIONS", "trial_type": "text", "trial_index": 144, "time_elapsed": 2888766, "internal_node_id": "0.0-108.0"}}, {"uniqueid": "MTK0580:3I2PTA7R3U1UHNXFUP31ULQWRB4QKS", "current_trial": 145, "dateTime": 1511223689315, "trialdata": {"rt": [1792, 4722, 7564, 9847, 11864, 13839, 17402, 20690], "responses": ["10", "16", "15", "21", "16", "8", "17", "18"], "num1": [4, 7, 2, 8, 6, 1, 5, 2, 8], "num2": [5, 2, 4, 5, 7, 5, 4, 9, 6], "num3": [1, 7, 9, 8, 3, 2, 8, 7, 8], "type": "DISTRACTOR", "conditions": [24, 1600, "a", 24000], "trial": 4, "trial_type": "math-distractor", "trial_index": 145, "time_elapsed": 2914817, "internal_node_id": "0.0-109.0"}}, {"uniqueid": "MTK0580:3I2PTA7R3U1UHNXFUP31ULQWRB4QKS", "current_trial": 146, "dateTime": 1511223692319, "trialdata": {"rt": -1, "stimulus": "<p id=\"stim\">10</p>", "key_press": -1, "trial_type": "single-stim", "trial_index": 146, "time_elapsed": 2917822, "internal_node_id": "0.0-110.0-0.0"}}, {"uniqueid": "MTK0580:3I2PTA7R3U1UHNXFUP31ULQWRB4QKS", "current_trial": 147, "dateTime": 1511223693368, "trialdata": {"rt": -1, "stimulus": "<p id=\"stim\">9</p>", "key_press": -1, "trial_type": "single-stim", "trial_index": 147, "time_elapsed": 2918871, "internal_node_id": "0.0-110.0-1.0"}}, {"uniqueid": "MTK0580:3I2PTA7R3U1UHNXFUP31ULQWRB4QKS", "current_trial": 148, "dateTime": 1511223694450, "trialdata": {"rt": -1, "stimulus": "<p id=\"stim\">8</p>", "key_press": -1, "trial_type": "single-stim", "trial_index": 148, "time_elapsed": 2919953, "internal_node_id": "0.0-110.0-2.0"}}, {"uniqueid": "MTK0580:3I2PTA7R3U1UHNXFUP31ULQWRB4QKS", "current_trial": 149, "dateTime": 1511223695453, "trialdata": {"rt": -1, "stimulus": "<p id=\"stim\">7</p>", "key_press": -1, "trial_type": "single-stim", "trial_index": 149, "time_elapsed": 2920957, "internal_node_id": "0.0-110.0-3.0"}}, {"uniqueid": "MTK0580:3I2PTA7R3U1UHNXFUP31ULQWRB4QKS", "current_trial": 150, "dateTime": 1511223696455, "trialdata": {"rt": -1, "stimulus": "<p id=\"stim\">6</p>", "key_press": -1, "trial_type": "single-stim", "trial_index": 150, "time_elapsed": 2921959, "internal_node_id": "0.0-110.0-4.0"}}, {"uniqueid": "MTK0580:3I2PTA7R3U1UHNXFUP31ULQWRB4QKS", "current_trial": 151, "dateTime": 1511223697457, "trialdata": {"rt": -1, "stimulus": "<p id=\"stim\">5</p>", "key_press": -1, "trial_type": "single-stim", "trial_index": 151, "time_elapsed": 2922961, "internal_node_id": "0.0-110.0-5.0"}}, {"uniqueid": "MTK0580:3I2PTA7R3U1UHNXFUP31ULQWRB4QKS", "current_trial": 152, "dateTime": 1511223698460, "trialdata": {"rt": -1, "stimulus": "<p id=\"stim\">4</p>", "key_press": -1, "trial_type": "single-stim", "trial_index": 152, "time_elapsed": 2923963, "internal_node_id": "0.0-110.0-6.0"}}, {"uniqueid": "MTK0580:3I2PTA7R3U1UHNXFUP31ULQWRB4QKS", "current_trial": 153, "dateTime": 1511223699464, "trialdata": {"rt": -1, "stimulus": "<p id=\"stim\">3</p>", "key_press": -1, "trial_type": "single-stim", "trial_index": 153, "time_elapsed": 2924966, "internal_node_id": "0.0-110.0-7.0"}}, {"uniqueid": "MTK0580:3I2PTA7R3U1UHNXFUP31ULQWRB4QKS", "current_trial": 154, "dateTime": 1511223700472, "trialdata": {"rt": -1, "stimulus": "<p id=\"stim\">2</p>", "key_press": -1, "trial_type": "single-stim", "trial_index": 154, "time_elapsed": 2925976, "internal_node_id": "0.0-110.0-8.0"}}, {"uniqueid": "MTK0580:3I2PTA7R3U1UHNXFUP31ULQWRB4QKS", "current_trial": 155, "dateTime": 1511223701475, "trialdata": {"rt": -1, "stimulus": "<p id=\"stim\">1</p>", "key_press": -1, "trial_type": "single-stim", "trial_index": 155, "time_elapsed": 2926979, "internal_node_id": "0.0-110.0-9.0"}}, {"uniqueid": "MTK0580:3I2PTA7R3U1UHNXFUP31ULQWRB4QKS", "current_trial": 156, "dateTime": 1511223702978, "trialdata": {"rt": -1, "stimulus": "<p id=\"stim\">+</p>", "key_press": -1, "type": "FIXATION", "trial_type": "single-stim", "trial_index": 156, "time_elapsed": 2928482, "internal_node_id": "0.0-111.0-0.0"}}, {"uniqueid": "MTK0580:3I2PTA7R3U1UHNXFUP31ULQWRB4QKS", "current_trial": 157, "dateTime": 1511223705559, "trialdata": {"rt": -1000, "stimulus": "/static/audio/wordpool/FIREPLACE.wav", "key_press": -1, "type": "PRES_AUD", "word": "fireplace", "wordID": 569, "conditions": [24, 1600, "a", 24000], "trial": 4, "serialpos": 0, "trial_type": "single-audio", "trial_index": 157, "time_elapsed": 2931061, "internal_node_id": "0.0-112.0"}}, {"uniqueid": "MTK0580:3I2PTA7R3U1UHNXFUP31ULQWRB4QKS", "current_trial": 158, "dateTime": 1511223708212, "trialdata": {"rt": -1000, "stimulus": "/static/audio/wordpool/PASTRY.wav", "key_press": -1, "type": "PRES_AUD", "word": "pastry", "wordID": 1021, "conditions": [24, 1600, "a", 24000], "trial": 4, "serialpos": 1, "trial_type": "single-audio", "trial_index": 158, "time_elapsed": 2933715, "internal_node_id": "0.0-113.0"}}, {"uniqueid": "MTK0580:3I2PTA7R3U1UHNXFUP31ULQWRB4QKS", "current_trial": 159, "dateTime": 1511223710953, "trialdata": {"rt": -1000, "stimulus": "/static/audio/wordpool/SHORTCAKE.wav", "key_press": -1, "type": "PRES_AUD", "word": "shortcake", "wordID": 1291, "conditions": [24, 1600, "a", 24000], "trial": 4, "serialpos": 2, "trial_type": "single-audio", "trial_index": 159, "time_elapsed": 2936456, "internal_node_id": "0.0-114.0"}}, {"uniqueid": "MTK0580:3I2PTA7R3U1UHNXFUP31ULQWRB4QKS", "current_trial": 160, "dateTime": 1511223713477, "trialdata": {"rt": -1000, "stimulus": "/static/audio/wordpool/CASHIER.wav", "key_press": -1, "type": "PRES_AUD", "word": "cashier", "wordID": 253, "conditions": [24, 1600, "a", 24000], "trial": 4, "serialpos": 3, "trial_type": "single-audio", "trial_index": 160, "time_elapsed": 2938980, "internal_node_id": "0.0-115.0"}}, {"uniqueid": "MTK0580:3I2PTA7R3U1UHNXFUP31ULQWRB4QKS", "current_trial": 161, "dateTime": 1511223716189, "trialdata": {"rt": -1000, "stimulus": "/static/audio/wordpool/MAPLE.wav", "key_press": -1, "type": "PRES_AUD", "word": "maple", "wordID": 865, "conditions": [24, 1600, "a", 24000], "trial": 4, "serialpos": 4, "trial_type": "single-audio", "trial_index": 161, "time_elapsed": 2941692, "internal_node_id": "0.0-116.0"}}, {"uniqueid": "MTK0580:3I2PTA7R3U1UHNXFUP31ULQWRB4QKS", "current_trial": 162, "dateTime": 1511223719060, "trialdata": {"rt": -1000, "stimulus": "/static/audio/wordpool/SLIME.wav", "key_press": -1, "type": "PRES_AUD", "word": "slime", "wordID": 1326, "conditions": [24, 1600, "a", 24000], "trial": 4, "serialpos": 5, "trial_type": "single-audio", "trial_index": 162, "time_elapsed": 2944563, "internal_node_id": "0.0-117.0"}}, {"uniqueid": "MTK0580:3I2PTA7R3U1UHNXFUP31ULQWRB4QKS", "current_trial": 163, "dateTime": 1511223721477, "trialdata": {"rt": -1000, "stimulus": "/static/audio/wordpool/EGYPT.wav", "key_press": -1, "type": "PRES_AUD", "word": "egypt", "wordID": 518, "conditions": [24, 1600, "a", 24000], "trial": 4, "serialpos": 6, "trial_type": "single-audio", "trial_index": 163, "time_elapsed": 2946979, "internal_node_id": "0.0-118.0"}}, {"uniqueid": "MTK0580:3I2PTA7R3U1UHNXFUP31ULQWRB4QKS", "current_trial": 164, "dateTime": 1511223724009, "trialdata": {"rt": -1000, "stimulus": "/static/audio/wordpool/KITCHEN.wav", "key_press": -1, "type": "PRES_AUD", "word": "kitchen", "wordID": 777, "conditions": [24, 1600, "a", 24000], "trial": 4, "serialpos": 7, "trial_type": "single-audio", "trial_index": 164, "time_elapsed": 2949512, "internal_node_id": "0.0-119.0"}}, {"uniqueid": "MTK0580:3I2PTA7R3U1UHNXFUP31ULQWRB4QKS", "current_trial": 165, "dateTime": 1511223726696, "trialdata": {"rt": -1000, "stimulus": "/static/audio/wordpool/SPOOL.wav", "key_press": -1, "type": "PRES_AUD", "word": "spool", "wordID": 1355, "conditions": [24, 1600, "a", 24000], "trial": 4, "serialpos": 8, "trial_type": "single-audio", "trial_index": 165, "time_elapsed": 2952200, "internal_node_id": "0.0-120.0"}}, {"uniqueid": "MTK0580:3I2PTA7R3U1UHNXFUP31ULQWRB4QKS", "current_trial": 166, "dateTime": 1511223729214, "trialdata": {"rt": -1000, "stimulus": "/static/audio/wordpool/SWITCH.wav", "key_press": -1, "type": "PRES_AUD", "word": "switch", "wordID": 1421, "conditions": [24, 1600, "a", 24000], "trial": 4, "serialpos": 9, "trial_type": "single-audio", "trial_index": 166, "time_elapsed": 2954717, "internal_node_id": "0.0-121.0"}}, {"uniqueid": "MTK0580:3I2PTA7R3U1UHNXFUP31ULQWRB4QKS", "current_trial": 167, "dateTime": 1511223731864, "trialdata": {"rt": -1000, "stimulus": "/static/audio/wordpool/PANTHER.wav", "key_press": -1, "type": "PRES_AUD", "word": "panther", "wordID": 1008, "conditions": [24, 1600, "a", 24000], "trial": 4, "serialpos": 10, "trial_type": "single-audio", "trial_index": 167, "time_elapsed": 2957367, "internal_node_id": "0.0-122.0"}}, {"uniqueid": "MTK0580:3I2PTA7R3U1UHNXFUP31ULQWRB4QKS", "current_trial": 168, "dateTime": 1511223734562, "trialdata": {"rt": -1000, "stimulus": "/static/audio/wordpool/COCKTAIL.wav", "key_press": -1, "type": "PRES_AUD", "word": "cocktail", "wordID": 337, "conditions": [24, 1600, "a", 24000], "trial": 4, "serialpos": 11, "trial_type": "single-audio", "trial_index": 168, "time_elapsed": 2960065, "internal_node_id": "0.0-123.0"}}, {"uniqueid": "MTK0580:3I2PTA7R3U1UHNXFUP31ULQWRB4QKS", "current_trial": 169, "dateTime": 1511223737326, "trialdata": {"rt": -1000, "stimulus": "/static/audio/wordpool/BLOUSE.wav", "key_press": -1, "type": "PRES_AUD", "word": "blouse", "wordID": 138, "conditions": [24, 1600, "a", 24000], "trial": 4, "serialpos": 12, "trial_type": "single-audio", "trial_index": 169, "time_elapsed": 2962829, "internal_node_id": "0.0-124.0"}}, {"uniqueid": "MTK0580:3I2PTA7R3U1UHNXFUP31ULQWRB4QKS", "current_trial": 170, "dateTime": 1511223740081, "trialdata": {"rt": -1000, "stimulus": "/static/audio/wordpool/MARROW.wav", "key_press": -1, "type": "PRES_AUD", "word": "marrow", "wordID": 871, "conditions": [24, 1600, "a", 24000], "trial": 4, "serialpos": 13, "trial_type": "single-audio", "trial_index": 170, "time_elapsed": 2965584, "internal_node_id": "0.0-125.0"}}, {"uniqueid": "MTK0580:3I2PTA7R3U1UHNXFUP31ULQWRB4QKS", "current_trial": 171, "dateTime": 1511223742683, "trialdata": {"rt": -1000, "stimulus": "/static/audio/wordpool/FLIPPER.wav", "key_press": -1, "type": "PRES_AUD", "word": "flipper", "wordID": 579, "conditions": [24, 1600, "a", 24000], "trial": 4, "serialpos": 14, "trial_type": "single-audio", "trial_index": 171, "time_elapsed": 2968186, "internal_node_id": "0.0-126.0"}}, {"uniqueid": "MTK0580:3I2PTA7R3U1UHNXFUP31ULQWRB4QKS", "current_trial": 172, "dateTime": 1511223745184, "trialdata": {"rt": -1000, "stimulus": "/static/audio/wordpool/EAGLE.wav", "key_press": -1, "type": "PRES_AUD", "word": "eagle", "wordID": 511, "conditions": [24, 1600, "a", 24000], "trial": 4, "serialpos": 15, "trial_type": "single-audio", "trial_index": 172, "time_elapsed": 2970687, "internal_node_id": "0.0-127.0"}}, {"uniqueid": "MTK0580:3I2PTA7R3U1UHNXFUP31ULQWRB4QKS", "current_trial": 173, "dateTime": 1511223747904, "trialdata": {"rt": -1000, "stimulus": "/static/audio/wordpool/PIZZA.wav", "key_press": -1, "type": "PRES_AUD", "word": "pizza", "wordID": 1078, "conditions": [24, 1600, "a", 24000], "trial": 4, "serialpos": 16, "trial_type": "single-audio", "trial_index": 173, "time_elapsed": 2973407, "internal_node_id": "0.0-128.0"}}, {"uniqueid": "MTK0580:3I2PTA7R3U1UHNXFUP31ULQWRB4QKS", "current_trial": 174, "dateTime": 1511223750441, "trialdata": {"rt": -1000, "stimulus": "/static/audio/wordpool/FARMER.wav", "key_press": -1, "type": "PRES_AUD", "word": "farmer", "wordID": 552, "conditions": [24, 1600, "a", 24000], "trial": 4, "serialpos": 17, "trial_type": "single-audio", "trial_index": 174, "time_elapsed": 2975945, "internal_node_id": "0.0-129.0"}}, {"uniqueid": "MTK0580:3I2PTA7R3U1UHNXFUP31ULQWRB4QKS", "current_trial": 175, "dateTime": 1511223753098, "trialdata": {"rt": -1000, "stimulus": "/static/audio/wordpool/TOURIST.wav", "key_press": -1, "type": "PRES_AUD", "word": "tourist", "wordID": 1487, "conditions": [24, 1600, "a", 24000], "trial": 4, "serialpos": 18, "trial_type": "single-audio", "trial_index": 175, "time_elapsed": 2978602, "internal_node_id": "0.0-130.0"}}, {"uniqueid": "MTK0580:3I2PTA7R3U1UHNXFUP31ULQWRB4QKS", "current_trial": 176, "dateTime": 1511223755877, "trialdata": {"rt": -1000, "stimulus": "/static/audio/wordpool/LIVER.wav", "key_press": -1, "type": "PRES_AUD", "word": "liver", "wordID": 832, "conditions": [24, 1600, "a", 24000], "trial": 4, "serialpos": 19, "trial_type": "single-audio", "trial_index": 176, "time_elapsed": 2981380, "internal_node_id": "0.0-131.0"}}, {"uniqueid": "MTK0580:3I2PTA7R3U1UHNXFUP31ULQWRB4QKS", "current_trial": 177, "dateTime": 1511223758507, "trialdata": {"rt": -1000, "stimulus": "/static/audio/wordpool/DAISY.wav", "key_press": -1, "type": "PRES_AUD", "word": "daisy", "wordID": 434, "conditions": [24, 1600, "a", 24000], "trial": 4, "serialpos": 20, "trial_type": "single-audio", "trial_index": 177, "time_elapsed": 2984010, "internal_node_id": "0.0-132.0"}}, {"uniqueid": "MTK0580:3I2PTA7R3U1UHNXFUP31ULQWRB4QKS", "current_trial": 178, "dateTime": 1511223761014, "trialdata": {"rt": -1000, "stimulus": "/static/audio/wordpool/FLOWER.wav", "key_press": -1, "type": "PRES_AUD", "word": "flower", "wordID": 583, "conditions": [24, 1600, "a", 24000], "trial": 4, "serialpos": 21, "trial_type": "single-audio", "trial_index": 178, "time_elapsed": 2986518, "internal_node_id": "0.0-133.0"}}, {"uniqueid": "MTK0580:3I2PTA7R3U1UHNXFUP31ULQWRB4QKS", "current_trial": 179, "dateTime": 1511223763546, "trialdata": {"rt": -1000, "stimulus": "/static/audio/wordpool/MUSTARD.wav", "key_press": -1, "type": "PRES_AUD", "word": "mustard", "wordID": 934, "conditions": [24, 1600, "a", 24000], "trial": 4, "serialpos": 22, "trial_type": "single-audio", "trial_index": 179, "time_elapsed": 2989049, "internal_node_id": "0.0-134.0"}}, {"uniqueid": "MTK0580:3I2PTA7R3U1UHNXFUP31ULQWRB4QKS", "current_trial": 180, "dateTime": 1511223766007, "trialdata": {"rt": -1000, "stimulus": "/static/audio/wordpool/VELVET.wav", "key_press": -1, "type": "PRES_AUD", "word": "velvet", "wordID": 1554, "conditions": [24, 1600, "a", 24000], "trial": 4, "serialpos": 23, "trial_type": "single-audio", "trial_index": 180, "time_elapsed": 2991511, "internal_node_id": "0.0-135.0"}}, {"uniqueid": "MTK0580:3I2PTA7R3U1UHNXFUP31ULQWRB4QKS", "current_trial": 181, "dateTime": 1511223767244, "trialdata": {"rt": -1, "stimulus": "", "key_press": -1, "type": "PRE_RECALL_DELAY", "trial_type": "single-stim", "trial_index": 181, "time_elapsed": 2992747, "internal_node_id": "0.0-136.0-0.0"}}, {"uniqueid": "MTK0580:3I2PTA7R3U1UHNXFUP31ULQWRB4QKS", "current_trial": 182, "dateTime": 1511223767747, "trialdata": {"rt": -1000, "stimulus": "/static/audio/400Hz.wav", "key_press": -1, "type": "PRE_RECALL_ALERT", "trial_type": "single-audio", "trial_index": 182, "time_elapsed": 2993250, "internal_node_id": "0.0-137.0"}}, {"uniqueid": "MTK0580:3I2PTA7R3U1UHNXFUP31ULQWRB4QKS", "current_trial": 183, "dateTime": 1511223827771, "trialdata": {"rt": [5702, 10143, 13608, 17363, 19711, 23080, 27020, 29414, 34759, 39304, 42831, 47987, 50720, 54236, 57237], "recwords": ["velvet", "fireplace", "pizza", "flipper", "eagle", "marrow", "cashier", "maple", "shortcake", "pastry", "mustard", "panther", "farmer", "switch", "liver"], "type": "FREE_RECALL", "conditions": [24, 1600, "a", 24000], "trial": 4, "trial_type": "free-recall", "trial_index": 183, "time_elapsed": 3053263, "internal_node_id": "0.0-138.0-0.0"}}, {"uniqueid": "MTK0580:3I2PTA7R3U1UHNXFUP31ULQWRB4QKS", "current_trial": 184, "dateTime": 1511223833547, "trialdata": {"rt": 3773, "key_press": 32, "type": "INSTRUCTIONS", "trial_type": "text", "trial_index": 184, "time_elapsed": 3059050, "internal_node_id": "0.0-139.0"}}, {"uniqueid": "MTK0580:3I2PTA7R3U1UHNXFUP31ULQWRB4QKS", "current_trial": 185, "dateTime": 1511223859561, "trialdata": {"rt": [2158, 5891, 8234, 9796, 12660, 15041, 17274, 20362, 22508], "responses": ["12", "14", "20", "15", "21", "13", "20", "12", "14"], "num1": [2, 1, 8, 5, 5, 6, 8, 1, 1, 1], "num2": [1, 7, 4, 5, 9, 5, 4, 8, 8, 6], "num3": [9, 6, 8, 5, 7, 2, 8, 3, 5, 4], "type": "DISTRACTOR", "conditions": [12, 800, "a", 24000], "trial": 5, "trial_type": "math-distractor", "trial_index": 185, "time_elapsed": 3085063, "internal_node_id": "0.0-140.0"}}, {"uniqueid": "MTK0580:3I2PTA7R3U1UHNXFUP31ULQWRB4QKS", "current_trial": 186, "dateTime": 1511223862565, "trialdata": {"rt": -1, "stimulus": "<p id=\"stim\">10</p>", "key_press": -1, "trial_type": "single-stim", "trial_index": 186, "time_elapsed": 3088068, "internal_node_id": "0.0-141.0-0.0"}}, {"uniqueid": "MTK0580:3I2PTA7R3U1UHNXFUP31ULQWRB4QKS", "current_trial": 187, "dateTime": 1511223863570, "trialdata": {"rt": -1, "stimulus": "<p id=\"stim\">9</p>", "key_press": -1, "trial_type": "single-stim", "trial_index": 187, "time_elapsed": 3089073, "internal_node_id": "0.0-141.0-1.0"}}, {"uniqueid": "MTK0580:3I2PTA7R3U1UHNXFUP31ULQWRB4QKS", "current_trial": 188, "dateTime": 1511223864574, "trialdata": {"rt": -1, "stimulus": "<p id=\"stim\">8</p>", "key_press": -1, "trial_type": "single-stim", "trial_index": 188, "time_elapsed": 3090077, "internal_node_id": "0.0-141.0-2.0"}}, {"uniqueid": "MTK0580:3I2PTA7R3U1UHNXFUP31ULQWRB4QKS", "current_trial": 189, "dateTime": 1511223865578, "trialdata": {"rt": -1, "stimulus": "<p id=\"stim\">7</p>", "key_press": -1, "trial_type": "single-stim", "trial_index": 189, "time_elapsed": 3091081, "internal_node_id": "0.0-141.0-3.0"}}, {"uniqueid": "MTK0580:3I2PTA7R3U1UHNXFUP31ULQWRB4QKS", "current_trial": 190, "dateTime": 1511223866582, "trialdata": {"rt": -1, "stimulus": "<p id=\"stim\">6</p>", "key_press": -1, "trial_type": "single-stim", "trial_index": 190, "time_elapsed": 3092085, "internal_node_id": "0.0-141.0-4.0"}}, {"uniqueid": "MTK0580:3I2PTA7R3U1UHNXFUP31ULQWRB4QKS", "current_trial": 191, "dateTime": 1511223867624, "trialdata": {"rt": -1, "stimulus": "<p id=\"stim\">5</p>", "key_press": -1, "trial_type": "single-stim", "trial_index": 191, "time_elapsed": 3093127, "internal_node_id": "0.0-141.0-5.0"}}, {"uniqueid": "MTK0580:3I2PTA7R3U1UHNXFUP31ULQWRB4QKS", "current_trial": 192, "dateTime": 1511223868628, "trialdata": {"rt": -1, "stimulus": "<p id=\"stim\">4</p>", "key_press": -1, "trial_type": "single-stim", "trial_index": 192, "time_elapsed": 3094132, "internal_node_id": "0.0-141.0-6.0"}}, {"uniqueid": "MTK0580:3I2PTA7R3U1UHNXFUP31ULQWRB4QKS", "current_trial": 193, "dateTime": 1511223869633, "trialdata": {"rt": -1, "stimulus": "<p id=\"stim\">3</p>", "key_press": -1, "trial_type": "single-stim", "trial_index": 193, "time_elapsed": 3095136, "internal_node_id": "0.0-141.0-7.0"}}, {"uniqueid": "MTK0580:3I2PTA7R3U1UHNXFUP31ULQWRB4QKS", "current_trial": 194, "dateTime": 1511223870670, "trialdata": {"rt": -1, "stimulus": "<p id=\"stim\">2</p>", "key_press": -1, "trial_type": "single-stim", "trial_index": 194, "time_elapsed": 3096172, "internal_node_id": "0.0-141.0-8.0"}}, {"uniqueid": "MTK0580:3I2PTA7R3U1UHNXFUP31ULQWRB4QKS", "current_trial": 195, "dateTime": 1511223871675, "trialdata": {"rt": -1, "stimulus": "<p id=\"stim\">1</p>", "key_press": -1, "trial_type": "single-stim", "trial_index": 195, "time_elapsed": 3097178, "internal_node_id": "0.0-141.0-9.0"}}, {"uniqueid": "MTK0580:3I2PTA7R3U1UHNXFUP31ULQWRB4QKS", "current_trial": 196, "dateTime": 1511223873273, "trialdata": {"rt": -1, "stimulus": "<p id=\"stim\">+</p>", "key_press": -1, "type": "FIXATION", "trial_type": "single-stim", "trial_index": 196, "time_elapsed": 3098776, "internal_node_id": "0.0-142.0-0.0"}}, {"uniqueid": "MTK0580:3I2PTA7R3U1UHNXFUP31ULQWRB4QKS", "current_trial": 197, "dateTime": 1511223875211, "trialdata": {"rt": -1000, "stimulus": "/static/audio/wordpool/OUTFIT.wav", "key_press": -1, "type": "PRES_AUD", "word": "outfit", "wordID": 987, "conditions": [12, 800, "a", 24000], "trial": 5, "serialpos": 0, "trial_type": "single-audio", "trial_index": 197, "time_elapsed": 3100714, "internal_node_id": "0.0-143.0"}}, {"uniqueid": "MTK0580:3I2PTA7R3U1UHNXFUP31ULQWRB4QKS", "current_trial": 198, "dateTime": 1511223877003, "trialdata": {"rt": -1000, "stimulus": "/static/audio/wordpool/LEOPARD.wav", "key_press": -1, "type": "PRES_AUD", "word": "leopard", "wordID": 811, "conditions": [12, 800, "a", 24000], "trial": 5, "serialpos": 1, "trial_type": "single-audio", "trial_index": 198, "time_elapsed": 3102506, "internal_node_id": "0.0-144.0"}}, {"uniqueid": "MTK0580:3I2PTA7R3U1UHNXFUP31ULQWRB4QKS", "current_trial": 199, "dateTime": 1511223878661, "trialdata": {"rt": -1000, "stimulus": "/static/audio/wordpool/ROBIN.wav", "key_press": -1, "type": "PRES_AUD", "word": "robin", "wordID": 1198, "conditions": [12, 800, "a", 24000], "trial": 5, "serialpos": 2, "trial_type": "single-audio", "trial_index": 199, "time_elapsed": 3104162, "internal_node_id": "0.0-145.0"}}, {"uniqueid": "MTK0580:3I2PTA7R3U1UHNXFUP31ULQWRB4QKS", "current_trial": 200, "dateTime": 1511223880518, "trialdata": {"rt": -1000, "stimulus": "/static/audio/wordpool/SUNSET.wav", "key_press": -1, "type": "PRES_AUD", "word": "sunset", "wordID": 1407, "conditions": [12, 800, "a", 24000], "trial": 5, "serialpos": 3, "trial_type": "single-audio", "trial_index": 200, "time_elapsed": 3106022, "internal_node_id": "0.0-146.0"}}, {"uniqueid": "MTK0580:3I2PTA7R3U1UHNXFUP31ULQWRB4QKS", "current_trial": 201, "dateTime": 1511223882379, "trialdata": {"rt": -1000, "stimulus": "/static/audio/wordpool/NECKLACE.wav", "key_press": -1, "type": "PRES_AUD", "word": "necklace", "wordID": 939, "conditions": [12, 800, "a", 24000], "trial": 5, "serialpos": 4, "trial_type": "single-audio", "trial_index": 201, "time_elapsed": 3107882, "internal_node_id": "0.0-147.0"}}, {"uniqueid": "MTK0580:3I2PTA7R3U1UHNXFUP31ULQWRB4QKS", "current_trial": 202, "dateTime": 1511223884161, "trialdata": {"rt": -1000, "stimulus": "/static/audio/wordpool/FRAGRANCE.wav", "key_press": -1, "type": "PRES_AUD", "word": "fragrance", "wordID": 598, "conditions": [12, 800, "a", 24000], "trial": 5, "serialpos": 5, "trial_type": "single-audio", "trial_index": 202, "time_elapsed": 3109663, "internal_node_id": "0.0-148.0"}}, {"uniqueid": "MTK0580:3I2PTA7R3U1UHNXFUP31ULQWRB4QKS", "current_trial": 203, "dateTime": 1511223886048, "trialdata": {"rt": -1000, "stimulus": "/static/audio/wordpool/DRESS.wav", "key_press": -1, "type": "PRES_AUD", "word": "dress", "wordID": 494, "conditions": [12, 800, "a", 24000], "trial": 5, "serialpos": 6, "trial_type": "single-audio", "trial_index": 203, "time_elapsed": 3111552, "internal_node_id": "0.0-149.0"}}, {"uniqueid": "MTK0580:3I2PTA7R3U1UHNXFUP31ULQWRB4QKS", "current_trial": 204, "dateTime": 1511223887658, "trialdata": {"rt": -1000, "stimulus": "/static/audio/wordpool/WIDOW.wav", "key_press": -1, "type": "PRES_AUD", "word": "widow", "wordID": 1607, "conditions": [12, 800, "a", 24000], "trial": 5, "serialpos": 7, "trial_type": "single-audio", "trial_index": 204, "time_elapsed": 3113161, "internal_node_id": "0.0-150.0"}}, {"uniqueid": "MTK0580:3I2PTA7R3U1UHNXFUP31ULQWRB4QKS", "current_trial": 205, "dateTime": 1511223889504, "trialdata": {"rt": -1000, "stimulus": "/static/audio/wordpool/SUITCASE.wav", "key_press": -1, "type": "PRES_AUD", "word": "suitcase", "wordID": 1402, "conditions": [12, 800, "a", 24000], "trial": 5, "serialpos": 8, "trial_type": "single-audio", "trial_index": 205, "time_elapsed": 3115008, "internal_node_id": "0.0-151.0"}}, {"uniqueid": "MTK0580:3I2PTA7R3U1UHNXFUP31ULQWRB4QKS", "current_trial": 206, "dateTime": 1511223891264, "trialdata": {"rt": -1000, "stimulus": "/static/audio/wordpool/HANDBAG.wav", "key_press": -1, "type": "PRES_AUD", "word": "handbag", "wordID": 683, "conditions": [12, 800, "a", 24000], "trial": 5, "serialpos": 9, "trial_type": "single-audio", "trial_index": 206, "time_elapsed": 3116767, "internal_node_id": "0.0-152.0"}}, {"uniqueid": "MTK0580:3I2PTA7R3U1UHNXFUP31ULQWRB4QKS", "current_trial": 207, "dateTime": 1511223893266, "trialdata": {"rt": -1000, "stimulus": "/static/audio/wordpool/LAMP.wav", "key_press": -1, "type": "PRES_AUD", "word": "lamp", "wordID": 797, "conditions": [12, 800, "a", 24000], "trial": 5, "serialpos": 10, "trial_type": "single-audio", "trial_index": 207, "time_elapsed": 3118770, "internal_node_id": "0.0-153.0"}}, {"uniqueid": "MTK0580:3I2PTA7R3U1UHNXFUP31ULQWRB4QKS", "current_trial": 208, "dateTime": 1511223895212, "trialdata": {"rt": -1000, "stimulus": "/static/audio/wordpool/SUNRISE.wav", "key_press": -1, "type": "PRES_AUD", "word": "sunrise", "wordID": 1406, "conditions": [12, 800, "a", 24000], "trial": 5, "serialpos": 11, "trial_type": "single-audio", "trial_index": 208, "time_elapsed": 3120715, "internal_node_id": "0.0-154.0"}}, {"uniqueid": "MTK0580:3I2PTA7R3U1UHNXFUP31ULQWRB4QKS", "current_trial": 209, "dateTime": 1511223896557, "trialdata": {"rt": -1, "stimulus": "", "key_press": -1, "type": "PRE_RECALL_DELAY", "trial_type": "single-stim", "trial_index": 209, "time_elapsed": 3122060, "internal_node_id": "0.0-155.0-0.0"}}, {"uniqueid": "MTK0580:3I2PTA7R3U1UHNXFUP31ULQWRB4QKS", "current_trial": 210, "dateTime": 1511223897060, "trialdata": {"rt": -1000, "stimulus": "/static/audio/400Hz.wav", "key_press": -1, "type": "PRE_RECALL_ALERT", "trial_type": "single-audio", "trial_index": 210, "time_elapsed": 3122564, "internal_node_id": "0.0-156.0"}}, {"uniqueid": "MTK0580:3I2PTA7R3U1UHNXFUP31ULQWRB4QKS", "current_trial": 211, "dateTime": 1511223957080, "trialdata": {"rt": [4933, 9367, 12944, 16059, 20397, 33288, 36549], "recwords": ["lamp", "sunrise", "outfit", "suitcase", "lepard", "fragrance", "widow"], "type": "FREE_RECALL", "conditions": [12, 800, "a", 24000], "trial": 5, "trial_type": "free-recall", "trial_index": 211, "time_elapsed": 3182573, "internal_node_id": "0.0-157.0-0.0"}}, {"uniqueid": "MTK0580:3I2PTA7R3U1UHNXFUP31ULQWRB4QKS", "current_trial": 212, "dateTime": 1511223977359, "trialdata": {"rt": 18275, "key_press": 32, "type": "INSTRUCTIONS", "trial_type": "text", "trial_index": 212, "time_elapsed": 3202862, "internal_node_id": "0.0-158.0"}}, {"uniqueid": "MTK0580:3I2PTA7R3U1UHNXFUP31ULQWRB4QKS", "current_trial": 213, "dateTime": 1511223991374, "trialdata": {"rt": [2614, 4378, 6801, 8707], "responses": ["19", "19", "14", "16"], "num1": [2, 9, 9, 6, 9], "num2": [9, 8, 1, 2, 5], "num3": [8, 2, 4, 8, 2], "type": "DISTRACTOR", "conditions": [12, 800, "v", 12000], "trial": 6, "trial_type": "math-distractor", "trial_index": 213, "time_elapsed": 3216877, "internal_node_id": "0.0-159.0"}}, {"uniqueid": "MTK0580:3I2PTA7R3U1UHNXFUP31ULQWRB4QKS", "current_trial": 214, "dateTime": 1511223994380, "trialdata": {"rt": -1, "stimulus": "<p id=\"stim\">10</p>", "key_press": -1, "trial_type": "single-stim", "trial_index": 214, "time_elapsed": 3219883, "internal_node_id": "0.0-160.0-0.0"}}, {"uniqueid": "MTK0580:3I2PTA7R3U1UHNXFUP31ULQWRB4QKS", "current_trial": 215, "dateTime": 1511223995383, "trialdata": {"rt": -1, "stimulus": "<p id=\"stim\">9</p>", "key_press": -1, "trial_type": "single-stim", "trial_index": 215, "time_elapsed": 3220886, "internal_node_id": "0.0-160.0-1.0"}}, {"uniqueid": "MTK0580:3I2PTA7R3U1UHNXFUP31ULQWRB4QKS", "current_trial": 216, "dateTime": 1511223996387, "trialdata": {"rt": -1, "stimulus": "<p id=\"stim\">8</p>", "key_press": -1, "trial_type": "single-stim", "trial_index": 216, "time_elapsed": 3221891, "internal_node_id": "0.0-160.0-2.0"}}, {"uniqueid": "MTK0580:3I2PTA7R3U1UHNXFUP31ULQWRB4QKS", "current_trial": 217, "dateTime": 1511223997389, "trialdata": {"rt": -1, "stimulus": "<p id=\"stim\">7</p>", "key_press": -1, "trial_type": "single-stim", "trial_index": 217, "time_elapsed": 3222893, "internal_node_id": "0.0-160.0-3.0"}}, {"uniqueid": "MTK0580:3I2PTA7R3U1UHNXFUP31ULQWRB4QKS", "current_trial": 218, "dateTime": 1511223998392, "trialdata": {"rt": -1, "stimulus": "<p id=\"stim\">6</p>", "key_press": -1, "trial_type": "single-stim", "trial_index": 218, "time_elapsed": 3223896, "internal_node_id": "0.0-160.0-4.0"}}, {"uniqueid": "MTK0580:3I2PTA7R3U1UHNXFUP31ULQWRB4QKS", "current_trial": 219, "dateTime": 1511223999394, "trialdata": {"rt": -1, "stimulus": "<p id=\"stim\">5</p>", "key_press": -1, "trial_type": "single-stim", "trial_index": 219, "time_elapsed": 3224897, "internal_node_id": "0.0-160.0-5.0"}}, {"uniqueid": "MTK0580:3I2PTA7R3U1UHNXFUP31ULQWRB4QKS", "current_trial": 220, "dateTime": 1511224000396, "trialdata": {"rt": -1, "stimulus": "<p id=\"stim\">4</p>", "key_press": -1, "trial_type": "single-stim", "trial_index": 220, "time_elapsed": 3225899, "internal_node_id": "0.0-160.0-6.0"}}, {"uniqueid": "MTK0580:3I2PTA7R3U1UHNXFUP31ULQWRB4QKS", "current_trial": 221, "dateTime": 1511224001400, "trialdata": {"rt": -1, "stimulus": "<p id=\"stim\">3</p>", "key_press": -1, "trial_type": "single-stim", "trial_index": 221, "time_elapsed": 3226903, "internal_node_id": "0.0-160.0-7.0"}}, {"uniqueid": "MTK0580:3I2PTA7R3U1UHNXFUP31ULQWRB4QKS", "current_trial": 222, "dateTime": 1511224002403, "trialdata": {"rt": -1, "stimulus": "<p id=\"stim\">2</p>", "key_press": -1, "trial_type": "single-stim", "trial_index": 222, "time_elapsed": 3227907, "internal_node_id": "0.0-160.0-8.0"}}, {"uniqueid": "MTK0580:3I2PTA7R3U1UHNXFUP31ULQWRB4QKS", "current_trial": 223, "dateTime": 1511224003406, "trialdata": {"rt": -1, "stimulus": "<p id=\"stim\">1</p>", "key_press": -1, "trial_type": "single-stim", "trial_index": 223, "time_elapsed": 3228910, "internal_node_id": "0.0-160.0-9.0"}}, {"uniqueid": "MTK0580:3I2PTA7R3U1UHNXFUP31ULQWRB4QKS", "current_trial": 224, "dateTime": 1511224004909, "trialdata": {"rt": -1, "stimulus": "<p id=\"stim\">+</p>", "key_press": -1, "type": "FIXATION", "trial_type": "single-stim", "trial_index": 224, "time_elapsed": 3230413, "internal_node_id": "0.0-161.0-0.0"}}, {"uniqueid": "MTK0580:3I2PTA7R3U1UHNXFUP31ULQWRB4QKS", "current_trial": 225, "dateTime": 1511224005711, "trialdata": {"rt": -1, "stimulus": "<p id=\"stim\">WOMAN</p>", "key_press": -1, "type": "PRES_VIS", "word": "woman", "wordID": 1619, "conditions": [12, 800, "v", 12000], "trial": 6, "serialpos": 0, "trial_type": "single-stim", "trial_index": 225, "time_elapsed": 3231214, "internal_node_id": "0.0-162.0"}}, {"uniqueid": "MTK0580:3I2PTA7R3U1UHNXFUP31ULQWRB4QKS", "current_trial": 226, "dateTime": 1511224007335, "trialdata": {"rt": -1, "stimulus": "<p id=\"stim\">TRANSPLANT</p>", "key_press": -1, "type": "PRES_VIS", "word": "transplant", "wordID": 1495, "conditions": [12, 800, "v", 12000], "trial": 6, "serialpos": 1, "trial_type": "single-stim", "trial_index": 226, "time_elapsed": 3232838, "internal_node_id": "0.0-163.0"}}, {"uniqueid": "MTK0580:3I2PTA7R3U1UHNXFUP31ULQWRB4QKS", "current_trial": 227, "dateTime": 1511224009255, "trialdata": {"rt": -1, "stimulus": "<p id=\"stim\">COOK</p>", "key_press": -1, "type": "PRES_VIS", "word": "cook", "wordID": 371, "conditions": [12, 800, "v", 12000], "trial": 6, "serialpos": 2, "trial_type": "single-stim", "trial_index": 227, "time_elapsed": 3234758, "internal_node_id": "0.0-164.0"}}, {"uniqueid": "MTK0580:3I2PTA7R3U1UHNXFUP31ULQWRB4QKS", "current_trial": 228, "dateTime": 1511224011083, "trialdata": {"rt": -1, "stimulus": "<p id=\"stim\">PADDING</p>", "key_press": -1, "type": "PRES_VIS", "word": "padding", "wordID": 998, "conditions": [12, 800, "v", 12000], "trial": 6, "serialpos": 3, "trial_type": "single-stim", "trial_index": 228, "time_elapsed": 3236586, "internal_node_id": "0.0-165.0"}}, {"uniqueid": "MTK0580:3I2PTA7R3U1UHNXFUP31ULQWRB4QKS", "current_trial": 229, "dateTime": 1511224013028, "trialdata": {"rt": -1, "stimulus": "<p id=\"stim\">BINDER</p>", "key_press": -1, "type": "PRES_VIS", "word": "binder", "wordID": 126, "conditions": [12, 800, "v", 12000], "trial": 6, "serialpos": 4, "trial_type": "single-stim", "trial_index": 229, "time_elapsed": 3238531, "internal_node_id": "0.0-166.0"}}, {"uniqueid": "MTK0580:3I2PTA7R3U1UHNXFUP31ULQWRB4QKS", "current_trial": 230, "dateTime": 1511224014738, "trialdata": {"rt": -1, "stimulus": "<p id=\"stim\">FRUIT</p>", "key_press": -1, "type": "PRES_VIS", "word": "fruit", "wordID": 609, "conditions": [12, 800, "v", 12000], "trial": 6, "serialpos": 5, "trial_type": "single-stim", "trial_index": 230, "time_elapsed": 3240241, "internal_node_id": "0.0-167.0"}}, {"uniqueid": "MTK0580:3I2PTA7R3U1UHNXFUP31ULQWRB4QKS", "current_trial": 231, "dateTime": 1511224016508, "trialdata": {"rt": -1, "stimulus": "<p id=\"stim\">VICTIM</p>", "key_press": -1, "type": "PRES_VIS", "word": "victim", "wordID": 1561, "conditions": [12, 800, "v", 12000], "trial": 6, "serialpos": 6, "trial_type": "single-stim", "trial_index": 231, "time_elapsed": 3242011, "internal_node_id": "0.0-168.0"}}, {"uniqueid": "MTK0580:3I2PTA7R3U1UHNXFUP31ULQWRB4QKS", "current_trial": 232, "dateTime": 1511224018317, "trialdata": {"rt": -1, "stimulus": "<p id=\"stim\">BANKER</p>", "key_press": -1, "type": "PRES_VIS", "word": "banker", "wordID": 83, "conditions": [12, 800, "v", 12000], "trial": 6, "serialpos": 7, "trial_type": "single-stim", "trial_index": 232, "time_elapsed": 3243821, "internal_node_id": "0.0-169.0"}}, {"uniqueid": "MTK0580:3I2PTA7R3U1UHNXFUP31ULQWRB4QKS", "current_trial": 233, "dateTime": 1511224020169, "trialdata": {"rt": -1, "stimulus": "<p id=\"stim\">ROOSTER</p>", "key_press": -1, "type": "PRES_VIS", "word": "rooster", "wordID": 1208, "conditions": [12, 800, "v", 12000], "trial": 6, "serialpos": 8, "trial_type": "single-stim", "trial_index": 233, "time_elapsed": 3245672, "internal_node_id": "0.0-170.0"}}, {"uniqueid": "MTK0580:3I2PTA7R3U1UHNXFUP31ULQWRB4QKS", "current_trial": 234, "dateTime": 1511224022014, "trialdata": {"rt": -1, "stimulus": "<p id=\"stim\">DENTIST</p>", "key_press": -1, "type": "PRES_VIS", "word": "dentist", "wordID": 446, "conditions": [12, 800, "v", 12000], "trial": 6, "serialpos": 9, "trial_type": "single-stim", "trial_index": 234, "time_elapsed": 3247517, "internal_node_id": "0.0-171.0"}}, {"uniqueid": "MTK0580:3I2PTA7R3U1UHNXFUP31ULQWRB4QKS", "current_trial": 235, "dateTime": 1511224023808, "trialdata": {"rt": -1, "stimulus": "<p id=\"stim\">PASTA</p>", "key_press": -1, "type": "PRES_VIS", "word": "pasta", "wordID": 1020, "conditions": [12, 800, "v", 12000], "trial": 6, "serialpos": 10, "trial_type": "single-stim", "trial_index": 235, "time_elapsed": 3249311, "internal_node_id": "0.0-172.0"}}, {"uniqueid": "MTK0580:3I2PTA7R3U1UHNXFUP31ULQWRB4QKS", "current_trial": 236, "dateTime": 1511224025501, "trialdata": {"rt": -1, "stimulus": "<p id=\"stim\">SAUSAGE</p>", "key_press": -1, "type": "PRES_VIS", "word": "sausage", "wordID": 1237, "conditions": [12, 800, "v", 12000], "trial": 6, "serialpos": 11, "trial_type": "single-stim", "trial_index": 236, "time_elapsed": 3251004, "internal_node_id": "0.0-173.0"}}, {"uniqueid": "MTK0580:3I2PTA7R3U1UHNXFUP31ULQWRB4QKS", "current_trial": 237, "dateTime": 1511224027648, "trialdata": {"rt": -1, "stimulus": "", "key_press": -1, "type": "PRE_RECALL_DELAY", "trial_type": "single-stim", "trial_index": 237, "time_elapsed": 3253151, "internal_node_id": "0.0-174.0-0.0"}}, {"uniqueid": "MTK0580:3I2PTA7R3U1UHNXFUP31ULQWRB4QKS", "current_trial": 238, "dateTime": 1511224028150, "trialdata": {"rt": -1000, "stimulus": "/static/audio/400Hz.wav", "key_press": -1, "type": "PRE_RECALL_ALERT", "trial_type": "single-audio", "trial_index": 238, "time_elapsed": 3253653, "internal_node_id": "0.0-175.0"}}, {"uniqueid": "MTK0580:3I2PTA7R3U1UHNXFUP31ULQWRB4QKS", "current_trial": 239, "dateTime": 1511224088167, "trialdata": {"rt": [6102, 13705, 17353, 21412, 26085, 28892, 31119, 34909, 41650], "recwords": ["dentist", "rooster", "fruit", "binder", "transplant", "woman", "cook", "banker", "citrus"], "type": "FREE_RECALL", "conditions": [12, 800, "v", 12000], "trial": 6, "trial_type": "free-recall", "trial_index": 239, "time_elapsed": 3313661, "internal_node_id": "0.0-176.0-0.0"}}, {"uniqueid": "MTK0580:3I2PTA7R3U1UHNXFUP31ULQWRB4QKS", "current_trial": 240, "dateTime": 1511224091940, "trialdata": {"rt": 1771, "key_press": 13, "type": "INSTRUCTIONS", "trial_type": "text", "trial_index": 240, "time_elapsed": 3317444, "internal_node_id": "0.0-177.0"}}, {"uniqueid": "MTK0580:3I2PTA7R3U1UHNXFUP31ULQWRB4QKS", "current_trial": 241, "dateTime": 1511224105950, "trialdata": {"rt": [2677, 4806, 6778, 8548, 10322], "responses": ["20", "13", "10", "17", "12"], "num1": [9, 2, 1, 5, 2, 8], "num2": [7, 3, 4, 5, 6, 9], "num3": [4, 8, 5, 7, 4, 9], "type": "DISTRACTOR", "conditions": [12, 1600, "a", 12000], "trial": 7, "trial_type": "math-distractor", "trial_index": 241, "time_elapsed": 3331454, "internal_node_id": "0.0-178.0"}}, {"uniqueid": "MTK0580:3I2PTA7R3U1UHNXFUP31ULQWRB4QKS", "current_trial": 242, "dateTime": 1511224108953, "trialdata": {"rt": -1, "stimulus": "<p id=\"stim\">10</p>", "key_press": -1, "trial_type": "single-stim", "trial_index": 242, "time_elapsed": 3334456, "internal_node_id": "0.0-179.0-0.0"}}, {"uniqueid": "MTK0580:3I2PTA7R3U1UHNXFUP31ULQWRB4QKS", "current_trial": 243, "dateTime": 1511224109955, "trialdata": {"rt": -1, "stimulus": "<p id=\"stim\">9</p>", "key_press": -1, "trial_type": "single-stim", "trial_index": 243, "time_elapsed": 3335458, "internal_node_id": "0.0-179.0-1.0"}}, {"uniqueid": "MTK0580:3I2PTA7R3U1UHNXFUP31ULQWRB4QKS", "current_trial": 244, "dateTime": 1511224110958, "trialdata": {"rt": -1, "stimulus": "<p id=\"stim\">8</p>", "key_press": -1, "trial_type": "single-stim", "trial_index": 244, "time_elapsed": 3336461, "internal_node_id": "0.0-179.0-2.0"}}, {"uniqueid": "MTK0580:3I2PTA7R3U1UHNXFUP31ULQWRB4QKS", "current_trial": 245, "dateTime": 1511224111960, "trialdata": {"rt": -1, "stimulus": "<p id=\"stim\">7</p>", "key_press": -1, "trial_type": "single-stim", "trial_index": 245, "time_elapsed": 3337463, "internal_node_id": "0.0-179.0-3.0"}}, {"uniqueid": "MTK0580:3I2PTA7R3U1UHNXFUP31ULQWRB4QKS", "current_trial": 246, "dateTime": 1511224112962, "trialdata": {"rt": -1, "stimulus": "<p id=\"stim\">6</p>", "key_press": -1, "trial_type": "single-stim", "trial_index": 246, "time_elapsed": 3338465, "internal_node_id": "0.0-179.0-4.0"}}, {"uniqueid": "MTK0580:3I2PTA7R3U1UHNXFUP31ULQWRB4QKS", "current_trial": 247, "dateTime": 1511224113964, "trialdata": {"rt": -1, "stimulus": "<p id=\"stim\">5</p>", "key_press": -1, "trial_type": "single-stim", "trial_index": 247, "time_elapsed": 3339467, "internal_node_id": "0.0-179.0-5.0"}}, {"uniqueid": "MTK0580:3I2PTA7R3U1UHNXFUP31ULQWRB4QKS", "current_trial": 248, "dateTime": 1511224114966, "trialdata": {"rt": -1, "stimulus": "<p id=\"stim\">4</p>", "key_press": -1, "trial_type": "single-stim", "trial_index": 248, "time_elapsed": 3340469, "internal_node_id": "0.0-179.0-6.0"}}, {"uniqueid": "MTK0580:3I2PTA7R3U1UHNXFUP31ULQWRB4QKS", "current_trial": 249, "dateTime": 1511224115967, "trialdata": {"rt": -1, "stimulus": "<p id=\"stim\">3</p>", "key_press": -1, "trial_type": "single-stim", "trial_index": 249, "time_elapsed": 3341471, "internal_node_id": "0.0-179.0-7.0"}}, {"uniqueid": "MTK0580:3I2PTA7R3U1UHNXFUP31ULQWRB4QKS", "current_trial": 250, "dateTime": 1511224116970, "trialdata": {"rt": -1, "stimulus": "<p id=\"stim\">2</p>", "key_press": -1, "trial_type": "single-stim", "trial_index": 250, "time_elapsed": 3342473, "internal_node_id": "0.0-179.0-8.0"}}, {"uniqueid": "MTK0580:3I2PTA7R3U1UHNXFUP31ULQWRB4QKS", "current_trial": 251, "dateTime": 1511224117972, "trialdata": {"rt": -1, "stimulus": "<p id=\"stim\">1</p>", "key_press": -1, "trial_type": "single-stim", "trial_index": 251, "time_elapsed": 3343475, "internal_node_id": "0.0-179.0-9.0"}}, {"uniqueid": "MTK0580:3I2PTA7R3U1UHNXFUP31ULQWRB4QKS", "current_trial": 252, "dateTime": 1511224119474, "trialdata": {"rt": -1, "stimulus": "<p id=\"stim\">+</p>", "key_press": -1, "type": "FIXATION", "trial_type": "single-stim", "trial_index": 252, "time_elapsed": 3344977, "internal_node_id": "0.0-180.0-0.0"}}, {"uniqueid": "MTK0580:3I2PTA7R3U1UHNXFUP31ULQWRB4QKS", "current_trial": 253, "dateTime": 1511224122187, "trialdata": {"rt": -1000, "stimulus": "/static/audio/wordpool/GLOVE.wav", "key_press": -1, "type": "PRES_AUD", "word": "glove", "wordID": 641, "conditions": [12, 1600, "a", 12000], "trial": 7, "serialpos": 0, "trial_type": "single-audio", "trial_index": 253, "time_elapsed": 3347691, "internal_node_id": "0.0-181.0"}}, {"uniqueid": "MTK0580:3I2PTA7R3U1UHNXFUP31ULQWRB4QKS", "current_trial": 254, "dateTime": 1511224124657, "trialdata": {"rt": -1000, "stimulus": "/static/audio/wordpool/BOYFRIEND.wav", "key_press": -1, "type": "PRES_AUD", "word": "boyfriend", "wordID": 161, "conditions": [12, 1600, "a", 12000], "trial": 7, "serialpos": 1, "trial_type": "single-audio", "trial_index": 254, "time_elapsed": 3350161, "internal_node_id": "0.0-182.0"}}, {"uniqueid": "MTK0580:3I2PTA7R3U1UHNXFUP31ULQWRB4QKS", "current_trial": 255, "dateTime": 1511224127227, "trialdata": {"rt": -1000, "stimulus": "/static/audio/wordpool/PLAID.wav", "key_press": -1, "type": "PRES_AUD", "word": "plaid", "wordID": 1079, "conditions": [12, 1600, "a", 12000], "trial": 7, "serialpos": 2, "trial_type": "single-audio", "trial_index": 255, "time_elapsed": 3352731, "internal_node_id": "0.0-183.0"}}, {"uniqueid": "MTK0580:3I2PTA7R3U1UHNXFUP31ULQWRB4QKS", "current_trial": 256, "dateTime": 1511224129958, "trialdata": {"rt": -1000, "stimulus": "/static/audio/wordpool/SHOULDER.wav", "key_press": -1, "type": "PRES_AUD", "word": "shoulder", "wordID": 1293, "conditions": [12, 1600, "a", 12000], "trial": 7, "serialpos": 3, "trial_type": "single-audio", "trial_index": 256, "time_elapsed": 3355462, "internal_node_id": "0.0-184.0"}}, {"uniqueid": "MTK0580:3I2PTA7R3U1UHNXFUP31ULQWRB4QKS", "current_trial": 257, "dateTime": 1511224132491, "trialdata": {"rt": -1000, "stimulus": "/static/audio/wordpool/ELBOW.wav", "key_press": -1, "type": "PRES_AUD", "word": "elbow", "wordID": 519, "conditions": [12, 1600, "a", 12000], "trial": 7, "serialpos": 4, "trial_type": "single-audio", "trial_index": 257, "time_elapsed": 3357995, "internal_node_id": "0.0-185.0"}}, {"uniqueid": "MTK0580:3I2PTA7R3U1UHNXFUP31ULQWRB4QKS", "current_trial": 258, "dateTime": 1511224134928, "trialdata": {"rt": -1000, "stimulus": "/static/audio/wordpool/MARINE.wav", "key_press": -1, "type": "PRES_AUD", "word": "marine", "wordID": 868, "conditions": [12, 1600, "a", 12000], "trial": 7, "serialpos": 5, "trial_type": "single-audio", "trial_index": 258, "time_elapsed": 3360432, "internal_node_id": "0.0-186.0"}}, {"uniqueid": "MTK0580:3I2PTA7R3U1UHNXFUP31ULQWRB4QKS", "current_trial": 259, "dateTime": 1511224137420, "trialdata": {"rt": -1000, "stimulus": "/static/audio/wordpool/MISTER.wav", "key_press": -1, "type": "PRES_AUD", "word": "mister", "wordID": 900, "conditions": [12, 1600, "a", 12000], "trial": 7, "serialpos": 6, "trial_type": "single-audio", "trial_index": 259, "time_elapsed": 3362923, "internal_node_id": "0.0-187.0"}}, {"uniqueid": "MTK0580:3I2PTA7R3U1UHNXFUP31ULQWRB4QKS", "current_trial": 260, "dateTime": 1511224139850, "trialdata": {"rt": -1000, "stimulus": "/static/audio/wordpool/LACE.wav", "key_press": -1, "type": "PRES_AUD", "word": "lace", "wordID": 791, "conditions": [12, 1600, "a", 12000], "trial": 7, "serialpos": 7, "trial_type": "single-audio", "trial_index": 260, "time_elapsed": 3365353, "internal_node_id": "0.0-188.0"}}, {"uniqueid": "MTK0580:3I2PTA7R3U1UHNXFUP31ULQWRB4QKS", "current_trial": 261, "dateTime": 1511224142407, "trialdata": {"rt": -1000, "stimulus": "/static/audio/wordpool/KEEPER.wav", "key_press": -1, "type": "PRES_AUD", "word": "keeper", "wordID": 768, "conditions": [12, 1600, "a", 12000], "trial": 7, "serialpos": 8, "trial_type": "single-audio", "trial_index": 261, "time_elapsed": 3367911, "internal_node_id": "0.0-189.0"}}, {"uniqueid": "MTK0580:3I2PTA7R3U1UHNXFUP31ULQWRB4QKS", "current_trial": 262, "dateTime": 1511224145107, "trialdata": {"rt": -1000, "stimulus": "/static/audio/wordpool/SIBLING.wav", "key_press": -1, "type": "PRES_AUD", "word": "sibling", "wordID": 1300, "conditions": [12, 1600, "a", 12000], "trial": 7, "serialpos": 9, "trial_type": "single-audio", "trial_index": 262, "time_elapsed": 3370611, "internal_node_id": "0.0-190.0"}}, {"uniqueid": "MTK0580:3I2PTA7R3U1UHNXFUP31ULQWRB4QKS", "current_trial": 263, "dateTime": 1511224147709, "trialdata": {"rt": -1000, "stimulus": "/static/audio/wordpool/SLIDE.wav", "key_press": -1, "type": "PRES_AUD", "word": "slide", "wordID": 1325, "conditions": [12, 1600, "a", 12000], "trial": 7, "serialpos": 10, "trial_type": "single-audio", "trial_index": 263, "time_elapsed": 3373212, "internal_node_id": "0.0-191.0"}}, {"uniqueid": "MTK0580:3I2PTA7R3U1UHNXFUP31ULQWRB4QKS", "current_trial": 264, "dateTime": 1511224150254, "trialdata": {"rt": -1000, "stimulus": "/static/audio/wordpool/RECORD.wav", "key_press": -1, "type": "PRES_AUD", "word": "record", "wordID": 1175, "conditions": [12, 1600, "a", 12000], "trial": 7, "serialpos": 11, "trial_type": "single-audio", "trial_index": 264, "time_elapsed": 3375757, "internal_node_id": "0.0-192.0"}}, {"uniqueid": "MTK0580:3I2PTA7R3U1UHNXFUP31ULQWRB4QKS", "current_trial": 265, "dateTime": 1511224151480, "trialdata": {"rt": -1, "stimulus": "", "key_press": -1, "type": "PRE_RECALL_DELAY", "trial_type": "single-stim", "trial_index": 265, "time_elapsed": 3376984, "internal_node_id": "0.0-193.0-0.0"}}, {"uniqueid": "MTK0580:3I2PTA7R3U1UHNXFUP31ULQWRB4QKS", "current_trial": 266, "dateTime": 1511224151983, "trialdata": {"rt": -1000, "stimulus": "/static/audio/400Hz.wav", "key_press": -1, "type": "PRE_RECALL_ALERT", "trial_type": "single-audio", "trial_index": 266, "time_elapsed": 3377486, "internal_node_id": "0.0-194.0"}}, {"uniqueid": "MTK0580:3I2PTA7R3U1UHNXFUP31ULQWRB4QKS", "current_trial": 267, "dateTime": 1511224211998, "trialdata": {"rt": [3898, 6998, 10481, 14712, 17298, 21840, 25314, 29050, 31750, 37340, 40174, 47155], "recwords": ["record", "glove", "shoulder", "boyfriend", "plaid", "elbow", "mister", "marine", "lace", "sibling", "slide", "keeper"], "type": "FREE_RECALL", "conditions": [12, 1600, "a", 12000], "trial": 7, "trial_type": "free-recall", "trial_index": 267, "time_elapsed": 3437493, "internal_node_id": "0.0-195.0-0.0"}}, {"uniqueid": "MTK0580:3I2PTA7R3U1UHNXFUP31ULQWRB4QKS", "current_trial": 268, "dateTime": 1511224233218, "trialdata": {"rt": 19215, "key_press": 32, "type": "INSTRUCTIONS", "trial_type": "text", "trial_index": 268, "time_elapsed": 3458721, "internal_node_id": "0.0-196.0"}}, {"uniqueid": "MTK0580:3I2PTA7R3U1UHNXFUP31ULQWRB4QKS", "current_trial": 269, "dateTime": 1511224259271, "trialdata": {"rt": [1779, 5953, 8968, 10466, 12236, 14233, 16726, 18921, 20985], "responses": ["14", "9", "18", "12", "14", "19", "17", "14", "21"], "num1": [6, 4, 6, 9, 1, 5, 5, 7, 5, 2], "num2": [6, 2, 7, 1, 4, 7, 8, 4, 8, 8], "num3": [2, 3, 5, 2, 9, 7, 4, 3, 8, 9], "type": "DISTRACTOR", "conditions": [12, 1600, "a", 24000], "trial": 8, "trial_type": "math-distractor", "trial_index": 269, "time_elapsed": 3484773, "internal_node_id": "0.0-197.0"}}, {"uniqueid": "MTK0580:3I2PTA7R3U1UHNXFUP31ULQWRB4QKS", "current_trial": 270, "dateTime": 1511224262274, "trialdata": {"rt": -1, "stimulus": "<p id=\"stim\">10</p>", "key_press": -1, "trial_type": "single-stim", "trial_index": 270, "time_elapsed": 3487777, "internal_node_id": "0.0-198.0-0.0"}}, {"uniqueid": "MTK0580:3I2PTA7R3U1UHNXFUP31ULQWRB4QKS", "current_trial": 271, "dateTime": 1511224263278, 