{"condition": 0, "counterbalance": 167, "assignmentId": "3UNH76FOCTCYGDO46BXBMKL2DOMMYY", "workerId": "MTK0169", "hitId": "3QD8LUVX4X59LHFUJEPLXK7NCYW5XD", "currenttrial": 625, "bonus": 0, "data": [{"uniqueid": "MTK0169:3UNH76FOCTCYGDO46BXBMKL2DOMMYY", "current_trial": 0, "dateTime": 1509472693269, "trialdata": {"rt": 2556, "key_press": 32, "type": "INSTRUCTIONS", "trial_type": "text", "trial_index": 0, "time_elapsed": 2558, "internal_node_id": "0.0-0.0"}}, {"uniqueid": "MTK0169:3UNH76FOCTCYGDO46BXBMKL2DOMMYY", "current_trial": 1, "dateTime": 1509472706089, "trialdata": {"rt": 12819, "key_press": 32, "type": "INSTRUCTIONS", "trial_type": "text", "trial_index": 1, "time_elapsed": 15379, "internal_node_id": "0.0-1.0"}}, {"uniqueid": "MTK0169:3UNH76FOCTCYGDO46BXBMKL2DOMMYY", "current_trial": 2, "dateTime": 1509472710696, "trialdata": {"rt": [4602], "responses": ["ocean"], "type": "AUDIO_TEST", "trial_type": "audio-test", "trial_index": 2, "time_elapsed": 19986, "internal_node_id": "0.0-2.0"}}, {"uniqueid": "MTK0169:3UNH76FOCTCYGDO46BXBMKL2DOMMYY", "current_trial": 3, "dateTime": 1509472716584, "trialdata": {"rt": [5884], "responses": ["crystal"], "type": "AUDIO_TEST", "trial_type": "audio-test", "trial_index": 3, "time_elapsed": 25874, "internal_node_id": "0.0-3.0"}}, {"uniqueid": "MTK0169:3UNH76FOCTCYGDO46BXBMKL2DOMMYY", "current_trial": 4, "dateTime": 1509472722302, "trialdata": {"rt": [5715], "responses": ["spice"], "type": "AUDIO_TEST", "trial_type": "audio-test", "trial_index": 4, "time_elapsed": 31592, "internal_node_id": "0.0-4.0"}}, {"uniqueid": "MTK0169:3UNH76FOCTCYGDO46BXBMKL2DOMMYY", "current_trial": 5, "dateTime": 1509472727299, "trialdata": {"rt": 4247, "key_press": 32, "type": "INSTRUCTIONS", "trial_type": "text", "trial_index": 5, "time_elapsed": 36589, "internal_node_id": "0.0-5.0"}}, {"uniqueid": "MTK0169:3UNH76FOCTCYGDO46BXBMKL2DOMMYY", "current_trial": 6, "dateTime": 1509472763016, "trialdata": {"rt": 35717, "key_press": 32, "type": "INSTRUCTIONS", "trial_type": "text", "trial_index": 6, "time_elapsed": 72306, "internal_node_id": "0.0-6.0"}}, {"uniqueid": "MTK0169:3UNH76FOCTCYGDO46BXBMKL2DOMMYY", "current_trial": 7, "dateTime": 1509472790338, "trialdata": {"rt": 27322, "key_press": 13, "type": "INSTRUCTIONS", "trial_type": "text", "trial_index": 7, "time_elapsed": 99628, "internal_node_id": "0.0-7.0"}}, {"uniqueid": "MTK0169:3UNH76FOCTCYGDO46BXBMKL2DOMMYY", "current_trial": 8, "dateTime": 1509472802988, "trialdata": {"rt": 12649, "key_press": 13, "type": "INSTRUCTIONS", "trial_type": "text", "trial_index": 8, "time_elapsed": 112278, "internal_node_id": "0.0-8.0"}}, {"uniqueid": "MTK0169:3UNH76FOCTCYGDO46BXBMKL2DOMMYY", "current_trial": 9, "dateTime": 1509472821992, "trialdata": {"rt": [2575, 4554, 7437, 9428, 10890, 14319, 17357], "responses": ["14", "11", "15", "8", "18", "25", "15"], "num1": [5, 3, 5, 1, 7, 9, 3, 3], "num2": [6, 4, 2, 4, 3, 9, 3, 7], "num3": [3, 4, 8, 3, 8, 7, 5, 9], "type": "DISTRACTOR", "conditions": [18, 1200, "v", 18000], "trial": 0, "trial_type": "math-distractor", "trial_index": 9, "time_elapsed": 131282, "internal_node_id": "0.0-9.0"}}, {"uniqueid": "MTK0169:3UNH76FOCTCYGDO46BXBMKL2DOMMYY", "current_trial": 10, "dateTime": 1509472824995, "trialdata": {"rt": -1, "stimulus": "<p id=\"stim\">10</p>", "key_press": -1, "trial_type": "single-stim", "trial_index": 10, "time_elapsed": 134285, "internal_node_id": "0.0-10.0-0.0"}}, {"uniqueid": "MTK0169:3UNH76FOCTCYGDO46BXBMKL2DOMMYY", "current_trial": 11, "dateTime": 1509472825997, "trialdata": {"rt": -1, "stimulus": "<p id=\"stim\">9</p>", "key_press": -1, "trial_type": "single-stim", "trial_index": 11, "time_elapsed": 135287, "internal_node_id": "0.0-10.0-1.0"}}, {"uniqueid": "MTK0169:3UNH76FOCTCYGDO46BXBMKL2DOMMYY", "current_trial": 12, "dateTime": 1509472826998, "trialdata": {"rt": -1, "stimulus": "<p id=\"stim\">8</p>", "key_press": -1, "trial_type": "single-stim", "trial_index": 12, "time_elapsed": 136288, "internal_node_id": "0.0-10.0-2.0"}}, {"uniqueid": "MTK0169:3UNH76FOCTCYGDO46BXBMKL2DOMMYY", "current_trial": 13, "dateTime": 1509472827999, "trialdata": {"rt": -1, "stimulus": "<p id=\"stim\">7</p>", "key_press": -1, "trial_type": "single-stim", "trial_index": 13, "time_elapsed": 137289, "internal_node_id": "0.0-10.0-3.0"}}, {"uniqueid": "MTK0169:3UNH76FOCTCYGDO46BXBMKL2DOMMYY", "current_trial": 14, "dateTime": 1509472829000, "trialdata": {"rt": -1, "stimulus": "<p id=\"stim\">6</p>", "key_press": -1, "trial_type": "single-stim", "trial_index": 14, "time_elapsed": 138290, "internal_node_id": "0.0-10.0-4.0"}}, {"uniqueid": "MTK0169:3UNH76FOCTCYGDO46BXBMKL2DOMMYY", "current_trial": 15, "dateTime": 1509472830002, "trialdata": {"rt": -1, "stimulus": "<p id=\"stim\">5</p>", "key_press": -1, "trial_type": "single-stim", "trial_index": 15, "time_elapsed": 139292, "internal_node_id": "0.0-10.0-5.0"}}, {"uniqueid": "MTK0169:3UNH76FOCTCYGDO46BXBMKL2DOMMYY", "current_trial": 16, "dateTime": 1509472831003, "trialdata": {"rt": -1, "stimulus": "<p id=\"stim\">4</p>", "key_press": -1, "trial_type": "single-stim", "trial_index": 16, "time_elapsed": 140293, "internal_node_id": "0.0-10.0-6.0"}}, {"uniqueid": "MTK0169:3UNH76FOCTCYGDO46BXBMKL2DOMMYY", "current_trial": 17, "dateTime": 1509472832005, "trialdata": {"rt": -1, "stimulus": "<p id=\"stim\">3</p>", "key_press": -1, "trial_type": "single-stim", "trial_index": 17, "time_elapsed": 141295, "internal_node_id": "0.0-10.0-7.0"}}, {"uniqueid": "MTK0169:3UNH76FOCTCYGDO46BXBMKL2DOMMYY", "current_trial": 18, "dateTime": 1509472833005, "trialdata": {"rt": -1, "stimulus": "<p id=\"stim\">2</p>", "key_press": -1, "trial_type": "single-stim", "trial_index": 18, "time_elapsed": 142295, "internal_node_id": "0.0-10.0-8.0"}}, {"uniqueid": "MTK0169:3UNH76FOCTCYGDO46BXBMKL2DOMMYY", "current_trial": 19, "dateTime": 1509472834008, "trialdata": {"rt": -1, "stimulus": "<p id=\"stim\">1</p>", "key_press": -1, "trial_type": "single-stim", "trial_index": 19, "time_elapsed": 143298, "internal_node_id": "0.0-10.0-9.0"}}, {"uniqueid": "MTK0169:3UNH76FOCTCYGDO46BXBMKL2DOMMYY", "current_trial": 20, "dateTime": 1509472835509, "trialdata": {"rt": -1, "stimulus": "<p id=\"stim\">+</p>", "key_press": -1, "type": "FIXATION", "trial_type": "single-stim", "trial_index": 20, "time_elapsed": 144799, "internal_node_id": "0.0-11.0-0.0"}}, {"uniqueid": "MTK0169:3UNH76FOCTCYGDO46BXBMKL2DOMMYY", "current_trial": 21, "dateTime": 1509472836711, "trialdata": {"rt": -1, "stimulus": "<p id=\"stim\">STOVE</p>", "key_press": -1, "type": "PRES_VIS", "word": "stove", "wordID": 1387, "conditions": [18, 1200, "v", 18000], "trial": 0, "serialpos": 0, "trial_type": "single-stim", "trial_index": 21, "time_elapsed": 146001, "internal_node_id": "0.0-12.0"}}, {"uniqueid": "MTK0169:3UNH76FOCTCYGDO46BXBMKL2DOMMYY", "current_trial": 22, "dateTime": 1509472838750, "trialdata": {"rt": -1, "stimulus": "<p id=\"stim\">SUPPER</p>", "key_press": -1, "type": "PRES_VIS", "word": "supper", "wordID": 1410, "conditions": [18, 1200, "v", 18000], "trial": 0, "serialpos": 1, "trial_type": "single-stim", "trial_index": 22, "time_elapsed": 148040, "internal_node_id": "0.0-13.0"}}, {"uniqueid": "MTK0169:3UNH76FOCTCYGDO46BXBMKL2DOMMYY", "current_trial": 23, "dateTime": 1509472840848, "trialdata": {"rt": -1, "stimulus": "<p id=\"stim\">CONVICT</p>", "key_press": -1, "type": "PRES_VIS", "word": "convict", "wordID": 370, "conditions": [18, 1200, "v", 18000], "trial": 0, "serialpos": 2, "trial_type": "single-stim", "trial_index": 23, "time_elapsed": 150138, "internal_node_id": "0.0-14.0"}}, {"uniqueid": "MTK0169:3UNH76FOCTCYGDO46BXBMKL2DOMMYY", "current_trial": 24, "dateTime": 1509472842874, "trialdata": {"rt": -1, "stimulus": "<p id=\"stim\">WRENCH</p>", "key_press": -1, "type": "PRES_VIS", "word": "wrench", "wordID": 1624, "conditions": [18, 1200, "v", 18000], "trial": 0, "serialpos": 3, "trial_type": "single-stim", "trial_index": 24, "time_elapsed": 152164, "internal_node_id": "0.0-15.0"}}, {"uniqueid": "MTK0169:3UNH76FOCTCYGDO46BXBMKL2DOMMYY", "current_trial": 25, "dateTime": 1509472844914, "trialdata": {"rt": -1, "stimulus": "<p id=\"stim\">PUDDLE</p>", "key_press": -1, "type": "PRES_VIS", "word": "puddle", "wordID": 1139, "conditions": [18, 1200, "v", 18000], "trial": 0, "serialpos": 4, "trial_type": "single-stim", "trial_index": 25, "time_elapsed": 154204, "internal_node_id": "0.0-16.0"}}, {"uniqueid": "MTK0169:3UNH76FOCTCYGDO46BXBMKL2DOMMYY", "current_trial": 26, "dateTime": 1509472846919, "trialdata": {"rt": -1, "stimulus": "<p id=\"stim\">GANGSTER</p>", "key_press": -1, "type": "PRES_VIS", "word": "gangster", "wordID": 619, "conditions": [18, 1200, "v", 18000], "trial": 0, "serialpos": 5, "trial_type": "single-stim", "trial_index": 26, "time_elapsed": 156209, "internal_node_id": "0.0-17.0"}}, {"uniqueid": "MTK0169:3UNH76FOCTCYGDO46BXBMKL2DOMMYY", "current_trial": 27, "dateTime": 1509472848989, "trialdata": {"rt": -1, "stimulus": "<p id=\"stim\">LOFT</p>", "key_press": -1, "type": "PRES_VIS", "word": "loft", "wordID": 839, "conditions": [18, 1200, "v", 18000], "trial": 0, "serialpos": 6, "trial_type": "single-stim", "trial_index": 27, "time_elapsed": 158279, "internal_node_id": "0.0-18.0"}}, {"uniqueid": "MTK0169:3UNH76FOCTCYGDO46BXBMKL2DOMMYY", "current_trial": 28, "dateTime": 1509472851165, "trialdata": {"rt": -1, "stimulus": "<p id=\"stim\">CHURCH</p>", "key_press": -1, "type": "PRES_VIS", "word": "church", "wordID": 306, "conditions": [18, 1200, "v", 18000], "trial": 0, "serialpos": 7, "trial_type": "single-stim", "trial_index": 28, "time_elapsed": 160455, "internal_node_id": "0.0-19.0"}}, {"uniqueid": "MTK0169:3UNH76FOCTCYGDO46BXBMKL2DOMMYY", "current_trial": 29, "dateTime": 1509472853276, "trialdata": {"rt": -1, "stimulus": "<p id=\"stim\">PIGMENT</p>", "key_press": -1, "type": "PRES_VIS", "word": "pigment", "wordID": 1065, "conditions": [18, 1200, "v", 18000], "trial": 0, "serialpos": 8, "trial_type": "single-stim", "trial_index": 29, "time_elapsed": 162566, "internal_node_id": "0.0-20.0"}}, {"uniqueid": "MTK0169:3UNH76FOCTCYGDO46BXBMKL2DOMMYY", "current_trial": 30, "dateTime": 1509472855350, "trialdata": {"rt": -1, "stimulus": "<p id=\"stim\">FINGER</p>", "key_press": -1, "type": "PRES_VIS", "word": "finger", "wordID": 566, "conditions": [18, 1200, "v", 18000], "trial": 0, "serialpos": 9, "trial_type": "single-stim", "trial_index": 30, "time_elapsed": 164640, "internal_node_id": "0.0-21.0"}}, {"uniqueid": "MTK0169:3UNH76FOCTCYGDO46BXBMKL2DOMMYY", "current_trial": 31, "dateTime": 1509472857467, "trialdata": {"rt": -1, "stimulus": "<p id=\"stim\">BANKER</p>", "key_press": -1, "type": "PRES_VIS", "word": "banker", "wordID": 83, "conditions": [18, 1200, "v", 18000], "trial": 0, "serialpos": 10, "trial_type": "single-stim", "trial_index": 31, "time_elapsed": 166757, "internal_node_id": "0.0-22.0"}}, {"uniqueid": "MTK0169:3UNH76FOCTCYGDO46BXBMKL2DOMMYY", "current_trial": 32, "dateTime": 1509472859735, "trialdata": {"rt": -1, "stimulus": "<p id=\"stim\">OUTFIT</p>", "key_press": -1, "type": "PRES_VIS", "word": "outfit", "wordID": 987, "conditions": [18, 1200, "v", 18000], "trial": 0, "serialpos": 11, "trial_type": "single-stim", "trial_index": 32, "time_elapsed": 169025, "internal_node_id": "0.0-23.0"}}, {"uniqueid": "MTK0169:3UNH76FOCTCYGDO46BXBMKL2DOMMYY", "current_trial": 33, "dateTime": 1509472862108, "trialdata": {"rt": -1, "stimulus": "<p id=\"stim\">CURTAIN</p>", "key_press": -1, "type": "PRES_VIS", "word": "curtain", "wordID": 426, "conditions": [18, 1200, "v", 18000], "trial": 0, "serialpos": 12, "trial_type": "single-stim", "trial_index": 33, "time_elapsed": 171398, "internal_node_id": "0.0-24.0"}}, {"uniqueid": "MTK0169:3UNH76FOCTCYGDO46BXBMKL2DOMMYY", "current_trial": 34, "dateTime": 1509472864312, "trialdata": {"rt": -1, "stimulus": "<p id=\"stim\">EUROPE</p>", "key_press": -1, "type": "PRES_VIS", "word": "europe", "wordID": 540, "conditions": [18, 1200, "v", 18000], "trial": 0, "serialpos": 13, "trial_type": "single-stim", "trial_index": 34, "time_elapsed": 173602, "internal_node_id": "0.0-25.0"}}, {"uniqueid": "MTK0169:3UNH76FOCTCYGDO46BXBMKL2DOMMYY", "current_trial": 35, "dateTime": 1509472866520, "trialdata": {"rt": -1, "stimulus": "<p id=\"stim\">FRUIT</p>", "key_press": -1, "type": "PRES_VIS", "word": "fruit", "wordID": 609, "conditions": [18, 1200, "v", 18000], "trial": 0, "serialpos": 14, "trial_type": "single-stim", "trial_index": 35, "time_elapsed": 175810, "internal_node_id": "0.0-26.0"}}, {"uniqueid": "MTK0169:3UNH76FOCTCYGDO46BXBMKL2DOMMYY", "current_trial": 36, "dateTime": 1509472868817, "trialdata": {"rt": -1, "stimulus": "<p id=\"stim\">TWISTER</p>", "key_press": -1, "type": "PRES_VIS", "word": "twister", "wordID": 1529, "conditions": [18, 1200, "v", 18000], "trial": 0, "serialpos": 15, "trial_type": "single-stim", "trial_index": 36, "time_elapsed": 178107, "internal_node_id": "0.0-27.0"}}, {"uniqueid": "MTK0169:3UNH76FOCTCYGDO46BXBMKL2DOMMYY", "current_trial": 37, "dateTime": 1509472870936, "trialdata": {"rt": -1, "stimulus": "<p id=\"stim\">SUITCASE</p>", "key_press": -1, "type": "PRES_VIS", "word": "suitcase", "wordID": 1402, "conditions": [18, 1200, "v", 18000], "trial": 0, "serialpos": 16, "trial_type": "single-stim", "trial_index": 37, "time_elapsed": 180226, "internal_node_id": "0.0-28.0"}}, {"uniqueid": "MTK0169:3UNH76FOCTCYGDO46BXBMKL2DOMMYY", "current_trial": 38, "dateTime": 1509472873312, "trialdata": {"rt": -1, "stimulus": "<p id=\"stim\">BODY</p>", "key_press": -1, "type": "PRES_VIS", "word": "body", "wordID": 144, "conditions": [18, 1200, "v", 18000], "trial": 0, "serialpos": 17, "trial_type": "single-stim", "trial_index": 38, "time_elapsed": 182602, "internal_node_id": "0.0-29.0"}}, {"uniqueid": "MTK0169:3UNH76FOCTCYGDO46BXBMKL2DOMMYY", "current_trial": 39, "dateTime": 1509472875837, "trialdata": {"rt": -1, "stimulus": "", "key_press": -1, "type": "PRE_RECALL_DELAY", "trial_type": "single-stim", "trial_index": 39, "time_elapsed": 185127, "internal_node_id": "0.0-30.0-0.0"}}, {"uniqueid": "MTK0169:3UNH76FOCTCYGDO46BXBMKL2DOMMYY", "current_trial": 40, "dateTime": 1509472876339, "trialdata": {"rt": -1000, "stimulus": "/static/audio/400Hz.wav", "key_press": -1, "type": "PRE_RECALL_ALERT", "trial_type": "single-audio", "trial_index": 40, "time_elapsed": 185629, "internal_node_id": "0.0-31.0"}}, {"uniqueid": "MTK0169:3UNH76FOCTCYGDO46BXBMKL2DOMMYY", "current_trial": 41, "dateTime": 1509472936344, "trialdata": {"rt": [5234, 7783, 10755, 12882, 16914, 19211, 21691, 29186, 39590, 44712], "recwords": ["europe", "body", "fruit", "loft", "gangster", "stove", "supper", "paddle", "body", "suitcase"], "type": "FREE_RECALL", "conditions": [18, 1200, "v", 18000], "trial": 0, "trial_type": "free-recall", "trial_index": 41, "time_elapsed": 245632, "internal_node_id": "0.0-32.0-0.0"}}, {"uniqueid": "MTK0169:3UNH76FOCTCYGDO46BXBMKL2DOMMYY", "current_trial": 42, "dateTime": 1509472942741, "trialdata": {"rt": 4396, "key_press": 32, "type": "INSTRUCTIONS", "trial_type": "text", "trial_index": 42, "time_elapsed": 252031, "internal_node_id": "0.0-33.0"}}, {"uniqueid": "MTK0169:3UNH76FOCTCYGDO46BXBMKL2DOMMYY", "current_trial": 43, "dateTime": 1509472962745, "trialdata": {"rt": [2588, 4560, 7295, 11281, 13064, 15595, 17663], "responses": ["15", "14", "20", "12", "17", "22", "7"], "num1": [3, 3, 4, 3, 8, 4, 1, 1], "num2": [8, 7, 7, 4, 7, 9, 4, 9], "num3": [4, 4, 9, 5, 2, 9, 2, 2], "type": "DISTRACTOR", "conditions": [18, 1200, "a", 18000], "trial": 1, "trial_type": "math-distractor", "trial_index": 43, "time_elapsed": 272035, "internal_node_id": "0.0-34.0"}}, {"uniqueid": "MTK0169:3UNH76FOCTCYGDO46BXBMKL2DOMMYY", "current_trial": 44, "dateTime": 1509472965751, "trialdata": {"rt": -1, "stimulus": "<p id=\"stim\">10</p>", "key_press": -1, "trial_type": "single-stim", "trial_index": 44, "time_elapsed": 275041, "internal_node_id": "0.0-35.0-0.0"}}, {"uniqueid": "MTK0169:3UNH76FOCTCYGDO46BXBMKL2DOMMYY", "current_trial": 45, "dateTime": 1509472966752, "trialdata": {"rt": -1, "stimulus": "<p id=\"stim\">9</p>", "key_press": -1, "trial_type": "single-stim", "trial_index": 45, "time_elapsed": 276042, "internal_node_id": "0.0-35.0-1.0"}}, {"uniqueid": "MTK0169:3UNH76FOCTCYGDO46BXBMKL2DOMMYY", "current_trial": 46, "dateTime": 1509472967754, "trialdata": {"rt": -1, "stimulus": "<p id=\"stim\">8</p>", "key_press": -1, "trial_type": "single-stim", "trial_index": 46, "time_elapsed": 277044, "internal_node_id": "0.0-35.0-2.0"}}, {"uniqueid": "MTK0169:3UNH76FOCTCYGDO46BXBMKL2DOMMYY", "current_trial": 47, "dateTime": 1509472968754, "trialdata": {"rt": -1, "stimulus": "<p id=\"stim\">7</p>", "key_press": -1, "trial_type": "single-stim", "trial_index": 47, "time_elapsed": 278044, "internal_node_id": "0.0-35.0-3.0"}}, {"uniqueid": "MTK0169:3UNH76FOCTCYGDO46BXBMKL2DOMMYY", "current_trial": 48, "dateTime": 1509472969755, "trialdata": {"rt": -1, "stimulus": "<p id=\"stim\">6</p>", "key_press": -1, "trial_type": "single-stim", "trial_index": 48, "time_elapsed": 279045, "internal_node_id": "0.0-35.0-4.0"}}, {"uniqueid": "MTK0169:3UNH76FOCTCYGDO46BXBMKL2DOMMYY", "current_trial": 49, "dateTime": 1509472970756, "trialdata": {"rt": -1, "stimulus": "<p id=\"stim\">5</p>", "key_press": -1, "trial_type": "single-stim", "trial_index": 49, "time_elapsed": 280046, "internal_node_id": "0.0-35.0-5.0"}}, {"uniqueid": "MTK0169:3UNH76FOCTCYGDO46BXBMKL2DOMMYY", "current_trial": 50, "dateTime": 1509472971757, "trialdata": {"rt": -1, "stimulus": "<p id=\"stim\">4</p>", "key_press": -1, "trial_type": "single-stim", "trial_index": 50, "time_elapsed": 281047, "internal_node_id": "0.0-35.0-6.0"}}, {"uniqueid": "MTK0169:3UNH76FOCTCYGDO46BXBMKL2DOMMYY", "current_trial": 51, "dateTime": 1509472972758, "trialdata": {"rt": -1, "stimulus": "<p id=\"stim\">3</p>", "key_press": -1, "trial_type": "single-stim", "trial_index": 51, "time_elapsed": 282048, "internal_node_id": "0.0-35.0-7.0"}}, {"uniqueid": "MTK0169:3UNH76FOCTCYGDO46BXBMKL2DOMMYY", "current_trial": 52, "dateTime": 1509472973759, "trialdata": {"rt": -1, "stimulus": "<p id=\"stim\">2</p>", "key_press": -1, "trial_type": "single-stim", "trial_index": 52, "time_elapsed": 283049, "internal_node_id": "0.0-35.0-8.0"}}, {"uniqueid": "MTK0169:3UNH76FOCTCYGDO46BXBMKL2DOMMYY", "current_trial": 53, "dateTime": 1509472974760, "trialdata": {"rt": -1, "stimulus": "<p id=\"stim\">1</p>", "key_press": -1, "trial_type": "single-stim", "trial_index": 53, "time_elapsed": 284050, "internal_node_id": "0.0-35.0-9.0"}}, {"uniqueid": "MTK0169:3UNH76FOCTCYGDO46BXBMKL2DOMMYY", "current_trial": 54, "dateTime": 1509472976261, "trialdata": {"rt": -1, "stimulus": "<p id=\"stim\">+</p>", "key_press": -1, "type": "FIXATION", "trial_type": "single-stim", "trial_index": 54, "time_elapsed": 285551, "internal_node_id": "0.0-36.0-0.0"}}, {"uniqueid": "MTK0169:3UNH76FOCTCYGDO46BXBMKL2DOMMYY", "current_trial": 55, "dateTime": 1509472978547, "trialdata": {"rt": -1000, "stimulus": "/static/audio/wordpool/ACTRESS.wav", "key_press": -1, "type": "PRES_AUD", "word": "actress", "wordID": 5, "conditions": [18, 1200, "a", 18000], "trial": 1, "serialpos": 0, "trial_type": "single-audio", "trial_index": 55, "time_elapsed": 287837, "internal_node_id": "0.0-37.0"}}, {"uniqueid": "MTK0169:3UNH76FOCTCYGDO46BXBMKL2DOMMYY", "current_trial": 56, "dateTime": 1509472980745, "trialdata": {"rt": -1000, "stimulus": "/static/audio/wordpool/JOURNAL.wav", "key_press": -1, "type": "PRES_AUD", "word": "journal", "wordID": 759, "conditions": [18, 1200, "a", 18000], "trial": 1, "serialpos": 1, "trial_type": "single-audio", "trial_index": 56, "time_elapsed": 290035, "internal_node_id": "0.0-38.0"}}, {"uniqueid": "MTK0169:3UNH76FOCTCYGDO46BXBMKL2DOMMYY", "current_trial": 57, "dateTime": 1509472982900, "trialdata": {"rt": -1000, "stimulus": "/static/audio/wordpool/BASEMENT.wav", "key_press": -1, "type": "PRES_AUD", "word": "basement", "wordID": 93, "conditions": [18, 1200, "a", 18000], "trial": 1, "serialpos": 2, "trial_type": "single-audio", "trial_index": 57, "time_elapsed": 292190, "internal_node_id": "0.0-39.0"}}, {"uniqueid": "MTK0169:3UNH76FOCTCYGDO46BXBMKL2DOMMYY", "current_trial": 58, "dateTime": 1509472985166, "trialdata": {"rt": -1000, "stimulus": "/static/audio/wordpool/VENUS.wav", "key_press": -1, "type": "PRES_AUD", "word": "venus", "wordID": 1556, "conditions": [18, 1200, "a", 18000], "trial": 1, "serialpos": 3, "trial_type": "single-audio", "trial_index": 58, "time_elapsed": 294456, "internal_node_id": "0.0-40.0"}}, {"uniqueid": "MTK0169:3UNH76FOCTCYGDO46BXBMKL2DOMMYY", "current_trial": 59, "dateTime": 1509472987343, "trialdata": {"rt": -1000, "stimulus": "/static/audio/wordpool/CRICKET.wav", "key_press": -1, "type": "PRES_AUD", "word": "cricket", "wordID": 407, "conditions": [18, 1200, "a", 18000], "trial": 1, "serialpos": 4, "trial_type": "single-audio", "trial_index": 59, "time_elapsed": 296633, "internal_node_id": "0.0-41.0"}}, {"uniqueid": "MTK0169:3UNH76FOCTCYGDO46BXBMKL2DOMMYY", "current_trial": 60, "dateTime": 1509472989694, "trialdata": {"rt": -1000, "stimulus": "/static/audio/wordpool/PADDING.wav", "key_press": -1, "type": "PRES_AUD", "word": "padding", "wordID": 998, "conditions": [18, 1200, "a", 18000], "trial": 1, "serialpos": 5, "trial_type": "single-audio", "trial_index": 60, "time_elapsed": 298984, "internal_node_id": "0.0-42.0"}}, {"uniqueid": "MTK0169:3UNH76FOCTCYGDO46BXBMKL2DOMMYY", "current_trial": 61, "dateTime": 1509472992042, "trialdata": {"rt": -1000, "stimulus": "/static/audio/wordpool/MATTRESS.wav", "key_press": -1, "type": "PRES_AUD", "word": "mattress", "wordID": 878, "conditions": [18, 1200, "a", 18000], "trial": 1, "serialpos": 6, "trial_type": "single-audio", "trial_index": 61, "time_elapsed": 301332, "internal_node_id": "0.0-43.0"}}, {"uniqueid": "MTK0169:3UNH76FOCTCYGDO46BXBMKL2DOMMYY", "current_trial": 62, "dateTime": 1509472994392, "trialdata": {"rt": -1000, "stimulus": "/static/audio/wordpool/POPCORN.wav", "key_press": -1, "type": "PRES_AUD", "word": "popcorn", "wordID": 1103, "conditions": [18, 1200, "a", 18000], "trial": 1, "serialpos": 7, "trial_type": "single-audio", "trial_index": 62, "time_elapsed": 303681, "internal_node_id": "0.0-44.0"}}, {"uniqueid": "MTK0169:3UNH76FOCTCYGDO46BXBMKL2DOMMYY", "current_trial": 63, "dateTime": 1509472996666, "trialdata": {"rt": -1000, "stimulus": "/static/audio/wordpool/COOK.wav", "key_press": -1, "type": "PRES_AUD", "word": "cook", "wordID": 371, "conditions": [18, 1200, "a", 18000], "trial": 1, "serialpos": 8, "trial_type": "single-audio", "trial_index": 63, "time_elapsed": 305956, "internal_node_id": "0.0-45.0"}}, {"uniqueid": "MTK0169:3UNH76FOCTCYGDO46BXBMKL2DOMMYY", "current_trial": 64, "dateTime": 1509472998727, "trialdata": {"rt": -1000, "stimulus": "/static/audio/wordpool/OINTMENT.wav", "key_press": -1, "type": "PRES_AUD", "word": "ointment", "wordID": 973, "conditions": [18, 1200, "a", 18000], "trial": 1, "serialpos": 9, "trial_type": "single-audio", "trial_index": 64, "time_elapsed": 308017, "internal_node_id": "0.0-46.0"}}, {"uniqueid": "MTK0169:3UNH76FOCTCYGDO46BXBMKL2DOMMYY", "current_trial": 65, "dateTime": 1509473000970, "trialdata": {"rt": -1000, "stimulus": "/static/audio/wordpool/JELLO.wav", "key_press": -1, "type": "PRES_AUD", "word": "jello", "wordID": 753, "conditions": [18, 1200, "a", 18000], "trial": 1, "serialpos": 10, "trial_type": "single-audio", "trial_index": 65, "time_elapsed": 310260, "internal_node_id": "0.0-47.0"}}, {"uniqueid": "MTK0169:3UNH76FOCTCYGDO46BXBMKL2DOMMYY", "current_trial": 66, "dateTime": 1509473003122, "trialdata": {"rt": -1000, "stimulus": "/static/audio/wordpool/RUST.wav", "key_press": -1, "type": "PRES_AUD", "word": "rust", "wordID": 1218, "conditions": [18, 1200, "a", 18000], "trial": 1, "serialpos": 11, "trial_type": "single-audio", "trial_index": 66, "time_elapsed": 312412, "internal_node_id": "0.0-48.0"}}, {"uniqueid": "MTK0169:3UNH76FOCTCYGDO46BXBMKL2DOMMYY", "current_trial": 67, "dateTime": 1509473005503, "trialdata": {"rt": -1000, "stimulus": "/static/audio/wordpool/SPONGE.wav", "key_press": -1, "type": "PRES_AUD", "word": "sponge", "wordID": 1354, "conditions": [18, 1200, "a", 18000], "trial": 1, "serialpos": 12, "trial_type": "single-audio", "trial_index": 67, "time_elapsed": 314793, "internal_node_id": "0.0-49.0"}}, {"uniqueid": "MTK0169:3UNH76FOCTCYGDO46BXBMKL2DOMMYY", "current_trial": 68, "dateTime": 1509473007706, "trialdata": {"rt": -1000, "stimulus": "/static/audio/wordpool/GAZELLE.wav", "key_press": -1, "type": "PRES_AUD", "word": "gazelle", "wordID": 627, "conditions": [18, 1200, "a", 18000], "trial": 1, "serialpos": 13, "trial_type": "single-audio", "trial_index": 68, "time_elapsed": 316995, "internal_node_id": "0.0-50.0"}}, {"uniqueid": "MTK0169:3UNH76FOCTCYGDO46BXBMKL2DOMMYY", "current_trial": 69, "dateTime": 1509473009857, "trialdata": {"rt": -1000, "stimulus": "/static/audio/wordpool/BUREAU.wav", "key_press": -1, "type": "PRES_AUD", "word": "bureau", "wordID": 198, "conditions": [18, 1200, "a", 18000], "trial": 1, "serialpos": 14, "trial_type": "single-audio", "trial_index": 69, "time_elapsed": 319147, "internal_node_id": "0.0-51.0"}}, {"uniqueid": "MTK0169:3UNH76FOCTCYGDO46BXBMKL2DOMMYY", "current_trial": 70, "dateTime": 1509473011997, "trialdata": {"rt": -1000, "stimulus": "/static/audio/wordpool/LABEL.wav", "key_press": -1, "type": "PRES_AUD", "word": "label", "wordID": 789, "conditions": [18, 1200, "a", 18000], "trial": 1, "serialpos": 15, "trial_type": "single-audio", "trial_index": 70, "time_elapsed": 321287, "internal_node_id": "0.0-52.0"}}, {"uniqueid": "MTK0169:3UNH76FOCTCYGDO46BXBMKL2DOMMYY", "current_trial": 71, "dateTime": 1509473014261, "trialdata": {"rt": -1000, "stimulus": "/static/audio/wordpool/DRAWING.wav", "key_press": -1, "type": "PRES_AUD", "word": "drawing", "wordID": 493, "conditions": [18, 1200, "a", 18000], "trial": 1, "serialpos": 16, "trial_type": "single-audio", "trial_index": 71, "time_elapsed": 323551, "internal_node_id": "0.0-53.0"}}, {"uniqueid": "MTK0169:3UNH76FOCTCYGDO46BXBMKL2DOMMYY", "current_trial": 72, "dateTime": 1509473016393, "trialdata": {"rt": -1000, "stimulus": "/static/audio/wordpool/GRAPE.wav", "key_press": -1, "type": "PRES_AUD", "word": "grape", "wordID": 653, "conditions": [18, 1200, "a", 18000], "trial": 1, "serialpos": 17, "trial_type": "single-audio", "trial_index": 72, "time_elapsed": 325683, "internal_node_id": "0.0-54.0"}}, {"uniqueid": "MTK0169:3UNH76FOCTCYGDO46BXBMKL2DOMMYY", "current_trial": 73, "dateTime": 1509473017666, "trialdata": {"rt": -1, "stimulus": "", "key_press": -1, "type": "PRE_RECALL_DELAY", "trial_type": "single-stim", "trial_index": 73, "time_elapsed": 326956, "internal_node_id": "0.0-55.0-0.0"}}, {"uniqueid": "MTK0169:3UNH76FOCTCYGDO46BXBMKL2DOMMYY", "current_trial": 74, "dateTime": 1509473018167, "trialdata": {"rt": -1000, "stimulus": "/static/audio/400Hz.wav", "key_press": -1, "type": "PRE_RECALL_ALERT", "trial_type": "single-audio", "trial_index": 74, "time_elapsed": 327457, "internal_node_id": "0.0-56.0"}}, {"uniqueid": "MTK0169:3UNH76FOCTCYGDO46BXBMKL2DOMMYY", "current_trial": 75, "dateTime": 1509473078169, "trialdata": {"rt": [6348, 7639, 9683, 16037, 16865, 25138, 25968, 35064, 52262], "recwords": ["cricket", "grape", "drawing", "popcorn", "cook", "ointment", "rust", "gazelle", "venus"], "type": "FREE_RECALL", "conditions": [18, 1200, "a", 18000], "trial": 1, "trial_type": "free-recall", "trial_index": 75, "time_elapsed": 387458, "internal_node_id": "0.0-57.0-0.0"}}, {"uniqueid": "MTK0169:3UNH76FOCTCYGDO46BXBMKL2DOMMYY", "current_trial": 76, "dateTime": 1509473084548, "trialdata": {"rt": 4378, "key_press": 32, "type": "INSTRUCTIONS", "trial_type": "text", "trial_index": 76, "time_elapsed": 393838, "internal_node_id": "0.0-58.0"}}, {"uniqueid": "MTK0169:3UNH76FOCTCYGDO46BXBMKL2DOMMYY", "current_trial": 77, "dateTime": 1509473097551, "trialdata": {"rt": [4566, 7730, 9940], "responses": ["24", "15", "5"], "num1": [9, 8, 2, 6], "num2": [9, 4, 2, 7], "num3": [6, 3, 1, 4], "type": "DISTRACTOR", "conditions": [24, 800, "v", 12000], "trial": 2, "trial_type": "math-distractor", "trial_index": 77, "time_elapsed": 406841, "internal_node_id": "0.0-59.0"}}, {"uniqueid": "MTK0169:3UNH76FOCTCYGDO46BXBMKL2DOMMYY", "current_trial": 78, "dateTime": 1509473100554, "trialdata": {"rt": -1, "stimulus": "<p id=\"stim\">10</p>", "key_press": -1, "trial_type": "single-stim", "trial_index": 78, "time_elapsed": 409844, "internal_node_id": "0.0-60.0-0.0"}}, {"uniqueid": "MTK0169:3UNH76FOCTCYGDO46BXBMKL2DOMMYY", "current_trial": 79, "dateTime": 1509473101556, "trialdata": {"rt": -1, "stimulus": "<p id=\"stim\">9</p>", "key_press": -1, "trial_type": "single-stim", "trial_index": 79, "time_elapsed": 410846, "internal_node_id": "0.0-60.0-1.0"}}, {"uniqueid": "MTK0169:3UNH76FOCTCYGDO46BXBMKL2DOMMYY", "current_trial": 80, "dateTime": 1509473102558, "trialdata": {"rt": -1, "stimulus": "<p id=\"stim\">8</p>", "key_press": -1, "trial_type": "single-stim", "trial_index": 80, "time_elapsed": 411848, "internal_node_id": "0.0-60.0-2.0"}}, {"uniqueid": "MTK0169:3UNH76FOCTCYGDO46BXBMKL2DOMMYY", "current_trial": 81, "dateTime": 1509473103558, "trialdata": {"rt": -1, "stimulus": "<p id=\"stim\">7</p>", "key_press": -1, "trial_type": "single-stim", "trial_index": 81, "time_elapsed": 412848, "internal_node_id": "0.0-60.0-3.0"}}, {"uniqueid": "MTK0169:3UNH76FOCTCYGDO46BXBMKL2DOMMYY", "current_trial": 82, "dateTime": 1509473104559, "trialdata": {"rt": -1, "stimulus": "<p id=\"stim\">6</p>", "key_press": -1, "trial_type": "single-stim", "trial_index": 82, "time_elapsed": 413849, "internal_node_id": "0.0-60.0-4.0"}}, {"uniqueid": "MTK0169:3UNH76FOCTCYGDO46BXBMKL2DOMMYY", "current_trial": 83, "dateTime": 1509473105560, "trialdata": {"rt": -1, "stimulus": "<p id=\"stim\">5</p>", "key_press": -1, "trial_type": "single-stim", "trial_index": 83, "time_elapsed": 414850, "internal_node_id": "0.0-60.0-5.0"}}, {"uniqueid": "MTK0169:3UNH76FOCTCYGDO46BXBMKL2DOMMYY", "current_trial": 84, "dateTime": 1509473106562, "trialdata": {"rt": -1, "stimulus": "<p id=\"stim\">4</p>", "key_press": -1, "trial_type": "single-stim", "trial_index": 84, "time_elapsed": 415852, "internal_node_id": "0.0-60.0-6.0"}}, {"uniqueid": "MTK0169:3UNH76FOCTCYGDO46BXBMKL2DOMMYY", "current_trial": 85, "dateTime": 1509473107562, "trialdata": {"rt": -1, "stimulus": "<p id=\"stim\">3</p>", "key_press": -1, "trial_type": "single-stim", "trial_index": 85, "time_elapsed": 416852, "internal_node_id": "0.0-60.0-7.0"}}, {"uniqueid": "MTK0169:3UNH76FOCTCYGDO46BXBMKL2DOMMYY", "current_trial": 86, "dateTime": 1509473108564, "trialdata": {"rt": -1, "stimulus": "<p id=\"stim\">2</p>", "key_press": -1, "trial_type": "single-stim", "trial_index": 86, "time_elapsed": 417854, "internal_node_id": "0.0-60.0-8.0"}}, {"uniqueid": "MTK0169:3UNH76FOCTCYGDO46BXBMKL2DOMMYY", "current_trial": 87, "dateTime": 1509473109565, "trialdata": {"rt": -1, "stimulus": "<p id=\"stim\">1</p>", "key_press": -1, "trial_type": "single-stim", "trial_index": 87, "time_elapsed": 418855, "internal_node_id": "0.0-60.0-9.0"}}, {"uniqueid": "MTK0169:3UNH76FOCTCYGDO46BXBMKL2DOMMYY", "current_trial": 88, "dateTime": 1509473111066, "trialdata": {"rt": -1, "stimulus": "<p id=\"stim\">+</p>", "key_press": -1, "type": "FIXATION", "trial_type": "single-stim", "trial_index": 88, "time_elapsed": 420356, "internal_node_id": "0.0-61.0-0.0"}}, {"uniqueid": "MTK0169:3UNH76FOCTCYGDO46BXBMKL2DOMMYY", "current_trial": 89, "dateTime": 1509473111868, "trialdata": {"rt": -1, "stimulus": "<p id=\"stim\">AIRPLANE</p>", "key_press": -1, "type": "PRES_VIS", "word": "airplane", "wordID": 11, "conditions": [24, 800, "v", 12000], "trial": 2, "serialpos": 0, "trial_type": "single-stim", "trial_index": 89, "time_elapsed": 421158, "internal_node_id": "0.0-62.0"}}, {"uniqueid": "MTK0169:3UNH76FOCTCYGDO46BXBMKL2DOMMYY", "current_trial": 90, "dateTime": 1509473113820, "trialdata": {"rt": -1, "stimulus": "<p id=\"stim\">RIVER</p>", "key_press": -1, "type": "PRES_VIS", "word": "river", "wordID": 1193, "conditions": [24, 800, "v", 12000], "trial": 2, "serialpos": 1, "trial_type": "single-stim", "trial_index": 90, "time_elapsed": 423110, "internal_node_id": "0.0-63.0"}}, {"uniqueid": "MTK0169:3UNH76FOCTCYGDO46BXBMKL2DOMMYY", "current_trial": 91, "dateTime": 1509473115627, "trialdata": {"rt": -1, "stimulus": "<p id=\"stim\">WARDROBE</p>", "key_press": -1, "type": "PRES_VIS", "word": "wardrobe", "wordID": 1586, "conditions": [24, 800, "v", 12000], "trial": 2, "serialpos": 2, "trial_type": "single-stim", "trial_index": 91, "time_elapsed": 424917, "internal_node_id": "0.0-64.0"}}, {"uniqueid": "MTK0169:3UNH76FOCTCYGDO46BXBMKL2DOMMYY", "current_trial": 92, "dateTime": 1509473117364, "trialdata": {"rt": -1, "stimulus": "<p id=\"stim\">COSTUME</p>", "key_press": -1, "type": "PRES_VIS", "word": "costume", "wordID": 382, "conditions": [24, 800, "v", 12000], "trial": 2, "serialpos": 3, "trial_type": "single-stim", "trial_index": 92, "time_elapsed": 426654, "internal_node_id": "0.0-65.0"}}, {"uniqueid": "MTK0169:3UNH76FOCTCYGDO46BXBMKL2DOMMYY", "current_trial": 93, "dateTime": 1509473119070, "trialdata": {"rt": -1, "stimulus": "<p id=\"stim\">CREVICE</p>", "key_press": -1, "type": "PRES_VIS", "word": "crevice", "wordID": 404, "conditions": [24, 800, "v", 12000], "trial": 2, "serialpos": 4, "trial_type": "single-stim", "trial_index": 93, "time_elapsed": 428360, "internal_node_id": "0.0-66.0"}}, {"uniqueid": "MTK0169:3UNH76FOCTCYGDO46BXBMKL2DOMMYY", "current_trial": 94, "dateTime": 1509473120684, "trialdata": {"rt": -1, "stimulus": "<p id=\"stim\">SHOVEL</p>", "key_press": -1, "type": "PRES_VIS", "word": "shovel", "wordID": 1294, "conditions": [24, 800, "v", 12000], "trial": 2, "serialpos": 5, "trial_type": "single-stim", "trial_index": 94, "time_elapsed": 429974, "internal_node_id": "0.0-67.0"}}, {"uniqueid": "MTK0169:3UNH76FOCTCYGDO46BXBMKL2DOMMYY", "current_trial": 95, "dateTime": 1509473122593, "trialdata": {"rt": -1, "stimulus": "<p id=\"stim\">WOMAN</p>", "key_press": -1, "type": "PRES_VIS", "word": "woman", "wordID": 1619, "conditions": [24, 800, "v", 12000], "trial": 2, "serialpos": 6, "trial_type": "single-stim", "trial_index": 95, "time_elapsed": 431883, "internal_node_id": "0.0-68.0"}}, {"uniqueid": "MTK0169:3UNH76FOCTCYGDO46BXBMKL2DOMMYY", "current_trial": 96, "dateTime": 1509473124210, "trialdata": {"rt": -1, "stimulus": "<p id=\"stim\">TEACHER</p>", "key_press": -1, "type": "PRES_VIS", "word": "teacher", "wordID": 1439, "conditions": [24, 800, "v", 12000], "trial": 2, "serialpos": 7, "trial_type": "single-stim", "trial_index": 96, "time_elapsed": 433500, "internal_node_id": "0.0-69.0"}}, {"uniqueid": "MTK0169:3UNH76FOCTCYGDO46BXBMKL2DOMMYY", "current_trial": 97, "dateTime": 1509473125891, "trialdata": {"rt": -1, "stimulus": "<p id=\"stim\">SLIDE</p>", "key_press": -1, "type": "PRES_VIS", "word": "slide", "wordID": 1325, "conditions": [24, 800, "v", 12000], "trial": 2, "serialpos": 8, "trial_type": "single-stim", "trial_index": 97, "time_elapsed": 435181, "internal_node_id": "0.0-70.0"}}, {"uniqueid": "MTK0169:3UNH76FOCTCYGDO46BXBMKL2DOMMYY", "current_trial": 98, "dateTime": 1509473127769, "trialdata": {"rt": -1, "stimulus": "<p id=\"stim\">LAGOON</p>", "key_press": -1, "type": "PRES_VIS", "word": "lagoon", "wordID": 794, "conditions": [24, 800, "v", 12000], "trial": 2, "serialpos": 9, "trial_type": "single-stim", "trial_index": 98, "time_elapsed": 437059, "internal_node_id": "0.0-71.0"}}, {"uniqueid": "MTK0169:3UNH76FOCTCYGDO46BXBMKL2DOMMYY", "current_trial": 99, "dateTime": 1509473129562, "trialdata": {"rt": -1, "stimulus": "<p id=\"stim\">CANYON</p>", "key_press": -1, "type": "PRES_VIS", "word": "canyon", "wordID": 234, "conditions": [24, 800, "v", 12000], "trial": 2, "serialpos": 10, "trial_type": "single-stim", "trial_index": 99, "time_elapsed": 438852, "internal_node_id": "0.0-72.0"}}, {"uniqueid": "MTK0169:3UNH76FOCTCYGDO46BXBMKL2DOMMYY", "current_trial": 100, "dateTime": 1509473131394, "trialdata": {"rt": -1, "stimulus": "<p id=\"stim\">SEAL</p>", "key_press": -1, "type": "PRES_VIS", "word": "seal", "wordID": 1261, "conditions": [24, 800, "v", 12000], "trial": 2, "serialpos": 11, "trial_type": "single-stim", "trial_index": 100, "time_elapsed": 440684, "internal_node_id": "0.0-73.0"}}, {"uniqueid": "MTK0169:3UNH76FOCTCYGDO46BXBMKL2DOMMYY", "current_trial": 101, "dateTime": 1509473133333, "trialdata": {"rt": -1, "stimulus": "<p id=\"stim\">HATCHET</p>", "key_press": -1, "type": "PRES_VIS", "word": "hatchet", "wordID": 690, "conditions": [24, 800, "v", 12000], "trial": 2, "serialpos": 12, "trial_type": "single-stim", "trial_index": 101, "time_elapsed": 442623, "internal_node_id": "0.0-74.0"}}, {"uniqueid": "MTK0169:3UNH76FOCTCYGDO46BXBMKL2DOMMYY", "current_trial": 102, "dateTime": 1509473135161, "trialdata": {"rt": -1, "stimulus": "<p id=\"stim\">NECKLACE</p>", "key_press": -1, "type": "PRES_VIS", "word": "necklace", "wordID": 939, "conditions": [24, 800, "v", 12000], "trial": 2, "serialpos": 13, "trial_type": "single-stim", "trial_index": 102, "time_elapsed": 444451, "internal_node_id": "0.0-75.0"}}, {"uniqueid": "MTK0169:3UNH76FOCTCYGDO46BXBMKL2DOMMYY", "current_trial": 103, "dateTime": 1509473137008, "trialdata": {"rt": -1, "stimulus": "<p id=\"stim\">AUTHOR</p>", "key_press": -1, "type": "PRES_VIS", "word": "author", "wordID": 60, "conditions": [24, 800, "v", 12000], "trial": 2, "serialpos": 14, "trial_type": "single-stim", "trial_index": 103, "time_elapsed": 446298, "internal_node_id": "0.0-76.0"}}, {"uniqueid": "MTK0169:3UNH76FOCTCYGDO46BXBMKL2DOMMYY", "current_trial": 104, "dateTime": 1509473138654, "trialdata": {"rt": -1, "stimulus": "<p id=\"stim\">TART</p>", "key_press": -1, "type": "PRES_VIS", "word": "tart", "wordID": 1435, "conditions": [24, 800, "v", 12000], "trial": 2, "serialpos": 15, "trial_type": "single-stim", "trial_index": 104, "time_elapsed": 447944, "internal_node_id": "0.0-77.0"}}, {"uniqueid": "MTK0169:3UNH76FOCTCYGDO46BXBMKL2DOMMYY", "current_trial": 105, "dateTime": 1509473140364, "trialdata": {"rt": -1, "stimulus": "<p id=\"stim\">SKILLET</p>", "key_press": -1, "type": "PRES_VIS", "word": "skillet", "wordID": 1316, "conditions": [24, 800, "v", 12000], "trial": 2, "serialpos": 16, "trial_type": "single-stim", "trial_index": 105, "time_elapsed": 449653, "internal_node_id": "0.0-78.0"}}, {"uniqueid": "MTK0169:3UNH76FOCTCYGDO46BXBMKL2DOMMYY", "current_trial": 106, "dateTime": 1509473142071, "trialdata": {"rt": -1, "stimulus": "<p id=\"stim\">MISSILE</p>", "key_press": -1, "type": "PRES_VIS", "word": "missile", "wordID": 899, "conditions": [24, 800, "v", 12000], "trial": 2, "serialpos": 17, "trial_type": "single-stim", "trial_index": 106, "time_elapsed": 451361, "internal_node_id": "0.0-79.0"}}, {"uniqueid": "MTK0169:3UNH76FOCTCYGDO46BXBMKL2DOMMYY", "current_trial": 107, "dateTime": 1509473143806, "trialdata": {"rt": -1, "stimulus": "<p id=\"stim\">ROCKET</p>", "key_press": -1, "type": "PRES_VIS", "word": "rocket", "wordID": 1201, "conditions": [24, 800, "v", 12000], "trial": 2, "serialpos": 18, "trial_type": "single-stim", "trial_index": 107, "time_elapsed": 453096, "internal_node_id": "0.0-80.0"}}, {"uniqueid": "MTK0169:3UNH76FOCTCYGDO46BXBMKL2DOMMYY", "current_trial": 108, "dateTime": 1509473145759, "trialdata": {"rt": -1, "stimulus": "<p id=\"stim\">BURGLAR</p>", "key_press": -1, "type": "PRES_VIS", "word": "burglar", "wordID": 199, "conditions": [24, 800, "v", 12000], "trial": 2, "serialpos": 19, "trial_type": "single-stim", "trial_index": 108, "time_elapsed": 455049, "internal_node_id": "0.0-81.0"}}, {"uniqueid": "MTK0169:3UNH76FOCTCYGDO46BXBMKL2DOMMYY", "current_trial": 109, "dateTime": 1509473147518, "trialdata": {"rt": -1, "stimulus": "<p id=\"stim\">TYPIST</p>", "key_press": -1, "type": "PRES_VIS", "word": "typist", "wordID": 1531, "conditions": [24, 800, "v", 12000], "trial": 2, "serialpos": 20, "trial_type": "single-stim", "trial_index": 109, "time_elapsed": 456808, "internal_node_id": "0.0-82.0"}}, {"uniqueid": "MTK0169:3UNH76FOCTCYGDO46BXBMKL2DOMMYY", "current_trial": 110, "dateTime": 1509473149150, "trialdata": {"rt": -1, "stimulus": "<p id=\"stim\">APRON</p>", "key_press": -1, "type": "PRES_VIS", "word": "apron", "wordID": 34, "conditions": [24, 800, "v", 12000], "trial": 2, "serialpos": 21, "trial_type": "single-stim", "trial_index": 110, "time_elapsed": 458440, "internal_node_id": "0.0-83.0"}}, {"uniqueid": "MTK0169:3UNH76FOCTCYGDO46BXBMKL2DOMMYY", "current_trial": 111, "dateTime": 1509473151091, "trialdata": {"rt": -1, "stimulus": "<p id=\"stim\">SLUG</p>", "key_press": -1, "type": "PRES_VIS", "word": "slug", "wordID": 1328, "conditions": [24, 800, "v", 12000], "trial": 2, "serialpos": 22, "trial_type": "single-stim", "trial_index": 111, "time_elapsed": 460381, "internal_node_id": "0.0-84.0"}}, {"uniqueid": "MTK0169:3UNH76FOCTCYGDO46BXBMKL2DOMMYY", "current_trial": 112, "dateTime": 1509473152776, "trialdata": {"rt": -1, "stimulus": "<p id=\"stim\">HANDBAG</p>", "key_press": -1, "type": "PRES_VIS", "word": "handbag", "wordID": 683, "conditions": [24, 800, "v", 12000], "trial": 2, "serialpos": 23, "trial_type": "single-stim", "trial_index": 112, "time_elapsed": 462066, "internal_node_id": "0.0-85.0"}}, {"uniqueid": "MTK0169:3UNH76FOCTCYGDO46BXBMKL2DOMMYY", "current_trial": 113, "dateTime": 1509473155163, "trialdata": {"rt": -1, "stimulus": "", "key_press": -1, "type": "PRE_RECALL_DELAY", "trial_type": "single-stim", "trial_index": 113, "time_elapsed": 464453, "internal_node_id": "0.0-86.0-0.0"}}, {"uniqueid": "MTK0169:3UNH76FOCTCYGDO46BXBMKL2DOMMYY", "current_trial": 114, "dateTime": 1509473155664, "trialdata": {"rt": -1000, "stimulus": "/static/audio/400Hz.wav", "key_press": -1, "type": "PRE_RECALL_ALERT", "trial_type": "single-audio", "trial_index": 114, "time_elapsed": 464953, "internal_node_id": "0.0-87.0"}}, {"uniqueid": "MTK0169:3UNH76FOCTCYGDO46BXBMKL2DOMMYY", "current_trial": 115, "dateTime": 1509473215668, "trialdata": {"rt": [3918, 5225, 7190, 8847, 13165, 19753, 26640, 28976, 33783, 41402], "recwords": ["teacher", "woman", "handbag", "slug", "canyong", "slide", "necklace", "author", "tart", "typist"], "type": "FREE_RECALL", "conditions": [24, 800, "v", 12000], "trial": 2, "trial_type": "free-recall", "trial_index": 115, "time_elapsed": 524955, "internal_node_id": "0.0-88.0-0.0"}}, {"uniqueid": "MTK0169:3UNH76FOCTCYGDO46BXBMKL2DOMMYY", "current_trial": 116, "dateTime": 1509473219386, "trialdata": {"rt": 1716, "key_press": 13, "type": "INSTRUCTIONS", "trial_type": "text", "trial_index": 116, "time_elapsed": 528676, "internal_node_id": "0.0-89.0"}}, {"uniqueid": "MTK0169:3UNH76FOCTCYGDO46BXBMKL2DOMMYY", "current_trial": 117, "dateTime": 1509473233388, "trialdata": {"rt": [2476, 5175, 7266, 8926, 10566], "responses": ["15", "8", "19", "9", "12"], "num1": [4, 2, 8, 5, 6, 9], "num2": [4, 3, 2, 3, 2, 8], "num3": [7, 3, 9, 1, 4, 8], "type": "DISTRACTOR", "conditions": [24, 1600, "a", 12000], "trial": 3, "trial_type": "math-distractor", "trial_index": 117, "time_elapsed": 542678, "internal_node_id": "0.0-90.0"}}, {"uniqueid": "MTK0169:3UNH76FOCTCYGDO46BXBMKL2DOMMYY", "current_trial": 118, "dateTime": 1509473236390, "trialdata": {"rt": -1, "stimulus": "<p id=\"stim\">10</p>", "key_press": -1, "trial_type": "single-stim", "trial_index": 118, "time_elapsed": 545680, "internal_node_id": "0.0-91.0-0.0"}}, {"uniqueid": "MTK0169:3UNH76FOCTCYGDO46BXBMKL2DOMMYY", "current_trial": 119, "dateTime": 1509473237391, "trialdata": {"rt": -1, "stimulus": "<p id=\"stim\">9</p>", "key_press": -1, "trial_type": "single-stim", "trial_index": 119, "time_elapsed": 546681, "internal_node_id": "0.0-91.0-1.0"}}, {"uniqueid": "MTK0169:3UNH76FOCTCYGDO46BXBMKL2DOMMYY", "current_trial": 120, "dateTime": 1509473238392, "trialdata": {"rt": -1, "stimulus": "<p id=\"stim\">8</p>", "key_press": -1, "trial_type": "single-stim", "trial_index": 120, "time_elapsed": 547682, "internal_node_id": "0.0-91.0-2.0"}}, {"uniqueid": "MTK0169:3UNH76FOCTCYGDO46BXBMKL2DOMMYY", "current_trial": 121, "dateTime": 1509473239394, "trialdata": {"rt": -1, "stimulus": "<p id=\"stim\">7</p>", "key_press": -1, "trial_type": "single-stim", "trial_index": 121, "time_elapsed": 548684, "internal_node_id": "0.0-91.0-3.0"}}, {"uniqueid": "MTK0169:3UNH76FOCTCYGDO46BXBMKL2DOMMYY", "current_trial": 122, "dateTime": 1509473240395, "trialdata": {"rt": -1, "stimulus": "<p id=\"stim\">6</p>", "key_press": -1, "trial_type": "single-stim", "trial_index": 122, "time_elapsed": 549685, "internal_node_id": "0.0-91.0-4.0"}}, {"uniqueid": "MTK0169:3UNH76FOCTCYGDO46BXBMKL2DOMMYY", "current_trial": 123, "dateTime": 1509473241397, "trialdata": {"rt": -1, "stimulus": "<p id=\"stim\">5</p>", "key_press": -1, "trial_type": "single-stim", "trial_index": 123, "time_elapsed": 550687, "internal_node_id": "0.0-91.0-5.0"}}, {"uniqueid": "MTK0169:3UNH76FOCTCYGDO46BXBMKL2DOMMYY", "current_trial": 124, "dateTime": 1509473242399, "trialdata": {"rt": -1, "stimulus": "<p id=\"stim\">4</p>", "key_press": -1, "trial_type": "single-stim", "trial_index": 124, "time_elapsed": 551689, "internal_node_id": "0.0-91.0-6.0"}}, {"uniqueid": "MTK0169:3UNH76FOCTCYGDO46BXBMKL2DOMMYY", "current_trial": 125, "dateTime": 1509473243400, "trialdata": {"rt": -1, "stimulus": "<p id=\"stim\">3</p>", "key_press": -1, "trial_type": "single-stim", "trial_index": 125, "time_elapsed": 552690, "internal_node_id": "0.0-91.0-7.0"}}, {"uniqueid": "MTK0169:3UNH76FOCTCYGDO46BXBMKL2DOMMYY", "current_trial": 126, "dateTime": 1509473244401, "trialdata": {"rt": -1, "stimulus": "<p id=\"stim\">2</p>", "key_press": -1, "trial_type": "single-stim", "trial_index": 126, "time_elapsed": 553691, "internal_node_id": "0.0-91.0-8.0"}}, {"uniqueid": "MTK0169:3UNH76FOCTCYGDO46BXBMKL2DOMMYY", "current_trial": 127, "dateTime": 1509473245402, "trialdata": {"rt": -1, "stimulus": "<p id=\"stim\">1</p>", "key_press": -1, "trial_type": "single-stim", "trial_index": 127, "time_elapsed": 554692, "internal_node_id": "0.0-91.0-9.0"}}, {"uniqueid": "MTK0169:3UNH76FOCTCYGDO46BXBMKL2DOMMYY", "current_trial": 128, "dateTime": 1509473246903, "trialdata": {"rt": -1, "stimulus": "<p id=\"stim\">+</p>", "key_press": -1, "type": "FIXATION", "trial_type": "single-stim", "trial_index": 128, "time_elapsed": 556193, "internal_node_id": "0.0-92.0-0.0"}}, {"uniqueid": "MTK0169:3UNH76FOCTCYGDO46BXBMKL2DOMMYY", "current_trial": 129, "dateTime": 1509473249681, "trialdata": {"rt": -1000, "stimulus": "/static/audio/wordpool/BISON.wav", "key_press": -1, "type": "PRES_AUD", "word": "bison", "wordID": 130, "conditions": [24, 1600, "a", 12000], "trial": 3, "serialpos": 0, "trial_type": "single-audio", "trial_index": 129, "time_elapsed": 558970, "internal_node_id": "0.0-93.0"}}, {"uniqueid": "MTK0169:3UNH76FOCTCYGDO46BXBMKL2DOMMYY", "current_trial": 130, "dateTime": 1509473252136, "trialdata": {"rt": -1000, "stimulus": "/static/audio/wordpool/TUTU.wav", "key_press": -1, "type": "PRES_AUD", "word": "tutu", "wordID": 1523, "conditions": [24, 1600, "a", 12000], "trial": 3, "serialpos": 1, "trial_type": "single-audio", "trial_index": 130, "time_elapsed": 561426, "internal_node_id": "0.0-94.0"}}, {"uniqueid": "MTK0169:3UNH76FOCTCYGDO46BXBMKL2DOMMYY", "current_trial": 131, "dateTime": 1509473254565, "trialdata": {"rt": -1000, "stimulus": "/static/audio/wordpool/DRESS.wav", "key_press": -1, "type": "PRES_AUD", "word": "dress", "wordID": 494, "conditions": [24, 1600, "a", 12000], "trial": 3, "serialpos": 2, "trial_type": "single-audio", "trial_index": 131, "time_elapsed": 563855, "internal_node_id": "0.0-95.0"}}, {"uniqueid": "MTK0169:3UNH76FOCTCYGDO46BXBMKL2DOMMYY", "current_trial": 132, "dateTime": 1509473257306, "trialdata": {"rt": -1000, "stimulus": "/static/audio/wordpool/CASHEW.wav", "key_press": -1, "type": "PRES_AUD", "word": "cashew", "wordID": 252, "conditions": [24, 1600, "a", 12000], "trial": 3, "serialpos": 3, "trial_type": "single-audio", "trial_index": 132, "time_elapsed": 566596, "internal_node_id": "0.0-96.0"}}, {"uniqueid": "MTK0169:3UNH76FOCTCYGDO46BXBMKL2DOMMYY", "current_trial": 133, "dateTime": 1509473259983, "trialdata": {"rt": -1000, "stimulus": "/static/audio/wordpool/EYELASH.wav", "key_press": -1, "type": "PRES_AUD", "word": "eyelash", "wordID": 545, "conditions": [24, 1600, "a", 12000], "trial": 3, "serialpos": 4, "trial_type": "single-audio", "trial_index": 133, "time_elapsed": 569273, "internal_node_id": "0.0-97.0"}}, {"uniqueid": "MTK0169:3UNH76FOCTCYGDO46BXBMKL2DOMMYY", "current_trial": 134, "dateTime": 1509473262783, "trialdata": {"rt": -1000, "stimulus": "/static/audio/wordpool/FEMALE.wav", "key_press": -1, "type": "PRES_AUD", "word": "female", "wordID": 558, "conditions": [24, 1600, "a", 12000], "trial": 3, "serialpos": 5, "trial_type": "single-audio", "trial_index": 134, "time_elapsed": 572073, "internal_node_id": "0.0-98.0"}}, {"uniqueid": "MTK0169:3UNH76FOCTCYGDO46BXBMKL2DOMMYY", "current_trial": 135, "dateTime": 1509473265348, "trialdata": {"rt": -1000, "stimulus": "/static/audio/wordpool/PUPPY.wav", "key_press": -1, "type": "PRES_AUD", "word": "puppy", "wordID": 1143, "conditions": [24, 1600, "a", 12000], "trial": 3, "serialpos": 6, "trial_type": "single-audio", "trial_index": 135, "time_elapsed": 574638, "internal_node_id": "0.0-99.0"}}, {"uniqueid": "MTK0169:3UNH76FOCTCYGDO46BXBMKL2DOMMYY", "current_trial": 136, "dateTime": 1509473267791, "trialdata": {"rt": -1000, "stimulus": "/static/audio/wordpool/KNAPSACK.wav", "key_press": -1, "type": "PRES_AUD", "word": "knapsack", "wordID": 782, "conditions": [24, 1600, "a", 12000], "trial": 3, "serialpos": 7, "trial_type": "single-audio", "trial_index": 136, "time_elapsed": 577081, "internal_node_id": "0.0-100.0"}}, {"uniqueid": "MTK0169:3UNH76FOCTCYGDO46BXBMKL2DOMMYY", "current_trial": 137, "dateTime": 1509473270310, "trialdata": {"rt": -1000, "stimulus": "/static/audio/wordpool/CATTLE.wav", "key_press": -1, "type": "PRES_AUD", "word": "cattle", "wordID": 260, "conditions": [24, 1600, "a", 12000], "trial": 3, "serialpos": 8, "trial_type": "single-audio", "trial_index": 137, "time_elapsed": 579600, "internal_node_id": "0.0-101.0"}}, {"uniqueid": "MTK0169:3UNH76FOCTCYGDO46BXBMKL2DOMMYY", "current_trial": 138, "dateTime": 1509473272940, "trialdata": {"rt": -1000, "stimulus": "/static/audio/wordpool/PLAZA.wav", "key_press": -1, "type": "PRES_AUD", "word": "plaza", "wordID": 1087, "conditions": [24, 1600, "a", 12000], "trial": 3, "serialpos": 9, "trial_type": "single-audio", "trial_index": 138, "time_elapsed": 582230, "internal_node_id": "0.0-102.0"}}, {"uniqueid": "MTK0169:3UNH76FOCTCYGDO46BXBMKL2DOMMYY", "current_trial": 139, "dateTime": 1509473275564, "trialdata": {"rt": -1000, "stimulus": "/static/audio/wordpool/GAVEL.wav", "key_press": -1, "type": "PRES_AUD", "word": "gavel", "wordID": 626, "conditions": [24, 1600, "a", 12000], "trial": 3, "serialpos": 10, "trial_type": "single-audio", "trial_index": 139, "time_elapsed": 584854, "internal_node_id": "0.0-103.0"}}, {"uniqueid": "MTK0169:3UNH76FOCTCYGDO46BXBMKL2DOMMYY", "current_trial": 140, "dateTime": 1509473278241, "trialdata": {"rt": -1000, "stimulus": "/static/audio/wordpool/SALMON.wav", "key_press": -1, "type": "PRES_AUD", "word": "salmon", "wordID": 1226, "conditions": [24, 1600, "a", 12000], "trial": 3, "serialpos": 11, "trial_type": "single-audio", "trial_index": 140, "time_elapsed": 587531, "internal_node_id": "0.0-104.0"}}, {"uniqueid": "MTK0169:3UNH76FOCTCYGDO46BXBMKL2DOMMYY", "current_trial": 141, "dateTime": 1509473281027, "trialdata": {"rt": -1000, "stimulus": "/static/audio/wordpool/ROBBER.wav", "key_press": -1, "type": "PRES_AUD", "word": "robber", "wordID": 1196, "conditions": [24, 1600, "a", 12000], "trial": 3, "serialpos": 12, "trial_type": "single-audio", "trial_index": 141, "time_elapsed": 590317, "internal_node_id": "0.0-105.0"}}, {"uniqueid": "MTK0169:3UNH76FOCTCYGDO46BXBMKL2DOMMYY", "current_trial": 142, "dateTime": 1509473283659, "trialdata": {"rt": -1000, "stimulus": "/static/audio/wordpool/PERCH.wav", "key_press": -1, "type": "PRES_AUD", "word": "perch", "wordID": 1047, "conditions": [24, 1600, "a", 12000], "trial": 3, "serialpos": 13, "trial_type": "single-audio", "trial_index": 142, "time_elapsed": 592949, "internal_node_id": "0.0-106.0"}}, {"uniqueid": "MTK0169:3UNH76FOCTCYGDO46BXBMKL2DOMMYY", "current_trial": 143, "dateTime": 1509473286425, "trialdata": {"rt": -1000, "stimulus": "/static/audio/wordpool/CLAMP.wav", "key_press": -1, "type": "PRES_AUD", "word": "clamp", "wordID": 315, "conditions": [24, 1600, "a", 12000], "trial": 3, "serialpos": 14, "trial_type": "single-audio", "trial_index": 143, "time_elapsed": 595715, "internal_node_id": "0.0-107.0"}}, {"uniqueid": "MTK0169:3UNH76FOCTCYGDO46BXBMKL2DOMMYY", "current_trial": 144, "dateTime": 1509473288861, "trialdata": {"rt": -1000, "stimulus": "/static/audio/wordpool/FOOT.wav", "key_press": -1, "type": "PRES_AUD", "word": "foot", "wordID": 589, "conditions": [24, 1600, "a", 12000], "trial": 3, "serialpos": 15, "trial_type": "single-audio", "trial_index": 144, "time_elapsed": 598151, "internal_node_id": "0.0-108.0"}}, {"uniqueid": "MTK0169:3UNH76FOCTCYGDO46BXBMKL2DOMMYY", "current_trial": 145, "dateTime": 1509473291544, "trialdata": {"rt": -1000, "stimulus": "/static/audio/wordpool/PISTON.wav", "key_press": -1, "type": "PRES_AUD", "word": "piston", "wordID": 1075, "conditions": [24, 1600, "a", 12000], "trial": 3, "serialpos": 16, "trial_type": "single-audio", "trial_index": 145, "time_elapsed": 600834, "internal_node_id": "0.0-109.0"}}, {"uniqueid": "MTK0169:3UNH76FOCTCYGDO46BXBMKL2DOMMYY", "current_trial": 146, "dateTime": 1509473294337, "trialdata": {"rt": -1000, "stimulus": "/static/audio/wordpool/VALVE.wav", "key_press": -1, "type": "PRES_AUD", "word": "valve", "wordID": 1545, "conditions": [24, 1600, "a", 12000], "trial": 3, "serialpos": 17, "trial_type": "single-audio", "trial_index": 146, "time_elapsed": 603627, "internal_node_id": "0.0-110.0"}}, {"uniqueid": "MTK0169:3UNH76FOCTCYGDO46BXBMKL2DOMMYY", "current_trial": 147, "dateTime": 1509473296998, "trialdata": {"rt": -1000, "stimulus": "/static/audio/wordpool/PORK.wav", "key_press": -1, "type": "PRES_AUD", "word": "pork", "wordID": 1107, "conditions": [24, 1600, "a", 12000], "trial": 3, "serialpos": 18, "trial_type": "single-audio", "trial_index": 147, "time_elapsed": 606288, "internal_node_id": "0.0-111.0"}}, {"uniqueid": "MTK0169:3UNH76FOCTCYGDO46BXBMKL2DOMMYY", "current_trial": 148, "dateTime": 1509473299426, "trialdata": {"rt": -1000, "stimulus": "/static/audio/wordpool/OX.wav", "key_press": -1, "type": "PRES_AUD", "word": "ox", "wordID": 993, "conditions": [24, 1600, "a", 12000], "trial": 3, "serialpos": 19, "trial_type": "single-audio", "trial_index": 148, "time_elapsed": 608716, "internal_node_id": "0.0-112.0"}}, {"uniqueid": "MTK0169:3UNH76FOCTCYGDO46BXBMKL2DOMMYY", "current_trial": 149, "dateTime": 1509473302044, "trialdata": {"rt": -1000, "stimulus": "/static/audio/wordpool/KETCHUP.wav", "key_press": -1, "type": "PRES_AUD", "word": "ketchup", "wordID": 770, "conditions": [24, 1600, "a", 12000], "trial": 3, "serialpos": 20, "trial_type": "single-audio", "trial_index": 149, "time_elapsed": 611334, "internal_node_id": "0.0-113.0"}}, {"uniqueid": "MTK0169:3UNH76FOCTCYGDO46BXBMKL2DOMMYY", "current_trial": 150, "dateTime": 1509473304732, "trialdata": {"rt": -1000, "stimulus": "/static/audio/wordpool/SUSPECT.wav", "key_press": -1, "type": "PRES_AUD", "word": "suspect", "wordID": 1414, "conditions": [24, 1600, "a", 12000], "trial": 3, "serialpos": 21, "trial_type": "single-audio", "trial_index": 150, "time_elapsed": 614022, "internal_node_id": "0.0-114.0"}}, {"uniqueid": "MTK0169:3UNH76FOCTCYGDO46BXBMKL2DOMMYY", "current_trial": 151, "dateTime": 1509473307382, "trialdata": {"rt": -1000, "stimulus": "/static/audio/wordpool/GROUND.wav", "key_press": -1, "type": "PRES_AUD", "word": "ground", "wordID": 665, "conditions": [24, 1600, "a", 12000], "trial": 3, "serialpos": 22, "trial_type": "single-audio", "trial_index": 151, "time_elapsed": 616672, "internal_node_id": "0.0-115.0"}}, {"uniqueid": "MTK0169:3UNH76FOCTCYGDO46BXBMKL2DOMMYY", "current_trial": 152, "dateTime": 1509473309945, "trialdata": {"rt": -1000, "stimulus": "/static/audio/wordpool/FLEET.wav", "key_press": -1, "type": "PRES_AUD", "word": "fleet", "wordID": 577, "conditions": [24, 1600, "a", 12000], "trial": 3, "serialpos": 23, "trial_type": "single-audio", "trial_index": 152, "time_elapsed": 619235, "internal_node_id": "0.0-116.0"}}, {"uniqueid": "MTK0169:3UNH76FOCTCYGDO46BXBMKL2DOMMYY", "current_trial": 153, "dateTime": 1509473311254, "trialdata": {"rt": -1, "stimulus": "", "key_press": -1, "type": "PRE_RECALL_DELAY", "trial_type": "single-stim", "trial_index": 153, "time_elapsed": 620544, "internal_node_id": "0.0-117.0-0.0"}}, {"uniqueid": "MTK0169:3UNH76FOCTCYGDO46BXBMKL2DOMMYY", "current_trial": 154, "dateTime": 1509473311756, "trialdata": {"rt": -1000, "stimulus": "/static/audio/400Hz.wav", "key_press": -1, "type": "PRE_RECALL_ALERT", "trial_type": "single-audio", "trial_index": 154, "time_elapsed": 621046, "internal_node_id": "0.0-118.0"}}, {"uniqueid": "MTK0169:3UNH76FOCTCYGDO46BXBMKL2DOMMYY", "current_trial": 155, "dateTime": 1509473371760, "trialdata": {"rt": [3167, 4929, 8013, 12540, 17228, 19562, 27504, 38022, 50225], "recwords": ["fleet", "ground", "eyelash", "woman", "bison", "cattle", "ox", "salmon", "tutu"], "type": "FREE_RECALL", "conditions": [24, 1600, "a", 12000], "trial": 3, "trial_type": "free-recall", "trial_index": 155, "time_elapsed": 681048, "internal_node_id": "0.0-119.0-0.0"}}, {"uniqueid": "MTK0169:3UNH76FOCTCYGDO46BXBMKL2DOMMYY", "current_trial": 156, "dateTime": 1509473377602, "trialdata": {"rt": 3840, "key_press": 32, "type": "INSTRUCTIONS", "trial_type": "text", "trial_index": 156, "time_elapsed": 686892, "internal_node_id": "0.0-120.0"}}, {"uniqueid": "MTK0169:3UNH76FOCTCYGDO46BXBMKL2DOMMYY", "current_trial": 157, "dateTime": 1509473391606, "trialdata": {"rt": [], "responses": [], "num1": [8], "num2": [9], "num3": [9], "type": "DISTRACTOR", "conditions": [12, 800, "v", 12000], "trial": 4, "trial_type": "math-distractor", "trial_index": 157, "time_elapsed": 700896, "internal_node_id": "0.0-121.0"}}, {"uniqueid": "MTK0169:3UNH76FOCTCYGDO46BXBMKL2DOMMYY", "current_trial": 158, "dateTime": 1509473394608, "trialdata": {"rt": -1, "stimulus": "<p id=\"stim\">10</p>", "key_press": -1, "trial_type": "single-stim", "trial_index": 158, "time_elapsed": 703897, "internal_node_id": "0.0-122.0-0.0"}}, {"uniqueid": "MTK0169:3UNH76FOCTCYGDO46BXBMKL2DOMMYY", "current_trial": 159, "dateTime": 1509473395611, "trialdata": {"rt": -1, "stimulus": "<p id=\"stim\">9</p>", "key_press": -1, "trial_type": "single-stim", "trial_index": 159, "time_elapsed": 704900, "internal_node_id": "0.0-122.0-1.0"}}, {"uniqueid": "MTK0169:3UNH76FOCTCYGDO46BXBMKL2DOMMYY", "current_trial": 160, "dateTime": 1509473396611, "trialdata": {"rt": -1, "stimulus": "<p id=\"stim\">8</p>", "key_press": -1, "trial_type": "single-stim", "trial_index": 160, "time_elapsed": 705901, "internal_node_id": "0.0-122.0-2.0"}}, {"uniqueid": "MTK0169:3UNH76FOCTCYGDO46BXBMKL2DOMMYY", "current_trial": 161, "dateTime": 1509473397613, "trialdata": {"rt": -1, "stimulus": "<p id=\"stim\">7</p>", "key_press": -1, "trial_type": "single-stim", "trial_index": 161, "time_elapsed": 706902, "internal_node_id": "0.0-122.0-3.0"}}, {"uniqueid": "MTK0169:3UNH76FOCTCYGDO46BXBMKL2DOMMYY", "current_trial": 162, "dateTime": 1509473398613, "trialdata": {"rt": -1, "stimulus": "<p id=\"stim\">6</p>", "key_press": -1, "trial_type": "single-stim", "trial_index": 162, "time_elapsed": 707903, "internal_node_id": "0.0-122.0-4.0"}}, {"uniqueid": "MTK0169:3UNH76FOCTCYGDO46BXBMKL2DOMMYY", "current_trial": 163, "dateTime": 1509473399614, "trialdata": {"rt": -1, "stimulus": "<p id=\"stim\">5</p>", "key_press": -1, "trial_type": "single-stim", "trial_index": 163, "time_elapsed": 708904, "internal_node_id": "0.0-122.0-5.0"}}, {"uniqueid": "MTK0169:3UNH76FOCTCYGDO46BXBMKL2DOMMYY", "current_trial": 164, "dateTime": 1509473400616, "trialdata": {"rt": -1, "stimulus": "<p id=\"stim\">4</p>", "key_press": -1, "trial_type": "single-stim", "trial_index": 164, "time_elapsed": 709905, "internal_node_id": "0.0-122.0-6.0"}}, {"uniqueid": "MTK0169:3UNH76FOCTCYGDO46BXBMKL2DOMMYY", "current_trial": 165, "dateTime": 1509473401616, "trialdata": {"rt": -1, "stimulus": "<p id=\"stim\">3</p>", "key_press": -1, "trial_type": "single-stim", "trial_index": 165, "time_elapsed": 710906, "internal_node_id": "0.0-122.0-7.0"}}, {"uniqueid": "MTK0169:3UNH76FOCTCYGDO46BXBMKL2DOMMYY", "current_trial": 166, "dateTime": 1509473402619, "trialdata": {"rt": -1, "stimulus": "<p id=\"stim\">2</p>", "key_press": -1, "trial_type": "single-stim", "trial_index": 166, "time_elapsed": 711909, "internal_node_id": "0.0-122.0-8.0"}}, {"uniqueid": "MTK0169:3UNH76FOCTCYGDO46BXBMKL2DOMMYY", "current_trial": 167, "dateTime": 1509473403620, "trialdata": {"rt": -1, "stimulus": "<p id=\"stim\">1</p>", "key_press": -1, "trial_type": "single-stim", "trial_index": 167, "time_elapsed": 712910, "internal_node_id": "0.0-122.0-9.0"}}, {"uniqueid": "MTK0169:3UNH76FOCTCYGDO46BXBMKL2DOMMYY", "current_trial": 168, "dateTime": 1509473405121, "trialdata": {"rt": -1, "stimulus": "<p id=\"stim\">+</p>", "key_press": -1, "type": "FIXATION", "trial_type": "single-stim", "trial_index": 168, "time_elapsed": 714411, "internal_node_id": "0.0-123.0-0.0"}}, {"uniqueid": "MTK0169:3UNH76FOCTCYGDO46BXBMKL2DOMMYY", "current_trial": 169, "dateTime": 1509473405922, "trialdata": {"rt": -1, "stimulus": "<p id=\"stim\">WIFE</p>", "key_press": -1, "type": "PRES_VIS", "word": "wife", "wordID": 1608, "conditions": [12, 800, "v", 12000], "trial": 4, "serialpos": 0, "trial_type": "single-stim", "trial_index": 169, "time_elapsed": 715212, "internal_node_id": "0.0-124.0"}}, {"uniqueid": "MTK0169:3UNH76FOCTCYGDO46BXBMKL2DOMMYY", "current_trial": 170, "dateTime": 1509473407861, "trialdata": {"rt": -1, "stimulus": "<p id=\"stim\">HUSBAND</p>", "key_press": -1, "type": "PRES_VIS", "word": "husband", "wordID": 727, "conditions": [12, 800, "v", 12000], "trial": 4, "serialpos": 1, "trial_type": "single-stim", "trial_index": 170, "time_elapsed": 717151, "internal_node_id": "0.0-125.0"}}, {"uniqueid": "MTK0169:3UNH76FOCTCYGDO46BXBMKL2DOMMYY", "current_trial": 171, "dateTime": 1509473409488, "trialdata": {"rt": -1, "stimulus": "<p id=\"stim\">NIGHTGOWN</p>", "key_press": -1, "type": "PRES_VIS", "word": "nightgown", "wordID": 952, "conditions": [12, 800, "v", 12000], "trial": 4, "serialpos": 2, "trial_type": "single-stim", "trial_index": 171, "time_elapsed": 718778, "internal_node_id": "0.0-126.0"}}, {"uniqueid": "MTK0169:3UNH76FOCTCYGDO46BXBMKL2DOMMYY", "current_trial": 172, "dateTime": 1509473411261, "trialdata": {"rt": -1, "stimulus": "<p id=\"stim\">FRIEND</p>", "key_press": -1, "type": "PRES_VIS", "word": "friend", "wordID": 605, "conditions": [12, 800, "v", 12000], "trial": 4, "serialpos": 3, "trial_type": "single-stim", "trial_index": 172, "time_elapsed": 720551, "internal_node_id": "0.0-127.0"}}, {"uniqueid": "MTK0169:3UNH76FOCTCYGDO46BXBMKL2DOMMYY", "current_trial": 173, "dateTime": 1509473413041, "trialdata": {"rt": -1, "stimulus": "<p id=\"stim\">SCALPEL</p>", "key_press": -1, "type": "PRES_VIS", "word": "scalpel", "wordID": 1242, "conditions": [12, 800, "v", 12000], "trial": 4, "serialpos": 4, "trial_type": "single-stim", "trial_index": 173, "time_elapsed": 722331, "internal_node_id": "0.0-128.0"}}, {"uniqueid": "MTK0169:3UNH76FOCTCYGDO46BXBMKL2DOMMYY", "current_trial": 174, "dateTime": 1509473415000, "trialdata": {"rt": -1, "stimulus": "<p id=\"stim\">WORKER</p>", "key_press": -1, "type": "PRES_VIS", "word": "worker", "wordID": 1620, "conditions": [12, 800, "v", 12000], "trial": 4, "serialpos": 5, "trial_type": "single-stim", "trial_index": 174, "time_elapsed": 724290, "internal_node_id": "0.0-129.0"}}, {"uniqueid": "MTK0169:3UNH76FOCTCYGDO46BXBMKL2DOMMYY", "current_trial": 175, "dateTime": 1509473416942, "trialdata": {"rt": -1, "stimulus": "<p id=\"stim\">BRICK</p>", "key_press": -1, "type": "PRES_VIS", "word": "brick", "wordID": 171, "conditions": [12, 800, "v", 12000], "trial": 4, "serialpos": 6, "trial_type": "single-stim", "trial_index": 175, "time_elapsed": 726232, "internal_node_id": "0.0-130.0"}}, {"uniqueid": "MTK0169:3UNH76FOCTCYGDO46BXBMKL2DOMMYY", "current_trial": 176, "dateTime": 1509473418936, "trialdata": {"rt": -1, "stimulus": "<p id=\"stim\">SWITCH</p>", "key_press": -1, "type": "PRES_VIS", "word": "switch", "wordID": 1421, "conditions": [12, 800, "v", 12000], "trial": 4, "serialpos": 7, "trial_type": "single-stim", "trial_index": 176, "time_elapsed": 728225, "internal_node_id": "0.0-131.0"}}, {"uniqueid": "MTK0169:3UNH76FOCTCYGDO46BXBMKL2DOMMYY", "current_trial": 177, "dateTime": 1509473420700, "trialdata": {"rt": -1, "stimulus": "<p id=\"stim\">LOVER</p>", "key_press": -1, "type": "PRES_VIS", "word": "lover", "wordID": 845, "conditions": [12, 800, "v", 12000], "trial": 4, "serialpos": 8, "trial_type": "single-stim", "trial_index": 177, "time_elapsed": 729990, "internal_node_id": "0.0-132.0"}}, {"uniqueid": "MTK0169:3UNH76FOCTCYGDO46BXBMKL2DOMMYY", "current_trial": 178, "dateTime": 1509473422385, "trialdata": {"rt": -1, "stimulus": "<p id=\"stim\">SODA</p>", "key_press": -1, "type": "PRES_VIS", "word": "soda", "wordID": 1340, "conditions": [12, 800, "v", 12000], "trial": 4, "serialpos": 9, "trial_type": "single-stim", "trial_index": 178, "time_elapsed": 731675, "internal_node_id": "0.0-133.0"}}, {"uniqueid": "MTK0169:3UNH76FOCTCYGDO46BXBMKL2DOMMYY", "current_trial": 179, "dateTime": 1509473424144, "trialdata": {"rt": -1, "stimulus": "<p id=\"stim\">TRUCK</p>", "key_press": -1, "type": "PRES_VIS", "word": "truck", "wordID": 1511, "conditions": [12, 800, "v", 12000], "trial": 4, "serialpos": 10, "trial_type": "single-stim", "trial_index": 179, "time_elapsed": 733434, "internal_node_id": "0.0-134.0"}}, {"uniqueid": "MTK0169:3UNH76FOCTCYGDO46BXBMKL2DOMMYY", "current_trial": 180, "dateTime": 1509473425920, "trialdata": {"rt": -1, "stimulus": "<p id=\"stim\">EMPIRE</p>", "key_press": -1, "type": "PRES_VIS", "word": "empire", "wordID": 529, "conditions": [12, 800, "v", 12000], "trial": 4, "serialpos": 11, "trial_type": "single-stim", "trial_index": 180, "time_elapsed": 735210, "internal_node_id": "0.0-135.0"}}, {"uniqueid": "MTK0169:3UNH76FOCTCYGDO46BXBMKL2DOMMYY", "current_trial": 181, "dateTime": 1509473428213, "trialdata": {"rt": -1, "stimulus": "", "key_press": -1, "type": "PRE_RECALL_DELAY", "trial_type": "single-stim", "trial_index": 181, "time_elapsed": 737503, "internal_node_id": "0.0-136.0-0.0"}}, {"uniqueid": "MTK0169:3UNH76FOCTCYGDO46BXBMKL2DOMMYY", "current_trial": 182, "dateTime": 1509473428715, "trialdata": {"rt": -1000, "stimulus": "/static/audio/400Hz.wav", "key_press": -1, "type": "PRE_RECALL_ALERT", "trial_type": "single-audio", "trial_index": 182, "time_elapsed": 738005, "internal_node_id": "0.0-137.0"}}, {"uniqueid": "MTK0169:3UNH76FOCTCYGDO46BXBMKL2DOMMYY", "current_trial": 183, "dateTime": 1509473488720, "trialdata": {"rt": [3720, 5038, 6013, 7336, 8914, 10436], "recwords": ["empire", "truck", "lover", "husband", "wife", "friend"], "type": "FREE_RECALL", "conditions": [12, 800, "v", 12000], "trial": 4, "trial_type": "free-recall", "trial_index": 183, "time_elapsed": 798006, "internal_node_id": "0.0-138.0-0.0"}}, {"uniqueid": "MTK0169:3UNH76FOCTCYGDO46BXBMKL2DOMMYY", "current_trial": 184, "dateTime": 1509473504453, "trialdata": {"rt": 13730, "key_press": 32, "type": "INSTRUCTIONS", "trial_type": "text", "trial_index": 184, "time_elapsed": 813743, "internal_node_id": "0.0-139.0"}}, {"uniqueid": "MTK0169:3UNH76FOCTCYGDO46BXBMKL2DOMMYY", "current_trial": 185, "dateTime": 1509473518455, "trialdata": {"rt": [3385, 6571, 9874], "responses": ["", "12", "20"], "num1": [9, 2, 8, 1], "num2": [7, 6, 3, 3], "num3": [4, 4, 9, 4], "type": "DISTRACTOR", "conditions": [12, 1600, "a", 12000], "trial": 5, "trial_type": "math-distractor", "trial_index": 185, "time_elapsed": 827745, "internal_node_id": "0.0-140.0"}}, {"uniqueid": "MTK0169:3UNH76FOCTCYGDO46BXBMKL2DOMMYY", "current_trial": 186, "dateTime": 1509473521457, "trialdata": {"rt": -1, "stimulus": "<p id=\"stim\">10</p>", "key_press": -1, "trial_type": "single-stim", "trial_index": 186, "time_elapsed": 830747, "internal_node_id": "0.0-141.0-0.0"}}, {"uniqueid": "MTK0169:3UNH76FOCTCYGDO46BXBMKL2DOMMYY", "current_trial": 187, "dateTime": 1509473522459, "trialdata": {"rt": -1, "stimulus": "<p id=\"stim\">9</p>", "key_press": -1, "trial_type": "single-stim", "trial_index": 187, "time_elapsed": 831748, "internal_node_id": "0.0-141.0-1.0"}}, {"uniqueid": "MTK0169:3UNH76FOCTCYGDO46BXBMKL2DOMMYY", "current_trial": 188, "dateTime": 1509473523460, "trialdata": {"rt": 95, "stimulus": "<p id=\"stim\">8</p>", "key_press": 144, "trial_type": "single-stim", "trial_index": 188, "time_elapsed": 832749, "internal_node_id": "0.0-141.0-2.0"}}, {"uniqueid": "MTK0169:3UNH76FOCTCYGDO46BXBMKL2DOMMYY", "current_trial": 189, "dateTime": 1509473524461, "trialdata": {"rt": -1, "stimulus": "<p id=\"stim\">7</p>", "key_press": -1, "trial_type": "single-stim", "trial_index": 189, "time_elapsed": 833751, "internal_node_id": "0.0-141.0-3.0"}}, {"uniqueid": "MTK0169:3UNH76FOCTCYGDO46BXBMKL2DOMMYY", "current_trial": 190, "dateTime": 1509473525462, "trialdata": {"rt": -1, "stimulus": "<p id=\"stim\">6</p>", "key_press": -1, "trial_type": "single-stim", "trial_index": 190, "time_elapsed": 834752, "internal_node_id": "0.0-141.0-4.0"}}, {"uniqueid": "MTK0169:3UNH76FOCTCYGDO46BXBMKL2DOMMYY", "current_trial": 191, "dateTime": 1509473526463, "trialdata": {"rt": -1, "stimulus": "<p id=\"stim\">5</p>", "key_press": -1, "trial_type": "single-stim", "trial_index": 191, "time_elapsed": 835753, "internal_node_id": "0.0-141.0-5.0"}}, {"uniqueid": "MTK0169:3UNH76FOCTCYGDO46BXBMKL2DOMMYY", "current_trial": 192, "dateTime": 1509473527464, "trialdata": {"rt": -1, "stimulus": "<p id=\"stim\">4</p>", "key_press": -1, "trial_type": "single-stim", "trial_index": 192, "time_elapsed": 836753, "internal_node_id": "0.0-141.0-6.0"}}, {"uniqueid": "MTK0169:3UNH76FOCTCYGDO46BXBMKL2DOMMYY", "current_trial": 193, "dateTime": 1509473528466, "trialdata": {"rt": -1, "stimulus": "<p id=\"stim\">3</p>", "key_press": -1, "trial_type": "single-stim", "trial_index": 193, "time_elapsed": 837755, "internal_node_id": "0.0-141.0-7.0"}}, {"uniqueid": "MTK0169:3UNH76FOCTCYGDO46BXBMKL2DOMMYY", "current_trial": 194, "dateTime": 1509473529467, "trialdata": {"rt": -1, "stimulus": "<p id=\"stim\">2</p>", "key_press": -1, "trial_type": "single-stim", "trial_index": 194, "time_elapsed": 838757, "internal_node_id": "0.0-141.0-8.0"}}, {"uniqueid": "MTK0169:3UNH76FOCTCYGDO46BXBMKL2DOMMYY", "current_trial": 195, "dateTime": 1509473530469, "trialdata": {"rt": -1, "stimulus": "<p id=\"stim\">1</p>", "key_press": -1, "trial_type": "single-stim", "trial_index": 195, "time_elapsed": 839758, "internal_node_id": "0.0-141.0-9.0"}}, {"uniqueid": "MTK0169:3UNH76FOCTCYGDO46BXBMKL2DOMMYY", "current_trial": 196, "dateTime": 1509473531971, "trialdata": {"rt": -1, "stimulus": "<p id=\"stim\">+</p>", "key_press": -1, "type": "FIXATION", "trial_type": "single-stim", "trial_index": 196, "time_elapsed": 841260, "internal_node_id": "0.0-142.0-0.0"}}, {"uniqueid": "MTK0169:3UNH76FOCTCYGDO46BXBMKL2DOMMYY", "current_trial": 197, "dateTime": 1509473534468, "trialdata": {"rt": -1000, "stimulus": "/static/audio/wordpool/TURTLE.wav", "key_press": -1, "type": "PRES_AUD", "word": "turtle", "wordID": 1521, "conditions": [12, 1600, "a", 12000], "trial": 5, "serialpos": 0, "trial_type": "single-audio", "trial_index": 197, "time_elapsed": 843758, "internal_node_id": "0.0-143.0"}}, {"uniqueid": "MTK0169:3UNH76FOCTCYGDO46BXBMKL2DOMMYY", "current_trial": 198, "dateTime": 1509473537037, "trialdata": {"rt": -1000, "stimulus": "/static/audio/wordpool/BOYFRIEND.wav", "key_press": -1, "type": "PRES_AUD", "word": "boyfriend", "wordID": 161, "conditions": [12, 1600, "a", 12000], "trial": 5, "serialpos": 1, "trial_type": "single-audio", "trial_index": 198, "time_elapsed": 846327, "internal_node_id": "0.0-144.0"}}, {"uniqueid": "MTK0169:3UNH76FOCTCYGDO46BXBMKL2DOMMYY", "current_trial": 199, "dateTime": 1509473539637, "trialdata": {"rt": -1000, "stimulus": "/static/audio/wordpool/CHIPMUNK.wav", "key_press": -1, "type": "PRES_AUD", "word": "chipmunk", "wordID": 303, "conditions": [12, 1600, "a", 12000], "trial": 5, "serialpos": 2, "trial_type": "single-audio", "trial_index": 199, "time_elapsed": 848927, "internal_node_id": "0.0-145.0"}}, {"uniqueid": "MTK0169:3UNH76FOCTCYGDO46BXBMKL2DOMMYY", "current_trial": 200, "dateTime": 1509473542190, "trialdata": {"rt": -1000, "stimulus": "/static/audio/wordpool/BUCKET.wav", "key_press": -1, "type": "PRES_AUD", "word": "bucket", "wordID": 183, "conditions": [12, 1600, "a", 12000], "trial": 5, "serialpos": 3, "trial_type": "single-audio", "trial_index": 200, "time_elapsed": 851480, "internal_node_id": "0.0-146.0"}}, {"uniqueid": "MTK0169:3UNH76FOCTCYGDO46BXBMKL2DOMMYY", "current_trial": 201, "dateTime": 1509473544842, "trialdata": {"rt": -1000, "stimulus": "/static/audio/wordpool/DOLPHIN.wav", "key_press": -1, "type": "PRES_AUD", "word": "dolphin", "wordID": 482, "conditions": [12, 1600, "a", 12000], "trial": 5, "serialpos": 4, "trial_type": "single-audio", "trial_index": 201, "time_elapsed": 854131, "internal_node_id": "0.0-147.0"}}, {"uniqueid": "MTK0169:3UNH76FOCTCYGDO46BXBMKL2DOMMYY", "current_trial": 202, "dateTime": 1509473547632, "trialdata": {"rt": -1000, "stimulus": "/static/audio/wordpool/DRILL.wav", "key_press": -1, "type": "PRES_AUD", "word": "drill", "wordID": 496, "conditions": [12, 1600, "a", 12000], "trial": 5, "serialpos": 5, "trial_type": "single-audio", "trial_index": 202, "time_elapsed": 856922, "internal_node_id": "0.0-148.0"}}, {"uniqueid": "MTK0169:3UNH76FOCTCYGDO46BXBMKL2DOMMYY", "current_trial": 203, "dateTime": 1509473550263, "trialdata": {"rt": -1000, "stimulus": "/static/audio/wordpool/TUBA.wav", "key_press": -1, "type": "PRES_AUD", "word": "tuba", "wordID": 1514, "conditions": [12, 1600, "a", 12000], "trial": 5, "serialpos": 6, "trial_type": "single-audio", "trial_index": 203, "time_elapsed": 859552, "internal_node_id": "0.0-149.0"}}, {"uniqueid": "MTK0169:3UNH76FOCTCYGDO46BXBMKL2DOMMYY", "current_trial": 204, "dateTime": 1509473552733, "trialdata": {"rt": -1000, "stimulus": "/static/audio/wordpool/HEADBAND.wav", "key_press": -1, "type": "PRES_AUD", "word": "headband", "wordID": 695, "conditions": [12, 1600, "a", 12000], "trial": 5, "serialpos": 7, "trial_type": "single-audio", "trial_index": 204, "time_elapsed": 862023, "internal_node_id": "0.0-150.0"}}, {"uniqueid": "MTK0169:3UNH76FOCTCYGDO46BXBMKL2DOMMYY", "current_trial": 205, "dateTime": 1509473555231, "trialdata": {"rt": -1000, "stimulus": "/static/audio/wordpool/DANCER.wav", "key_press": -1, "type": "PRES_AUD", "word": "dancer", "wordID": 436, "conditions": [12, 1600, "a", 12000], "trial": 5, "serialpos": 8, "trial_type": "single-audio", "trial_index": 205, "time_elapsed": 864521, "internal_node_id": "0.0-151.0"}}, {"uniqueid": "MTK0169:3UNH76FOCTCYGDO46BXBMKL2DOMMYY", "current_trial": 206, "dateTime": 1509473557805, "trialdata": {"rt": -1000, "stimulus": "/static/audio/wordpool/LAPEL.wav", "key_press": -1, "type": "PRES_AUD", "word": "lapel", "wordID": 799, "conditions": [12, 1600, "a", 12000], "trial": 5, "serialpos": 9, "trial_type": "single-audio", "trial_index": 206, "time_elapsed": 867095, "internal_node_id": "0.0-152.0"}}, {"uniqueid": "MTK0169:3UNH76FOCTCYGDO46BXBMKL2DOMMYY", "current_trial": 207, "dateTime": 1509473560208, "trialdata": {"rt": -1000, "stimulus": "/static/audio/wordpool/STOMACH.wav", "key_press": -1, "type": "PRES_AUD", "word": "stomach", "wordID": 1383, "conditions": [12, 1600, "a", 12000], "trial": 5, "serialpos": 10, "trial_type": "single-audio", "trial_index": 207, "time_elapsed": 869498, "internal_node_id": "0.0-153.0"}}, {"uniqueid": "MTK0169:3UNH76FOCTCYGDO46BXBMKL2DOMMYY", "current_trial": 208, "dateTime": 1509473562675, "trialdata": {"rt": -1000, "stimulus": "/static/audio/wordpool/CHEST.wav", "key_press": -1, "type": "PRES_AUD", "word": "chest", "wordID": 294, "conditions": [12, 1600, "a", 12000], "trial": 5, "serialpos": 11, "trial_type": "single-audio", "trial_index": 208, "time_elapsed": 871965, "internal_node_id": "0.0-154.0"}}, {"uniqueid": "MTK0169:3UNH76FOCTCYGDO46BXBMKL2DOMMYY", "current_trial": 209, "dateTime": 1509473564005, "trialdata": {"rt": -1, "stimulus": "", "key_press": -1, "type": "PRE_RECALL_DELAY", "trial_type": "single-stim", "trial_index": 209, "time_elapsed": 873295, "internal_node_id": "0.0-155.0-0.0"}}, {"uniqueid": "MTK0169:3UNH76FOCTCYGDO46BXBMKL2DOMMYY", "current_trial": 210, "dateTime": 1509473564507, "trialdata": {"rt": -1000, "stimulus": "/static/audio/400Hz.wav", "key_press": -1, "type": "PRE_RECALL_ALERT", "trial_type": "single-audio", "trial_index": 210, "time_elapsed": 873797, "internal_node_id": "0.0-156.0"}}, {"uniqueid": "MTK0169:3UNH76FOCTCYGDO46BXBMKL2DOMMYY", "current_trial": 211, "dateTime": 1509473624511, "trialdata": {"rt": [3415, 5261, 7068, 14976, 18146, 20526, 25240], "recwords": ["chest", "stomach", "lapel", "drill", "tuba", "turtle", "girlfriend"], "type": "FREE_RECALL", "conditions": [12, 1600, "a", 12000], "trial": 5, "trial_type": "free-recall", "trial_index": 211, "time_elapsed": 933799, "internal_node_id": "0.0-157.0-0.0"}}, {"uniqueid": "MTK0169:3UNH76FOCTCYGDO46BXBMKL2DOMMYY", "current_trial": 212, "dateTime": 1509473729982, "trialdata": {"rt": 103468, "key_press": 13, "type": "INSTRUCTIONS", "trial_type": "text", "trial_index": 212, "time_elapsed": 1039272, "internal_node_id": "0.0-158.0"}}, {"uniqueid": "MTK0169:3UNH76FOCTCYGDO46BXBMKL2DOMMYY", "current_trial": 213, "dateTime": 1509473743986, "trialdata": {"rt": [2845, 5585, 6994, 8121, 10003], "responses": ["18", "21", "10", "5", "15"], "num1": [7, 9, 1, 2, 4, 5], "num2": [7, 4, 8, 2, 9, 1], "num3": [4, 8, 1, 1, 2, 7], "type": "DISTRACTOR", "conditions": [12, 1600, "v", 12000], "trial": 6, "trial_type": "math-distractor", "trial_index": 213, "time_elapsed": 1053276, "internal_node_id": "0.0-159.0"}}, {"uniqueid": "MTK0169:3UNH76FOCTCYGDO46BXBMKL2DOMMYY", "current_trial": 214, "dateTime": 1509473746989, "trialdata": {"rt": -1, "stimulus": "<p id=\"stim\">10</p>", "key_press": -1, "trial_type": "single-stim", "trial_index": 214, "time_elapsed": 1056279, "internal_node_id": "0.0-160.0-0.0"}}, {"uniqueid": "MTK0169:3UNH76FOCTCYGDO46BXBMKL2DOMMYY", "current_trial": 215, "dateTime": 1509473747990, "trialdata": {"rt": -1, "stimulus": "<p id=\"stim\">9</p>", "key_press": -1, "trial_type": "single-stim", "trial_index": 215, "time_elapsed": 1057280, "internal_node_id": "0.0-160.0-1.0"}}, {"uniqueid": "MTK0169:3UNH76FOCTCYGDO46BXBMKL2DOMMYY", "current_trial": 216, "dateTime": 1509473748991, "trialdata": {"rt": -1, "stimulus": "<p id=\"stim\">8</p>", "key_press": -1, "trial_type": "single-stim", "trial_index": 216, "time_elapsed": 1058281, "internal_node_id": "0.0-160.0-2.0"}}, {"uniqueid": "MTK0169:3UNH76FOCTCYGDO46BXBMKL2DOMMYY", "current_trial": 217, "dateTime": 1509473749993, "trialdata": {"rt": -1, "stimulus": "<p id=\"stim\">7</p>", "key_press": -1, "trial_type": "single-stim", "trial_index": 217, "time_elapsed": 1059283, "internal_node_id": "0.0-160.0-3.0"}}, {"uniqueid": "MTK0169:3UNH76FOCTCYGDO46BXBMKL2DOMMYY", "current_trial": 218, "dateTime": 1509473750995, "trialdata": {"rt": -1, "stimulus": "<p id=\"stim\">6</p>", "key_press": -1, "trial_type": "single-stim", "trial_index": 218, "time_elapsed": 1060285, "internal_node_id": "0.0-160.0-4.0"}}, {"uniqueid": "MTK0169:3UNH76FOCTCYGDO46BXBMKL2DOMMYY", "current_trial": 219, "dateTime": 1509473751997, "trialdata": {"rt": -1, "stimulus": "<p id=\"stim\">5</p>", "key_press": -1, "trial_type": "single-stim", "trial_index": 219, "time_elapsed": 1061287, "internal_node_id": "0.0-160.0-5.0"}}, {"uniqueid": "MTK0169:3UNH76FOCTCYGDO46BXBMKL2DOMMYY", "current_trial": 220, "dateTime": 1509473752998, "trialdata": {"rt": -1, "stimulus": "<p id=\"stim\">4</p>", "key_press": -1, "trial_type": "single-stim", "trial_index": 220, "time_elapsed": 1062288, "internal_node_id": "0.0-160.0-6.0"}}, {"uniqueid": "MTK0169:3UNH76FOCTCYGDO46BXBMKL2DOMMYY", "current_trial": 221, "dateTime": 1509473753999, "trialdata": {"rt": -1, "stimulus": "<p id=\"stim\">3</p>", "key_press": -1, "trial_type": "single-stim", "trial_index": 221, "time_elapsed": 1063289, "internal_node_id": "0.0-160.0-7.0"}}, {"uniqueid": "MTK0169:3UNH76FOCTCYGDO46BXBMKL2DOMMYY", "current_trial": 222, "dateTime": 1509473755000, "trialdata": {"rt": -1, "stimulus": "<p id=\"stim\">2</p>", "key_press": -1, "trial_type": "single-stim", "trial_index": 222, "time_elapsed": 1064290, "internal_node_id": "0.0-160.0-8.0"}}, {"uniqueid": "MTK0169:3UNH76FOCTCYGDO46BXBMKL2DOMMYY", "current_trial": 223, "dateTime": 1509473756001, "trialdata": {"rt": -1, "stimulus": "<p id=\"stim\">1</p>", "key_press": -1, "trial_type": "single-stim", "trial_index": 223, "time_elapsed": 1065291, "internal_node_id": "0.0-160.0-9.0"}}, {"uniqueid": "MTK0169:3UNH76FOCTCYGDO46BXBMKL2DOMMYY", "current_trial": 224, "dateTime": 1509473757503, "trialdata": {"rt": -1, "stimulus": "<p id=\"stim\">+</p>", "key_press": -1, "type": "FIXATION", "trial_type": "single-stim", "trial_index": 224, "time_elapsed": 1066793, "internal_node_id": "0.0-161.0-0.0"}}, {"uniqueid": "MTK0169:3UNH76FOCTCYGDO46BXBMKL2DOMMYY", "current_trial": 225, "dateTime": 1509473759103, "trialdata": {"rt": -1, "stimulus": "<p id=\"stim\">MARSH</p>", "key_press": -1, "type": "PRES_VIS", "word": "marsh", "wordID": 873, "conditions": [12, 1600, "v", 12000], "trial": 6, "serialpos": 0, "trial_type": "single-stim", "trial_index": 225, "time_elapsed": 1068393, "internal_node_id": "0.0-162.0"}}, {"uniqueid": "MTK0169:3UNH76FOCTCYGDO46BXBMKL2DOMMYY", "current_trial": 226, "dateTime": 1509473761739, "trialdata": {"rt": -1, "stimulus": "<p id=\"stim\">DINER</p>", "key_press": -1, "type": "PRES_VIS", "word": "diner", "wordID": 466, "conditions": [12, 1600, "v", 12000], "trial": 6, "serialpos": 1, "trial_type": "single-stim", "trial_index": 226, "time_elapsed": 1071029, "internal_node_id": "0.0-163.0"}}, {"uniqueid": "MTK0169:3UNH76FOCTCYGDO46BXBMKL2DOMMYY", "current_trial": 227, "dateTime": 1509473764493, "trialdata": {"rt": -1, "stimulus": "<p id=\"stim\">CAFE</p>", "key_press": -1, "type": "PRES_VIS", "word": "cafe", "wordID": 215, "conditions": [12, 1600, "v", 12000], "trial": 6, "serialpos": 2, "trial_type": "single-stim", "trial_index": 227, "time_elapsed": 1073783, "internal_node_id": "0.0-164.0"}}, {"uniqueid": "MTK0169:3UNH76FOCTCYGDO46BXBMKL2DOMMYY", "current_trial": 228, "dateTime": 1509473767112, "trialdata": {"rt": -1, "stimulus": "<p id=\"stim\">TAXI</p>", "key_press": -1, "type": "PRES_VIS", "word": "taxi", "wordID": 1437, "conditions": [12, 1600, "v", 12000], "trial": 6, "serialpos": 3, "trial_type": "single-stim", "trial_index": 228, "time_elapsed": 1076402, "internal_node_id": "0.0-165.0"}}, {"uniqueid": "MTK0169:3UNH76FOCTCYGDO46BXBMKL2DOMMYY", "current_trial": 229, "dateTime": 1509473769625, "trialdata": {"rt": -1, "stimulus": "<p id=\"stim\">PARSLEY</p>", "key_press": -1, "type": "PRES_VIS", "word": "parsley", "wordID": 1015, "conditions": [12, 1600, "v", 12000], "trial": 6, "serialpos": 4, "trial_type": "single-stim", "trial_index": 229, "time_elapsed": 1078914, "internal_node_id": "0.0-166.0"}}, {"uniqueid": "MTK0169:3UNH76FOCTCYGDO46BXBMKL2DOMMYY", "current_trial": 230, "dateTime": 1509473772342, "trialdata": {"rt": -1, "stimulus": "<p id=\"stim\">PEACH</p>", "key_press": -1, "type": "PRES_VIS", "word": "peach", "wordID": 1030, "conditions": [12, 1600, "v", 12000], "trial": 6, "serialpos": 5, "trial_type": "single-stim", "trial_index": 230, "time_elapsed": 1081632, "internal_node_id": "0.0-167.0"}}, {"uniqueid": "MTK0169:3UNH76FOCTCYGDO46BXBMKL2DOMMYY", "current_trial": 231, "dateTime": 1509473775126, "trialdata": {"rt": -1, "stimulus": "<p id=\"stim\">MUSTARD</p>", "key_press": -1, "type": "PRES_VIS", "word": "mustard", "wordID": 934, "conditions": [12, 1600, "v", 12000], "trial": 6, "serialpos": 6, "trial_type": "single-stim", "trial_index": 231, "time_elapsed": 1084416, "internal_node_id": "0.0-168.0"}}, {"uniqueid": "MTK0169:3UNH76FOCTCYGDO46BXBMKL2DOMMYY", "current_trial": 232, "dateTime": 1509473777918, "trialdata": {"rt": -1, "stimulus": "<p id=\"stim\">PASTRY</p>", "key_press": -1, "type": "PRES_VIS", "word": "pastry", "wordID": 1021, "conditions": [12, 1600, "v", 12000], "trial": 6, "serialpos": 7, "trial_type": "single-stim", "trial_index": 232, "time_elapsed": 1087208, "internal_node_id": "0.0-169.0"}}, {"uniqueid": "MTK0169:3UNH76FOCTCYGDO46BXBMKL2DOMMYY", "current_trial": 233, "dateTime": 1509473780431, "trialdata": {"rt": -1, "stimulus": "<p id=\"stim\">LETTUCE</p>", "key_press": -1, "type": "PRES_VIS", "word": "lettuce", "wordID": 813, "conditions": [12, 1600, "v", 12000], "trial": 6, "serialpos": 8, "trial_type": "single-stim", "trial_index": 233, "time_elapsed": 1089721, "internal_node_id": "0.0-170.0"}}, {"uniqueid": "MTK0169:3UNH76FOCTCYGDO46BXBMKL2DOMMYY", "current_trial": 234, "dateTime": 1509473782869, "trialdata": {"rt": -1, "stimulus": "<p id=\"stim\">NOVEL</p>", "key_press": -1, "type": "PRES_VIS", "word": "novel", "wordID": 959, "conditions": [12, 1600, "v", 12000], "trial": 6, "serialpos": 9, "trial_type": "single-stim", "trial_index": 234, "time_elapsed": 1092159, "internal_node_id": "0.0-171.0"}}, {"uniqueid": "MTK0169:3UNH76FOCTCYGDO46BXBMKL2DOMMYY", "current_trial": 235, "dateTime": 1509473785522, "trialdata": {"rt": -1, "stimulus": "<p id=\"stim\">DONKEY</p>", "key_press": -1, "type": "PRES_VIS", "word": "donkey", "wordID": 483, "conditions": [12, 1600, "v", 12000], "trial": 6, "serialpos": 10, "trial_type": "single-stim", "trial_index": 235, "time_elapsed": 1094812, "internal_node_id": "0.0-172.0"}}, {"uniqueid": "MTK0169:3UNH76FOCTCYGDO46BXBMKL2DOMMYY", "current_trial": 236, "dateTime": 1509473788169, "trialdata": {"rt": -1, "stimulus": "<p id=\"stim\">CUPBOARD</p>", "key_press": -1, "type": "PRES_VIS", "word": "cupboard", "wordID": 424, "conditions": [12, 1600, "v", 12000], "trial": 6, "serialpos": 11, "trial_type": "single-stim", "trial_index": 236, "time_elapsed": 1097459, "internal_node_id": "0.0-173.0"}}, {"uniqueid": "MTK0169:3UNH76FOCTCYGDO46BXBMKL2DOMMYY", "current_trial": 237, "dateTime": 1509473790605, "trialdata": {"rt": -1, "stimulus": "", "key_press": -1, "type": "PRE_RECALL_DELAY", "trial_type": "single-stim", "trial_index": 237, "time_elapsed": 1099895, "internal_node_id": "0.0-174.0-0.0"}}, {"uniqueid": "MTK0169:3UNH76FOCTCYGDO46BXBMKL2DOMMYY", "current_trial": 238, "dateTime": 1509473791106, "trialdata": {"rt": -1000, "stimulus": "/static/audio/400Hz.wav", "key_press": -1, "type": "PRE_RECALL_ALERT", "trial_type": "single-audio", "trial_index": 238, "time_elapsed": 1100396, "internal_node_id": "0.0-175.0"}}, {"uniqueid": "MTK0169:3UNH76FOCTCYGDO46BXBMKL2DOMMYY", "current_trial": 239, "dateTime": 1509473851113, "trialdata": {"rt": [5120, 7040, 11947, 13885, 14919, 19814, 24558, 25959], "recwords": ["cupboard", "pastry", "lettuce", "donkey", "novel", "parsley", "cafe", "taxi"], "type": "FREE_RECALL", "conditions": [12, 1600, "v", 12000], "trial": 6, "trial_type": "free-recall", "trial_index": 239, "time_elapsed": 1160399, "internal_node_id": "0.0-176.0-0.0"}}, {"uniqueid": "MTK0169:3UNH76FOCTCYGDO46BXBMKL2DOMMYY", "current_trial": 240, "dateTime": 1509473856242, "trialdata": {"rt": 3125, "key_press": 32, "type": "INSTRUCTIONS", "trial_type": "text", "trial_index": 240, "time_elapsed": 1165530, "internal_node_id": "0.0-177.0"}}, {"uniqueid": "MTK0169:3UNH76FOCTCYGDO46BXBMKL2DOMMYY", "current_trial": 241, "dateTime": 1509473882243, "trialdata": {"rt": [2256, 4806, 8481, 11008, 12983, 14270, 19969, 23645], "responses": ["18", "15", "26", "16", "18", "10", "17", "13"], "num1": [9, 1, 9, 8, 2, 1, 6, 3, 3], "num2": [5, 8, 9, 7, 9, 1, 8, 1, 4], "num3": [4, 6, 8, 1, 7, 8, 7, 9, 8], "type": "DISTRACTOR", "conditions": [12, 800, "a", 24000], "trial": 7, "trial_type": "math-distractor", "trial_index": 241, "time_elapsed": 1191533, "internal_node_id": "0.0-178.0"}}, {"uniqueid": "MTK0169:3UNH76FOCTCYGDO46BXBMKL2DOMMYY", "current_trial": 242, "dateTime": 1509473885245, "trialdata": {"rt": -1, "stimulus": "<p id=\"stim\">10</p>", "key_press": -1, "trial_type": "single-stim", "trial_index": 242, "time_elapsed": 1194534, "internal_node_id": "0.0-179.0-0.0"}}, {"uniqueid": "MTK0169:3UNH76FOCTCYGDO46BXBMKL2DOMMYY", "current_trial": 243, "dateTime": 1509473886245, "trialdata": {"rt": -1, "stimulus": "<p id=\"stim\">9</p>", "key_press": -1, "trial_type": "single-stim", "trial_index": 243, "time_elapsed": 1195535, "internal_node_id": "0.0-179.0-1.0"}}, {"uniqueid": "MTK0169:3UNH76FOCTCYGDO46BXBMKL2DOMMYY", "current_trial": 244, "dateTime": 1509473887246, "trialdata": {"rt": -1, "stimulus": "<p id=\"stim\">8</p>", "key_press": -1, "trial_type": "single-stim", "trial_index": 244, "time_elapsed": 1196536, "internal_node_id": "0.0-179.0-2.0"}}, {"uniqueid": "MTK0169:3UNH76FOCTCYGDO46BXBMKL2DOMMYY", "current_trial": 245, "dateTime": 1509473888249, "trialdata": {"rt": -1, "stimulus": "<p id=\"stim\">7</p>", "key_press": -1, "trial_type": "single-stim", "trial_index": 245, "time_elapsed": 1197539, "internal_node_id": "0.0-179.0-3.0"}}, {"uniqueid": "MTK0169:3UNH76FOCTCYGDO46BXBMKL2DOMMYY", "current_trial": 246, "dateTime": 1509473889251, "trialdata": {"rt": -1, "stimulus": "<p id=\"stim\">6</p>", "key_press": -1, "trial_type": "single-stim", "trial_index": 246, "time_elapsed": 1198541, "internal_node_id": "0.0-179.0-4.0"}}, {"uniqueid": "MTK0169:3UNH76FOCTCYGDO46BXBMKL2DOMMYY", "current_trial": 247, "dateTime": 1509473890253, "trialdata": {"rt": -1, "stimulus": "<p id=\"stim\">5</p>", "key_press": -1, "trial_type": "single-stim", "trial_index": 247, "time_elapsed": 1199543, "internal_node_id": "0.0-179.0-5.0"}}, {"uniqueid": "MTK0169:3UNH76FOCTCYGDO46BXBMKL2DOMMYY", "current_trial": 248, "dateTime": 1509473891254, "trialdata": {"rt": -1, "stimulus": "<p id=\"stim\">4</p>", "key_press": -1, "trial_type": "single-stim", "trial_index": 248, "time_elapsed": 1200544, "internal_node_id": "0.0-179.0-6.0"}}, {"uniqueid": "MTK0169:3UNH76FOCTCYGDO46BXBMKL2DOMMYY", "current_trial": 249, "dateTime": 1509473892255, "trialdata": {"rt": -1, "stimulus": "<p id=\"stim\">3</p>", "key_press": -1, "trial_type": "single-stim", "trial_index": 249, "time_elapsed": 1201545, "internal_node_id": "0.0-179.0-7.0"}}, {"uniqueid": "MTK0169:3UNH76FOCTCYGDO46BXBMKL2DOMMYY", "current_trial": 250, "dateTime": 1509473893256, "trialdata": {"rt": -1, "stimulus": "<p id=\"stim\">2</p>", "key_press": -1, "trial_type": "single-stim", "trial_index": 250, "time_elapsed": 1202546, "internal_node_id": "0.0-179.0-8.0"}}, {"uniqueid": "MTK0169:3UNH76FOCTCYGDO46BXBMKL2DOMMYY", "current_trial": 251, "dateTime": 1509473894257, "trialdata": {"rt": -1, "stimulus": "<p id=\"stim\">1</p>", "key_press": -1, "trial_type": "single-stim", "trial_index": 251, "time_elapsed": 1203547, "internal_node_id": "0.0-179.0-9.0"}}, {"uniqueid": "MTK0169:3UNH76FOCTCYGDO46BXBMKL2DOMMYY", "current_trial": 252, "dateTime": 1509473895758, "trialdata": {"rt": -1, "stimulus": "<p id=\"stim\">+</p>", "key_press": -1, "type": "FIXATION", "trial_type": "single-stim", "trial_index": 252, "time_elapsed": 1205048, "internal_node_id": "0.0-180.0-0.0"}}, {"uniqueid": "MTK0169:3UNH76FOCTCYGDO46BXBMKL2DOMMYY", "current_trial": 253, "dateTime": 1509473897550, "trialdata": {"rt": -1000, "stimulus": "/static/audio/wordpool/CELLAR.wav", "key_press": -1, "type": "PRES_AUD", "word": "cellar", "wordID": 266, "conditions": [12, 800, "a", 24000], "trial": 7, "serialpos": 0, "trial_type": "single-audio", "trial_index": 253, "time_elapsed": 1206840, "internal_node_id": "0.0-181.0"}}, {"uniqueid": "MTK0169:3UNH76FOCTCYGDO46BXBMKL2DOMMYY", "current_trial": 254, "dateTime": 1509473899423, "trialdata": {"rt": -1000, "stimulus": "/static/audio/wordpool/SERVER.wav", "key_press": -1, "type": "PRES_AUD", "word": "server", "wordID": 1271, "conditions": [12, 800, "a", 24000], "trial": 7, "serialpos": 1, "trial_type": "single-audio", "trial_index": 254, "time_elapsed": 1208713, "internal_node_id": "0.0-182.0"}}, {"uniqueid": "MTK0169:3UNH76FOCTCYGDO46BXBMKL2DOMMYY", "current_trial": 255, "dateTime": 1509473901277, "trialdata": {"rt": -1000, "stimulus": "/static/audio/wordpool/FOREHEAD.wav", "key_press": -1, "type": "PRES_AUD", "word": "forehead", "wordID": 591, "conditions": [12, 800, "a", 24000], "trial": 7, "serialpos": 2, "trial_type": "single-audio", "trial_index": 255, "time_elapsed": 1210567, "internal_node_id": "0.0-183.0"}}, {"uniqueid": "MTK0169:3UNH76FOCTCYGDO46BXBMKL2DOMMYY", "current_trial": 256, "dateTime": 1509473902921, "trialdata": {"rt": -1000, "stimulus": "/static/audio/wordpool/DAUGHTER.wav", "key_press": -1, "type": "PRES_AUD", "word": "daughter", "wordID": 441, "conditions": [12, 800, "a", 24000], "trial": 7, "serialpos": 3, "trial_type": "single-audio", "trial_index": 256, "time_elapsed": 1212211, "internal_node_id": "0.0-184.0"}}, {"uniqueid": "MTK0169:3UNH76FOCTCYGDO46BXBMKL2DOMMYY", "current_trial": 257, "dateTime": 1509473904538, "trialdata": {"rt": -1000, "stimulus": "/static/audio/wordpool/BROTHER.wav", "key_press": -1, "type": "PRES_AUD", "word": "brother", "wordID": 178, "conditions": [12, 800, "a", 24000], "trial": 7, "serialpos": 4, "trial_type": "single-audio", "trial_index": 257, "time_elapsed": 1213828, "internal_node_id": "0.0-185.0"}}, {"uniqueid": "MTK0169:3UNH76FOCTCYGDO46BXBMKL2DOMMYY", "current_trial": 258, "dateTime": 1509473906329, "trialdata": {"rt": -1000, "stimulus": "/static/audio/wordpool/LAVA.wav", "key_press": -1, "type": "PRES_AUD", "word": "lava", "wordID": 803, "conditions": [12, 800, "a", 24000], "trial": 7, "serialpos": 5, "trial_type": "single-audio", "trial_index": 258, "time_elapsed": 1215619, "internal_node_id": "0.0-186.0"}}, {"uniqueid": "MTK0169:3UNH76FOCTCYGDO46BXBMKL2DOMMYY", "current_trial": 259, "dateTime": 1509473908243, "trialdata": {"rt": -1000, "stimulus": "/static/audio/wordpool/SISTER.wav", "key_press": -1, "type": "PRES_AUD", "word": "sister", "wordID": 1311, "conditions": [12, 800, "a", 24000], "trial": 7, "serialpos": 6, "trial_type": "single-audio", "trial_index": 259, "time_elapsed": 1217533, "internal_node_id": "0.0-187.0"}}, {"uniqueid": "MTK0169:3UNH76FOCTCYGDO46BXBMKL2DOMMYY", "current_trial": 260, "dateTime": 1509473909950, "trialdata": {"rt": -1000, "stimulus": "/static/audio/wordpool/GLASS.wav", "key_press": -1, "type": "PRES_AUD", "word": "glass", "wordID": 638, "conditions": [12, 800, "a", 24000], "trial": 7, "serialpos": 7, "trial_type": "single-audio", "trial_index": 260, "time_elapsed": 1219240, "internal_node_id": "0.0-188.0"}}, {"uniqueid": "MTK0169:3UNH76FOCTCYGDO46BXBMKL2DOMMYY", "current_trial": 261, "dateTime": 1509473911883, "trialdata": {"rt": -1000, "stimulus": "/static/audio/wordpool/CRATER.wav", "key_press": -1, "type": "PRES_AUD", "word": "crater", "wordID": 399, "conditions": [12, 800, "a", 24000], "trial": 7, "serialpos": 8, "trial_type": "single-audio", "trial_index": 261, "time_elapsed": 1221173, "internal_node_id": "0.0-189.0"}}, {"uniqueid": "MTK0169:3UNH76FOCTCYGDO46BXBMKL2DOMMYY", "current_trial": 262, "dateTime": 1509473913618, "trialdata": {"rt": -1000, "stimulus": "/static/audio/wordpool/ACTOR.wav", "key_press": -1, "type": "PRES_AUD", "word": "actor", "wordID": 4, "conditions": [12, 800, "a", 24000], "trial": 7, "serialpos": 9, "trial_type": "single-audio", "trial_index": 262, "time_elapsed": 1222908, "internal_node_id": "0.0-190.0"}}, {"uniqueid": "MTK0169:3UNH76FOCTCYGDO46BXBMKL2DOMMYY", "current_trial": 263, "dateTime": 1509473915236, "trialdata": {"rt": -1000, "stimulus": "/static/audio/wordpool/INMATE.wav", "key_press": -1, "type": "PRES_AUD", "word": "inmate", "wordID": 737, "conditions": [12, 800, "a", 24000], "trial": 7, "serialpos": 10, "trial_type": "single-audio", "trial_index": 263, "time_elapsed": 1224526, "internal_node_id": "0.0-191.0"}}, {"uniqueid": "MTK0169:3UNH76FOCTCYGDO46BXBMKL2DOMMYY", "current_trial": 264, "dateTime": 1509473916916, "trialdata": {"rt": -1000, "stimulus": "/static/audio/wordpool/COCKTAIL.wav", "key_press": -1, "type": "PRES_AUD", "word": "cocktail", "wordID": 337, "conditions": [12, 800, "a", 24000], "trial": 7, "serialpos": 11, "trial_type": "single-audio", "trial_index": 264, "time_elapsed": 1226206, "internal_node_id": "0.0-192.0"}}, {"uniqueid": "MTK0169:3UNH76FOCTCYGDO46BXBMKL2DOMMYY", "current_trial": 265, "dateTime": 1509473918289, "trialdata": {"rt": -1, "stimulus": "", "key_press": -1, "type": "PRE_RECALL_DELAY", "trial_type": "single-stim", "trial_index": 265, "time_elapsed": 1227577, "internal_node_id": "0.0-193.0-0.0"}}, {"uniqueid": "MTK0169:3UNH76FOCTCYGDO46BXBMKL2DOMMYY", "current_trial": 266, "dateTime": 1509473918790, "trialdata": {"rt": -1000, "stimulus": "/static/audio/400Hz.wav", "key_press": -1, "type": "PRE_RECALL_ALERT", "trial_type": "single-audio", "trial_index": 266, "time_elapsed": 1228080, "internal_node_id": "0.0-194.0"}}, {"uniqueid": "MTK0169:3UNH76FOCTCYGDO46BXBMKL2DOMMYY", "current_trial": 267, "dateTime": 1509473978796, "trialdata": {"rt": [2744, 5321, 10277, 14453, 20622, 26274], "recwords": ["cocktail", "inmate", "brother", "sister", "actor", "server"], "type": "FREE_RECALL", "conditions": [12, 800, "a", 24000], "trial": 7, "trial_type": "free-recall", "trial_index": 267, "time_elapsed": 1288083, "internal_node_id": "0.0-195.0-0.0"}}, {"uniqueid": "MTK0169:3UNH76FOCTCYGDO46BXBMKL2DOMMYY", "current_trial": 268, "dateTime": 1509473982101, "trialdata": {"rt": 1304, "key_press": 32, "type": "INSTRUCTIONS", "trial_type": "text", "trial_index": 268, "time_elapsed": 1291391, "internal_node_id": "0.0-196.0"}}, {"uniqueid": "MTK0169:3UNH76FOCTCYGDO46BXBMKL2DOMMYY", "current_trial": 269, "dateTime": 1509473996104, "trialdata": {"rt": [1738, 4640, 6222, 8664], "responses": ["10", "10", "12", "14"], "num1": [2, 1, 2, 4, 6], "num2": [6, 3, 3, 2, 7], "num3": [2, 6, 7, 5, 9], "type": "DISTRACTOR", "conditions": [24, 1600, "v", 12000], "trial": 8, "trial_type": "math-distractor", "trial_index": 269, "time_elapsed": 1305394, "internal_node_id": "0.0-197.0"}}, {"uniqueid": "MTK0169:3UNH76FOCTCYGDO46BXBMKL2DOMMYY", "current_trial": 270, "dateTime": 1509473999107, "trialdata": {"rt": -1, "stimulus": "<p id=\"stim\">10</p>", "key_press": -1, "trial_type": "single-stim", "trial_index": 270, "time_elapsed": 1308397, "internal_node_id": "0.0-198.0-0.0"}}, {"uniqueid": "MTK0169:3UNH76FOCTCYGDO46BXBMKL2DOMMYY", "current_trial": 271, "dateTime": 1509474000109, "trialdata": {"rt": -1, "stimulus": "<p id=\"stim\">9</p>", "key_press": -1, "trial_type": "single-stim", "trial_index": 271, "time_elapsed": 1309399, "internal_node_id": "0.0-198.0-1.0"}}, {"uniqueid": "MTK0169:3UNH76FOCTCYGDO46BXBMKL2DOMMYY", "current_trial": 272, "dateTime": 1509474001110, "trialdata": {"rt": -1, "stimulus": "<p id=\"stim\">8</p>", "key_press": -1, "trial_type": "single-stim", "trial_index": 272, "time_elapsed": 1310400, "internal_node_id": "0.0-198.0-2.0"}}, {"uniqueid": "MTK0169:3UNH76FOCTCYGDO46BXBMKL2DOMMYY", "current_trial": 273, "dateTime": 1509474002111, "trialdata": {"rt": -1, "stimulus": "<p id=\"stim\">7</p>", "key_press": -1, "trial_type": "single-stim", "trial_index": 273, "time_elapsed": 1311401, "internal_node_id": "0.0-198.0-3.0"}}, {"uniqueid": "MTK0169:3UNH76FOCTCYGDO46BXBMKL2DOMMYY", "current_trial": 274, "dateTime": 1509474003112, "trialdata": {"rt": -1, "stimulus": 