{"condition": 0, "counterbalance": 255, "assignmentId": "3OVR4I9USQQ93L8C9XGLN410URQQ4I", "workerId": "MTK0579", "hitId": "3R868ACW4SJW694T1SWXY2ENBU5GZB", "currenttrial": 628, "bonus": 0, "data": [{"uniqueid": "MTK0579:3OVR4I9USQQ93L8C9XGLN410URQQ4I", "current_trial": 0, "dateTime": 1511218012182, "trialdata": {"rt": 16039, "key_press": 72, "type": "INSTRUCTIONS", "trial_type": "text", "trial_index": 0, "time_elapsed": 16043, "internal_node_id": "0.0-0.0"}}, {"uniqueid": "MTK0579:3OVR4I9USQQ93L8C9XGLN410URQQ4I", "current_trial": 1, "dateTime": 1511218024134, "trialdata": {"rt": 11942, "key_press": 181, "type": "INSTRUCTIONS", "trial_type": "text", "trial_index": 1, "time_elapsed": 27994, "internal_node_id": "0.0-1.0"}}, {"uniqueid": "MTK0579:3OVR4I9USQQ93L8C9XGLN410URQQ4I", "current_trial": 2, "dateTime": 1511218031793, "trialdata": {"rt": [7581], "responses": ["ocean"], "type": "AUDIO_TEST", "trial_type": "audio-test", "trial_index": 2, "time_elapsed": 35657, "internal_node_id": "0.0-2.0"}}, {"uniqueid": "MTK0579:3OVR4I9USQQ93L8C9XGLN410URQQ4I", "current_trial": 3, "dateTime": 1511218039464, "trialdata": {"rt": [7655], "responses": ["crystal"], "type": "AUDIO_TEST", "trial_type": "audio-test", "trial_index": 3, "time_elapsed": 43328, "internal_node_id": "0.0-3.0"}}, {"uniqueid": "MTK0579:3OVR4I9USQQ93L8C9XGLN410URQQ4I", "current_trial": 4, "dateTime": 1511218045112, "trialdata": {"rt": [5630], "responses": ["spice"], "type": "AUDIO_TEST", "trial_type": "audio-test", "trial_index": 4, "time_elapsed": 48975, "internal_node_id": "0.0-4.0"}}, {"uniqueid": "MTK0579:3OVR4I9USQQ93L8C9XGLN410URQQ4I", "current_trial": 5, "dateTime": 1511218059408, "trialdata": {"rt": 13537, "responses": "{\"Q0\":\"10:30pm\",\"Q1\":\"7:05am\",\"Q2\":\"5\"}", "type": "SLEEP_SURVEY", "trial_type": "survey-text", "trial_index": 5, "time_elapsed": 63271, "internal_node_id": "0.0-5.0"}}, {"uniqueid": "MTK0579:3OVR4I9USQQ93L8C9XGLN410URQQ4I", "current_trial": 6, "dateTime": 1511218561074, "trialdata": {"rt": 500661, "key_press": 74, "type": "INSTRUCTIONS", "trial_type": "text", "trial_index": 6, "time_elapsed": 564937, "internal_node_id": "0.0-6.0"}}, {"uniqueid": "MTK0579:3OVR4I9USQQ93L8C9XGLN410URQQ4I", "current_trial": 7, "dateTime": 1511218578946, "trialdata": {"rt": 17359, "key_press": 76, "type": "INSTRUCTIONS", "trial_type": "text", "trial_index": 7, "time_elapsed": 582809, "internal_node_id": "0.0-7.0"}}, {"uniqueid": "MTK0579:3OVR4I9USQQ93L8C9XGLN410URQQ4I", "current_trial": 8, "dateTime": 1511218771277, "trialdata": {"rt": 191815, "key_press": 182, "type": "INSTRUCTIONS", "trial_type": "text", "trial_index": 8, "time_elapsed": 775140, "internal_node_id": "0.0-8.0"}}, {"uniqueid": "MTK0579:3OVR4I9USQQ93L8C9XGLN410URQQ4I", "current_trial": 9, "dateTime": 1511218790303, "trialdata": {"rt": [5728, 8154, 11264, 16709], "responses": ["14", "12", "18", "21"], "num1": [6, 1, 2, 9, 5], "num2": [4, 9, 7, 5, 8], "num3": [4, 2, 9, 7, 5], "type": "DISTRACTOR", "conditions": [18, 1200, "v", 18000], "trial": 0, "trial_type": "math-distractor", "trial_index": 9, "time_elapsed": 794165, "internal_node_id": "0.0-9.0"}}, {"uniqueid": "MTK0579:3OVR4I9USQQ93L8C9XGLN410URQQ4I", "current_trial": 10, "dateTime": 1511218793326, "trialdata": {"rt": -1, "stimulus": "<p id=\"stim\">10</p>", "key_press": -1, "trial_type": "single-stim", "trial_index": 10, "time_elapsed": 797189, "internal_node_id": "0.0-10.0-0.0"}}, {"uniqueid": "MTK0579:3OVR4I9USQQ93L8C9XGLN410URQQ4I", "current_trial": 11, "dateTime": 1511218794332, "trialdata": {"rt": -1, "stimulus": "<p id=\"stim\">9</p>", "key_press": -1, "trial_type": "single-stim", "trial_index": 11, "time_elapsed": 798196, "internal_node_id": "0.0-10.0-1.0"}}, {"uniqueid": "MTK0579:3OVR4I9USQQ93L8C9XGLN410URQQ4I", "current_trial": 12, "dateTime": 1511218795337, "trialdata": {"rt": -1, "stimulus": "<p id=\"stim\">8</p>", "key_press": -1, "trial_type": "single-stim", "trial_index": 12, "time_elapsed": 799200, "internal_node_id": "0.0-10.0-2.0"}}, {"uniqueid": "MTK0579:3OVR4I9USQQ93L8C9XGLN410URQQ4I", "current_trial": 13, "dateTime": 1511218796355, "trialdata": {"rt": -1, "stimulus": "<p id=\"stim\">7</p>", "key_press": -1, "trial_type": "single-stim", "trial_index": 13, "time_elapsed": 800219, "internal_node_id": "0.0-10.0-3.0"}}, {"uniqueid": "MTK0579:3OVR4I9USQQ93L8C9XGLN410URQQ4I", "current_trial": 14, "dateTime": 1511218797369, "trialdata": {"rt": -1, "stimulus": "<p id=\"stim\">6</p>", "key_press": -1, "trial_type": "single-stim", "trial_index": 14, "time_elapsed": 801232, "internal_node_id": "0.0-10.0-4.0"}}, {"uniqueid": "MTK0579:3OVR4I9USQQ93L8C9XGLN410URQQ4I", "current_trial": 15, "dateTime": 1511218798386, "trialdata": {"rt": -1, "stimulus": "<p id=\"stim\">5</p>", "key_press": -1, "trial_type": "single-stim", "trial_index": 15, "time_elapsed": 802250, "internal_node_id": "0.0-10.0-5.0"}}, {"uniqueid": "MTK0579:3OVR4I9USQQ93L8C9XGLN410URQQ4I", "current_trial": 16, "dateTime": 1511218799388, "trialdata": {"rt": -1, "stimulus": "<p id=\"stim\">4</p>", "key_press": -1, "trial_type": "single-stim", "trial_index": 16, "time_elapsed": 803252, "internal_node_id": "0.0-10.0-6.0"}}, {"uniqueid": "MTK0579:3OVR4I9USQQ93L8C9XGLN410URQQ4I", "current_trial": 17, "dateTime": 1511218800398, "trialdata": {"rt": -1, "stimulus": "<p id=\"stim\">3</p>", "key_press": -1, "trial_type": "single-stim", "trial_index": 17, "time_elapsed": 804262, "internal_node_id": "0.0-10.0-7.0"}}, {"uniqueid": "MTK0579:3OVR4I9USQQ93L8C9XGLN410URQQ4I", "current_trial": 18, "dateTime": 1511218801413, "trialdata": {"rt": -1, "stimulus": "<p id=\"stim\">2</p>", "key_press": -1, "trial_type": "single-stim", "trial_index": 18, "time_elapsed": 805276, "internal_node_id": "0.0-10.0-8.0"}}, {"uniqueid": "MTK0579:3OVR4I9USQQ93L8C9XGLN410URQQ4I", "current_trial": 19, "dateTime": 1511218802430, "trialdata": {"rt": -1, "stimulus": "<p id=\"stim\">1</p>", "key_press": -1, "trial_type": "single-stim", "trial_index": 19, "time_elapsed": 806294, "internal_node_id": "0.0-10.0-9.0"}}, {"uniqueid": "MTK0579:3OVR4I9USQQ93L8C9XGLN410URQQ4I", "current_trial": 20, "dateTime": 1511218803937, "trialdata": {"rt": -1, "stimulus": "<p id=\"stim\">+</p>", "key_press": -1, "type": "FIXATION", "trial_type": "single-stim", "trial_index": 20, "time_elapsed": 807801, "internal_node_id": "0.0-11.0-0.0"}}, {"uniqueid": "MTK0579:3OVR4I9USQQ93L8C9XGLN410URQQ4I", "current_trial": 21, "dateTime": 1511218805143, "trialdata": {"rt": 504, "stimulus": "<p id=\"stim\">FRECKLE</p>", "key_press": 183, "type": "PRES_VIS", "word": "freckle", "wordID": 601, "conditions": [18, 1200, "v", 18000], "trial": 0, "serialpos": 0, "trial_type": "single-stim", "trial_index": 21, "time_elapsed": 809006, "internal_node_id": "0.0-12.0"}}, {"uniqueid": "MTK0579:3OVR4I9USQQ93L8C9XGLN410URQQ4I", "current_trial": 22, "dateTime": 1511218807370, "trialdata": {"rt": 52, "stimulus": "<p id=\"stim\">SUBWAY</p>", "key_press": 183, "type": "PRES_VIS", "word": "subway", "wordID": 1399, "conditions": [18, 1200, "v", 18000], "trial": 0, "serialpos": 1, "trial_type": "single-stim", "trial_index": 22, "time_elapsed": 811233, "internal_node_id": "0.0-13.0"}}, {"uniqueid": "MTK0579:3OVR4I9USQQ93L8C9XGLN410URQQ4I", "current_trial": 23, "dateTime": 1511218809503, "trialdata": {"rt": -1, "stimulus": "<p id=\"stim\">FOX</p>", "key_press": -1, "type": "PRES_VIS", "word": "fox", "wordID": 597, "conditions": [18, 1200, "v", 18000], "trial": 0, "serialpos": 2, "trial_type": "single-stim", "trial_index": 23, "time_elapsed": 813366, "internal_node_id": "0.0-14.0"}}, {"uniqueid": "MTK0579:3OVR4I9USQQ93L8C9XGLN410URQQ4I", "current_trial": 24, "dateTime": 1511218811629, "trialdata": {"rt": -1, "stimulus": "<p id=\"stim\">LOVER</p>", "key_press": -1, "type": "PRES_VIS", "word": "lover", "wordID": 845, "conditions": [18, 1200, "v", 18000], "trial": 0, "serialpos": 3, "trial_type": "single-stim", "trial_index": 24, "time_elapsed": 815493, "internal_node_id": "0.0-15.0"}}, {"uniqueid": "MTK0579:3OVR4I9USQQ93L8C9XGLN410URQQ4I", "current_trial": 25, "dateTime": 1511218813951, "trialdata": {"rt": -1, "stimulus": "<p id=\"stim\">GRAVE</p>", "key_press": -1, "type": "PRES_VIS", "word": "grave", "wordID": 657, "conditions": [18, 1200, "v", 18000], "trial": 0, "serialpos": 4, "trial_type": "single-stim", "trial_index": 25, "time_elapsed": 817814, "internal_node_id": "0.0-16.0"}}, {"uniqueid": "MTK0579:3OVR4I9USQQ93L8C9XGLN410URQQ4I", "current_trial": 26, "dateTime": 1511218816325, "trialdata": {"rt": -1, "stimulus": "<p id=\"stim\">ORANGE</p>", "key_press": -1, "type": "PRES_VIS", "word": "orange", "wordID": 979, "conditions": [18, 1200, "v", 18000], "trial": 0, "serialpos": 5, "trial_type": "single-stim", "trial_index": 26, "time_elapsed": 820188, "internal_node_id": "0.0-17.0"}}, {"uniqueid": "MTK0579:3OVR4I9USQQ93L8C9XGLN410URQQ4I", "current_trial": 27, "dateTime": 1511218818424, "trialdata": {"rt": -1, "stimulus": "<p id=\"stim\">NOTEBOOK</p>", "key_press": -1, "type": "PRES_VIS", "word": "notebook", "wordID": 958, "conditions": [18, 1200, "v", 18000], "trial": 0, "serialpos": 6, "trial_type": "single-stim", "trial_index": 27, "time_elapsed": 822288, "internal_node_id": "0.0-18.0"}}, {"uniqueid": "MTK0579:3OVR4I9USQQ93L8C9XGLN410URQQ4I", "current_trial": 28, "dateTime": 1511218820498, "trialdata": {"rt": -1, "stimulus": "<p id=\"stim\">BUCKET</p>", "key_press": -1, "type": "PRES_VIS", "word": "bucket", "wordID": 183, "conditions": [18, 1200, "v", 18000], "trial": 0, "serialpos": 7, "trial_type": "single-stim", "trial_index": 28, "time_elapsed": 824362, "internal_node_id": "0.0-19.0"}}, {"uniqueid": "MTK0579:3OVR4I9USQQ93L8C9XGLN410URQQ4I", "current_trial": 29, "dateTime": 1511218822754, "trialdata": {"rt": -1, "stimulus": "<p id=\"stim\">STUDENT</p>", "key_press": -1, "type": "PRES_VIS", "word": "student", "wordID": 1394, "conditions": [18, 1200, "v", 18000], "trial": 0, "serialpos": 8, "trial_type": "single-stim", "trial_index": 29, "time_elapsed": 826618, "internal_node_id": "0.0-20.0"}}, {"uniqueid": "MTK0579:3OVR4I9USQQ93L8C9XGLN410URQQ4I", "current_trial": 30, "dateTime": 1511218824979, "trialdata": {"rt": -1, "stimulus": "<p id=\"stim\">PLAID</p>", "key_press": -1, "type": "PRES_VIS", "word": "plaid", "wordID": 1079, "conditions": [18, 1200, "v", 18000], "trial": 0, "serialpos": 9, "trial_type": "single-stim", "trial_index": 30, "time_elapsed": 828843, "internal_node_id": "0.0-21.0"}}, {"uniqueid": "MTK0579:3OVR4I9USQQ93L8C9XGLN410URQQ4I", "current_trial": 31, "dateTime": 1511218827093, "trialdata": {"rt": -1, "stimulus": "<p id=\"stim\">WAGON</p>", "key_press": -1, "type": "PRES_VIS", "word": "wagon", "wordID": 1577, "conditions": [18, 1200, "v", 18000], "trial": 0, "serialpos": 10, "trial_type": "single-stim", "trial_index": 31, "time_elapsed": 830957, "internal_node_id": "0.0-22.0"}}, {"uniqueid": "MTK0579:3OVR4I9USQQ93L8C9XGLN410URQQ4I", "current_trial": 32, "dateTime": 1511218829190, "trialdata": {"rt": -1, "stimulus": "<p id=\"stim\">MAMMAL</p>", "key_press": -1, "type": "PRES_VIS", "word": "mammal", "wordID": 860, "conditions": [18, 1200, "v", 18000], "trial": 0, "serialpos": 11, "trial_type": "single-stim", "trial_index": 32, "time_elapsed": 833054, "internal_node_id": "0.0-23.0"}}, {"uniqueid": "MTK0579:3OVR4I9USQQ93L8C9XGLN410URQQ4I", "current_trial": 33, "dateTime": 1511218831503, "trialdata": {"rt": -1, "stimulus": "<p id=\"stim\">OZONE</p>", "key_press": -1, "type": "PRES_VIS", "word": "ozone", "wordID": 995, "conditions": [18, 1200, "v", 18000], "trial": 0, "serialpos": 12, "trial_type": "single-stim", "trial_index": 33, "time_elapsed": 835366, "internal_node_id": "0.0-24.0"}}, {"uniqueid": "MTK0579:3OVR4I9USQQ93L8C9XGLN410URQQ4I", "current_trial": 34, "dateTime": 1511218833555, "trialdata": {"rt": -1, "stimulus": "<p id=\"stim\">RAZOR</p>", "key_press": -1, "type": "PRES_VIS", "word": "razor", "wordID": 1170, "conditions": [18, 1200, "v", 18000], "trial": 0, "serialpos": 13, "trial_type": "single-stim", "trial_index": 34, "time_elapsed": 837418, "internal_node_id": "0.0-25.0"}}, {"uniqueid": "MTK0579:3OVR4I9USQQ93L8C9XGLN410URQQ4I", "current_trial": 35, "dateTime": 1511218835607, "trialdata": {"rt": -1, "stimulus": "<p id=\"stim\">FLIPPER</p>", "key_press": -1, "type": "PRES_VIS", "word": "flipper", "wordID": 579, "conditions": [18, 1200, "v", 18000], "trial": 0, "serialpos": 14, "trial_type": "single-stim", "trial_index": 35, "time_elapsed": 839471, "internal_node_id": "0.0-26.0"}}, {"uniqueid": "MTK0579:3OVR4I9USQQ93L8C9XGLN410URQQ4I", "current_trial": 36, "dateTime": 1511218837785, "trialdata": {"rt": -1, "stimulus": "<p id=\"stim\">TROUT</p>", "key_press": -1, "type": "PRES_VIS", "word": "trout", "wordID": 1510, "conditions": [18, 1200, "v", 18000], "trial": 0, "serialpos": 15, "trial_type": "single-stim", "trial_index": 36, "time_elapsed": 841648, "internal_node_id": "0.0-27.0"}}, {"uniqueid": "MTK0579:3OVR4I9USQQ93L8C9XGLN410URQQ4I", "current_trial": 37, "dateTime": 1511218840136, "trialdata": {"rt": -1, "stimulus": "<p id=\"stim\">PLIERS</p>", "key_press": -1, "type": "PRES_VIS", "word": "pliers", "wordID": 1088, "conditions": [18, 1200, "v", 18000], "trial": 0, "serialpos": 16, "trial_type": "single-stim", "trial_index": 37, "time_elapsed": 844000, "internal_node_id": "0.0-28.0"}}, {"uniqueid": "MTK0579:3OVR4I9USQQ93L8C9XGLN410URQQ4I", "current_trial": 38, "dateTime": 1511218842301, "trialdata": {"rt": -1, "stimulus": "<p id=\"stim\">BLOCKADE</p>", "key_press": -1, "type": "PRES_VIS", "word": "blockade", "wordID": 136, "conditions": [18, 1200, "v", 18000], "trial": 0, "serialpos": 17, "trial_type": "single-stim", "trial_index": 38, "time_elapsed": 846164, "internal_node_id": "0.0-29.0"}}, {"uniqueid": "MTK0579:3OVR4I9USQQ93L8C9XGLN410URQQ4I", "current_trial": 39, "dateTime": 1511218844523, "trialdata": {"rt": -1, "stimulus": "", "key_press": -1, "type": "PRE_RECALL_DELAY", "trial_type": "single-stim", "trial_index": 39, "time_elapsed": 848387, "internal_node_id": "0.0-30.0-0.0"}}, {"uniqueid": "MTK0579:3OVR4I9USQQ93L8C9XGLN410URQQ4I", "current_trial": 40, "dateTime": 1511218845048, "trialdata": {"rt": -1000, "stimulus": "/static/audio/400Hz.wav", "key_press": -1, "type": "PRE_RECALL_ALERT", "trial_type": "single-audio", "trial_index": 40, "time_elapsed": 848911, "internal_node_id": "0.0-31.0"}}, {"uniqueid": "MTK0579:3OVR4I9USQQ93L8C9XGLN410URQQ4I", "current_trial": 41, "dateTime": 1511218905059, "trialdata": {"rt": [3919, 5041, 6462, 8392, 9560, 10503, 22183, 29578, 37745], "recwords": ["bucket", "love", "flipper", "student", "orange", "fox", "grave", "wagon", ""], "type": "FREE_RECALL", "conditions": [18, 1200, "v", 18000], "trial": 0, "trial_type": "free-recall", "trial_index": 41, "time_elapsed": 908917, "internal_node_id": "0.0-32.0-0.0"}}, {"uniqueid": "MTK0579:3OVR4I9USQQ93L8C9XGLN410URQQ4I", "current_trial": 42, "dateTime": 1511219789621, "trialdata": {"rt": 882552, "key_press": 71, "type": "INSTRUCTIONS", "trial_type": "text", "trial_index": 42, "time_elapsed": 1793484, "internal_node_id": "0.0-33.0"}}, {"uniqueid": "MTK0579:3OVR4I9USQQ93L8C9XGLN410URQQ4I", "current_trial": 43, "dateTime": 1511219809634, "trialdata": {"rt": [3566, 6190, 8712, 11632, 14461, 17464], "responses": ["13", "11", "24", "29", "13", "14"], "num1": [9, 2, 8, 8, 4, 3, 2], "num2": [1, 1, 8, 2, 7, 2, 3], "num3": [2, 8, 6, 9, 2, 9, 8], "type": "DISTRACTOR", "conditions": [18, 1200, "a", 18000], "trial": 1, "trial_type": "math-distractor", "trial_index": 43, "time_elapsed": 1813496, "internal_node_id": "0.0-34.0"}}, {"uniqueid": "MTK0579:3OVR4I9USQQ93L8C9XGLN410URQQ4I", "current_trial": 44, "dateTime": 1511219812642, "trialdata": {"rt": -1, "stimulus": "<p id=\"stim\">10</p>", "key_press": -1, "trial_type": "single-stim", "trial_index": 44, "time_elapsed": 1816506, "internal_node_id": "0.0-35.0-0.0"}}, {"uniqueid": "MTK0579:3OVR4I9USQQ93L8C9XGLN410URQQ4I", "current_trial": 45, "dateTime": 1511219813645, "trialdata": {"rt": -1, "stimulus": "<p id=\"stim\">9</p>", "key_press": -1, "trial_type": "single-stim", "trial_index": 45, "time_elapsed": 1817509, "internal_node_id": "0.0-35.0-1.0"}}, {"uniqueid": "MTK0579:3OVR4I9USQQ93L8C9XGLN410URQQ4I", "current_trial": 46, "dateTime": 1511219814650, "trialdata": {"rt": 876, "stimulus": "<p id=\"stim\">8</p>", "key_press": 183, "trial_type": "single-stim", "trial_index": 46, "time_elapsed": 1818513, "internal_node_id": "0.0-35.0-2.0"}}, {"uniqueid": "MTK0579:3OVR4I9USQQ93L8C9XGLN410URQQ4I", "current_trial": 47, "dateTime": 1511219815655, "trialdata": {"rt": 104, "stimulus": "<p id=\"stim\">7</p>", "key_press": 183, "trial_type": "single-stim", "trial_index": 47, "time_elapsed": 1819518, "internal_node_id": "0.0-35.0-3.0"}}, {"uniqueid": "MTK0579:3OVR4I9USQQ93L8C9XGLN410URQQ4I", "current_trial": 48, "dateTime": 1511219816662, "trialdata": {"rt": 131, "stimulus": "<p id=\"stim\">6</p>", "key_press": 183, "trial_type": "single-stim", "trial_index": 48, "time_elapsed": 1820524, "internal_node_id": "0.0-35.0-4.0"}}, {"uniqueid": "MTK0579:3OVR4I9USQQ93L8C9XGLN410URQQ4I", "current_trial": 49, "dateTime": 1511219817666, "trialdata": {"rt": -1, "stimulus": "<p id=\"stim\">5</p>", "key_press": -1, "trial_type": "single-stim", "trial_index": 49, "time_elapsed": 1821529, "internal_node_id": "0.0-35.0-5.0"}}, {"uniqueid": "MTK0579:3OVR4I9USQQ93L8C9XGLN410URQQ4I", "current_trial": 50, "dateTime": 1511219818672, "trialdata": {"rt": -1, "stimulus": "<p id=\"stim\">4</p>", "key_press": -1, "trial_type": "single-stim", "trial_index": 50, "time_elapsed": 1822536, "internal_node_id": "0.0-35.0-6.0"}}, {"uniqueid": "MTK0579:3OVR4I9USQQ93L8C9XGLN410URQQ4I", "current_trial": 51, "dateTime": 1511219819676, "trialdata": {"rt": -1, "stimulus": "<p id=\"stim\">3</p>", "key_press": -1, "trial_type": "single-stim", "trial_index": 51, "time_elapsed": 1823540, "internal_node_id": "0.0-35.0-7.0"}}, {"uniqueid": "MTK0579:3OVR4I9USQQ93L8C9XGLN410URQQ4I", "current_trial": 52, "dateTime": 1511219820681, "trialdata": {"rt": -1, "stimulus": "<p id=\"stim\">2</p>", "key_press": -1, "trial_type": "single-stim", "trial_index": 52, "time_elapsed": 1824544, "internal_node_id": "0.0-35.0-8.0"}}, {"uniqueid": "MTK0579:3OVR4I9USQQ93L8C9XGLN410URQQ4I", "current_trial": 53, "dateTime": 1511219821686, "trialdata": {"rt": -1, "stimulus": "<p id=\"stim\">1</p>", "key_press": -1, "trial_type": "single-stim", "trial_index": 53, "time_elapsed": 1825550, "internal_node_id": "0.0-35.0-9.0"}}, {"uniqueid": "MTK0579:3OVR4I9USQQ93L8C9XGLN410URQQ4I", "current_trial": 54, "dateTime": 1511219823190, "trialdata": {"rt": -1, "stimulus": "<p id=\"stim\">+</p>", "key_press": -1, "type": "FIXATION", "trial_type": "single-stim", "trial_index": 54, "time_elapsed": 1827054, "internal_node_id": "0.0-36.0-0.0"}}, {"uniqueid": "MTK0579:3OVR4I9USQQ93L8C9XGLN410URQQ4I", "current_trial": 55, "dateTime": 1511219825269, "trialdata": {"rt": -1000, "stimulus": "/static/audio/wordpool/WIDOW.wav", "key_press": -1, "type": "PRES_AUD", "word": "widow", "wordID": 1607, "conditions": [18, 1200, "a", 18000], "trial": 1, "serialpos": 0, "trial_type": "single-audio", "trial_index": 55, "time_elapsed": 1829133, "internal_node_id": "0.0-37.0"}}, {"uniqueid": "MTK0579:3OVR4I9USQQ93L8C9XGLN410URQQ4I", "current_trial": 56, "dateTime": 1511219827277, "trialdata": {"rt": 161.33333333345945, "stimulus": "/static/audio/wordpool/FLASK.wav", "key_press": 182, "type": "PRES_AUD", "word": "flask", "wordID": 575, "conditions": [18, 1200, "a", 18000], "trial": 1, "serialpos": 1, "trial_type": "single-audio", "trial_index": 56, "time_elapsed": 1831141, "internal_node_id": "0.0-38.0"}}, {"uniqueid": "MTK0579:3OVR4I9USQQ93L8C9XGLN410URQQ4I", "current_trial": 57, "dateTime": 1511219829611, "trialdata": {"rt": -1000, "stimulus": "/static/audio/wordpool/CONVICT.wav", "key_press": -1, "type": "PRES_AUD", "word": "convict", "wordID": 370, "conditions": [18, 1200, "a", 18000], "trial": 1, "serialpos": 2, "trial_type": "single-audio", "trial_index": 57, "time_elapsed": 1833475, "internal_node_id": "0.0-39.0"}}, {"uniqueid": "MTK0579:3OVR4I9USQQ93L8C9XGLN410URQQ4I", "current_trial": 58, "dateTime": 1511219831767, "trialdata": {"rt": -1000, "stimulus": "/static/audio/wordpool/SCALLOP.wav", "key_press": -1, "type": "PRES_AUD", "word": "scallop", "wordID": 1241, "conditions": [18, 1200, "a", 18000], "trial": 1, "serialpos": 3, "trial_type": "single-audio", "trial_index": 58, "time_elapsed": 1835630, "internal_node_id": "0.0-40.0"}}, {"uniqueid": "MTK0579:3OVR4I9USQQ93L8C9XGLN410URQQ4I", "current_trial": 59, "dateTime": 1511219834127, "trialdata": {"rt": -1000, "stimulus": "/static/audio/wordpool/PIGEON.wav", "key_press": -1, "type": "PRES_AUD", "word": "pigeon", "wordID": 1064, "conditions": [18, 1200, "a", 18000], "trial": 1, "serialpos": 4, "trial_type": "single-audio", "trial_index": 59, "time_elapsed": 1837991, "internal_node_id": "0.0-41.0"}}, {"uniqueid": "MTK0579:3OVR4I9USQQ93L8C9XGLN410URQQ4I", "current_trial": 60, "dateTime": 1511219836282, "trialdata": {"rt": -1000, "stimulus": "/static/audio/wordpool/FOREHEAD.wav", "key_press": -1, "type": "PRES_AUD", "word": "forehead", "wordID": 591, "conditions": [18, 1200, "a", 18000], "trial": 1, "serialpos": 5, "trial_type": "single-audio", "trial_index": 60, "time_elapsed": 1840146, "internal_node_id": "0.0-42.0"}}, {"uniqueid": "MTK0579:3OVR4I9USQQ93L8C9XGLN410URQQ4I", "current_trial": 61, "dateTime": 1511219838401, "trialdata": {"rt": -1000, "stimulus": "/static/audio/wordpool/ANTLER.wav", "key_press": -1, "type": "PRES_AUD", "word": "antler", "wordID": 28, "conditions": [18, 1200, "a", 18000], "trial": 1, "serialpos": 6, "trial_type": "single-audio", "trial_index": 61, "time_elapsed": 1842265, "internal_node_id": "0.0-43.0"}}, {"uniqueid": "MTK0579:3OVR4I9USQQ93L8C9XGLN410URQQ4I", "current_trial": 62, "dateTime": 1511219840420, "trialdata": {"rt": -1000, "stimulus": "/static/audio/wordpool/PORK.wav", "key_press": -1, "type": "PRES_AUD", "word": "pork", "wordID": 1107, "conditions": [18, 1200, "a", 18000], "trial": 1, "serialpos": 7, "trial_type": "single-audio", "trial_index": 62, "time_elapsed": 1844284, "internal_node_id": "0.0-44.0"}}, {"uniqueid": "MTK0579:3OVR4I9USQQ93L8C9XGLN410URQQ4I", "current_trial": 63, "dateTime": 1511219842697, "trialdata": {"rt": -1000, "stimulus": "/static/audio/wordpool/SISTER.wav", "key_press": -1, "type": "PRES_AUD", "word": "sister", "wordID": 1311, "conditions": [18, 1200, "a", 18000], "trial": 1, "serialpos": 8, "trial_type": "single-audio", "trial_index": 63, "time_elapsed": 1846561, "internal_node_id": "0.0-45.0"}}, {"uniqueid": "MTK0579:3OVR4I9USQQ93L8C9XGLN410URQQ4I", "current_trial": 64, "dateTime": 1511219844704, "trialdata": {"rt": -1000, "stimulus": "/static/audio/wordpool/BELLY.wav", "key_press": -1, "type": "PRES_AUD", "word": "belly", "wordID": 118, "conditions": [18, 1200, "a", 18000], "trial": 1, "serialpos": 9, "trial_type": "single-audio", "trial_index": 64, "time_elapsed": 1848567, "internal_node_id": "0.0-46.0"}}, {"uniqueid": "MTK0579:3OVR4I9USQQ93L8C9XGLN410URQQ4I", "current_trial": 65, "dateTime": 1511219846926, "trialdata": {"rt": -1000, "stimulus": "/static/audio/wordpool/SADDLE.wav", "key_press": -1, "type": "PRES_AUD", "word": "saddle", "wordID": 1220, "conditions": [18, 1200, "a", 18000], "trial": 1, "serialpos": 10, "trial_type": "single-audio", "trial_index": 65, "time_elapsed": 1850789, "internal_node_id": "0.0-47.0"}}, {"uniqueid": "MTK0579:3OVR4I9USQQ93L8C9XGLN410URQQ4I", "current_trial": 66, "dateTime": 1511219849222, "trialdata": {"rt": -1000, "stimulus": "/static/audio/wordpool/PORTRAIT.wav", "key_press": -1, "type": "PRES_AUD", "word": "portrait", "wordID": 1110, "conditions": [18, 1200, "a", 18000], "trial": 1, "serialpos": 11, "trial_type": "single-audio", "trial_index": 66, "time_elapsed": 1853086, "internal_node_id": "0.0-48.0"}}, {"uniqueid": "MTK0579:3OVR4I9USQQ93L8C9XGLN410URQQ4I", "current_trial": 67, "dateTime": 1511219851247, "trialdata": {"rt": -1000, "stimulus": "/static/audio/wordpool/NEUTRON.wav", "key_press": -1, "type": "PRES_AUD", "word": "neutron", "wordID": 946, "conditions": [18, 1200, "a", 18000], "trial": 1, "serialpos": 12, "trial_type": "single-audio", "trial_index": 67, "time_elapsed": 1855111, "internal_node_id": "0.0-49.0"}}, {"uniqueid": "MTK0579:3OVR4I9USQQ93L8C9XGLN410URQQ4I", "current_trial": 68, "dateTime": 1511219853511, "trialdata": {"rt": -1000, "stimulus": "/static/audio/wordpool/PILOT.wav", "key_press": -1, "type": "PRES_AUD", "word": "pilot", "wordID": 1069, "conditions": [18, 1200, "a", 18000], "trial": 1, "serialpos": 13, "trial_type": "single-audio", "trial_index": 68, "time_elapsed": 1857375, "internal_node_id": "0.0-50.0"}}, {"uniqueid": "MTK0579:3OVR4I9USQQ93L8C9XGLN410URQQ4I", "current_trial": 69, "dateTime": 1511219855604, "trialdata": {"rt": -1000, "stimulus": "/static/audio/wordpool/MARROW.wav", "key_press": -1, "type": "PRES_AUD", "word": "marrow", "wordID": 871, "conditions": [18, 1200, "a", 18000], "trial": 1, "serialpos": 14, "trial_type": "single-audio", "trial_index": 69, "time_elapsed": 1859468, "internal_node_id": "0.0-51.0"}}, {"uniqueid": "MTK0579:3OVR4I9USQQ93L8C9XGLN410URQQ4I", "current_trial": 70, "dateTime": 1511219857740, "trialdata": {"rt": -1000, "stimulus": "/static/audio/wordpool/BOYFRIEND.wav", "key_press": -1, "type": "PRES_AUD", "word": "boyfriend", "wordID": 161, "conditions": [18, 1200, "a", 18000], "trial": 1, "serialpos": 15, "trial_type": "single-audio", "trial_index": 70, "time_elapsed": 1861604, "internal_node_id": "0.0-52.0"}}, {"uniqueid": "MTK0579:3OVR4I9USQQ93L8C9XGLN410URQQ4I", "current_trial": 71, "dateTime": 1511219860024, "trialdata": {"rt": -1000, "stimulus": "/static/audio/wordpool/WARDROBE.wav", "key_press": -1, "type": "PRES_AUD", "word": "wardrobe", "wordID": 1586, "conditions": [18, 1200, "a", 18000], "trial": 1, "serialpos": 16, "trial_type": "single-audio", "trial_index": 71, "time_elapsed": 1863888, "internal_node_id": "0.0-53.0"}}, {"uniqueid": "MTK0579:3OVR4I9USQQ93L8C9XGLN410URQQ4I", "current_trial": 72, "dateTime": 1511219862143, "trialdata": {"rt": -1000, "stimulus": "/static/audio/wordpool/ELBOW.wav", "key_press": -1, "type": "PRES_AUD", "word": "elbow", "wordID": 519, "conditions": [18, 1200, "a", 18000], "trial": 1, "serialpos": 17, "trial_type": "single-audio", "trial_index": 72, "time_elapsed": 1866007, "internal_node_id": "0.0-54.0"}}, {"uniqueid": "MTK0579:3OVR4I9USQQ93L8C9XGLN410URQQ4I", "current_trial": 73, "dateTime": 1511219863466, "trialdata": {"rt": -1, "stimulus": "", "key_press": -1, "type": "PRE_RECALL_DELAY", "trial_type": "single-stim", "trial_index": 73, "time_elapsed": 1867330, "internal_node_id": "0.0-55.0-0.0"}}, {"uniqueid": "MTK0579:3OVR4I9USQQ93L8C9XGLN410URQQ4I", "current_trial": 74, "dateTime": 1511219863969, "trialdata": {"rt": -1000, "stimulus": "/static/audio/400Hz.wav", "key_press": -1, "type": "PRE_RECALL_ALERT", "trial_type": "single-audio", "trial_index": 74, "time_elapsed": 1867832, "internal_node_id": "0.0-56.0"}}, {"uniqueid": "MTK0579:3OVR4I9USQQ93L8C9XGLN410URQQ4I", "current_trial": 75, "dateTime": 1511219923995, "trialdata": {"rt": [2224, 5119, 7111, 8323, 10385, 13282, 20572, 26574, 38430], "recwords": ["scalloo", "saddle", "boyfriend", "pork", "portrait", "widow", "wardrobe", "pilot", ""], "type": "FREE_RECALL", "conditions": [18, 1200, "a", 18000], "trial": 1, "trial_type": "free-recall", "trial_index": 75, "time_elapsed": 1927843, "internal_node_id": "0.0-57.0-0.0"}}, {"uniqueid": "MTK0579:3OVR4I9USQQ93L8C9XGLN410URQQ4I", "current_trial": 76, "dateTime": 1511219928478, "trialdata": {"rt": 2462, "key_press": 68, "type": "INSTRUCTIONS", "trial_type": "text", "trial_index": 76, "time_elapsed": 1932324, "internal_node_id": "0.0-58.0"}}, {"uniqueid": "MTK0579:3OVR4I9USQQ93L8C9XGLN410URQQ4I", "current_trial": 77, "dateTime": 1511219953492, "trialdata": {"rt": [3561, 5310, 8364, 11765, 14595, 17901, 20463, 22151], "responses": ["10", "10", "16", "13", "17", "14", "10", "12"], "num1": [5, 1, 4, 3, 4, 4, 6, 2, 5], "num2": [3, 8, 4, 4, 7, 4, 1, 9, 4], "num3": [2, 1, 8, 5, 6, 6, 3, 1, 6], "type": "DISTRACTOR", "conditions": [12, 800, "v", 24000], "trial": 2, "trial_type": "math-distractor", "trial_index": 77, "time_elapsed": 1957355, "internal_node_id": "0.0-59.0"}}, {"uniqueid": "MTK0579:3OVR4I9USQQ93L8C9XGLN410URQQ4I", "current_trial": 78, "dateTime": 1511219956499, "trialdata": {"rt": -1, "stimulus": "<p id=\"stim\">10</p>", "key_press": -1, "trial_type": "single-stim", "trial_index": 78, "time_elapsed": 1960363, "internal_node_id": "0.0-60.0-0.0"}}, {"uniqueid": "MTK0579:3OVR4I9USQQ93L8C9XGLN410URQQ4I", "current_trial": 79, "dateTime": 1511219957504, "trialdata": {"rt": -1, "stimulus": "<p id=\"stim\">9</p>", "key_press": -1, "trial_type": "single-stim", "trial_index": 79, "time_elapsed": 1961367, "internal_node_id": "0.0-60.0-1.0"}}, {"uniqueid": "MTK0579:3OVR4I9USQQ93L8C9XGLN410URQQ4I", "current_trial": 80, "dateTime": 1511219958506, "trialdata": {"rt": -1, "stimulus": "<p id=\"stim\">8</p>", "key_press": -1, "trial_type": "single-stim", "trial_index": 80, "time_elapsed": 1962369, "internal_node_id": "0.0-60.0-2.0"}}, {"uniqueid": "MTK0579:3OVR4I9USQQ93L8C9XGLN410URQQ4I", "current_trial": 81, "dateTime": 1511219959510, "trialdata": {"rt": -1, "stimulus": "<p id=\"stim\">7</p>", "key_press": -1, "trial_type": "single-stim", "trial_index": 81, "time_elapsed": 1963374, "internal_node_id": "0.0-60.0-3.0"}}, {"uniqueid": "MTK0579:3OVR4I9USQQ93L8C9XGLN410URQQ4I", "current_trial": 82, "dateTime": 1511219960512, "trialdata": {"rt": -1, "stimulus": "<p id=\"stim\">6</p>", "key_press": -1, "trial_type": "single-stim", "trial_index": 82, "time_elapsed": 1964376, "internal_node_id": "0.0-60.0-4.0"}}, {"uniqueid": "MTK0579:3OVR4I9USQQ93L8C9XGLN410URQQ4I", "current_trial": 83, "dateTime": 1511219961514, "trialdata": {"rt": -1, "stimulus": "<p id=\"stim\">5</p>", "key_press": -1, "trial_type": "single-stim", "trial_index": 83, "time_elapsed": 1965378, "internal_node_id": "0.0-60.0-5.0"}}, {"uniqueid": "MTK0579:3OVR4I9USQQ93L8C9XGLN410URQQ4I", "current_trial": 84, "dateTime": 1511219962518, "trialdata": {"rt": -1, "stimulus": "<p id=\"stim\">4</p>", "key_press": -1, "trial_type": "single-stim", "trial_index": 84, "time_elapsed": 1966380, "internal_node_id": "0.0-60.0-6.0"}}, {"uniqueid": "MTK0579:3OVR4I9USQQ93L8C9XGLN410URQQ4I", "current_trial": 85, "dateTime": 1511219963522, "trialdata": {"rt": -1, "stimulus": "<p id=\"stim\">3</p>", "key_press": -1, "trial_type": "single-stim", "trial_index": 85, "time_elapsed": 1967386, "internal_node_id": "0.0-60.0-7.0"}}, {"uniqueid": "MTK0579:3OVR4I9USQQ93L8C9XGLN410URQQ4I", "current_trial": 86, "dateTime": 1511219964525, "trialdata": {"rt": -1, "stimulus": "<p id=\"stim\">2</p>", "key_press": -1, "trial_type": "single-stim", "trial_index": 86, "time_elapsed": 1968388, "internal_node_id": "0.0-60.0-8.0"}}, {"uniqueid": "MTK0579:3OVR4I9USQQ93L8C9XGLN410URQQ4I", "current_trial": 87, "dateTime": 1511219965530, "trialdata": {"rt": -1, "stimulus": "<p id=\"stim\">1</p>", "key_press": -1, "trial_type": "single-stim", "trial_index": 87, "time_elapsed": 1969393, "internal_node_id": "0.0-60.0-9.0"}}, {"uniqueid": "MTK0579:3OVR4I9USQQ93L8C9XGLN410URQQ4I", "current_trial": 88, "dateTime": 1511219967035, "trialdata": {"rt": -1, "stimulus": "<p id=\"stim\">+</p>", "key_press": -1, "type": "FIXATION", "trial_type": "single-stim", "trial_index": 88, "time_elapsed": 1970899, "internal_node_id": "0.0-61.0-0.0"}}, {"uniqueid": "MTK0579:3OVR4I9USQQ93L8C9XGLN410URQQ4I", "current_trial": 89, "dateTime": 1511219967839, "trialdata": {"rt": -1, "stimulus": "<p id=\"stim\">DORM</p>", "key_press": -1, "type": "PRES_VIS", "word": "dorm", "wordID": 487, "conditions": [12, 800, "v", 24000], "trial": 2, "serialpos": 0, "trial_type": "single-stim", "trial_index": 89, "time_elapsed": 1971702, "internal_node_id": "0.0-62.0"}}, {"uniqueid": "MTK0579:3OVR4I9USQQ93L8C9XGLN410URQQ4I", "current_trial": 90, "dateTime": 1511219969701, "trialdata": {"rt": -1, "stimulus": "<p id=\"stim\">COFFEE</p>", "key_press": -1, "type": "PRES_VIS", "word": "coffee", "wordID": 340, "conditions": [12, 800, "v", 24000], "trial": 2, "serialpos": 1, "trial_type": "single-stim", "trial_index": 90, "time_elapsed": 1973565, "internal_node_id": "0.0-63.0"}}, {"uniqueid": "MTK0579:3OVR4I9USQQ93L8C9XGLN410URQQ4I", "current_trial": 91, "dateTime": 1511219971547, "trialdata": {"rt": -1, "stimulus": "<p id=\"stim\">LIGHTNING</p>", "key_press": -1, "type": "PRES_VIS", "word": "lightning", "wordID": 819, "conditions": [12, 800, "v", 24000], "trial": 2, "serialpos": 2, "trial_type": "single-stim", "trial_index": 91, "time_elapsed": 1975411, "internal_node_id": "0.0-64.0"}}, {"uniqueid": "MTK0579:3OVR4I9USQQ93L8C9XGLN410URQQ4I", "current_trial": 92, "dateTime": 1511219973156, "trialdata": {"rt": -1, "stimulus": "<p id=\"stim\">FLESH</p>", "key_press": -1, "type": "PRES_VIS", "word": "flesh", "wordID": 578, "conditions": [12, 800, "v", 24000], "trial": 2, "serialpos": 3, "trial_type": "single-stim", "trial_index": 92, "time_elapsed": 1977020, "internal_node_id": "0.0-65.0"}}, {"uniqueid": "MTK0579:3OVR4I9USQQ93L8C9XGLN410URQQ4I", "current_trial": 93, "dateTime": 1511219974968, "trialdata": {"rt": -1, "stimulus": "<p id=\"stim\">MARKER</p>", "key_press": -1, "type": "PRES_VIS", "word": "marker", "wordID": 869, "conditions": [12, 800, "v", 24000], "trial": 2, "serialpos": 4, "trial_type": "single-stim", "trial_index": 93, "time_elapsed": 1978832, "internal_node_id": "0.0-66.0"}}, {"uniqueid": "MTK0579:3OVR4I9USQQ93L8C9XGLN410URQQ4I", "current_trial": 94, "dateTime": 1511219976729, "trialdata": {"rt": -1, "stimulus": "<p id=\"stim\">DRESS</p>", "key_press": -1, "type": "PRES_VIS", "word": "dress", "wordID": 494, "conditions": [12, 800, "v", 24000], "trial": 2, "serialpos": 5, "trial_type": "single-stim", "trial_index": 94, "time_elapsed": 1980592, "internal_node_id": "0.0-67.0"}}, {"uniqueid": "MTK0579:3OVR4I9USQQ93L8C9XGLN410URQQ4I", "current_trial": 95, "dateTime": 1511219978451, "trialdata": {"rt": -1, "stimulus": "<p id=\"stim\">BASEMENT</p>", "key_press": -1, "type": "PRES_VIS", "word": "basement", "wordID": 93, "conditions": [12, 800, "v", 24000], "trial": 2, "serialpos": 6, "trial_type": "single-stim", "trial_index": 95, "time_elapsed": 1982315, "internal_node_id": "0.0-68.0"}}, {"uniqueid": "MTK0579:3OVR4I9USQQ93L8C9XGLN410URQQ4I", "current_trial": 96, "dateTime": 1511219980375, "trialdata": {"rt": -1, "stimulus": "<p id=\"stim\">CELLAR</p>", "key_press": -1, "type": "PRES_VIS", "word": "cellar", "wordID": 266, "conditions": [12, 800, "v", 24000], "trial": 2, "serialpos": 7, "trial_type": "single-stim", "trial_index": 96, "time_elapsed": 1984238, "internal_node_id": "0.0-69.0"}}, {"uniqueid": "MTK0579:3OVR4I9USQQ93L8C9XGLN410URQQ4I", "current_trial": 97, "dateTime": 1511219982313, "trialdata": {"rt": -1, "stimulus": "<p id=\"stim\">GROUND</p>", "key_press": -1, "type": "PRES_VIS", "word": "ground", "wordID": 665, "conditions": [12, 800, "v", 24000], "trial": 2, "serialpos": 8, "trial_type": "single-stim", "trial_index": 97, "time_elapsed": 1986177, "internal_node_id": "0.0-70.0"}}, {"uniqueid": "MTK0579:3OVR4I9USQQ93L8C9XGLN410URQQ4I", "current_trial": 98, "dateTime": 1511219984039, "trialdata": {"rt": -1, "stimulus": "<p id=\"stim\">DENIM</p>", "key_press": -1, "type": "PRES_VIS", "word": "denim", "wordID": 445, "conditions": [12, 800, "v", 24000], "trial": 2, "serialpos": 9, "trial_type": "single-stim", "trial_index": 98, "time_elapsed": 1987903, "internal_node_id": "0.0-71.0"}}, {"uniqueid": "MTK0579:3OVR4I9USQQ93L8C9XGLN410URQQ4I", "current_trial": 99, "dateTime": 1511219985950, "trialdata": {"rt": -1, "stimulus": "<p id=\"stim\">STOVE</p>", "key_press": -1, "type": "PRES_VIS", "word": "stove", "wordID": 1387, "conditions": [12, 800, "v", 24000], "trial": 2, "serialpos": 10, "trial_type": "single-stim", "trial_index": 99, "time_elapsed": 1989813, "internal_node_id": "0.0-72.0"}}, {"uniqueid": "MTK0579:3OVR4I9USQQ93L8C9XGLN410URQQ4I", "current_trial": 100, "dateTime": 1511219987659, "trialdata": {"rt": -1, "stimulus": "<p id=\"stim\">ULCER</p>", "key_press": -1, "type": "PRES_VIS", "word": "ulcer", "wordID": 1532, "conditions": [12, 800, "v", 24000], "trial": 2, "serialpos": 11, "trial_type": "single-stim", "trial_index": 100, "time_elapsed": 1991523, "internal_node_id": "0.0-73.0"}}, {"uniqueid": "MTK0579:3OVR4I9USQQ93L8C9XGLN410URQQ4I", "current_trial": 101, "dateTime": 1511219990063, "trialdata": {"rt": -1, "stimulus": "", "key_press": -1, "type": "PRE_RECALL_DELAY", "trial_type": "single-stim", "trial_index": 101, "time_elapsed": 1993926, "internal_node_id": "0.0-74.0-0.0"}}, {"uniqueid": "MTK0579:3OVR4I9USQQ93L8C9XGLN410URQQ4I", "current_trial": 102, "dateTime": 1511219990565, "trialdata": {"rt": -1000, "stimulus": "/static/audio/400Hz.wav", "key_press": -1, "type": "PRE_RECALL_ALERT", "trial_type": "single-audio", "trial_index": 102, "time_elapsed": 1994429, "internal_node_id": "0.0-75.0"}}, {"uniqueid": "MTK0579:3OVR4I9USQQ93L8C9XGLN410URQQ4I", "current_trial": 103, "dateTime": 1511220050583, "trialdata": {"rt": [1884, 3801, 5349, 6446, 7372, 9546, 10808, 14836, 29452], "recwords": ["ulcer", "stomach", "ulcer", "stove", "dorm", "cellar", "basement", "coffee", "flower"], "type": "FREE_RECALL", "conditions": [12, 800, "v", 24000], "trial": 2, "trial_type": "free-recall", "trial_index": 103, "time_elapsed": 2054437, "internal_node_id": "0.0-76.0-0.0"}}, {"uniqueid": "MTK0579:3OVR4I9USQQ93L8C9XGLN410URQQ4I", "current_trial": 104, "dateTime": 1511220054963, "trialdata": {"rt": 2375, "key_press": 13, "type": "INSTRUCTIONS", "trial_type": "text", "trial_index": 104, "time_elapsed": 2058826, "internal_node_id": "0.0-77.0"}}, {"uniqueid": "MTK0579:3OVR4I9USQQ93L8C9XGLN410URQQ4I", "current_trial": 105, "dateTime": 1511220080978, "trialdata": {"rt": [2442, 5095, 7060, 10166, 12526, 14424, 17161, 18884, 21872], "responses": ["20", "18", "5", "15", "22", "16", "17", "13", "9"], "num1": [2, 8, 1, 2, 4, 9, 6, 3, 5, 6], "num2": [9, 7, 3, 3, 9, 6, 5, 1, 2, 3], "num3": [9, 3, 1, 9, 9, 1, 6, 9, 2, 1], "type": "DISTRACTOR", "conditions": [24, 1600, "a", 24000], "trial": 3, "trial_type": "math-distractor", "trial_index": 105, "time_elapsed": 2084841, "internal_node_id": "0.0-78.0"}}, {"uniqueid": "MTK0579:3OVR4I9USQQ93L8C9XGLN410URQQ4I", "current_trial": 106, "dateTime": 1511220083985, "trialdata": {"rt": -1, "stimulus": "<p id=\"stim\">10</p>", "key_press": -1, "trial_type": "single-stim", "trial_index": 106, "time_elapsed": 2087849, "internal_node_id": "0.0-79.0-0.0"}}, {"uniqueid": "MTK0579:3OVR4I9USQQ93L8C9XGLN410URQQ4I", "current_trial": 107, "dateTime": 1511220084990, "trialdata": {"rt": -1, "stimulus": "<p id=\"stim\">9</p>", "key_press": -1, "trial_type": "single-stim", "trial_index": 107, "time_elapsed": 2088853, "internal_node_id": "0.0-79.0-1.0"}}, {"uniqueid": "MTK0579:3OVR4I9USQQ93L8C9XGLN410URQQ4I", "current_trial": 108, "dateTime": 1511220085993, "trialdata": {"rt": -1, "stimulus": "<p id=\"stim\">8</p>", "key_press": -1, "trial_type": "single-stim", "trial_index": 108, "time_elapsed": 2089857, "internal_node_id": "0.0-79.0-2.0"}}, {"uniqueid": "MTK0579:3OVR4I9USQQ93L8C9XGLN410URQQ4I", "current_trial": 109, "dateTime": 1511220086995, "trialdata": {"rt": -1, "stimulus": "<p id=\"stim\">7</p>", "key_press": -1, "trial_type": "single-stim", "trial_index": 109, "time_elapsed": 2090859, "internal_node_id": "0.0-79.0-3.0"}}, {"uniqueid": "MTK0579:3OVR4I9USQQ93L8C9XGLN410URQQ4I", "current_trial": 110, "dateTime": 1511220088000, "trialdata": {"rt": -1, "stimulus": "<p id=\"stim\">6</p>", "key_press": -1, "trial_type": "single-stim", "trial_index": 110, "time_elapsed": 2091863, "internal_node_id": "0.0-79.0-4.0"}}, {"uniqueid": "MTK0579:3OVR4I9USQQ93L8C9XGLN410URQQ4I", "current_trial": 111, "dateTime": 1511220089004, "trialdata": {"rt": -1, "stimulus": "<p id=\"stim\">5</p>", "key_press": -1, "trial_type": "single-stim", "trial_index": 111, "time_elapsed": 2092868, "internal_node_id": "0.0-79.0-5.0"}}, {"uniqueid": "MTK0579:3OVR4I9USQQ93L8C9XGLN410URQQ4I", "current_trial": 112, "dateTime": 1511220090008, "trialdata": {"rt": -1, "stimulus": "<p id=\"stim\">4</p>", "key_press": -1, "trial_type": "single-stim", "trial_index": 112, "time_elapsed": 2093872, "internal_node_id": "0.0-79.0-6.0"}}, {"uniqueid": "MTK0579:3OVR4I9USQQ93L8C9XGLN410URQQ4I", "current_trial": 113, "dateTime": 1511220091011, "trialdata": {"rt": -1, "stimulus": "<p id=\"stim\">3</p>", "key_press": -1, "trial_type": "single-stim", "trial_index": 113, "time_elapsed": 2094875, "internal_node_id": "0.0-79.0-7.0"}}, {"uniqueid": "MTK0579:3OVR4I9USQQ93L8C9XGLN410URQQ4I", "current_trial": 114, "dateTime": 1511220092016, "trialdata": {"rt": -1, "stimulus": "<p id=\"stim\">2</p>", "key_press": -1, "trial_type": "single-stim", "trial_index": 114, "time_elapsed": 2095880, "internal_node_id": "0.0-79.0-8.0"}}, {"uniqueid": "MTK0579:3OVR4I9USQQ93L8C9XGLN410URQQ4I", "current_trial": 115, "dateTime": 1511220093022, "trialdata": {"rt": -1, "stimulus": "<p id=\"stim\">1</p>", "key_press": -1, "trial_type": "single-stim", "trial_index": 115, "time_elapsed": 2096885, "internal_node_id": "0.0-79.0-9.0"}}, {"uniqueid": "MTK0579:3OVR4I9USQQ93L8C9XGLN410URQQ4I", "current_trial": 116, "dateTime": 1511220094526, "trialdata": {"rt": -1, "stimulus": "<p id=\"stim\">+</p>", "key_press": -1, "type": "FIXATION", "trial_type": "single-stim", "trial_index": 116, "time_elapsed": 2098390, "internal_node_id": "0.0-80.0-0.0"}}, {"uniqueid": "MTK0579:3OVR4I9USQQ93L8C9XGLN410URQQ4I", "current_trial": 117, "dateTime": 1511220096998, "trialdata": {"rt": -1000, "stimulus": "/static/audio/wordpool/SLUG.wav", "key_press": -1, "type": "PRES_AUD", "word": "slug", "wordID": 1328, "conditions": [24, 1600, "a", 24000], "trial": 3, "serialpos": 0, "trial_type": "single-audio", "trial_index": 117, "time_elapsed": 2100862, "internal_node_id": "0.0-81.0"}}, {"uniqueid": "MTK0579:3OVR4I9USQQ93L8C9XGLN410URQQ4I", "current_trial": 118, "dateTime": 1511220099658, "trialdata": {"rt": -1000, "stimulus": "/static/audio/wordpool/GRAPE.wav", "key_press": -1, "type": "PRES_AUD", "word": "grape", "wordID": 653, "conditions": [24, 1600, "a", 24000], "trial": 3, "serialpos": 1, "trial_type": "single-audio", "trial_index": 118, "time_elapsed": 2103522, "internal_node_id": "0.0-82.0"}}, {"uniqueid": "MTK0579:3OVR4I9USQQ93L8C9XGLN410URQQ4I", "current_trial": 119, "dateTime": 1511220102251, "trialdata": {"rt": -1000, "stimulus": "/static/audio/wordpool/ROOSTER.wav", "key_press": -1, "type": "PRES_AUD", "word": "rooster", "wordID": 1208, "conditions": [24, 1600, "a", 24000], "trial": 3, "serialpos": 2, "trial_type": "single-audio", "trial_index": 119, "time_elapsed": 2106114, "internal_node_id": "0.0-83.0"}}, {"uniqueid": "MTK0579:3OVR4I9USQQ93L8C9XGLN410URQQ4I", "current_trial": 120, "dateTime": 1511220105051, "trialdata": {"rt": -1000, "stimulus": "/static/audio/wordpool/PALACE.wav", "key_press": -1, "type": "PRES_AUD", "word": "palace", "wordID": 1005, "conditions": [24, 1600, "a", 24000], "trial": 3, "serialpos": 3, "trial_type": "single-audio", "trial_index": 120, "time_elapsed": 2108914, "internal_node_id": "0.0-84.0"}}, {"uniqueid": "MTK0579:3OVR4I9USQQ93L8C9XGLN410URQQ4I", "current_trial": 121, "dateTime": 1511220107484, "trialdata": {"rt": -1000, "stimulus": "/static/audio/wordpool/HERO.wav", "key_press": -1, "type": "PRES_AUD", "word": "hero", "wordID": 705, "conditions": [24, 1600, "a", 24000], "trial": 3, "serialpos": 4, "trial_type": "single-audio", "trial_index": 121, "time_elapsed": 2111348, "internal_node_id": "0.0-85.0"}}, {"uniqueid": "MTK0579:3OVR4I9USQQ93L8C9XGLN410URQQ4I", "current_trial": 122, "dateTime": 1511220109960, "trialdata": {"rt": -1000, "stimulus": "/static/audio/wordpool/FARMER.wav", "key_press": -1, "type": "PRES_AUD", "word": "farmer", "wordID": 552, "conditions": [24, 1600, "a", 24000], "trial": 3, "serialpos": 5, "trial_type": "single-audio", "trial_index": 122, "time_elapsed": 2113823, "internal_node_id": "0.0-86.0"}}, {"uniqueid": "MTK0579:3OVR4I9USQQ93L8C9XGLN410URQQ4I", "current_trial": 123, "dateTime": 1511220112382, "trialdata": {"rt": -1000, "stimulus": "/static/audio/wordpool/VIRUS.wav", "key_press": -1, "type": "PRES_AUD", "word": "virus", "wordID": 1571, "conditions": [24, 1600, "a", 24000], "trial": 3, "serialpos": 6, "trial_type": "single-audio", "trial_index": 123, "time_elapsed": 2116246, "internal_node_id": "0.0-87.0"}}, {"uniqueid": "MTK0579:3OVR4I9USQQ93L8C9XGLN410URQQ4I", "current_trial": 124, "dateTime": 1511220114960, "trialdata": {"rt": -1000, "stimulus": "/static/audio/wordpool/SHOULDER.wav", "key_press": -1, "type": "PRES_AUD", "word": "shoulder", "wordID": 1293, "conditions": [24, 1600, "a", 24000], "trial": 3, "serialpos": 7, "trial_type": "single-audio", "trial_index": 124, "time_elapsed": 2118823, "internal_node_id": "0.0-88.0"}}, {"uniqueid": "MTK0579:3OVR4I9USQQ93L8C9XGLN410URQQ4I", "current_trial": 125, "dateTime": 1511220117715, "trialdata": {"rt": -1000, "stimulus": "/static/audio/wordpool/ARM.wav", "key_press": -1, "type": "PRES_AUD", "word": "arm", "wordID": 37, "conditions": [24, 1600, "a", 24000], "trial": 3, "serialpos": 8, "trial_type": "single-audio", "trial_index": 125, "time_elapsed": 2121578, "internal_node_id": "0.0-89.0"}}, {"uniqueid": "MTK0579:3OVR4I9USQQ93L8C9XGLN410URQQ4I", "current_trial": 126, "dateTime": 1511220120444, "trialdata": {"rt": -1000, "stimulus": "/static/audio/wordpool/PARROT.wav", "key_press": -1, "type": "PRES_AUD", "word": "parrot", "wordID": 1014, "conditions": [24, 1600, "a", 24000], "trial": 3, "serialpos": 9, "trial_type": "single-audio", "trial_index": 126, "time_elapsed": 2124307, "internal_node_id": "0.0-90.0"}}, {"uniqueid": "MTK0579:3OVR4I9USQQ93L8C9XGLN410URQQ4I", "current_trial": 127, "dateTime": 1511220122970, "trialdata": {"rt": -1000, "stimulus": "/static/audio/wordpool/QUEEN.wav", "key_press": -1, "type": "PRES_AUD", "word": "queen", "wordID": 1148, "conditions": [24, 1600, "a", 24000], "trial": 3, "serialpos": 10, "trial_type": "single-audio", "trial_index": 127, "time_elapsed": 2126834, "internal_node_id": "0.0-91.0"}}, {"uniqueid": "MTK0579:3OVR4I9USQQ93L8C9XGLN410URQQ4I", "current_trial": 128, "dateTime": 1511220125608, "trialdata": {"rt": -1000, "stimulus": "/static/audio/wordpool/MUMMY.wav", "key_press": -1, "type": "PRES_AUD", "word": "mummy", "wordID": 931, "conditions": [24, 1600, "a", 24000], "trial": 3, "serialpos": 11, "trial_type": "single-audio", "trial_index": 128, "time_elapsed": 2129472, "internal_node_id": "0.0-92.0"}}, {"uniqueid": "MTK0579:3OVR4I9USQQ93L8C9XGLN410URQQ4I", "current_trial": 129, "dateTime": 1511220128407, "trialdata": {"rt": -1000, "stimulus": "/static/audio/wordpool/SPONGE.wav", "key_press": -1, "type": "PRES_AUD", "word": "sponge", "wordID": 1354, "conditions": [24, 1600, "a", 24000], "trial": 3, "serialpos": 12, "trial_type": "single-audio", "trial_index": 129, "time_elapsed": 2132270, "internal_node_id": "0.0-93.0"}}, {"uniqueid": "MTK0579:3OVR4I9USQQ93L8C9XGLN410URQQ4I", "current_trial": 130, "dateTime": 1511220130988, "trialdata": {"rt": -1000, "stimulus": "/static/audio/wordpool/BADGE.wav", "key_press": -1, "type": "PRES_AUD", "word": "badge", "wordID": 67, "conditions": [24, 1600, "a", 24000], "trial": 3, "serialpos": 13, "trial_type": "single-audio", "trial_index": 130, "time_elapsed": 2134851, "internal_node_id": "0.0-94.0"}}, {"uniqueid": "MTK0579:3OVR4I9USQQ93L8C9XGLN410URQQ4I", "current_trial": 131, "dateTime": 1511220133633, "trialdata": {"rt": -1000, "stimulus": "/static/audio/wordpool/CREVICE.wav", "key_press": -1, "type": "PRES_AUD", "word": "crevice", "wordID": 404, "conditions": [24, 1600, "a", 24000], "trial": 3, "serialpos": 14, "trial_type": "single-audio", "trial_index": 131, "time_elapsed": 2137496, "internal_node_id": "0.0-95.0"}}, {"uniqueid": "MTK0579:3OVR4I9USQQ93L8C9XGLN410URQQ4I", "current_trial": 132, "dateTime": 1511220136188, "trialdata": {"rt": -1000, "stimulus": "/static/audio/wordpool/DANCER.wav", "key_press": -1, "type": "PRES_AUD", "word": "dancer", "wordID": 436, "conditions": [24, 1600, "a", 24000], "trial": 3, "serialpos": 15, "trial_type": "single-audio", "trial_index": 132, "time_elapsed": 2140051, "internal_node_id": "0.0-96.0"}}, {"uniqueid": "MTK0579:3OVR4I9USQQ93L8C9XGLN410URQQ4I", "current_trial": 133, "dateTime": 1511220138730, "trialdata": {"rt": -1000, "stimulus": "/static/audio/wordpool/LAKE.wav", "key_press": -1, "type": "PRES_AUD", "word": "lake", "wordID": 795, "conditions": [24, 1600, "a", 24000], "trial": 3, "serialpos": 16, "trial_type": "single-audio", "trial_index": 133, "time_elapsed": 2142593, "internal_node_id": "0.0-97.0"}}, {"uniqueid": "MTK0579:3OVR4I9USQQ93L8C9XGLN410URQQ4I", "current_trial": 134, "dateTime": 1511220141184, "trialdata": {"rt": -1000, "stimulus": "/static/audio/wordpool/LAVA.wav", "key_press": -1, "type": "PRES_AUD", "word": "lava", "wordID": 803, "conditions": [24, 1600, "a", 24000], "trial": 3, "serialpos": 17, "trial_type": "single-audio", "trial_index": 134, "time_elapsed": 2145048, "internal_node_id": "0.0-98.0"}}, {"uniqueid": "MTK0579:3OVR4I9USQQ93L8C9XGLN410URQQ4I", "current_trial": 135, "dateTime": 1511220143928, "trialdata": {"rt": -1000, "stimulus": "/static/audio/wordpool/FILM.wav", "key_press": -1, "type": "PRES_AUD", "word": "film", "wordID": 564, "conditions": [24, 1600, "a", 24000], "trial": 3, "serialpos": 18, "trial_type": "single-audio", "trial_index": 135, "time_elapsed": 2147792, "internal_node_id": "0.0-99.0"}}, {"uniqueid": "MTK0579:3OVR4I9USQQ93L8C9XGLN410URQQ4I", "current_trial": 136, "dateTime": 1511220146599, "trialdata": {"rt": -1000, "stimulus": "/static/audio/wordpool/RAFT.wav", "key_press": -1, "type": "PRES_AUD", "word": "raft", "wordID": 1158, "conditions": [24, 1600, "a", 24000], "trial": 3, "serialpos": 19, "trial_type": "single-audio", "trial_index": 136, "time_elapsed": 2150463, "internal_node_id": "0.0-100.0"}}, {"uniqueid": "MTK0579:3OVR4I9USQQ93L8C9XGLN410URQQ4I", "current_trial": 137, "dateTime": 1511220149091, "trialdata": {"rt": -1000, "stimulus": "/static/audio/wordpool/STICKER.wav", "key_press": -1, "type": "PRES_AUD", "word": "sticker", "wordID": 1381, "conditions": [24, 1600, "a", 24000], "trial": 3, "serialpos": 20, "trial_type": "single-audio", "trial_index": 137, "time_elapsed": 2152954, "internal_node_id": "0.0-101.0"}}, {"uniqueid": "MTK0579:3OVR4I9USQQ93L8C9XGLN410URQQ4I", "current_trial": 138, "dateTime": 1511220151607, "trialdata": {"rt": -1000, "stimulus": "/static/audio/wordpool/MILDEW.wav", "key_press": -1, "type": "PRES_AUD", "word": "mildew", "wordID": 892, "conditions": [24, 1600, "a", 24000], "trial": 3, "serialpos": 21, "trial_type": "single-audio", "trial_index": 138, "time_elapsed": 2155471, "internal_node_id": "0.0-102.0"}}, {"uniqueid": "MTK0579:3OVR4I9USQQ93L8C9XGLN410URQQ4I", "current_trial": 139, "dateTime": 1511220154137, "trialdata": {"rt": -1000, "stimulus": "/static/audio/wordpool/FUNGUS.wav", "key_press": -1, "type": "PRES_AUD", "word": "fungus", "wordID": 613, "conditions": [24, 1600, "a", 24000], "trial": 3, "serialpos": 22, "trial_type": "single-audio", "trial_index": 139, "time_elapsed": 2158000, "internal_node_id": "0.0-103.0"}}, {"uniqueid": "MTK0579:3OVR4I9USQQ93L8C9XGLN410URQQ4I", "current_trial": 140, "dateTime": 1511220156582, "trialdata": {"rt": -1000, "stimulus": "/static/audio/wordpool/COBRA.wav", "key_press": -1, "type": "PRES_AUD", "word": "cobra", "wordID": 335, "conditions": [24, 1600, "a", 24000], "trial": 3, "serialpos": 23, "trial_type": "single-audio", "trial_index": 140, "time_elapsed": 2160445, "internal_node_id": "0.0-104.0"}}, {"uniqueid": "MTK0579:3OVR4I9USQQ93L8C9XGLN410URQQ4I", "current_trial": 141, "dateTime": 1511220157883, "trialdata": {"rt": -1, "stimulus": "", "key_press": -1, "type": "PRE_RECALL_DELAY", "trial_type": "single-stim", "trial_index": 141, "time_elapsed": 2161746, "internal_node_id": "0.0-105.0-0.0"}}, {"uniqueid": "MTK0579:3OVR4I9USQQ93L8C9XGLN410URQQ4I", "current_trial": 142, "dateTime": 1511220158385, "trialdata": {"rt": -1000, "stimulus": "/static/audio/400Hz.wav", "key_press": -1, "type": "PRE_RECALL_ALERT", "trial_type": "single-audio", "trial_index": 142, "time_elapsed": 2162248, "internal_node_id": "0.0-106.0"}}, {"uniqueid": "MTK0579:3OVR4I9USQQ93L8C9XGLN410URQQ4I", "current_trial": 143, "dateTime": 1511220218403, "trialdata": {"rt": [2289, 3718, 5811, 7038, 19591, 22367, 47498], "recwords": ["fungus", "cobra", "farmer", "slug", "lava", "volcano", "fire"], "type": "FREE_RECALL", "conditions": [24, 1600, "a", 24000], "trial": 3, "trial_type": "free-recall", "trial_index": 143, "time_elapsed": 2222256, "internal_node_id": "0.0-107.0-0.0"}}, {"uniqueid": "MTK0579:3OVR4I9USQQ93L8C9XGLN410URQQ4I", "current_trial": 144, "dateTime": 1511220226468, "trialdata": {"rt": 6062, "key_press": 13, "type": "INSTRUCTIONS", "trial_type": "text", "trial_index": 144, "time_elapsed": 2230332, "internal_node_id": "0.0-108.0"}}, {"uniqueid": "MTK0579:3OVR4I9USQQ93L8C9XGLN410URQQ4I", "current_trial": 145, "dateTime": 1511220240489, "trialdata": {"rt": [3025, 4907, 9177], "responses": ["8", "9", "14"], "num1": [5, 1, 2, 4], "num2": [1, 1, 9, 2], "num3": [2, 7, 3, 5], "type": "DISTRACTOR", "conditions": [12, 1600, "v", 12000], "trial": 4, "trial_type": "math-distractor", "trial_index": 145, "time_elapsed": 2244352, "internal_node_id": "0.0-109.0"}}, {"uniqueid": "MTK0579:3OVR4I9USQQ93L8C9XGLN410URQQ4I", "current_trial": 146, "dateTime": 1511220243515, "trialdata": {"rt": -1, "stimulus": "<p id=\"stim\">10</p>", "key_press": -1, "trial_type": "single-stim", "trial_index": 146, "time_elapsed": 2247378, "internal_node_id": "0.0-110.0-0.0"}}, {"uniqueid": "MTK0579:3OVR4I9USQQ93L8C9XGLN410URQQ4I", "current_trial": 147, "dateTime": 1511220244531, "trialdata": {"rt": -1, "stimulus": "<p id=\"stim\">9</p>", "key_press": -1, "trial_type": "single-stim", "trial_index": 147, "time_elapsed": 2248395, "internal_node_id": "0.0-110.0-1.0"}}, {"uniqueid": "MTK0579:3OVR4I9USQQ93L8C9XGLN410URQQ4I", "current_trial": 148, "dateTime": 1511220245541, "trialdata": {"rt": -1, "stimulus": "<p id=\"stim\">8</p>", "key_press": -1, "trial_type": "single-stim", "trial_index": 148, "time_elapsed": 2249404, "internal_node_id": "0.0-110.0-2.0"}}, {"uniqueid": "MTK0579:3OVR4I9USQQ93L8C9XGLN410URQQ4I", "current_trial": 149, "dateTime": 1511220246551, "trialdata": {"rt": -1, "stimulus": "<p id=\"stim\">7</p>", "key_press": -1, "trial_type": "single-stim", "trial_index": 149, "time_elapsed": 2250414, "internal_node_id": "0.0-110.0-3.0"}}, {"uniqueid": "MTK0579:3OVR4I9USQQ93L8C9XGLN410URQQ4I", "current_trial": 150, "dateTime": 1511220247555, "trialdata": {"rt": -1, "stimulus": "<p id=\"stim\">6</p>", "key_press": -1, "trial_type": "single-stim", "trial_index": 150, "time_elapsed": 2251419, "internal_node_id": "0.0-110.0-4.0"}}, {"uniqueid": "MTK0579:3OVR4I9USQQ93L8C9XGLN410URQQ4I", "current_trial": 151, "dateTime": 1511220248567, "trialdata": {"rt": -1, "stimulus": "<p id=\"stim\">5</p>", "key_press": -1, "trial_type": "single-stim", "trial_index": 151, "time_elapsed": 2252431, "internal_node_id": "0.0-110.0-5.0"}}, {"uniqueid": "MTK0579:3OVR4I9USQQ93L8C9XGLN410URQQ4I", "current_trial": 152, "dateTime": 1511220249578, "trialdata": {"rt": -1, "stimulus": "<p id=\"stim\">4</p>", "key_press": -1, "trial_type": "single-stim", "trial_index": 152, "time_elapsed": 2253442, "internal_node_id": "0.0-110.0-6.0"}}, {"uniqueid": "MTK0579:3OVR4I9USQQ93L8C9XGLN410URQQ4I", "current_trial": 153, "dateTime": 1511220250593, "trialdata": {"rt": -1, "stimulus": "<p id=\"stim\">3</p>", "key_press": -1, "trial_type": "single-stim", "trial_index": 153, "time_elapsed": 2254456, "internal_node_id": "0.0-110.0-7.0"}}, {"uniqueid": "MTK0579:3OVR4I9USQQ93L8C9XGLN410URQQ4I", "current_trial": 154, "dateTime": 1511220251609, "trialdata": {"rt": -1, "stimulus": "<p id=\"stim\">2</p>", "key_press": -1, "trial_type": "single-stim", "trial_index": 154, "time_elapsed": 2255473, "internal_node_id": "0.0-110.0-8.0"}}, {"uniqueid": "MTK0579:3OVR4I9USQQ93L8C9XGLN410URQQ4I", "current_trial": 155, "dateTime": 1511220252627, "trialdata": {"rt": -1, "stimulus": "<p id=\"stim\">1</p>", "key_press": -1, "trial_type": "single-stim", "trial_index": 155, "time_elapsed": 2256490, "internal_node_id": "0.0-110.0-9.0"}}, {"uniqueid": "MTK0579:3OVR4I9USQQ93L8C9XGLN410URQQ4I", "current_trial": 156, "dateTime": 1511220254141, "trialdata": {"rt": -1, "stimulus": "<p id=\"stim\">+</p>", "key_press": -1, "type": "FIXATION", "trial_type": "single-stim", "trial_index": 156, "time_elapsed": 2258004, "internal_node_id": "0.0-111.0-0.0"}}, {"uniqueid": "MTK0579:3OVR4I9USQQ93L8C9XGLN410URQQ4I", "current_trial": 157, "dateTime": 1511220255743, "trialdata": {"rt": -1, "stimulus": "<p id=\"stim\">CUPBOARD</p>", "key_press": -1, "type": "PRES_VIS", "word": "cupboard", "wordID": 424, "conditions": [12, 1600, "v", 12000], "trial": 4, "serialpos": 0, "trial_type": "single-stim", "trial_index": 157, "time_elapsed": 2259607, "internal_node_id": "0.0-112.0"}}, {"uniqueid": "MTK0579:3OVR4I9USQQ93L8C9XGLN410URQQ4I", "current_trial": 158, "dateTime": 1511220258511, "trialdata": {"rt": -1, "stimulus": "<p id=\"stim\">EYELASH</p>", "key_press": -1, "type": "PRES_VIS", "word": "eyelash", "wordID": 545, "conditions": [12, 1600, "v", 12000], "trial": 4, "serialpos": 1, "trial_type": "single-stim", "trial_index": 158, "time_elapsed": 2262374, "internal_node_id": "0.0-113.0"}}, {"uniqueid": "MTK0579:3OVR4I9USQQ93L8C9XGLN410URQQ4I", "current_trial": 159, "dateTime": 1511220261185, "trialdata": {"rt": -1, "stimulus": "<p id=\"stim\">LIPSTICK</p>", "key_press": -1, "type": "PRES_VIS", "word": "lipstick", "wordID": 828, "conditions": [12, 1600, "v", 12000], "trial": 4, "serialpos": 2, "trial_type": "single-stim", "trial_index": 159, "time_elapsed": 2265049, "internal_node_id": "0.0-114.0"}}, {"uniqueid": "MTK0579:3OVR4I9USQQ93L8C9XGLN410URQQ4I", "current_trial": 160, "dateTime": 1511220263881, "trialdata": {"rt": -1, "stimulus": "<p id=\"stim\">FLOWER</p>", "key_press": -1, "type": "PRES_VIS", "word": "flower", "wordID": 583, "conditions": [12, 1600, "v", 12000], "trial": 4, "serialpos": 3, "trial_type": "single-stim", "trial_index": 160, "time_elapsed": 2267745, "internal_node_id": "0.0-115.0"}}, {"uniqueid": "MTK0579:3OVR4I9USQQ93L8C9XGLN410URQQ4I", "current_trial": 161, "dateTime": 1511220266324, "trialdata": {"rt": -1, "stimulus": "<p id=\"stim\">HARP</p>", "key_press": -1, "type": "PRES_VIS", "word": "harp", "wordID": 688, "conditions": [12, 1600, "v", 12000], "trial": 4, "serialpos": 4, "trial_type": "single-stim", "trial_index": 161, "time_elapsed": 2270188, "internal_node_id": "0.0-116.0"}}, {"uniqueid": "MTK0579:3OVR4I9USQQ93L8C9XGLN410URQQ4I", "current_trial": 162, "dateTime": 1511220268836, "trialdata": {"rt": -1, "stimulus": "<p id=\"stim\">SMOG</p>", "key_press": -1, "type": "PRES_VIS", "word": "smog", "wordID": 1329, "conditions": [12, 1600, "v", 12000], "trial": 4, "serialpos": 5, "trial_type": "single-stim", "trial_index": 162, "time_elapsed": 2272699, "internal_node_id": "0.0-117.0"}}, {"uniqueid": "MTK0579:3OVR4I9USQQ93L8C9XGLN410URQQ4I", "current_trial": 163, "dateTime": 1511220271488, "trialdata": {"rt": -1, "stimulus": "<p id=\"stim\">FLASHLIGHT</p>", "key_press": -1, "type": "PRES_VIS", "word": "flashlight", "wordID": 574, "conditions": [12, 1600, "v", 12000], "trial": 4, "serialpos": 6, "trial_type": "single-stim", "trial_index": 163, "time_elapsed": 2275352, "internal_node_id": "0.0-118.0"}}, {"uniqueid": "MTK0579:3OVR4I9USQQ93L8C9XGLN410URQQ4I", "current_trial": 164, "dateTime": 1511220274247, "trialdata": {"rt": -1, "stimulus": "<p id=\"stim\">QUAIL</p>", "key_press": -1, "type": "PRES_VIS", "word": "quail", "wordID": 1146, "conditions": [12, 1600, "v", 12000], "trial": 4, "serialpos": 7, "trial_type": "single-stim", "trial_index": 164, "time_elapsed": 2278110, "internal_node_id": "0.0-119.0"}}, {"uniqueid": "MTK0579:3OVR4I9USQQ93L8C9XGLN410URQQ4I", "current_trial": 165, "dateTime": 1511220276696, "trialdata": {"rt": -1, "stimulus": "<p id=\"stim\">DRESSER</p>", "key_press": -1, "type": "PRES_VIS", "word": "dresser", "wordID": 495, "conditions": [12, 1600, "v", 12000], "trial": 4, "serialpos": 8, "trial_type": "single-stim", "trial_index": 165, "time_elapsed": 2280560, "internal_node_id": "0.0-120.0"}}, {"uniqueid": "MTK0579:3OVR4I9USQQ93L8C9XGLN410URQQ4I", "current_trial": 166, "dateTime": 1511220279234, "trialdata": {"rt": -1, "stimulus": "<p id=\"stim\">CATTLE</p>", "key_press": -1, "type": "PRES_VIS", "word": "cattle", "wordID": 260, "conditions": [12, 1600, "v", 12000], "trial": 4, "serialpos": 9, "trial_type": "single-stim", "trial_index": 166, "time_elapsed": 2283098, "internal_node_id": "0.0-121.0"}}, {"uniqueid": "MTK0579:3OVR4I9USQQ93L8C9XGLN410URQQ4I", "current_trial": 167, "dateTime": 1511220281681, "trialdata": {"rt": -1, "stimulus": "<p id=\"stim\">BEEF</p>", "key_press": -1, "type": "PRES_VIS", "word": "beef", "wordID": 112, "conditions": [12, 1600, "v", 12000], "trial": 4, "serialpos": 10, "trial_type": "single-stim", "trial_index": 167, "time_elapsed": 2285544, "internal_node_id": "0.0-122.0"}}, {"uniqueid": "MTK0579:3OVR4I9USQQ93L8C9XGLN410URQQ4I", "current_trial": 168, "dateTime": 1511220284359, "trialdata": {"rt": -1, "stimulus": "<p id=\"stim\">PERMIT</p>", "key_press": -1, "type": "PRES_VIS", "word": "permit", "wordID": 1050, "conditions": [12, 1600, "v", 12000], "trial": 4, "serialpos": 11, "trial_type": "single-stim", "trial_index": 168, "time_elapsed": 2288222, "internal_node_id": "0.0-123.0"}}, {"uniqueid": "MTK0579:3OVR4I9USQQ93L8C9XGLN410URQQ4I", "current_trial": 169, "dateTime": 1511220286706, "trialdata": {"rt": -1, "stimulus": "", "key_press": -1, "type": "PRE_RECALL_DELAY", "trial_type": "single-stim", "trial_index": 169, "time_elapsed": 2290570, "internal_node_id": "0.0-124.0-0.0"}}, {"uniqueid": "MTK0579:3OVR4I9USQQ93L8C9XGLN410URQQ4I", "current_trial": 170, "dateTime": 1511220287222, "trialdata": {"rt": -1000, "stimulus": "/static/audio/400Hz.wav", "key_press": -1, "type": "PRE_RECALL_ALERT", "trial_type": "single-audio", "trial_index": 170, "time_elapsed": 2291085, "internal_node_id": "0.0-125.0"}}, {"uniqueid": "MTK0579:3OVR4I9USQQ93L8C9XGLN410URQQ4I", "current_trial": 171, "dateTime": 1511220347237, "trialdata": {"rt": [1785, 2891, 4724, 6417, 10655, 18721, 29334, 30555, 38806, 47404], "recwords": ["cattle", "beef", "cupboard", "eyelash", "lipstick", "flower", "snog", "smog", "quail", "dresser"], "type": "FREE_RECALL", "conditions": [12, 1600, "v", 12000], "trial": 4, "trial_type": "free-recall", "trial_index": 171, "time_elapsed": 2351097, "internal_node_id": "0.0-126.0-0.0"}}, {"uniqueid": "MTK0579:3OVR4I9USQQ93L8C9XGLN410URQQ4I", "current_trial": 172, "dateTime": 1511220352031, "trialdata": {"rt": 2791, "key_press": 13, "type": "INSTRUCTIONS", "trial_type": "text", "trial_index": 172, "time_elapsed": 2355895, "internal_node_id": "0.0-127.0"}}, {"uniqueid": "MTK0579:3OVR4I9USQQ93L8C9XGLN410URQQ4I", "current_trial": 173, "dateTime": 1511220378055, "trialdata": {"rt": [3213, 6279, 8358, 11300, 12882, 14934, 18083, 19601, 21190, 22689], "responses": ["16", "17", "18", "24", "12", "18", "18", "15", "16", "13"], "num1": [4, 5, 7, 9, 1, 8, 7, 1, 8, 1, 1], "num2": [5, 8, 7, 9, 9, 9, 4, 9, 2, 9, 4], "num3": [7, 4, 4, 6, 2, 1, 7, 5, 6, 3, 8], "type": "DISTRACTOR", "conditions": [24, 800, "a", 24000], "trial": 5, "trial_type": "math-distractor", "trial_index": 173, "time_elapsed": 2381919, "internal_node_id": "0.0-128.0"}}, {"uniqueid": "MTK0579:3OVR4I9USQQ93L8C9XGLN410URQQ4I", "current_trial": 174, "dateTime": 1511220381065, "trialdata": {"rt": -1, "stimulus": "<p id=\"stim\">10</p>", "key_press": -1, "trial_type": "single-stim", "trial_index": 174, "time_elapsed": 2384929, "internal_node_id": "0.0-129.0-0.0"}}, {"uniqueid": "MTK0579:3OVR4I9USQQ93L8C9XGLN410URQQ4I", "current_trial": 175, "dateTime": 1511220382078, "trialdata": {"rt": -1, "stimulus": "<p id=\"stim\">9</p>", "key_press": -1, "trial_type": "single-stim", "trial_index": 175, "time_elapsed": 2385942, "internal_node_id": "0.0-129.0-1.0"}}, {"uniqueid": "MTK0579:3OVR4I9USQQ93L8C9XGLN410URQQ4I", "current_trial": 176, "dateTime": 1511220383082, "trialdata": {"rt": -1, "stimulus": "<p id=\"stim\">8</p>", "key_press": -1, "trial_type": "single-stim", "trial_index": 176, "time_elapsed": 2386946, "internal_node_id": "0.0-129.0-2.0"}}, {"uniqueid": "MTK0579:3OVR4I9USQQ93L8C9XGLN410URQQ4I", "current_trial": 177, "dateTime": 1511220384087, "trialdata": {"rt": -1, "stimulus": "<p id=\"stim\">7</p>", "key_press": -1, "trial_type": "single-stim", "trial_index": 177, "time_elapsed": 2387951, "internal_node_id": "0.0-129.0-3.0"}}, {"uniqueid": "MTK0579:3OVR4I9USQQ93L8C9XGLN410URQQ4I", "current_trial": 178, "dateTime": 1511220385097, "trialdata": {"rt": -1, "stimulus": "<p id=\"stim\">6</p>", "key_press": -1, "trial_type": "single-stim", "trial_index": 178, "time_elapsed": 2388960, "internal_node_id": "0.0-129.0-4.0"}}, {"uniqueid": "MTK0579:3OVR4I9USQQ93L8C9XGLN410URQQ4I", "current_trial": 179, "dateTime": 1511220386107, "trialdata": {"rt": -1, "stimulus": "<p id=\"stim\">5</p>", "key_press": -1, "trial_type": "single-stim", "trial_index": 179, "time_elapsed": 2389971, "internal_node_id": "0.0-129.0-5.0"}}, {"uniqueid": "MTK0579:3OVR4I9USQQ93L8C9XGLN410URQQ4I", "current_trial": 180, "dateTime": 1511220387125, "trialdata": {"rt": -1, "stimulus": "<p id=\"stim\">4</p>", "key_press": -1, "trial_type": "single-stim", "trial_index": 180, "time_elapsed": 2390988, "internal_node_id": "0.0-129.0-6.0"}}, {"uniqueid": "MTK0579:3OVR4I9USQQ93L8C9XGLN410URQQ4I", "current_trial": 181, "dateTime": 1511220388132, "trialdata": {"rt": -1, "stimulus": "<p id=\"stim\">3</p>", "key_press": -1, "trial_type": "single-stim", "trial_index": 181, "time_elapsed": 2391996, "internal_node_id": "0.0-129.0-7.0"}}, {"uniqueid": "MTK0579:3OVR4I9USQQ93L8C9XGLN410URQQ4I", "current_trial": 182, "dateTime": 1511220389145, "trialdata": {"rt": -1, "stimulus": "<p id=\"stim\">2</p>", "key_press": -1, "trial_type": "single-stim", "trial_index": 182, "time_elapsed": 2393008, "internal_node_id": "0.0-129.0-8.0"}}, {"uniqueid": "MTK0579:3OVR4I9USQQ93L8C9XGLN410URQQ4I", "current_trial": 183, "dateTime": 1511220390161, "trialdata": {"rt": -1, "stimulus": "<p id=\"stim\">1</p>", "key_press": -1, "trial_type": "single-stim", "trial_index": 183, "time_elapsed": 2394024, "internal_node_id": "0.0-129.0-9.0"}}, {"uniqueid": "MTK0579:3OVR4I9USQQ93L8C9XGLN410URQQ4I", "current_trial": 184, "dateTime": 1511220391663, "trialdata": {"rt": -1, "stimulus": "<p id=\"stim\">+</p>", "key_press": -1, "type": "FIXATION", "trial_type": "single-stim", "trial_index": 184, "time_elapsed": 2395526, "internal_node_id": "0.0-130.0-0.0"}}, {"uniqueid": "MTK0579:3OVR4I9USQQ93L8C9XGLN410URQQ4I", "current_trial": 185, "dateTime": 1511220393464, "trialdata": {"rt": -1000, "stimulus": "/static/audio/wordpool/COLLEGE.wav", "key_press": -1, "type": "PRES_AUD", "word": "college", "wordID": 345, "conditions": [24, 800, "a", 24000], "trial": 5, "serialpos": 0, "trial_type": "single-audio", "trial_index": 185, "time_elapsed": 2397328, "internal_node_id": "0.0-131.0"}}, {"uniqueid": "MTK0579:3OVR4I9USQQ93L8C9XGLN410URQQ4I", "current_trial": 186, "dateTime": 1511220395344, "trialdata": {"rt": -1000, "stimulus": "/static/audio/wordpool/SNAKE.wav", "key_press": -1, "type": "PRES_AUD", "word": "snake", "wordID": 1332, "conditions": [24, 800, "a", 24000], "trial": 5, "serialpos": 1, "trial_type": "single-audio", "trial_index": 186, "time_elapsed": 2399207, "internal_node_id": "0.0-132.0"}}, {"uniqueid": "MTK0579:3OVR4I9USQQ93L8C9XGLN410URQQ4I", "current_trial": 187, "dateTime": 1511220397142, "trialdata": {"rt": -1000, "stimulus": "/static/audio/wordpool/FRAGRANCE.wav", "key_press": -1, "type": "PRES_AUD", "word": "fragrance", "wordID": 598, "conditions": [24, 800, "a", 24000], "trial": 5, "serialpos": 2, "trial_type": "single-audio", "trial_index": 187, "time_elapsed": 2401005, "internal_node_id": "0.0-133.0"}}, {"uniqueid": "MTK0579:3OVR4I9USQQ93L8C9XGLN410URQQ4I", "current_trial": 188, "dateTime": 1511220398829, "trialdata": {"rt": -1000, "stimulus": "/static/audio/wordpool/VALLEY.wav", "key_press": -1, "type": "PRES_AUD", "word": "valley", "wordID": 1544, "conditions": [24, 800, "a", 24000], "trial": 5, "serialpos": 3, "trial_type": "single-audio", "trial_index": 188, "time_elapsed": 2402693, "internal_node_id": "0.0-134.0"}}, {"uniqueid": "MTK0579:3OVR4I9USQQ93L8C9XGLN410URQQ4I", "current_trial": 189, "dateTime": 1511220400599, "trialdata": {"rt": -1000, "stimulus": "/static/audio/wordpool/WORLD.wav", "key_press": -1, "type": "PRES_AUD", "word": "world", "wordID": 1621, "conditions": [24, 800, "a", 24000], "trial": 5, "serialpos": 4, "trial_type": "single-audio", "trial_index": 189, "time_elapsed": 2404462, "internal_node_id": "0.0-135.0"}}, {"uniqueid": "MTK0579:3OVR4I9USQQ93L8C9XGLN410URQQ4I", "current_trial": 190, "dateTime": 1511220402308, "trialdata": {"rt": -1000, "stimulus": "/static/audio/wordpool/TREAT.wav", "key_press": -1, "type": "PRES_AUD", "word": "treat", "wordID": 1500, "conditions": [24, 800, "a", 24000], "trial": 5, "serialpos": 5, "trial_type": "single-audio", "trial_index": 190, "time_elapsed": 2406171, "internal_node_id": "0.0-136.0"}}, {"uniqueid": "MTK0579:3OVR4I9USQQ93L8C9XGLN410URQQ4I", "current_trial": 191, "dateTime": 1511220404136, "trialdata": {"rt": -1000, "stimulus": "/static/audio/wordpool/CABBAGE.wav", "key_press": -1, "type": "PRES_AUD", "word": "cabbage", "wordID": 209, "conditions": [24, 800, "a", 24000], "trial": 5, "serialpos": 6, "trial_type": "single-audio", "trial_index": 191, "time_elapsed": 2407999, "internal_node_id": "0.0-137.0"}}, {"uniqueid": "MTK0579:3OVR4I9USQQ93L8C9XGLN410URQQ4I", "current_trial": 192, "dateTime": 1511220406055, "trialdata": {"rt": -1000, "stimulus": "/static/audio/wordpool/PERFUME.wav", "key_press": -1, "type": "PRES_AUD", "word": "perfume", "wordID": 1048, "conditions": [24, 800, "a", 24000], "trial": 5, "serialpos": 7, "trial_type": "single-audio", "trial_index": 192, "time_elapsed": 2409919, "internal_node_id": "0.0-138.0"}}, {"uniqueid": "MTK0579:3OVR4I9USQQ93L8C9XGLN410URQQ4I", "current_trial": 193, "dateTime": 1511220407746, "trialdata": {"rt": -1000, "stimulus": "/static/audio/wordpool/BATHTUB.wav", "key_press": -1, "type": "PRES_AUD", "word": "bathtub", "wordID": 99, "conditions": [24, 800, "a", 24000], "trial": 5, "serialpos": 8, "trial_type": "single-audio", "trial_index": 193, "time_elapsed": 2411609, "internal_node_id": "0.0-139.0"}}, {"uniqueid": "MTK0579:3OVR4I9USQQ93L8C9XGLN410URQQ4I", "current_trial": 194, "dateTime": 1511220409502, "trialdata": {"rt": -1000, "stimulus": "/static/audio/wordpool/CRIB.wav", "key_press": -1, "type": "PRES_AUD", "word": "crib", "wordID": 406, "conditions": [24, 800, "a", 24000], "trial": 5, "serialpos": 9, "trial_type": "single-audio", "trial_index": 194, "time_elapsed": 2413366, "internal_node_id": "0.0-140.0"}}, {"uniqueid": "MTK0579:3OVR4I9USQQ93L8C9XGLN410URQQ4I", "current_trial": 195, "dateTime": 1511220411270, "trialdata": {"rt": -1000, "stimulus": "/static/audio/wordpool/MATTRESS.wav", "key_press": -1, "type": "PRES_AUD", "word": "mattress", "wordID": 878, "conditions": [24, 800, "a", 24000], "trial": 5, "serialpos": 10, "trial_type": "single-audio", "trial_index": 195, "time_elapsed": 2415133, "internal_node_id": "0.0-141.0"}}, {"uniqueid": "MTK0579:3OVR4I9USQQ93L8C9XGLN410URQQ4I", "current_trial": 196, "dateTime": 1511220413223, "trialdata": {"rt": -1000, "stimulus": "/static/audio/wordpool/KEEPER.wav", "key_press": -1, "type": "PRES_AUD", "word": "keeper", "wordID": 768, "conditions": [24, 800, "a", 24000], "trial": 5, "serialpos": 11, "trial_type": "single-audio", "trial_index": 196, "time_elapsed": 2417086, "internal_node_id": "0.0-142.0"}}, {"uniqueid": "MTK0579:3OVR4I9USQQ93L8C9XGLN410URQQ4I", "current_trial": 197, "dateTime": 1511220415079, "trialdata": {"rt": -1000, "stimulus": "/static/audio/wordpool/YARN.wav", "key_press": -1, "type": "PRES_AUD", "word": "yarn", "wordID": 1630, "conditions": [24, 800, "a", 24000], "trial": 5, "serialpos": 12, "trial_type": "single-audio", "trial_index": 197, "time_elapsed": 2418942, "internal_node_id": "0.0-143.0"}}, {"uniqueid": "MTK0579:3OVR4I9USQQ93L8C9XGLN410URQQ4I", "current_trial": 198, "dateTime": 1511220417023, "trialdata": {"rt": -1000, "stimulus": "/static/audio/wordpool/FLAG.wav", "key_press": -1, "type": "PRES_AUD", "word": "flag", "wordID": 572, "conditions": [24, 800, "a", 24000], "trial": 5, "serialpos": 13, "trial_type": "single-audio", "trial_index": 198, "time_elapsed": 2420886, "internal_node_id": "0.0-144.0"}}, {"uniqueid": "MTK0579:3OVR4I9USQQ93L8C9XGLN410URQQ4I", "current_trial": 199, "dateTime": 1511220419019, "trialdata": {"rt": -1000, "stimulus": "/static/audio/wordpool/LUGGAGE.wav", "key_press": -1, "type": "PRES_AUD", "word": "luggage", "wordID": 846, "conditions": [24, 800, "a", 24000], "trial": 5, "serialpos": 14, "trial_type": "single-audio", "trial_index": 199, "time_elapsed": 2422882, "internal_node_id": "0.0-145.0"}}, {"uniqueid": "MTK0579:3OVR4I9USQQ93L8C9XGLN410URQQ4I", "current_trial": 200, "dateTime": 1511220420720, "trialdata": {"rt": -1000, "stimulus": "/static/audio/wordpool/POCKET.wav", "key_press": -1, "type": "PRES_AUD", "word": "pocket", "wordID": 1092, "conditions": [24, 800, "a", 24000], "trial": 5, "serialpos": 15, "trial_type": "single-audio", "trial_index": 200, "time_elapsed": 2424583, "internal_node_id": "0.0-146.0"}}, {"uniqueid": "MTK0579:3OVR4I9USQQ93L8C9XGLN410URQQ4I", "current_trial": 201, "dateTime": 1511220422348, "trialdata": {"rt": -1000, "stimulus": "/static/audio/wordpool/POLICE.wav", "key_press": -1, "type": "PRES_AUD", "word": "police", "wordID": 1097, "conditions": [24, 800, "a", 24000], "trial": 5, "serialpos": 16, "trial_type": "single-audio", "trial_index": 201, "time_elapsed": 2426211, "internal_node_id": "0.0-147.0"}}, {"uniqueid": "MTK0579:3OVR4I9USQQ93L8C9XGLN410URQQ4I", "current_trial": 202, "dateTime": 1511220424120, "trialdata": {"rt": -1000, "stimulus": "/static/audio/wordpool/CIGAR.wav", "key_press": -1, "type": "PRES_AUD", "word": "cigar", "wordID": 307, "conditions": [24, 800, "a", 24000], "trial": 5, "serialpos": 17, "trial_type": "single-audio", "trial_index": 202, "time_elapsed": 2427983, "internal_node_id": "0.0-148.0"}}, {"uniqueid": "MTK0579:3OVR4I9USQQ93L8C9XGLN410URQQ4I", "current_trial": 203, "dateTime": 1511220426103, "trialdata": {"rt": -1000, "stimulus": "/static/audio/wordpool/YACHT.wav", "key_press": -1, "type": "PRES_AUD", "word": "yacht", "wordID": 1628, "conditions": [24, 800, "a", 24000], "trial": 5, "serialpos": 18, "trial_type": "single-audio", "trial_index": 203, "time_elapsed": 2429966, "internal_node_id": "0.0-149.0"}}, {"uniqueid": "MTK0579:3OVR4I9USQQ93L8C9XGLN410URQQ4I", "current_trial": 204, "dateTime": 1511220427746, "trialdata": {"rt": -1000, "stimulus": "/static/audio/wordpool/BRIEFCASE.wav", "key_press": -1, "type": "PRES_AUD", "word": "briefcase", "wordID": 174, "conditions": [24, 800, "a", 24000], "trial": 5, "serialpos": 19, "trial_type": "single-audio", "trial_index": 204, "time_elapsed": 2431610, "internal_node_id": "0.0-150.0"}}, {"uniqueid": "MTK0579:3OVR4I9USQQ93L8C9XGLN410URQQ4I", "current_trial": 205, "dateTime": 1511220429719, "trialdata": {"rt": -1000, "stimulus": "/static/audio/wordpool/SHARK.wav", "key_press": -1, "type": "PRES_AUD", "word": "shark", "wordID": 1274, "conditions": [24, 800, "a", 24000], "trial": 5, "serialpos": 20, "trial_type": "single-audio", "trial_index": 205, "time_elapsed": 2433582, "internal_node_id": "0.0-151.0"}}, {"uniqueid": "MTK0579:3OVR4I9USQQ93L8C9XGLN410URQQ4I", "current_trial": 206, "dateTime": 1511220431392, "trialdata": {"rt": -1000, "stimulus": "/static/audio/wordpool/TURTLE.wav", "key_press": -1, "type": "PRES_AUD", "word": "turtle", "wordID": 1521, "conditions": [24, 800, "a", 24000], "trial": 5, "serialpos": 21, "trial_type": "single-audio", "trial_index": 206, "time_elapsed": 2435255, "internal_node_id": "0.0-152.0"}}, {"uniqueid": "MTK0579:3OVR4I9USQQ93L8C9XGLN410URQQ4I", "current_trial": 207, "dateTime": 1511220433160, "trialdata": {"rt": -1000, "stimulus": "/static/audio/wordpool/VENUS.wav", "key_press": -1, "type": "PRES_AUD", "word": "venus", "wordID": 1556, "conditions": [24, 800, "a", 24000], "trial": 5, "serialpos": 22, "trial_type": "single-audio", "trial_index": 207, "time_elapsed": 2437024, "internal_node_id": "0.0-153.0"}}, {"uniqueid": "MTK0579:3OVR4I9USQQ93L8C9XGLN410URQQ4I", "current_trial": 208, "dateTime": 1511220434817, "trialdata": {"rt": -1000, "stimulus": "/static/audio/wordpool/RUG.wav", "key_press": -1, "type": "PRES_AUD", "word": "rug", "wordID": 1214, "conditions": [24, 800, "a", 24000], "trial": 5, "serialpos": 23, "trial_type": "single-audio", "trial_index": 208, "time_elapsed": 2438680, "internal_node_id": "0.0-154.0"}}, {"uniqueid": "MTK0579:3OVR4I9USQQ93L8C9XGLN410URQQ4I", "current_trial": 209, "dateTime": 1511220436080, "trialdata": {"rt": -1, "stimulus": "", "key_press": -1, "type": "PRE_RECALL_DELAY", "trial_type": "single-stim", "trial_index": 209, "time_elapsed": 2439944, "internal_node_id": "0.0-155.0-0.0"}}, {"uniqueid": "MTK0579:3OVR4I9USQQ93L8C9XGLN410URQQ4I", "current_trial": 210, "dateTime": 1511220436591, "trialdata": {"rt": -1000, "stimulus": "/static/audio/400Hz.wav", "key_press": -1, "type": "PRE_RECALL_ALERT", "trial_type": "single-audio", "trial_index": 210, "time_elapsed": 2440454, "internal_node_id": "0.0-156.0"}}, {"uniqueid": "MTK0579:3OVR4I9USQQ93L8C9XGLN410URQQ4I", "current_trial": 211, "dateTime": 1511220496604, "trialdata": {"rt": [2191, 5365, 8829, 11227, 16045], "recwords": ["college", "fragrance", "violet", "baby", "police"], "type": "FREE_RECALL", "conditions": [24, 800, "a", 24000], "trial": 5, "trial_type": "free-recall", "trial_index": 211, "time_elapsed": 2500464, "internal_node_id": "0.0-157.0-0.0"}}, {"uniqueid": "MTK0579:3OVR4I9USQQ93L8C9XGLN410URQQ4I", "current_trial": 212, "dateTime": 1511220499849, "trialdata": {"rt": 1244, "key_press": 13, "type": "INSTRUCTIONS", "trial_type": "text", "trial_index": 212, "time_elapsed": 2503713, "internal_node_id": "0.0-158.0"}}, {"uniqueid": "MTK0579:3OVR4I9USQQ93L8C9XGLN410URQQ4I", "current_trial": 213, "dateTime": 1511220525860, "trialdata": {"rt": [3272, 4775, 7346, 9069, 11016, 15084, 17477, 19324, 21131, 23230], "responses": ["16", "12", "16", "14", "16", "12", "9", "10", "17", "10"], "num1": [5, 2, 7, 5, 1, 5, 5, 1, 7, 4, 7], "num2": [2, 6, 1, 4, 8, 1, 1, 8, 9, 5, 8], "num3": [9, 4, 8, 5, 7, 6, 3, 1, 1, 1, 6], "type": "DISTRACTOR", "conditions": [24, 1600, "v", 24000], "trial": 6, "trial_type": "math-distractor", "trial_index": 213, "time_elapsed": 2529724, "internal_node_id": "0.0-159.0"}}, {"uniqueid": "MTK0579:3OVR4I9USQQ93L8C9XGLN410URQQ4I", "current_trial": 214, "dateTime": 1511220528868, "trialdata": {"rt": -1, "stimulus": "<p id=\"stim\">10</p>", "key_press": -1, "trial_type": "single-stim", "trial_index": 214, "time_elapsed": 2532731, "internal_node_id": "0.0-160.0-0.0"}}, {"uniqueid": "MTK0579:3OVR4I9USQQ93L8C9XGLN410URQQ4I", "current_trial": 215, "dateTime": 1511220529873, "trialdata": {"rt": -1, "stimulus": "<p id=\"stim\">9</p>", "key_press": -1, "trial_type": "single-stim", "trial_index": 215, "time_elapsed": 2533736, "internal_node_id": "0.0-160.0-1.0"}}, {"uniqueid": "MTK0579:3OVR4I9USQQ93L8C9XGLN410URQQ4I", "current_trial": 216, "dateTime": 1511220530879, "trialdata": {"rt": -1, "stimulus": "<p id=\"stim\">8</p>", "key_press": -1, "trial_type": "single-stim", "trial_index": 216, "time_elapsed": 2534742, "internal_node_id": "0.0-160.0-2.0"}}, {"uniqueid": "MTK0579:3OVR4I9USQQ93L8C9XGLN410URQQ4I", "current_trial": 217, "dateTime": 1511220531881, "trialdata": {"rt": -1, "stimulus": "<p id=\"stim\">7</p>", "key_press": -1, "trial_type": "single-stim", "trial_index": 217, "time_elapsed": 2535745, "internal_node_id": "0.0-160.0-3.0"}}, {"uniqueid": "MTK0579:3OVR4I9USQQ93L8C9XGLN410URQQ4I", "current_trial": 218, "dateTime": 1511220532887, "trialdata": {"rt": -1, "stimulus": "<p id=\"stim\">6</p>", "key_press": -1, "trial_type": "single-stim", "trial_index": 218, "time_elapsed": 2536750, "internal_node_id": "0.0-160.0-4.0"}}, {"uniqueid": "MTK0579:3OVR4I9USQQ93L8C9XGLN410URQQ4I", "current_trial": 219, "dateTime": 1511220533892, "trialdata": {"rt": -1, "stimulus": "<p id=\"stim\">5</p>", "key_press": -1, "trial_type": "single-stim", "trial_index": 219, "time_elapsed": 2537756, "internal_node_id": "0.0-160.0-5.0"}}, {"uniqueid": "MTK0579:3OVR4I9USQQ93L8C9XGLN410URQQ4I", "current_trial": 220, "dateTime": 1511220534897, "trialdata": {"rt": -1, "stimulus": "<p id=\"stim\">4</p>", "key_press": -1, "trial_type": "single-stim", "trial_index": 220, "time_elapsed": 2538760, "internal_node_id": "0.0-160.0-6.0"}}, {"uniqueid": "MTK0579:3OVR4I9USQQ93L8C9XGLN410URQQ4I", "current_trial": 221, "dateTime": 1511220535902, "trialdata": {"rt": -1, "stimulus": "<p id=\"stim\">3</p>", "key_press": -1, "trial_type": "single-stim", "trial_index": 221, "time_elapsed": 2539765, "internal_node_id": "0.0-160.0-7.0"}}, {"uniqueid": "MTK0579:3OVR4I9USQQ93L8C9XGLN410URQQ4I", "current_trial": 222, "dateTime": 1511220536906, "trialdata": {"rt": -1, "stimulus": "<p id=\"stim\">2</p>", "key_press": -1, "trial_type": "single-stim", "trial_index": 222, "time_elapsed": 2540769, "internal_node_id": "0.0-160.0-8.0"}}, {"uniqueid": "MTK0579:3OVR4I9USQQ93L8C9XGLN410URQQ4I", "current_trial": 223, "dateTime": 1511220537910, "trialdata": {"rt": -1, "stimulus": "<p id=\"stim\">1</p>", "key_press": -1, "trial_type": "single-stim", "trial_index": 223, "time_elapsed": 2541773, "internal_node_id": "0.0-160.0-9.0"}}, {"uniqueid": "MTK0579:3OVR4I9USQQ93L8C9XGLN410URQQ4I", "current_trial": 224, "dateTime": 1511220539416, "trialdata": {"rt": -1, "stimulus": "<p id=\"stim\">+</p>", "key_press": -1, "type": "FIXATION", "trial_type": "single-stim", "trial_index": 224, "time_elapsed": 2543280, "internal_node_id": "0.0-161.0-0.0"}}, {"uniqueid": "MTK0579:3OVR4I9USQQ93L8C9XGLN410URQQ4I", "current_trial": 225, "dateTime": 1511220541019, "trialdata": {"rt": -1, "stimulus": "<p id=\"stim\">GAVEL</p>", "key_press": -1, "type": "PRES_VIS", "word": "gavel", "wordID": 626, "conditions": [24, 1600, "v", 24000], "trial": 6, "serialpos": 0, "trial_type": "single-stim", "trial_index": 225, "time_elapsed": 2544882, "internal_node_id": "0.0-162.0"}}, {"uniqueid": "MTK0579:3OVR4I9USQQ93L8C9XGLN410URQQ4I", "current_trial": 226, "dateTime": 1511220543425, "trialdata": {"rt": -1, "stimulus": "<p id=\"stim\">PEPPER</p>", "key_press": -1, "type": "PRES_VIS", "word": "pepper", "wordID": 1046, "conditions": [24, 1600, "v", 24000], "trial": 6, "serialpos": 1, "trial_type": "single-stim", "trial_index": 226, "time_elapsed": 2547289, "internal_node_id": "0.0-163.0"}}, {"uniqueid": "MTK0579:3OVR4I9USQQ93L8C9XGLN410URQQ4I", "current_trial": 227, "dateTime": 1511220545891, "trialdata": {"rt": -1, "stimulus": "<p id=\"stim\">TRUCK</p>", "key_press": -1, "type": "PRES_VIS", "word": "truck", "wordID": 1511, "conditions": [24, 1600, "v", 24000], "trial": 6, "serialpos": 2, "trial_type": "single-stim", "trial_index": 227, "time_elapsed": 2549755, "internal_node_id": "0.0-164.0"}}, {"uniqueid": "MTK0579:3OVR4I9USQQ93L8C9XGLN410URQQ4I", "current_trial": 228, "dateTime": 1511220548312, "trialdata": {"rt": -1, "stimulus": "<p id=\"stim\">LIVER</p>", "key_press": -1, "type": "PRES_VIS", "word": "liver", "wordID": 832, "conditions": [24, 1600, "v", 24000], "trial": 6, "serialpos": 3, "trial_type": "single-stim", "trial_index": 228, "time_elapsed": 2552175, "internal_node_id": "0.0-165.0"}}, {"uniqueid": "MTK0579:3OVR4I9USQQ93L8C9XGLN410URQQ4I", "current_trial": 229, "dateTime": 1511220550879, "trialdata": {"rt": -1, "stimulus": "<p id=\"stim\">BRANDY</p>", "key_press": -1, "type": "PRES_VIS", "word": "brandy", "wordID": 168, "conditions": [24, 1600, "v", 24000], "trial": 6, "serialpos": 4, "trial_type": "single-stim", "trial_index": 229, "time_elapsed": 2554743, "internal_node_id": "0.0-166.0"}}, {"uniqueid": "MTK0579:3OVR4I9USQQ93L8C9XGLN410URQQ4I", "current_trial": 230, "dateTime": 1511220553630, "trialdata": {"rt": -1, "stimulus": "<p id=\"stim\">DONKEY</p>", "key_press": -1, "type": "PRES_VIS", "word": "donkey", "wordID": 483, "conditions": [24, 1600, "v", 24000], "trial": 6, "serialpos": 5, "trial_type": "single-stim", "trial_index": 230, "time_elapsed": 2557493, "internal_node_id": "0.0-167.0"}}, {"uniqueid": "MTK0579:3OVR4I9USQQ93L8C9XGLN410URQQ4I", "current_trial": 231, "dateTime": 1511220556357, "trialdata": {"rt": -1, "stimulus": "<p id=\"stim\">ONION</p>", "key_press": -1, "type": "PRES_VIS", "word": "onion", "wordID": 976, "conditions": [24, 1600, "v", 24000], "trial": 6, "serialpos": 6, "trial_type": "single-stim", "trial_index": 231, "time_elapsed": 2560220, "internal_node_id": "0.0-168.0"}}, {"uniqueid": "MTK0579:3OVR4I9USQQ93L8C9XGLN410URQQ4I", "current_trial": 232, "dateTime": 1511220558936, "trialdata": {"rt": -1, "stimulus": "<p id=\"stim\">DRIVER</p>", "key_press": -1, "type": "PRES_VIS", "word": "driver", "wordID": 498, "conditions": [24, 1600, "v", 24000], "trial": 6, "serialpos": 7, "trial_type": "single-stim", "trial_index": 232, "time_elapsed": 2562800, "internal_node_id": "0.0-169.0"}}, {"uniqueid": "MTK0579:3OVR4I9USQQ93L8C9XGLN410URQQ4I", "current_trial": 233, "dateTime": 1511220561647, "trialdata": {"rt": -1, "stimulus": "<p id=\"stim\">BARREL</p>", "key_press": -1, "type": "PRES_VIS", "word": "barrel", "wordID": 90, "conditions": [24, 1600, "v", 24000], "trial": 6, "serialpos": 8, "trial_type": "single-stim", "trial_index": 233, "time_elapsed": 2565510, "internal_node_id": "0.0-170.0"}}, {"uniqueid": "MTK0579:3OVR4I9USQQ93L8C9XGLN410URQQ4I", "current_trial": 234, "dateTime": 1511220564055, "trialdata": {"rt": -1, "stimulus": "<p id=\"stim\">LIZARD</p>", "key_press": -1, "type": "PRES_VIS", "word": "lizard", "wordID": 833, "conditions": [24, 1600, "v", 24000], "trial": 6, "serialpos": 9, "trial_type": "single-stim", "trial_index": 234, "time_elapsed": 2567918, "internal_node_id": "0.0-171.0"}}, {"uniqueid": "MTK0579:3OVR4I9USQQ93L8C9XGLN410URQQ4I", "current_trial": 235, "dateTime": 1511220566513, "trialdata": {"rt": -1, "stimulus": "<p id=\"stim\">COUNTY</p>", "key_press": -1, "type": "PRES_VIS", "word": "county", "wordID": 388, "conditions": [24, 1600, "v", 24000], "trial": 6, "serialpos": 10, "trial_type": "single-stim", "trial_index": 235, "time_elapsed": 2570376, "internal_node_id": "0.0-172.0"}}, {"uniqueid": "MTK0579:3OVR4I9USQQ93L8C9XGLN410URQQ4I", "current_trial": 236, "dateTime": 1511220569131, "trialdata": {"rt": -1, "stimulus": "<p id=\"stim\">SHERIFF</p>", "key_press": -1, "type": "PRES_VIS", "word": "sheriff", "wordID": 1283, "conditions": [24, 1600, "v", 24000], "trial": 6, "serialpos": 11, "trial_type": "single-stim", "trial_index": 236, "time_elapsed": 2572994, "internal_node_id": "0.0-173.0"}}, {"uniqueid": "MTK0579:3OVR4I9USQQ93L8C9XGLN410URQQ4I", "current_trial": 237, "dateTime": 1511220571753, "trialdata": {"rt": -1, "stimulus": "<p id=\"stim\">MOTEL</p>", "key_press": -1, "type": "PRES_VIS", "word": "motel", "wordID": 918, "conditions": [24, 1600, "v", 24000], "trial": 6, "serialpos": 12, "trial_type": "single-stim", "trial_index": 237, "time_elapsed": 2575617, "internal_node_id": "0.0-174.0"}}, {"uniqueid": "MTK0579:3OVR4I9USQQ93L8C9XGLN410URQQ4I", "current_trial": 238, "dateTime": 1511220574552, "trialdata": {"rt": -1, "stimulus": "<p id=\"stim\">DRAWING</p>", "key_press": -1, "type": "PRES_VIS", "word": "drawing", "wordID": 493, "conditions": [24, 1600, "v", 24000], "trial": 6, "serialpos": 13, "trial_type": "single-stim", "trial_index": 238, "time_elapsed": 2578416, "internal_node_id": "0.0-175.0"}}, {"uniqueid": "MTK0579:3OVR4I9USQQ93L8C9XGLN410URQQ4I", "current_trial": 239, "dateTime": 1511220577338, "trialdata": {"rt": -1, "stimulus": "<p id=\"stim\">ROD</p>", "key_press": -1, "type": "PRES_VIS", "word": "rod", "wordID": 1202, "conditions": [24, 1600, "v", 24000], "trial": 6, "serialpos": 14, "trial_type": "single-stim", "trial_index": 239, "time_elapsed": 2581201, "internal_node_id": "0.0-176.0"}}, {"uniqueid": "MTK0579:3OVR4I9USQQ93L8C9XGLN410URQQ4I", "current_trial": 240, "dateTime": 1511220580056, "trialdata": {"rt": -1, "stimulus": "<p id=\"stim\">TURNIP</p>", "key_press": -1, "type": "PRES_VIS", "word": "turnip", "wordID": 1520, "conditions": [24, 1600, "v", 24000], "trial": 6, "serialpos": 15, "trial_type": "single-stim", "trial_index": 240, "time_elapsed": 2583919, "internal_node_id": "0.0-177.0"}}, {"uniqueid": "MTK0579:3OVR4I9USQQ93L8C9XGLN410URQQ4I", "current_trial": 241, "dateTime": 1511220582819, "trialdata": {"rt": -1, "stimulus": "<p id=\"stim\">RADISH</p>", "key_press": -1, "type": "PRES_VIS", "word": "radish", "wordID": 1157, "conditions": [24, 1600, "v", 24000], "trial": 6, "serialpos": 16, "trial_type": "single-stim", "trial_index": 241, "time_elapsed": 2586682, "internal_node_id": "0.0-178.0"}}, {"uniqueid": "MTK0579:3OVR4I9USQQ93L8C9XGLN410URQQ4I", "current_trial": 242, "dateTime": 1511220585310, "trialdata": {"rt": -1, "stimulus": "<p id=\"stim\">PIANO</p>", "key_press": -1, "type": "PRES_VIS", "word": "piano", "wordID": 1056, "conditions": [24, 1600, "v", 24000], "trial": 6, "serialpos": 17, "trial_type": "single-stim", "trial_index": 242, "time_elapsed": 2589173, "internal_node_id": "0.0-179.0"}}, {"uniqueid": "MTK0579:3OVR4I9USQQ93L8C9XGLN410URQQ4I", "current_trial": 243, "dateTime": 1511220588076, "trialdata": {"rt": -1, "stimulus": "<p id=\"stim\">FRIEND</p>", "key_press": -1, "type": "PRES_VIS", "word": "friend", "wordID": 605, "conditions": [24, 1600, "v", 24000], "trial": 6, "serialpos": 18, "trial_type": "single-stim", "trial_index": 243, "time_elapsed": 2591939, "internal_node_id": "0.0-180.0"}}, {"uniqueid": "MTK0579:3OVR4I9USQQ93L8C9XGLN410URQQ4I", "current_trial": 244, "dateTime": 1511220590862, "trialdata": {"rt": -1, "stimulus": "<p id=\"stim\">MOTOR</p>", "key_press": -1, "type": "PRES_VIS", "word": "motor", "wordID": 921, "conditions": [24, 1600, "v", 24000], "trial": 6, "serialpos": 19, "trial_type": "single-stim", "trial_index": 244, "time_elapsed": 2594725, "internal_node_id": "0.0-181.0"}}, {"uniqueid": "MTK0579:3OVR4I9USQQ93L8C9XGLN410URQQ4I", "current_trial": 245, "dateTime": 1511220593559, "trialdata": {"rt": -1, "stimulus": "<p id=\"stim\">HIGHWAY</p>", "key_press": -1, "type": "PRES_VIS", "word": "highway", "wordID": 706, "conditions": [24, 1600, "v", 24000], "trial": 6, "serialpos": 20, "trial_type": "single-stim", "trial_index": 245, "time_elapsed": 2597422, "internal_node_id": "0.0-182.0"}}, {"uniqueid": "MTK0579:3OVR4I9USQQ93L8C9XGLN410URQQ4I", "current_trial": 246, "dateTime": 1511220596033, "trialdata": {"rt": -1, "stimulus": "<p id=\"stim\">AIRPORT</p>", "key_press": -1, "type": "PRES_VIS", "word": "airport", "wordID": 12, "conditions": [24, 1600, "v", 24000], "trial": 6, "serialpos": 21, "trial_type": "single-stim", "trial_index": 246, "time_elapsed": 2599897, "internal_node_id": "0.0-183.0"}}, {"uniqueid": "MTK0579:3OVR4I9USQQ93L8C9XGLN410URQQ4I", "current_trial": 247, "dateTime": 1511220598771, "trialdata": {"rt": -1, "stimulus": "<p id=\"stim\">FLUTE</p>", "key_press": -1, "type": "PRES_VIS", "word": "flute", "wordID": 584, "conditions": [24, 1600, "v", 24000], "trial": 6, "serialpos": 22, "trial_type": "single-stim", "trial_index": 247, "time_elapsed": 2602634, "internal_node_id": "0.0-184.0"}}, {"uniqueid": "MTK0579:3OVR4I9USQQ93L8C9XGLN410URQQ4I", "current_trial": 248, "dateTime": 1511220601445, "trialdata": {"rt": -1, "stimulus": "<p id=\"stim\">SNACK</p>", "key_press": -1, "type": "PRES_VIS", "word": "snack", "wordID": 1330, "conditions": [24, 1600, "v", 24000], "trial": 6, "serialpos": 23, "trial_type": "single-stim", "trial_index": 248, "time_elapsed": 2605308, "internal_node_id": "0.0-185.0"}}, {"uniqueid": "MTK0579:3OVR4I9USQQ93L8C9XGLN410URQQ4I", "current_trial": 249, "dateTime": 1511220603714, "trialdata": {"rt": -1, "stimulus": "", "key_press": -1, "type": "PRE_RECALL_DELAY", "trial_type": "single-stim", "trial_index": 249, "time_elapsed": 2607577, "internal_node_id": "0.0-186.0-0.0"}}, {"uniqueid": "MTK0579:3OVR4I9USQQ93L8C9XGLN410URQQ4I", "current_trial": 250, "dateTime": 1511220604218, "trialdata": {"rt": -1000, "stimulus": "/static/audio/400Hz.wav", "key_press": -1, "type": "PRE_RECALL_ALERT", "trial_type": "single-audio", "trial_index": 250, "time_elapsed": 2608081, "internal_node_id": "0.0-187.0"}}, {"uniqueid": "MTK0579:3OVR4I9USQQ93L8C9XGLN410URQQ4I", "current_trial": 251, "dateTime": 1511220664228, "trialdata": {"rt": [2665, 3963, 7231, 8336, 10003, 11782, 15469, 20444, 21766, 25201, 27413, 32949, 36742, 38732], "recwords": ["snack", "county", "sheriff", "pepper", "onion", "radish", "onion", "gravel", "truck", "highway", "airport", "motor", "piano", "violin"], "type": "FREE_RECALL", "conditions": [24, 1600, "v", 24000], "trial": 6, "trial_type": "free-recall", "trial_index": 251, "time_elapsed": 2668087, "internal_node_id": "0.0-188.0-0.0"}}, {"uniqueid": "MTK0579:3OVR4I9USQQ93L8C9XGLN410URQQ4I", "current_trial": 252, "dateTime": 1511220667605, "trialdata": {"rt": 1369, "key_press": 13, "type": "INSTRUCTIONS", "trial_type": "text", "trial_index": 252, "time_elapsed": 2671469, "internal_node_id": "0.0-189.0"}}, {"uniqueid": "MTK0579:3OVR4I9USQQ93L8C9XGLN410URQQ4I", "current_trial": 253, "dateTime": 1511220693626, "trialdata": {"rt": [2141, 6011, 7880, 11058, 12628, 14646, 16801, 19120, 20876, 23308], "responses": ["7", "20", "12", "15", "12", "12", "9", "9", "11", "18"], "num1": [1, 6, 7, 1, 8, 3, 5, 1, 8, 9, 3], "num2": [2, 9, 1, 6, 2, 1, 2, 6, 2, 8, 8], "num3": [4, 5, 4, 8, 2, 8, 2, 2, 1, 1, 5], "type": "DISTRACTOR", "conditions": [12, 1600, "a", 24000], "trial": 7, "trial_type": "math-distractor", "trial_index": 253, "time_elapsed": 2697487, "internal_node_id": "0.0-190.0"}}, {"uniqueid": "MTK0579:3OVR4I9USQQ93L8C9XGLN410URQQ4I", "current_trial": 254, "dateTime": 1511220696638, "trialdata": {"rt": -1, "stimulus": "<p id=\"stim\">10</p>", "key_press": -1, "trial_type": "single-stim", "trial_index": 254, "time_elapsed": 2700499, "internal_node_id": "0.0-191.0-0.0"}}, {"uniqueid": "MTK0579:3OVR4I9USQQ93L8C9XGLN410URQQ4I", "current_trial": 255, "dateTime": 1511220697649, "trialdata": {"rt": -1, "stimulus": "<p id=\"stim\">9</p>", "key_press": -1, "trial_type": "single-stim", "trial_index": 255, "time_elapsed": 2701510, "internal_node_id": "0.0-191.0-1.0"}}, {"uniqueid": "MTK0579:3OVR4I9USQQ93L8C9XGLN410URQQ4I", "current_trial": 256, "dateTime": 1511220698655, "trialdata": {"rt": -1, "stimulus": "<p id=\"stim\">8</p>", "key_press": -1, "trial_type": "single-stim", "trial_index": 256, "time_elapsed": 2702518, "internal_node_id": "0.0-191.0-2.0"}}, {"uniqueid": "MTK0579:3OVR4I9USQQ93L8C9XGLN410URQQ4I", "current_trial": 257, "dateTime": 1511220699664, "trialdata": {"rt": -1, "stimulus": "<p id=\"stim\">7</p>", "key_press": -1, "trial_type": "single-stim", "trial_index": 257, "time_elapsed": 2703527, "internal_node_id": "0.0-191.0-3.0"}}, {"uniqueid": "MTK0579:3OVR4I9USQQ93L8C9XGLN410URQQ4I", "current_trial": 258, "dateTime": 1511220700670, "trialdata": {"rt": -1, "stimulus": "<p id=\"stim\">6</p>", "key_press": -1, "trial_type": "single-stim", "trial_index": 258, "time_elapsed": 2704533, "internal_node_id": "0.0-191.0-4.0"}}, {"uniqueid": "MTK0579:3OVR4I9USQQ93L8C9XGLN410URQQ4I", "current_trial": 259, "dateTime": 1511220701675, "trialdata": {"rt": -1, "stimulus": "<p id=\"stim\">5</p>", "key_press": -1, "trial_type": "single-stim", "trial_index": 259, "time_elapsed": 2705538, "internal_node_id": "0.0-191.0-5.0"}}, {"uniqueid": "MTK0579:3OVR4I9USQQ93L8C9XGLN410URQQ4I", "current_trial": 260, "dateTime": 1511220702683, "trialdata": {"rt": -1, "stimulus": "<p id=\"stim\">4</p>", "key_press": -1, "trial_type": "single-stim", "trial_index": 260, "time_elapsed": 2706546, "internal_node_id": "0.0-191.0-6.0"}}, {"uniqueid": "MTK0579:3OVR4I9USQQ93L8C9XGLN410URQQ4I", "current_trial": 261, "dateTime": 1511220703689, "trialdata": {"rt": -1, "stimulus": "<p id=\"stim\">3</p>", "key_press": -1, "trial_type": "single-stim", "trial_index": 261, "time_elapsed": 2707552, "internal_node_id": "0.0-191.0-7.0"}}, {"uniqueid": "MTK0579:3OVR4I9USQQ93L8C9XGLN410URQQ4I", "current_trial": 262, "dateTime": 1511220704695, "trialdata": {"rt": -1, "stimulus": "<p id=\"stim\">2</p>", "key_press": -1, "trial_type": "single-stim", "trial_index": 262, "time_elapsed": 2708559, "internal_node_id": "0.0-191.0-8.0"}}, {"uniqueid": "MTK0579:3OVR4I9USQQ93L8C9XGLN410URQQ4I", "current_trial": 263, "dateTime": 1511220705699, "trialdata": {"rt": -1, "stimulus": "<p id=\"stim\">1</p>", "key_press": -1, "trial_type": "single-stim", "trial_index": 263, "time_elapsed": 2709562, "internal_node_id": "0.0-191.0-9.0"}}, {"uniqueid": "MTK0579:3OVR4I9USQQ93L8C9XGLN410URQQ4I", "current_trial": 264, "dateTime": 1511220707203, "trialdata": {"rt": -1, "stimulus": "<p id=\"stim\">+</p>", "key_press": -1, "type": "FIXATION", "trial_type": "single-stim", "trial_index": 264, "time_elapsed": 2711067, "internal_node_id": "0.0-192.0-0.0"}}, {"uniqueid": "MTK0579:3OVR4I9USQQ93L8C9XGLN410URQQ4I", "current_trial": 265, "dateTime": 1511220709858, "trialdata": {"rt": -1000, "stimulus": "/static/audio/wordpool/BANQUET.wav", "key_press": -1, "type": "PRES_AUD", "word": "banquet", "wordID": 85, "conditions": [12, 1600, "a", 24000], "trial": 7, "serialpos": 0, "trial_type": "single-audio", "trial_index": 265, "time_elapsed": 2713721, "internal_node_id": "0.0-193.0"}}, {"uniqueid": "MTK0579:3OVR4I9USQQ93L8C9XGLN410URQQ4I", "current_trial": 266, "dateTime": 1511220712597, "trialdata": {"rt": -1000, "stimulus": "/static/audio/wordpool/BODY.wav", "key_press": -1, "type": "PRES_AUD", "word": "body", "wordID": 144, "conditions": [12, 1600, "a", 24000], "trial": 7, "serialpos": 1, "trial_type": "single-audio", "trial_index": 266, "time_elapsed": 2716459, "internal_node_id": "0.0-194.0"}}, {"uniqueid": "MTK0579:3OVR4I9USQQ93L8C9XGLN410URQQ4I", "current_trial": 267, "dateTime": 1511220715367, "trialdata": {"rt": -1000, "stimulus": "/static/audio/wordpool/KNAPSACK.wav", "key_press": -1, "type": "PRES_AUD", "word": "knapsack", "wordID": 782, "conditions": [12, 1600, "a", 24000], "trial": 7, "serialpos": 2, "trial_type": "single-audio", "trial_index": 267, "time_elapsed": 2719229, "internal_node_id": "0.0-195.0"}}, {"uniqueid": "MTK0579:3OVR4I9USQQ93L8C9XGLN410URQQ4I", "current_trial": 268, "dateTime": 1511220717982, "trialdata": {"rt": -1000, "stimulus": "/static/audio/wordpool/DOUGHNUT.wav", "key_press": -1, "type": "PRES_AUD", "word": "doughnut", "wordID": 489, "conditions": [12, 1600, "a", 24000], "trial": 7, "serialpos": 3, "trial_type": "single-audio", "trial_index": 268, "time_elapsed": 2721845, "internal_node_id": "0.0-196.0"}}, {"uniqueid": "MTK0579:3OVR4I9USQQ93L8C9XGLN410URQQ4I", "current_trial": 269, "dateTime": 1511220720630, "trialdata": {"rt": -1000, "stimulus": "/static/audio/wordpool/XEROX.wav", "key_press": -1, "type": "PRES_AUD", "word": "xerox", "wordID": 1627, "conditions": [12, 1600, "a", 24000], "trial": 7, "serialpos": 4, "trial_type": "single-audio", "trial_index": 269, "time_elapsed": 2724493, "internal_node_id": "0.0-197.0"}}, {"uniqueid": "MTK0579:3OVR4I9USQQ93L8C9XGLN410URQQ4I", "current_trial": 270, "dateTime": 1511220723168, "trialdata": {"rt": -1000, "stimulus": "/static/audio/wordpool/TWEEZERS.wav", "k