{"condition": 0, "counterbalance": 397, "assignmentId": "3RRCEFRB7NJMZF6NQFJVSF617ZU4B4", "workerId": "MTK0258", "hitId": "3421H3BM9AORRKCH50N1IR4AOCSJ9J", "currenttrial": 626, "bonus": 0, "data": [{"uniqueid": "MTK0258:3RRCEFRB7NJMZF6NQFJVSF617ZU4B4", "current_trial": 0, "dateTime": 1510689046143, "trialdata": {"rt": 13677, "key_press": 75, "type": "INSTRUCTIONS", "trial_type": "text", "trial_index": 0, "time_elapsed": 13686, "internal_node_id": "0.0-0.0"}}, {"uniqueid": "MTK0258:3RRCEFRB7NJMZF6NQFJVSF617ZU4B4", "current_trial": 1, "dateTime": 1510689154739, "trialdata": {"rt": 108589, "key_press": 74, "type": "INSTRUCTIONS", "trial_type": "text", "trial_index": 1, "time_elapsed": 122288, "internal_node_id": "0.0-1.0"}}, {"uniqueid": "MTK0258:3RRCEFRB7NJMZF6NQFJVSF617ZU4B4", "current_trial": 2, "dateTime": 1510689174244, "trialdata": {"rt": [19421], "responses": ["ocean"], "type": "AUDIO_TEST", "trial_type": "audio-test", "trial_index": 2, "time_elapsed": 141793, "internal_node_id": "0.0-2.0"}}, {"uniqueid": "MTK0258:3RRCEFRB7NJMZF6NQFJVSF617ZU4B4", "current_trial": 3, "dateTime": 1510689184712, "trialdata": {"rt": [10456], "responses": ["crystal"], "type": "AUDIO_TEST", "trial_type": "audio-test", "trial_index": 3, "time_elapsed": 152261, "internal_node_id": "0.0-3.0"}}, {"uniqueid": "MTK0258:3RRCEFRB7NJMZF6NQFJVSF617ZU4B4", "current_trial": 4, "dateTime": 1510689190663, "trialdata": {"rt": [5939], "responses": ["spice"], "type": "AUDIO_TEST", "trial_type": "audio-test", "trial_index": 4, "time_elapsed": 158212, "internal_node_id": "0.0-4.0"}}, {"uniqueid": "MTK0258:3RRCEFRB7NJMZF6NQFJVSF617ZU4B4", "current_trial": 5, "dateTime": 1510689210352, "trialdata": {"rt": 18928, "responses": "{\"Q0\":\"10:45 pm\",\"Q1\":\"7:45 am\",\"Q2\":\"5\"}", "type": "SLEEP_SURVEY", "trial_type": "survey-text", "trial_index": 5, "time_elapsed": 177901, "internal_node_id": "0.0-5.0"}}, {"uniqueid": "MTK0258:3RRCEFRB7NJMZF6NQFJVSF617ZU4B4", "current_trial": 6, "dateTime": 1510689262906, "trialdata": {"rt": 51548, "key_press": 74, "type": "INSTRUCTIONS", "trial_type": "text", "trial_index": 6, "time_elapsed": 230455, "internal_node_id": "0.0-6.0"}}, {"uniqueid": "MTK0258:3RRCEFRB7NJMZF6NQFJVSF617ZU4B4", "current_trial": 7, "dateTime": 1510689280785, "trialdata": {"rt": 17378, "key_press": 74, "type": "INSTRUCTIONS", "trial_type": "text", "trial_index": 7, "time_elapsed": 248334, "internal_node_id": "0.0-7.0"}}, {"uniqueid": "MTK0258:3RRCEFRB7NJMZF6NQFJVSF617ZU4B4", "current_trial": 8, "dateTime": 1510689293519, "trialdata": {"rt": 12228, "key_press": 74, "type": "INSTRUCTIONS", "trial_type": "text", "trial_index": 8, "time_elapsed": 261068, "internal_node_id": "0.0-8.0"}}, {"uniqueid": "MTK0258:3RRCEFRB7NJMZF6NQFJVSF617ZU4B4", "current_trial": 9, "dateTime": 1510689312553, "trialdata": {"rt": [5229, 8201, 11262, 16245], "responses": ["18", "20", "21", "17"], "num1": [8, 8, 7, 6, 5], "num2": [3, 7, 7, 6, 4], "num3": [7, 5, 7, 5, 5], "type": "DISTRACTOR", "conditions": [18, 1200, "v", 18000], "trial": 0, "trial_type": "math-distractor", "trial_index": 9, "time_elapsed": 280102, "internal_node_id": "0.0-9.0"}}, {"uniqueid": "MTK0258:3RRCEFRB7NJMZF6NQFJVSF617ZU4B4", "current_trial": 10, "dateTime": 1510689315567, "trialdata": {"rt": -1, "stimulus": "<p id=\"stim\">10</p>", "key_press": -1, "trial_type": "single-stim", "trial_index": 10, "time_elapsed": 283116, "internal_node_id": "0.0-10.0-0.0"}}, {"uniqueid": "MTK0258:3RRCEFRB7NJMZF6NQFJVSF617ZU4B4", "current_trial": 11, "dateTime": 1510689316577, "trialdata": {"rt": -1, "stimulus": "<p id=\"stim\">9</p>", "key_press": -1, "trial_type": "single-stim", "trial_index": 11, "time_elapsed": 284126, "internal_node_id": "0.0-10.0-1.0"}}, {"uniqueid": "MTK0258:3RRCEFRB7NJMZF6NQFJVSF617ZU4B4", "current_trial": 12, "dateTime": 1510689317584, "trialdata": {"rt": -1, "stimulus": "<p id=\"stim\">8</p>", "key_press": -1, "trial_type": "single-stim", "trial_index": 12, "time_elapsed": 285133, "internal_node_id": "0.0-10.0-2.0"}}, {"uniqueid": "MTK0258:3RRCEFRB7NJMZF6NQFJVSF617ZU4B4", "current_trial": 13, "dateTime": 1510689318590, "trialdata": {"rt": -1, "stimulus": "<p id=\"stim\">7</p>", "key_press": -1, "trial_type": "single-stim", "trial_index": 13, "time_elapsed": 286139, "internal_node_id": "0.0-10.0-3.0"}}, {"uniqueid": "MTK0258:3RRCEFRB7NJMZF6NQFJVSF617ZU4B4", "current_trial": 14, "dateTime": 1510689319598, "trialdata": {"rt": -1, "stimulus": "<p id=\"stim\">6</p>", "key_press": -1, "trial_type": "single-stim", "trial_index": 14, "time_elapsed": 287147, "internal_node_id": "0.0-10.0-4.0"}}, {"uniqueid": "MTK0258:3RRCEFRB7NJMZF6NQFJVSF617ZU4B4", "current_trial": 15, "dateTime": 1510689320604, "trialdata": {"rt": -1, "stimulus": "<p id=\"stim\">5</p>", "key_press": -1, "trial_type": "single-stim", "trial_index": 15, "time_elapsed": 288153, "internal_node_id": "0.0-10.0-5.0"}}, {"uniqueid": "MTK0258:3RRCEFRB7NJMZF6NQFJVSF617ZU4B4", "current_trial": 16, "dateTime": 1510689321620, "trialdata": {"rt": -1, "stimulus": "<p id=\"stim\">4</p>", "key_press": -1, "trial_type": "single-stim", "trial_index": 16, "time_elapsed": 289169, "internal_node_id": "0.0-10.0-6.0"}}, {"uniqueid": "MTK0258:3RRCEFRB7NJMZF6NQFJVSF617ZU4B4", "current_trial": 17, "dateTime": 1510689322624, "trialdata": {"rt": 28, "stimulus": "<p id=\"stim\">3</p>", "key_press": 255, "trial_type": "single-stim", "trial_index": 17, "time_elapsed": 290173, "internal_node_id": "0.0-10.0-7.0"}}, {"uniqueid": "MTK0258:3RRCEFRB7NJMZF6NQFJVSF617ZU4B4", "current_trial": 18, "dateTime": 1510689323629, "trialdata": {"rt": -1, "stimulus": "<p id=\"stim\">2</p>", "key_press": -1, "trial_type": "single-stim", "trial_index": 18, "time_elapsed": 291178, "internal_node_id": "0.0-10.0-8.0"}}, {"uniqueid": "MTK0258:3RRCEFRB7NJMZF6NQFJVSF617ZU4B4", "current_trial": 19, "dateTime": 1510689324635, "trialdata": {"rt": -1, "stimulus": "<p id=\"stim\">1</p>", "key_press": -1, "trial_type": "single-stim", "trial_index": 19, "time_elapsed": 292184, "internal_node_id": "0.0-10.0-9.0"}}, {"uniqueid": "MTK0258:3RRCEFRB7NJMZF6NQFJVSF617ZU4B4", "current_trial": 20, "dateTime": 1510689326140, "trialdata": {"rt": -1, "stimulus": "<p id=\"stim\">+</p>", "key_press": -1, "type": "FIXATION", "trial_type": "single-stim", "trial_index": 20, "time_elapsed": 293689, "internal_node_id": "0.0-11.0-0.0"}}, {"uniqueid": "MTK0258:3RRCEFRB7NJMZF6NQFJVSF617ZU4B4", "current_trial": 21, "dateTime": 1510689327346, "trialdata": {"rt": -1, "stimulus": "<p id=\"stim\">BEEF</p>", "key_press": -1, "type": "PRES_VIS", "word": "beef", "wordID": 112, "conditions": [18, 1200, "v", 18000], "trial": 0, "serialpos": 0, "trial_type": "single-stim", "trial_index": 21, "time_elapsed": 294895, "internal_node_id": "0.0-12.0"}}, {"uniqueid": "MTK0258:3RRCEFRB7NJMZF6NQFJVSF617ZU4B4", "current_trial": 22, "dateTime": 1510689329473, "trialdata": {"rt": -1, "stimulus": "<p id=\"stim\">OZONE</p>", "key_press": -1, "type": "PRES_VIS", "word": "ozone", "wordID": 995, "conditions": [18, 1200, "v", 18000], "trial": 0, "serialpos": 1, "trial_type": "single-stim", "trial_index": 22, "time_elapsed": 297022, "internal_node_id": "0.0-13.0"}}, {"uniqueid": "MTK0258:3RRCEFRB7NJMZF6NQFJVSF617ZU4B4", "current_trial": 23, "dateTime": 1510689331783, "trialdata": {"rt": -1, "stimulus": "<p id=\"stim\">PECAN</p>", "key_press": -1, "type": "PRES_VIS", "word": "pecan", "wordID": 1035, "conditions": [18, 1200, "v", 18000], "trial": 0, "serialpos": 2, "trial_type": "single-stim", "trial_index": 23, "time_elapsed": 299332, "internal_node_id": "0.0-14.0"}}, {"uniqueid": "MTK0258:3RRCEFRB7NJMZF6NQFJVSF617ZU4B4", "current_trial": 24, "dateTime": 1510689334013, "trialdata": {"rt": -1, "stimulus": "<p id=\"stim\">ARMY</p>", "key_press": -1, "type": "PRES_VIS", "word": "army", "wordID": 38, "conditions": [18, 1200, "v", 18000], "trial": 0, "serialpos": 3, "trial_type": "single-stim", "trial_index": 24, "time_elapsed": 301562, "internal_node_id": "0.0-15.0"}}, {"uniqueid": "MTK0258:3RRCEFRB7NJMZF6NQFJVSF617ZU4B4", "current_trial": 25, "dateTime": 1510689336394, "trialdata": {"rt": -1, "stimulus": "<p id=\"stim\">PORK</p>", "key_press": -1, "type": "PRES_VIS", "word": "pork", "wordID": 1107, "conditions": [18, 1200, "v", 18000], "trial": 0, "serialpos": 4, "trial_type": "single-stim", "trial_index": 25, "time_elapsed": 303943, "internal_node_id": "0.0-16.0"}}, {"uniqueid": "MTK0258:3RRCEFRB7NJMZF6NQFJVSF617ZU4B4", "current_trial": 26, "dateTime": 1510689338429, "trialdata": {"rt": -1, "stimulus": "<p id=\"stim\">SNACK</p>", "key_press": -1, "type": "PRES_VIS", "word": "snack", "wordID": 1330, "conditions": [18, 1200, "v", 18000], "trial": 0, "serialpos": 5, "trial_type": "single-stim", "trial_index": 26, "time_elapsed": 305978, "internal_node_id": "0.0-17.0"}}, {"uniqueid": "MTK0258:3RRCEFRB7NJMZF6NQFJVSF617ZU4B4", "current_trial": 27, "dateTime": 1510689340750, "trialdata": {"rt": -1, "stimulus": "<p id=\"stim\">PUDDING</p>", "key_press": -1, "type": "PRES_VIS", "word": "pudding", "wordID": 1138, "conditions": [18, 1200, "v", 18000], "trial": 0, "serialpos": 6, "trial_type": "single-stim", "trial_index": 27, "time_elapsed": 308299, "internal_node_id": "0.0-18.0"}}, {"uniqueid": "MTK0258:3RRCEFRB7NJMZF6NQFJVSF617ZU4B4", "current_trial": 28, "dateTime": 1510689342777, "trialdata": {"rt": -1, "stimulus": "<p id=\"stim\">OINTMENT</p>", "key_press": -1, "type": "PRES_VIS", "word": "ointment", "wordID": 973, "conditions": [18, 1200, "v", 18000], "trial": 0, "serialpos": 7, "trial_type": "single-stim", "trial_index": 28, "time_elapsed": 310326, "internal_node_id": "0.0-19.0"}}, {"uniqueid": "MTK0258:3RRCEFRB7NJMZF6NQFJVSF617ZU4B4", "current_trial": 29, "dateTime": 1510689344840, "trialdata": {"rt": -1, "stimulus": "<p id=\"stim\">MARS</p>", "key_press": -1, "type": "PRES_VIS", "word": "mars", "wordID": 872, "conditions": [18, 1200, "v", 18000], "trial": 0, "serialpos": 8, "trial_type": "single-stim", "trial_index": 29, "time_elapsed": 312389, "internal_node_id": "0.0-20.0"}}, {"uniqueid": "MTK0258:3RRCEFRB7NJMZF6NQFJVSF617ZU4B4", "current_trial": 30, "dateTime": 1510689346869, "trialdata": {"rt": -1, "stimulus": "<p id=\"stim\">MUSTARD</p>", "key_press": -1, "type": "PRES_VIS", "word": "mustard", "wordID": 934, "conditions": [18, 1200, "v", 18000], "trial": 0, "serialpos": 9, "trial_type": "single-stim", "trial_index": 30, "time_elapsed": 314418, "internal_node_id": "0.0-21.0"}}, {"uniqueid": "MTK0258:3RRCEFRB7NJMZF6NQFJVSF617ZU4B4", "current_trial": 31, "dateTime": 1510689348983, "trialdata": {"rt": -1, "stimulus": "<p id=\"stim\">FLUTE</p>", "key_press": -1, "type": "PRES_VIS", "word": "flute", "wordID": 584, "conditions": [18, 1200, "v", 18000], "trial": 0, "serialpos": 10, "trial_type": "single-stim", "trial_index": 31, "time_elapsed": 316532, "internal_node_id": "0.0-22.0"}}, {"uniqueid": "MTK0258:3RRCEFRB7NJMZF6NQFJVSF617ZU4B4", "current_trial": 32, "dateTime": 1510689351201, "trialdata": {"rt": -1, "stimulus": "<p id=\"stim\">WAGON</p>", "key_press": -1, "type": "PRES_VIS", "word": "wagon", "wordID": 1577, "conditions": [18, 1200, "v", 18000], "trial": 0, "serialpos": 11, "trial_type": "single-stim", "trial_index": 32, "time_elapsed": 318750, "internal_node_id": "0.0-23.0"}}, {"uniqueid": "MTK0258:3RRCEFRB7NJMZF6NQFJVSF617ZU4B4", "current_trial": 33, "dateTime": 1510689353538, "trialdata": {"rt": -1, "stimulus": "<p id=\"stim\">PANTHER</p>", "key_press": -1, "type": "PRES_VIS", "word": "panther", "wordID": 1008, "conditions": [18, 1200, "v", 18000], "trial": 0, "serialpos": 12, "trial_type": "single-stim", "trial_index": 33, "time_elapsed": 321087, "internal_node_id": "0.0-24.0"}}, {"uniqueid": "MTK0258:3RRCEFRB7NJMZF6NQFJVSF617ZU4B4", "current_trial": 34, "dateTime": 1510689355564, "trialdata": {"rt": -1, "stimulus": "<p id=\"stim\">HUSBAND</p>", "key_press": -1, "type": "PRES_VIS", "word": "husband", "wordID": 727, "conditions": [18, 1200, "v", 18000], "trial": 0, "serialpos": 13, "trial_type": "single-stim", "trial_index": 34, "time_elapsed": 323109, "internal_node_id": "0.0-25.0"}}, {"uniqueid": "MTK0258:3RRCEFRB7NJMZF6NQFJVSF617ZU4B4", "current_trial": 35, "dateTime": 1510689357728, "trialdata": {"rt": -1, "stimulus": "<p id=\"stim\">DANCER</p>", "key_press": -1, "type": "PRES_VIS", "word": "dancer", "wordID": 436, "conditions": [18, 1200, "v", 18000], "trial": 0, "serialpos": 14, "trial_type": "single-stim", "trial_index": 35, "time_elapsed": 325277, "internal_node_id": "0.0-26.0"}}, {"uniqueid": "MTK0258:3RRCEFRB7NJMZF6NQFJVSF617ZU4B4", "current_trial": 36, "dateTime": 1510689359760, "trialdata": {"rt": -1, "stimulus": "<p id=\"stim\">TUTU</p>", "key_press": -1, "type": "PRES_VIS", "word": "tutu", "wordID": 1523, "conditions": [18, 1200, "v", 18000], "trial": 0, "serialpos": 15, "trial_type": "single-stim", "trial_index": 36, "time_elapsed": 327309, "internal_node_id": "0.0-27.0"}}, {"uniqueid": "MTK0258:3RRCEFRB7NJMZF6NQFJVSF617ZU4B4", "current_trial": 37, "dateTime": 1510689361798, "trialdata": {"rt": -1, "stimulus": "<p id=\"stim\">ACTOR</p>", "key_press": -1, "type": "PRES_VIS", "word": "actor", "wordID": 4, "conditions": [18, 1200, "v", 18000], "trial": 0, "serialpos": 16, "trial_type": "single-stim", "trial_index": 37, "time_elapsed": 329347, "internal_node_id": "0.0-28.0"}}, {"uniqueid": "MTK0258:3RRCEFRB7NJMZF6NQFJVSF617ZU4B4", "current_trial": 38, "dateTime": 1510689363884, "trialdata": {"rt": -1, "stimulus": "<p id=\"stim\">BLADE</p>", "key_press": -1, "type": "PRES_VIS", "word": "blade", "wordID": 133, "conditions": [18, 1200, "v", 18000], "trial": 0, "serialpos": 17, "trial_type": "single-stim", "trial_index": 38, "time_elapsed": 331433, "internal_node_id": "0.0-29.0"}}, {"uniqueid": "MTK0258:3RRCEFRB7NJMZF6NQFJVSF617ZU4B4", "current_trial": 39, "dateTime": 1510689366249, "trialdata": {"rt": -1, "stimulus": "", "key_press": -1, "type": "PRE_RECALL_DELAY", "trial_type": "single-stim", "trial_index": 39, "time_elapsed": 333798, "internal_node_id": "0.0-30.0-0.0"}}, {"uniqueid": "MTK0258:3RRCEFRB7NJMZF6NQFJVSF617ZU4B4", "current_trial": 40, "dateTime": 1510689366774, "trialdata": {"rt": -1000, "stimulus": "/static/audio/400Hz.wav", "key_press": -1, "type": "PRE_RECALL_ALERT", "trial_type": "single-audio", "trial_index": 40, "time_elapsed": 334323, "internal_node_id": "0.0-31.0"}}, {"uniqueid": "MTK0258:3RRCEFRB7NJMZF6NQFJVSF617ZU4B4", "current_trial": 41, "dateTime": 1510689426828, "trialdata": {"rt": [2543, 4319, 5976, 7544, 9751, 12163, 47472], "recwords": ["blade", "husband", "author", "tutu", "actor", "pecan", "ozone"], "type": "FREE_RECALL", "conditions": [18, 1200, "v", 18000], "trial": 0, "trial_type": "free-recall", "trial_index": 41, "time_elapsed": 394349, "internal_node_id": "0.0-32.0-0.0"}}, {"uniqueid": "MTK0258:3RRCEFRB7NJMZF6NQFJVSF617ZU4B4", "current_trial": 42, "dateTime": 1510689430667, "trialdata": {"rt": 1832, "key_press": 74, "type": "INSTRUCTIONS", "trial_type": "text", "trial_index": 42, "time_elapsed": 398216, "internal_node_id": "0.0-33.0"}}, {"uniqueid": "MTK0258:3RRCEFRB7NJMZF6NQFJVSF617ZU4B4", "current_trial": 43, "dateTime": 1510689450678, "trialdata": {"rt": [4052, 7202, 13078, 15494, 17433], "responses": ["15", "14", "25", "11", "5"], "num1": [5, 7, 9, 5, 1, 2], "num2": [3, 6, 7, 3, 1, 2], "num3": [7, 1, 9, 3, 3, 5], "type": "DISTRACTOR", "conditions": [18, 1200, "a", 18000], "trial": 1, "trial_type": "math-distractor", "trial_index": 43, "time_elapsed": 418227, "internal_node_id": "0.0-34.0"}}, {"uniqueid": "MTK0258:3RRCEFRB7NJMZF6NQFJVSF617ZU4B4", "current_trial": 44, "dateTime": 1510689453689, "trialdata": {"rt": -1, "stimulus": "<p id=\"stim\">10</p>", "key_press": -1, "trial_type": "single-stim", "trial_index": 44, "time_elapsed": 421238, "internal_node_id": "0.0-35.0-0.0"}}, {"uniqueid": "MTK0258:3RRCEFRB7NJMZF6NQFJVSF617ZU4B4", "current_trial": 45, "dateTime": 1510689454694, "trialdata": {"rt": -1, "stimulus": "<p id=\"stim\">9</p>", "key_press": -1, "trial_type": "single-stim", "trial_index": 45, "time_elapsed": 422243, "internal_node_id": "0.0-35.0-1.0"}}, {"uniqueid": "MTK0258:3RRCEFRB7NJMZF6NQFJVSF617ZU4B4", "current_trial": 46, "dateTime": 1510689455700, "trialdata": {"rt": -1, "stimulus": "<p id=\"stim\">8</p>", "key_press": -1, "trial_type": "single-stim", "trial_index": 46, "time_elapsed": 423249, "internal_node_id": "0.0-35.0-2.0"}}, {"uniqueid": "MTK0258:3RRCEFRB7NJMZF6NQFJVSF617ZU4B4", "current_trial": 47, "dateTime": 1510689456707, "trialdata": {"rt": -1, "stimulus": "<p id=\"stim\">7</p>", "key_press": -1, "trial_type": "single-stim", "trial_index": 47, "time_elapsed": 424256, "internal_node_id": "0.0-35.0-3.0"}}, {"uniqueid": "MTK0258:3RRCEFRB7NJMZF6NQFJVSF617ZU4B4", "current_trial": 48, "dateTime": 1510689457711, "trialdata": {"rt": -1, "stimulus": "<p id=\"stim\">6</p>", "key_press": -1, "trial_type": "single-stim", "trial_index": 48, "time_elapsed": 425260, "internal_node_id": "0.0-35.0-4.0"}}, {"uniqueid": "MTK0258:3RRCEFRB7NJMZF6NQFJVSF617ZU4B4", "current_trial": 49, "dateTime": 1510689458716, "trialdata": {"rt": -1, "stimulus": "<p id=\"stim\">5</p>", "key_press": -1, "trial_type": "single-stim", "trial_index": 49, "time_elapsed": 426265, "internal_node_id": "0.0-35.0-5.0"}}, {"uniqueid": "MTK0258:3RRCEFRB7NJMZF6NQFJVSF617ZU4B4", "current_trial": 50, "dateTime": 1510689459722, "trialdata": {"rt": -1, "stimulus": "<p id=\"stim\">4</p>", "key_press": -1, "trial_type": "single-stim", "trial_index": 50, "time_elapsed": 427271, "internal_node_id": "0.0-35.0-6.0"}}, {"uniqueid": "MTK0258:3RRCEFRB7NJMZF6NQFJVSF617ZU4B4", "current_trial": 51, "dateTime": 1510689460729, "trialdata": {"rt": -1, "stimulus": "<p id=\"stim\">3</p>", "key_press": -1, "trial_type": "single-stim", "trial_index": 51, "time_elapsed": 428278, "internal_node_id": "0.0-35.0-7.0"}}, {"uniqueid": "MTK0258:3RRCEFRB7NJMZF6NQFJVSF617ZU4B4", "current_trial": 52, "dateTime": 1510689461738, "trialdata": {"rt": -1, "stimulus": "<p id=\"stim\">2</p>", "key_press": -1, "trial_type": "single-stim", "trial_index": 52, "time_elapsed": 429283, "internal_node_id": "0.0-35.0-8.0"}}, {"uniqueid": "MTK0258:3RRCEFRB7NJMZF6NQFJVSF617ZU4B4", "current_trial": 53, "dateTime": 1510689462743, "trialdata": {"rt": -1, "stimulus": "<p id=\"stim\">1</p>", "key_press": -1, "trial_type": "single-stim", "trial_index": 53, "time_elapsed": 430292, "internal_node_id": "0.0-35.0-9.0"}}, {"uniqueid": "MTK0258:3RRCEFRB7NJMZF6NQFJVSF617ZU4B4", "current_trial": 54, "dateTime": 1510689464248, "trialdata": {"rt": -1, "stimulus": "<p id=\"stim\">+</p>", "key_press": -1, "type": "FIXATION", "trial_type": "single-stim", "trial_index": 54, "time_elapsed": 431797, "internal_node_id": "0.0-36.0-0.0"}}, {"uniqueid": "MTK0258:3RRCEFRB7NJMZF6NQFJVSF617ZU4B4", "current_trial": 55, "dateTime": 1510689466529, "trialdata": {"rt": -1000, "stimulus": "/static/audio/wordpool/LABEL.wav", "key_press": -1, "type": "PRES_AUD", "word": "label", "wordID": 789, "conditions": [18, 1200, "a", 18000], "trial": 1, "serialpos": 0, "trial_type": "single-audio", "trial_index": 55, "time_elapsed": 434078, "internal_node_id": "0.0-37.0"}}, {"uniqueid": "MTK0258:3RRCEFRB7NJMZF6NQFJVSF617ZU4B4", "current_trial": 56, "dateTime": 1510689468669, "trialdata": {"rt": -1000, "stimulus": "/static/audio/wordpool/DONOR.wav", "key_press": -1, "type": "PRES_AUD", "word": "donor", "wordID": 484, "conditions": [18, 1200, "a", 18000], "trial": 1, "serialpos": 1, "trial_type": "single-audio", "trial_index": 56, "time_elapsed": 436218, "internal_node_id": "0.0-38.0"}}, {"uniqueid": "MTK0258:3RRCEFRB7NJMZF6NQFJVSF617ZU4B4", "current_trial": 57, "dateTime": 1510689470953, "trialdata": {"rt": -1000, "stimulus": "/static/audio/wordpool/KNIFE.wav", "key_press": -1, "type": "PRES_AUD", "word": "knife", "wordID": 784, "conditions": [18, 1200, "a", 18000], "trial": 1, "serialpos": 2, "trial_type": "single-audio", "trial_index": 57, "time_elapsed": 438502, "internal_node_id": "0.0-39.0"}}, {"uniqueid": "MTK0258:3RRCEFRB7NJMZF6NQFJVSF617ZU4B4", "current_trial": 58, "dateTime": 1510689473033, "trialdata": {"rt": -1000, "stimulus": "/static/audio/wordpool/BRACES.wav", "key_press": -1, "type": "PRES_AUD", "word": "braces", "wordID": 163, "conditions": [18, 1200, "a", 18000], "trial": 1, "serialpos": 3, "trial_type": "single-audio", "trial_index": 58, "time_elapsed": 440582, "internal_node_id": "0.0-40.0"}}, {"uniqueid": "MTK0258:3RRCEFRB7NJMZF6NQFJVSF617ZU4B4", "current_trial": 59, "dateTime": 1510689475110, "trialdata": {"rt": -1000, "stimulus": "/static/audio/wordpool/COWBOY.wav", "key_press": -1, "type": "PRES_AUD", "word": "cowboy", "wordID": 394, "conditions": [18, 1200, "a", 18000], "trial": 1, "serialpos": 4, "trial_type": "single-audio", "trial_index": 59, "time_elapsed": 442659, "internal_node_id": "0.0-41.0"}}, {"uniqueid": "MTK0258:3RRCEFRB7NJMZF6NQFJVSF617ZU4B4", "current_trial": 60, "dateTime": 1510689477472, "trialdata": {"rt": -1000, "stimulus": "/static/audio/wordpool/TART.wav", "key_press": -1, "type": "PRES_AUD", "word": "tart", "wordID": 1435, "conditions": [18, 1200, "a", 18000], "trial": 1, "serialpos": 5, "trial_type": "single-audio", "trial_index": 60, "time_elapsed": 445021, "internal_node_id": "0.0-42.0"}}, {"uniqueid": "MTK0258:3RRCEFRB7NJMZF6NQFJVSF617ZU4B4", "current_trial": 61, "dateTime": 1510689479550, "trialdata": {"rt": -1000, "stimulus": "/static/audio/wordpool/POCKET.wav", "key_press": -1, "type": "PRES_AUD", "word": "pocket", "wordID": 1092, "conditions": [18, 1200, "a", 18000], "trial": 1, "serialpos": 6, "trial_type": "single-audio", "trial_index": 61, "time_elapsed": 447099, "internal_node_id": "0.0-43.0"}}, {"uniqueid": "MTK0258:3RRCEFRB7NJMZF6NQFJVSF617ZU4B4", "current_trial": 62, "dateTime": 1510689481879, "trialdata": {"rt": -1000, "stimulus": "/static/audio/wordpool/CELLAR.wav", "key_press": -1, "type": "PRES_AUD", "word": "cellar", "wordID": 266, "conditions": [18, 1200, "a", 18000], "trial": 1, "serialpos": 7, "trial_type": "single-audio", "trial_index": 62, "time_elapsed": 449428, "internal_node_id": "0.0-44.0"}}, {"uniqueid": "MTK0258:3RRCEFRB7NJMZF6NQFJVSF617ZU4B4", "current_trial": 63, "dateTime": 1510689484131, "trialdata": {"rt": -1000, "stimulus": "/static/audio/wordpool/BLOCKADE.wav", "key_press": -1, "type": "PRES_AUD", "word": "blockade", "wordID": 136, "conditions": [18, 1200, "a", 18000], "trial": 1, "serialpos": 8, "trial_type": "single-audio", "trial_index": 63, "time_elapsed": 451680, "internal_node_id": "0.0-45.0"}}, {"uniqueid": "MTK0258:3RRCEFRB7NJMZF6NQFJVSF617ZU4B4", "current_trial": 64, "dateTime": 1510689486321, "trialdata": {"rt": -1000, "stimulus": "/static/audio/wordpool/AIRPORT.wav", "key_press": -1, "type": "PRES_AUD", "word": "airport", "wordID": 12, "conditions": [18, 1200, "a", 18000], "trial": 1, "serialpos": 9, "trial_type": "single-audio", "trial_index": 64, "time_elapsed": 453870, "internal_node_id": "0.0-46.0"}}, {"uniqueid": "MTK0258:3RRCEFRB7NJMZF6NQFJVSF617ZU4B4", "current_trial": 65, "dateTime": 1510689488352, "trialdata": {"rt": -1000, "stimulus": "/static/audio/wordpool/MAPLE.wav", "key_press": -1, "type": "PRES_AUD", "word": "maple", "wordID": 865, "conditions": [18, 1200, "a", 18000], "trial": 1, "serialpos": 10, "trial_type": "single-audio", "trial_index": 65, "time_elapsed": 455901, "internal_node_id": "0.0-47.0"}}, {"uniqueid": "MTK0258:3RRCEFRB7NJMZF6NQFJVSF617ZU4B4", "current_trial": 66, "dateTime": 1510689490371, "trialdata": {"rt": -1000, "stimulus": "/static/audio/wordpool/PATROL.wav", "key_press": -1, "type": "PRES_AUD", "word": "patrol", "wordID": 1026, "conditions": [18, 1200, "a", 18000], "trial": 1, "serialpos": 11, "trial_type": "single-audio", "trial_index": 66, "time_elapsed": 457920, "internal_node_id": "0.0-48.0"}}, {"uniqueid": "MTK0258:3RRCEFRB7NJMZF6NQFJVSF617ZU4B4", "current_trial": 67, "dateTime": 1510689492557, "trialdata": {"rt": -1000, "stimulus": "/static/audio/wordpool/ACTRESS.wav", "key_press": -1, "type": "PRES_AUD", "word": "actress", "wordID": 5, "conditions": [18, 1200, "a", 18000], "trial": 1, "serialpos": 12, "trial_type": "single-audio", "trial_index": 67, "time_elapsed": 460106, "internal_node_id": "0.0-49.0"}}, {"uniqueid": "MTK0258:3RRCEFRB7NJMZF6NQFJVSF617ZU4B4", "current_trial": 68, "dateTime": 1510689494804, "trialdata": {"rt": -1000, "stimulus": "/static/audio/wordpool/CHAPEL.wav", "key_press": -1, "type": "PRES_AUD", "word": "chapel", "wordID": 279, "conditions": [18, 1200, "a", 18000], "trial": 1, "serialpos": 13, "trial_type": "single-audio", "trial_index": 68, "time_elapsed": 462338, "internal_node_id": "0.0-50.0"}}, {"uniqueid": "MTK0258:3RRCEFRB7NJMZF6NQFJVSF617ZU4B4", "current_trial": 69, "dateTime": 1510689496966, "trialdata": {"rt": -1000, "stimulus": "/static/audio/wordpool/DUSTPAN.wav", "key_press": -1, "type": "PRES_AUD", "word": "dustpan", "wordID": 508, "conditions": [18, 1200, "a", 18000], "trial": 1, "serialpos": 14, "trial_type": "single-audio", "trial_index": 69, "time_elapsed": 464515, "internal_node_id": "0.0-51.0"}}, {"uniqueid": "MTK0258:3RRCEFRB7NJMZF6NQFJVSF617ZU4B4", "current_trial": 70, "dateTime": 1510689499168, "trialdata": {"rt": -1000, "stimulus": "/static/audio/wordpool/DRESSER.wav", "key_press": -1, "type": "PRES_AUD", "word": "dresser", "wordID": 495, "conditions": [18, 1200, "a", 18000], "trial": 1, "serialpos": 15, "trial_type": "single-audio", "trial_index": 70, "time_elapsed": 466717, "internal_node_id": "0.0-52.0"}}, {"uniqueid": "MTK0258:3RRCEFRB7NJMZF6NQFJVSF617ZU4B4", "current_trial": 71, "dateTime": 1510689501202, "trialdata": {"rt": -1000, "stimulus": "/static/audio/wordpool/TURNIP.wav", "key_press": -1, "type": "PRES_AUD", "word": "turnip", "wordID": 1520, "conditions": [18, 1200, "a", 18000], "trial": 1, "serialpos": 16, "trial_type": "single-audio", "trial_index": 71, "time_elapsed": 468751, "internal_node_id": "0.0-53.0"}}, {"uniqueid": "MTK0258:3RRCEFRB7NJMZF6NQFJVSF617ZU4B4", "current_trial": 72, "dateTime": 1510689503376, "trialdata": {"rt": -1000, "stimulus": "/static/audio/wordpool/CYCLONE.wav", "key_press": -1, "type": "PRES_AUD", "word": "cyclone", "wordID": 430, "conditions": [18, 1200, "a", 18000], "trial": 1, "serialpos": 17, "trial_type": "single-audio", "trial_index": 72, "time_elapsed": 470925, "internal_node_id": "0.0-54.0"}}, {"uniqueid": "MTK0258:3RRCEFRB7NJMZF6NQFJVSF617ZU4B4", "current_trial": 73, "dateTime": 1510689504622, "trialdata": {"rt": -1, "stimulus": "", "key_press": -1, "type": "PRE_RECALL_DELAY", "trial_type": "single-stim", "trial_index": 73, "time_elapsed": 472171, "internal_node_id": "0.0-55.0-0.0"}}, {"uniqueid": "MTK0258:3RRCEFRB7NJMZF6NQFJVSF617ZU4B4", "current_trial": 74, "dateTime": 1510689505130, "trialdata": {"rt": -1000, "stimulus": "/static/audio/400Hz.wav", "key_press": -1, "type": "PRE_RECALL_ALERT", "trial_type": "single-audio", "trial_index": 74, "time_elapsed": 472679, "internal_node_id": "0.0-56.0"}}, {"uniqueid": "MTK0258:3RRCEFRB7NJMZF6NQFJVSF617ZU4B4", "current_trial": 75, "dateTime": 1510689565155, "trialdata": {"rt": [2544, 3857, 6626, 10938, 13184, 16770, 33465], "recwords": ["cyclone", "turnip", "blockade", "cowboy", "pocket", "airport", "leader"], "type": "FREE_RECALL", "conditions": [18, 1200, "a", 18000], "trial": 1, "trial_type": "free-recall", "trial_index": 75, "time_elapsed": 532684, "internal_node_id": "0.0-57.0-0.0"}}, {"uniqueid": "MTK0258:3RRCEFRB7NJMZF6NQFJVSF617ZU4B4", "current_trial": 76, "dateTime": 1510689571337, "trialdata": {"rt": 4143, "key_press": 74, "type": "INSTRUCTIONS", "trial_type": "text", "trial_index": 76, "time_elapsed": 538854, "internal_node_id": "0.0-58.0"}}, {"uniqueid": "MTK0258:3RRCEFRB7NJMZF6NQFJVSF617ZU4B4", "current_trial": 77, "dateTime": 1510689596390, "trialdata": {"rt": [3969, 6009, 9581, 12977, 14508, 16538, 20368, 22397], "responses": ["17", "9", "6", "20", "7", "13", "23", "17"], "num1": [9, 4, 2, 4, 3, 1, 5, 4, 8], "num2": [5, 1, 1, 7, 3, 9, 9, 5, 7], "num3": [3, 4, 3, 9, 1, 3, 9, 8, 2], "type": "DISTRACTOR", "conditions": [24, 800, "a", 24000], "trial": 2, "trial_type": "math-distractor", "trial_index": 77, "time_elapsed": 563923, "internal_node_id": "0.0-59.0"}}, {"uniqueid": "MTK0258:3RRCEFRB7NJMZF6NQFJVSF617ZU4B4", "current_trial": 78, "dateTime": 1510689599396, "trialdata": {"rt": -1, "stimulus": "<p id=\"stim\">10</p>", "key_press": -1, "trial_type": "single-stim", "trial_index": 78, "time_elapsed": 566945, "internal_node_id": "0.0-60.0-0.0"}}, {"uniqueid": "MTK0258:3RRCEFRB7NJMZF6NQFJVSF617ZU4B4", "current_trial": 79, "dateTime": 1510689600403, "trialdata": {"rt": -1, "stimulus": "<p id=\"stim\">9</p>", "key_press": -1, "trial_type": "single-stim", "trial_index": 79, "time_elapsed": 567952, "internal_node_id": "0.0-60.0-1.0"}}, {"uniqueid": "MTK0258:3RRCEFRB7NJMZF6NQFJVSF617ZU4B4", "current_trial": 80, "dateTime": 1510689601407, "trialdata": {"rt": -1, "stimulus": "<p id=\"stim\">8</p>", "key_press": -1, "trial_type": "single-stim", "trial_index": 80, "time_elapsed": 568956, "internal_node_id": "0.0-60.0-2.0"}}, {"uniqueid": "MTK0258:3RRCEFRB7NJMZF6NQFJVSF617ZU4B4", "current_trial": 81, "dateTime": 1510689602412, "trialdata": {"rt": -1, "stimulus": "<p id=\"stim\">7</p>", "key_press": -1, "trial_type": "single-stim", "trial_index": 81, "time_elapsed": 569961, "internal_node_id": "0.0-60.0-3.0"}}, {"uniqueid": "MTK0258:3RRCEFRB7NJMZF6NQFJVSF617ZU4B4", "current_trial": 82, "dateTime": 1510689603416, "trialdata": {"rt": -1, "stimulus": "<p id=\"stim\">6</p>", "key_press": -1, "trial_type": "single-stim", "trial_index": 82, "time_elapsed": 570965, "internal_node_id": "0.0-60.0-4.0"}}, {"uniqueid": "MTK0258:3RRCEFRB7NJMZF6NQFJVSF617ZU4B4", "current_trial": 83, "dateTime": 1510689604422, "trialdata": {"rt": -1, "stimulus": "<p id=\"stim\">5</p>", "key_press": -1, "trial_type": "single-stim", "trial_index": 83, "time_elapsed": 571971, "internal_node_id": "0.0-60.0-5.0"}}, {"uniqueid": "MTK0258:3RRCEFRB7NJMZF6NQFJVSF617ZU4B4", "current_trial": 84, "dateTime": 1510689605428, "trialdata": {"rt": -1, "stimulus": "<p id=\"stim\">4</p>", "key_press": -1, "trial_type": "single-stim", "trial_index": 84, "time_elapsed": 572977, "internal_node_id": "0.0-60.0-6.0"}}, {"uniqueid": "MTK0258:3RRCEFRB7NJMZF6NQFJVSF617ZU4B4", "current_trial": 85, "dateTime": 1510689606433, "trialdata": {"rt": -1, "stimulus": "<p id=\"stim\">3</p>", "key_press": -1, "trial_type": "single-stim", "trial_index": 85, "time_elapsed": 573982, "internal_node_id": "0.0-60.0-7.0"}}, {"uniqueid": "MTK0258:3RRCEFRB7NJMZF6NQFJVSF617ZU4B4", "current_trial": 86, "dateTime": 1510689607436, "trialdata": {"rt": -1, "stimulus": "<p id=\"stim\">2</p>", "key_press": -1, "trial_type": "single-stim", "trial_index": 86, "time_elapsed": 574985, "internal_node_id": "0.0-60.0-8.0"}}, {"uniqueid": "MTK0258:3RRCEFRB7NJMZF6NQFJVSF617ZU4B4", "current_trial": 87, "dateTime": 1510689608443, "trialdata": {"rt": -1, "stimulus": "<p id=\"stim\">1</p>", "key_press": -1, "trial_type": "single-stim", "trial_index": 87, "time_elapsed": 575992, "internal_node_id": "0.0-60.0-9.0"}}, {"uniqueid": "MTK0258:3RRCEFRB7NJMZF6NQFJVSF617ZU4B4", "current_trial": 88, "dateTime": 1510689609947, "trialdata": {"rt": -1, "stimulus": "<p id=\"stim\">+</p>", "key_press": -1, "type": "FIXATION", "trial_type": "single-stim", "trial_index": 88, "time_elapsed": 577496, "internal_node_id": "0.0-61.0-0.0"}}, {"uniqueid": "MTK0258:3RRCEFRB7NJMZF6NQFJVSF617ZU4B4", "current_trial": 89, "dateTime": 1510689611830, "trialdata": {"rt": -1000, "stimulus": "/static/audio/wordpool/CASHIER.wav", "key_press": -1, "type": "PRES_AUD", "word": "cashier", "wordID": 253, "conditions": [24, 800, "a", 24000], "trial": 2, "serialpos": 0, "trial_type": "single-audio", "trial_index": 89, "time_elapsed": 579379, "internal_node_id": "0.0-62.0"}}, {"uniqueid": "MTK0258:3RRCEFRB7NJMZF6NQFJVSF617ZU4B4", "current_trial": 90, "dateTime": 1510689613560, "trialdata": {"rt": -1000, "stimulus": "/static/audio/wordpool/DRIVER.wav", "key_press": -1, "type": "PRES_AUD", "word": "driver", "wordID": 498, "conditions": [24, 800, "a", 24000], "trial": 2, "serialpos": 1, "trial_type": "single-audio", "trial_index": 90, "time_elapsed": 581109, "internal_node_id": "0.0-63.0"}}, {"uniqueid": "MTK0258:3RRCEFRB7NJMZF6NQFJVSF617ZU4B4", "current_trial": 91, "dateTime": 1510689615293, "trialdata": {"rt": -1000, "stimulus": "/static/audio/wordpool/CANDY.wav", "key_press": -1, "type": "PRES_AUD", "word": "candy", "wordID": 229, "conditions": [24, 800, "a", 24000], "trial": 2, "serialpos": 2, "trial_type": "single-audio", "trial_index": 91, "time_elapsed": 582842, "internal_node_id": "0.0-64.0"}}, {"uniqueid": "MTK0258:3RRCEFRB7NJMZF6NQFJVSF617ZU4B4", "current_trial": 92, "dateTime": 1510689617034, "trialdata": {"rt": -1000, "stimulus": "/static/audio/wordpool/ROBIN.wav", "key_press": -1, "type": "PRES_AUD", "word": "robin", "wordID": 1198, "conditions": [24, 800, "a", 24000], "trial": 2, "serialpos": 3, "trial_type": "single-audio", "trial_index": 92, "time_elapsed": 584583, "internal_node_id": "0.0-65.0"}}, {"uniqueid": "MTK0258:3RRCEFRB7NJMZF6NQFJVSF617ZU4B4", "current_trial": 93, "dateTime": 1510689618922, "trialdata": {"rt": -1000, "stimulus": "/static/audio/wordpool/SPARROW.wav", "key_press": -1, "type": "PRES_AUD", "word": "sparrow", "wordID": 1346, "conditions": [24, 800, "a", 24000], "trial": 2, "serialpos": 4, "trial_type": "single-audio", "trial_index": 93, "time_elapsed": 586471, "internal_node_id": "0.0-66.0"}}, {"uniqueid": "MTK0258:3RRCEFRB7NJMZF6NQFJVSF617ZU4B4", "current_trial": 94, "dateTime": 1510689620743, "trialdata": {"rt": -1000, "stimulus": "/static/audio/wordpool/LOVER.wav", "key_press": -1, "type": "PRES_AUD", "word": "lover", "wordID": 845, "conditions": [24, 800, "a", 24000], "trial": 2, "serialpos": 5, "trial_type": "single-audio", "trial_index": 94, "time_elapsed": 588292, "internal_node_id": "0.0-67.0"}}, {"uniqueid": "MTK0258:3RRCEFRB7NJMZF6NQFJVSF617ZU4B4", "current_trial": 95, "dateTime": 1510689622572, "trialdata": {"rt": -1000, "stimulus": "/static/audio/wordpool/TRUCK.wav", "key_press": -1, "type": "PRES_AUD", "word": "truck", "wordID": 1511, "conditions": [24, 800, "a", 24000], "trial": 2, "serialpos": 6, "trial_type": "single-audio", "trial_index": 95, "time_elapsed": 590121, "internal_node_id": "0.0-68.0"}}, {"uniqueid": "MTK0258:3RRCEFRB7NJMZF6NQFJVSF617ZU4B4", "current_trial": 96, "dateTime": 1510689624183, "trialdata": {"rt": -1000, "stimulus": "/static/audio/wordpool/BANK.wav", "key_press": -1, "type": "PRES_AUD", "word": "bank", "wordID": 82, "conditions": [24, 800, "a", 24000], "trial": 2, "serialpos": 7, "trial_type": "single-audio", "trial_index": 96, "time_elapsed": 591732, "internal_node_id": "0.0-69.0"}}, {"uniqueid": "MTK0258:3RRCEFRB7NJMZF6NQFJVSF617ZU4B4", "current_trial": 97, "dateTime": 1510689626054, "trialdata": {"rt": -1000, "stimulus": "/static/audio/wordpool/SUPPER.wav", "key_press": -1, "type": "PRES_AUD", "word": "supper", "wordID": 1410, "conditions": [24, 800, "a", 24000], "trial": 2, "serialpos": 8, "trial_type": "single-audio", "trial_index": 97, "time_elapsed": 593603, "internal_node_id": "0.0-70.0"}}, {"uniqueid": "MTK0258:3RRCEFRB7NJMZF6NQFJVSF617ZU4B4", "current_trial": 98, "dateTime": 1510689627918, "trialdata": {"rt": -1000, "stimulus": "/static/audio/wordpool/INFANT.wav", "key_press": -1, "type": "PRES_AUD", "word": "infant", "wordID": 736, "conditions": [24, 800, "a", 24000], "trial": 2, "serialpos": 9, "trial_type": "single-audio", "trial_index": 98, "time_elapsed": 595467, "internal_node_id": "0.0-71.0"}}, {"uniqueid": "MTK0258:3RRCEFRB7NJMZF6NQFJVSF617ZU4B4", "current_trial": 99, "dateTime": 1510689629856, "trialdata": {"rt": -1000, "stimulus": "/static/audio/wordpool/POWDER.wav", "key_press": -1, "type": "PRES_AUD", "word": "powder", "wordID": 1116, "conditions": [24, 800, "a", 24000], "trial": 2, "serialpos": 10, "trial_type": "single-audio", "trial_index": 99, "time_elapsed": 597405, "internal_node_id": "0.0-72.0"}}, {"uniqueid": "MTK0258:3RRCEFRB7NJMZF6NQFJVSF617ZU4B4", "current_trial": 100, "dateTime": 1510689631562, "trialdata": {"rt": -1000, "stimulus": "/static/audio/wordpool/ZIPPER.wav", "key_press": -1, "type": "PRES_AUD", "word": "zipper", "wordID": 1635, "conditions": [24, 800, "a", 24000], "trial": 2, "serialpos": 11, "trial_type": "single-audio", "trial_index": 100, "time_elapsed": 599111, "internal_node_id": "0.0-73.0"}}, {"uniqueid": "MTK0258:3RRCEFRB7NJMZF6NQFJVSF617ZU4B4", "current_trial": 101, "dateTime": 1510689633402, "trialdata": {"rt": -1000, "stimulus": "/static/audio/wordpool/SNAIL.wav", "key_press": -1, "type": "PRES_AUD", "word": "snail", "wordID": 1331, "conditions": [24, 800, "a", 24000], "trial": 2, "serialpos": 12, "trial_type": "single-audio", "trial_index": 101, "time_elapsed": 600951, "internal_node_id": "0.0-74.0"}}, {"uniqueid": "MTK0258:3RRCEFRB7NJMZF6NQFJVSF617ZU4B4", "current_trial": 102, "dateTime": 1510689635249, "trialdata": {"rt": -1000, "stimulus": "/static/audio/wordpool/GRAVE.wav", "key_press": -1, "type": "PRES_AUD", "word": "grave", "wordID": 657, "conditions": [24, 800, "a", 24000], "trial": 2, "serialpos": 13, "trial_type": "single-audio", "trial_index": 102, "time_elapsed": 602798, "internal_node_id": "0.0-75.0"}}, {"uniqueid": "MTK0258:3RRCEFRB7NJMZF6NQFJVSF617ZU4B4", "current_trial": 103, "dateTime": 1510689636938, "trialdata": {"rt": -1000, "stimulus": "/static/audio/wordpool/CAFE.wav", "key_press": -1, "type": "PRES_AUD", "word": "cafe", "wordID": 215, "conditions": [24, 800, "a", 24000], "trial": 2, "serialpos": 14, "trial_type": "single-audio", "trial_index": 103, "time_elapsed": 604487, "internal_node_id": "0.0-76.0"}}, {"uniqueid": "MTK0258:3RRCEFRB7NJMZF6NQFJVSF617ZU4B4", "current_trial": 104, "dateTime": 1510689638703, "trialdata": {"rt": -1000, "stimulus": "/static/audio/wordpool/SLIDE.wav", "key_press": -1, "type": "PRES_AUD", "word": "slide", "wordID": 1325, "conditions": [24, 800, "a", 24000], "trial": 2, "serialpos": 15, "trial_type": "single-audio", "trial_index": 104, "time_elapsed": 606252, "internal_node_id": "0.0-77.0"}}, {"uniqueid": "MTK0258:3RRCEFRB7NJMZF6NQFJVSF617ZU4B4", "current_trial": 105, "dateTime": 1510689640565, "trialdata": {"rt": -1000, "stimulus": "/static/audio/wordpool/PARROT.wav", "key_press": -1, "type": "PRES_AUD", "word": "parrot", "wordID": 1014, "conditions": [24, 800, "a", 24000], "trial": 2, "serialpos": 16, "trial_type": "single-audio", "trial_index": 105, "time_elapsed": 608114, "internal_node_id": "0.0-78.0"}}, {"uniqueid": "MTK0258:3RRCEFRB7NJMZF6NQFJVSF617ZU4B4", "current_trial": 106, "dateTime": 1510689642360, "trialdata": {"rt": -1000, "stimulus": "/static/audio/wordpool/FRAGRANCE.wav", "key_press": -1, "type": "PRES_AUD", "word": "fragrance", "wordID": 598, "conditions": [24, 800, "a", 24000], "trial": 2, "serialpos": 17, "trial_type": "single-audio", "trial_index": 106, "time_elapsed": 609909, "internal_node_id": "0.0-79.0"}}, {"uniqueid": "MTK0258:3RRCEFRB7NJMZF6NQFJVSF617ZU4B4", "current_trial": 107, "dateTime": 1510689644361, "trialdata": {"rt": -1000, "stimulus": "/static/audio/wordpool/FLAG.wav", "key_press": -1, "type": "PRES_AUD", "word": "flag", "wordID": 572, "conditions": [24, 800, "a", 24000], "trial": 2, "serialpos": 18, "trial_type": "single-audio", "trial_index": 107, "time_elapsed": 611910, "internal_node_id": "0.0-80.0"}}, {"uniqueid": "MTK0258:3RRCEFRB7NJMZF6NQFJVSF617ZU4B4", "current_trial": 108, "dateTime": 1510689646010, "trialdata": {"rt": -1000, "stimulus": "/static/audio/wordpool/PARSLEY.wav", "key_press": -1, "type": "PRES_AUD", "word": "parsley", "wordID": 1015, "conditions": [24, 800, "a", 24000], "trial": 2, "serialpos": 19, "trial_type": "single-audio", "trial_index": 108, "time_elapsed": 613559, "internal_node_id": "0.0-81.0"}}, {"uniqueid": "MTK0258:3RRCEFRB7NJMZF6NQFJVSF617ZU4B4", "current_trial": 109, "dateTime": 1510689647855, "trialdata": {"rt": -1000, "stimulus": "/static/audio/wordpool/CABBAGE.wav", "key_press": -1, "type": "PRES_AUD", "word": "cabbage", "wordID": 209, "conditions": [24, 800, "a", 24000], "trial": 2, "serialpos": 20, "trial_type": "single-audio", "trial_index": 109, "time_elapsed": 615404, "internal_node_id": "0.0-82.0"}}, {"uniqueid": "MTK0258:3RRCEFRB7NJMZF6NQFJVSF617ZU4B4", "current_trial": 110, "dateTime": 1510689649704, "trialdata": {"rt": -1000, "stimulus": "/static/audio/wordpool/HELMET.wav", "key_press": -1, "type": "PRES_AUD", "word": "helmet", "wordID": 701, "conditions": [24, 800, "a", 24000], "trial": 2, "serialpos": 21, "trial_type": "single-audio", "trial_index": 110, "time_elapsed": 617253, "internal_node_id": "0.0-83.0"}}, {"uniqueid": "MTK0258:3RRCEFRB7NJMZF6NQFJVSF617ZU4B4", "current_trial": 111, "dateTime": 1510689651443, "trialdata": {"rt": -1000, "stimulus": "/static/audio/wordpool/SCULPTURE.wav", "key_press": -1, "type": "PRES_AUD", "word": "sculpture", "wordID": 1257, "conditions": [24, 800, "a", 24000], "trial": 2, "serialpos": 22, "trial_type": "single-audio", "trial_index": 111, "time_elapsed": 618992, "internal_node_id": "0.0-84.0"}}, {"uniqueid": "MTK0258:3RRCEFRB7NJMZF6NQFJVSF617ZU4B4", "current_trial": 112, "dateTime": 1510689653086, "trialdata": {"rt": -1000, "stimulus": "/static/audio/wordpool/ROOSTER.wav", "key_press": -1, "type": "PRES_AUD", "word": "rooster", "wordID": 1208, "conditions": [24, 800, "a", 24000], "trial": 2, "serialpos": 23, "trial_type": "single-audio", "trial_index": 112, "time_elapsed": 620635, "internal_node_id": "0.0-85.0"}}, {"uniqueid": "MTK0258:3RRCEFRB7NJMZF6NQFJVSF617ZU4B4", "current_trial": 113, "dateTime": 1510689654472, "trialdata": {"rt": -1, "stimulus": "", "key_press": -1, "type": "PRE_RECALL_DELAY", "trial_type": "single-stim", "trial_index": 113, "time_elapsed": 622021, "internal_node_id": "0.0-86.0-0.0"}}, {"uniqueid": "MTK0258:3RRCEFRB7NJMZF6NQFJVSF617ZU4B4", "current_trial": 114, "dateTime": 1510689654979, "trialdata": {"rt": -1000, "stimulus": "/static/audio/400Hz.wav", "key_press": -1, "type": "PRE_RECALL_ALERT", "trial_type": "single-audio", "trial_index": 114, "time_elapsed": 622528, "internal_node_id": "0.0-87.0"}}, {"uniqueid": "MTK0258:3RRCEFRB7NJMZF6NQFJVSF617ZU4B4", "current_trial": 115, "dateTime": 1510689715007, "trialdata": {"rt": [3112, 4834, 7227, 13136, 17301, 18416, 19520, 33453, 34507, 36268, 37324], "recwords": ["sculpture", "rooster", "cabbage", "parsly", "child", "slide", "infant", "cashier", "candy", "driver", "bank"], "type": "FREE_RECALL", "conditions": [24, 800, "a", 24000], "trial": 2, "trial_type": "free-recall", "trial_index": 115, "time_elapsed": 682539, "internal_node_id": "0.0-88.0-0.0"}}, {"uniqueid": "MTK0258:3RRCEFRB7NJMZF6NQFJVSF617ZU4B4", "current_trial": 116, "dateTime": 1510689719297, "trialdata": {"rt": 2283, "key_press": 74, "type": "INSTRUCTIONS", "trial_type": "text", "trial_index": 116, "time_elapsed": 686846, "internal_node_id": "0.0-89.0"}}, {"uniqueid": "MTK0258:3RRCEFRB7NJMZF6NQFJVSF617ZU4B4", "current_trial": 117, "dateTime": 1510689733311, "trialdata": {"rt": [5356, 8360, 10818], "responses": ["20", "13", "9"], "num1": [4, 5, 2, 7], "num2": [9, 6, 6, 9], "num3": [7, 2, 1, 2], "type": "DISTRACTOR", "conditions": [24, 1600, "a", 12000], "trial": 3, "trial_type": "math-distractor", "trial_index": 117, "time_elapsed": 700860, "internal_node_id": "0.0-90.0"}}, {"uniqueid": "MTK0258:3RRCEFRB7NJMZF6NQFJVSF617ZU4B4", "current_trial": 118, "dateTime": 1510689736317, "trialdata": {"rt": -1, "stimulus": "<p id=\"stim\">10</p>", "key_press": -1, "trial_type": "single-stim", "trial_index": 118, "time_elapsed": 703866, "internal_node_id": "0.0-91.0-0.0"}}, {"uniqueid": "MTK0258:3RRCEFRB7NJMZF6NQFJVSF617ZU4B4", "current_trial": 119, "dateTime": 1510689737319, "trialdata": {"rt": -1, "stimulus": "<p id=\"stim\">9</p>", "key_press": -1, "trial_type": "single-stim", "trial_index": 119, "time_elapsed": 704868, "internal_node_id": "0.0-91.0-1.0"}}, {"uniqueid": "MTK0258:3RRCEFRB7NJMZF6NQFJVSF617ZU4B4", "current_trial": 120, "dateTime": 1510689738325, "trialdata": {"rt": -1, "stimulus": "<p id=\"stim\">8</p>", "key_press": -1, "trial_type": "single-stim", "trial_index": 120, "time_elapsed": 705874, "internal_node_id": "0.0-91.0-2.0"}}, {"uniqueid": "MTK0258:3RRCEFRB7NJMZF6NQFJVSF617ZU4B4", "current_trial": 121, "dateTime": 1510689739333, "trialdata": {"rt": -1, "stimulus": "<p id=\"stim\">7</p>", "key_press": -1, "trial_type": "single-stim", "trial_index": 121, "time_elapsed": 706882, "internal_node_id": "0.0-91.0-3.0"}}, {"uniqueid": "MTK0258:3RRCEFRB7NJMZF6NQFJVSF617ZU4B4", "current_trial": 122, "dateTime": 1510689740340, "trialdata": {"rt": -1, "stimulus": "<p id=\"stim\">6</p>", "key_press": -1, "trial_type": "single-stim", "trial_index": 122, "time_elapsed": 707889, "internal_node_id": "0.0-91.0-4.0"}}, {"uniqueid": "MTK0258:3RRCEFRB7NJMZF6NQFJVSF617ZU4B4", "current_trial": 123, "dateTime": 1510689741377, "trialdata": {"rt": -1, "stimulus": "<p id=\"stim\">5</p>", "key_press": -1, "trial_type": "single-stim", "trial_index": 123, "time_elapsed": 708926, "internal_node_id": "0.0-91.0-5.0"}}, {"uniqueid": "MTK0258:3RRCEFRB7NJMZF6NQFJVSF617ZU4B4", "current_trial": 124, "dateTime": 1510689742381, "trialdata": {"rt": -1, "stimulus": "<p id=\"stim\">4</p>", "key_press": -1, "trial_type": "single-stim", "trial_index": 124, "time_elapsed": 709930, "internal_node_id": "0.0-91.0-6.0"}}, {"uniqueid": "MTK0258:3RRCEFRB7NJMZF6NQFJVSF617ZU4B4", "current_trial": 125, "dateTime": 1510689743384, "trialdata": {"rt": -1, "stimulus": "<p id=\"stim\">3</p>", "key_press": -1, "trial_type": "single-stim", "trial_index": 125, "time_elapsed": 710933, "internal_node_id": "0.0-91.0-7.0"}}, {"uniqueid": "MTK0258:3RRCEFRB7NJMZF6NQFJVSF617ZU4B4", "current_trial": 126, "dateTime": 1510689744391, "trialdata": {"rt": -1, "stimulus": "<p id=\"stim\">2</p>", "key_press": -1, "trial_type": "single-stim", "trial_index": 126, "time_elapsed": 711940, "internal_node_id": "0.0-91.0-8.0"}}, {"uniqueid": "MTK0258:3RRCEFRB7NJMZF6NQFJVSF617ZU4B4", "current_trial": 127, "dateTime": 1510689745399, "trialdata": {"rt": -1, "stimulus": "<p id=\"stim\">1</p>", "key_press": -1, "trial_type": "single-stim", "trial_index": 127, "time_elapsed": 712945, "internal_node_id": "0.0-91.0-9.0"}}, {"uniqueid": "MTK0258:3RRCEFRB7NJMZF6NQFJVSF617ZU4B4", "current_trial": 128, "dateTime": 1510689746903, "trialdata": {"rt": -1, "stimulus": "<p id=\"stim\">+</p>", "key_press": -1, "type": "FIXATION", "trial_type": "single-stim", "trial_index": 128, "time_elapsed": 714452, "internal_node_id": "0.0-92.0-0.0"}}, {"uniqueid": "MTK0258:3RRCEFRB7NJMZF6NQFJVSF617ZU4B4", "current_trial": 129, "dateTime": 1510689749486, "trialdata": {"rt": -1000, "stimulus": "/static/audio/wordpool/ROD.wav", "key_press": -1, "type": "PRES_AUD", "word": "rod", "wordID": 1202, "conditions": [24, 1600, "a", 12000], "trial": 3, "serialpos": 0, "trial_type": "single-audio", "trial_index": 129, "time_elapsed": 717035, "internal_node_id": "0.0-93.0"}}, {"uniqueid": "MTK0258:3RRCEFRB7NJMZF6NQFJVSF617ZU4B4", "current_trial": 130, "dateTime": 1510689752235, "trialdata": {"rt": -1000, "stimulus": "/static/audio/wordpool/CITRUS.wav", "key_press": -1, "type": "PRES_AUD", "word": "citrus", "wordID": 312, "conditions": [24, 1600, "a", 12000], "trial": 3, "serialpos": 1, "trial_type": "single-audio", "trial_index": 130, "time_elapsed": 719784, "internal_node_id": "0.0-94.0"}}, {"uniqueid": "MTK0258:3RRCEFRB7NJMZF6NQFJVSF617ZU4B4", "current_trial": 131, "dateTime": 1510689754701, "trialdata": {"rt": -1000, "stimulus": "/static/audio/wordpool/BARREL.wav", "key_press": -1, "type": "PRES_AUD", "word": "barrel", "wordID": 90, "conditions": [24, 1600, "a", 12000], "trial": 3, "serialpos": 2, "trial_type": "single-audio", "trial_index": 131, "time_elapsed": 722234, "internal_node_id": "0.0-95.0"}}, {"uniqueid": "MTK0258:3RRCEFRB7NJMZF6NQFJVSF617ZU4B4", "current_trial": 132, "dateTime": 1510689757249, "trialdata": {"rt": -1000, "stimulus": "/static/audio/wordpool/GALLON.wav", "key_press": -1, "type": "PRES_AUD", "word": "gallon", "wordID": 617, "conditions": [24, 1600, "a", 12000], "trial": 3, "serialpos": 3, "trial_type": "single-audio", "trial_index": 132, "time_elapsed": 724798, "internal_node_id": "0.0-96.0"}}, {"uniqueid": "MTK0258:3RRCEFRB7NJMZF6NQFJVSF617ZU4B4", "current_trial": 133, "dateTime": 1510689759734, "trialdata": {"rt": -1000, "stimulus": "/static/audio/wordpool/UMPIRE.wav", "key_press": -1, "type": "PRES_AUD", "word": "umpire", "wordID": 1534, "conditions": [24, 1600, "a", 12000], "trial": 3, "serialpos": 4, "trial_type": "single-audio", "trial_index": 133, "time_elapsed": 727283, "internal_node_id": "0.0-97.0"}}, {"uniqueid": "MTK0258:3RRCEFRB7NJMZF6NQFJVSF617ZU4B4", "current_trial": 134, "dateTime": 1510689762442, "trialdata": {"rt": -1000, "stimulus": "/static/audio/wordpool/SUMMIT.wav", "key_press": -1, "type": "PRES_AUD", "word": "summit", "wordID": 1404, "conditions": [24, 1600, "a", 12000], "trial": 3, "serialpos": 5, "trial_type": "single-audio", "trial_index": 134, "time_elapsed": 729991, "internal_node_id": "0.0-98.0"}}, {"uniqueid": "MTK0258:3RRCEFRB7NJMZF6NQFJVSF617ZU4B4", "current_trial": 135, "dateTime": 1510689765132, "trialdata": {"rt": -1000, "stimulus": "/static/audio/wordpool/OYSTER.wav", "key_press": -1, "type": "PRES_AUD", "word": "oyster", "wordID": 994, "conditions": [24, 1600, "a", 12000], "trial": 3, "serialpos": 6, "trial_type": "single-audio", "trial_index": 135, "time_elapsed": 732681, "internal_node_id": "0.0-99.0"}}, {"uniqueid": "MTK0258:3RRCEFRB7NJMZF6NQFJVSF617ZU4B4", "current_trial": 136, "dateTime": 1510689767711, "trialdata": {"rt": -1000, "stimulus": "/static/audio/wordpool/CRICKET.wav", "key_press": -1, "type": "PRES_AUD", "word": "cricket", "wordID": 407, "conditions": [24, 1600, "a", 12000], "trial": 3, "serialpos": 7, "trial_type": "single-audio", "trial_index": 136, "time_elapsed": 735260, "internal_node_id": "0.0-100.0"}}, {"uniqueid": "MTK0258:3RRCEFRB7NJMZF6NQFJVSF617ZU4B4", "current_trial": 137, "dateTime": 1510689770341, "trialdata": {"rt": -1000, "stimulus": "/static/audio/wordpool/FILM.wav", "key_press": -1, "type": "PRES_AUD", "word": "film", "wordID": 564, "conditions": [24, 1600, "a", 12000], "trial": 3, "serialpos": 8, "trial_type": "single-audio", "trial_index": 137, "time_elapsed": 737890, "internal_node_id": "0.0-101.0"}}, {"uniqueid": "MTK0258:3RRCEFRB7NJMZF6NQFJVSF617ZU4B4", "current_trial": 138, "dateTime": 1510689772972, "trialdata": {"rt": -1000, "stimulus": "/static/audio/wordpool/FRUIT.wav", "key_press": -1, "type": "PRES_AUD", "word": "fruit", "wordID": 609, "conditions": [24, 1600, "a", 12000], "trial": 3, "serialpos": 9, "trial_type": "single-audio", "trial_index": 138, "time_elapsed": 740521, "internal_node_id": "0.0-102.0"}}, {"uniqueid": "MTK0258:3RRCEFRB7NJMZF6NQFJVSF617ZU4B4", "current_trial": 139, "dateTime": 1510689775443, "trialdata": {"rt": -1000, "stimulus": "/static/audio/wordpool/TERMITE.wav", "key_press": -1, "type": "PRES_AUD", "word": "termite", "wordID": 1450, "conditions": [24, 1600, "a", 12000], "trial": 3, "serialpos": 10, "trial_type": "single-audio", "trial_index": 139, "time_elapsed": 742992, "internal_node_id": "0.0-103.0"}}, {"uniqueid": "MTK0258:3RRCEFRB7NJMZF6NQFJVSF617ZU4B4", "current_trial": 140, "dateTime": 1510689778243, "trialdata": {"rt": -1000, "stimulus": "/static/audio/wordpool/SALMON.wav", "key_press": -1, "type": "PRES_AUD", "word": "salmon", "wordID": 1226, "conditions": [24, 1600, "a", 12000], "trial": 3, "serialpos": 11, "trial_type": "single-audio", "trial_index": 140, "time_elapsed": 745792, "internal_node_id": "0.0-104.0"}}, {"uniqueid": "MTK0258:3RRCEFRB7NJMZF6NQFJVSF617ZU4B4", "current_trial": 141, "dateTime": 1510689780870, "trialdata": {"rt": -1000, "stimulus": "/static/audio/wordpool/DRINK.wav", "key_press": -1, "type": "PRES_AUD", "word": "drink", "wordID": 497, "conditions": [24, 1600, "a", 12000], "trial": 3, "serialpos": 12, "trial_type": "single-audio", "trial_index": 141, "time_elapsed": 748419, "internal_node_id": "0.0-105.0"}}, {"uniqueid": "MTK0258:3RRCEFRB7NJMZF6NQFJVSF617ZU4B4", "current_trial": 142, "dateTime": 1510689783417, "trialdata": {"rt": -1000, "stimulus": "/static/audio/wordpool/BOX.wav", "key_press": -1, "type": "PRES_AUD", "word": "box", "wordID": 158, "conditions": [24, 1600, "a", 12000], "trial": 3, "serialpos": 13, "trial_type": "single-audio", "trial_index": 142, "time_elapsed": 750966, "internal_node_id": "0.0-106.0"}}, {"uniqueid": "MTK0258:3RRCEFRB7NJMZF6NQFJVSF617ZU4B4", "current_trial": 143, "dateTime": 1510689786176, "trialdata": {"rt": -1000, "stimulus": "/static/audio/wordpool/SCOTCH.wav", "key_press": -1, "type": "PRES_AUD", "word": "scotch", "wordID": 1250, "conditions": [24, 1600, "a", 12000], "trial": 3, "serialpos": 14, "trial_type": "single-audio", "trial_index": 143, "time_elapsed": 753725, "internal_node_id": "0.0-107.0"}}, {"uniqueid": "MTK0258:3RRCEFRB7NJMZF6NQFJVSF617ZU4B4", "current_trial": 144, "dateTime": 1510689788920, "trialdata": {"rt": -1000, "stimulus": "/static/audio/wordpool/CRAB.wav", "key_press": -1, "type": "PRES_AUD", "word": "crab", "wordID": 396, "conditions": [24, 1600, "a", 12000], "trial": 3, "serialpos": 15, "trial_type": "single-audio", "trial_index": 144, "time_elapsed": 756469, "internal_node_id": "0.0-108.0"}}, {"uniqueid": "MTK0258:3RRCEFRB7NJMZF6NQFJVSF617ZU4B4", "current_trial": 145, "dateTime": 1510689791548, "trialdata": {"rt": -1000, "stimulus": "/static/audio/wordpool/SCALLOP.wav", "key_press": -1, "type": "PRES_AUD", "word": "scallop", "wordID": 1241, "conditions": [24, 1600, "a", 12000], "trial": 3, "serialpos": 16, "trial_type": "single-audio", "trial_index": 145, "time_elapsed": 759097, "internal_node_id": "0.0-109.0"}}, {"uniqueid": "MTK0258:3RRCEFRB7NJMZF6NQFJVSF617ZU4B4", "current_trial": 146, "dateTime": 1510689794363, "trialdata": {"rt": -1000, "stimulus": "/static/audio/wordpool/PIMPLE.wav", "key_press": -1, "type": "PRES_AUD", "word": "pimple", "wordID": 1070, "conditions": [24, 1600, "a", 12000], "trial": 3, "serialpos": 17, "trial_type": "single-audio", "trial_index": 146, "time_elapsed": 761912, "internal_node_id": "0.0-110.0"}}, {"uniqueid": "MTK0258:3RRCEFRB7NJMZF6NQFJVSF617ZU4B4", "current_trial": 147, "dateTime": 1510689796881, "trialdata": {"rt": -1000, "stimulus": "/static/audio/wordpool/WIDOW.wav", "key_press": -1, "type": "PRES_AUD", "word": "widow", "wordID": 1607, "conditions": [24, 1600, "a", 12000], "trial": 3, "serialpos": 18, "trial_type": "single-audio", "trial_index": 147, "time_elapsed": 764430, "internal_node_id": "0.0-111.0"}}, {"uniqueid": "MTK0258:3RRCEFRB7NJMZF6NQFJVSF617ZU4B4", "current_trial": 148, "dateTime": 1510689799597, "trialdata": {"rt": -1000, "stimulus": "/static/audio/wordpool/SODA.wav", "key_press": -1, "type": "PRES_AUD", "word": "soda", "wordID": 1340, "conditions": [24, 1600, "a", 12000], "trial": 3, "serialpos": 19, "trial_type": "single-audio", "trial_index": 148, "time_elapsed": 767146, "internal_node_id": "0.0-112.0"}}, {"uniqueid": "MTK0258:3RRCEFRB7NJMZF6NQFJVSF617ZU4B4", "current_trial": 149, "dateTime": 1510689802269, "trialdata": {"rt": -1000, "stimulus": "/static/audio/wordpool/MISTER.wav", "key_press": -1, "type": "PRES_AUD", "word": "mister", "wordID": 900, "conditions": [24, 1600, "a", 12000], "trial": 3, "serialpos": 20, "trial_type": "single-audio", "trial_index": 149, "time_elapsed": 769818, "internal_node_id": "0.0-113.0"}}, {"uniqueid": "MTK0258:3RRCEFRB7NJMZF6NQFJVSF617ZU4B4", "current_trial": 150, "dateTime": 1510689804813, "trialdata": {"rt": -1000, "stimulus": "/static/audio/wordpool/YACHT.wav", "key_press": -1, "type": "PRES_AUD", "word": "yacht", "wordID": 1628, "conditions": [24, 1600, "a", 12000], "trial": 3, "serialpos": 21, "trial_type": "single-audio", "trial_index": 150, "time_elapsed": 772362, "internal_node_id": "0.0-114.0"}}, {"uniqueid": "MTK0258:3RRCEFRB7NJMZF6NQFJVSF617ZU4B4", "current_trial": 151, "dateTime": 1510689807379, "trialdata": {"rt": -1000, "stimulus": "/static/audio/wordpool/BANQUET.wav", "key_press": -1, "type": "PRES_AUD", "word": "banquet", "wordID": 85, "conditions": [24, 1600, "a", 12000], "trial": 3, "serialpos": 22, "trial_type": "single-audio", "trial_index": 151, "time_elapsed": 774928, "internal_node_id": "0.0-115.0"}}, {"uniqueid": "MTK0258:3RRCEFRB7NJMZF6NQFJVSF617ZU4B4", "current_trial": 152, "dateTime": 1510689809884, "trialdata": {"rt": -1000, "stimulus": "/static/audio/wordpool/PLATE.wav", "key_press": -1, "type": "PRES_AUD", "word": "plate", "wordID": 1085, "conditions": [24, 1600, "a", 12000], "trial": 3, "serialpos": 23, "trial_type": "single-audio", "trial_index": 152, "time_elapsed": 777433, "internal_node_id": "0.0-116.0"}}, {"uniqueid": "MTK0258:3RRCEFRB7NJMZF6NQFJVSF617ZU4B4", "current_trial": 153, "dateTime": 1510689811290, "trialdata": {"rt": -1, "stimulus": "", "key_press": -1, "type": "PRE_RECALL_DELAY", "trial_type": "single-stim", "trial_index": 153, "time_elapsed": 778839, "internal_node_id": "0.0-117.0-0.0"}}, {"uniqueid": "MTK0258:3RRCEFRB7NJMZF6NQFJVSF617ZU4B4", "current_trial": 154, "dateTime": 1510689811797, "trialdata": {"rt": -1000, "stimulus": "/static/audio/400Hz.wav", "key_press": -1, "type": "PRE_RECALL_ALERT", "trial_type": "single-audio", "trial_index": 154, "time_elapsed": 779346, "internal_node_id": "0.0-118.0"}}, {"uniqueid": "MTK0258:3RRCEFRB7NJMZF6NQFJVSF617ZU4B4", "current_trial": 155, "dateTime": 1510689871827, "trialdata": {"rt": [2371, 12324, 14215, 15463, 17916, 20468, 21956, 36996, 39228, 40721, 44453, 45087, 49463, 51354, 58161], "recwords": ["mister", "yaught", "banquet", "plate", "widow", "cricket", "oyster", "citrus", "soda", "drink", "barrel", "rod", "umpire", "summit", "gallon"], "type": "FREE_RECALL", "conditions": [24, 1600, "a", 12000], "trial": 3, "trial_type": "free-recall", "trial_index": 155, "time_elapsed": 839360, "internal_node_id": "0.0-119.0-0.0"}}, {"uniqueid": "MTK0258:3RRCEFRB7NJMZF6NQFJVSF617ZU4B4", "current_trial": 156, "dateTime": 1510689875324, "trialdata": {"rt": 1493, "key_press": 74, "type": "INSTRUCTIONS", "trial_type": "text", "trial_index": 156, "time_elapsed": 842873, "internal_node_id": "0.0-120.0"}}, {"uniqueid": "MTK0258:3RRCEFRB7NJMZF6NQFJVSF617ZU4B4", "current_trial": 157, "dateTime": 1510689901347, "trialdata": {"rt": [1877, 3860, 6658, 9632, 12966, 15298, 17005, 18704, 21131, 22939], "responses": ["11", "21", "12", "20", "20", "17", "8", "16", "12", "17"], "num1": [2, 7, 8, 7, 6, 7, 3, 3, 3, 7, 5], "num2": [8, 8, 3, 9, 9, 5, 3, 7, 7, 5, 1], "num3": [1, 6, 1, 4, 5, 5, 2, 6, 2, 5, 7], "type": "DISTRACTOR", "conditions": [12, 800, "v", 24000], "trial": 4, "trial_type": "math-distractor", "trial_index": 157, "time_elapsed": 868892, "internal_node_id": "0.0-121.0"}}, {"uniqueid": "MTK0258:3RRCEFRB7NJMZF6NQFJVSF617ZU4B4", "current_trial": 158, "dateTime": 1510689904350, "trialdata": {"rt": -1, "stimulus": "<p id=\"stim\">10</p>", "key_press": -1, "trial_type": "single-stim", "trial_index": 158, "time_elapsed": 871899, "internal_node_id": "0.0-122.0-0.0"}}, {"uniqueid": "MTK0258:3RRCEFRB7NJMZF6NQFJVSF617ZU4B4", "current_trial": 159, "dateTime": 1510689905355, "trialdata": {"rt": -1, "stimulus": "<p id=\"stim\">9</p>", "key_press": -1, "trial_type": "single-stim", "trial_index": 159, "time_elapsed": 872904, "internal_node_id": "0.0-122.0-1.0"}}, {"uniqueid": "MTK0258:3RRCEFRB7NJMZF6NQFJVSF617ZU4B4", "current_trial": 160, "dateTime": 1510689906359, "trialdata": {"rt": -1, "stimulus": "<p id=\"stim\">8</p>", "key_press": -1, "trial_type": "single-stim", "trial_index": 160, "time_elapsed": 873908, "internal_node_id": "0.0-122.0-2.0"}}, {"uniqueid": "MTK0258:3RRCEFRB7NJMZF6NQFJVSF617ZU4B4", "current_trial": 161, "dateTime": 1510689907366, "trialdata": {"rt": -1, "stimulus": "<p id=\"stim\">7</p>", "key_press": -1, "trial_type": "single-stim", "trial_index": 161, "time_elapsed": 874915, "internal_node_id": "0.0-122.0-3.0"}}, {"uniqueid": "MTK0258:3RRCEFRB7NJMZF6NQFJVSF617ZU4B4", "current_trial": 162, "dateTime": 1510689908372, "trialdata": {"rt": -1, "stimulus": "<p id=\"stim\">6</p>", "key_press": -1, "trial_type": "single-stim", "trial_index": 162, "time_elapsed": 875921, "internal_node_id": "0.0-122.0-4.0"}}, {"uniqueid": "MTK0258:3RRCEFRB7NJMZF6NQFJVSF617ZU4B4", "current_trial": 163, "dateTime": 1510689909377, "trialdata": {"rt": -1, "stimulus": "<p id=\"stim\">5</p>", "key_press": -1, "trial_type": "single-stim", "trial_index": 163, "time_elapsed": 876926, "internal_node_id": "0.0-122.0-5.0"}}, {"uniqueid": "MTK0258:3RRCEFRB7NJMZF6NQFJVSF617ZU4B4", "current_trial": 164, "dateTime": 1510689910381, "trialdata": {"rt": -1, "stimulus": "<p id=\"stim\">4</p>", "key_press": -1, "trial_type": "single-stim", "trial_index": 164, "time_elapsed": 877930, "internal_node_id": "0.0-122.0-6.0"}}, {"uniqueid": "MTK0258:3RRCEFRB7NJMZF6NQFJVSF617ZU4B4", "current_trial": 165, "dateTime": 1510689911389, "trialdata": {"rt": -1, "stimulus": "<p id=\"stim\">3</p>", "key_press": -1, "trial_type": "single-stim", "trial_index": 165, "time_elapsed": 878938, "internal_node_id": "0.0-122.0-7.0"}}, {"uniqueid": "MTK0258:3RRCEFRB7NJMZF6NQFJVSF617ZU4B4", "current_trial": 166, "dateTime": 1510689912394, "trialdata": {"rt": -1, "stimulus": "<p id=\"stim\">2</p>", "key_press": -1, "trial_type": "single-stim", "trial_index": 166, "time_elapsed": 879943, "internal_node_id": "0.0-122.0-8.0"}}, {"uniqueid": "MTK0258:3RRCEFRB7NJMZF6NQFJVSF617ZU4B4", "current_trial": 167, "dateTime": 1510689913399, "trialdata": {"rt": -1, "stimulus": "<p id=\"stim\">1</p>", "key_press": -1, "trial_type": "single-stim", "trial_index": 167, "time_elapsed": 880948, "internal_node_id": "0.0-122.0-9.0"}}, {"uniqueid": "MTK0258:3RRCEFRB7NJMZF6NQFJVSF617ZU4B4", "current_trial": 168, "dateTime": 1510689914912, "trialdata": {"rt": -1, "stimulus": "<p id=\"stim\">+</p>", "key_press": -1, "type": "FIXATION", "trial_type": "single-stim", "trial_index": 168, "time_elapsed": 882461, "internal_node_id": "0.0-123.0-0.0"}}, {"uniqueid": "MTK0258:3RRCEFRB7NJMZF6NQFJVSF617ZU4B4", "current_trial": 169, "dateTime": 1510689915719, "trialdata": {"rt": -1, "stimulus": "<p id=\"stim\">PLAID</p>", "key_press": -1, "type": "PRES_VIS", "word": "plaid", "wordID": 1079, "conditions": [12, 800, "v", 24000], "trial": 4, "serialpos": 0, "trial_type": "single-stim", "trial_index": 169, "time_elapsed": 883268, "internal_node_id": "0.0-124.0"}}, {"uniqueid": "MTK0258:3RRCEFRB7NJMZF6NQFJVSF617ZU4B4", "current_trial": 170, "dateTime": 1510689917588, "trialdata": {"rt": -1, "stimulus": "<p id=\"stim\">PLIERS</p>", "key_press": -1, "type": "PRES_VIS", "word": "pliers", "wordID": 1088, "conditions": [12, 800, "v", 24000], "trial": 4, "serialpos": 1, "trial_type": "single-stim", "trial_index": 170, "time_elapsed": 885137, "internal_node_id": "0.0-125.0"}}, {"uniqueid": "MTK0258:3RRCEFRB7NJMZF6NQFJVSF617ZU4B4", "current_trial": 171, "dateTime": 1510689919212, "trialdata": {"rt": -1, "stimulus": "<p id=\"stim\">HONEY</p>", "key_press": -1, "type": "PRES_VIS", "word": "honey", "wordID": 712, "conditions": [12, 800, "v", 24000], "trial": 4, "serialpos": 2, "trial_type": "single-stim", "trial_index": 171, "time_elapsed": 886761, "internal_node_id": "0.0-126.0"}}, {"uniqueid": "MTK0258:3RRCEFRB7NJMZF6NQFJVSF617ZU4B4", "current_trial": 172, "dateTime": 1510689921004, "trialdata": {"rt": -1, "stimulus": "<p id=\"stim\">TUBA</p>", "key_press": -1, "type": "PRES_VIS", "word": "tuba", "wordID": 1514, "conditions": [12, 800, "v", 24000], "trial": 4, "serialpos": 3, "trial_type": "single-stim", "trial_index": 172, "time_elapsed": 888553, "internal_node_id": "0.0-127.0"}}, {"uniqueid": "MTK0258:3RRCEFRB7NJMZF6NQFJVSF617ZU4B4", "current_trial": 173, "dateTime": 1510689922778, "trialdata": {"rt": -1, "stimulus": "<p id=\"stim\">TOASTER</p>", "key_press": -1, "type": "PRES_VIS", "word": "toaster", "wordID": 1471, "conditions": [12, 800, "v", 24000], "trial": 4, "serialpos": 4, "trial_type": "single-stim", "trial_index": 173, "time_elapsed": 890327, "internal_node_id": "0.0-128.0"}}, {"uniqueid": "MTK0258:3RRCEFRB7NJMZF6NQFJVSF617ZU4B4", "current_trial": 174, "dateTime": 1510689924566, "trialdata": {"rt": -1, "stimulus": "<p id=\"stim\">MUFFIN</p>", "key_press": -1, "type": "PRES_VIS", "word": "muffin", "wordID": 928, "conditions": [12, 800, "v", 24000], "trial": 4, "serialpos": 5, "trial_type": "single-stim", "trial_index": 174, "time_elapsed": 892115, "internal_node_id": "0.0-129.0"}}, {"uniqueid": "MTK0258:3RRCEFRB7NJMZF6NQFJVSF617ZU4B4", "current_trial": 175, "dateTime": 1510689926273, "trialdata": {"rt": -1, "stimulus": "<p id=\"stim\">BURGLAR</p>", "key_press": -1, "type": "PRES_VIS", "word": "burglar", "wordID": 199, "conditions": [12, 800, "v", 24000], "trial": 4, "serialpos": 6, "trial_type": "single-stim", "trial_index": 175, "time_elapsed": 893822, "internal_node_id": "0.0-130.0"}}, {"uniqueid": "MTK0258:3RRCEFRB7NJMZF6NQFJVSF617ZU4B4", "current_trial": 176, "dateTime": 1510689928156, "trialdata": {"rt": -1, "stimulus": "<p id=\"stim\">THIEF</p>", "key_press": -1, "type": "PRES_VIS", "word": "thief", "wordID": 1455, "conditions": [12, 800, "v", 24000], "trial": 4, "serialpos": 7, "trial_type": "single-stim", "trial_index": 176, "time_elapsed": 895705, "internal_node_id": "0.0-131.0"}}, {"uniqueid": "MTK0258:3RRCEFRB7NJMZF6NQFJVSF617ZU4B4", "current_trial": 177, "dateTime": 1510689930081, "trialdata": {"rt": -1, "stimulus": "<p id=\"stim\">STICKER</p>", "key_press": -1, "type": "PRES_VIS", "word": "sticker", "wordID": 1381, "conditions": [12, 800, "v", 24000], "trial": 4, "serialpos": 8, "trial_type": "single-stim", "trial_index": 177, "time_elapsed": 897630, "internal_node_id": "0.0-132.0"}}, {"uniqueid": "MTK0258:3RRCEFRB7NJMZF6NQFJVSF617ZU4B4", "current_trial": 178, "dateTime": 1510689931938, "trialdata": {"rt": -1, "stimulus": "<p id=\"stim\">FRIEND</p>", "key_press": -1, "type": "PRES_VIS", "word": "friend", "wordID": 605, "conditions": [12, 800, "v", 24000], "trial": 4, "serialpos": 9, "trial_type": "single-stim", "trial_index": 178, "time_elapsed": 899487, "internal_node_id": "0.0-133.0"}}, {"uniqueid": "MTK0258:3RRCEFRB7NJMZF6NQFJVSF617ZU4B4", "current_trial": 179, "dateTime": 1510689933740, "trialdata": {"rt": -1, "stimulus": "<p id=\"stim\">SCISSORS</p>", "key_press": -1, "type": "PRES_VIS", "word": "scissors", "wordID": 1249, "conditions": [12, 800, "v", 24000], "trial": 4, "serialpos": 10, "trial_type": "single-stim", "trial_index": 179, "time_elapsed": 901289, "internal_node_id": "0.0-134.0"}}, {"uniqueid": "MTK0258:3RRCEFRB7NJMZF6NQFJVSF617ZU4B4", "current_trial": 180, "dateTime": 1510689935396, "trialdata": {"rt": -1, "stimulus": "<p id=\"stim\">ELBOW</p>", "key_press": -1, "type": "PRES_VIS", "word": "elbow", "wordID": 519, "conditions": [12, 800, "v", 24000], "trial": 4, "serialpos": 11, "trial_type": "single-stim", "trial_index": 180, "time_elapsed": 902945, "internal_node_id": "0.0-135.0"}}, {"uniqueid": "MTK0258:3RRCEFRB7NJMZF6NQFJVSF617ZU4B4", "current_trial": 181, "dateTime": 1510689937697, "trialdata": {"rt": -1, "stimulus": "", "key_press": -1, "type": "PRE_RECALL_DELAY", "trial_type": "single-stim", "trial_index": 181, "time_elapsed": 905246, "internal_node_id": "0.0-136.0-0.0"}}, {"uniqueid": "MTK0258:3RRCEFRB7NJMZF6NQFJVSF617ZU4B4", "current_trial": 182, "dateTime": 1510689938205, "trialdata": {"rt": -1000, "stimulus": "/static/audio/400Hz.wav", "key_press": -1, "type": "PRE_RECALL_ALERT", "trial_type": "single-audio", "trial_index": 182, "time_elapsed": 905754, "internal_node_id": "0.0-137.0"}}, {"uniqueid": "MTK0258:3RRCEFRB7NJMZF6NQFJVSF617ZU4B4", "current_trial": 183, "dateTime": 1510689998232, "trialdata": {"rt": [3472, 4746, 6142, 11168, 12786, 14101, 15240, 24603, 29816], "recwords": ["scissors", "elbow", "plaid", "buglar", "pliars", "toaster", "muffin", "friend", "elbow"], "type": "FREE_RECALL", "conditions": [12, 800, "v", 24000], "trial": 4, "trial_type": "free-recall", "trial_index": 183, "time_elapsed": 965765, "internal_node_id": "0.0-138.0-0.0"}}, {"uniqueid": "MTK0258:3RRCEFRB7NJMZF6NQFJVSF617ZU4B4", "current_trial": 184, "dateTime": 1510690001430, "trialdata": {"rt": 1186, "key_press": 74, "type": "INSTRUCTIONS", "trial_type": "text", "trial_index": 184, "time_elapsed": 968979, "internal_node_id": "0.0-139.0"}}, {"uniqueid": "MTK0258:3RRCEFRB7NJMZF6NQFJVSF617ZU4B4", "current_trial": 185, "dateTime": 1510690015446, "trialdata": {"rt": [4846, 7706, 10656], "responses": ["16", "19", "11"], "num1": [4, 5, 4, 5], "num2": [5, 9, 3, 8], "num3": [7, 5, 4, 8], "type": "DISTRACTOR", "conditions": [24, 800, "v", 12000], "trial": 5, "trial_type": "math-distractor", "trial_index": 185, "time_elapsed": 982991, "internal_node_id": "0.0-140.0"}}, {"uniqueid": "MTK0258:3RRCEFRB7NJMZF6NQFJVSF617ZU4B4", "current_trial": 186, "dateTime": 1510690018456, "trialdata": {"rt": -1, "stimulus": "<p id=\"stim\">10</p>", "key_press": -1, "trial_type": "single-stim", "trial_index": 186, "time_elapsed": 986005, "internal_node_id": "0.0-141.0-0.0"}}, {"uniqueid": "MTK0258:3RRCEFRB7NJMZF6NQFJVSF617ZU4B4", "current_trial": 187, "dateTime": 1510690019462, "trialdata": {"rt": -1, "stimulus": "<p id=\"stim\">9</p>", "key_press": -1, "trial_type": "single-stim", "trial_index": 187, "time_elapsed": 987011, "internal_node_id": "0.0-141.0-1.0"}}, {"uniqueid": "MTK0258:3RRCEFRB7NJMZF6NQFJVSF617ZU4B4", "current_trial": 188, "dateTime": 1510690020468, "trialdata": {"rt": -1, "stimulus": "<p id=\"stim\">8</p>", "key_press": -1, "trial_type": "single-stim", "trial_index": 188, "time_elapsed": 988017, "internal_node_id": "0.0-141.0-2.0"}}, {"uniqueid": "MTK0258:3RRCEFRB7NJMZF6NQFJVSF617ZU4B4", "current_trial": 189, "dateTime": 1510690021474, "trialdata": {"rt": -1, "stimulus": "<p id=\"stim\">7</p>", "key_press": -1, "trial_type": "single-stim", "trial_index": 189, "time_elapsed": 989023, "internal_node_id": "0.0-141.0-3.0"}}, {"uniqueid": "MTK0258:3RRCEFRB7NJMZF6NQFJVSF617ZU4B4", "current_trial": 190, "dateTime": 1510690022487, "trialdata": {"rt": -1, "stimulus": "<p id=\"stim\">6</p>", "key_press": -1, "trial_type": "single-stim", "trial_index": 190, "time_elapsed": 990028, "internal_node_id": "0.0-141.0-4.0"}}, {"uniqueid": "MTK0258:3RRCEFRB7NJMZF6NQFJVSF617ZU4B4", "current_trial": 191, "dateTime": 1510690023491, "trialdata": {"rt": -1, "stimulus": "<p id=\"stim\">5</p>", "key_press": -1, "trial_type": "single-stim", "trial_index": 191, "time_elapsed": 991040, "internal_node_id": "0.0-141.0-5.0"}}, {"uniqueid": "MTK0258:3RRCEFRB7NJMZF6NQFJVSF617ZU4B4", "current_trial": 192, "dateTime": 1510690024498, "trialdata": {"rt": -1, "stimulus": "<p id=\"stim\">4</p>", "key_press": -1, "trial_type": "single-stim", "trial_index": 192, "time_elapsed": 992047, "internal_node_id": "0.0-141.0-6.0"}}, {"uniqueid": "MTK0258:3RRCEFRB7NJMZF6NQFJVSF617ZU4B4", "current_trial": 193, "dateTime": 1510690025504, "trialdata": {"rt": -1, "stimulus": "<p id=\"stim\">3</p>", "key_press": -1, "trial_type": "single-stim", "trial_index": 193, "time_elapsed": 993053, "internal_node_id": "0.0-141.0-7.0"}}, {"uniqueid": "MTK0258:3RRCEFRB7NJMZF6NQFJVSF617ZU4B4", "current_trial": 194, "dateTime": 1510690026509, "trialdata": {"rt": -1, "stimulus": "<p id=\"stim\">2</p>", "key_press": -1, "trial_type": "single-stim", "trial_index": 194, "time_elapsed": 994058, "internal_node_id": "0.0-141.0-8.0"}}, {"uniqueid": "MTK0258:3RRCEFRB7NJMZF6NQFJVSF617ZU4B4", "current_trial": 195, "dateTime": 1510690027514, "trialdata": {"rt": -1, "stimulus": "<p id=\"stim\">1</p>", "key_press": -1, "trial_type": "single-stim", "trial_index": 195, "time_elapsed": 995063, "internal_node_id": "0.0-141.0-9.0"}}, {"uniqueid": "MTK0258:3RRCEFRB7NJMZF6NQFJVSF617ZU4B4", "current_trial": 196, "dateTime": 1510690029020, "trialdata": {"rt": -1, "stimulus": "<p id=\"stim\">+</p>", "key_press": -1, "type": "FIXATION", "trial_type": "single-stim", "trial_index": 196, "time_elapsed": 996569, "internal_node_id": "0.0-142.0-0.0"}}, {"uniqueid": "MTK0258:3RRCEFRB7NJMZF6NQFJVSF617ZU4B4", "current_trial": 197, "dateTime": 1510690029826, "trialdata": {"rt": -1, "stimulus": "<p id=\"stim\">TEACHER</p>", "key_press": -1, "type": "PRES_VIS", "word": "teacher", "wordID": 1439, "conditions": [24, 800, "v", 12000], "trial": 5, "serialpos": 0, "trial_type": "single-stim", "trial_index": 197, "time_elapsed": 997375, "internal_node_id": "0.0-143.0"}}, {"uniqueid": "MTK0258:3RRCEFRB7NJMZF6NQFJVSF617ZU4B4", "current_trial": 198, "dateTime": 1510690031799, "trialdata": {"rt": -1, "stimulus": "<p id=\"stim\">AIRPLANE</p>", "key_press": -1, "type": "PRES_VIS", "word": "airplane", "wordID": 11, "conditions": [24, 800, "v", 12000], "trial": 5, "serialpos": 1, "trial_type": "single-stim", "trial_index": 198, "time_elapsed": 999348, "internal_node_id": "0.0-144.0"}}, {"uniqueid": "MTK0258:3RRCEFRB7NJMZF6NQFJVSF617ZU4B4", "current_trial": 199, "dateTime": 1510690033496, "trialdata": {"rt": -1, "stimulus": "<p id=\"stim\">COUSIN</p>", "key_press": -1, "type": "PRES_VIS", "word": "cousin", "wordID": 391, "conditions": [24, 800, "v", 12000], "trial": 5, "serialpos": 2, "trial_type": "single-stim", "trial_index": 199, "time_elapsed": 1001045, "internal_node_id": "0.0-145.0"}}, {"uniqueid": "MTK0258:3RRCEFRB7NJMZF6NQFJVSF617ZU4B4", "current_trial": 200, "dateTime": 1510690035380, "trialdata": {"rt": -1, "stimulus": "<p id=\"stim\">SISTER</p>", "key_press": -1, "type": "PRES_VIS", "word": "sister", "wordID": 1311, "conditions": [24, 800, "v", 12000], "trial": 5, "serialpos": 3, "trial_type": "single-stim", "trial_index": 200, "time_elapsed": 1002929, "internal_node_id": "0.0-146.0"}}, {"uniqueid": "MTK0258:3RRCEFRB7NJMZF6NQFJVSF617ZU4B4", "current_trial": 201, "dateTime": 1510690037363, "trialdata": {"rt": -1, "stimulus": "<p id=\"stim\">ZEBRA</p>", "key_press": -1, "type": "PRES_VIS", "word": "zebra", "wordID": 1634, "conditions": [24, 800, "v", 12000], "trial": 5, "serialpos": 4, "trial_type": "single-stim", "trial_index": 201, "time_elapsed": 1004912, "internal_node_id": "0.0-147.0"}}, {"uniqueid": "MTK0258:3RRCEFRB7NJMZF6NQFJVSF617ZU4B4", "current_trial": 202, "dateTime": 1510690039086, "trialdata": {"rt": -1, "stimulus": "<p id=\"stim\">BADGE</p>", "key_press": -1, "type": "PRES_VIS", "word": "badge", "wordID": 67, "conditions": [24, 800, "v", 12000], "trial": 5, "serialpos": 5, "trial_type": "single-stim", "trial_index": 202, "time_elapsed": 1006635, "internal_node_id": "0.0-148.0"}}, {"uniqueid": "MTK0258:3RRCEFRB7NJMZF6NQFJVSF617ZU4B4", "current_trial": 203, "dateTime": 1510690040884, "trialdata": {"rt": -1, "stimulus": "<p id=\"stim\">MASK</p>", "key_press": -1, "type": "PRES_VIS", "word": "mask", "wordID": 875, "conditions": [24, 800, "v", 12000], "trial": 5, "serialpos": 6, "trial_type": "single-stim", "trial_index": 203, "time_elapsed": 1008433, "internal_node_id": "0.0-149.0"}}, {"uniqueid": "MTK0258:3RRCEFRB7NJMZF6NQFJVSF617ZU4B4", "current_trial": 204, "dateTime": 1510690042548, "trialdata": {"rt": -1, "stimulus": "<p id=\"stim\">PIGEON</p>", "key_press": -1, "type": "PRES_VIS", "word": "pigeon", "wordID": 1064, "conditions": [24, 800, "v", 12000], "trial": 5, "serialpos": 7, "trial_type": "single-stim", "trial_index": 204, "time_elapsed": 1010097, "internal_node_id": "0.0-150.0"}}, {"uniqueid": "MTK0258:3RRCEFRB7NJMZF6NQFJVSF617ZU4B4", "current_trial": 205, "dateTime": 1510690044394, "trialdata": {"rt": -1, "stimulus": "<p id=\"stim\">CRUTCH</p>", "key_press": -1, "type": "PRES_VIS", "word": "crutch", "wordID": 416, "conditions": [24, 800, "v", 12000], "trial": 5, "serialpos": 8, "trial_type": "single-stim", "trial_index": 205, "time_elapsed": 1011943, "internal_node_id": "0.0-151.0"}}, {"uniqueid": "MTK0258:3RRCEFRB7NJMZF6NQFJVSF617ZU4B4", "current_trial": 206, "dateTime": 1510690046185, "trialdata": {"rt": -1, "stimulus": "<p id=\"stim\">LEOPARD</p>", "key_press": -1, "type": "PRES_VIS", "word": "leopard", "wordID": 811, "conditions": [24, 800, "v", 12000], "trial": 5, "serialpos": 9, "trial_type": "single-stim", "trial_index": 206, "time_elapsed": 1013734, "internal_node_id": "0.0-152.0"}}, {"uniqueid": "MTK0258:3RRCEFRB7NJMZF6NQFJVSF617ZU4B4", "current_trial": 207, "dateTime": 1510690048044, "trialdata": {"rt": -1, "stimulus": "<p id=\"stim\">PERFUME</p>", "key_press": -1, "type": "PRES_VIS", "word": "perfume", "wordID": 1048, "conditions": [24, 800, "v", 12000], "trial": 5, "serialpos": 10, "trial_type": "single-stim", "trial_index": 207, "time_elapsed": 1015593, "internal_node_id": "0.0-153.0"}}, {"uniqueid": "MTK0258:3RRCEFRB7NJMZF6NQFJVSF617ZU4B4", "current_trial": 208, "dateTime": 1510690049810, "trialdata": {"rt": -1, "stimulus": "<p id=\"stim\">GRILL</p>", "key_press": -1, "type": "PRES_VIS", "word": "grill", "wordID": 660, "conditions": [24, 800, "v", 12000], "trial": 5, "serialpos": 11, "trial_type": "single-stim", "trial_index": 208, "time_elapsed": 1017359, "internal_node_id": "0.0-154.0"}}, {"uniqueid": "MTK0258:3RRCEFRB7NJMZF6NQFJVSF617ZU4B4", "current_trial": 209, "dateTime": 1510690051532, "trialdata": {"rt": -1, "stimulus": "<p id=\"stim\">DAUGHTER</p>", "key_press": -1, "type": "PRES_VIS", "word": "daughter", "wordID": 441, "conditions": [24, 800, "v", 12000], "trial": 5, "serialpos": 12, "trial_type": "single-stim", "trial_index": 209, "time_elapsed": 1019081, "internal_node_id": "0.0-155.0"}}, {"uniqueid": "MTK0258:3RRCEFRB7NJMZF6NQFJVSF617ZU4B4", "current_trial": 210, "dateTime": 1510690053520, "trialdata": {"rt": -1, "stimulus": "<p id=\"stim\">HANDBAG</p>", "key_press": -1, "type": "PRES_VIS", "word": "handbag", "wordID": 683, "conditions": [24, 800, "v", 12000], "trial": 5, "serialpos": 13, "trial_type": "single-stim", "trial_index": 210, "time_elapsed": 1021069, "internal_node_id": "0.0-156.0"}}, {"uniqueid": "MTK0258:3RRCEFRB7NJMZF6NQFJVSF617ZU4B4", "current_trial": 211, "dateTime": 1510690055500, "trialdata": {"rt": -1, "stimulus": "<p id=\"stim\">SUITCASE</p>", "key_press": -1, "type": "PRES_VIS", "word": "suitcase", "wordID": 1402, "conditions": [24, 800, "v", 12000], "trial": 5, "serialpos": 14, "trial_type": "single-stim", "trial_index": 211, "time_elapsed": 1023049, "internal_node_id": "0.0-157.0"}}, {"uniqueid": "MTK0258:3RRCEFRB7NJMZF6NQFJVSF617ZU4B4", "current_trial": 212, "dateTime": 1510690057412, "trialdata": {"rt": -1, "stimulus": "<p id=\"stim\">VIKING</p>", "key_press": -1, "type": "PRES_VIS", "word": "viking", "wordID": 1564, "conditions": [24, 800, "v", 12000], "trial": 5, "serialpos": 15, "trial_type": "single-stim", "trial_index": 212, "time_elapsed": 1024961, "internal_node_id": "0.0-158.0"}}, {"uniqueid": "MTK0258:3RRCEFRB7NJMZF6NQFJVSF617ZU4B4", "current_trial": 213, "dateTime": 1510690059237, "trialdata": {"rt": -1, "stimulus": "<p id=\"stim\">SHOULDER</p>", "key_press": -1, "type": "PRES_VIS", "word": "shoulder", "wordID": 1293, "conditions": [24, 800, "v", 12000], "trial": 5, "serialpos": 16, "trial_type": "single-stim", "trial_index": 213, "time_elapsed": 1026786, "internal_node_id": "0.0-159.0"}}, {"uniqueid": "MTK0258:3RRCEFRB7NJMZF6NQFJVSF617ZU4B4", "current_trial": 214, "dateTime": 1510690060941, "trialdata": {"rt": -1, "stimulus": "<p id=\"stim\">STAPLE</p>", "key_press": -1, "type": "PRES_VIS", "word": "staple", "wordID": 1370, "conditions": [24, 800, "v", 12000], "trial": 5, "serialpos": 17, "trial_type": "single-stim", "trial_index": 214, "time_elapsed": 1028490, "internal_node_id": "0.0-160.0"}}, {"uniqueid": "MTK0258:3RRCEFRB7NJMZF6NQFJVSF617ZU4B4", "current_trial": 215, "dateTime": 1510690062936, "trialdata": {"rt": -1, "stimulus": "<p id=\"stim\">PLUTO</p>", "key_press": -1, "type": "PRES_VIS", "word": "pluto", "wordID": 1091, "conditions": [24, 800, "v", 12000], "trial": 5, "serialpos": 18, "trial_type": "single-stim", "trial_index": 215, "time_elapsed": 1030485, "internal_node_id": "0.0-161.0"}}, {"uniqueid": "MTK0258:3RRCEFRB7NJMZF6NQFJVSF617ZU4B4", "current_trial": 216, "dateTime": 1510690064939, "trialdata": {"rt": -1, "stimulus": "<p id=\"stim\">WRIST</p>", "key_press": -1, "type": "PRES_VIS", "word": "wrist", "wordID": 1625, "conditions": [24, 800, "v", 12000], "trial": 5, "serialpos": 19, "trial_type": "single-stim", "trial_index": 216, "time_elapsed": 1032488, "internal_node_id": "0.0-162.0"}}, {"uniqueid": "MTK0258:3RRCEFRB7NJMZF6NQFJVSF617ZU4B4", "current_trial": 217, "dateTime": 1510690066903, "trialdata": {"rt": -1, "stimulus": "<p id=\"stim\">BEAKER</p>", "key_press": -1, "type": "PRES_VIS", "word": "beaker", "wordID": 103, "conditions": [24, 800, "v", 12000], "trial": 5, "serialpos": 20, "trial_type": "single-stim", "trial_index": 217, "time_elapsed": 1034452, "internal_node_id": "0.0-163.0"}}, {"uniqueid": "MTK0258:3RRCEFRB7NJMZF6NQFJVSF617ZU4B4", "current_trial": 218, "dateTime": 1510690068843, "trialdata": {"rt": -1, "stimulus": "<p id=\"stim\">FLASK</p>", "key_press": -1, "type": "PRES_VIS", "word": "flask", "wordID": 575, "conditions": [24, 800, "v", 12000], "trial": 5, "serialpos": 21, "trial_type": "single-stim", "trial_index": 218, "time_elapsed": 1036392, "internal_node_id": "0.0-164.0"}}, {"uniqueid": "MTK0258:3RRCEFRB7NJMZF6NQFJVSF617ZU4B4", "current_trial": 219, "dateTime": 1510690070476, "trialdata": {"rt": -1, "stimulus": "<p id=\"stim\">NEUTRON</p>", "key_press": -1, "type": "PRES_VIS", "word": "neutron", "wordID": 946, "conditions": [24, 800, "v", 12000], "trial": 5, "serialpos": 22, "trial_type": "single-stim", "trial_index": 219, "time_elapsed": 1038025, "internal_node_id": "0.0-165.0"}}, {"uniqueid": "MTK0258:3RRCEFRB7NJMZF6NQFJVSF617ZU4B4", "current_trial": 220, "dateTime": 1510690072200, "trialdata": {"rt": -1, "stimulus": "<p id=\"stim\">ATOM</p>", "key_press": -1, "type": "PRES_VIS", "word": "atom", "wordID": 54, "conditions": [24, 800, "v", 12000], "trial": 5, "serialpos": 23, "trial_type": "single-stim", "trial_index": 220, "time_elapsed": 1039749, "internal_node_id": "0.0-166.0"}}, {"uniqueid": "MTK0258:3RRCEFRB7NJMZF6NQFJVSF617ZU4B4", "current_trial": 221, "dateTime": 1510690074636, "trialdata": {"rt": -1, "stimulus": "", "key_press": -1, "type": "PRE_RECALL_DELAY", "trial_type": "single-stim", "trial_index": 221, "time_elapsed": 1042185, "internal_node_id": "0.0-167.0-0.0"}}, {"uniqueid": "MTK0258:3RRCEFRB7NJMZF6NQFJVSF617ZU4B4", "current_trial": 222, "dateTime": 1510690075132, "trialdata": {"rt": -1000, "stimulus": "/static/audio/400Hz.wav", "key_press": -1, "type": "PRE_RECALL_ALERT", "trial_type": "single-audio", "trial_index": 222, "time_elapsed": 1042681, "internal_node_id": "0.0-168.0"}}, {"uniqueid": "MTK0258:3RRCEFRB7NJMZF6NQFJVSF617ZU4B4", "current_trial": 223, "dateTime": 1510690135174, "trialdata": {"rt": [3466, 4366, 5706, 6991, 8490, 10595, 12341, 15831, 18263, 24849], "recwords": ["neutron", "atom", "beaker", "flask", "pigeon", "leopard", "sister", "airplane", "teacher", "zebra"], "type": "FREE_RECALL", "conditions": [24, 800, "v", 12000], "trial": 5, "trial_type": "free-recall", "trial_index": 223, "time_elapsed": 1102704, "internal_node_id": "0.0-169.0-0.0"}}, {"uniqueid": "MTK0258:3RRCEFRB7NJMZF6NQFJVSF617ZU4B4", "current_trial": 224, "dateTime": 1510690138467, "trialdata": {"rt": 1286, "key_press": 74, "type": "INSTRUCTIONS", "trial_type": "text", "trial_index": 224, "time_elapsed": 1106016, "internal_node_id": "0.0-170.0"}}, {"uniqueid": "MTK0258:3RRCEFRB7NJMZF6NQFJVSF617ZU4B4", "current_trial": 225, "dateTime": 1510690164482, "trialdata": {"rt": [2531, 6008, 9532, 11817, 15900, 18389, 20112, 22059], "responses": ["14", "10", "17", "16", "17", "15", "7", "10"], "num1": [8, 2, 7, 6, 2, 4, 1, 2, 3], "num2": [1, 2, 7, 7, 7, 3, 5, 4, 9], "num3": [5, 6, 3, 3, 8, 8, 1, 4, 5], "type": "DISTRACTOR", "conditions": [24, 800, "v", 24000], "trial": 6, "trial_type": "math-distractor", "trial_index": 225, "time_elapsed": 1132027, "internal_node_id": "0.0-171.0"}}, {"uniqueid": "MTK0258:3RRCEFRB7NJMZF6NQFJVSF617ZU4B4", "current_trial": 226, "dateTime": 1510690167490, "trialdata": {"rt": -1, "stimulus": "<p id=\"stim\">10</p>", "key_press": -1, "trial_type": "single-stim", "trial_index": 226, "time_elapsed": 1135039, "internal_node_id": "0.0-172.0-0.0"}}, {"uniqueid": "MTK0258:3RRCEFRB7NJMZF6NQFJVSF617ZU4B4", "current_trial": 227, "dateTime": 1510690168495, "trialdata": {"rt": -1, "stimulus": "<p id=\"stim\">9</p>", "key_press": -1, "trial_type": "single-stim", "trial_index": 227, "time_elapsed": 1136044, "internal_node_id": "0.0-172.0-1.0"}}, {"uniqueid": "MTK0258:3RRCEFRB7NJMZF6NQFJVSF617ZU4B4", "current_trial": 228, "dateTime": 1510690169499, "trialdata": {"rt": -1, "stimulus": "<p id=\"stim\">8</p>", "key_press": -1, "trial_type": "single-stim", "trial_index": 228, "time_elapsed": 1137048, "internal_node_id": "0.0-172.0-2.0"}}, {"uniqueid": "MTK0258:3RRCEFRB7NJMZF6NQFJVSF617ZU4B4", "current_trial": 229, "dateTime": 1510690170508, "trialdata": {"rt": -1, "stimulus": "<p id=\"stim\">7</p>", "key_press": -1, "trial_type": "single-stim", "trial_index": 229, "time_elapsed": 1138053, "internal_node_id": "0.0-172.0-3.0"}}, {"uniqueid": "MTK0258:3RRCEFRB7NJMZF6NQFJVSF617ZU4B4", "current_trial": 230, "dateTime": 1510690171511, "trialdata": {"rt": -1, "stimulus": "<p id=\"stim\">6</p>", "key_press": -1, "trial_type": "single-stim", "trial_index": 230, "time_elapsed": 1139060, "internal_node_id": "0.0-172.0-4.0"}}, {"uniqueid": "MTK0258:3RRCEFRB7NJMZF6NQFJVSF617ZU4B4", "current_trial": 231, "dateTime": 1510690172516, "trialdata": {"rt": -1, "stimulus": "<p id=\"stim\">5</p>", "key_press": -1, "trial_type": "single-stim", "trial_index": 231, "time_elapsed": 1140065, "internal_node_id": "0.0-172.0-5.0"}}, {"uniqueid": "MTK0258:3RRCEFRB7NJMZF6NQFJVSF617ZU4B4", "current_trial": 232, "dateTime": 1510690173524, "trialdata": {"rt": -1, "stimulus": "<p id=\"stim\">4</p>", "key_press": -1, "trial_type": "single-stim", "trial_index": 232, "time_elapsed": 1141073, "internal_node_id": "0.0-172.0-6.0"}}, {"uniqueid": "MTK0258:3RRCEFRB7NJMZF6NQFJVSF617ZU4B4", "current_trial": 233, "dateTime": 1510690174529, "trialdata": {"rt": -1, "stimulus": "<p id=\"stim\">3</p>", "key_press": -1, "trial_type": "single-stim", "trial_index": 233, "time_elapsed": 1142078, "internal_node_id": "0.0-172.0-7.0"}}, {"uniqueid": "MTK0258:3RRCEFRB7NJMZF6NQFJVSF617ZU4B4", "current_trial": 234, "dateTime": 1510690175533, "trialdata": {"rt": -1, "stimulus": "<p id=\"stim\">2</p>", "key_press": -1, "trial_type": "single-stim", "trial_index": 234, "time_elapsed": 1143082, "internal_node_id": "0.0-172.0-8.0"}}, {"uniqueid": "MTK0258:3RRCEFRB7NJMZF6NQFJVSF617ZU4B4", "current_trial": 235, "dateTime": 1510690176539, "trialdata": {"rt": -1, "stimulus": "<p id=\"stim\">1</p>", "key_press": -1, "trial_type": "single-stim", "trial_index": 235, "time_elapsed": 1144088, "internal_node_id": "0.0-172.0-9.0"}}, {"uniqueid": "MTK0258:3RRCEFRB7NJMZF6NQFJVSF617ZU4B4", "current_trial": 236, "dateTime": 1510690178044, "trialdata": {"rt": -1, "stimulus": "<p id=\"stim\">+</p>", "key_press": -1, "type": "FIXATION", "trial_type": "single-stim", "trial_index": 236, "time_elapsed": 1145593, "internal_node_id": "0.0-173.0-0.0"}}, {"uniqueid": "MTK0258:3RRCEFRB7NJMZF6NQFJVSF617ZU4B4", "current_trial": 237, "dateTime": 1510690178849, "trialdata": {"rt": -1, "stimulus": "<p id=\"stim\">SCARECROW</p>", "key_press": -1, "type": "PRES_VIS", "word": "scarecrow", "wordID": 1244, "conditions": [24, 800, "v", 24000], "trial": 6, "serialpos": 0, "trial_type": "single-stim", "trial_index": 237, "time_elapsed": 1146398, "internal_node_id": "0.0-174.0"}}, {"uniqueid": "MTK0258:3RRCEFRB7NJMZF6NQFJVSF617ZU4B4", "current_trial": 238, "dateTime": 1510690180606, "trialdata": {"rt": -1, "stimulus": "<p id=\"stim\">FLASHLIGHT</p>", "key_press": -1, "type": "PRES_VIS", "word": "flashlight", "wordID": 574, "conditions": [24, 800, "v", 24000], "trial": 6, "serialpos": 1, "trial_type": "single-stim", "trial_index": 238, "time_elapsed": 1148155, "internal_node_id": "0.0-175.0"}}, {"uniqueid": "MTK0258:3RRCEFRB7NJMZF6NQFJVSF617ZU4B4", "current_trial": 239, "dateTime": 1510690182343, "trialdata": {"rt": -1, "stimulus": "<p id=\"stim\">COBRA</p>", "key_press": -1, "type": "PRES_VIS", "word": "cobra", "wordID": 335, "conditions": [24, 800, "v", 24000], "trial": 6, "serialpos": 2, "trial_type": "single-stim", "trial_index": 239, "time_elapsed": 1149892, "internal_node_id": "0.0-176.0"}}, {"uniqueid": "MTK0258:3RRCEFRB7NJMZF6NQFJVSF617ZU4B4", "current_trial": 240, "dateTime": 1510690184091, "trialdata": {"rt": -1, "stimulus": "<p id=\"stim\">PLASTER</p>", "key_press": -1, "type": "PRES_VIS", "word": "plaster", "wordID": 1084, "conditions": [24, 800, "v", 24000], "trial": 6, "serialpos": 3, "trial_type": "single-stim", "trial_index": 240, "time_elapsed": 1151640, "internal_node_id": "0.0-177.0"}}, {"uniqueid": "MTK0258:3RRCEFRB7NJMZF6NQFJVSF617ZU4B4", "current_trial": 241, "dateTime": 1510690185933, "trialdata": {"rt": -1, "stimulus": "<p id=\"stim\">SILK</p>", "key_press": -1, "type": "PRES_VIS", "word": "silk", "wordID": 1306, "conditions": [24, 800, "v", 24000], "trial": 6, "serialpos": 4, "trial_type": "single-stim", "trial_index": 241, "time_elapsed": 1153482, "internal_node_id": "0.0-178.0"}}, {"uniqueid": "MTK0258:3RRCEFRB7NJMZF6NQFJVSF617ZU4B4", "current_trial": 242, "dateTime": 1510690187872, "trialdata": {"rt": -1, "stimulus": "<p id=\"stim\">LEG</p>", "key_press": -1, "type": "PRES_VIS", "word": "leg", "wordID": 808, "conditions": [24, 800, "v", 24000], "trial": 6, "serialpos": 5, "trial_type": "single-stim", "trial_index": 242, "time_elapsed": 1155421, "internal_node_id": "0.0-179.0"}}, {"uniqueid": "MTK0258:3RRCEFRB7NJMZF6NQFJVSF617ZU4B4", "current_trial": 243, "dateTime": 1510690189532, "trialdata": {"rt": -1, "stimulus": "<p id=\"stim\">SWIMMER</p>", "key_press": -1, "type": "PRES_VIS", "word": "swimmer", "wordID": 1419, "conditions": [24, 800, "v", 24000], "trial": 6, "serialpos": 6, "trial_type": "single-stim", "trial_index": 243, "time_elapsed": 1157081, "internal_node_id": "0.0-180.0"}}, {"uniqueid": "MTK0258:3RRCEFRB7NJMZF6NQFJVSF617ZU4B4", "current_trial": 244, "dateTime": 1510690191492, "trialdata": {"rt": -1, "stimulus": "<p id=\"stim\">DIVER</p>", "key_press": -1, "type": "PRES_VIS", "word": "diver", "wordID": 475, "conditions": [24, 800, "v", 24000], "trial": 6, "serialpos": 7, "trial_type": "single-stim", "trial_index": 244, "time_elapsed": 1159037, "internal_node_id": "0.0-181.0"}}, {"uniqueid": "MTK0258:3RRCEFRB7NJMZF6NQFJVSF617ZU4B4", "current_trial": 245, "dateTime": 1510690193340, "trialdata": {"rt": -1, "stimulus": "<p id=\"stim\">QUAIL</p>", "key_press": -1, "type": "PRES_VIS", "word": "quail", "wordID": 1146, "conditions": [24, 800, "v", 24000], "trial": 6, "serialpos": 8, "trial_type": "single-stim", "trial_index": 245, "time_elapsed": 1160889, "internal_node_id": "0.0-182.0"}}, {"uniqueid": "MTK0258:3RRCEFRB7NJMZF6NQFJVSF617ZU4B4", "current_trial": 246, "dateTime": 1510690194952, "trialdata": {"rt": -1, "stimulus": "<p id=\"stim\">TWISTER</p>", "key_press": -1, "type": "PRES_VIS", "word": "twister", "wordID": 1529, "conditions": [24, 800, "v", 24000], "trial": 6, "serialpos": 9, "trial_type": "single-stim", "trial_index": 246, "time_elapsed": 1162501, "internal_node_id": "0.0-183.0"}}, {"uniqueid": "MTK0258:3RRCEFRB7NJMZF6NQFJVSF617ZU4B4", "current_trial": 247, "dateTime": 1510690196779, "trialdata": {"rt": -1, "stimulus": "<p id=\"stim\">VENUS</p>", "key_press": -1, "type": "PRES_VIS", "word": "venus", "wordID": 1556, "conditions": [24, 800, "v", 24000], "trial": 6, "serialpos": 10, "trial_type": "single-stim", "trial_index": 247, "time_elapsed": 1164328, "internal_node_id": "0.0-184.0"}}, {"uniqueid": "MTK0258:3RRCEFRB7NJMZF6NQFJVSF617ZU4B4", "current_trial": 248, "dateTime": 1510690198651, "trialdata": {"rt": -1, "stimulus": "<p id=\"stim\">LACE</p>", "key_press": -1, "type": "PRES_VIS", "word": "lace", "wordID": 791, "conditions": [24, 800, "v", 24000], "trial": 6, "serialpos": 11, "trial_type": "single-stim", "trial_index": 248, "time_elapsed": 1166200, "internal_node_id": "0.0-185.0"}}, {"uniqueid": "MTK0258:3RRCEFRB7NJMZF6NQFJVSF617ZU4B4", "current_trial": 249, "dateTime": 1510690200476, "trialdata": {"rt": -1, "stimulus": "<p id=\"stim\">MATTRESS</p>", "key_press": -1, "type": "PRES_VIS", "word": "mattress", "wordID": 878, "conditions": [24, 800, "v", 24000], "trial": 6, "serialpos": 12, "trial_type": "single-stim", "trial_index": 249, "time_elapsed": 1168018, "internal_node_id": "0.0-186.0"}}, {"uniqueid": "MTK0258:3RRCEFRB7NJMZF6NQFJVSF617ZU4B4", "current_trial": 250, "dateTime": 1510690202229, "trialdata": {"rt": -1, "stimulus": "<p id=\"stim\">KNAPSACK</p>", "key_press": -1, "type": "PRES_VIS", "word": "knapsack", "wordID": 782, "conditions": [24, 800, "v", 24000], "trial": 6, "serialpos": 13, "trial_type": "single-stim", "trial_index": 250, "time_elapsed": 1169778, "internal_node_id": "0.0-187.0"}}, {"uniqueid": "MTK0258:3RRCEFRB7NJMZF6NQFJVSF617ZU4B4", "current_trial": 251, "dateTime": 1510690203994, "trialdata": {"rt": -1, "stimulus": "<p id=\"stim\">VALLEY</p>", "key_press": -1, "type": "PRES_VIS", "word": "valley", "wordID": 1544, "conditions": [24, 800, "v", 24000], "trial": 6, "serialpos": 14, "trial_type": "single-stim", "trial_index": 251, "time_elapsed": 1171543, "internal_node_id": "0.0-188.0"}}, {"uniqueid": "MTK0258:3RRCEFRB7NJMZF6NQFJVSF617ZU4B4", "current_trial": 252, "dateTime": 1510690205930, "trialdata": {"rt": -1, "stimulus": "<p id=\"stim\">HUMAN</p>", "key_press": -1, "type": "PRES_VIS", "word": "human", "wordID": 725, "conditions": [24, 800, "v", 24000], "trial": 6, "serialpos": 15, "trial_type": "single-stim", "trial_index": 252, "time_elapsed": 1173479, "internal_node_id": "0.0-189.0"}}, {"uniqueid": "MTK0258:3RRCEFRB7NJMZF6NQFJVSF617ZU4B4", "current_trial": 253, "dateTime": 1510690207882, "trialdata": {"rt": -1, "stimulus": "<p id=\"stim\">DRAWING</p>", "key_press": -1, "type": "PRES_VIS", "word": "drawing", "wordID": 493, "conditions": [24, 800, "v", 24000], "trial": 6, "serialpos": 16, "trial_type": "single-stim", "trial_index": 253, "time_elapsed": 1175431, "internal_node_id": "0.0-190.0"}}, {"uniqueid": "MTK0258:3RRCEFRB7NJMZF6NQFJVSF617ZU4B4", "current_trial": 254, "dateTime": 1510690209596, "trialdata": {"rt": -1, "stimulus": "<p id=\"stim\">HEDGE</p>", "key_press": -1, "type": "PRES_VIS", "word": "hedge", "wordID": 698, "conditions": [24, 800, "v", 24000], "trial": 6, "serialpos": 17, "trial_type": "single-stim", "trial_index": 254, "time_elapsed": 1177145, "internal_node_id": "0.0-191.0"}}, {"uniqueid": "MTK0258:3RRCEFRB7NJMZF6NQFJVSF617ZU4B4", "current_trial": 255, "dateTime": 1510690211209, "trialdata": {"rt": -1, "stimulus": "<p id=\"stim\">FOX</p>", "key_press": -1, "type": "PRES_VIS", "word": "fox", "wordID": 597, "conditions": [24, 800, "v", 24000], "trial": 6, "serialpos": 18, "trial_type": "single-stim", "trial_index": 255, "time_elapsed": 1178758, "internal_node_id": "0.0-192.0"}}, {"uniqueid": "MTK0258:3RRCEFRB7NJMZF6NQFJVSF617ZU4B4", "current_trial": 256, "dateTime": 1510690212968, "trialdata": {"rt": -1, "stimulus": "<p id=\"stim\">BRIEFCASE</p>", "key_press": -1, "type": "PRES_VIS", "word": "briefcase", "wordID": 174, "conditions": [24, 800, "v", 24000], "trial": 6, "serialpos": 19, "trial_type": "single-stim", "trial_index": 256, "time_elapsed": 1180517, "internal_node_id": "0.0-193.0"}}, {"uniqueid": "MTK0258:3RRCEFRB7NJMZF6NQFJVSF617ZU4B4", "current_trial": 257, "dateTime": 1510690214856, "trialdata": {"rt": -1, "stimulus": "<p id=\"stim\">BROTHER</p>", "key_press": -1, "type": "PRES_VIS", "word": "brother", "wordID": 178, "conditions": [24, 800, "v", 24000], "trial": 6, "serialpos": 20, "trial_type": "single-stim", "trial_index": 257, "time_elapsed": 1182405, "internal_node_id": "0.0-194.0"}}, {"uniqueid": "MTK0258:3RRCEFRB7NJMZF6NQFJVSF617ZU4B4", "current_trial": 258, "dateTime": 1510690216476, "trialdata": {"rt": -1, "stimulus": "<p id=\"stim\">WIFE</p>", "key_press": -1, "type": "PRES_VIS", "word": "wife", "wordID": 1608, "conditions": [24, 800, "v", 24000], "trial": 6, "serialpos": 21, "trial_type": "single-stim", "trial_index": 258, "time_elapsed": 1184025, "internal_node_id": "0.0-195.0"}}, {"uniqueid": "MTK0258:3RRCEFRB7NJMZF6NQFJVSF617ZU4B4", "current_trial": 259, "dateTime": 1510690218142, "trialdata": {"rt": -1, "stimulus": "<p id=\"stim\">CRAYON</p>", "key_press": -1, "type": "PRES_VIS", "word": "crayon", "wordID": 400, "conditions": [24, 800, "v", 24000], "trial": 6, "serialpos": 22, "trial_type": "single-stim", "trial_index": 259, "time_elapsed": 1185691, "internal_node_id": "0.0-196.0"}}, {"uniqueid": "MTK0258:3RRCEFRB7NJMZF6NQFJVSF617ZU4B4", "current_trial": 260, "dateTime": 1510690219886, "trialdata": {"rt": -1, "stimulus": "<p id=\"stim\">MAMMAL</p>", "key_press": -1, "type": "PRES_VIS", "word": "mammal", "wordID": 860, "conditions": [24, 800, "v", 24000], "trial": 6, "serialpos": 23, "trial_type": "single-stim", "trial_index": 260, "time_elapsed": 1187435, "internal_node_id": "0.0-197.0"}}, {"uniqueid": "MTK0258:3RRCEFRB7NJMZF6NQFJVSF617ZU4B4", "current_trial": 261, "dateTime": 1510690222277, "trialdata": {"rt": -1, "stimulus": "", "key_press": -1, "type": "PRE_RECALL_DELAY", "trial_type": "single-stim", "trial_index": 261, "time_elapsed": 1189826, "internal_node_id": "0.0-198.0-0.0"}}, {"uniqueid": "MTK0258:3RRCEFRB7NJMZF6NQFJVSF617ZU4B4", "current_trial": 262, "dateTime": 1510690222780, "trialdata": {"rt": -1000, "stimulus": "/static/audio/400Hz.wav", "key_press": -1, "type": "PRE_RECALL_ALERT", "trial_type": "single-audio", "trial_index": 262, "time_elapsed": 1190329, "internal_node_id": "0.0-199.0"}}, {"uniqueid": "MTK0258:3RRCEFRB7NJMZF6NQFJVSF617ZU4B4", "current_trial": 263, "dateTime": 1510690282837, "trialdata": {"rt": [1666, 2798, 4077, 5766, 9126, 11853, 13324, 15141, 17810, 19764, 29337, 33987, 44470, 45626], "recwords": ["brother", "wife", "crayon", "mamal", "scarecrow", "quail", "silk", "lace", "twister", "mattress", "leg", "valley", "fox", "hedge"], "type": "FREE_RECALL", "conditions": [24, 800, "v", 24000], "trial": 6, "trial_type": "free-recall", "trial_index": 263, "time_elapsed": 1250358, "internal_node_id": "0.0-200.0-0.0"}}, {"uniqueid": "MTK0258:3RRCEFRB7NJMZF6NQFJVSF617ZU4B4", "current_trial": 264, "dateTime": 1510690285857, "trialdata": {"rt": 1002, "key_press": 74, "type": "INSTRUCTIONS", "trial_type": "text", "trial_index": 264, "time_elapsed": 1253394, "internal_node_id": "0.0-201.0"}}, {"uniqueid": "MTK0258:3RRCEFRB7NJMZF6NQFJVSF617ZU4B4", "current_trial": 265, "dateTime": 1510690299876, "trialdata": {"rt": [2137, 4938, 7107, 9763, 11393], "responses": ["20", "10", "10", "19", "20"], "num1": [7, 3, 4, 9, 9, 4], "num2": [7, 5, 5, 9, 9, 9], "num3": [6, 2, 1, 1, 2, 3], "type": "DISTRACTOR", "conditions": [24, 1600, "v", 12000], "trial": 7, "trial_type": "math-distractor", "trial_index": 265, "time_elapsed": 1267425, "internal_node_id": "0.0-202.0"}}, {"uniqueid": "MTK0258:3RRCEFRB7NJMZF6NQFJVSF617ZU4B4", "current_trial": 266, "dateTime": 1510690302887, "trialdata": {"rt": -1, "stimulus": "<p id=\"stim\">10</p>", "key_press": -1, "trial_type": "single-stim", "trial_index": 266, "time_elapsed": 1270436, "internal_node_id": "0.0-203.0-0.0"}}, {"uniqueid": "MTK0258:3RRCEFRB7NJMZF6NQFJVSF617ZU4B4", "current_trial": 267, "dateTime": 1510690303896, "trialdata": {"rt": -1, "stimulus": "<p id=\"stim\">9</p>", "key_press": -1, "trial_type": "single-stim", "trial_index": 267, "time_elapsed": 1271441, "internal_node_id": "0.0-203.0-1.0"}}, {"uniqueid": "MTK0258:3RRCEFRB7NJMZF6NQFJVSF617ZU4B4", "current_trial": 268, "dateTime": 1510690304903, "trialdata": {"rt": -1, "stimulus": "<p id=\"stim\">8</p>", "key_press": -1, "trial_type": "single-stim", "trial_index": 268, "time_elapsed": 1272452, "internal_node_id": "0.0-203.0-2.0"}}, {"uniqueid": "MTK0258:3RRCEFRB7NJMZF6NQFJVSF617Z