{"condition": 0, "counterbalance": 850, "assignmentId": "3SBEHTYCWOACKUYDLWZJURELWHAYI6", "workerId": "MTK0218", "hitId": "304QEQWKZPRNW1F1LHWDXCK3JN5O0X", "currenttrial": 625, "bonus": 0, "data": [{"uniqueid": "MTK0218:3SBEHTYCWOACKUYDLWZJURELWHAYI6", "current_trial": 0, "dateTime": 1509552092407, "trialdata": {"rt": 18828, "key_press": 32, "type": "INSTRUCTIONS", "trial_type": "text", "trial_index": 0, "time_elapsed": 18830, "internal_node_id": "0.0-0.0"}}, {"uniqueid": "MTK0218:3SBEHTYCWOACKUYDLWZJURELWHAYI6", "current_trial": 1, "dateTime": 1509552197747, "trialdata": {"rt": 105338, "key_press": 32, "type": "INSTRUCTIONS", "trial_type": "text", "trial_index": 1, "time_elapsed": 124171, "internal_node_id": "0.0-1.0"}}, {"uniqueid": "MTK0218:3SBEHTYCWOACKUYDLWZJURELWHAYI6", "current_trial": 2, "dateTime": 1509552206924, "trialdata": {"rt": [9166], "responses": ["ocean"], "type": "AUDIO_TEST", "trial_type": "audio-test", "trial_index": 2, "time_elapsed": 133347, "internal_node_id": "0.0-2.0"}}, {"uniqueid": "MTK0218:3SBEHTYCWOACKUYDLWZJURELWHAYI6", "current_trial": 3, "dateTime": 1509552213236, "trialdata": {"rt": [6306], "responses": ["crystal"], "type": "AUDIO_TEST", "trial_type": "audio-test", "trial_index": 3, "time_elapsed": 139660, "internal_node_id": "0.0-3.0"}}, {"uniqueid": "MTK0218:3SBEHTYCWOACKUYDLWZJURELWHAYI6", "current_trial": 4, "dateTime": 1509552218363, "trialdata": {"rt": [5122], "responses": ["spice"], "type": "AUDIO_TEST", "trial_type": "audio-test", "trial_index": 4, "time_elapsed": 144787, "internal_node_id": "0.0-4.0"}}, {"uniqueid": "MTK0218:3SBEHTYCWOACKUYDLWZJURELWHAYI6", "current_trial": 5, "dateTime": 1509552223394, "trialdata": {"rt": 4275, "key_press": 32, "type": "INSTRUCTIONS", "trial_type": "text", "trial_index": 5, "time_elapsed": 149818, "internal_node_id": "0.0-5.0"}}, {"uniqueid": "MTK0218:3SBEHTYCWOACKUYDLWZJURELWHAYI6", "current_trial": 6, "dateTime": 1509552311441, "trialdata": {"rt": 88047, "key_press": 32, "type": "INSTRUCTIONS", "trial_type": "text", "trial_index": 6, "time_elapsed": 237865, "internal_node_id": "0.0-6.0"}}, {"uniqueid": "MTK0218:3SBEHTYCWOACKUYDLWZJURELWHAYI6", "current_trial": 7, "dateTime": 1509552334968, "trialdata": {"rt": 23525, "key_press": 32, "type": "INSTRUCTIONS", "trial_type": "text", "trial_index": 7, "time_elapsed": 261392, "internal_node_id": "0.0-7.0"}}, {"uniqueid": "MTK0218:3SBEHTYCWOACKUYDLWZJURELWHAYI6", "current_trial": 8, "dateTime": 1509552361908, "trialdata": {"rt": 26939, "key_press": 32, "type": "INSTRUCTIONS", "trial_type": "text", "trial_index": 8, "time_elapsed": 288331, "internal_node_id": "0.0-8.0"}}, {"uniqueid": "MTK0218:3SBEHTYCWOACKUYDLWZJURELWHAYI6", "current_trial": 9, "dateTime": 1509552380914, "trialdata": {"rt": [3697, 7185, 9625, 15073, 17361], "responses": ["13", "13", "13", "22", "7"], "num1": [2, 2, 6, 7, 2, 2], "num2": [4, 2, 1, 9, 1, 5], "num3": [7, 9, 6, 6, 4, 3], "type": "DISTRACTOR", "conditions": [18, 1200, "v", 18000], "trial": 0, "trial_type": "math-distractor", "trial_index": 9, "time_elapsed": 307338, "internal_node_id": "0.0-9.0"}}, {"uniqueid": "MTK0218:3SBEHTYCWOACKUYDLWZJURELWHAYI6", "current_trial": 10, "dateTime": 1509552383924, "trialdata": {"rt": -1, "stimulus": "<p id=\"stim\">10</p>", "key_press": -1, "trial_type": "single-stim", "trial_index": 10, "time_elapsed": 310347, "internal_node_id": "0.0-10.0-0.0"}}, {"uniqueid": "MTK0218:3SBEHTYCWOACKUYDLWZJURELWHAYI6", "current_trial": 11, "dateTime": 1509552384928, "trialdata": {"rt": -1, "stimulus": "<p id=\"stim\">9</p>", "key_press": -1, "trial_type": "single-stim", "trial_index": 11, "time_elapsed": 311352, "internal_node_id": "0.0-10.0-1.0"}}, {"uniqueid": "MTK0218:3SBEHTYCWOACKUYDLWZJURELWHAYI6", "current_trial": 12, "dateTime": 1509552385932, "trialdata": {"rt": -1, "stimulus": "<p id=\"stim\">8</p>", "key_press": -1, "trial_type": "single-stim", "trial_index": 12, "time_elapsed": 312356, "internal_node_id": "0.0-10.0-2.0"}}, {"uniqueid": "MTK0218:3SBEHTYCWOACKUYDLWZJURELWHAYI6", "current_trial": 13, "dateTime": 1509552386936, "trialdata": {"rt": -1, "stimulus": "<p id=\"stim\">7</p>", "key_press": -1, "trial_type": "single-stim", "trial_index": 13, "time_elapsed": 313360, "internal_node_id": "0.0-10.0-3.0"}}, {"uniqueid": "MTK0218:3SBEHTYCWOACKUYDLWZJURELWHAYI6", "current_trial": 14, "dateTime": 1509552387940, "trialdata": {"rt": -1, "stimulus": "<p id=\"stim\">6</p>", "key_press": -1, "trial_type": "single-stim", "trial_index": 14, "time_elapsed": 314364, "internal_node_id": "0.0-10.0-4.0"}}, {"uniqueid": "MTK0218:3SBEHTYCWOACKUYDLWZJURELWHAYI6", "current_trial": 15, "dateTime": 1509552388944, "trialdata": {"rt": -1, "stimulus": "<p id=\"stim\">5</p>", "key_press": -1, "trial_type": "single-stim", "trial_index": 15, "time_elapsed": 315368, "internal_node_id": "0.0-10.0-5.0"}}, {"uniqueid": "MTK0218:3SBEHTYCWOACKUYDLWZJURELWHAYI6", "current_trial": 16, "dateTime": 1509552389948, "trialdata": {"rt": -1, "stimulus": "<p id=\"stim\">4</p>", "key_press": -1, "trial_type": "single-stim", "trial_index": 16, "time_elapsed": 316372, "internal_node_id": "0.0-10.0-6.0"}}, {"uniqueid": "MTK0218:3SBEHTYCWOACKUYDLWZJURELWHAYI6", "current_trial": 17, "dateTime": 1509552390953, "trialdata": {"rt": -1, "stimulus": "<p id=\"stim\">3</p>", "key_press": -1, "trial_type": "single-stim", "trial_index": 17, "time_elapsed": 317377, "internal_node_id": "0.0-10.0-7.0"}}, {"uniqueid": "MTK0218:3SBEHTYCWOACKUYDLWZJURELWHAYI6", "current_trial": 18, "dateTime": 1509552391958, "trialdata": {"rt": -1, "stimulus": "<p id=\"stim\">2</p>", "key_press": -1, "trial_type": "single-stim", "trial_index": 18, "time_elapsed": 318382, "internal_node_id": "0.0-10.0-8.0"}}, {"uniqueid": "MTK0218:3SBEHTYCWOACKUYDLWZJURELWHAYI6", "current_trial": 19, "dateTime": 1509552392960, "trialdata": {"rt": -1, "stimulus": "<p id=\"stim\">1</p>", "key_press": -1, "trial_type": "single-stim", "trial_index": 19, "time_elapsed": 319384, "internal_node_id": "0.0-10.0-9.0"}}, {"uniqueid": "MTK0218:3SBEHTYCWOACKUYDLWZJURELWHAYI6", "current_trial": 20, "dateTime": 1509552394464, "trialdata": {"rt": -1, "stimulus": "<p id=\"stim\">+</p>", "key_press": -1, "type": "FIXATION", "trial_type": "single-stim", "trial_index": 20, "time_elapsed": 320887, "internal_node_id": "0.0-11.0-0.0"}}, {"uniqueid": "MTK0218:3SBEHTYCWOACKUYDLWZJURELWHAYI6", "current_trial": 21, "dateTime": 1509552395668, "trialdata": {"rt": -1, "stimulus": "<p id=\"stim\">PUDDLE</p>", "key_press": -1, "type": "PRES_VIS", "word": "puddle", "wordID": 1139, "conditions": [18, 1200, "v", 18000], "trial": 0, "serialpos": 0, "trial_type": "single-stim", "trial_index": 21, "time_elapsed": 322092, "internal_node_id": "0.0-12.0"}}, {"uniqueid": "MTK0218:3SBEHTYCWOACKUYDLWZJURELWHAYI6", "current_trial": 22, "dateTime": 1509552397783, "trialdata": {"rt": -1, "stimulus": "<p id=\"stim\">RACKET</p>", "key_press": -1, "type": "PRES_VIS", "word": "racket", "wordID": 1154, "conditions": [18, 1200, "v", 18000], "trial": 0, "serialpos": 1, "trial_type": "single-stim", "trial_index": 22, "time_elapsed": 324207, "internal_node_id": "0.0-13.0"}}, {"uniqueid": "MTK0218:3SBEHTYCWOACKUYDLWZJURELWHAYI6", "current_trial": 23, "dateTime": 1509552400157, "trialdata": {"rt": -1, "stimulus": "<p id=\"stim\">CREVICE</p>", "key_press": -1, "type": "PRES_VIS", "word": "crevice", "wordID": 404, "conditions": [18, 1200, "v", 18000], "trial": 0, "serialpos": 2, "trial_type": "single-stim", "trial_index": 23, "time_elapsed": 326581, "internal_node_id": "0.0-14.0"}}, {"uniqueid": "MTK0218:3SBEHTYCWOACKUYDLWZJURELWHAYI6", "current_trial": 24, "dateTime": 1509552402560, "trialdata": {"rt": -1, "stimulus": "<p id=\"stim\">PILOT</p>", "key_press": -1, "type": "PRES_VIS", "word": "pilot", "wordID": 1069, "conditions": [18, 1200, "v", 18000], "trial": 0, "serialpos": 3, "trial_type": "single-stim", "trial_index": 24, "time_elapsed": 328984, "internal_node_id": "0.0-15.0"}}, {"uniqueid": "MTK0218:3SBEHTYCWOACKUYDLWZJURELWHAYI6", "current_trial": 25, "dateTime": 1509552404597, "trialdata": {"rt": -1, "stimulus": "<p id=\"stim\">PUPPY</p>", "key_press": -1, "type": "PRES_VIS", "word": "puppy", "wordID": 1143, "conditions": [18, 1200, "v", 18000], "trial": 0, "serialpos": 4, "trial_type": "single-stim", "trial_index": 25, "time_elapsed": 331021, "internal_node_id": "0.0-16.0"}}, {"uniqueid": "MTK0218:3SBEHTYCWOACKUYDLWZJURELWHAYI6", "current_trial": 26, "dateTime": 1509552406849, "trialdata": {"rt": -1, "stimulus": "<p id=\"stim\">OX</p>", "key_press": -1, "type": "PRES_VIS", "word": "ox", "wordID": 993, "conditions": [18, 1200, "v", 18000], "trial": 0, "serialpos": 5, "trial_type": "single-stim", "trial_index": 26, "time_elapsed": 333273, "internal_node_id": "0.0-17.0"}}, {"uniqueid": "MTK0218:3SBEHTYCWOACKUYDLWZJURELWHAYI6", "current_trial": 27, "dateTime": 1509552409228, "trialdata": {"rt": -1, "stimulus": "<p id=\"stim\">LUGGAGE</p>", "key_press": -1, "type": "PRES_VIS", "word": "luggage", "wordID": 846, "conditions": [18, 1200, "v", 18000], "trial": 0, "serialpos": 6, "trial_type": "single-stim", "trial_index": 27, "time_elapsed": 335652, "internal_node_id": "0.0-18.0"}}, {"uniqueid": "MTK0218:3SBEHTYCWOACKUYDLWZJURELWHAYI6", "current_trial": 28, "dateTime": 1509552411254, "trialdata": {"rt": -1, "stimulus": "<p id=\"stim\">NOTEBOOK</p>", "key_press": -1, "type": "PRES_VIS", "word": "notebook", "wordID": 958, "conditions": [18, 1200, "v", 18000], "trial": 0, "serialpos": 7, "trial_type": "single-stim", "trial_index": 28, "time_elapsed": 337678, "internal_node_id": "0.0-19.0"}}, {"uniqueid": "MTK0218:3SBEHTYCWOACKUYDLWZJURELWHAYI6", "current_trial": 29, "dateTime": 1509552413564, "trialdata": {"rt": -1, "stimulus": "<p id=\"stim\">WIFE</p>", "key_press": -1, "type": "PRES_VIS", "word": "wife", "wordID": 1608, "conditions": [18, 1200, "v", 18000], "trial": 0, "serialpos": 8, "trial_type": "single-stim", "trial_index": 29, "time_elapsed": 339988, "internal_node_id": "0.0-20.0"}}, {"uniqueid": "MTK0218:3SBEHTYCWOACKUYDLWZJURELWHAYI6", "current_trial": 30, "dateTime": 1509552415810, "trialdata": {"rt": -1, "stimulus": "<p id=\"stim\">ARM</p>", "key_press": -1, "type": "PRES_VIS", "word": "arm", "wordID": 37, "conditions": [18, 1200, "v", 18000], "trial": 0, "serialpos": 9, "trial_type": "single-stim", "trial_index": 30, "time_elapsed": 342234, "internal_node_id": "0.0-21.0"}}, {"uniqueid": "MTK0218:3SBEHTYCWOACKUYDLWZJURELWHAYI6", "current_trial": 31, "dateTime": 1509552417821, "trialdata": {"rt": -1, "stimulus": "<p id=\"stim\">LEG</p>", "key_press": -1, "type": "PRES_VIS", "word": "leg", "wordID": 808, "conditions": [18, 1200, "v", 18000], "trial": 0, "serialpos": 10, "trial_type": "single-stim", "trial_index": 31, "time_elapsed": 344244, "internal_node_id": "0.0-22.0"}}, {"uniqueid": "MTK0218:3SBEHTYCWOACKUYDLWZJURELWHAYI6", "current_trial": 32, "dateTime": 1509552420018, "trialdata": {"rt": -1, "stimulus": "<p id=\"stim\">BUNNY</p>", "key_press": -1, "type": "PRES_VIS", "word": "bunny", "wordID": 197, "conditions": [18, 1200, "v", 18000], "trial": 0, "serialpos": 11, "trial_type": "single-stim", "trial_index": 32, "time_elapsed": 346442, "internal_node_id": "0.0-23.0"}}, {"uniqueid": "MTK0218:3SBEHTYCWOACKUYDLWZJURELWHAYI6", "current_trial": 33, "dateTime": 1509552422357, "trialdata": {"rt": -1, "stimulus": "<p id=\"stim\">RUST</p>", "key_press": -1, "type": "PRES_VIS", "word": "rust", "wordID": 1218, "conditions": [18, 1200, "v", 18000], "trial": 0, "serialpos": 12, "trial_type": "single-stim", "trial_index": 33, "time_elapsed": 348781, "internal_node_id": "0.0-24.0"}}, {"uniqueid": "MTK0218:3SBEHTYCWOACKUYDLWZJURELWHAYI6", "current_trial": 34, "dateTime": 1509552424638, "trialdata": {"rt": -1, "stimulus": "<p id=\"stim\">MAPLE</p>", "key_press": -1, "type": "PRES_VIS", "word": "maple", "wordID": 865, "conditions": [18, 1200, "v", 18000], "trial": 0, "serialpos": 13, "trial_type": "single-stim", "trial_index": 34, "time_elapsed": 351062, "internal_node_id": "0.0-25.0"}}, {"uniqueid": "MTK0218:3SBEHTYCWOACKUYDLWZJURELWHAYI6", "current_trial": 35, "dateTime": 1509552426768, "trialdata": {"rt": -1, "stimulus": "<p id=\"stim\">WAGON</p>", "key_press": -1, "type": "PRES_VIS", "word": "wagon", "wordID": 1577, "conditions": [18, 1200, "v", 18000], "trial": 0, "serialpos": 14, "trial_type": "single-stim", "trial_index": 35, "time_elapsed": 353192, "internal_node_id": "0.0-26.0"}}, {"uniqueid": "MTK0218:3SBEHTYCWOACKUYDLWZJURELWHAYI6", "current_trial": 36, "dateTime": 1509552429112, "trialdata": {"rt": -1, "stimulus": "<p id=\"stim\">RABBIT</p>", "key_press": -1, "type": "PRES_VIS", "word": "rabbit", "wordID": 1151, "conditions": [18, 1200, "v", 18000], "trial": 0, "serialpos": 15, "trial_type": "single-stim", "trial_index": 36, "time_elapsed": 355536, "internal_node_id": "0.0-27.0"}}, {"uniqueid": "MTK0218:3SBEHTYCWOACKUYDLWZJURELWHAYI6", "current_trial": 37, "dateTime": 1509552431484, "trialdata": {"rt": -1, "stimulus": "<p id=\"stim\">EMPIRE</p>", "key_press": -1, "type": "PRES_VIS", "word": "empire", "wordID": 529, "conditions": [18, 1200, "v", 18000], "trial": 0, "serialpos": 16, "trial_type": "single-stim", "trial_index": 37, "time_elapsed": 357908, "internal_node_id": "0.0-28.0"}}, {"uniqueid": "MTK0218:3SBEHTYCWOACKUYDLWZJURELWHAYI6", "current_trial": 38, "dateTime": 1509552433750, "trialdata": {"rt": -1, "stimulus": "<p id=\"stim\">CRAB</p>", "key_press": -1, "type": "PRES_VIS", "word": "crab", "wordID": 396, "conditions": [18, 1200, "v", 18000], "trial": 0, "serialpos": 17, "trial_type": "single-stim", "trial_index": 38, "time_elapsed": 360174, "internal_node_id": "0.0-29.0"}}, {"uniqueid": "MTK0218:3SBEHTYCWOACKUYDLWZJURELWHAYI6", "current_trial": 39, "dateTime": 1509552436199, "trialdata": {"rt": -1, "stimulus": "", "key_press": -1, "type": "PRE_RECALL_DELAY", "trial_type": "single-stim", "trial_index": 39, "time_elapsed": 362623, "internal_node_id": "0.0-30.0-0.0"}}, {"uniqueid": "MTK0218:3SBEHTYCWOACKUYDLWZJURELWHAYI6", "current_trial": 40, "dateTime": 1509552436701, "trialdata": {"rt": -1000, "stimulus": "/static/audio/400Hz.wav", "key_press": -1, "type": "PRE_RECALL_ALERT", "trial_type": "single-audio", "trial_index": 40, "time_elapsed": 363125, "internal_node_id": "0.0-31.0"}}, {"uniqueid": "MTK0218:3SBEHTYCWOACKUYDLWZJURELWHAYI6", "current_trial": 41, "dateTime": 1509552496707, "trialdata": {"rt": [3441, 6097, 9689, 12809, 13609, 15697, 18064, 21768, 23249, 24704, 28315, 32264, 35336, 40504, 47994, 57706, 58850, 59962], "recwords": ["crab", "empire", "rabbit", "wagon", "ox", "maple", "rust", "arm", "bunny", "wife", "notebook", "puppy", "pilot", "crevice", "puddle", "notebook", "ox", "bunny"], "type": "FREE_RECALL", "conditions": [18, 1200, "v", 18000], "trial": 0, "trial_type": "free-recall", "trial_index": 41, "time_elapsed": 423129, "internal_node_id": "0.0-32.0-0.0"}}, {"uniqueid": "MTK0218:3SBEHTYCWOACKUYDLWZJURELWHAYI6", "current_trial": 42, "dateTime": 1509552501658, "trialdata": {"rt": 2950, "key_press": 32, "type": "INSTRUCTIONS", "trial_type": "text", "trial_index": 42, "time_elapsed": 428082, "internal_node_id": "0.0-33.0"}}, {"uniqueid": "MTK0218:3SBEHTYCWOACKUYDLWZJURELWHAYI6", "current_trial": 43, "dateTime": 1509552521669, "trialdata": {"rt": [2217, 4689, 9449, 11977, 14272, 17304], "responses": ["12", "12", "17", "9", "15", "14"], "num1": [2, 7, 1, 1, 5, 3, 6], "num2": [8, 4, 7, 5, 1, 4, 8], "num3": [2, 1, 9, 3, 9, 7, 5], "type": "DISTRACTOR", "conditions": [18, 1200, "a", 18000], "trial": 1, "trial_type": "math-distractor", "trial_index": 43, "time_elapsed": 448093, "internal_node_id": "0.0-34.0"}}, {"uniqueid": "MTK0218:3SBEHTYCWOACKUYDLWZJURELWHAYI6", "current_trial": 44, "dateTime": 1509552524672, "trialdata": {"rt": -1, "stimulus": "<p id=\"stim\">10</p>", "key_press": -1, "trial_type": "single-stim", "trial_index": 44, "time_elapsed": 451096, "internal_node_id": "0.0-35.0-0.0"}}, {"uniqueid": "MTK0218:3SBEHTYCWOACKUYDLWZJURELWHAYI6", "current_trial": 45, "dateTime": 1509552525673, "trialdata": {"rt": -1, "stimulus": "<p id=\"stim\">9</p>", "key_press": -1, "trial_type": "single-stim", "trial_index": 45, "time_elapsed": 452097, "internal_node_id": "0.0-35.0-1.0"}}, {"uniqueid": "MTK0218:3SBEHTYCWOACKUYDLWZJURELWHAYI6", "current_trial": 46, "dateTime": 1509552526677, "trialdata": {"rt": -1, "stimulus": "<p id=\"stim\">8</p>", "key_press": -1, "trial_type": "single-stim", "trial_index": 46, "time_elapsed": 453101, "internal_node_id": "0.0-35.0-2.0"}}, {"uniqueid": "MTK0218:3SBEHTYCWOACKUYDLWZJURELWHAYI6", "current_trial": 47, "dateTime": 1509552527681, "trialdata": {"rt": -1, "stimulus": "<p id=\"stim\">7</p>", "key_press": -1, "trial_type": "single-stim", "trial_index": 47, "time_elapsed": 454105, "internal_node_id": "0.0-35.0-3.0"}}, {"uniqueid": "MTK0218:3SBEHTYCWOACKUYDLWZJURELWHAYI6", "current_trial": 48, "dateTime": 1509552528686, "trialdata": {"rt": -1, "stimulus": "<p id=\"stim\">6</p>", "key_press": -1, "trial_type": "single-stim", "trial_index": 48, "time_elapsed": 455109, "internal_node_id": "0.0-35.0-4.0"}}, {"uniqueid": "MTK0218:3SBEHTYCWOACKUYDLWZJURELWHAYI6", "current_trial": 49, "dateTime": 1509552529689, "trialdata": {"rt": -1, "stimulus": "<p id=\"stim\">5</p>", "key_press": -1, "trial_type": "single-stim", "trial_index": 49, "time_elapsed": 456113, "internal_node_id": "0.0-35.0-5.0"}}, {"uniqueid": "MTK0218:3SBEHTYCWOACKUYDLWZJURELWHAYI6", "current_trial": 50, "dateTime": 1509552530693, "trialdata": {"rt": -1, "stimulus": "<p id=\"stim\">4</p>", "key_press": -1, "trial_type": "single-stim", "trial_index": 50, "time_elapsed": 457117, "internal_node_id": "0.0-35.0-6.0"}}, {"uniqueid": "MTK0218:3SBEHTYCWOACKUYDLWZJURELWHAYI6", "current_trial": 51, "dateTime": 1509552531698, "trialdata": {"rt": -1, "stimulus": "<p id=\"stim\">3</p>", "key_press": -1, "trial_type": "single-stim", "trial_index": 51, "time_elapsed": 458122, "internal_node_id": "0.0-35.0-7.0"}}, {"uniqueid": "MTK0218:3SBEHTYCWOACKUYDLWZJURELWHAYI6", "current_trial": 52, "dateTime": 1509552532701, "trialdata": {"rt": -1, "stimulus": "<p id=\"stim\">2</p>", "key_press": -1, "trial_type": "single-stim", "trial_index": 52, "time_elapsed": 459125, "internal_node_id": "0.0-35.0-8.0"}}, {"uniqueid": "MTK0218:3SBEHTYCWOACKUYDLWZJURELWHAYI6", "current_trial": 53, "dateTime": 1509552533706, "trialdata": {"rt": -1, "stimulus": "<p id=\"stim\">1</p>", "key_press": -1, "trial_type": "single-stim", "trial_index": 53, "time_elapsed": 460130, "internal_node_id": "0.0-35.0-9.0"}}, {"uniqueid": "MTK0218:3SBEHTYCWOACKUYDLWZJURELWHAYI6", "current_trial": 54, "dateTime": 1509552535209, "trialdata": {"rt": -1, "stimulus": "<p id=\"stim\">+</p>", "key_press": -1, "type": "FIXATION", "trial_type": "single-stim", "trial_index": 54, "time_elapsed": 461633, "internal_node_id": "0.0-36.0-0.0"}}, {"uniqueid": "MTK0218:3SBEHTYCWOACKUYDLWZJURELWHAYI6", "current_trial": 55, "dateTime": 1509552537386, "trialdata": {"rt": -1000, "stimulus": "/static/audio/wordpool/TORTOISE.wav", "key_press": -1, "type": "PRES_AUD", "word": "tortoise", "wordID": 1485, "conditions": [18, 1200, "a", 18000], "trial": 1, "serialpos": 0, "trial_type": "single-audio", "trial_index": 55, "time_elapsed": 463810, "internal_node_id": "0.0-37.0"}}, {"uniqueid": "MTK0218:3SBEHTYCWOACKUYDLWZJURELWHAYI6", "current_trial": 56, "dateTime": 1509552539487, "trialdata": {"rt": -1000, "stimulus": "/static/audio/wordpool/PRIMATE.wav", "key_press": -1, "type": "PRES_AUD", "word": "primate", "wordID": 1122, "conditions": [18, 1200, "a", 18000], "trial": 1, "serialpos": 1, "trial_type": "single-audio", "trial_index": 56, "time_elapsed": 465910, "internal_node_id": "0.0-38.0"}}, {"uniqueid": "MTK0218:3SBEHTYCWOACKUYDLWZJURELWHAYI6", "current_trial": 57, "dateTime": 1509552541764, "trialdata": {"rt": -1000, "stimulus": "/static/audio/wordpool/QUARTER.wav", "key_press": -1, "type": "PRES_AUD", "word": "quarter", "wordID": 1147, "conditions": [18, 1200, "a", 18000], "trial": 1, "serialpos": 2, "trial_type": "single-audio", "trial_index": 57, "time_elapsed": 468188, "internal_node_id": "0.0-39.0"}}, {"uniqueid": "MTK0218:3SBEHTYCWOACKUYDLWZJURELWHAYI6", "current_trial": 58, "dateTime": 1509552544007, "trialdata": {"rt": -1000, "stimulus": "/static/audio/wordpool/ORCHID.wav", "key_press": -1, "type": "PRES_AUD", "word": "orchid", "wordID": 981, "conditions": [18, 1200, "a", 18000], "trial": 1, "serialpos": 3, "trial_type": "single-audio", "trial_index": 58, "time_elapsed": 470431, "internal_node_id": "0.0-40.0"}}, {"uniqueid": "MTK0218:3SBEHTYCWOACKUYDLWZJURELWHAYI6", "current_trial": 59, "dateTime": 1509552546344, "trialdata": {"rt": -1000, "stimulus": "/static/audio/wordpool/FUNGUS.wav", "key_press": -1, "type": "PRES_AUD", "word": "fungus", "wordID": 613, "conditions": [18, 1200, "a", 18000], "trial": 1, "serialpos": 4, "trial_type": "single-audio", "trial_index": 59, "time_elapsed": 472768, "internal_node_id": "0.0-41.0"}}, {"uniqueid": "MTK0218:3SBEHTYCWOACKUYDLWZJURELWHAYI6", "current_trial": 60, "dateTime": 1509552548440, "trialdata": {"rt": -1000, "stimulus": "/static/audio/wordpool/ANTLER.wav", "key_press": -1, "type": "PRES_AUD", "word": "antler", "wordID": 28, "conditions": [18, 1200, "a", 18000], "trial": 1, "serialpos": 5, "trial_type": "single-audio", "trial_index": 60, "time_elapsed": 474864, "internal_node_id": "0.0-42.0"}}, {"uniqueid": "MTK0218:3SBEHTYCWOACKUYDLWZJURELWHAYI6", "current_trial": 61, "dateTime": 1509552550675, "trialdata": {"rt": -1000, "stimulus": "/static/audio/wordpool/NEUTRON.wav", "key_press": -1, "type": "PRES_AUD", "word": "neutron", "wordID": 946, "conditions": [18, 1200, "a", 18000], "trial": 1, "serialpos": 6, "trial_type": "single-audio", "trial_index": 61, "time_elapsed": 477099, "internal_node_id": "0.0-43.0"}}, {"uniqueid": "MTK0218:3SBEHTYCWOACKUYDLWZJURELWHAYI6", "current_trial": 62, "dateTime": 1509552552840, "trialdata": {"rt": -1000, "stimulus": "/static/audio/wordpool/COUNTY.wav", "key_press": -1, "type": "PRES_AUD", "word": "county", "wordID": 388, "conditions": [18, 1200, "a", 18000], "trial": 1, "serialpos": 7, "trial_type": "single-audio", "trial_index": 62, "time_elapsed": 479264, "internal_node_id": "0.0-44.0"}}, {"uniqueid": "MTK0218:3SBEHTYCWOACKUYDLWZJURELWHAYI6", "current_trial": 63, "dateTime": 1509552554872, "trialdata": {"rt": -1000, "stimulus": "/static/audio/wordpool/LACE.wav", "key_press": -1, "type": "PRES_AUD", "word": "lace", "wordID": 791, "conditions": [18, 1200, "a", 18000], "trial": 1, "serialpos": 8, "trial_type": "single-audio", "trial_index": 63, "time_elapsed": 481296, "internal_node_id": "0.0-45.0"}}, {"uniqueid": "MTK0218:3SBEHTYCWOACKUYDLWZJURELWHAYI6", "current_trial": 64, "dateTime": 1509552557008, "trialdata": {"rt": -1000, "stimulus": "/static/audio/wordpool/BLENDER.wav", "key_press": -1, "type": "PRES_AUD", "word": "blender", "wordID": 135, "conditions": [18, 1200, "a", 18000], "trial": 1, "serialpos": 9, "trial_type": "single-audio", "trial_index": 64, "time_elapsed": 483432, "internal_node_id": "0.0-46.0"}}, {"uniqueid": "MTK0218:3SBEHTYCWOACKUYDLWZJURELWHAYI6", "current_trial": 65, "dateTime": 1509552559330, "trialdata": {"rt": -1000, "stimulus": "/static/audio/wordpool/BURGLAR.wav", "key_press": -1, "type": "PRES_AUD", "word": "burglar", "wordID": 199, "conditions": [18, 1200, "a", 18000], "trial": 1, "serialpos": 10, "trial_type": "single-audio", "trial_index": 65, "time_elapsed": 485754, "internal_node_id": "0.0-47.0"}}, {"uniqueid": "MTK0218:3SBEHTYCWOACKUYDLWZJURELWHAYI6", "current_trial": 66, "dateTime": 1509552561675, "trialdata": {"rt": -1000, "stimulus": "/static/audio/wordpool/ROBBER.wav", "key_press": -1, "type": "PRES_AUD", "word": "robber", "wordID": 1196, "conditions": [18, 1200, "a", 18000], "trial": 1, "serialpos": 11, "trial_type": "single-audio", "trial_index": 66, "time_elapsed": 488099, "internal_node_id": "0.0-48.0"}}, {"uniqueid": "MTK0218:3SBEHTYCWOACKUYDLWZJURELWHAYI6", "current_trial": 67, "dateTime": 1509552564072, "trialdata": {"rt": -1000, "stimulus": "/static/audio/wordpool/LAGOON.wav", "key_press": -1, "type": "PRES_AUD", "word": "lagoon", "wordID": 794, "conditions": [18, 1200, "a", 18000], "trial": 1, "serialpos": 12, "trial_type": "single-audio", "trial_index": 67, "time_elapsed": 490496, "internal_node_id": "0.0-49.0"}}, {"uniqueid": "MTK0218:3SBEHTYCWOACKUYDLWZJURELWHAYI6", "current_trial": 68, "dateTime": 1509552566359, "trialdata": {"rt": -1000, "stimulus": "/static/audio/wordpool/FOREHEAD.wav", "key_press": -1, "type": "PRES_AUD", "word": "forehead", "wordID": 591, "conditions": [18, 1200, "a", 18000], "trial": 1, "serialpos": 13, "trial_type": "single-audio", "trial_index": 68, "time_elapsed": 492783, "internal_node_id": "0.0-50.0"}}, {"uniqueid": "MTK0218:3SBEHTYCWOACKUYDLWZJURELWHAYI6", "current_trial": 69, "dateTime": 1509552568385, "trialdata": {"rt": -1000, "stimulus": "/static/audio/wordpool/SUITCASE.wav", "key_press": -1, "type": "PRES_AUD", "word": "suitcase", "wordID": 1402, "conditions": [18, 1200, "a", 18000], "trial": 1, "serialpos": 14, "trial_type": "single-audio", "trial_index": 69, "time_elapsed": 494809, "internal_node_id": "0.0-51.0"}}, {"uniqueid": "MTK0218:3SBEHTYCWOACKUYDLWZJURELWHAYI6", "current_trial": 70, "dateTime": 1509552570731, "trialdata": {"rt": -1000, "stimulus": "/static/audio/wordpool/TROUT.wav", "key_press": -1, "type": "PRES_AUD", "word": "trout", "wordID": 1510, "conditions": [18, 1200, "a", 18000], "trial": 1, "serialpos": 15, "trial_type": "single-audio", "trial_index": 70, "time_elapsed": 497155, "internal_node_id": "0.0-52.0"}}, {"uniqueid": "MTK0218:3SBEHTYCWOACKUYDLWZJURELWHAYI6", "current_trial": 71, "dateTime": 1509552573101, "trialdata": {"rt": -1000, "stimulus": "/static/audio/wordpool/ROD.wav", "key_press": -1, "type": "PRES_AUD", "word": "rod", "wordID": 1202, "conditions": [18, 1200, "a", 18000], "trial": 1, "serialpos": 16, "trial_type": "single-audio", "trial_index": 71, "time_elapsed": 499525, "internal_node_id": "0.0-53.0"}}, {"uniqueid": "MTK0218:3SBEHTYCWOACKUYDLWZJURELWHAYI6", "current_trial": 72, "dateTime": 1509552575409, "trialdata": {"rt": -1000, "stimulus": "/static/audio/wordpool/CAFE.wav", "key_press": -1, "type": "PRES_AUD", "word": "cafe", "wordID": 215, "conditions": [18, 1200, "a", 18000], "trial": 1, "serialpos": 17, "trial_type": "single-audio", "trial_index": 72, "time_elapsed": 501833, "internal_node_id": "0.0-54.0"}}, {"uniqueid": "MTK0218:3SBEHTYCWOACKUYDLWZJURELWHAYI6", "current_trial": 73, "dateTime": 1509552576733, "trialdata": {"rt": -1, "stimulus": "", "key_press": -1, "type": "PRE_RECALL_DELAY", "trial_type": "single-stim", "trial_index": 73, "time_elapsed": 503157, "internal_node_id": "0.0-55.0-0.0"}}, {"uniqueid": "MTK0218:3SBEHTYCWOACKUYDLWZJURELWHAYI6", "current_trial": 74, "dateTime": 1509552577234, "trialdata": {"rt": -1000, "stimulus": "/static/audio/400Hz.wav", "key_press": -1, "type": "PRE_RECALL_ALERT", "trial_type": "single-audio", "trial_index": 74, "time_elapsed": 503658, "internal_node_id": "0.0-56.0"}}, {"uniqueid": "MTK0218:3SBEHTYCWOACKUYDLWZJURELWHAYI6", "current_trial": 75, "dateTime": 1509552637242, "trialdata": {"rt": [1773, 3108, 7629, 10173, 12285, 19012, 20580, 24084, 26244, 28348, 32108, 34812, 40508, 44803, 49685, 51941, 53325, 59693], "recwords": ["rod", "cafe", "neutron", "county", "blender", "buglar", "cafe", "trout", "forehead", "robber", "angler", "lace", "tourtise", "lagoon", "trout", "rod", "cafe", "neutron"], "type": "FREE_RECALL", "conditions": [18, 1200, "a", 18000], "trial": 1, "trial_type": "free-recall", "trial_index": 75, "time_elapsed": 563664, "internal_node_id": "0.0-57.0-0.0"}}, {"uniqueid": "MTK0218:3SBEHTYCWOACKUYDLWZJURELWHAYI6", "current_trial": 76, "dateTime": 1509552673730, "trialdata": {"rt": 34483, "key_press": 32, "type": "INSTRUCTIONS", "trial_type": "text", "trial_index": 76, "time_elapsed": 600154, "internal_node_id": "0.0-58.0"}}, {"uniqueid": "MTK0218:3SBEHTYCWOACKUYDLWZJURELWHAYI6", "current_trial": 77, "dateTime": 1509552686734, "trialdata": {"rt": [5013, 8181, 11485], "responses": ["18", "14", "15"], "num1": [5, 6, 5, 7], "num2": [4, 5, 7, 9], "num3": [9, 3, 3, 3], "type": "DISTRACTOR", "conditions": [24, 800, "v", 12000], "trial": 2, "trial_type": "math-distractor", "trial_index": 77, "time_elapsed": 613158, "internal_node_id": "0.0-59.0"}}, {"uniqueid": "MTK0218:3SBEHTYCWOACKUYDLWZJURELWHAYI6", "current_trial": 78, "dateTime": 1509552689738, "trialdata": {"rt": -1, "stimulus": "<p id=\"stim\">10</p>", "key_press": -1, "trial_type": "single-stim", "trial_index": 78, "time_elapsed": 616160, "internal_node_id": "0.0-60.0-0.0"}}, {"uniqueid": "MTK0218:3SBEHTYCWOACKUYDLWZJURELWHAYI6", "current_trial": 79, "dateTime": 1509552690741, "trialdata": {"rt": -1, "stimulus": "<p id=\"stim\">9</p>", "key_press": -1, "trial_type": "single-stim", "trial_index": 79, "time_elapsed": 617165, "internal_node_id": "0.0-60.0-1.0"}}, {"uniqueid": "MTK0218:3SBEHTYCWOACKUYDLWZJURELWHAYI6", "current_trial": 80, "dateTime": 1509552691742, "trialdata": {"rt": -1, "stimulus": "<p id=\"stim\">8</p>", "key_press": -1, "trial_type": "single-stim", "trial_index": 80, "time_elapsed": 618166, "internal_node_id": "0.0-60.0-2.0"}}, {"uniqueid": "MTK0218:3SBEHTYCWOACKUYDLWZJURELWHAYI6", "current_trial": 81, "dateTime": 1509552692744, "trialdata": {"rt": -1, "stimulus": "<p id=\"stim\">7</p>", "key_press": -1, "trial_type": "single-stim", "trial_index": 81, "time_elapsed": 619168, "internal_node_id": "0.0-60.0-3.0"}}, {"uniqueid": "MTK0218:3SBEHTYCWOACKUYDLWZJURELWHAYI6", "current_trial": 82, "dateTime": 1509552693750, "trialdata": {"rt": -1, "stimulus": "<p id=\"stim\">6</p>", "key_press": -1, "trial_type": "single-stim", "trial_index": 82, "time_elapsed": 620174, "internal_node_id": "0.0-60.0-4.0"}}, {"uniqueid": "MTK0218:3SBEHTYCWOACKUYDLWZJURELWHAYI6", "current_trial": 83, "dateTime": 1509552694754, "trialdata": {"rt": -1, "stimulus": "<p id=\"stim\">5</p>", "key_press": -1, "trial_type": "single-stim", "trial_index": 83, "time_elapsed": 621178, "internal_node_id": "0.0-60.0-5.0"}}, {"uniqueid": "MTK0218:3SBEHTYCWOACKUYDLWZJURELWHAYI6", "current_trial": 84, "dateTime": 1509552695758, "trialdata": {"rt": -1, "stimulus": "<p id=\"stim\">4</p>", "key_press": -1, "trial_type": "single-stim", "trial_index": 84, "time_elapsed": 622182, "internal_node_id": "0.0-60.0-6.0"}}, {"uniqueid": "MTK0218:3SBEHTYCWOACKUYDLWZJURELWHAYI6", "current_trial": 85, "dateTime": 1509552696762, "trialdata": {"rt": -1, "stimulus": "<p id=\"stim\">3</p>", "key_press": -1, "trial_type": "single-stim", "trial_index": 85, "time_elapsed": 623186, "internal_node_id": "0.0-60.0-7.0"}}, {"uniqueid": "MTK0218:3SBEHTYCWOACKUYDLWZJURELWHAYI6", "current_trial": 86, "dateTime": 1509552697766, "trialdata": {"rt": -1, "stimulus": "<p id=\"stim\">2</p>", "key_press": -1, "trial_type": "single-stim", "trial_index": 86, "time_elapsed": 624190, "internal_node_id": "0.0-60.0-8.0"}}, {"uniqueid": "MTK0218:3SBEHTYCWOACKUYDLWZJURELWHAYI6", "current_trial": 87, "dateTime": 1509552698770, "trialdata": {"rt": -1, "stimulus": "<p id=\"stim\">1</p>", "key_press": -1, "trial_type": "single-stim", "trial_index": 87, "time_elapsed": 625194, "internal_node_id": "0.0-60.0-9.0"}}, {"uniqueid": "MTK0218:3SBEHTYCWOACKUYDLWZJURELWHAYI6", "current_trial": 88, "dateTime": 1509552700274, "trialdata": {"rt": -1, "stimulus": "<p id=\"stim\">+</p>", "key_press": -1, "type": "FIXATION", "trial_type": "single-stim", "trial_index": 88, "time_elapsed": 626697, "internal_node_id": "0.0-61.0-0.0"}}, {"uniqueid": "MTK0218:3SBEHTYCWOACKUYDLWZJURELWHAYI6", "current_trial": 89, "dateTime": 1509552701080, "trialdata": {"rt": -1, "stimulus": "<p id=\"stim\">FLAG</p>", "key_press": -1, "type": "PRES_VIS", "word": "flag", "wordID": 572, "conditions": [24, 800, "v", 12000], "trial": 2, "serialpos": 0, "trial_type": "single-stim", "trial_index": 89, "time_elapsed": 627504, "internal_node_id": "0.0-62.0"}}, {"uniqueid": "MTK0218:3SBEHTYCWOACKUYDLWZJURELWHAYI6", "current_trial": 90, "dateTime": 1509552702752, "trialdata": {"rt": -1, "stimulus": "<p id=\"stim\">SHARK</p>", "key_press": -1, "type": "PRES_VIS", "word": "shark", "wordID": 1274, "conditions": [24, 800, "v", 12000], "trial": 2, "serialpos": 1, "trial_type": "single-stim", "trial_index": 90, "time_elapsed": 629176, "internal_node_id": "0.0-63.0"}}, {"uniqueid": "MTK0218:3SBEHTYCWOACKUYDLWZJURELWHAYI6", "current_trial": 91, "dateTime": 1509552704516, "trialdata": {"rt": -1, "stimulus": "<p id=\"stim\">MONSTER</p>", "key_press": -1, "type": "PRES_VIS", "word": "monster", "wordID": 911, "conditions": [24, 800, "v", 12000], "trial": 2, "serialpos": 2, "trial_type": "single-stim", "trial_index": 91, "time_elapsed": 630940, "internal_node_id": "0.0-64.0"}}, {"uniqueid": "MTK0218:3SBEHTYCWOACKUYDLWZJURELWHAYI6", "current_trial": 92, "dateTime": 1509552706326, "trialdata": {"rt": -1, "stimulus": "<p id=\"stim\">INFANT</p>", "key_press": -1, "type": "PRES_VIS", "word": "infant", "wordID": 736, "conditions": [24, 800, "v", 12000], "trial": 2, "serialpos": 3, "trial_type": "single-stim", "trial_index": 92, "time_elapsed": 632750, "internal_node_id": "0.0-65.0"}}, {"uniqueid": "MTK0218:3SBEHTYCWOACKUYDLWZJURELWHAYI6", "current_trial": 93, "dateTime": 1509552708265, "trialdata": {"rt": -1, "stimulus": "<p id=\"stim\">MARROW</p>", "key_press": -1, "type": "PRES_VIS", "word": "marrow", "wordID": 871, "conditions": [24, 800, "v", 12000], "trial": 2, "serialpos": 4, "trial_type": "single-stim", "trial_index": 93, "time_elapsed": 634689, "internal_node_id": "0.0-66.0"}}, {"uniqueid": "MTK0218:3SBEHTYCWOACKUYDLWZJURELWHAYI6", "current_trial": 94, "dateTime": 1509552709976, "trialdata": {"rt": -1, "stimulus": "<p id=\"stim\">BEAST</p>", "key_press": -1, "type": "PRES_VIS", "word": "beast", "wordID": 107, "conditions": [24, 800, "v", 12000], "trial": 2, "serialpos": 5, "trial_type": "single-stim", "trial_index": 94, "time_elapsed": 636400, "internal_node_id": "0.0-67.0"}}, {"uniqueid": "MTK0218:3SBEHTYCWOACKUYDLWZJURELWHAYI6", "current_trial": 95, "dateTime": 1509552711951, "trialdata": {"rt": -1, "stimulus": "<p id=\"stim\">DOUGHNUT</p>", "key_press": -1, "type": "PRES_VIS", "word": "doughnut", "wordID": 489, "conditions": [24, 800, "v", 12000], "trial": 2, "serialpos": 6, "trial_type": "single-stim", "trial_index": 95, "time_elapsed": 638375, "internal_node_id": "0.0-68.0"}}, {"uniqueid": "MTK0218:3SBEHTYCWOACKUYDLWZJURELWHAYI6", "current_trial": 96, "dateTime": 1509552713704, "trialdata": {"rt": -1, "stimulus": "<p id=\"stim\">MUFFIN</p>", "key_press": -1, "type": "PRES_VIS", "word": "muffin", "wordID": 928, "conditions": [24, 800, "v", 12000], "trial": 2, "serialpos": 7, "trial_type": "single-stim", "trial_index": 96, "time_elapsed": 640127, "internal_node_id": "0.0-69.0"}}, {"uniqueid": "MTK0218:3SBEHTYCWOACKUYDLWZJURELWHAYI6", "current_trial": 97, "dateTime": 1509552715340, "trialdata": {"rt": -1, "stimulus": "<p id=\"stim\">PREACHER</p>", "key_press": -1, "type": "PRES_VIS", "word": "preacher", "wordID": 1118, "conditions": [24, 800, "v", 12000], "trial": 2, "serialpos": 8, "trial_type": "single-stim", "trial_index": 97, "time_elapsed": 641764, "internal_node_id": "0.0-70.0"}}, {"uniqueid": "MTK0218:3SBEHTYCWOACKUYDLWZJURELWHAYI6", "current_trial": 98, "dateTime": 1509552717259, "trialdata": {"rt": -1, "stimulus": "<p id=\"stim\">TOASTER</p>", "key_press": -1, "type": "PRES_VIS", "word": "toaster", "wordID": 1471, "conditions": [24, 800, "v", 12000], "trial": 2, "serialpos": 9, "trial_type": "single-stim", "trial_index": 98, "time_elapsed": 643683, "internal_node_id": "0.0-71.0"}}, {"uniqueid": "MTK0218:3SBEHTYCWOACKUYDLWZJURELWHAYI6", "current_trial": 99, "dateTime": 1509552718991, "trialdata": {"rt": -1, "stimulus": "<p id=\"stim\">SNACK</p>", "key_press": -1, "type": "PRES_VIS", "word": "snack", "wordID": 1330, "conditions": [24, 800, "v", 12000], "trial": 2, "serialpos": 10, "trial_type": "single-stim", "trial_index": 99, "time_elapsed": 645415, "internal_node_id": "0.0-72.0"}}, {"uniqueid": "MTK0218:3SBEHTYCWOACKUYDLWZJURELWHAYI6", "current_trial": 100, "dateTime": 1509552720941, "trialdata": {"rt": -1, "stimulus": "<p id=\"stim\">ONION</p>", "key_press": -1, "type": "PRES_VIS", "word": "onion", "wordID": 976, "conditions": [24, 800, "v", 12000], "trial": 2, "serialpos": 11, "trial_type": "single-stim", "trial_index": 100, "time_elapsed": 647365, "internal_node_id": "0.0-73.0"}}, {"uniqueid": "MTK0218:3SBEHTYCWOACKUYDLWZJURELWHAYI6", "current_trial": 101, "dateTime": 1509552722816, "trialdata": {"rt": -1, "stimulus": "<p id=\"stim\">SHOULDER</p>", "key_press": -1, "type": "PRES_VIS", "word": "shoulder", "wordID": 1293, "conditions": [24, 800, "v", 12000], "trial": 2, "serialpos": 12, "trial_type": "single-stim", "trial_index": 101, "time_elapsed": 649240, "internal_node_id": "0.0-74.0"}}, {"uniqueid": "MTK0218:3SBEHTYCWOACKUYDLWZJURELWHAYI6", "current_trial": 102, "dateTime": 1509552724545, "trialdata": {"rt": -1, "stimulus": "<p id=\"stim\">CARROT</p>", "key_press": -1, "type": "PRES_VIS", "word": "carrot", "wordID": 248, "conditions": [24, 800, "v", 12000], "trial": 2, "serialpos": 13, "trial_type": "single-stim", "trial_index": 102, "time_elapsed": 650969, "internal_node_id": "0.0-75.0"}}, {"uniqueid": "MTK0218:3SBEHTYCWOACKUYDLWZJURELWHAYI6", "current_trial": 103, "dateTime": 1509552726286, "trialdata": {"rt": -1, "stimulus": "<p id=\"stim\">SKILLET</p>", "key_press": -1, "type": "PRES_VIS", "word": "skillet", "wordID": 1316, "conditions": [24, 800, "v", 12000], "trial": 2, "serialpos": 14, "trial_type": "single-stim", "trial_index": 103, "time_elapsed": 652710, "internal_node_id": "0.0-76.0"}}, {"uniqueid": "MTK0218:3SBEHTYCWOACKUYDLWZJURELWHAYI6", "current_trial": 104, "dateTime": 1509552728289, "trialdata": {"rt": -1, "stimulus": "<p id=\"stim\">CABBAGE</p>", "key_press": -1, "type": "PRES_VIS", "word": "cabbage", "wordID": 209, "conditions": [24, 800, "v", 12000], "trial": 2, "serialpos": 15, "trial_type": "single-stim", "trial_index": 104, "time_elapsed": 654713, "internal_node_id": "0.0-77.0"}}, {"uniqueid": "MTK0218:3SBEHTYCWOACKUYDLWZJURELWHAYI6", "current_trial": 105, "dateTime": 1509552730198, "trialdata": {"rt": -1, "stimulus": "<p id=\"stim\">KIDNEY</p>", "key_press": -1, "type": "PRES_VIS", "word": "kidney", "wordID": 775, "conditions": [24, 800, "v", 12000], "trial": 2, "serialpos": 16, "trial_type": "single-stim", "trial_index": 105, "time_elapsed": 656622, "internal_node_id": "0.0-78.0"}}, {"uniqueid": "MTK0218:3SBEHTYCWOACKUYDLWZJURELWHAYI6", "current_trial": 106, "dateTime": 1509552732143, "trialdata": {"rt": -1, "stimulus": "<p id=\"stim\">CHAPEL</p>", "key_press": -1, "type": "PRES_VIS", "word": "chapel", "wordID": 279, "conditions": [24, 800, "v", 12000], "trial": 2, "serialpos": 17, "trial_type": "single-stim", "trial_index": 106, "time_elapsed": 658566, "internal_node_id": "0.0-79.0"}}, {"uniqueid": "MTK0218:3SBEHTYCWOACKUYDLWZJURELWHAYI6", "current_trial": 107, "dateTime": 1509552734040, "trialdata": {"rt": -1, "stimulus": "<p id=\"stim\">PEPPER</p>", "key_press": -1, "type": "PRES_VIS", "word": "pepper", "wordID": 1046, "conditions": [24, 800, "v", 12000], "trial": 2, "serialpos": 18, "trial_type": "single-stim", "trial_index": 107, "time_elapsed": 660464, "internal_node_id": "0.0-80.0"}}, {"uniqueid": "MTK0218:3SBEHTYCWOACKUYDLWZJURELWHAYI6", "current_trial": 108, "dateTime": 1509552736019, "trialdata": {"rt": -1, "stimulus": "<p id=\"stim\">COUSIN</p>", "key_press": -1, "type": "PRES_VIS", "word": "cousin", "wordID": 391, "conditions": [24, 800, "v", 12000], "trial": 2, "serialpos": 19, "trial_type": "single-stim", "trial_index": 108, "time_elapsed": 662443, "internal_node_id": "0.0-81.0"}}, {"uniqueid": "MTK0218:3SBEHTYCWOACKUYDLWZJURELWHAYI6", "current_trial": 109, "dateTime": 1509552738009, "trialdata": {"rt": -1, "stimulus": "<p id=\"stim\">CHURCH</p>", "key_press": -1, "type": "PRES_VIS", "word": "church", "wordID": 306, "conditions": [24, 800, "v", 12000], "trial": 2, "serialpos": 20, "trial_type": "single-stim", "trial_index": 109, "time_elapsed": 664432, "internal_node_id": "0.0-82.0"}}, {"uniqueid": "MTK0218:3SBEHTYCWOACKUYDLWZJURELWHAYI6", "current_trial": 110, "dateTime": 1509552739734, "trialdata": {"rt": -1, "stimulus": "<p id=\"stim\">CLIMBER</p>", "key_press": -1, "type": "PRES_VIS", "word": "climber", "wordID": 322, "conditions": [24, 800, "v", 12000], "trial": 2, "serialpos": 21, "trial_type": "single-stim", "trial_index": 110, "time_elapsed": 666158, "internal_node_id": "0.0-83.0"}}, {"uniqueid": "MTK0218:3SBEHTYCWOACKUYDLWZJURELWHAYI6", "current_trial": 111, "dateTime": 1509552741510, "trialdata": {"rt": -1, "stimulus": "<p id=\"stim\">HIKER</p>", "key_press": -1, "type": "PRES_VIS", "word": "hiker", "wordID": 707, "conditions": [24, 800, "v", 12000], "trial": 2, "serialpos": 22, "trial_type": "single-stim", "trial_index": 111, "time_elapsed": 667934, "internal_node_id": "0.0-84.0"}}, {"uniqueid": "MTK0218:3SBEHTYCWOACKUYDLWZJURELWHAYI6", "current_trial": 112, "dateTime": 1509552743442, "trialdata": {"rt": -1, "stimulus": "<p id=\"stim\">BELLY</p>", "key_press": -1, "type": "PRES_VIS", "word": "belly", "wordID": 118, "conditions": [24, 800, "v", 12000], "trial": 2, "serialpos": 23, "trial_type": "single-stim", "trial_index": 112, "time_elapsed": 669866, "internal_node_id": "0.0-85.0"}}, {"uniqueid": "MTK0218:3SBEHTYCWOACKUYDLWZJURELWHAYI6", "current_trial": 113, "dateTime": 1509552745874, "trialdata": {"rt": -1, "stimulus": "", "key_press": -1, "type": "PRE_RECALL_DELAY", "trial_type": "single-stim", "trial_index": 113, "time_elapsed": 672298, "internal_node_id": "0.0-86.0-0.0"}}, {"uniqueid": "MTK0218:3SBEHTYCWOACKUYDLWZJURELWHAYI6", "current_trial": 114, "dateTime": 1509552746375, "trialdata": {"rt": -1000, "stimulus": "/static/audio/400Hz.wav", "key_press": -1, "type": "PRE_RECALL_ALERT", "trial_type": "single-audio", "trial_index": 114, "time_elapsed": 672799, "internal_node_id": "0.0-87.0"}}, {"uniqueid": "MTK0218:3SBEHTYCWOACKUYDLWZJURELWHAYI6", "current_trial": 115, "dateTime": 1509552806378, "trialdata": {"rt": [2590, 6742, 9502, 11223, 14270, 18566, 21086, 23326, 28397, 30909, 33285, 35629, 39853, 43213, 46589, 48941, 51285, 58390], "recwords": ["belly", "hiker", "church", "onion", "cousin", "skillet", "carrot", "shoulder", "snack", "toaster", "preacher", "muffin", "marrow", "infant", "monster", "shark", "flag", "forehead"], "type": "FREE_RECALL", "conditions": [24, 800, "v", 12000], "trial": 2, "trial_type": "free-recall", "trial_index": 115, "time_elapsed": 732800, "internal_node_id": "0.0-88.0-0.0"}}, {"uniqueid": "MTK0218:3SBEHTYCWOACKUYDLWZJURELWHAYI6", "current_trial": 116, "dateTime": 1509552816174, "trialdata": {"rt": 7795, "key_press": 32, "type": "INSTRUCTIONS", "trial_type": "text", "trial_index": 116, "time_elapsed": 742598, "internal_node_id": "0.0-89.0"}}, {"uniqueid": "MTK0218:3SBEHTYCWOACKUYDLWZJURELWHAYI6", "current_trial": 117, "dateTime": 1509552830187, "trialdata": {"rt": [2636, 4788, 8548, 10940], "responses": ["17", "10", "17", "11"], "num1": [6, 2, 4, 3, 4], "num2": [4, 6, 8, 5, 8], "num3": [7, 2, 5, 3, 9], "type": "DISTRACTOR", "conditions": [24, 1600, "a", 12000], "trial": 3, "trial_type": "math-distractor", "trial_index": 117, "time_elapsed": 756611, "internal_node_id": "0.0-90.0"}}, {"uniqueid": "MTK0218:3SBEHTYCWOACKUYDLWZJURELWHAYI6", "current_trial": 118, "dateTime": 1509552833195, "trialdata": {"rt": -1, "stimulus": "<p id=\"stim\">10</p>", "key_press": -1, "trial_type": "single-stim", "trial_index": 118, "time_elapsed": 759619, "internal_node_id": "0.0-91.0-0.0"}}, {"uniqueid": "MTK0218:3SBEHTYCWOACKUYDLWZJURELWHAYI6", "current_trial": 119, "dateTime": 1509552834199, "trialdata": {"rt": -1, "stimulus": "<p id=\"stim\">9</p>", "key_press": -1, "trial_type": "single-stim", "trial_index": 119, "time_elapsed": 760623, "internal_node_id": "0.0-91.0-1.0"}}, {"uniqueid": "MTK0218:3SBEHTYCWOACKUYDLWZJURELWHAYI6", "current_trial": 120, "dateTime": 1509552835203, "trialdata": {"rt": -1, "stimulus": "<p id=\"stim\">8</p>", "key_press": -1, "trial_type": "single-stim", "trial_index": 120, "time_elapsed": 761627, "internal_node_id": "0.0-91.0-2.0"}}, {"uniqueid": "MTK0218:3SBEHTYCWOACKUYDLWZJURELWHAYI6", "current_trial": 121, "dateTime": 1509552836207, "trialdata": {"rt": -1, "stimulus": "<p id=\"stim\">7</p>", "key_press": -1, "trial_type": "single-stim", "trial_index": 121, "time_elapsed": 762631, "internal_node_id": "0.0-91.0-3.0"}}, {"uniqueid": "MTK0218:3SBEHTYCWOACKUYDLWZJURELWHAYI6", "current_trial": 122, "dateTime": 1509552837211, "trialdata": {"rt": -1, "stimulus": "<p id=\"stim\">6</p>", "key_press": -1, "trial_type": "single-stim", "trial_index": 122, "time_elapsed": 763635, "internal_node_id": "0.0-91.0-4.0"}}, {"uniqueid": "MTK0218:3SBEHTYCWOACKUYDLWZJURELWHAYI6", "current_trial": 123, "dateTime": 1509552838215, "trialdata": {"rt": -1, "stimulus": "<p id=\"stim\">5</p>", "key_press": -1, "trial_type": "single-stim", "trial_index": 123, "time_elapsed": 764639, "internal_node_id": "0.0-91.0-5.0"}}, {"uniqueid": "MTK0218:3SBEHTYCWOACKUYDLWZJURELWHAYI6", "current_trial": 124, "dateTime": 1509552839219, "trialdata": {"rt": -1, "stimulus": "<p id=\"stim\">4</p>", "key_press": -1, "trial_type": "single-stim", "trial_index": 124, "time_elapsed": 765643, "internal_node_id": "0.0-91.0-6.0"}}, {"uniqueid": "MTK0218:3SBEHTYCWOACKUYDLWZJURELWHAYI6", "current_trial": 125, "dateTime": 1509552840223, "trialdata": {"rt": -1, "stimulus": "<p id=\"stim\">3</p>", "key_press": -1, "trial_type": "single-stim", "trial_index": 125, "time_elapsed": 766647, "internal_node_id": "0.0-91.0-7.0"}}, {"uniqueid": "MTK0218:3SBEHTYCWOACKUYDLWZJURELWHAYI6", "current_trial": 126, "dateTime": 1509552841227, "trialdata": {"rt": -1, "stimulus": "<p id=\"stim\">2</p>", "key_press": -1, "trial_type": "single-stim", "trial_index": 126, "time_elapsed": 767651, "internal_node_id": "0.0-91.0-8.0"}}, {"uniqueid": "MTK0218:3SBEHTYCWOACKUYDLWZJURELWHAYI6", "current_trial": 127, "dateTime": 1509552842231, "trialdata": {"rt": -1, "stimulus": "<p id=\"stim\">1</p>", "key_press": -1, "trial_type": "single-stim", "trial_index": 127, "time_elapsed": 768655, "internal_node_id": "0.0-91.0-9.0"}}, {"uniqueid": "MTK0218:3SBEHTYCWOACKUYDLWZJURELWHAYI6", "current_trial": 128, "dateTime": 1509552843734, "trialdata": {"rt": -1, "stimulus": "<p id=\"stim\">+</p>", "key_press": -1, "type": "FIXATION", "trial_type": "single-stim", "trial_index": 128, "time_elapsed": 770158, "internal_node_id": "0.0-92.0-0.0"}}, {"uniqueid": "MTK0218:3SBEHTYCWOACKUYDLWZJURELWHAYI6", "current_trial": 129, "dateTime": 1509552846494, "trialdata": {"rt": -1000, "stimulus": "/static/audio/wordpool/FOX.wav", "key_press": -1, "type": "PRES_AUD", "word": "fox", "wordID": 597, "conditions": [24, 1600, "a", 12000], "trial": 3, "serialpos": 0, "trial_type": "single-audio", "trial_index": 129, "time_elapsed": 772918, "internal_node_id": "0.0-93.0"}}, {"uniqueid": "MTK0218:3SBEHTYCWOACKUYDLWZJURELWHAYI6", "current_trial": 130, "dateTime": 1509552849001, "trialdata": {"rt": -1000, "stimulus": "/static/audio/wordpool/FARMER.wav", "key_press": -1, "type": "PRES_AUD", "word": "farmer", "wordID": 552, "conditions": [24, 1600, "a", 12000], "trial": 3, "serialpos": 1, "trial_type": "single-audio", "trial_index": 130, "time_elapsed": 775425, "internal_node_id": "0.0-94.0"}}, {"uniqueid": "MTK0218:3SBEHTYCWOACKUYDLWZJURELWHAYI6", "current_trial": 131, "dateTime": 1509552851621, "trialdata": {"rt": -1000, "stimulus": "/static/audio/wordpool/LASER.wav", "key_press": -1, "type": "PRES_AUD", "word": "laser", "wordID": 800, "conditions": [24, 1600, "a", 12000], "trial": 3, "serialpos": 2, "trial_type": "single-audio", "trial_index": 131, "time_elapsed": 778045, "internal_node_id": "0.0-95.0"}}, {"uniqueid": "MTK0218:3SBEHTYCWOACKUYDLWZJURELWHAYI6", "current_trial": 132, "dateTime": 1509552854336, "trialdata": {"rt": -1000, "stimulus": "/static/audio/wordpool/COFFEE.wav", "key_press": -1, "type": "PRES_AUD", "word": "coffee", "wordID": 340, "conditions": [24, 1600, "a", 12000], "trial": 3, "serialpos": 3, "trial_type": "single-audio", "trial_index": 132, "time_elapsed": 780759, "internal_node_id": "0.0-96.0"}}, {"uniqueid": "MTK0218:3SBEHTYCWOACKUYDLWZJURELWHAYI6", "current_trial": 133, "dateTime": 1509552857122, "trialdata": {"rt": -1000, "stimulus": "/static/audio/wordpool/VIRUS.wav", "key_press": -1, "type": "PRES_AUD", "word": "virus", "wordID": 1571, "conditions": [24, 1600, "a", 12000], "trial": 3, "serialpos": 4, "trial_type": "single-audio", "trial_index": 133, "time_elapsed": 783546, "internal_node_id": "0.0-97.0"}}, {"uniqueid": "MTK0218:3SBEHTYCWOACKUYDLWZJURELWHAYI6", "current_trial": 134, "dateTime": 1509552859746, "trialdata": {"rt": -1000, "stimulus": "/static/audio/wordpool/FRIEND.wav", "key_press": -1, "type": "PRES_AUD", "word": "friend", "wordID": 605, "conditions": [24, 1600, "a", 12000], "trial": 3, "serialpos": 5, "trial_type": "single-audio", "trial_index": 134, "time_elapsed": 786169, "internal_node_id": "0.0-98.0"}}, {"uniqueid": "MTK0218:3SBEHTYCWOACKUYDLWZJURELWHAYI6", "current_trial": 135, "dateTime": 1509552862476, "trialdata": {"rt": -1000, "stimulus": "/static/audio/wordpool/HUSBAND.wav", "key_press": -1, "type": "PRES_AUD", "word": "husband", "wordID": 727, "conditions": [24, 1600, "a", 12000], "trial": 3, "serialpos": 6, "trial_type": "single-audio", "trial_index": 135, "time_elapsed": 788900, "internal_node_id": "0.0-99.0"}}, {"uniqueid": "MTK0218:3SBEHTYCWOACKUYDLWZJURELWHAYI6", "current_trial": 136, "dateTime": 1509552865121, "trialdata": {"rt": -1000, "stimulus": "/static/audio/wordpool/MACHINE.wav", "key_press": -1, "type": "PRES_AUD", "word": "machine", "wordID": 851, "conditions": [24, 1600, "a", 12000], "trial": 3, "serialpos": 7, "trial_type": "single-audio", "trial_index": 136, "time_elapsed": 791545, "internal_node_id": "0.0-100.0"}}, {"uniqueid": "MTK0218:3SBEHTYCWOACKUYDLWZJURELWHAYI6", "current_trial": 137, "dateTime": 1509552867594, "trialdata": {"rt": -1000, "stimulus": "/static/audio/wordpool/LAMP.wav", "key_press": -1, "type": "PRES_AUD", "word": "lamp", "wordID": 797, "conditions": [24, 1600, "a", 12000], "trial": 3, "serialpos": 8, "trial_type": "single-audio", "trial_index": 137, "time_elapsed": 794018, "internal_node_id": "0.0-101.0"}}, {"uniqueid": "MTK0218:3SBEHTYCWOACKUYDLWZJURELWHAYI6", "current_trial": 138, "dateTime": 1509552870194, "trialdata": {"rt": -1000, "stimulus": "/static/audio/wordpool/PASTRY.wav", "key_press": -1, "type": "PRES_AUD", "word": "pastry", "wordID": 1021, "conditions": [24, 1600, "a", 12000], "trial": 3, "serialpos": 9, "trial_type": "single-audio", "trial_index": 138, "time_elapsed": 796618, "internal_node_id": "0.0-102.0"}}, {"uniqueid": "MTK0218:3SBEHTYCWOACKUYDLWZJURELWHAYI6", "current_trial": 139, "dateTime": 1509552872720, "trialdata": {"rt": -1000, "stimulus": "/static/audio/wordpool/FIREPLACE.wav", "key_press": -1, "type": "PRES_AUD", "word": "fireplace", "wordID": 569, "conditions": [24, 1600, "a", 12000], "trial": 3, "serialpos": 10, "trial_type": "single-audio", "trial_index": 139, "time_elapsed": 799144, "internal_node_id": "0.0-103.0"}}, {"uniqueid": "MTK0218:3SBEHTYCWOACKUYDLWZJURELWHAYI6", "current_trial": 140, "dateTime": 1509552875276, "trialdata": {"rt": -1000, "stimulus": "/static/audio/wordpool/POSSUM.wav", "key_press": -1, "type": "PRES_AUD", "word": "possum", "wordID": 1111, "conditions": [24, 1600, "a", 12000], "trial": 3, "serialpos": 11, "trial_type": "single-audio", "trial_index": 140, "time_elapsed": 801699, "internal_node_id": "0.0-104.0"}}, {"uniqueid": "MTK0218:3SBEHTYCWOACKUYDLWZJURELWHAYI6", "current_trial": 141, "dateTime": 1509552878060, "trialdata": {"rt": -1000, "stimulus": "/static/audio/wordpool/CHAUFFEUR.wav", "key_press": -1, "type": "PRES_AUD", "word": "chauffeur", "wordID": 282, "conditions": [24, 1600, "a", 12000], "trial": 3, "serialpos": 12, "trial_type": "single-audio", "trial_index": 141, "time_elapsed": 804484, "internal_node_id": "0.0-105.0"}}, {"uniqueid": "MTK0218:3SBEHTYCWOACKUYDLWZJURELWHAYI6", "current_trial": 142, "dateTime": 1509552880753, "trialdata": {"rt": -1000, "stimulus": "/static/audio/wordpool/GUITAR.wav", "key_press": -1, "type": "PRES_AUD", "word": "guitar", "wordID": 669, "conditions": [24, 1600, "a", 12000], "trial": 3, "serialpos": 13, "trial_type": "single-audio", "trial_index": 142, "time_elapsed": 807177, "internal_node_id": "0.0-106.0"}}, {"uniqueid": "MTK0218:3SBEHTYCWOACKUYDLWZJURELWHAYI6", "current_trial": 143, "dateTime": 1509552883284, "trialdata": {"rt": -1000, "stimulus": "/static/audio/wordpool/BLADE.wav", "key_press": -1, "type": "PRES_AUD", "word": "blade", "wordID": 133, "conditions": [24, 1600, "a", 12000], "trial": 3, "serialpos": 14, "trial_type": "single-audio", "trial_index": 143, "time_elapsed": 809708, "internal_node_id": "0.0-107.0"}}, {"uniqueid": "MTK0218:3SBEHTYCWOACKUYDLWZJURELWHAYI6", "current_trial": 144, "dateTime": 1509552885937, "trialdata": {"rt": -1000, "stimulus": "/static/audio/wordpool/RAZOR.wav", "key_press": -1, "type": "PRES_AUD", "word": "razor", "wordID": 1170, "conditions": [24, 1600, "a", 12000], "trial": 3, "serialpos": 15, "trial_type": "single-audio", "trial_index": 144, "time_elapsed": 812361, "internal_node_id": "0.0-108.0"}}, {"uniqueid": "MTK0218:3SBEHTYCWOACKUYDLWZJURELWHAYI6", "current_trial": 145, "dateTime": 1509552888369, "trialdata": {"rt": -1000, "stimulus": "/static/audio/wordpool/SCARECROW.wav", "key_press": -1, "type": "PRES_AUD", "word": "scarecrow", "wordID": 1244, "conditions": [24, 1600, "a", 12000], "trial": 3, "serialpos": 16, "trial_type": "single-audio", "trial_index": 145, "time_elapsed": 814793, "internal_node_id": "0.0-109.0"}}, {"uniqueid": "MTK0218:3SBEHTYCWOACKUYDLWZJURELWHAYI6", "current_trial": 146, "dateTime": 1509552891109, "trialdata": {"rt": -1000, "stimulus": "/static/audio/wordpool/COBRA.wav", "key_press": -1, "type": "PRES_AUD", "word": "cobra", "wordID": 335, "conditions": [24, 1600, "a", 12000], "trial": 3, "serialpos": 17, "trial_type": "single-audio", "trial_index": 146, "time_elapsed": 817533, "internal_node_id": "0.0-110.0"}}, {"uniqueid": "MTK0218:3SBEHTYCWOACKUYDLWZJURELWHAYI6", "current_trial": 147, "dateTime": 1509552893661, "trialdata": {"rt": -1000, "stimulus": "/static/audio/wordpool/FOOT.wav", "key_press": -1, "type": "PRES_AUD", "word": "foot", "wordID": 589, "conditions": [24, 1600, "a", 12000], "trial": 3, "serialpos": 18, "trial_type": "single-audio", "trial_index": 147, "time_elapsed": 820085, "internal_node_id": "0.0-111.0"}}, {"uniqueid": "MTK0218:3SBEHTYCWOACKUYDLWZJURELWHAYI6", "current_trial": 148, "dateTime": 1509552896449, "trialdata": {"rt": -1000, "stimulus": "/static/audio/wordpool/BANJO.wav", "key_press": -1, "type": "PRES_AUD", "word": "banjo", "wordID": 81, "conditions": [24, 1600, "a", 12000], "trial": 3, "serialpos": 19, "trial_type": "single-audio", "trial_index": 148, "time_elapsed": 822873, "internal_node_id": "0.0-112.0"}}, {"uniqueid": "MTK0218:3SBEHTYCWOACKUYDLWZJURELWHAYI6", "current_trial": 149, "dateTime": 1509552899143, "trialdata": {"rt": -1000, "stimulus": "/static/audio/wordpool/BANQUET.wav", "key_press": -1, "type": "PRES_AUD", "word": "banquet", "wordID": 85, "conditions": [24, 1600, "a", 12000], "trial": 3, "serialpos": 20, "trial_type": "single-audio", "trial_index": 149, "time_elapsed": 825567, "internal_node_id": "0.0-113.0"}}, {"uniqueid": "MTK0218:3SBEHTYCWOACKUYDLWZJURELWHAYI6", "current_trial": 150, "dateTime": 1509552901718, "trialdata": {"rt": -1000, "stimulus": "/static/audio/wordpool/NOVEL.wav", "key_press": -1, "type": "PRES_AUD", "word": "novel", "wordID": 959, "conditions": [24, 1600, "a", 12000], "trial": 3, "serialpos": 21, "trial_type": "single-audio", "trial_index": 150, "time_elapsed": 828142, "internal_node_id": "0.0-114.0"}}, {"uniqueid": "MTK0218:3SBEHTYCWOACKUYDLWZJURELWHAYI6", "current_trial": 151, "dateTime": 1509552904286, "trialdata": {"rt": -1000, "stimulus": "/static/audio/wordpool/TUTU.wav", "key_press": -1, "type": "PRES_AUD", "word": "tutu", "wordID": 1523, "conditions": [24, 1600, "a", 12000], "trial": 3, "serialpos": 22, "trial_type": "single-audio", "trial_index": 151, "time_elapsed": 830710, "internal_node_id": "0.0-115.0"}}, {"uniqueid": "MTK0218:3SBEHTYCWOACKUYDLWZJURELWHAYI6", "current_trial": 152, "dateTime": 1509552906742, "trialdata": {"rt": -1000, "stimulus": "/static/audio/wordpool/SUSPECT.wav", "key_press": -1, "type": "PRES_AUD", "word": "suspect", "wordID": 1414, "conditions": [24, 1600, "a", 12000], "trial": 3, "serialpos": 23, "trial_type": "single-audio", "trial_index": 152, "time_elapsed": 833166, "internal_node_id": "0.0-116.0"}}, {"uniqueid": "MTK0218:3SBEHTYCWOACKUYDLWZJURELWHAYI6", "current_trial": 153, "dateTime": 1509552907996, "trialdata": {"rt": -1, "stimulus": "", "key_press": -1, "type": "PRE_RECALL_DELAY", "trial_type": "single-stim", "trial_index": 153, "time_elapsed": 834420, "internal_node_id": "0.0-117.0-0.0"}}, {"uniqueid": "MTK0218:3SBEHTYCWOACKUYDLWZJURELWHAYI6", "current_trial": 154, "dateTime": 1509552908497, "trialdata": {"rt": -1000, "stimulus": "/static/audio/400Hz.wav", "key_press": -1, "type": "PRE_RECALL_ALERT", "trial_type": "single-audio", "trial_index": 154, "time_elapsed": 834921, "internal_node_id": "0.0-118.0"}}, {"uniqueid": "MTK0218:3SBEHTYCWOACKUYDLWZJURELWHAYI6", "current_trial": 155, "dateTime": 1509552968502, "trialdata": {"rt": [3352, 3735, 5192, 7903, 9807, 10911, 12711, 14127, 16711, 20343, 26831, 30055, 32439, 35302, 37486, 39598, 43830, 46214, 47358, 52294, 55454, 59510], "recwords": ["suspect", "", "tut", "bango", "fox", "farmer", "friend", "pastry", "husband", "chauffer", "guatair", "novel", "laid", "razor", "machine", "famer", "lazer", "virus", "friend", "fireplace", "possum", "scarecrow"], "type": "FREE_RECALL", "conditions": [24, 1600, "a", 12000], "trial": 3, "trial_type": "free-recall", "trial_index": 155, "time_elapsed": 894924, "internal_node_id": "0.0-119.0-0.0"}}, {"uniqueid": "MTK0218:3SBEHTYCWOACKUYDLWZJURELWHAYI6", "current_trial": 156, "dateTime": 1509553004113, "trialdata": {"rt": 33609, "key_press": 32, "type": "INSTRUCTIONS", "trial_type": "text", "trial_index": 156, "time_elapsed": 930537, "internal_node_id": "0.0-120.0"}}, {"uniqueid": "MTK0218:3SBEHTYCWOACKUYDLWZJURELWHAYI6", "current_trial": 157, "dateTime": 1509553018118, "trialdata": {"rt": [3444, 6268, 9780, 11811], "responses": ["15", "11", "16", "15"], "num1": [4, 5, 7, 6, 9], "num2": [7, 2, 4, 3, 1], "num3": [4, 4, 5, 6, 5], "type": "DISTRACTOR", "conditions": [12, 800, "v", 12000], "trial": 4, "trial_type": "math-distractor", "trial_index": 157, "time_elapsed": 944542, "internal_node_id": "0.0-121.0"}}, {"uniqueid": "MTK0218:3SBEHTYCWOACKUYDLWZJURELWHAYI6", "current_trial": 158, "dateTime": 1509553021124, "trialdata": {"rt": -1, "stimulus": "<p id=\"stim\">10</p>", "key_press": -1, "trial_type": "single-stim", "trial_index": 158, "time_elapsed": 947548, "internal_node_id": "0.0-122.0-0.0"}}, {"uniqueid": "MTK0218:3SBEHTYCWOACKUYDLWZJURELWHAYI6", "current_trial": 159, "dateTime": 1509553022128, "trialdata": {"rt": -1, "stimulus": "<p id=\"stim\">9</p>", "key_press": -1, "trial_type": "single-stim", "trial_index": 159, "time_elapsed": 948552, "internal_node_id": "0.0-122.0-1.0"}}, {"uniqueid": "MTK0218:3SBEHTYCWOACKUYDLWZJURELWHAYI6", "current_trial": 160, "dateTime": 1509553023132, "trialdata": {"rt": -1, "stimulus": "<p id=\"stim\">8</p>", "key_press": -1, "trial_type": "single-stim", "trial_index": 160, "time_elapsed": 949556, "internal_node_id": "0.0-122.0-2.0"}}, {"uniqueid": "MTK0218:3SBEHTYCWOACKUYDLWZJURELWHAYI6", "current_trial": 161, "dateTime": 1509553024136, "trialdata": {"rt": -1, "stimulus": "<p id=\"stim\">7</p>", "key_press": -1, "trial_type": "single-stim", "trial_index": 161, "time_elapsed": 950560, "internal_node_id": "0.0-122.0-3.0"}}, {"uniqueid": "MTK0218:3SBEHTYCWOACKUYDLWZJURELWHAYI6", "current_trial": 162, "dateTime": 1509553025141, "trialdata": {"rt": -1, "stimulus": "<p id=\"stim\">6</p>", "key_press": -1, "trial_type": "single-stim", "trial_index": 162, "time_elapsed": 951565, "internal_node_id": "0.0-122.0-4.0"}}, {"uniqueid": "MTK0218:3SBEHTYCWOACKUYDLWZJURELWHAYI6", "current_trial": 163, "dateTime": 1509553026145, "trialdata": {"rt": -1, "stimulus": "<p id=\"stim\">5</p>", "key_press": -1, "trial_type": "single-stim", "trial_index": 163, "time_elapsed": 952568, "internal_node_id": "0.0-122.0-5.0"}}, {"uniqueid": "MTK0218:3SBEHTYCWOACKUYDLWZJURELWHAYI6", "current_trial": 164, "dateTime": 1509553027149, "trialdata": {"rt": -1, "stimulus": "<p id=\"stim\">4</p>", "key_press": -1, "trial_type": "single-stim", "trial_index": 164, "time_elapsed": 953573, "internal_node_id": "0.0-122.0-6.0"}}, {"uniqueid": "MTK0218:3SBEHTYCWOACKUYDLWZJURELWHAYI6", "current_trial": 165, "dateTime": 1509553028153, "trialdata": {"rt": -1, "stimulus": "<p id=\"stim\">3</p>", "key_press": -1, "trial_type": "single-stim", "trial_index": 165, "time_elapsed": 954577, "internal_node_id": "0.0-122.0-7.0"}}, {"uniqueid": "MTK0218:3SBEHTYCWOACKUYDLWZJURELWHAYI6", "current_trial": 166, "dateTime": 1509553029157, "trialdata": {"rt": -1, "stimulus": "<p id=\"stim\">2</p>", "key_press": -1, "trial_type": "single-stim", "trial_index": 166, "time_elapsed": 955581, "internal_node_id": "0.0-122.0-8.0"}}, {"uniqueid": "MTK0218:3SBEHTYCWOACKUYDLWZJURELWHAYI6", "current_trial": 167, "dateTime": 1509553030161, "trialdata": {"rt": -1, "stimulus": "<p id=\"stim\">1</p>", "key_press": -1, "trial_type": "single-stim", "trial_index": 167, "time_elapsed": 956585, "internal_node_id": "0.0-122.0-9.0"}}, {"uniqueid": "MTK0218:3SBEHTYCWOACKUYDLWZJURELWHAYI6", "current_trial": 168, "dateTime": 1509553031664, "trialdata": {"rt": -1, "stimulus": "<p id=\"stim\">+</p>", "key_press": -1, "type": "FIXATION", "trial_type": "single-stim", "trial_index": 168, "time_elapsed": 958088, "internal_node_id": "0.0-123.0-0.0"}}, {"uniqueid": "MTK0218:3SBEHTYCWOACKUYDLWZJURELWHAYI6", "current_trial": 169, "dateTime": 1509553032465, "trialdata": {"rt": -1, "stimulus": "<p id=\"stim\">GIRL</p>", "key_press": -1, "type": "PRES_VIS", "word": "girl", "wordID": 636, "conditions": [12, 800, "v", 12000], "trial": 4, "serialpos": 0, "trial_type": "single-stim", "trial_index": 169, "time_elapsed": 958889, "internal_node_id": "0.0-124.0"}}, {"uniqueid": "MTK0218:3SBEHTYCWOACKUYDLWZJURELWHAYI6", "current_trial": 170, "dateTime": 1509553034357, "trialdata": {"rt": -1, "stimulus": "<p id=\"stim\">MATTRESS</p>", "key_press": -1, "type": "PRES_VIS", "word": "mattress", "wordID": 878, "conditions": [12, 800, "v", 12000], "trial": 4, "serialpos": 1, "trial_type": "single-stim", "trial_index": 170, "time_elapsed": 960781, "internal_node_id": "0.0-125.0"}}, {"uniqueid": "MTK0218:3SBEHTYCWOACKUYDLWZJURELWHAYI6", "current_trial": 171, "dateTime": 1509553036133, "trialdata": {"rt": -1, "stimulus": "<p id=\"stim\">COOK</p>", "key_press": -1, "type": "PRES_VIS", "word": "cook", "wordID": 371, "conditions": [12, 800, "v", 12000], "trial": 4, "serialpos": 2, "trial_type": "single-stim", "trial_index": 171, "time_elapsed": 962557, "internal_node_id": "0.0-126.0"}}, {"uniqueid": "MTK0218:3SBEHTYCWOACKUYDLWZJURELWHAYI6", "current_trial": 172, "dateTime": 1509553037871, "trialdata": {"rt": -1, "stimulus": "<p id=\"stim\">BANKER</p>", "key_press": -1, "type": "PRES_VIS", "word": "banker", "wordID": 83, "conditions": [12, 800, "v", 12000], "trial": 4, "serialpos": 3, "trial_type": "single-stim", "trial_index": 172, "time_elapsed": 964295, "internal_node_id": "0.0-127.0"}}, {"uniqueid": "MTK0218:3SBEHTYCWOACKUYDLWZJURELWHAYI6", "current_trial": 173, "dateTime": 1509553039673, "trialdata": {"rt": -1, "stimulus": "<p id=\"stim\">SCISSORS</p>", "key_press": -1, "type": "PRES_VIS", "word": "scissors", "wordID": 1249, "conditions": [12, 800, "v", 12000], "trial": 4, "serialpos": 4, "trial_type": "single-stim", "trial_index": 173, "time_elapsed": 966097, "internal_node_id": "0.0-128.0"}}, {"uniqueid": "MTK0218:3SBEHTYCWOACKUYDLWZJURELWHAYI6", "current_trial": 174, "dateTime": 1509553041449, "trialdata": {"rt": -1, "stimulus": "<p id=\"stim\">ROCKET</p>", "key_press": -1, "type": "PRES_VIS", "word": "rocket", "wordID": 1201, "conditions": [12, 800, "v", 12000], "trial": 4, "serialpos": 5, "trial_type": "single-stim", "trial_index": 174, "time_elapsed": 967873, "internal_node_id": "0.0-129.0"}}, {"uniqueid": "MTK0218:3SBEHTYCWOACKUYDLWZJURELWHAYI6", "current_trial": 175, "dateTime": 1509553043417, "trialdata": {"rt": -1, "stimulus": "<p id=\"stim\">FRANCE</p>", "key_press": -1, "type": "PRES_VIS", "word": "france", "wordID": 600, "conditions": [12, 800, "v", 12000], "trial": 4, "serialpos": 6, "trial_type": "single-stim", "trial_index": 175, "time_elapsed": 969841, "internal_node_id": "0.0-130.0"}}, {"uniqueid": "MTK0218:3SBEHTYCWOACKUYDLWZJURELWHAYI6", "current_trial": 176, "dateTime": 1509553045275, "trialdata": {"rt": -1, "stimulus": "<p id=\"stim\">LONDON</p>", "key_press": -1, "type": "PRES_VIS", "word": "london", "wordID": 842, "conditions": [12, 800, "v", 12000], "trial": 4, "serialpos": 7, "trial_type": "single-stim", "trial_index": 176, "time_elapsed": 971698, "internal_node_id": "0.0-131.0"}}, {"uniqueid": "MTK0218:3SBEHTYCWOACKUYDLWZJURELWHAYI6", "current_trial": 177, "dateTime": 1509553046986, "trialdata": {"rt": -1, "stimulus": "<p id=\"stim\">COUCH</p>", "key_press": -1, "type": "PRES_VIS", "word": "couch", "wordID": 385, "conditions": [12, 800, "v", 12000], "trial": 4, "serialpos": 8, "trial_type": "single-stim", "trial_index": 177, "time_elapsed": 973410, "internal_node_id": "0.0-132.0"}}, {"uniqueid": "MTK0218:3SBEHTYCWOACKUYDLWZJURELWHAYI6", "current_trial": 178, "dateTime": 1509553048948, "trialdata": {"rt": -1, "stimulus": "<p id=\"stim\">GLASS</p>", "key_press": -1, "type": "PRES_VIS", "word": "glass", "wordID": 638, "conditions": [12, 800, "v", 12000], "trial": 4, "serialpos": 9, "trial_type": "single-stim", "trial_index": 178, "time_elapsed": 975372, "internal_node_id": "0.0-133.0"}}, {"uniqueid": "MTK0218:3SBEHTYCWOACKUYDLWZJURELWHAYI6", "current_trial": 179, "dateTime": 1509553050683, "trialdata": {"rt": -1, "stimulus": "<p id=\"stim\">HARP</p>", "key_press": -1, "type": "PRES_VIS", "word": "harp", "wordID": 688, "conditions": [12, 800, "v", 12000], "trial": 4, "serialpos": 10, "trial_type": "single-stim", "trial_index": 179, "time_elapsed": 977107, "internal_node_id": "0.0-134.0"}}, {"uniqueid": "MTK0218:3SBEHTYCWOACKUYDLWZJURELWHAYI6", "current_trial": 180, "dateTime": 1509553052581, "trialdata": {"rt": -1, "stimulus": "<p id=\"stim\">HONEY</p>", "key_press": -1, "type": "PRES_VIS", "word": "honey", "wordID": 712, "conditions": [12, 800, "v", 12000], "trial": 4, "serialpos": 11, "trial_type": "single-stim", "trial_index": 180, "time_elapsed": 979005, "internal_node_id": "0.0-135.0"}}, {"uniqueid": "MTK0218:3SBEHTYCWOACKUYDLWZJURELWHAYI6", "current_trial": 181, "dateTime": 1509553055077, "trialdata": {"rt": -1, "stimulus": "", "key_press": -1, "type": "PRE_RECALL_DELAY", "trial_type": "single-stim", "trial_index": 181, "time_elapsed": 981500, "internal_node_id": "0.0-136.0-0.0"}}, {"uniqueid": "MTK0218:3SBEHTYCWOACKUYDLWZJURELWHAYI6", "current_trial": 182, "dateTime": 1509553055578, "trialdata": {"rt": -1000, "stimulus": "/static/audio/400Hz.wav", "key_press": -1, "type": "PRE_RECALL_ALERT", "trial_type": "single-audio", "trial_index": 182, "time_elapsed": 982002, "internal_node_id": "0.0-137.0"}}, {"uniqueid": "MTK0218:3SBEHTYCWOACKUYDLWZJURELWHAYI6", "current_trial": 183, "dateTime": 1509553115587, "trialdata": {"rt": [1834, 3978, 5057, 7857, 12061, 14821, 16117, 18149, 20029, 27893, 31869, 36357, 38501, 39805, 41773, 44469, 49723, 55545], "recwords": ["frsnce", "london", "couch", "mattress", "girl", "class", "banker", "honey", "hard", "france", "matress", "glass", "honey", "banker", "girl", "wide", "hard", "scissors"], "type": "FREE_RECALL", "conditions": [12, 800, "v", 12000], "trial": 4, "trial_type": "free-recall", "trial_index": 183, "time_elapsed": 1042008, "internal_node_id": "0.0-138.0-0.0"}}, {"uniqueid": "MTK0218:3SBEHTYCWOACKUYDLWZJURELWHAYI6", "current_trial": 184, "dateTime": 1509553139438, "trialdata": {"rt": 21846, "key_press": 32, "type": "INSTRUCTIONS", "trial_type": "text", "trial_index": 184, "time_elapsed": 1065862, "internal_node_id": "0.0-139.0"}}, {"uniqueid": "MTK0218:3SBEHTYCWOACKUYDLWZJURELWHAYI6", "current_trial": 185, "dateTime": 1509553165445, "trialdata": {"rt": [2796, 5268, 11034, 12706, 15882, 23676], "responses": ["15", "10", "22", "16", "15", "25"], "num1": [3, 1, 6, 9, 2, 8, 2], "num2": [9, 6, 7, 1, 6, 8, 6], "num3": [3, 3, 9, 6, 7, 9, 1], "type": "DISTRACTOR", "conditions": [24, 1600, "v", 24000], "trial": 5, "trial_type": "math-distractor", "trial_index": 185, "time_elapsed": 1091869, "internal_node_id": "0.0-140.0"}}, {"uniqueid": "MTK0218:3SBEHTYCWOACKUYDLWZJURELWHAYI6", "current_trial": 186, "dateTime": 1509553168451, "trialdata": {"rt": -1, "stimulus": "<p id=\"stim\">10</p>", "key_press": -1, "trial_type": "single-stim", "trial_index": 186, "time_elapsed": 1094875, "internal_node_id": "0.0-141.0-0.0"}}, {"uniqueid": "MTK0218:3SBEHTYCWOACKUYDLWZJURELWHAYI6", "current_trial": 187, "dateTime": 1509553169455, "trialdata": {"rt": -1, "stimulus": "<p id=\"stim\">9</p>", "key_press": -1, "trial_type": "single-stim", "trial_index": 187, "time_elapsed": 1095879, "internal_node_id": "0.0-141.0-1.0"}}, {"uniqueid": "MTK0218:3SBEHTYCWOACKUYDLWZJURELWHAYI6", "current_trial": 188, "dateTime": 1509553170459, "trialdata": {"rt": -1, "stimulus": "<p id=\"stim\">8</p>", "key_press": -1, "trial_type": "single-stim", "trial_index": 188, "time_elapsed": 1096883, "internal_node_id": "0.0-141.0-2.0"}}, {"uniqueid": "MTK0218:3SBEHTYCWOACKUYDLWZJURELWHAYI6", "current_trial": 189, "dateTime": 1509553171463, "trialdata": {"rt": -1, "stimulus": "<p id=\"stim\">7</p>", "key_press": -1, "trial_type": "single-stim", "trial_index": 189, "time_elapsed": 1097887, "internal_node_id": "0.0-141.0-3.0"}}, {"uniqueid": "MTK0218:3SBEHTYCWOACKUYDLWZJURELWHAYI6", "current_trial": 190, "dateTime": 1509553172467, "trialdata": {"rt": -1, "stimulus": "<p id=\"stim\">6</p>", "key_press": -1, "trial_type": "single-stim", "trial_index": 190, "time_elapsed": 1098891, "internal_node_id": "0.0-141.0-4.0"}}, {"uniqueid": "MTK0218:3SBEHTYCWOACKUYDLWZJURELWHAYI6", "current_trial": 191, "dateTime": 1509553173471, "trialdata": {"rt": -1, "stimulus": "<p id=\"stim\">5</p>", "key_press": -1, "trial_type": "single-stim", "trial_index": 191, "time_elapsed": 1099895, "internal_node_id": "0.0-141.0-5.0"}}, {"uniqueid": "MTK0218:3SBEHTYCWOACKUYDLWZJURELWHAYI6", "current_trial": 192, "dateTime": 1509553174476, "trialdata": {"rt": -1, "stimulus": "<p id=\"stim\">4</p>", "key_press": -1, "trial_type": "single-stim", "trial_index": 192, "time_elapsed": 1100900, "internal_node_id": "0.0-141.0-6.0"}}, {"uniqueid": "MTK0218:3SBEHTYCWOACKUYDLWZJURELWHAYI6", "current_trial": 193, "dateTime": 1509553175479, "trialdata": {"rt": -1, "stimulus": "<p id=\"stim\">3</p>", "key_press": -1, "trial_type": "single-stim", "trial_index": 193, "time_elapsed": 1101903, "internal_node_id": "0.0-141.0-7.0"}}, {"uniqueid": "MTK0218:3SBEHTYCWOACKUYDLWZJURELWHAYI6", "current_trial": 194, "dateTime": 1509553176484, "trialdata": {"rt": -1, "stimulus": "<p id=\"stim\">2</p>", "key_press": -1, "trial_type": "single-stim", "trial_index": 194, "time_elapsed": 1102908, "internal_node_id": "0.0-141.0-8.0"}}, {"uniqueid": "MTK0218:3SBEHTYCWOACKUYDLWZJURELWHAYI6", "current_trial": 195, "dateTime": 1509553177488, "trialdata": {"rt": -1, "stimulus": "<p id=\"stim\">1</p>", "key_press": -1, "trial_type": "single-stim", "trial_index": 195, "time_elapsed": 1103912, "internal_node_id": "0.0-141.0-9.0"}}, {"uniqueid": "MTK0218:3SBEHTYCWOACKUYDLWZJURELWHAYI6", "current_trial": 196, "dateTime": 1509553178991, "trialdata": {"rt": -1, "stimulus": "<p id=\"stim\">+</p>", "key_press": -1, "type": "FIXATION", "trial_type": "single-stim", "trial_index": 196, "time_elapsed": 1105415, "internal_node_id": "0.0-142.0-0.0"}}, {"uniqueid": "MTK0218:3SBEHTYCWOACKUYDLWZJURELWHAYI6", "current_trial": 197, "dateTime": 1509553180593, "trialdata": {"rt": -1, "stimulus": "<p id=\"stim\">CLOTHES</p>", "key_press": -1, "type": "PRES_VIS", "word": "clothes", "wordID": 326, "conditions": [24, 1600, "v", 24000], "trial": 5, "serialpos": 0, "trial_type": "single-stim", "trial_index": 197, "time_elapsed": 1107017, "internal_node_id": "0.0-143.0"}}, {"uniqueid": "MTK0218:3SBEHTYCWOACKUYDLWZJURELWHAYI6", "current_trial": 198, "dateTime": 1509553183311, "trialdata": {"rt": -1, "stimulus": "<p id=\"stim\">BRANDY</p>", "key_press": -1, "type": "PRES_VIS", "word": "brandy", "wordID": 168, "conditions": [24, 1600, "v", 24000], "trial": 5, "serialpos": 1, "trial_type": "single-stim", "trial_index": 198, "time_elapsed": 1109735, "internal_node_id": "0.0-144.0"}}, {"uniqueid": "MTK0218:3SBEHTYCWOACKUYDLWZJURELWHAYI6", "current_trial": 199, "dateTime": 1509553185741, "trialdata": {"rt": -1, "stimulus": "<p id=\"stim\">JELLY</p>", "key_press": -1, "type": "PRES_VIS", "word": "jelly", "wordID": 754, "conditions": [24, 1600, "v", 24000], "trial": 5, "serialpos": 2, "trial_type": "single-stim", "trial_index": 199, "time_elapsed": 1112165, "internal_node_id": "0.0-145.0"}}, {"uniqueid": "MTK0218:3SBEHTYCWOACKUYDLWZJURELWHAYI6", "current_trial": 200, "dateTime": 1509553188178, "trialdata": {"rt": -1, "stimulus": "<p id=\"stim\">SWAMP</p>", "key_press": -1, "type": "PRES_VIS", "word": "swamp", "wordID": 1415, "conditions": [24, 1600, "v", 24000], "trial": 5, "serialpos": 3, "trial_type": "single-stim", "trial_index": 200, "time_elapsed": 1114602, "internal_node_id": "0.0-146.0"}}, {"uniqueid": "MTK0218:3SBEHTYCWOACKUYDLWZJURELWHAYI6", "current_trial": 201, "dateTime": 1509553190761, "trialdata": {"rt": -1, "stimulus": "<p id=\"stim\">ICING</p>", "key_press": -1, "type": "PRES_VIS", "word": "icing", "wordID": 731, "conditions": [24, 1600, "v", 24000], "trial": 5, "serialpos": 4, "trial_type": "single-stim", "trial_index": 201, "time_elapsed": 1117185, "internal_node_id": "0.0-147.0"}}, {"uniqueid": "MTK0218:3SBEHTYCWOACKUYDLWZJURELWHAYI6", "current_trial": 202, "dateTime": 1509553193355, "trialdata": {"rt": -1, "stimulus": "<p id=\"stim\">COSTUME</p>", "key_press": -1, "type": "PRES_VIS", "word": "costume", "wordID": 382, "conditions": [24, 1600, "v", 24000], "trial": 5, "serialpos": 5, "trial_type": "single-stim", "trial_index": 202, "time_elapsed": 1119779, "internal_node_id": "0.0-148.0"}}, {"uniqueid": "MTK0218:3SBEHTYCWOACKUYDLWZJURELWHAYI6", "current_trial": 203, "dateTime": 1509553195851, "trialdata": {"rt": -1, "stimulus": "<p id=\"stim\">BRICK</p>", "key_press": -1, "type": "PRES_VIS", "word": "brick", "wordID": 171, "conditions": [24, 1600, "v", 24000], "trial": 5, "serialpos": 6, "trial_type": "single-stim", "trial_index": 203, "time_elapsed": 1122275, "internal_node_id": "0.0-149.0"}}, {"uniqueid": "MTK0218:3SBEHTYCWOACKUYDLWZJURELWHAYI6", "current_trial": 204, "dateTime": 1509553198469, "trialdata": {"rt": -1, "stimulus": "<p id=\"stim\">BUBBLE</p>", "key_press": -1, "type": "PRES_VIS", "word": "bubble", "wordID": 182, "conditions": [24, 1600, "v", 24000], "trial": 5, "serialpos": 7, "trial_type": "single-stim", "trial_index": 204, "time_elapsed": 1124892, "internal_node_id": "0.0-150.0"}}, {"uniqueid": "MTK0218:3SBEHTYCWOACKUYDLWZJURELWHAYI6", "current_trial": 205, "dateTime": 1509553201069, "trialdata": {"rt": -1, "stimulus": "<p id=\"stim\">HUMAN</p>", "key_press": -1, "type": "PRES_VIS", "word": "human", "wordID": 725, "conditions": [24, 1600, "v", 24000], "trial": 5, "serialpos": 8, "trial_type": "single-stim", "trial_index": 205, "time_elapsed": 1127493, "internal_node_id": "0.0-151.0"}}, {"uniqueid": "MTK0218:3SBEHTYCWOACKUYDLWZJURELWHAYI6", "current_trial": 206, "dateTime": 1509553203483, "trialdata": {"rt": -1, "stimulus": "<p id=\"stim\">WAITER</p>", "key_press": -1, "type": "PRES_VIS", "word": "waiter", "wordID": 1579, "conditions": [24, 1600, "v", 24000], "trial": 5, "serialpos": 9, "trial_type": "single-stim", "trial_index": 206, "time_elapsed": 1129907, "internal_node_id": "0.0-152.0"}}, {"uniqueid": "MTK0218:3SBEHTYCWOACKUYDLWZJURELWHAYI6", "current_trial": 207, "dateTime": 1509553206072, "trialdata": {"rt": -1, "stimulus": "<p id=\"stim\">WAITRESS</p>", "key_press": -1, "type": "PRES_VIS", "word": "waitress", "wordID": 1580, "conditions": [24, 1600, "v", 24000], "trial": 5, "serialpos": 10, "trial_type": "single-stim", "trial_index": 207, "time_elapsed": 1132496, "internal_node_id": "0.0-153.0"}}, {"uniqueid": "MTK0218:3SBEHTYCWOACKUYDLWZJURELWHAYI6", "current_trial": 208, "dateTime": 1509553208614, "trialdata": {"rt": -1, "stimulus": "<p id=\"stim\">DENIM</p>", "key_press": -1, "type": "PRES_VIS", "word": "denim", "wordID": 445, "conditions": [24, 1600, "v", 24000], "trial": 5, "serialpos": 11, "trial_type": "single-stim", "trial_index": 208, "time_elapsed": 1135037, "internal_node_id": "0.0-154.0"}}, {"uniqueid": "MTK0218:3SBEHTYCWOACKUYDLWZJURELWHAYI6", "current_trial": 209, "dateTime": 1509553211324, "trialdata": {"rt": -1, "stimulus": "<p id=\"stim\">DAUGHTER</p>", "key_press": -1, "type": "PRES_VIS", "word": "daughter", "wordID": 441, "conditions": [24, 1600, "v", 24000], "trial": 5, "serialpos": 12, "trial_type": "single-stim", "trial_index": 209, "time_elapsed": 1137748, "internal_node_id": "0.0-155.0"}}, {"uniqueid": "MTK0218:3SBEHTYCWOACKUYDLWZJURELWHAYI6", "current_trial": 210, "dateTime": 1509553214058, "trialdata": {"rt": -1, "stimulus": "<p id=\"stim\">GLOBE</p>", "key_press": -1, "type": "PRES_VIS", "word": "globe", "wordID": 640, "conditions": [24, 1600, "v", 24000], "trial": 5, "serialpos": 13, "trial_type": "single-stim", "trial_index": 210, "time_elapsed": 1140482, "internal_node_id": "0.0-156.0"}}, {"uniqueid": "MTK0218:3SBEHTYCWOACKUYDLWZJURELWHAYI6", "current_trial": 211, "dateTime": 1509553216576, "trialdata": {"rt": -1, "stimulus": "<p id=\"stim\">JUNGLE</p>", "key_press": -1, "type": "PRES_VIS", "word": "jungle", "wordID": 763, "conditions": [24, 1600, "v", 24000], "trial": 5, "serialpos": 14, "trial_type": "single-stim", "trial_index": 211, "time_elapsed": 1143000, "internal_node_id": "0.0-157.0"}}, {"uniqueid": "MTK0218:3SBEHTYCWOACKUYDLWZJURELWHAYI6", "current_trial": 212, "dateTime": 1509553219003, "trialdata": {"rt": -1, "stimulus": "<p id=\"stim\">VELVET</p>", "key_press": -1, "type": "PRES_VIS", "word": "velvet", "wordID": 1554, "conditions": [24, 1600, "v", 24000], "trial": 5, "serialpos": 15, "trial_type": "single-stim", "trial_index": 212, "time_elapsed": 1145427, "internal_node_id": "0.0-158.0"}}, {"uniqueid": "MTK0218:3SBEHTYCWOACKUYDLWZJURELWHAYI6", "current_trial": 213, "dateTime": 1509553221666, "trialdata": {"rt": -1, "stimulus": "<p id=\"stim\">DINER</p>", "key_press": -1, "type": "PRES_VIS", "word": "diner", "wordID": 466, "conditions": [24, 1600, "v", 24000], "trial": 5, "serialpos": 16, "trial_type": "single-stim", "trial_index": 213, "time_elapsed": 1148090, "internal_node_id": "0.0-159.0"}}, {"uniqueid": "MTK0218:3SBEHTYCWOACKUYDLWZJURELWHAYI6", "current_trial": 214, "dateTime": 1509553224272, "trialdata": {"rt": -1, "stimulus": "<p id=\"stim\">JURY</p>", "key_press": -1, "type": "PRES_VIS", "word": "jury", "wordID": 765, "conditions": [24, 1600, "v", 24000], "trial": 5, "serialpos": 17, "trial_type": "single-stim", "trial_index": 214, "time_elapsed": 1150696, "internal_node_id": "0.0-160.0"}}, {"uniqueid": "MTK0218:3SBEHTYCWOACKUYDLWZJURELWHAYI6", "current_trial": 215, "dateTime": 1509553226774, "trialdata": {"rt": -1, "stimulus": "<p id=\"stim\">JUDGE</p>", "key_press": -1, "type": "PRES_VIS", "word": "judge", "wordID": 760, "conditions": [24, 1600, "v", 24000], "trial": 5, "serialpos": 18, "trial_type": "single-stim", "trial_index": 215, "time_elapsed": 1153198, "internal_node_id": "0.0-161.0"}}, {"uniqueid": "MTK0218:3SBEHTYCWOACKUYDLWZJURELWHAYI6", "current_trial": 216, "dateTime": 1509553229484, "trialdata": {"rt": -1, "stimulus": "<p id=\"stim\">GANGSTER</p>", "key_press": -1, "type": "PRES_VIS", "word": "gangster", "wordID": 619, "conditions": [24, 1600, "v", 24000], "trial": 5, "serialpos": 19, "trial_type": "single-stim", "trial_index": 216, "time_elapsed": 1155908, "internal_node_id": "0.0-162.0"}}, {"uniqueid": "MTK0218:3SBEHTYCWOACKUYDLWZJURELWHAYI6", "current_trial": 217, "dateTime": 1509553232224, "trialdata": {"rt": -1, "stimulus": "<p id=\"stim\">WOMAN</p>", "key_press": -1, "type": "PRES_VIS", "word": "woman", "wordID": 1619, "conditions": [24, 1600, "v", 24000], "trial": 5, "serialpos": 20, "trial_type": "single-stim", "trial_index": 217, "time_elapsed": 1158648, "internal_node_id": "0.0-163.0"}}, {"uniqueid": "MTK0218:3SBEHTYCWOACKUYDLWZJURELWHAYI6", "current_trial": 218, "dateTime": 1509553234702, "trialdata": {"rt": -1, "stimulus": "<p id=\"stim\">TRUCK</p>", "key_press": -1, "type": "PRES_VIS", "word": "truck", "wordID": 1511, "conditions": [24, 1600, "v", 24000], "trial": 5, "serialpos": 21, "trial_type": "single-stim", "trial_index": 218, "time_elapsed": 1161126, "internal_node_id": "0.0-164.0"}}, {"uniqueid": "MTK0218:3SBEHTYCWOACKUYDLWZJURELWHAYI6", "current_trial": 219, "dateTime": 1509553237122, "trialdata": {"rt": -1, "stimulus": "<p id=\"stim\">SCALPEL</p>", "key_press": -1, "type": "PRES_VIS", "word": "scalpel", "wordID": 1242, "conditions": [24, 1600, "v", 24000], "trial": 5, "serialpos": 22, "trial_type": "single-stim", "trial_index": 219, "time_elapsed": 1163546, "internal_node_id": "0.0-165.0"}}, {"uniqueid": "MTK0218:3SBEHTYCWOACKUYDLWZJURELWHAYI6", "current_trial": 220, "dateTime": 1509553239676, "trialdata": {"rt": -1, "stimulus": "<p id=\"stim\">BUTCHER</p>", "key_press": -1, "type": "PRES_VIS", "word": "butcher", "wordID": 202, "conditions": [24, 1600, "v", 24000], "trial": 5, "serialpos": 23, "trial_type": "single-stim", "trial_index": 220, "time_elapsed": 1166100, "internal_node_id": "0.0-166.0"}}, {"uniqueid": "MTK0218:3SBEHTYCWOACKUYDLWZJURELWHAYI6", "current_trial": 221, "dateTime": 1509553241992, "trialdata": {"rt": -1, "stimulus": "", "key_press": -1, "type": "PRE_RECALL_DELAY", "trial_type": "single-stim", "trial_index": 221, "time_elapsed": 1168415, "internal_node_id": "0.0-167.0-0.0"}}, {"uniqueid": "MTK0218:3SBEHTYCWOACKUYDLWZJURELWHAYI6", "current_trial": 222, "dateTime": 1509553242493, "trialdata": {"rt": -1000, "stimulus": "/static/audio/400Hz.wav", "key_press": -1, "type": "PRE_RECALL_ALERT", "trial_type": "single-audio", "trial_index": 222, "time_elapsed": 1168917, "internal_node_id": "0.0-168.0"}}, {"uniqueid": "MTK0218:3SBEHTYCWOACKUYDLWZJURELWHAYI6", "current_trial": 223, "dateTime": 1509553302502, "trialdata": {"rt": [3326, 7598, 10102, 11982, 13997, 16245, 18542, 20773, 27992, 34783, 39968, 44752, 49744, 51384], "recwords": ["daughter", "woman", "water", "waitress", "bubble", "costume", "swap", "icing", "brandy", "scapler", "human", "daughter", "bubble", "water"], "type": "FREE_RECALL", "conditions": [24, 1600, "v", 24000], "trial": 5, "trial_type": "free-recall", "trial_index": 223, "time_elapsed": 1228921, "internal_node_id": "0.0-169.0-0.0"}}, {"uniqueid": "MTK0218:3SBEHTYCWOACKUYDLWZJURELWHAYI6", "current_trial": 224, "dateTime": 1509553327268, "trialdata": {"rt": 22762, "key_press": 32, "type": "INSTRUCTIONS", "trial_type": "text", "trial_index": 224, "time_elapsed": 1253692, "internal_node_id": "0.0-170.0"}}, {"uniqueid": "MTK0218:3SBEHTYCWOACKUYDLWZJURELWHAYI6", "current_trial": 225, "dateTime": 1509553353277, "trialdata": {"rt": [2707, 4555, 6147, 11571, 14427, 16851, 20402, 22826], "responses": ["15", "9", "11", "20", "13", "14", "16", "9"], "num1": [9, 6, 2, 7, 4, 3, 2, 2, 1], "num2": [4, 2, 8, 8, 6, 8, 6, 4, 2], "num3": [2, 1, 1, 5, 3, 3, 8, 3, 9], "type": "DISTRACTOR", "conditions": [24, 800, "a", 24000], "trial": 6, "trial_type": "math-distractor", "trial_index": 225, "time_elapsed": 1279701, "internal_node_id": "0.0-171.0"}}, {"uniqueid": "MTK0218:3SBEHTYCWOACKUYDLWZJURELWHAYI6", "current_trial": 226, "dateTime": 1509553356281, "trialdata": {"rt": -1, "stimulus": "<p id=\"stim\">10</p>", "key_press": -1, "trial_type": "single-stim", "trial_index": 226, "time_elapsed": 1282705, "internal_node_id": "0.0-172.0-0.0"}}, {"uniqueid": "MTK0218:3SBEHTYCWOACKUYDLWZJURELWHAYI6", "current_trial": 227, "dateTime": 1509553357283, "trialdata": {"rt": -1, "stimulus": "<p id=\"stim\">9</p>", "key_press": -1, "trial_type": "single-stim", "trial_index": 227, "time_elapsed": 1283707, "internal_node_id": "0.0-172.0-1.0"}}, {"uniqueid": "MTK0218:3SBEHTYCWOACKUYDLWZJURELWHAYI6", "current_trial": 228, "dateTime": 1509553358285, "trialdata": {"rt": -1, "stimulus": "<p id=\"stim\">8</p>", "key_press": -1, "trial_type": "single-stim", "trial_index": 228, "time_elapsed": 1284709, "internal_node_id": "0.0-172.0-2.0"}}, {"uniqueid": "MTK0218:3SBEHTYCWOACKUYDLWZJURELWHAYI6", "current_trial": 229, "dateTime": 1509553359287, "trialdata": {"rt": -1, "stimulus": "<p id=\"stim\">7</p>", "key_press": -1, "trial_type": "single-stim", "trial_index": 229, "time_elapsed": 1285711, "internal_node_id": "0.0-172.0-3.0"}}, {"uniqueid": "MTK0218:3SBEHTYCWOACKUYDLWZJURELWHAYI6", "current_trial": 230, "dateTime": 1509553360288, "trialdata": {"rt": -1, "stimulus": "<p id=\"stim\">6</p>", "key_press": -1, "trial_type": "single-stim", "trial_index": 230, "time_elapsed": 1286712, "internal_node_id": "0.0-172.0-4.0"}}, {"uniqueid": "MTK0218:3SBEHTYCWOACKUYDLWZJURELWHAYI6", "current_trial": 231, "dateTime": 1509553361290, "trialdata": {"rt": -1, "stimulus": "<p id=\"stim\">5</p>", "key_press": -1, "trial_type": "single-stim", "trial_index": 231, "time_elapsed": 1287713, "internal_node_id": "0.0-172.0-5.0"}}, {"uniqueid": "MTK0218:3SBEHTYCWOACKUYDLWZJURELWHAYI6", "current_trial": 232, "dateTime": 1509553362292, "trialdata": {"rt": -1, "stimulus": "<p id=\"stim\">4</p>", "key_press": -1, "trial_type": "single-stim", "trial_index": 232, "time_elapsed": 1288716, "internal_node_id": "0.0-172.0-6.0"}}, {"uniqueid": "MTK0218:3SBEHTYCWOACKUYDLWZJURELWHAYI6", "current_trial": 233, "dateTime": 1509553363294, "trialdata": {"rt": -1, "stimulus": "<p id=\"stim\">3</p>", "key_press": -1, "trial_type": "single-stim", "trial_index": 233, "time_elapsed": 1289718, "internal_node_id": "0.0-172.0-7.0"}}, {"uniqueid": "MTK0218:3SBEHTYCWOACKUYDLWZJURELWHAYI6", "current_trial": 234, "dateTime": 1509553364298, "trialdata": {"rt": -1, "stimulus": "<p id=\"stim\">2</p>", "key_press": -1, "trial_type": "single-stim", "trial_index": 234, "time_elapsed": 1290722, "internal_node_id": "0.0-172.0-8.0"}}, {"uniqueid": "MTK0218:3SBEHTYCWOACKUYDLWZJURELWHAYI6", "current_trial": 235, "dateTime": 1509553365302, "trialdata": {"rt": -1, "stimulus": "<p id=\"stim\">1</p>", "key_press": -1, "trial_type": "single-stim", "trial_index": 235, "time_elapsed": 1291726, "internal_node_id": "0.0-172.0-9.0"}}, {"uniqueid": "MTK0218:3SBEHTYCWOACKUYDLWZJURELWHAYI6", "current_trial": 236, "dateTime": 1509553366805, "trialdata": {"rt": -1, "stimulus": "<p id=\"stim\">+</p>", "key_press": -1, "type": "FIXATION", "trial_type": "single-stim", "trial_index": 236, "time_elapsed": 1293229, "internal_node_id": "0.0-173.0-0.0"}}, {"uniqueid": "MTK0218:3SBEHTYCWOACKUYDLWZJURELWHAYI6", "current_trial": 237, "dateTime": 1509553368531, "trialdata": {"rt": -1000, "stimulus": "/static/audio/wordpool/GOBLIN.wav", "key_press": -1, "type": "PRES_AUD", "word": "goblin", "wordID": 644, "conditions": [24, 800, "a", 24000], "trial": 6, "serialpos": 0, "trial_type": "single-audio", "trial_index": 237, "time_elapsed": 1294954, "internal_node_id": "0.0-174.0"}}, {"uniqueid": "MTK0218:3SBEHTYCWOACKUYDLWZJURELWHAYI6", "current_trial": 238, "dateTime": 1509553370358, "trialdata": {"rt": -1000, "stimulus": "/static/audio/wordpool/DANCER.wav", "key_press": -1, "type": "PRES_AUD", "word": "dancer", "wordID": 436, "conditions": [24, 800, "a", 24000], "trial": 6, "serialpos": 1, "trial_type": "single-audio", "trial_index": 238, "time_elapsed": 1296782, "internal_node_id": "0.0-175.0"}}, {"uniqueid": "MTK0218:3SBEHTYCWOACKUYDLWZJURELWHAYI6", "current_trial": 239, "dateTime": 1509553372083, "trialdata": {"rt": -1000, "stimulus": "/static/audio/wordpool/BROTHER.wav", "key_press": -1, "type": "PRES_AUD", "word": "brother", "wordID": 178, "conditions": [24, 800, "a", 24000], "trial": 6, "serialpos": 2, "trial_type": "single-audio", "trial_index": 239, "time_elapsed": 1298507, "internal_node_id": "0.0-176.0"}}, {"uniqueid": "MTK0218:3SBEHTYCWOACKUYDLWZJURELWHAYI6", "current_trial": 240, "dateTime": 1509553373987, "trialdata": {"rt": -1000, "stimulus": "/static/audio/wordpool/SALMON.wav", "key_press": -1, "type": "PRES_AUD", "word": "salmon", "wordID": 1226, "conditions": [24, 800, "a", 24000], "trial": 6, "serialpos": 3, "trial_type": "single-audio", "trial_index": 240, "time_elapsed": 1300411, "internal_node_id": "0.0-177.0"}}, {"uniqueid": "MTK0218:3SBEHTYCWOACKUYDLWZJURELWHAYI6", "current_trial": 241, "dateTime": 1509553375699, "trialdata": {"rt": -1000, "stimulus": "/static/audio/wordpool/SCALLOP.wav", "key_press": -1, "type": "PRES_AUD", "word": "scallop", "wordID": 1241, "conditions": [24, 800, "a", 24000], "trial": 6, "serialpos": 4, "trial_type": "single-audio", "trial_index": 241, "time_elapsed": 1302123, "internal_node_id": "0.0-178.0"}}, {"uniqueid": "MTK0218:3SBEHTYCWOACKUYDLWZJURELWHAYI6", "current_trial": 242, "dateTime": 1509553377701, "trialdata": {"rt": -1000, "stimulus": "/static/audio/wordpool/PICTURE.wav", "key_press": -1, "type": "PRES_AUD", "word": "picture", "wordID": 1060, "conditions": [24, 800, "a", 24000], "trial": 6, "serialpos": 5, "trial_type": "single-audio", "trial_index": 242, "time_elapsed": 1304125, "internal_node_id": "0.0-179.0"}}, {"uniqueid": "MTK0218:3SBEHTYCWOACKUYDLWZJURELWHAYI6", "current_trial": 243, "dateTime": 1509553379496, "trialdata": {"rt": -1000, "stimulus": "/static/audio/wordpool/GAVEL.wav", "key_press": -1, "type": "PRES_AUD", "word": "gavel", "wordID": 626, "conditions": [24, 800, "a", 24000], "trial": 6, "serialpos": 6, "trial_type": "single-audio", "trial_index": 243, "time_elapsed": 1305920, "internal_node_id": "0.0-180.0"}}, {"uniqueid": "MTK0218:3SBEHTYCWOACKUYDLWZJURELWHAYI6", "current_trial": 244, "dateTime": 1509553381446, "trialdata": {"rt": -1000, "stimulus": "/static/audio/wordpool/SIBLING.wav", "key_press": -1, "type": "PRES_AUD", "word": "sibling", "wordID": 1300, "conditions": [24, 800, "a", 24000], "trial": 6, "serialpos": 7, "trial_type": "single-audio", "trial_index": 244, "time_elapsed": 1307870, "internal_node_id": "0.0-181.0"}}, {"uniqueid": "MTK0218:3SBEHTYCWOACKUYDLWZJURELWHAYI6", "current_trial": 245, "dateTime": 1509553383316, "trialdata": {"rt": -1000, "stimulus": "/static/audio/wordpool/MESSAGE.wav", "key_press": -1, "type": "PRES_AUD", "word": "message", "wordID": 887, "conditions": [24, 800, "a", 24000], "trial": 6, "serialpos": 8, "trial_type": "single-audio", "trial_index": 245, "time_elapsed": 1309739, "internal_node_id": "0.0-182.0"}}, {"uniqueid": "MTK0218:3SBEHTYCWOACKUYDLWZJURELWHAYI6", "current_trial": 246, "dateTime": 1509553385185, "trialdata": {"rt": -1000, "stimulus": "/static/audio/wordpool/BRACES.wav", "key_press": -1, "type": "PRES_AUD", "word": "braces", "wordID": 163, "conditions": [24, 800, "a", 24000], "trial": 6, "serialpos": 9, "trial_type": "single-audio", "trial_index": 246, "time_elapsed": 1311608, "internal_node_id": "0.0-183.0"}}, {"uniqueid": "MTK0218:3SBEHTYCWOACKUYDLWZJURELWHAYI6", "current_trial": 247, "dateTime": 1509553386973, "trialdata": {"rt": -1000, "stimulus": "/static/audio/wordpool/WARDROBE.wav", "key_press": -1, "type": "PRES_AUD", "word": "wardrobe", "wordID": 1586, "conditions": [24, 800, "a", 24000], "trial": 6, "serialpos": 10, "trial_type": "single-audio", "trial_index": 247, "time_elapsed": 1313396, "internal_node_id": "0.0-184.0"}}, {"uniqueid": "MTK0218:3SBEHTYCWOACKUYDLWZJURELWHAYI6", "current_trial": 248, "dateTime": 1509553388917, "trialdata": {"rt": -1000, "stimulus": "/static/audio/wordpool/CASHEW.wav", "key_press": -1, "type": "PRES_AUD", "word": "cashew", "wordID": 252, "conditions": [24, 800, "a", 24000], "trial": 6, "serialpos": 11, "trial_type": "single-audio", "trial_index": 248, "time_elapsed": 1315341, "internal_node_id": "0.0-185.0"}}, {"uniqueid": "MTK0218:3SBEHTYCWOACKUYDLWZJURELWHAYI6", "current_trial": 249, "dateTime": 1509553390706, "trialdata": {"rt": -1000, "stimulus": "/static/audio/wordpool/CUPBOARD.wav", "key_press": -1, "type": "PRES_AUD", "word": "cupboard", "wordID": 424, "conditions": [24, 800, "a", 24000], "trial": 6, "serialpos": 12, "trial_type": "single-audio", "trial_index": 249, "time_elapsed": 1317130, "internal_node_id": "0.0-186.0"}}, {"uniqueid": "MTK0218:3SBEHTYCWOACKUYDLWZJURELWHAYI6", "current_trial": 250, "dateTime": 1509553392588, "trialdata": {"rt": -1000, "stimulus": "/static/audio/wordpool/KITCHEN.wav", "key_press": -1, "type": "PRES_AUD", "word": "kitchen", "wordID": 777, "conditions": [24, 800, "a", 24000], "trial": 6, "serialpos": 13, "trial_type": "single-audio", "trial_index": 250, "time_elapsed": 1319012, "internal_node_id": "0.0-187.0"}}, {"uniqueid": "MTK0218:3SBEHTYCWOACKUYDLWZJURELWHAYI6", "current_trial": 251, "dateTime": 1509553394588, "trialdata": {"rt": -1000, "stimulus": "/static/audio/wordpool/JELLO.wav", "key_press": -1, "type": "PRES_AUD", "word": "jello", "wordID": 753, "conditions": [24, 800, "a", 24000], "trial": 6, "serialpos": 14, "trial_type": "single-audio", "trial_index": 251, "time_elapsed": 1321012, "internal_node_id": "0.0-188.0"}}, {"uniqueid": "MTK0218:3SBEHTYCWOACKUYDLWZJURELWHAYI6", "current_trial": 252, "dateTime": 1509553396417, "trialdata": {"rt": -1000, "stimulus": "/static/audio/wordpool/PATIENT.wav", "key_press": -1, "type": "PRES_AUD", "word": "patient", "wordID": 1023, "conditions": [24, 800, "a", 24000], "trial": 6, "serialpos": 15, "trial_type": "single-audio", "trial_index": 252, "time_elapsed": 1322841, "internal_node_id": "0.0-189.0"}}, {"uniqueid": "MTK0218:3SBEHTYCWOACKUYDLWZJURELWHAYI6", "current_trial": 253, "dateTime": 1509553398100, "trialdata": {"rt": -1000, "stimulus": "/static/audio/wordpool/JAPAN.wav", "key_press": -1, "type": "PRES_AUD", "word": "japan", "wordID": 748, "conditions": [24, 800, "a", 24000], "trial": 6, "serialpos": 16, "trial_type": "single-audio", "trial_index": 253, "time_elapsed": 1324524, "internal_node_id": "0.0-190.0"}}, {"uniqueid": "MTK0218:3SBEHTYCWOACKUYDLWZJURELWHAYI6", "current_trial": 254, "dateTime": 1509553400039, "trialdata": {"rt": -1000, "stimulus": "/static/audio/wordpool/VIKING.wav", "key_press": -1, "type": "PRES_AUD", "word": "viking", "wordID": 1564, "conditions": [24, 800, "a", 24000], "trial": 6, "serialpos": 17, "trial_type": "single-audio", "trial_index": 254, "time_elapsed": 1326463, "internal_node_id": "0.0-191.0"}}, {"uniqueid": "MTK0218:3SBEHTYCWOACKUYDLWZJURELWHAYI6", "current_trial": 255, "dateTime": 1509553401855, "trialdata": {"rt": -1000, "stimulus": "/static/audio/wordpool/DRESSER.wav", "key_press": -1, "type": "PRES_AUD", "word": "dresser", "wordID": 495, "conditions": [24, 800, "a", 24000], "trial": 6, "serialpos": 18, "trial_type": "single-audio", "trial_index": 255, "time_elapsed": 1328279, "internal_node_id": "0.0-192.0"}}, {"uniqueid": "MTK0218:3SBEHTYCWOACKUYDLWZJURELWHAYI6", "current_trial": 256, "dateTime": 1509553403462, "trialdata": {"rt": -1000, "stimulus": "/static/audio/wordpool/EUROPE.wav", "key_press": -1, "type": "PRES_AUD", "word": "europe", "wordID": 540, "conditions": [24, 800, "a", 24000], "trial": 6, "serialpos": 19, "trial_type": "single-audio", "trial_index": 256, "time_elapsed": 1329886, "internal_node_id": "0.0-193.0"}}, {"uniqueid": "MTK0218:3SBEHTYCWOACKUYDLWZJURELWHAYI6", "current_trial": 257, "dateTime": 1509553405435, "trialdata": {"rt": -1000, "stimulus": "/static/audio/wordpool/GALLON.wav", "key_press": -1, "type": "PRES_AUD", "word": "gallon", "wordID": 617, "conditions": [24, 800, "a", 24000], "trial": 6, "serialpos": 20, "trial_type": "single-audio", "trial_index": 257, "time_elapsed": 1331859, "internal_node_id": "0.0-194.0"}}, {"uniqueid": "MTK0218:3SBEHTYCWOACKUYDLWZJURELWHAYI6", "current_trial": 258, "dateTime": 1509553407098, "trialdata": {"rt": -1000, "stimulus": "/static/audio/wordpool/CRITIC.wav", "key_press": -1, "type": "PRES_AUD", "word": "critic", "wordID": 409, "conditions": [24, 800, "a", 24000], "trial": 6, "serialpos": 21, "trial_type": "single-audio", "trial_index": 258, "time_elapsed": 1333522, "internal_node_id": "0.0-195.0"}}, {"uniqueid": "MTK0218:3SBEHTYCWOACKUYDLWZJURELWHAYI6", "current_trial": 259, "dateTime": 1509553409060, "trialdata": {"rt": -1000, "stimulus": "/static/audio/wordpool/NURSE.wav", "key_press": -1, "type": "PRES_AUD", "word": "nurse", "wordID": 962, "conditions": [24, 800, "a", 24000], "trial": 6, "serialpos": 22, "trial_type": "single-audio", "trial_index": 259, "time_elapsed": 1335484, "internal_node_id": "0.0-196.0"}}, {"uniqueid": "MTK0218:3SBEHTYCWOACKUYDLWZJURELWHAYI6", "current_trial": 260, "dateTime": 1509553410993, "trialdata": {"rt": -1000, "stimulus": "/static/audio/wordpool/FREEZER.wav", "key_press": -1, "type": "PRES_AUD", "word": "freezer", "wordID": 603, "conditions": [24, 800, "a", 24000], "trial": 6, "serialpos": 23, "trial_type": "single-audio", "trial_index": 260, "time_elapsed": 1337417, "internal_node_id": "0.0-197.0"}}, {"uniqueid": "MTK0218:3SBEHTYCWOACKUYDLWZJURELWHAYI6", "current_trial": 261, "dateTime": 1509553412249, "trialdata": {"rt": -1, "stimulus": "", "key_press": -1, "type": "PRE_RECALL_DELAY", "trial_type": "single-stim", "trial_index": 261, "time_elapsed": 1338673, "internal_node_id": "0.0-198.0-0.0"}}, {"uniqueid": "MTK0218:3SBEHTYCWOACKUYDLWZJURELWHAYI6", "current_trial": 262, "dateTime": 1509553412751, "trialdata": {"rt": -1000, "stimulus": "/static/audio/400Hz.wav", "key_press": -1, "type": "PRE_RECALL_ALERT", "trial_type": "single-audio", "trial_index": 262, "time_elapsed": 1339175, "internal_node_id": "0.0-199.0"}}, {"uniqueid": "MTK0218:3SBEHTYCWOACKUYDLWZJURELWHAYI6", "current_trial": 263, "dateTime": 1509553472756, "trialdata": {"rt": [2372, 3628, 5892, 7636, 10332, 13852, 17308, 24668, 29963, 32243, 33699, 35491, 38635, 43115, 45395, 47235, 51163, 55659], "recwords": ["frezzer", "nurse", "gallon", "europe", "dresser", "japan", "kitchen", "cabnets", "warddrobe", "braces", "dancer", "siblings", "scap", "picture", "sibling", "message", "cashew", "kitchen"], "type": "FREE_RECALL", "conditions": [24, 800, "a", 24000], "trial": 6, "trial_type": "free-recall", "trial_index": 263, "time_elapsed": 1399177, "internal_node_id": "0.0-200.0-0.0"}}, {"uniqueid": "MTK0218:3SBEHTYCWOACKUYDLWZJURELWHAYI6", "current_trial": 264, "dateTime": 1509553484166, "trialdata": {"rt": 9406, "key_press": 32, "type": "INSTRUCTIONS", "trial_type": "text", "trial_index": 264, "time_elapsed": 1410590, "internal_node_id": "0.0-201.0"}}, {"uniqueid": "MTK0218:3SBEHTYCWOACKUYDLWZJURELWHAYI6", "current_trial": 265, "dateTime": 1509553510176, "trialdata": {"rt": [3524, 5908, 8883, 10836, 14323, 17171, 19635, 21491, 23579], "responses": ["13", "11", "15", "16", "14", "19", "13", "11", "16"], "num1": [2, 3, 8, 8, 9, 9, 1, 9, 4, 7], "num2": [6, 5, 4, 6, 2, 9, 7, 1, 4, 4], "num3": [5, 3, 3, 2, 3, 1, 5, 1, 8, 3], "type": "DISTRACTOR", "conditions": [12, 800, "v", 24000], "trial": 7, "trial_type": "math-distractor", "trial_index": 265, "time_elapsed": 1436600, "internal_node_id": "0.0-202.0"}}, {"uniqueid": "MTK0218:3SBEHTYCWOACKUYDLWZJURELWHAYI6", "current_trial": 266, "d