{"condition": 0, "counterbalance": 1940, "assignmentId": "32VNZTT0A8B9FMNCMC5LSUB5SRWR4I", "workerId": "MTK0777", "hitId": "3AFT28WXLF9Y3WWHP7LJ3GKZ6G8OID", "currenttrial": 626, "bonus": 0, "data": [{"uniqueid": "MTK0777:32VNZTT0A8B9FMNCMC5LSUB5SRWR4I", "current_trial": 0, "dateTime": 1512752438268, "trialdata": {"rt": 9731, "key_press": 13, "type": "INSTRUCTIONS", "trial_type": "text", "trial_index": 0, "time_elapsed": 9733, "internal_node_id": "0.0-0.0"}}, {"uniqueid": "MTK0777:32VNZTT0A8B9FMNCMC5LSUB5SRWR4I", "current_trial": 1, "dateTime": 1512752456762, "trialdata": {"rt": 18493, "key_press": 32, "type": "INSTRUCTIONS", "trial_type": "text", "trial_index": 1, "time_elapsed": 28227, "internal_node_id": "0.0-1.0"}}, {"uniqueid": "MTK0777:32VNZTT0A8B9FMNCMC5LSUB5SRWR4I", "current_trial": 2, "dateTime": 1512752469739, "trialdata": {"rt": [3879, 12959], "responses": ["ocena", "ocean"], "type": "AUDIO_TEST", "trial_type": "audio-test", "trial_index": 2, "time_elapsed": 41204, "internal_node_id": "0.0-2.0"}}, {"uniqueid": "MTK0777:32VNZTT0A8B9FMNCMC5LSUB5SRWR4I", "current_trial": 3, "dateTime": 1512752474898, "trialdata": {"rt": [5155], "responses": ["crystal"], "type": "AUDIO_TEST", "trial_type": "audio-test", "trial_index": 3, "time_elapsed": 46363, "internal_node_id": "0.0-3.0"}}, {"uniqueid": "MTK0777:32VNZTT0A8B9FMNCMC5LSUB5SRWR4I", "current_trial": 4, "dateTime": 1512752483395, "trialdata": {"rt": [8491], "responses": ["spice"], "type": "AUDIO_TEST", "trial_type": "audio-test", "trial_index": 4, "time_elapsed": 54859, "internal_node_id": "0.0-4.0"}}, {"uniqueid": "MTK0777:32VNZTT0A8B9FMNCMC5LSUB5SRWR4I", "current_trial": 5, "dateTime": 1512752503732, "trialdata": {"rt": 19584, "responses": "{\"Q0\":\"2am\",\"Q1\":\"9am\",\"Q2\":\"5\"}", "type": "SLEEP_SURVEY", "trial_type": "survey-text", "trial_index": 5, "time_elapsed": 75197, "internal_node_id": "0.0-5.0"}}, {"uniqueid": "MTK0777:32VNZTT0A8B9FMNCMC5LSUB5SRWR4I", "current_trial": 6, "dateTime": 1512752549475, "trialdata": {"rt": 44741, "key_press": 13, "type": "INSTRUCTIONS", "trial_type": "text", "trial_index": 6, "time_elapsed": 120940, "internal_node_id": "0.0-6.0"}}, {"uniqueid": "MTK0777:32VNZTT0A8B9FMNCMC5LSUB5SRWR4I", "current_trial": 7, "dateTime": 1512752566201, "trialdata": {"rt": 16224, "key_press": 13, "type": "INSTRUCTIONS", "trial_type": "text", "trial_index": 7, "time_elapsed": 137666, "internal_node_id": "0.0-7.0"}}, {"uniqueid": "MTK0777:32VNZTT0A8B9FMNCMC5LSUB5SRWR4I", "current_trial": 8, "dateTime": 1512752573497, "trialdata": {"rt": 6795, "key_press": 13, "type": "INSTRUCTIONS", "trial_type": "text", "trial_index": 8, "time_elapsed": 144962, "internal_node_id": "0.0-8.0"}}, {"uniqueid": "MTK0777:32VNZTT0A8B9FMNCMC5LSUB5SRWR4I", "current_trial": 9, "dateTime": 1512752592510, "trialdata": {"rt": [3916, 6004, 9572, 13340, 15467, 17003], "responses": ["13", "9", "16", "25", "11", "12"], "num1": [3, 2, 8, 9, 2, 7, 2], "num2": [2, 6, 6, 8, 1, 3, 4], "num3": [8, 1, 2, 8, 8, 2, 5], "type": "DISTRACTOR", "conditions": [18, 1200, "a", 18000], "trial": 0, "trial_type": "math-distractor", "trial_index": 9, "time_elapsed": 163975, "internal_node_id": "0.0-9.0"}}, {"uniqueid": "MTK0777:32VNZTT0A8B9FMNCMC5LSUB5SRWR4I", "current_trial": 10, "dateTime": 1512752595512, "trialdata": {"rt": -1, "stimulus": "<p id=\"stim\">10</p>", "key_press": -1, "trial_type": "single-stim", "trial_index": 10, "time_elapsed": 166977, "internal_node_id": "0.0-10.0-0.0"}}, {"uniqueid": "MTK0777:32VNZTT0A8B9FMNCMC5LSUB5SRWR4I", "current_trial": 11, "dateTime": 1512752596514, "trialdata": {"rt": -1, "stimulus": "<p id=\"stim\">9</p>", "key_press": -1, "trial_type": "single-stim", "trial_index": 11, "time_elapsed": 167979, "internal_node_id": "0.0-10.0-1.0"}}, {"uniqueid": "MTK0777:32VNZTT0A8B9FMNCMC5LSUB5SRWR4I", "current_trial": 12, "dateTime": 1512752597515, "trialdata": {"rt": -1, "stimulus": "<p id=\"stim\">8</p>", "key_press": -1, "trial_type": "single-stim", "trial_index": 12, "time_elapsed": 168980, "internal_node_id": "0.0-10.0-2.0"}}, {"uniqueid": "MTK0777:32VNZTT0A8B9FMNCMC5LSUB5SRWR4I", "current_trial": 13, "dateTime": 1512752598518, "trialdata": {"rt": -1, "stimulus": "<p id=\"stim\">7</p>", "key_press": -1, "trial_type": "single-stim", "trial_index": 13, "time_elapsed": 169983, "internal_node_id": "0.0-10.0-3.0"}}, {"uniqueid": "MTK0777:32VNZTT0A8B9FMNCMC5LSUB5SRWR4I", "current_trial": 14, "dateTime": 1512752599519, "trialdata": {"rt": -1, "stimulus": "<p id=\"stim\">6</p>", "key_press": -1, "trial_type": "single-stim", "trial_index": 14, "time_elapsed": 170984, "internal_node_id": "0.0-10.0-4.0"}}, {"uniqueid": "MTK0777:32VNZTT0A8B9FMNCMC5LSUB5SRWR4I", "current_trial": 15, "dateTime": 1512752600520, "trialdata": {"rt": -1, "stimulus": "<p id=\"stim\">5</p>", "key_press": -1, "trial_type": "single-stim", "trial_index": 15, "time_elapsed": 171985, "internal_node_id": "0.0-10.0-5.0"}}, {"uniqueid": "MTK0777:32VNZTT0A8B9FMNCMC5LSUB5SRWR4I", "current_trial": 16, "dateTime": 1512752601521, "trialdata": {"rt": -1, "stimulus": "<p id=\"stim\">4</p>", "key_press": -1, "trial_type": "single-stim", "trial_index": 16, "time_elapsed": 172986, "internal_node_id": "0.0-10.0-6.0"}}, {"uniqueid": "MTK0777:32VNZTT0A8B9FMNCMC5LSUB5SRWR4I", "current_trial": 17, "dateTime": 1512752602523, "trialdata": {"rt": -1, "stimulus": "<p id=\"stim\">3</p>", "key_press": -1, "trial_type": "single-stim", "trial_index": 17, "time_elapsed": 173988, "internal_node_id": "0.0-10.0-7.0"}}, {"uniqueid": "MTK0777:32VNZTT0A8B9FMNCMC5LSUB5SRWR4I", "current_trial": 18, "dateTime": 1512752603525, "trialdata": {"rt": -1, "stimulus": "<p id=\"stim\">2</p>", "key_press": -1, "trial_type": "single-stim", "trial_index": 18, "time_elapsed": 174990, "internal_node_id": "0.0-10.0-8.0"}}, {"uniqueid": "MTK0777:32VNZTT0A8B9FMNCMC5LSUB5SRWR4I", "current_trial": 19, "dateTime": 1512752604527, "trialdata": {"rt": -1, "stimulus": "<p id=\"stim\">1</p>", "key_press": -1, "trial_type": "single-stim", "trial_index": 19, "time_elapsed": 175992, "internal_node_id": "0.0-10.0-9.0"}}, {"uniqueid": "MTK0777:32VNZTT0A8B9FMNCMC5LSUB5SRWR4I", "current_trial": 20, "dateTime": 1512752606028, "trialdata": {"rt": -1, "stimulus": "<p id=\"stim\">+</p>", "key_press": -1, "type": "FIXATION", "trial_type": "single-stim", "trial_index": 20, "time_elapsed": 177493, "internal_node_id": "0.0-11.0-0.0"}}, {"uniqueid": "MTK0777:32VNZTT0A8B9FMNCMC5LSUB5SRWR4I", "current_trial": 21, "dateTime": 1512752608071, "trialdata": {"rt": -1000, "stimulus": "/static/audio/wordpool/RIFLE.wav", "key_press": -1, "type": "PRES_AUD", "word": "rifle", "wordID": 1191, "conditions": [18, 1200, "a", 18000], "trial": 0, "serialpos": 0, "trial_type": "single-audio", "trial_index": 21, "time_elapsed": 179536, "internal_node_id": "0.0-12.0"}}, {"uniqueid": "MTK0777:32VNZTT0A8B9FMNCMC5LSUB5SRWR4I", "current_trial": 22, "dateTime": 1512752610172, "trialdata": {"rt": -1000, "stimulus": "/static/audio/wordpool/SPOUSE.wav", "key_press": -1, "type": "PRES_AUD", "word": "spouse", "wordID": 1357, "conditions": [18, 1200, "a", 18000], "trial": 0, "serialpos": 1, "trial_type": "single-audio", "trial_index": 22, "time_elapsed": 181637, "internal_node_id": "0.0-13.0"}}, {"uniqueid": "MTK0777:32VNZTT0A8B9FMNCMC5LSUB5SRWR4I", "current_trial": 23, "dateTime": 1512752612283, "trialdata": {"rt": -1000, "stimulus": "/static/audio/wordpool/HOSTESS.wav", "key_press": -1, "type": "PRES_AUD", "word": "hostess", "wordID": 722, "conditions": [18, 1200, "a", 18000], "trial": 0, "serialpos": 2, "trial_type": "single-audio", "trial_index": 23, "time_elapsed": 183748, "internal_node_id": "0.0-14.0"}}, {"uniqueid": "MTK0777:32VNZTT0A8B9FMNCMC5LSUB5SRWR4I", "current_trial": 24, "dateTime": 1512752614517, "trialdata": {"rt": -1000, "stimulus": "/static/audio/wordpool/FREEZER.wav", "key_press": -1, "type": "PRES_AUD", "word": "freezer", "wordID": 603, "conditions": [18, 1200, "a", 18000], "trial": 0, "serialpos": 3, "trial_type": "single-audio", "trial_index": 24, "time_elapsed": 185982, "internal_node_id": "0.0-15.0"}}, {"uniqueid": "MTK0777:32VNZTT0A8B9FMNCMC5LSUB5SRWR4I", "current_trial": 25, "dateTime": 1512752616612, "trialdata": {"rt": -1000, "stimulus": "/static/audio/wordpool/HOOD.wav", "key_press": -1, "type": "PRES_AUD", "word": "hood", "wordID": 713, "conditions": [18, 1200, "a", 18000], "trial": 0, "serialpos": 4, "trial_type": "single-audio", "trial_index": 25, "time_elapsed": 188077, "internal_node_id": "0.0-16.0"}}, {"uniqueid": "MTK0777:32VNZTT0A8B9FMNCMC5LSUB5SRWR4I", "current_trial": 26, "dateTime": 1512752618930, "trialdata": {"rt": -1000, "stimulus": "/static/audio/wordpool/RUST.wav", "key_press": -1, "type": "PRES_AUD", "word": "rust", "wordID": 1218, "conditions": [18, 1200, "a", 18000], "trial": 0, "serialpos": 5, "trial_type": "single-audio", "trial_index": 26, "time_elapsed": 190395, "internal_node_id": "0.0-17.0"}}, {"uniqueid": "MTK0777:32VNZTT0A8B9FMNCMC5LSUB5SRWR4I", "current_trial": 27, "dateTime": 1512752621234, "trialdata": {"rt": -1000, "stimulus": "/static/audio/wordpool/CELLAR.wav", "key_press": -1, "type": "PRES_AUD", "word": "cellar", "wordID": 266, "conditions": [18, 1200, "a", 18000], "trial": 0, "serialpos": 6, "trial_type": "single-audio", "trial_index": 27, "time_elapsed": 192698, "internal_node_id": "0.0-18.0"}}, {"uniqueid": "MTK0777:32VNZTT0A8B9FMNCMC5LSUB5SRWR4I", "current_trial": 28, "dateTime": 1512752623369, "trialdata": {"rt": -1000, "stimulus": "/static/audio/wordpool/VELVET.wav", "key_press": -1, "type": "PRES_AUD", "word": "velvet", "wordID": 1554, "conditions": [18, 1200, "a", 18000], "trial": 0, "serialpos": 7, "trial_type": "single-audio", "trial_index": 28, "time_elapsed": 194834, "internal_node_id": "0.0-19.0"}}, {"uniqueid": "MTK0777:32VNZTT0A8B9FMNCMC5LSUB5SRWR4I", "current_trial": 29, "dateTime": 1512752625556, "trialdata": {"rt": -1000, "stimulus": "/static/audio/wordpool/BARREL.wav", "key_press": -1, "type": "PRES_AUD", "word": "barrel", "wordID": 90, "conditions": [18, 1200, "a", 18000], "trial": 0, "serialpos": 8, "trial_type": "single-audio", "trial_index": 29, "time_elapsed": 197021, "internal_node_id": "0.0-20.0"}}, {"uniqueid": "MTK0777:32VNZTT0A8B9FMNCMC5LSUB5SRWR4I", "current_trial": 30, "dateTime": 1512752627681, "trialdata": {"rt": -1000, "stimulus": "/static/audio/wordpool/DORM.wav", "key_press": -1, "type": "PRES_AUD", "word": "dorm", "wordID": 487, "conditions": [18, 1200, "a", 18000], "trial": 0, "serialpos": 9, "trial_type": "single-audio", "trial_index": 30, "time_elapsed": 199145, "internal_node_id": "0.0-21.0"}}, {"uniqueid": "MTK0777:32VNZTT0A8B9FMNCMC5LSUB5SRWR4I", "current_trial": 31, "dateTime": 1512752629946, "trialdata": {"rt": -1000, "stimulus": "/static/audio/wordpool/BRANCH.wav", "key_press": -1, "type": "PRES_AUD", "word": "branch", "wordID": 167, "conditions": [18, 1200, "a", 18000], "trial": 0, "serialpos": 10, "trial_type": "single-audio", "trial_index": 31, "time_elapsed": 201411, "internal_node_id": "0.0-22.0"}}, {"uniqueid": "MTK0777:32VNZTT0A8B9FMNCMC5LSUB5SRWR4I", "current_trial": 32, "dateTime": 1512752632196, "trialdata": {"rt": -1000, "stimulus": "/static/audio/wordpool/BOYFRIEND.wav", "key_press": -1, "type": "PRES_AUD", "word": "boyfriend", "wordID": 161, "conditions": [18, 1200, "a", 18000], "trial": 0, "serialpos": 11, "trial_type": "single-audio", "trial_index": 32, "time_elapsed": 203660, "internal_node_id": "0.0-23.0"}}, {"uniqueid": "MTK0777:32VNZTT0A8B9FMNCMC5LSUB5SRWR4I", "current_trial": 33, "dateTime": 1512752634303, "trialdata": {"rt": -1000, "stimulus": "/static/audio/wordpool/STICKER.wav", "key_press": -1, "type": "PRES_AUD", "word": "sticker", "wordID": 1381, "conditions": [18, 1200, "a", 18000], "trial": 0, "serialpos": 12, "trial_type": "single-audio", "trial_index": 33, "time_elapsed": 205768, "internal_node_id": "0.0-24.0"}}, {"uniqueid": "MTK0777:32VNZTT0A8B9FMNCMC5LSUB5SRWR4I", "current_trial": 34, "dateTime": 1512752636430, "trialdata": {"rt": -1000, "stimulus": "/static/audio/wordpool/MUMMY.wav", "key_press": -1, "type": "PRES_AUD", "word": "mummy", "wordID": 931, "conditions": [18, 1200, "a", 18000], "trial": 0, "serialpos": 13, "trial_type": "single-audio", "trial_index": 34, "time_elapsed": 207894, "internal_node_id": "0.0-25.0"}}, {"uniqueid": "MTK0777:32VNZTT0A8B9FMNCMC5LSUB5SRWR4I", "current_trial": 35, "dateTime": 1512752638665, "trialdata": {"rt": -1000, "stimulus": "/static/audio/wordpool/GLASS.wav", "key_press": -1, "type": "PRES_AUD", "word": "glass", "wordID": 638, "conditions": [18, 1200, "a", 18000], "trial": 0, "serialpos": 14, "trial_type": "single-audio", "trial_index": 35, "time_elapsed": 210129, "internal_node_id": "0.0-26.0"}}, {"uniqueid": "MTK0777:32VNZTT0A8B9FMNCMC5LSUB5SRWR4I", "current_trial": 36, "dateTime": 1512752640837, "trialdata": {"rt": -1000, "stimulus": "/static/audio/wordpool/CASHIER.wav", "key_press": -1, "type": "PRES_AUD", "word": "cashier", "wordID": 253, "conditions": [18, 1200, "a", 18000], "trial": 0, "serialpos": 15, "trial_type": "single-audio", "trial_index": 36, "time_elapsed": 212301, "internal_node_id": "0.0-27.0"}}, {"uniqueid": "MTK0777:32VNZTT0A8B9FMNCMC5LSUB5SRWR4I", "current_trial": 37, "dateTime": 1512752643152, "trialdata": {"rt": -1000, "stimulus": "/static/audio/wordpool/STAMP.wav", "key_press": -1, "type": "PRES_AUD", "word": "stamp", "wordID": 1369, "conditions": [18, 1200, "a", 18000], "trial": 0, "serialpos": 16, "trial_type": "single-audio", "trial_index": 37, "time_elapsed": 214617, "internal_node_id": "0.0-28.0"}}, {"uniqueid": "MTK0777:32VNZTT0A8B9FMNCMC5LSUB5SRWR4I", "current_trial": 38, "dateTime": 1512752645411, "trialdata": {"rt": -1000, "stimulus": "/static/audio/wordpool/TRUCK.wav", "key_press": -1, "type": "PRES_AUD", "word": "truck", "wordID": 1511, "conditions": [18, 1200, "a", 18000], "trial": 0, "serialpos": 17, "trial_type": "single-audio", "trial_index": 38, "time_elapsed": 216876, "internal_node_id": "0.0-29.0"}}, {"uniqueid": "MTK0777:32VNZTT0A8B9FMNCMC5LSUB5SRWR4I", "current_trial": 39, "dateTime": 1512752646679, "trialdata": {"rt": -1, "stimulus": "", "key_press": -1, "type": "PRE_RECALL_DELAY", "trial_type": "single-stim", "trial_index": 39, "time_elapsed": 218144, "internal_node_id": "0.0-30.0-0.0"}}, {"uniqueid": "MTK0777:32VNZTT0A8B9FMNCMC5LSUB5SRWR4I", "current_trial": 40, "dateTime": 1512752647182, "trialdata": {"rt": -1000, "stimulus": "/static/audio/400Hz.wav", "key_press": -1, "type": "PRE_RECALL_ALERT", "trial_type": "single-audio", "trial_index": 40, "time_elapsed": 218647, "internal_node_id": "0.0-31.0"}}, {"uniqueid": "MTK0777:32VNZTT0A8B9FMNCMC5LSUB5SRWR4I", "current_trial": 41, "dateTime": 1512752707187, "trialdata": {"rt": [7120, 10312, 15968, 19552, 21872, 25704, 28968, 32799, 33583, 41119, 55295, 57423], "recwords": ["rifle", "dorm", "boyfriend", "truck", "glass", "mummy", "cashier", "stamp", "", "branch", "n/a", "n/a"], "type": "FREE_RECALL", "conditions": [18, 1200, "a", 18000], "trial": 0, "trial_type": "free-recall", "trial_index": 41, "time_elapsed": 278650, "internal_node_id": "0.0-32.0-0.0"}}, {"uniqueid": "MTK0777:32VNZTT0A8B9FMNCMC5LSUB5SRWR4I", "current_trial": 42, "dateTime": 1512752711112, "trialdata": {"rt": 1923, "key_press": 13, "type": "INSTRUCTIONS", "trial_type": "text", "trial_index": 42, "time_elapsed": 282576, "internal_node_id": "0.0-33.0"}}, {"uniqueid": "MTK0777:32VNZTT0A8B9FMNCMC5LSUB5SRWR4I", "current_trial": 43, "dateTime": 1512752731116, "trialdata": {"rt": [2965, 5269, 8101, 9684, 11364, 13636, 15916], "responses": ["7", "14", "18", "7", "17", "19", "17"], "num1": [4, 1, 3, 4, 7, 4, 3, 4], "num2": [1, 9, 8, 2, 2, 9, 6, 8], "num3": [2, 4, 7, 1, 8, 6, 8, 7], "type": "DISTRACTOR", "conditions": [18, 1200, "v", 18000], "trial": 1, "trial_type": "math-distractor", "trial_index": 43, "time_elapsed": 302581, "internal_node_id": "0.0-34.0"}}, {"uniqueid": "MTK0777:32VNZTT0A8B9FMNCMC5LSUB5SRWR4I", "current_trial": 44, "dateTime": 1512752734117, "trialdata": {"rt": -1, "stimulus": "<p id=\"stim\">10</p>", "key_press": -1, "trial_type": "single-stim", "trial_index": 44, "time_elapsed": 305582, "internal_node_id": "0.0-35.0-0.0"}}, {"uniqueid": "MTK0777:32VNZTT0A8B9FMNCMC5LSUB5SRWR4I", "current_trial": 45, "dateTime": 1512752735119, "trialdata": {"rt": -1, "stimulus": "<p id=\"stim\">9</p>", "key_press": -1, "trial_type": "single-stim", "trial_index": 45, "time_elapsed": 306583, "internal_node_id": "0.0-35.0-1.0"}}, {"uniqueid": "MTK0777:32VNZTT0A8B9FMNCMC5LSUB5SRWR4I", "current_trial": 46, "dateTime": 1512752736120, "trialdata": {"rt": -1, "stimulus": "<p id=\"stim\">8</p>", "key_press": -1, "trial_type": "single-stim", "trial_index": 46, "time_elapsed": 307584, "internal_node_id": "0.0-35.0-2.0"}}, {"uniqueid": "MTK0777:32VNZTT0A8B9FMNCMC5LSUB5SRWR4I", "current_trial": 47, "dateTime": 1512752737121, "trialdata": {"rt": -1, "stimulus": "<p id=\"stim\">7</p>", "key_press": -1, "trial_type": "single-stim", "trial_index": 47, "time_elapsed": 308586, "internal_node_id": "0.0-35.0-3.0"}}, {"uniqueid": "MTK0777:32VNZTT0A8B9FMNCMC5LSUB5SRWR4I", "current_trial": 48, "dateTime": 1512752738123, "trialdata": {"rt": -1, "stimulus": "<p id=\"stim\">6</p>", "key_press": -1, "trial_type": "single-stim", "trial_index": 48, "time_elapsed": 309588, "internal_node_id": "0.0-35.0-4.0"}}, {"uniqueid": "MTK0777:32VNZTT0A8B9FMNCMC5LSUB5SRWR4I", "current_trial": 49, "dateTime": 1512752739125, "trialdata": {"rt": -1, "stimulus": "<p id=\"stim\">5</p>", "key_press": -1, "trial_type": "single-stim", "trial_index": 49, "time_elapsed": 310590, "internal_node_id": "0.0-35.0-5.0"}}, {"uniqueid": "MTK0777:32VNZTT0A8B9FMNCMC5LSUB5SRWR4I", "current_trial": 50, "dateTime": 1512752740126, "trialdata": {"rt": -1, "stimulus": "<p id=\"stim\">4</p>", "key_press": -1, "trial_type": "single-stim", "trial_index": 50, "time_elapsed": 311591, "internal_node_id": "0.0-35.0-6.0"}}, {"uniqueid": "MTK0777:32VNZTT0A8B9FMNCMC5LSUB5SRWR4I", "current_trial": 51, "dateTime": 1512752741128, "trialdata": {"rt": -1, "stimulus": "<p id=\"stim\">3</p>", "key_press": -1, "trial_type": "single-stim", "trial_index": 51, "time_elapsed": 312593, "internal_node_id": "0.0-35.0-7.0"}}, {"uniqueid": "MTK0777:32VNZTT0A8B9FMNCMC5LSUB5SRWR4I", "current_trial": 52, "dateTime": 1512752742130, "trialdata": {"rt": -1, "stimulus": "<p id=\"stim\">2</p>", "key_press": -1, "trial_type": "single-stim", "trial_index": 52, "time_elapsed": 313595, "internal_node_id": "0.0-35.0-8.0"}}, {"uniqueid": "MTK0777:32VNZTT0A8B9FMNCMC5LSUB5SRWR4I", "current_trial": 53, "dateTime": 1512752743131, "trialdata": {"rt": -1, "stimulus": "<p id=\"stim\">1</p>", "key_press": -1, "trial_type": "single-stim", "trial_index": 53, "time_elapsed": 314596, "internal_node_id": "0.0-35.0-9.0"}}, {"uniqueid": "MTK0777:32VNZTT0A8B9FMNCMC5LSUB5SRWR4I", "current_trial": 54, "dateTime": 1512752744632, "trialdata": {"rt": -1, "stimulus": "<p id=\"stim\">+</p>", "key_press": -1, "type": "FIXATION", "trial_type": "single-stim", "trial_index": 54, "time_elapsed": 316097, "internal_node_id": "0.0-36.0-0.0"}}, {"uniqueid": "MTK0777:32VNZTT0A8B9FMNCMC5LSUB5SRWR4I", "current_trial": 55, "dateTime": 1512752745834, "trialdata": {"rt": -1, "stimulus": "<p id=\"stim\">OMELET</p>", "key_press": -1, "type": "PRES_VIS", "word": "omelet", "wordID": 975, "conditions": [18, 1200, "v", 18000], "trial": 1, "serialpos": 0, "trial_type": "single-stim", "trial_index": 55, "time_elapsed": 317298, "internal_node_id": "0.0-37.0"}}, {"uniqueid": "MTK0777:32VNZTT0A8B9FMNCMC5LSUB5SRWR4I", "current_trial": 56, "dateTime": 1512752748027, "trialdata": {"rt": -1, "stimulus": "<p id=\"stim\">CRAYON</p>", "key_press": -1, "type": "PRES_VIS", "word": "crayon", "wordID": 400, "conditions": [18, 1200, "v", 18000], "trial": 1, "serialpos": 1, "trial_type": "single-stim", "trial_index": 56, "time_elapsed": 319491, "internal_node_id": "0.0-38.0"}}, {"uniqueid": "MTK0777:32VNZTT0A8B9FMNCMC5LSUB5SRWR4I", "current_trial": 57, "dateTime": 1512752750105, "trialdata": {"rt": -1, "stimulus": "<p id=\"stim\">CHAPEL</p>", "key_press": -1, "type": "PRES_VIS", "word": "chapel", "wordID": 279, "conditions": [18, 1200, "v", 18000], "trial": 1, "serialpos": 2, "trial_type": "single-stim", "trial_index": 57, "time_elapsed": 321570, "internal_node_id": "0.0-39.0"}}, {"uniqueid": "MTK0777:32VNZTT0A8B9FMNCMC5LSUB5SRWR4I", "current_trial": 58, "dateTime": 1512752752489, "trialdata": {"rt": -1, "stimulus": "<p id=\"stim\">TURKEY</p>", "key_press": -1, "type": "PRES_VIS", "word": "turkey", "wordID": 1519, "conditions": [18, 1200, "v", 18000], "trial": 1, "serialpos": 3, "trial_type": "single-stim", "trial_index": 58, "time_elapsed": 323954, "internal_node_id": "0.0-40.0"}}, {"uniqueid": "MTK0777:32VNZTT0A8B9FMNCMC5LSUB5SRWR4I", "current_trial": 59, "dateTime": 1512752754541, "trialdata": {"rt": -1, "stimulus": "<p id=\"stim\">THREAD</p>", "key_press": -1, "type": "PRES_VIS", "word": "thread", "wordID": 1459, "conditions": [18, 1200, "v", 18000], "trial": 1, "serialpos": 4, "trial_type": "single-stim", "trial_index": 59, "time_elapsed": 326006, "internal_node_id": "0.0-41.0"}}, {"uniqueid": "MTK0777:32VNZTT0A8B9FMNCMC5LSUB5SRWR4I", "current_trial": 60, "dateTime": 1512752756802, "trialdata": {"rt": -1, "stimulus": "<p id=\"stim\">TWISTER</p>", "key_press": -1, "type": "PRES_VIS", "word": "twister", "wordID": 1529, "conditions": [18, 1200, "v", 18000], "trial": 1, "serialpos": 5, "trial_type": "single-stim", "trial_index": 60, "time_elapsed": 328267, "internal_node_id": "0.0-42.0"}}, {"uniqueid": "MTK0777:32VNZTT0A8B9FMNCMC5LSUB5SRWR4I", "current_trial": 61, "dateTime": 1512752758966, "trialdata": {"rt": -1, "stimulus": "<p id=\"stim\">GARDEN</p>", "key_press": -1, "type": "PRES_VIS", "word": "garden", "wordID": 622, "conditions": [18, 1200, "v", 18000], "trial": 1, "serialpos": 6, "trial_type": "single-stim", "trial_index": 61, "time_elapsed": 330431, "internal_node_id": "0.0-43.0"}}, {"uniqueid": "MTK0777:32VNZTT0A8B9FMNCMC5LSUB5SRWR4I", "current_trial": 62, "dateTime": 1512752761291, "trialdata": {"rt": -1, "stimulus": "<p id=\"stim\">TORTOISE</p>", "key_press": -1, "type": "PRES_VIS", "word": "tortoise", "wordID": 1485, "conditions": [18, 1200, "v", 18000], "trial": 1, "serialpos": 7, "trial_type": "single-stim", "trial_index": 62, "time_elapsed": 332756, "internal_node_id": "0.0-44.0"}}, {"uniqueid": "MTK0777:32VNZTT0A8B9FMNCMC5LSUB5SRWR4I", "current_trial": 63, "dateTime": 1512752763609, "trialdata": {"rt": -1, "stimulus": "<p id=\"stim\">TUTU</p>", "key_press": -1, "type": "PRES_VIS", "word": "tutu", "wordID": 1523, "conditions": [18, 1200, "v", 18000], "trial": 1, "serialpos": 8, "trial_type": "single-stim", "trial_index": 63, "time_elapsed": 335074, "internal_node_id": "0.0-45.0"}}, {"uniqueid": "MTK0777:32VNZTT0A8B9FMNCMC5LSUB5SRWR4I", "current_trial": 64, "dateTime": 1512752765640, "trialdata": {"rt": -1, "stimulus": "<p id=\"stim\">SLUG</p>", "key_press": -1, "type": "PRES_VIS", "word": "slug", "wordID": 1328, "conditions": [18, 1200, "v", 18000], "trial": 1, "serialpos": 9, "trial_type": "single-stim", "trial_index": 64, "time_elapsed": 337105, "internal_node_id": "0.0-46.0"}}, {"uniqueid": "MTK0777:32VNZTT0A8B9FMNCMC5LSUB5SRWR4I", "current_trial": 65, "dateTime": 1512752768017, "trialdata": {"rt": -1, "stimulus": "<p id=\"stim\">BIKE</p>", "key_press": -1, "type": "PRES_VIS", "word": "bike", "wordID": 124, "conditions": [18, 1200, "v", 18000], "trial": 1, "serialpos": 10, "trial_type": "single-stim", "trial_index": 65, "time_elapsed": 339482, "internal_node_id": "0.0-47.0"}}, {"uniqueid": "MTK0777:32VNZTT0A8B9FMNCMC5LSUB5SRWR4I", "current_trial": 66, "dateTime": 1512752770169, "trialdata": {"rt": -1, "stimulus": "<p id=\"stim\">HONEY</p>", "key_press": -1, "type": "PRES_VIS", "word": "honey", "wordID": 712, "conditions": [18, 1200, "v", 18000], "trial": 1, "serialpos": 11, "trial_type": "single-stim", "trial_index": 66, "time_elapsed": 341634, "internal_node_id": "0.0-48.0"}}, {"uniqueid": "MTK0777:32VNZTT0A8B9FMNCMC5LSUB5SRWR4I", "current_trial": 67, "dateTime": 1512752772504, "trialdata": {"rt": -1, "stimulus": "<p id=\"stim\">PARSLEY</p>", "key_press": -1, "type": "PRES_VIS", "word": "parsley", "wordID": 1015, "conditions": [18, 1200, "v", 18000], "trial": 1, "serialpos": 12, "trial_type": "single-stim", "trial_index": 67, "time_elapsed": 343969, "internal_node_id": "0.0-49.0"}}, {"uniqueid": "MTK0777:32VNZTT0A8B9FMNCMC5LSUB5SRWR4I", "current_trial": 68, "dateTime": 1512752774662, "trialdata": {"rt": -1, "stimulus": "<p id=\"stim\">ELBOW</p>", "key_press": -1, "type": "PRES_VIS", "word": "elbow", "wordID": 519, "conditions": [18, 1200, "v", 18000], "trial": 1, "serialpos": 13, "trial_type": "single-stim", "trial_index": 68, "time_elapsed": 346125, "internal_node_id": "0.0-50.0"}}, {"uniqueid": "MTK0777:32VNZTT0A8B9FMNCMC5LSUB5SRWR4I", "current_trial": 69, "dateTime": 1512752776872, "trialdata": {"rt": -1, "stimulus": "<p id=\"stim\">YACHT</p>", "key_press": -1, "type": "PRES_VIS", "word": "yacht", "wordID": 1628, "conditions": [18, 1200, "v", 18000], "trial": 1, "serialpos": 14, "trial_type": "single-stim", "trial_index": 69, "time_elapsed": 348337, "internal_node_id": "0.0-51.0"}}, {"uniqueid": "MTK0777:32VNZTT0A8B9FMNCMC5LSUB5SRWR4I", "current_trial": 70, "dateTime": 1512752779105, "trialdata": {"rt": -1, "stimulus": "<p id=\"stim\">BACON</p>", "key_press": -1, "type": "PRES_VIS", "word": "bacon", "wordID": 66, "conditions": [18, 1200, "v", 18000], "trial": 1, "serialpos": 15, "trial_type": "single-stim", "trial_index": 70, "time_elapsed": 350570, "internal_node_id": "0.0-52.0"}}, {"uniqueid": "MTK0777:32VNZTT0A8B9FMNCMC5LSUB5SRWR4I", "current_trial": 71, "dateTime": 1512752781208, "trialdata": {"rt": -1, "stimulus": "<p id=\"stim\">SCRIBBLE</p>", "key_press": -1, "type": "PRES_VIS", "word": "scribble", "wordID": 1255, "conditions": [18, 1200, "v", 18000], "trial": 1, "serialpos": 16, "trial_type": "single-stim", "trial_index": 71, "time_elapsed": 352673, "internal_node_id": "0.0-53.0"}}, {"uniqueid": "MTK0777:32VNZTT0A8B9FMNCMC5LSUB5SRWR4I", "current_trial": 72, "dateTime": 1512752783372, "trialdata": {"rt": -1, "stimulus": "<p id=\"stim\">TRACTOR</p>", "key_press": -1, "type": "PRES_VIS", "word": "tractor", "wordID": 1492, "conditions": [18, 1200, "v", 18000], "trial": 1, "serialpos": 17, "trial_type": "single-stim", "trial_index": 72, "time_elapsed": 354837, "internal_node_id": "0.0-54.0"}}, {"uniqueid": "MTK0777:32VNZTT0A8B9FMNCMC5LSUB5SRWR4I", "current_trial": 73, "dateTime": 1512752785669, "trialdata": {"rt": -1, "stimulus": "", "key_press": -1, "type": "PRE_RECALL_DELAY", "trial_type": "single-stim", "trial_index": 73, "time_elapsed": 357134, "internal_node_id": "0.0-55.0-0.0"}}, {"uniqueid": "MTK0777:32VNZTT0A8B9FMNCMC5LSUB5SRWR4I", "current_trial": 74, "dateTime": 1512752786170, "trialdata": {"rt": -1000, "stimulus": "/static/audio/400Hz.wav", "key_press": -1, "type": "PRE_RECALL_ALERT", "trial_type": "single-audio", "trial_index": 74, "time_elapsed": 357635, "internal_node_id": "0.0-56.0"}}, {"uniqueid": "MTK0777:32VNZTT0A8B9FMNCMC5LSUB5SRWR4I", "current_trial": 75, "dateTime": 1512752846176, "trialdata": {"rt": [5651, 5771, 8259, 12139, 14667, 16803, 19147, 20987, 23556, 25172, 34203, 37979, 44875, 45539, 46179, 46588, 46979, 47203, 47363, 47507, 47659, 47803, 52059, 58795], "recwords": ["tractor", "", "elbow", "yacht", "twister", "chapel", "crayon", "slug", "honey", "bike", "garden", "omelet", "bacon", "", "", "", "", "", "", "", "", "", "tutu", "turkey"], "type": "FREE_RECALL", "conditions": [18, 1200, "v", 18000], "trial": 1, "trial_type": "free-recall", "trial_index": 75, "time_elapsed": 417639, "internal_node_id": "0.0-57.0-0.0"}}, {"uniqueid": "MTK0777:32VNZTT0A8B9FMNCMC5LSUB5SRWR4I", "current_trial": 76, "dateTime": 1512752851873, "trialdata": {"rt": 3693, "key_press": 13, "type": "INSTRUCTIONS", "trial_type": "text", "trial_index": 76, "time_elapsed": 423335, "internal_node_id": "0.0-58.0"}}, {"uniqueid": "MTK0777:32VNZTT0A8B9FMNCMC5LSUB5SRWR4I", "current_trial": 77, "dateTime": 1512752864878, "trialdata": {"rt": [2825, 4281, 5913, 9280, 11656], "responses": ["16", "8", "12", "12", "15"], "num1": [4, 6, 2, 1, 4, 1], "num2": [4, 1, 6, 5, 8, 2], "num3": [8, 1, 4, 6, 3, 4], "type": "DISTRACTOR", "conditions": [24, 800, "a", 12000], "trial": 2, "trial_type": "math-distractor", "trial_index": 77, "time_elapsed": 436343, "internal_node_id": "0.0-59.0"}}, {"uniqueid": "MTK0777:32VNZTT0A8B9FMNCMC5LSUB5SRWR4I", "current_trial": 78, "dateTime": 1512752867880, "trialdata": {"rt": -1, "stimulus": "<p id=\"stim\">10</p>", "key_press": -1, "trial_type": "single-stim", "trial_index": 78, "time_elapsed": 439345, "internal_node_id": "0.0-60.0-0.0"}}, {"uniqueid": "MTK0777:32VNZTT0A8B9FMNCMC5LSUB5SRWR4I", "current_trial": 79, "dateTime": 1512752868881, "trialdata": {"rt": -1, "stimulus": "<p id=\"stim\">9</p>", "key_press": -1, "trial_type": "single-stim", "trial_index": 79, "time_elapsed": 440346, "internal_node_id": "0.0-60.0-1.0"}}, {"uniqueid": "MTK0777:32VNZTT0A8B9FMNCMC5LSUB5SRWR4I", "current_trial": 80, "dateTime": 1512752869881, "trialdata": {"rt": -1, "stimulus": "<p id=\"stim\">8</p>", "key_press": -1, "trial_type": "single-stim", "trial_index": 80, "time_elapsed": 441346, "internal_node_id": "0.0-60.0-2.0"}}, {"uniqueid": "MTK0777:32VNZTT0A8B9FMNCMC5LSUB5SRWR4I", "current_trial": 81, "dateTime": 1512752870883, "trialdata": {"rt": -1, "stimulus": "<p id=\"stim\">7</p>", "key_press": -1, "trial_type": "single-stim", "trial_index": 81, "time_elapsed": 442348, "internal_node_id": "0.0-60.0-3.0"}}, {"uniqueid": "MTK0777:32VNZTT0A8B9FMNCMC5LSUB5SRWR4I", "current_trial": 82, "dateTime": 1512752871884, "trialdata": {"rt": -1, "stimulus": "<p id=\"stim\">6</p>", "key_press": -1, "trial_type": "single-stim", "trial_index": 82, "time_elapsed": 443349, "internal_node_id": "0.0-60.0-4.0"}}, {"uniqueid": "MTK0777:32VNZTT0A8B9FMNCMC5LSUB5SRWR4I", "current_trial": 83, "dateTime": 1512752872888, "trialdata": {"rt": -1, "stimulus": "<p id=\"stim\">5</p>", "key_press": -1, "trial_type": "single-stim", "trial_index": 83, "time_elapsed": 444353, "internal_node_id": "0.0-60.0-5.0"}}, {"uniqueid": "MTK0777:32VNZTT0A8B9FMNCMC5LSUB5SRWR4I", "current_trial": 84, "dateTime": 1512752873889, "trialdata": {"rt": -1, "stimulus": "<p id=\"stim\">4</p>", "key_press": -1, "trial_type": "single-stim", "trial_index": 84, "time_elapsed": 445354, "internal_node_id": "0.0-60.0-6.0"}}, {"uniqueid": "MTK0777:32VNZTT0A8B9FMNCMC5LSUB5SRWR4I", "current_trial": 85, "dateTime": 1512752874890, "trialdata": {"rt": -1, "stimulus": "<p id=\"stim\">3</p>", "key_press": -1, "trial_type": "single-stim", "trial_index": 85, "time_elapsed": 446355, "internal_node_id": "0.0-60.0-7.0"}}, {"uniqueid": "MTK0777:32VNZTT0A8B9FMNCMC5LSUB5SRWR4I", "current_trial": 86, "dateTime": 1512752875892, "trialdata": {"rt": -1, "stimulus": "<p id=\"stim\">2</p>", "key_press": -1, "trial_type": "single-stim", "trial_index": 86, "time_elapsed": 447357, "internal_node_id": "0.0-60.0-8.0"}}, {"uniqueid": "MTK0777:32VNZTT0A8B9FMNCMC5LSUB5SRWR4I", "current_trial": 87, "dateTime": 1512752876893, "trialdata": {"rt": -1, "stimulus": "<p id=\"stim\">1</p>", "key_press": -1, "trial_type": "single-stim", "trial_index": 87, "time_elapsed": 448358, "internal_node_id": "0.0-60.0-9.0"}}, {"uniqueid": "MTK0777:32VNZTT0A8B9FMNCMC5LSUB5SRWR4I", "current_trial": 88, "dateTime": 1512752878394, "trialdata": {"rt": -1, "stimulus": "<p id=\"stim\">+</p>", "key_press": -1, "type": "FIXATION", "trial_type": "single-stim", "trial_index": 88, "time_elapsed": 449859, "internal_node_id": "0.0-61.0-0.0"}}, {"uniqueid": "MTK0777:32VNZTT0A8B9FMNCMC5LSUB5SRWR4I", "current_trial": 89, "dateTime": 1512752880178, "trialdata": {"rt": -1000, "stimulus": "/static/audio/wordpool/COMET.wav", "key_press": -1, "type": "PRES_AUD", "word": "comet", "wordID": 352, "conditions": [24, 800, "a", 12000], "trial": 2, "serialpos": 0, "trial_type": "single-audio", "trial_index": 89, "time_elapsed": 451643, "internal_node_id": "0.0-62.0"}}, {"uniqueid": "MTK0777:32VNZTT0A8B9FMNCMC5LSUB5SRWR4I", "current_trial": 90, "dateTime": 1512752882101, "trialdata": {"rt": -1000, "stimulus": "/static/audio/wordpool/PIMPLE.wav", "key_press": -1, "type": "PRES_AUD", "word": "pimple", "wordID": 1070, "conditions": [24, 800, "a", 12000], "trial": 2, "serialpos": 1, "trial_type": "single-audio", "trial_index": 90, "time_elapsed": 453566, "internal_node_id": "0.0-63.0"}}, {"uniqueid": "MTK0777:32VNZTT0A8B9FMNCMC5LSUB5SRWR4I", "current_trial": 91, "dateTime": 1512752883778, "trialdata": {"rt": -1000, "stimulus": "/static/audio/wordpool/PIZZA.wav", "key_press": -1, "type": "PRES_AUD", "word": "pizza", "wordID": 1078, "conditions": [24, 800, "a", 12000], "trial": 2, "serialpos": 2, "trial_type": "single-audio", "trial_index": 91, "time_elapsed": 455243, "internal_node_id": "0.0-64.0"}}, {"uniqueid": "MTK0777:32VNZTT0A8B9FMNCMC5LSUB5SRWR4I", "current_trial": 92, "dateTime": 1512752885724, "trialdata": {"rt": -1000, "stimulus": "/static/audio/wordpool/HOOK.wav", "key_press": -1, "type": "PRES_AUD", "word": "hook", "wordID": 714, "conditions": [24, 800, "a", 12000], "trial": 2, "serialpos": 3, "trial_type": "single-audio", "trial_index": 92, "time_elapsed": 457188, "internal_node_id": "0.0-65.0"}}, {"uniqueid": "MTK0777:32VNZTT0A8B9FMNCMC5LSUB5SRWR4I", "current_trial": 93, "dateTime": 1512752887341, "trialdata": {"rt": -1000, "stimulus": "/static/audio/wordpool/SHOULDER.wav", "key_press": -1, "type": "PRES_AUD", "word": "shoulder", "wordID": 1293, "conditions": [24, 800, "a", 12000], "trial": 2, "serialpos": 4, "trial_type": "single-audio", "trial_index": 93, "time_elapsed": 458806, "internal_node_id": "0.0-66.0"}}, {"uniqueid": "MTK0777:32VNZTT0A8B9FMNCMC5LSUB5SRWR4I", "current_trial": 94, "dateTime": 1512752889017, "trialdata": {"rt": -1000, "stimulus": "/static/audio/wordpool/PARENT.wav", "key_press": -1, "type": "PRES_AUD", "word": "parent", "wordID": 1012, "conditions": [24, 800, "a", 12000], "trial": 2, "serialpos": 5, "trial_type": "single-audio", "trial_index": 94, "time_elapsed": 460482, "internal_node_id": "0.0-67.0"}}, {"uniqueid": "MTK0777:32VNZTT0A8B9FMNCMC5LSUB5SRWR4I", "current_trial": 95, "dateTime": 1512752890686, "trialdata": {"rt": -1000, "stimulus": "/static/audio/wordpool/BASEMENT.wav", "key_press": -1, "type": "PRES_AUD", "word": "basement", "wordID": 93, "conditions": [24, 800, "a", 12000], "trial": 2, "serialpos": 6, "trial_type": "single-audio", "trial_index": 95, "time_elapsed": 462150, "internal_node_id": "0.0-68.0"}}, {"uniqueid": "MTK0777:32VNZTT0A8B9FMNCMC5LSUB5SRWR4I", "current_trial": 96, "dateTime": 1512752892356, "trialdata": {"rt": -1000, "stimulus": "/static/audio/wordpool/KITCHEN.wav", "key_press": -1, "type": "PRES_AUD", "word": "kitchen", "wordID": 777, "conditions": [24, 800, "a", 12000], "trial": 2, "serialpos": 7, "trial_type": "single-audio", "trial_index": 96, "time_elapsed": 463821, "internal_node_id": "0.0-69.0"}}, {"uniqueid": "MTK0777:32VNZTT0A8B9FMNCMC5LSUB5SRWR4I", "current_trial": 97, "dateTime": 1512752894190, "trialdata": {"rt": -1000, "stimulus": "/static/audio/wordpool/SPARROW.wav", "key_press": -1, "type": "PRES_AUD", "word": "sparrow", "wordID": 1346, "conditions": [24, 800, "a", 12000], "trial": 2, "serialpos": 8, "trial_type": "single-audio", "trial_index": 97, "time_elapsed": 465655, "internal_node_id": "0.0-70.0"}}, {"uniqueid": "MTK0777:32VNZTT0A8B9FMNCMC5LSUB5SRWR4I", "current_trial": 98, "dateTime": 1512752896114, "trialdata": {"rt": -1000, "stimulus": "/static/audio/wordpool/PECAN.wav", "key_press": -1, "type": "PRES_AUD", "word": "pecan", "wordID": 1035, "conditions": [24, 800, "a", 12000], "trial": 2, "serialpos": 9, "trial_type": "single-audio", "trial_index": 98, "time_elapsed": 467579, "internal_node_id": "0.0-71.0"}}, {"uniqueid": "MTK0777:32VNZTT0A8B9FMNCMC5LSUB5SRWR4I", "current_trial": 99, "dateTime": 1512752897854, "trialdata": {"rt": -1000, "stimulus": "/static/audio/wordpool/BEAST.wav", "key_press": -1, "type": "PRES_AUD", "word": "beast", "wordID": 107, "conditions": [24, 800, "a", 12000], "trial": 2, "serialpos": 10, "trial_type": "single-audio", "trial_index": 99, "time_elapsed": 469318, "internal_node_id": "0.0-72.0"}}, {"uniqueid": "MTK0777:32VNZTT0A8B9FMNCMC5LSUB5SRWR4I", "current_trial": 100, "dateTime": 1512752899774, "trialdata": {"rt": -1000, "stimulus": "/static/audio/wordpool/SANDWICH.wav", "key_press": -1, "type": "PRES_AUD", "word": "sandwich", "wordID": 1231, "conditions": [24, 800, "a", 12000], "trial": 2, "serialpos": 11, "trial_type": "single-audio", "trial_index": 100, "time_elapsed": 471238, "internal_node_id": "0.0-73.0"}}, {"uniqueid": "MTK0777:32VNZTT0A8B9FMNCMC5LSUB5SRWR4I", "current_trial": 101, "dateTime": 1512752901416, "trialdata": {"rt": -1000, "stimulus": "/static/audio/wordpool/WRENCH.wav", "key_press": -1, "type": "PRES_AUD", "word": "wrench", "wordID": 1624, "conditions": [24, 800, "a", 12000], "trial": 2, "serialpos": 12, "trial_type": "single-audio", "trial_index": 101, "time_elapsed": 472881, "internal_node_id": "0.0-74.0"}}, {"uniqueid": "MTK0777:32VNZTT0A8B9FMNCMC5LSUB5SRWR4I", "current_trial": 102, "dateTime": 1512752903413, "trialdata": {"rt": -1000, "stimulus": "/static/audio/wordpool/POPCORN.wav", "key_press": -1, "type": "PRES_AUD", "word": "popcorn", "wordID": 1103, "conditions": [24, 800, "a", 12000], "trial": 2, "serialpos": 13, "trial_type": "single-audio", "trial_index": 102, "time_elapsed": 474878, "internal_node_id": "0.0-75.0"}}, {"uniqueid": "MTK0777:32VNZTT0A8B9FMNCMC5LSUB5SRWR4I", "current_trial": 103, "dateTime": 1512752905166, "trialdata": {"rt": -1000, "stimulus": "/static/audio/wordpool/SODA.wav", "key_press": -1, "type": "PRES_AUD", "word": "soda", "wordID": 1340, "conditions": [24, 800, "a", 12000], "trial": 2, "serialpos": 14, "trial_type": "single-audio", "trial_index": 103, "time_elapsed": 476631, "internal_node_id": "0.0-76.0"}}, {"uniqueid": "MTK0777:32VNZTT0A8B9FMNCMC5LSUB5SRWR4I", "current_trial": 104, "dateTime": 1512752907167, "trialdata": {"rt": -1000, "stimulus": "/static/audio/wordpool/PATIENT.wav", "key_press": -1, "type": "PRES_AUD", "word": "patient", "wordID": 1023, "conditions": [24, 800, "a", 12000], "trial": 2, "serialpos": 15, "trial_type": "single-audio", "trial_index": 104, "time_elapsed": 478632, "internal_node_id": "0.0-77.0"}}, {"uniqueid": "MTK0777:32VNZTT0A8B9FMNCMC5LSUB5SRWR4I", "current_trial": 105, "dateTime": 1512752909044, "trialdata": {"rt": -1000, "stimulus": "/static/audio/wordpool/BANK.wav", "key_press": -1, "type": "PRES_AUD", "word": "bank", "wordID": 82, "conditions": [24, 800, "a", 12000], "trial": 2, "serialpos": 16, "trial_type": "single-audio", "trial_index": 105, "time_elapsed": 480509, "internal_node_id": "0.0-78.0"}}, {"uniqueid": "MTK0777:32VNZTT0A8B9FMNCMC5LSUB5SRWR4I", "current_trial": 106, "dateTime": 1512752910961, "trialdata": {"rt": -1000, "stimulus": "/static/audio/wordpool/CUPBOARD.wav", "key_press": -1, "type": "PRES_AUD", "word": "cupboard", "wordID": 424, "conditions": [24, 800, "a", 12000], "trial": 2, "serialpos": 17, "trial_type": "single-audio", "trial_index": 106, "time_elapsed": 482426, "internal_node_id": "0.0-79.0"}}, {"uniqueid": "MTK0777:32VNZTT0A8B9FMNCMC5LSUB5SRWR4I", "current_trial": 107, "dateTime": 1512752912855, "trialdata": {"rt": -1000, "stimulus": "/static/audio/wordpool/XEROX.wav", "key_press": -1, "type": "PRES_AUD", "word": "xerox", "wordID": 1627, "conditions": [24, 800, "a", 12000], "trial": 2, "serialpos": 18, "trial_type": "single-audio", "trial_index": 107, "time_elapsed": 484319, "internal_node_id": "0.0-80.0"}}, {"uniqueid": "MTK0777:32VNZTT0A8B9FMNCMC5LSUB5SRWR4I", "current_trial": 108, "dateTime": 1512752914520, "trialdata": {"rt": -1000, "stimulus": "/static/audio/wordpool/BRACES.wav", "key_press": -1, "type": "PRES_AUD", "word": "braces", "wordID": 163, "conditions": [24, 800, "a", 12000], "trial": 2, "serialpos": 19, "trial_type": "single-audio", "trial_index": 108, "time_elapsed": 485985, "internal_node_id": "0.0-81.0"}}, {"uniqueid": "MTK0777:32VNZTT0A8B9FMNCMC5LSUB5SRWR4I", "current_trial": 109, "dateTime": 1512752916374, "trialdata": {"rt": -1000, "stimulus": "/static/audio/wordpool/TERMITE.wav", "key_press": -1, "type": "PRES_AUD", "word": "termite", "wordID": 1450, "conditions": [24, 800, "a", 12000], "trial": 2, "serialpos": 20, "trial_type": "single-audio", "trial_index": 109, "time_elapsed": 487839, "internal_node_id": "0.0-82.0"}}, {"uniqueid": "MTK0777:32VNZTT0A8B9FMNCMC5LSUB5SRWR4I", "current_trial": 110, "dateTime": 1512752918353, "trialdata": {"rt": -1000, "stimulus": "/static/audio/wordpool/BANKER.wav", "key_press": -1, "type": "PRES_AUD", "word": "banker", "wordID": 83, "conditions": [24, 800, "a", 12000], "trial": 2, "serialpos": 21, "trial_type": "single-audio", "trial_index": 110, "time_elapsed": 489818, "internal_node_id": "0.0-83.0"}}, {"uniqueid": "MTK0777:32VNZTT0A8B9FMNCMC5LSUB5SRWR4I", "current_trial": 111, "dateTime": 1512752920307, "trialdata": {"rt": -1000, "stimulus": "/static/audio/wordpool/BLENDER.wav", "key_press": -1, "type": "PRES_AUD", "word": "blender", "wordID": 135, "conditions": [24, 800, "a", 12000], "trial": 2, "serialpos": 22, "trial_type": "single-audio", "trial_index": 111, "time_elapsed": 491772, "internal_node_id": "0.0-84.0"}}, {"uniqueid": "MTK0777:32VNZTT0A8B9FMNCMC5LSUB5SRWR4I", "current_trial": 112, "dateTime": 1512752922071, "trialdata": {"rt": -1000, "stimulus": "/static/audio/wordpool/WASHER.wav", "key_press": -1, "type": "PRES_AUD", "word": "washer", "wordID": 1591, "conditions": [24, 800, "a", 12000], "trial": 2, "serialpos": 23, "trial_type": "single-audio", "trial_index": 112, "time_elapsed": 493536, "internal_node_id": "0.0-85.0"}}, {"uniqueid": "MTK0777:32VNZTT0A8B9FMNCMC5LSUB5SRWR4I", "current_trial": 113, "dateTime": 1512752923305, "trialdata": {"rt": -1, "stimulus": "", "key_press": -1, "type": "PRE_RECALL_DELAY", "trial_type": "single-stim", "trial_index": 113, "time_elapsed": 494770, "internal_node_id": "0.0-86.0-0.0"}}, {"uniqueid": "MTK0777:32VNZTT0A8B9FMNCMC5LSUB5SRWR4I", "current_trial": 114, "dateTime": 1512752923810, "trialdata": {"rt": -1000, "stimulus": "/static/audio/400Hz.wav", "key_press": -1, "type": "PRE_RECALL_ALERT", "trial_type": "single-audio", "trial_index": 114, "time_elapsed": 495275, "internal_node_id": "0.0-87.0"}}, {"uniqueid": "MTK0777:32VNZTT0A8B9FMNCMC5LSUB5SRWR4I", "current_trial": 115, "dateTime": 1512752983814, "trialdata": {"rt": [8657, 11065, 14121, 15089, 20081, 26193, 28097, 29841, 36225, 39696, 42617, 50865], "recwords": ["xerox", "pecan", "blender", "washer", "kitchen", "pimple", "pizza", "popcorn", "sandwhich", "bank", "banker", "basement"], "type": "FREE_RECALL", "conditions": [24, 800, "a", 12000], "trial": 2, "trial_type": "free-recall", "trial_index": 115, "time_elapsed": 555277, "internal_node_id": "0.0-88.0-0.0"}}, {"uniqueid": "MTK0777:32VNZTT0A8B9FMNCMC5LSUB5SRWR4I", "current_trial": 116, "dateTime": 1512752987100, "trialdata": {"rt": 1285, "key_press": 13, "type": "INSTRUCTIONS", "trial_type": "text", "trial_index": 116, "time_elapsed": 558565, "internal_node_id": "0.0-89.0"}}, {"uniqueid": "MTK0777:32VNZTT0A8B9FMNCMC5LSUB5SRWR4I", "current_trial": 117, "dateTime": 1512753013104, "trialdata": {"rt": [2894, 5542, 8141, 9989, 12301, 13878, 15958, 17581, 20293, 23390], "responses": ["17", "11", "21", "12", "12", "17", "15", "15", "16", "21"], "num1": [4, 4, 8, 8, 4, 8, 8, 3, 3, 6, 5], "num2": [8, 1, 4, 1, 5, 8, 4, 7, 8, 6, 9], "num3": [5, 6, 9, 3, 3, 1, 3, 5, 4, 9, 2], "type": "DISTRACTOR", "conditions": [12, 800, "a", 24000], "trial": 3, "trial_type": "math-distractor", "trial_index": 117, "time_elapsed": 584569, "internal_node_id": "0.0-90.0"}}, {"uniqueid": "MTK0777:32VNZTT0A8B9FMNCMC5LSUB5SRWR4I", "current_trial": 118, "dateTime": 1512753016105, "trialdata": {"rt": -1, "stimulus": "<p id=\"stim\">10</p>", "key_press": -1, "trial_type": "single-stim", "trial_index": 118, "time_elapsed": 587570, "internal_node_id": "0.0-91.0-0.0"}}, {"uniqueid": "MTK0777:32VNZTT0A8B9FMNCMC5LSUB5SRWR4I", "current_trial": 119, "dateTime": 1512753017106, "trialdata": {"rt": -1, "stimulus": "<p id=\"stim\">9</p>", "key_press": -1, "trial_type": "single-stim", "trial_index": 119, "time_elapsed": 588571, "internal_node_id": "0.0-91.0-1.0"}}, {"uniqueid": "MTK0777:32VNZTT0A8B9FMNCMC5LSUB5SRWR4I", "current_trial": 120, "dateTime": 1512753018107, "trialdata": {"rt": -1, "stimulus": "<p id=\"stim\">8</p>", "key_press": -1, "trial_type": "single-stim", "trial_index": 120, "time_elapsed": 589572, "internal_node_id": "0.0-91.0-2.0"}}, {"uniqueid": "MTK0777:32VNZTT0A8B9FMNCMC5LSUB5SRWR4I", "current_trial": 121, "dateTime": 1512753019111, "trialdata": {"rt": -1, "stimulus": "<p id=\"stim\">7</p>", "key_press": -1, "trial_type": "single-stim", "trial_index": 121, "time_elapsed": 590576, "internal_node_id": "0.0-91.0-3.0"}}, {"uniqueid": "MTK0777:32VNZTT0A8B9FMNCMC5LSUB5SRWR4I", "current_trial": 122, "dateTime": 1512753020111, "trialdata": {"rt": -1, "stimulus": "<p id=\"stim\">6</p>", "key_press": -1, "trial_type": "single-stim", "trial_index": 122, "time_elapsed": 591576, "internal_node_id": "0.0-91.0-4.0"}}, {"uniqueid": "MTK0777:32VNZTT0A8B9FMNCMC5LSUB5SRWR4I", "current_trial": 123, "dateTime": 1512753021113, "trialdata": {"rt": -1, "stimulus": "<p id=\"stim\">5</p>", "key_press": -1, "trial_type": "single-stim", "trial_index": 123, "time_elapsed": 592578, "internal_node_id": "0.0-91.0-5.0"}}, {"uniqueid": "MTK0777:32VNZTT0A8B9FMNCMC5LSUB5SRWR4I", "current_trial": 124, "dateTime": 1512753022115, "trialdata": {"rt": -1, "stimulus": "<p id=\"stim\">4</p>", "key_press": -1, "trial_type": "single-stim", "trial_index": 124, "time_elapsed": 593580, "internal_node_id": "0.0-91.0-6.0"}}, {"uniqueid": "MTK0777:32VNZTT0A8B9FMNCMC5LSUB5SRWR4I", "current_trial": 125, "dateTime": 1512753023116, "trialdata": {"rt": -1, "stimulus": "<p id=\"stim\">3</p>", "key_press": -1, "trial_type": "single-stim", "trial_index": 125, "time_elapsed": 594581, "internal_node_id": "0.0-91.0-7.0"}}, {"uniqueid": "MTK0777:32VNZTT0A8B9FMNCMC5LSUB5SRWR4I", "current_trial": 126, "dateTime": 1512753024118, "trialdata": {"rt": -1, "stimulus": "<p id=\"stim\">2</p>", "key_press": -1, "trial_type": "single-stim", "trial_index": 126, "time_elapsed": 595583, "internal_node_id": "0.0-91.0-8.0"}}, {"uniqueid": "MTK0777:32VNZTT0A8B9FMNCMC5LSUB5SRWR4I", "current_trial": 127, "dateTime": 1512753025120, "trialdata": {"rt": -1, "stimulus": "<p id=\"stim\">1</p>", "key_press": -1, "trial_type": "single-stim", "trial_index": 127, "time_elapsed": 596585, "internal_node_id": "0.0-91.0-9.0"}}, {"uniqueid": "MTK0777:32VNZTT0A8B9FMNCMC5LSUB5SRWR4I", "current_trial": 128, "dateTime": 1512753026621, "trialdata": {"rt": -1, "stimulus": "<p id=\"stim\">+</p>", "key_press": -1, "type": "FIXATION", "trial_type": "single-stim", "trial_index": 128, "time_elapsed": 598086, "internal_node_id": "0.0-92.0-0.0"}}, {"uniqueid": "MTK0777:32VNZTT0A8B9FMNCMC5LSUB5SRWR4I", "current_trial": 129, "dateTime": 1512753028245, "trialdata": {"rt": -1000, "stimulus": "/static/audio/wordpool/INFANT.wav", "key_press": -1, "type": "PRES_AUD", "word": "infant", "wordID": 736, "conditions": [12, 800, "a", 24000], "trial": 3, "serialpos": 0, "trial_type": "single-audio", "trial_index": 129, "time_elapsed": 599709, "internal_node_id": "0.0-93.0"}}, {"uniqueid": "MTK0777:32VNZTT0A8B9FMNCMC5LSUB5SRWR4I", "current_trial": 130, "dateTime": 1512753030064, "trialdata": {"rt": -1000, "stimulus": "/static/audio/wordpool/ICING.wav", "key_press": -1, "type": "PRES_AUD", "word": "icing", "wordID": 731, "conditions": [12, 800, "a", 24000], "trial": 3, "serialpos": 1, "trial_type": "single-audio", "trial_index": 130, "time_elapsed": 601528, "internal_node_id": "0.0-94.0"}}, {"uniqueid": "MTK0777:32VNZTT0A8B9FMNCMC5LSUB5SRWR4I", "current_trial": 131, "dateTime": 1512753031820, "trialdata": {"rt": -1000, "stimulus": "/static/audio/wordpool/BATHTUB.wav", "key_press": -1, "type": "PRES_AUD", "word": "bathtub", "wordID": 99, "conditions": [12, 800, "a", 24000], "trial": 3, "serialpos": 2, "trial_type": "single-audio", "trial_index": 131, "time_elapsed": 603285, "internal_node_id": "0.0-95.0"}}, {"uniqueid": "MTK0777:32VNZTT0A8B9FMNCMC5LSUB5SRWR4I", "current_trial": 132, "dateTime": 1512753033741, "trialdata": {"rt": -1000, "stimulus": "/static/audio/wordpool/PASTRY.wav", "key_press": -1, "type": "PRES_AUD", "word": "pastry", "wordID": 1021, "conditions": [12, 800, "a", 24000], "trial": 3, "serialpos": 3, "trial_type": "single-audio", "trial_index": 132, "time_elapsed": 605206, "internal_node_id": "0.0-96.0"}}, {"uniqueid": "MTK0777:32VNZTT0A8B9FMNCMC5LSUB5SRWR4I", "current_trial": 133, "dateTime": 1512753035529, "trialdata": {"rt": -1000, "stimulus": "/static/audio/wordpool/BLOUSE.wav", "key_press": -1, "type": "PRES_AUD", "word": "blouse", "wordID": 138, "conditions": [12, 800, "a", 24000], "trial": 3, "serialpos": 4, "trial_type": "single-audio", "trial_index": 133, "time_elapsed": 606994, "internal_node_id": "0.0-97.0"}}, {"uniqueid": "MTK0777:32VNZTT0A8B9FMNCMC5LSUB5SRWR4I", "current_trial": 134, "dateTime": 1512753037343, "trialdata": {"rt": -1000, "stimulus": "/static/audio/wordpool/SKIRT.wav", "key_press": -1, "type": "PRES_AUD", "word": "skirt", "wordID": 1318, "conditions": [12, 800, "a", 24000], "trial": 3, "serialpos": 5, "trial_type": "single-audio", "trial_index": 134, "time_elapsed": 608808, "internal_node_id": "0.0-98.0"}}, {"uniqueid": "MTK0777:32VNZTT0A8B9FMNCMC5LSUB5SRWR4I", "current_trial": 135, "dateTime": 1512753039102, "trialdata": {"rt": -1000, "stimulus": "/static/audio/wordpool/WOMAN.wav", "key_press": -1, "type": "PRES_AUD", "word": "woman", "wordID": 1619, "conditions": [12, 800, "a", 24000], "trial": 3, "serialpos": 6, "trial_type": "single-audio", "trial_index": 135, "time_elapsed": 610567, "internal_node_id": "0.0-99.0"}}, {"uniqueid": "MTK0777:32VNZTT0A8B9FMNCMC5LSUB5SRWR4I", "current_trial": 136, "dateTime": 1512753040719, "trialdata": {"rt": -1000, "stimulus": "/static/audio/wordpool/PISTOL.wav", "key_press": -1, "type": "PRES_AUD", "word": "pistol", "wordID": 1074, "conditions": [12, 800, "a", 24000], "trial": 3, "serialpos": 7, "trial_type": "single-audio", "trial_index": 136, "time_elapsed": 612184, "internal_node_id": "0.0-100.0"}}, {"uniqueid": "MTK0777:32VNZTT0A8B9FMNCMC5LSUB5SRWR4I", "current_trial": 137, "dateTime": 1512753042660, "trialdata": {"rt": -1000, "stimulus": "/static/audio/wordpool/HORNET.wav", "key_press": -1, "type": "PRES_AUD", "word": "hornet", "wordID": 717, "conditions": [12, 800, "a", 24000], "trial": 3, "serialpos": 8, "trial_type": "single-audio", "trial_index": 137, "time_elapsed": 614125, "internal_node_id": "0.0-101.0"}}, {"uniqueid": "MTK0777:32VNZTT0A8B9FMNCMC5LSUB5SRWR4I", "current_trial": 138, "dateTime": 1512753044299, "trialdata": {"rt": -1000, "stimulus": "/static/audio/wordpool/WHISTLE.wav", "key_press": -1, "type": "PRES_AUD", "word": "whistle", "wordID": 1605, "conditions": [12, 800, "a", 24000], "trial": 3, "serialpos": 9, "trial_type": "single-audio", "trial_index": 138, "time_elapsed": 615764, "internal_node_id": "0.0-102.0"}}, {"uniqueid": "MTK0777:32VNZTT0A8B9FMNCMC5LSUB5SRWR4I", "current_trial": 139, "dateTime": 1512753045922, "trialdata": {"rt": -1000, "stimulus": "/static/audio/wordpool/FIDDLE.wav", "key_press": -1, "type": "PRES_AUD", "word": "fiddle", "wordID": 560, "conditions": [12, 800, "a", 24000], "trial": 3, "serialpos": 10, "trial_type": "single-audio", "trial_index": 139, "time_elapsed": 617386, "internal_node_id": "0.0-103.0"}}, {"uniqueid": "MTK0777:32VNZTT0A8B9FMNCMC5LSUB5SRWR4I", "current_trial": 140, "dateTime": 1512753047907, "trialdata": {"rt": -1000, "stimulus": "/static/audio/wordpool/LADY.wav", "key_press": -1, "type": "PRES_AUD", "word": "lady", "wordID": 793, "conditions": [12, 800, "a", 24000], "trial": 3, "serialpos": 11, "trial_type": "single-audio", "trial_index": 140, "time_elapsed": 619371, "internal_node_id": "0.0-104.0"}}, {"uniqueid": "MTK0777:32VNZTT0A8B9FMNCMC5LSUB5SRWR4I", "current_trial": 141, "dateTime": 1512753049157, "trialdata": {"rt": -1, "stimulus": "", "key_press": -1, "type": "PRE_RECALL_DELAY", "trial_type": "single-stim", "trial_index": 141, "time_elapsed": 620622, "internal_node_id": "0.0-105.0-0.0"}}, {"uniqueid": "MTK0777:32VNZTT0A8B9FMNCMC5LSUB5SRWR4I", "current_trial": 142, "dateTime": 1512753049660, "trialdata": {"rt": -1000, "stimulus": "/static/audio/400Hz.wav", "key_press": -1, "type": "PRE_RECALL_ALERT", "trial_type": "single-audio", "trial_index": 142, "time_elapsed": 621125, "internal_node_id": "0.0-106.0"}}, {"uniqueid": "MTK0777:32VNZTT0A8B9FMNCMC5LSUB5SRWR4I", "current_trial": 143, "dateTime": 1512753109665, "trialdata": {"rt": [3230, 4598, 7758, 9910, 13262, 16630, 19718, 20894, 21078, 26126, 54029, 55965, 57757, 59613], "recwords": ["lady", "infant", "bathtun", "pistol", "woman", "blouse", "skirt", "icing", "", "fiddle", "n/a", "n/a", "n/a", "n/a"], "type": "FREE_RECALL", "conditions": [12, 800, "a", 24000], "trial": 3, "trial_type": "free-recall", "trial_index": 143, "time_elapsed": 681128, "internal_node_id": "0.0-107.0-0.0"}}, {"uniqueid": "MTK0777:32VNZTT0A8B9FMNCMC5LSUB5SRWR4I", "current_trial": 144, "dateTime": 1512753113234, "trialdata": {"rt": 1569, "key_press": 13, "type": "INSTRUCTIONS", "trial_type": "text", "trial_index": 144, "time_elapsed": 684699, "internal_node_id": "0.0-108.0"}}, {"uniqueid": "MTK0777:32VNZTT0A8B9FMNCMC5LSUB5SRWR4I", "current_trial": 145, "dateTime": 1512753127238, "trialdata": {"rt": [1750, 3366, 6174, 7966, 10311], "responses": ["13", "15", "17", "12", "15"], "num1": [5, 5, 6, 1, 8, 2], "num2": [5, 9, 9, 7, 6, 6], "num3": [3, 1, 3, 4, 1, 8], "type": "DISTRACTOR", "conditions": [24, 800, "v", 12000], "trial": 4, "trial_type": "math-distractor", "trial_index": 145, "time_elapsed": 698703, "internal_node_id": "0.0-109.0"}}, {"uniqueid": "MTK0777:32VNZTT0A8B9FMNCMC5LSUB5SRWR4I", "current_trial": 146, "dateTime": 1512753130239, "trialdata": {"rt": -1, "stimulus": "<p id=\"stim\">10</p>", "key_press": -1, "trial_type": "single-stim", "trial_index": 146, "time_elapsed": 701704, "internal_node_id": "0.0-110.0-0.0"}}, {"uniqueid": "MTK0777:32VNZTT0A8B9FMNCMC5LSUB5SRWR4I", "current_trial": 147, "dateTime": 1512753131240, "trialdata": {"rt": -1, "stimulus": "<p id=\"stim\">9</p>", "key_press": -1, "trial_type": "single-stim", "trial_index": 147, "time_elapsed": 702705, "internal_node_id": "0.0-110.0-1.0"}}, {"uniqueid": "MTK0777:32VNZTT0A8B9FMNCMC5LSUB5SRWR4I", "current_trial": 148, "dateTime": 1512753132242, "trialdata": {"rt": -1, "stimulus": "<p id=\"stim\">8</p>", "key_press": -1, "trial_type": "single-stim", "trial_index": 148, "time_elapsed": 703707, "internal_node_id": "0.0-110.0-2.0"}}, {"uniqueid": "MTK0777:32VNZTT0A8B9FMNCMC5LSUB5SRWR4I", "current_trial": 149, "dateTime": 1512753133243, "trialdata": {"rt": -1, "stimulus": "<p id=\"stim\">7</p>", "key_press": -1, "trial_type": "single-stim", "trial_index": 149, "time_elapsed": 704708, "internal_node_id": "0.0-110.0-3.0"}}, {"uniqueid": "MTK0777:32VNZTT0A8B9FMNCMC5LSUB5SRWR4I", "current_trial": 150, "dateTime": 1512753134244, "trialdata": {"rt": -1, "stimulus": "<p id=\"stim\">6</p>", "key_press": -1, "trial_type": "single-stim", "trial_index": 150, "time_elapsed": 705709, "internal_node_id": "0.0-110.0-4.0"}}, {"uniqueid": "MTK0777:32VNZTT0A8B9FMNCMC5LSUB5SRWR4I", "current_trial": 151, "dateTime": 1512753135246, "trialdata": {"rt": -1, "stimulus": "<p id=\"stim\">5</p>", "key_press": -1, "trial_type": "single-stim", "trial_index": 151, "time_elapsed": 706711, "internal_node_id": "0.0-110.0-5.0"}}, {"uniqueid": "MTK0777:32VNZTT0A8B9FMNCMC5LSUB5SRWR4I", "current_trial": 152, "dateTime": 1512753136248, "trialdata": {"rt": -1, "stimulus": "<p id=\"stim\">4</p>", "key_press": -1, "trial_type": "single-stim", "trial_index": 152, "time_elapsed": 707713, "internal_node_id": "0.0-110.0-6.0"}}, {"uniqueid": "MTK0777:32VNZTT0A8B9FMNCMC5LSUB5SRWR4I", "current_trial": 153, "dateTime": 1512753137249, "trialdata": {"rt": -1, "stimulus": "<p id=\"stim\">3</p>", "key_press": -1, "trial_type": "single-stim", "trial_index": 153, "time_elapsed": 708714, "internal_node_id": "0.0-110.0-7.0"}}, {"uniqueid": "MTK0777:32VNZTT0A8B9FMNCMC5LSUB5SRWR4I", "current_trial": 154, "dateTime": 1512753138250, "trialdata": {"rt": -1, "stimulus": "<p id=\"stim\">2</p>", "key_press": -1, "trial_type": "single-stim", "trial_index": 154, "time_elapsed": 709715, "internal_node_id": "0.0-110.0-8.0"}}, {"uniqueid": "MTK0777:32VNZTT0A8B9FMNCMC5LSUB5SRWR4I", "current_trial": 155, "dateTime": 1512753139251, "trialdata": {"rt": -1, "stimulus": "<p id=\"stim\">1</p>", "key_press": -1, "trial_type": "single-stim", "trial_index": 155, "time_elapsed": 710716, "internal_node_id": "0.0-110.0-9.0"}}, {"uniqueid": "MTK0777:32VNZTT0A8B9FMNCMC5LSUB5SRWR4I", "current_trial": 156, "dateTime": 1512753140752, "trialdata": {"rt": -1, "stimulus": "<p id=\"stim\">+</p>", "key_press": -1, "type": "FIXATION", "trial_type": "single-stim", "trial_index": 156, "time_elapsed": 712217, "internal_node_id": "0.0-111.0-0.0"}}, {"uniqueid": "MTK0777:32VNZTT0A8B9FMNCMC5LSUB5SRWR4I", "current_trial": 157, "dateTime": 1512753141554, "trialdata": {"rt": -1, "stimulus": "<p id=\"stim\">DIVER</p>", "key_press": -1, "type": "PRES_VIS", "word": "diver", "wordID": 475, "conditions": [24, 800, "v", 12000], "trial": 4, "serialpos": 0, "trial_type": "single-stim", "trial_index": 157, "time_elapsed": 713019, "internal_node_id": "0.0-112.0"}}, {"uniqueid": "MTK0777:32VNZTT0A8B9FMNCMC5LSUB5SRWR4I", "current_trial": 158, "dateTime": 1512753143268, "trialdata": {"rt": -1, "stimulus": "<p id=\"stim\">PADDING</p>", "key_press": -1, "type": "PRES_VIS", "word": "padding", "wordID": 998, "conditions": [24, 800, "v", 12000], "trial": 4, "serialpos": 1, "trial_type": "single-stim", "trial_index": 158, "time_elapsed": 714733, "internal_node_id": "0.0-113.0"}}, {"uniqueid": "MTK0777:32VNZTT0A8B9FMNCMC5LSUB5SRWR4I", "current_trial": 159, "dateTime": 1512753144892, "trialdata": {"rt": -1, "stimulus": "<p id=\"stim\">PIGEON</p>", "key_press": -1, "type": "PRES_VIS", "word": "pigeon", "wordID": 1064, "conditions": [24, 800, "v", 12000], "trial": 4, "serialpos": 2, "trial_type": "single-stim", "trial_index": 159, "time_elapsed": 716357, "internal_node_id": "0.0-114.0"}}, {"uniqueid": "MTK0777:32VNZTT0A8B9FMNCMC5LSUB5SRWR4I", "current_trial": 160, "dateTime": 1512753146696, "trialdata": {"rt": -1, "stimulus": "<p id=\"stim\">EXPERT</p>", "key_press": -1, "type": "PRES_VIS", "word": "expert", "wordID": 542, "conditions": [24, 800, "v", 12000], "trial": 4, "serialpos": 3, "trial_type": "single-stim", "trial_index": 160, "time_elapsed": 718161, "internal_node_id": "0.0-115.0"}}, {"uniqueid": "MTK0777:32VNZTT0A8B9FMNCMC5LSUB5SRWR4I", "current_trial": 161, "dateTime": 1512753148320, "trialdata": {"rt": -1, "stimulus": "<p id=\"stim\">RATTLE</p>", "key_press": -1, "type": "PRES_VIS", "word": "rattle", "wordID": 1169, "conditions": [24, 800, "v", 12000], "trial": 4, "serialpos": 4, "trial_type": "single-stim", "trial_index": 161, "time_elapsed": 719785, "internal_node_id": "0.0-116.0"}}, {"uniqueid": "MTK0777:32VNZTT0A8B9FMNCMC5LSUB5SRWR4I", "current_trial": 162, "dateTime": 1512753150188, "trialdata": {"rt": -1, "stimulus": "<p id=\"stim\">KEEPER</p>", "key_press": -1, "type": "PRES_VIS", "word": "keeper", "wordID": 768, "conditions": [24, 800, "v", 12000], "trial": 4, "serialpos": 5, "trial_type": "single-stim", "trial_index": 162, "time_elapsed": 721653, "internal_node_id": "0.0-117.0"}}, {"uniqueid": "MTK0777:32VNZTT0A8B9FMNCMC5LSUB5SRWR4I", "current_trial": 163, "dateTime": 1512753152064, "trialdata": {"rt": -1, "stimulus": "<p id=\"stim\">FOX</p>", "key_press": -1, "type": "PRES_VIS", "word": "fox", "wordID": 597, "conditions": [24, 800, "v", 12000], "trial": 4, "serialpos": 6, "trial_type": "single-stim", "trial_index": 163, "time_elapsed": 723529, "internal_node_id": "0.0-118.0"}}, {"uniqueid": "MTK0777:32VNZTT0A8B9FMNCMC5LSUB5SRWR4I", "current_trial": 164, "dateTime": 1512753154032, "trialdata": {"rt": -1, "stimulus": "<p id=\"stim\">STOMACH</p>", "key_press": -1, "type": "PRES_VIS", "word": "stomach", "wordID": 1383, "conditions": [24, 800, "v", 12000], "trial": 4, "serialpos": 7, "trial_type": "single-stim", "trial_index": 164, "time_elapsed": 725497, "internal_node_id": "0.0-119.0"}}, {"uniqueid": "MTK0777:32VNZTT0A8B9FMNCMC5LSUB5SRWR4I", "current_trial": 165, "dateTime": 1512753155811, "trialdata": {"rt": -1, "stimulus": "<p id=\"stim\">CHEST</p>", "key_press": -1, "type": "PRES_VIS", "word": "chest", "wordID": 294, "conditions": [24, 800, "v", 12000], "trial": 4, "serialpos": 8, "trial_type": "single-stim", "trial_index": 165, "time_elapsed": 727276, "internal_node_id": "0.0-120.0"}}, {"uniqueid": "MTK0777:32VNZTT0A8B9FMNCMC5LSUB5SRWR4I", "current_trial": 166, "dateTime": 1512753157748, "trialdata": {"rt": -1, "stimulus": "<p id=\"stim\">CATCHER</p>", "key_press": -1, "type": "PRES_VIS", "word": "catcher", "wordID": 257, "conditions": [24, 800, "v", 12000], "trial": 4, "serialpos": 9, "trial_type": "single-stim", "trial_index": 166, "time_elapsed": 729213, "internal_node_id": "0.0-121.0"}}, {"uniqueid": "MTK0777:32VNZTT0A8B9FMNCMC5LSUB5SRWR4I", "current_trial": 167, "dateTime": 1512753159468, "trialdata": {"rt": -1, "stimulus": "<p id=\"stim\">FLUTE</p>", "key_press": -1, "type": "PRES_VIS", "word": "flute", "wordID": 584, "conditions": [24, 800, "v", 12000], "trial": 4, "serialpos": 10, "trial_type": "single-stim", "trial_index": 167, "time_elapsed": 730933, "internal_node_id": "0.0-122.0"}}, {"uniqueid": "MTK0777:32VNZTT0A8B9FMNCMC5LSUB5SRWR4I", "current_trial": 168, "dateTime": 1512753161249, "trialdata": {"rt": -1, "stimulus": "<p id=\"stim\">FRIEND</p>", "key_press": -1, "type": "PRES_VIS", "word": "friend", "wordID": 605, "conditions": [24, 800, "v", 12000], "trial": 4, "serialpos": 11, "trial_type": "single-stim", "trial_index": 168, "time_elapsed": 732714, "internal_node_id": "0.0-123.0"}}, {"uniqueid": "MTK0777:32VNZTT0A8B9FMNCMC5LSUB5SRWR4I", "current_trial": 169, "dateTime": 1512753163147, "trialdata": {"rt": -1, "stimulus": "<p id=\"stim\">CLAM</p>", "key_press": -1, "type": "PRES_VIS", "word": "clam", "wordID": 314, "conditions": [24, 800, "v", 12000], "trial": 4, "serialpos": 12, "trial_type": "single-stim", "trial_index": 169, "time_elapsed": 734612, "internal_node_id": "0.0-124.0"}}, {"uniqueid": "MTK0777:32VNZTT0A8B9FMNCMC5LSUB5SRWR4I", "current_trial": 170, "dateTime": 1512753164910, "trialdata": {"rt": -1, "stimulus": "<p id=\"stim\">FRANCE</p>", "key_press": -1, "type": "PRES_VIS", "word": "france", "wordID": 600, "conditions": [24, 800, "v", 12000], "trial": 4, "serialpos": 13, "trial_type": "single-stim", "trial_index": 170, "time_elapsed": 736375, "internal_node_id": "0.0-125.0"}}, {"uniqueid": "MTK0777:32VNZTT0A8B9FMNCMC5LSUB5SRWR4I", "current_trial": 171, "dateTime": 1512753166692, "trialdata": {"rt": -1, "stimulus": "<p id=\"stim\">EUROPE</p>", "key_press": -1, "type": "PRES_VIS", "word": "europe", "wordID": 540, "conditions": [24, 800, "v", 12000], "trial": 4, "serialpos": 14, "trial_type": "single-stim", "trial_index": 171, "time_elapsed": 738157, "internal_node_id": "0.0-126.0"}}, {"uniqueid": "MTK0777:32VNZTT0A8B9FMNCMC5LSUB5SRWR4I", "current_trial": 172, "dateTime": 1512753168438, "trialdata": {"rt": -1, "stimulus": "<p id=\"stim\">SMOG</p>", "key_press": -1, "type": "PRES_VIS", "word": "smog", "wordID": 1329, "conditions": [24, 800, "v", 12000], "trial": 4, "serialpos": 15, "trial_type": "single-stim", "trial_index": 172, "time_elapsed": 739902, "internal_node_id": "0.0-127.0"}}, {"uniqueid": "MTK0777:32VNZTT0A8B9FMNCMC5LSUB5SRWR4I", "current_trial": 173, "dateTime": 1512753170231, "trialdata": {"rt": -1, "stimulus": "<p id=\"stim\">CLOCK</p>", "key_press": -1, "type": "PRES_VIS", "word": "clock", "wordID": 324, "conditions": [24, 800, "v", 12000], "trial": 4, "serialpos": 16, "trial_type": "single-stim", "trial_index": 173, "time_elapsed": 741696, "internal_node_id": "0.0-128.0"}}, {"uniqueid": "MTK0777:32VNZTT0A8B9FMNCMC5LSUB5SRWR4I", "current_trial": 174, "dateTime": 1512753171948, "trialdata": {"rt": -1, "stimulus": "<p id=\"stim\">CLAMP</p>", "key_press": -1, "type": "PRES_VIS", "word": "clamp", "wordID": 315, "conditions": [24, 800, "v", 12000], "trial": 4, "serialpos": 17, "trial_type": "single-stim", "trial_index": 174, "time_elapsed": 743413, "internal_node_id": "0.0-129.0"}}, {"uniqueid": "MTK0777:32VNZTT0A8B9FMNCMC5LSUB5SRWR4I", "current_trial": 175, "dateTime": 1512753173890, "trialdata": {"rt": -1, "stimulus": "<p id=\"stim\">POSSUM</p>", "key_press": -1, "type": "PRES_VIS", "word": "possum", "wordID": 1111, "conditions": [24, 800, "v", 12000], "trial": 4, "serialpos": 18, "trial_type": "single-stim", "trial_index": 175, "time_elapsed": 745355, "internal_node_id": "0.0-130.0"}}, {"uniqueid": "MTK0777:32VNZTT0A8B9FMNCMC5LSUB5SRWR4I", "current_trial": 176, "dateTime": 1512753175560, "trialdata": {"rt": -1, "stimulus": "<p id=\"stim\">SALT</p>", "key_press": -1, "type": "PRES_VIS", "word": "salt", "wordID": 1228, "conditions": [24, 800, "v", 12000], "trial": 4, "serialpos": 19, "trial_type": "single-stim", "trial_index": 176, "time_elapsed": 747025, "internal_node_id": "0.0-131.0"}}, {"uniqueid": "MTK0777:32VNZTT0A8B9FMNCMC5LSUB5SRWR4I", "current_trial": 177, "dateTime": 1512753177420, "trialdata": {"rt": -1, "stimulus": "<p id=\"stim\">STREAM</p>", "key_press": -1, "type": "PRES_VIS", "word": "stream", "wordID": 1391, "conditions": [24, 800, "v", 12000], "trial": 4, "serialpos": 20, "trial_type": "single-stim", "trial_index": 177, "time_elapsed": 748885, "internal_node_id": "0.0-132.0"}}, {"uniqueid": "MTK0777:32VNZTT0A8B9FMNCMC5LSUB5SRWR4I", "current_trial": 178, "dateTime": 1512753179391, "trialdata": {"rt": -1, "stimulus": "<p id=\"stim\">OZONE</p>", "key_press": -1, "type": "PRES_VIS", "word": "ozone", "wordID": 995, "conditions": [24, 800, "v", 12000], "trial": 4, "serialpos": 21, "trial_type": "single-stim", "trial_index": 178, "time_elapsed": 750856, "internal_node_id": "0.0-133.0"}}, {"uniqueid": "MTK0777:32VNZTT0A8B9FMNCMC5LSUB5SRWR4I", "current_trial": 179, "dateTime": 1512753181231, "trialdata": {"rt": -1, "stimulus": "<p id=\"stim\">FLAG</p>", "key_press": -1, "type": "PRES_VIS", "word": "flag", "wordID": 572, "conditions": [24, 800, "v", 12000], "trial": 4, "serialpos": 22, "trial_type": "single-stim", "trial_index": 179, "time_elapsed": 752696, "internal_node_id": "0.0-134.0"}}, {"uniqueid": "MTK0777:32VNZTT0A8B9FMNCMC5LSUB5SRWR4I", "current_trial": 180, "dateTime": 1512753183228, "trialdata": {"rt": -1, "stimulus": "<p id=\"stim\">ROBIN</p>", "key_press": -1, "type": "PRES_VIS", "word": "robin", "wordID": 1198, "conditions": [24, 800, "v", 12000], "trial": 4, "serialpos": 23, "trial_type": "single-stim", "trial_index": 180, "time_elapsed": 754693, "internal_node_id": "0.0-135.0"}}, {"uniqueid": "MTK0777:32VNZTT0A8B9FMNCMC5LSUB5SRWR4I", "current_trial": 181, "dateTime": 1512753185538, "trialdata": {"rt": -1, "stimulus": "", "key_press": -1, "type": "PRE_RECALL_DELAY", "trial_type": "single-stim", "trial_index": 181, "time_elapsed": 757003, "internal_node_id": "0.0-136.0-0.0"}}, {"uniqueid": "MTK0777:32VNZTT0A8B9FMNCMC5LSUB5SRWR4I", "current_trial": 182, "dateTime": 1512753186041, "trialdata": {"rt": -1000, "stimulus": "/static/audio/400Hz.wav", "key_press": -1, "type": "PRE_RECALL_ALERT", "trial_type": "single-audio", "trial_index": 182, "time_elapsed": 757506, "internal_node_id": "0.0-137.0"}}, {"uniqueid": "MTK0777:32VNZTT0A8B9FMNCMC5LSUB5SRWR4I", "current_trial": 183, "dateTime": 1512753246045, "trialdata": {"rt": [10770, 12273, 12561, 16321, 18985, 20545, 22337, 28265, 31137, 32617, 34505, 36257, 39232, 44664, 46079, 48319, 54576], "recwords": ["diver", "padding", "", "pigeon", "keeper", "stomach", "flute", "robin", "glag", "salt", "flag", "clock", "possum", "keeper", "fox", "chest", "possum"], "type": "FREE_RECALL", "conditions": [24, 800, "v", 12000], "trial": 4, "trial_type": "free-recall", "trial_index": 183, "time_elapsed": 817507, "internal_node_id": "0.0-138.0-0.0"}}, {"uniqueid": "MTK0777:32VNZTT0A8B9FMNCMC5LSUB5SRWR4I", "current_trial": 184, "dateTime": 1512753256705, "trialdata": {"rt": 8658, "key_press": 13, "type": "INSTRUCTIONS", "trial_type": "text", "trial_index": 184, "time_elapsed": 828170, "internal_node_id": "0.0-139.0"}}, {"uniqueid": "MTK0777:32VNZTT0A8B9FMNCMC5LSUB5SRWR4I", "current_trial": 185, "dateTime": 1512753270708, "trialdata": {"rt": [1638, 3453, 7517], "responses": ["16", "10", "13"], "num1": [3, 2, 4, 9], "num2": [6, 5, 5, 6], "num3": [7, 3, 4, 8], "type": "DISTRACTOR", "conditions": [24, 1600, "a", 12000], "trial": 5, "trial_type": "math-distractor", "trial_index": 185, "time_elapsed": 842173, "internal_node_id": "0.0-140.0"}}, {"uniqueid": "MTK0777:32VNZTT0A8B9FMNCMC5LSUB5SRWR4I", "current_trial": 186, "dateTime": 1512753273710, "trialdata": {"rt": -1, "stimulus": "<p id=\"stim\">10</p>", "key_press": -1, "trial_type": "single-stim", "trial_index": 186, "time_elapsed": 845175, "internal_node_id": "0.0-141.0-0.0"}}, {"uniqueid": "MTK0777:32VNZTT0A8B9FMNCMC5LSUB5SRWR4I", "current_trial": 187, "dateTime": 1512753274712, "trialdata": {"rt": -1, "stimulus": "<p id=\"stim\">9</p>", "key_press": -1, "trial_type": "single-stim", "trial_index": 187, "time_elapsed": 846177, "internal_node_id": "0.0-141.0-1.0"}}, {"uniqueid": "MTK0777:32VNZTT0A8B9FMNCMC5LSUB5SRWR4I", "current_trial": 188, "dateTime": 1512753275713, "trialdata": {"rt": -1, "stimulus": "<p id=\"stim\">8</p>", "key_press": -1, "trial_type": "single-stim", "trial_index": 188, "time_elapsed": 847178, "internal_node_id": "0.0-141.0-2.0"}}, {"uniqueid": "MTK0777:32VNZTT0A8B9FMNCMC5LSUB5SRWR4I", "current_trial": 189, "dateTime": 1512753276715, "trialdata": {"rt": -1, "stimulus": "<p id=\"stim\">7</p>", "key_press": -1, "trial_type": "single-stim", "trial_index": 189, "time_elapsed": 848179, "internal_node_id": "0.0-141.0-3.0"}}, {"uniqueid": "MTK0777:32VNZTT0A8B9FMNCMC5LSUB5SRWR4I", "current_trial": 190, "dateTime": 1512753277716, "trialdata": {"rt": -1, "stimulus": "<p id=\"stim\">6</p>", "key_press": -1, "trial_type": "single-stim", "trial_index": 190, "time_elapsed": 849181, "internal_node_id": "0.0-141.0-4.0"}}, {"uniqueid": "MTK0777:32VNZTT0A8B9FMNCMC5LSUB5SRWR4I", "current_trial": 191, "dateTime": 1512753278717, "trialdata": {"rt": -1, "stimulus": "<p id=\"stim\">5</p>", "key_press": -1, "trial_type": "single-stim", "trial_index": 191, "time_elapsed": 850181, "internal_node_id": "0.0-141.0-5.0"}}, {"uniqueid": "MTK0777:32VNZTT0A8B9FMNCMC5LSUB5SRWR4I", "current_trial": 192, "dateTime": 1512753279718, "trialdata": {"rt": -1, "stimulus": "<p id=\"stim\">4</p>", "key_press": -1, "trial_type": "single-stim", "trial_index": 192, "time_elapsed": 851183, "internal_node_id": "0.0-141.0-6.0"}}, {"uniqueid": "MTK0777:32VNZTT0A8B9FMNCMC5LSUB5SRWR4I", "current_trial": 193, "dateTime": 1512753280719, "trialdata": {"rt": -1, "stimulus": "<p id=\"stim\">3</p>", "key_press": -1, "trial_type": "single-stim", "trial_index": 193, "time_elapsed": 852184, "internal_node_id": "0.0-141.0-7.0"}}, {"uniqueid": "MTK0777:32VNZTT0A8B9FMNCMC5LSUB5SRWR4I", "current_trial": 194, "dateTime": 1512753281721, "trialdata": {"rt": -1, "stimulus": "<p id=\"stim\">2</p>", "key_press": -1, "trial_type": "single-stim", "trial_index": 194, "time_elapsed": 853186, "internal_node_id": "0.0-141.0-8.0"}}, {"uniqueid": "MTK0777:32VNZTT0A8B9FMNCMC5LSUB5SRWR4I", "current_trial": 195, "dateTime": 1512753282723, "trialdata": {"rt": -1, "stimulus": "<p id=\"stim\">1</p>", "key_press": -1, "trial_type": "single-stim", "trial_index": 195, "time_elapsed": 854187, "internal_node_id": "0.0-141.0-9.0"}}, {"uniqueid": "MTK0777:32VNZTT0A8B9FMNCMC5LSUB5SRWR4I", "current_trial": 196, "dateTime": 1512753284224, "trialdata": {"rt": -1, "stimulus": "<p id=\"stim\">+</p>", "key_press": -1, "type": "FIXATION", "trial_type": "single-stim", "trial_index": 196, "time_elapsed": 855688, "internal_node_id": "0.0-142.0-0.0"}}, {"uniqueid": "MTK0777:32VNZTT0A8B9FMNCMC5LSUB5SRWR4I", "current_trial": 197, "dateTime": 1512753286661, "trialdata": {"rt": -1000, "stimulus": "/static/audio/wordpool/LIVER.wav", "key_press": -1, "type": "PRES_AUD", "word": "liver", "wordID": 832, "conditions": [24, 1600, "a", 12000], "trial": 5, "serialpos": 0, "trial_type": "single-audio", "trial_index": 197, "time_elapsed": 858125, "internal_node_id": "0.0-143.0"}}, {"uniqueid": "MTK0777:32VNZTT0A8B9FMNCMC5LSUB5SRWR4I", "current_trial": 198, "dateTime": 1512753289219, "trialdata": {"rt": -1000, "stimulus": "/static/audio/wordpool/DUSTPAN.wav", "key_press": -1, "type": "PRES_AUD", "word": "dustpan", "wordID": 508, "conditions": [24, 1600, "a", 12000], "trial": 5, "serialpos": 1, "trial_type": "single-audio", "trial_index": 198, "time_elapsed": 860684, "internal_node_id": "0.0-144.0"}}, {"uniqueid": "MTK0777:32VNZTT0A8B9FMNCMC5LSUB5SRWR4I", "current_trial": 199, "dateTime": 1512753291680, "trialdata": {"rt": -1000, "stimulus": "/static/audio/wordpool/LEG.wav", "key_press": -1, "type": "PRES_AUD", "word": "leg", "wordID": 808, "conditions": [24, 1600, "a", 12000], "trial": 5, "serialpos": 2, "trial_type": "single-audio", "trial_index": 199, "time_elapsed": 863144, "internal_node_id": "0.0-145.0"}}, {"uniqueid": "MTK0777:32VNZTT0A8B9FMNCMC5LSUB5SRWR4I", "current_trial": 200, "dateTime": 1512753294245, "trialdata": {"rt": -1000, "stimulus": "/static/audio/wordpool/TROUT.wav", "key_press": -1, "type": "PRES_AUD", "word": "trout", "wordID": 1510, "conditions": [24, 1600, "a", 12000], "trial": 5, "serialpos": 3, "trial_type": "single-audio", "trial_index": 200, "time_elapsed": 865710, "internal_node_id": "0.0-146.0"}}, {"uniqueid": "MTK0777:32VNZTT0A8B9FMNCMC5LSUB5SRWR4I", "current_trial": 201, "dateTime": 1512753296911, "trialdata": {"rt": -1000, "stimulus": "/static/audio/wordpool/SALMON.wav", "key_press": -1, "type": "PRES_AUD", "word": "salmon", "wordID": 1226, "conditions": [24, 1600, "a", 12000], "trial": 5, "serialpos": 4, "trial_type": "single-audio", "trial_index": 201, "time_elapsed": 868376, "internal_node_id": "0.0-147.0"}}, {"uniqueid": "MTK0777:32VNZTT0A8B9FMNCMC5LSUB5SRWR4I", "current_trial": 202, "dateTime": 1512753299481, "trialdata": {"rt": -1000, "stimulus": "/static/audio/wordpool/ACTRESS.wav", "key_press": -1, "type": "PRES_AUD", "word": "actress", "wordID": 5, "conditions": [24, 1600, "a", 12000], "trial": 5, "serialpos": 5, "trial_type": "single-audio", "trial_index": 202, "time_elapsed": 870946, "internal_node_id": "0.0-148.0"}}, {"uniqueid": "MTK0777:32VNZTT0A8B9FMNCMC5LSUB5SRWR4I", "current_trial": 203, "dateTime": 1512753301962, "trialdata": {"rt": -1000, "stimulus": "/static/audio/wordpool/MAPLE.wav", "key_press": -1, "type": "PRES_AUD", "word": "maple", "wordID": 865, "conditions": [24, 1600, "a", 12000], "trial": 5, "serialpos": 6, "trial_type": "single-audio", "trial_index": 203, "time_elapsed": 873427, "internal_node_id": "0.0-149.0"}}, {"uniqueid": "MTK0777:32VNZTT0A8B9FMNCMC5LSUB5SRWR4I", "current_trial": 204, "dateTime": 1512753304379, "trialdata": {"rt": -1000, "stimulus": "/static/audio/wordpool/BOUQUET.wav", "key_press": -1, "type": "PRES_AUD", "word": "bouquet", "wordID": 156, "conditions": [24, 1600, "a", 12000], "trial": 5, "serialpos": 7, "trial_type": "single-audio", "trial_index": 204, "time_elapsed": 875844, "internal_node_id": "0.0-150.0"}}, {"uniqueid": "MTK0777:32VNZTT0A8B9FMNCMC5LSUB5SRWR4I", "current_trial": 205, "dateTime": 1512753307096, "trialdata": {"rt": -1000, "stimulus": "/static/audio/wordpool/ARM.wav", "key_press": -1, "type": "PRES_AUD", "word": "arm", "wordID": 37, "conditions": [24, 1600, "a", 12000], "trial": 5, "serialpos": 8, "trial_type": "single-audio", "trial_index": 205, "time_elapsed": 878561, "internal_node_id": "0.0-151.0"}}, {"uniqueid": "MTK0777:32VNZTT0A8B9FMNCMC5LSUB5SRWR4I", "current_trial": 206, "dateTime": 1512753309881, "trialdata": {"rt": -1000, "stimulus": "/static/audio/wordpool/SKILLET.wav", "key_press": -1, "type": "PRES_AUD", "word": "skillet", "wordID": 1316, "conditions": [24, 1600, "a", 12000], "trial": 5, "serialpos": 9, "trial_type": "single-audio", "trial_index": 206, "time_elapsed": 881346, "internal_node_id": "0.0-152.0"}}, {"uniqueid": "MTK0777:32VNZTT0A8B9FMNCMC5LSUB5SRWR4I", "current_trial": 207, "dateTime": 1512753312573, "trialdata": {"rt": -1000, "stimulus": "/static/audio/wordpool/CREVICE.wav", "key_press": -1, "type": "PRES_AUD", "word": "crevice", "wordID": 404, "conditions": [24, 1600, "a", 12000], "trial": 5, "serialpos": 10, "trial_type": "single-audio", "trial_index": 207, "time_elapsed": 884037, "internal_node_id": "0.0-153.0"}}, {"uniqueid": "MTK0777:32VNZTT0A8B9FMNCMC5LSUB5SRWR4I", "current_trial": 208, "dateTime": 1512753315007, "trialdata": {"rt": -1000, "stimulus": "/static/audio/wordpool/BINDER.wav", "key_press": -1, "type": "PRES_AUD", "word": "binder", "wordID": 126, "conditions": [24, 1600, "a", 12000], "trial": 5, "serialpos": 11, "trial_type": "single-audio", "trial_index": 208, "time_elapsed": 886472, "internal_node_id": "0.0-154.0"}}, {"uniqueid": "MTK0777:32VNZTT0A8B9FMNCMC5LSUB5SRWR4I", "current_trial": 209, "dateTime": 1512753317743, "trialdata": {"rt": -1000, "stimulus": "/static/audio/wordpool/DAUGHTER.wav", "key_press": -1, "type": "PRES_AUD", "word": "daughter", "wordID": 441, "conditions": [24, 1600, "a", 12000], "trial": 5, "serialpos": 12, "trial_type": "single-audio", "trial_index": 209, "time_elapsed": 889208, "internal_node_id": "0.0-155.0"}}, {"uniqueid": "MTK0777:32VNZTT0A8B9FMNCMC5LSUB5SRWR4I", "current_trial": 210, "dateTime": 1512753320280, "trialdata": {"rt": -1000, "stimulus": "/static/audio/wordpool/OINTMENT.wav", "key_press": -1, "type": "PRES_AUD", "word": "ointment", "wordID": 973, "conditions": [24, 1600, "a", 12000], "trial": 5, "serialpos": 13, "trial_type": "single-audio", "trial_index": 210, "time_elapsed": 891745, "internal_node_id": "0.0-156.0"}}, {"uniqueid": "MTK0777:32VNZTT0A8B9FMNCMC5LSUB5SRWR4I", "current_trial": 211, "dateTime": 1512753322713, "trialdata": {"rt": -1000, "stimulus": "/static/audio/wordpool/WASP.wav", "key_press": -1, "type": "PRES_AUD", "word": "wasp", "wordID": 1592, "conditions": [24, 1600, "a", 12000], "trial": 5, "serialpos": 14, "trial_type": "single-audio", "trial_index": 211, "time_elapsed": 894178, "internal_node_id": "0.0-157.0"}}, {"uniqueid": "MTK0777:32VNZTT0A8B9FMNCMC5LSUB5SRWR4I", "current_trial": 212, "dateTime": 1512753325283, "trialdata": {"rt": -1000, "stimulus": "/static/audio/wordpool/BANJO.wav", "key_press": -1, "type": "PRES_AUD", "word": "banjo", "wordID": 81, "conditions": [24, 1600, "a", 12000], "trial": 5, "serialpos": 15, "trial_type": "single-audio", "trial_index": 212, "time_elapsed": 896748, "internal_node_id": "0.0-158.0"}}, {"uniqueid": "MTK0777:32VNZTT0A8B9FMNCMC5LSUB5SRWR4I", "current_trial": 213, "dateTime": 1512753327990, "trialdata": {"rt": -1000, "stimulus": "/static/audio/wordpool/MISSILE.wav", "key_press": -1, "type": "PRES_AUD", "word": "missile", "wordID": 899, "conditions": [24, 1600, "a", 12000], "trial": 5, "serialpos": 16, "trial_type": "single-audio", "trial_index": 213, "time_elapsed": 899455, "internal_node_id": "0.0-159.0"}}, {"uniqueid": "MTK0777:32VNZTT0A8B9FMNCMC5LSUB5SRWR4I", "current_trial": 214, "dateTime": 1512753330578, "trialdata": {"rt": -1000, "stimulus": "/static/audio/wordpool/OUTDOORS.wav", "key_press": -1, "type": "PRES_AUD", "word": "outdoors", "wordID": 986, "conditions": [24, 1600, "a", 12000], "trial": 5, "serialpos": 17, "trial_type": "single-audio", "trial_index": 214, "time_elapsed": 902043, "internal_node_id": "0.0-160.0"}}, {"uniqueid": "MTK0777:32VNZTT0A8B9FMNCMC5LSUB5SRWR4I", "current_trial": 215, "dateTime": 1512753333285, "trialdata": {"rt": -1000, "stimulus": "/static/audio/wordpool/KLEENEX.wav", "key_press": -1, "type": "PRES_AUD", "word": "kleenex", "wordID": 781, "conditions": [24, 1600, "a", 12000], "trial": 5, "serialpos": 18, "trial_type": "single-audio", "trial_index": 215, "time_elapsed": 904749, "internal_node_id": "0.0-161.0"}}, {"uniqueid": "MTK0777:32VNZTT0A8B9FMNCMC5LSUB5SRWR4I", "current_trial": 216, "dateTime": 1512753335782, "trialdata": {"rt": -1000, "stimulus": "/static/audio/wordpool/RAZOR.wav", "key_press": -1, "type": "PRES_AUD", "word": "razor", "wordID": 1170, "conditions": [24, 1600, "a", 12000], "trial": 5, "serialpos": 19, "trial_type": "single-audio", "trial_index": 216, "time_elapsed": 907247, "internal_node_id": "0.0-162.0"}}, {"uniqueid": "MTK0777:32VNZTT0A8B9FMNCMC5LSUB5SRWR4I", "current_trial": 217, "dateTime": 1512753338228, "trialdata": {"rt": -1000, "stimulus": "/static/audio/wordpool/SCISSORS.wav", "key_press": -1, "type": "PRES_AUD", "word": "scissors", "wordID": 1249, "conditions": [24, 1600, "a", 12000], "trial": 5, "serialpos": 20, "trial_type": "single-audio", "trial_index": 217, "time_elapsed": 909693, "internal_node_id": "0.0-163.0"}}, {"uniqueid": "MTK0777:32VNZTT0A8B9FMNCMC5LSUB5SRWR4I", "current_trial": 218, "dateTime": 1512753340918, "trialdata": {"rt": -1000, "stimulus": "/static/audio/wordpool/MACHINE.wav", "key_press": -1, "type": "PRES_AUD", "word": "machine", "wordID": 851, "conditions": [24, 1600, "a", 12000], "trial": 5, "serialpos": 21, "trial_type": "single-audio", "trial_index": 218, "time_elapsed": 912383, "internal_node_id": "0.0-164.0"}}, {"uniqueid": "MTK0777:32VNZTT0A8B9FMNCMC5LSUB5SRWR4I", "current_trial": 219, "dateTime": 1512753343454, "trialdata": {"rt": -1000, "stimulus": "/static/audio/wordpool/HARP.wav", "key_press": -1, "type": "PRES_AUD", "word": "harp", "wordID": 688, "conditions": [24, 1600, "a", 12000], "trial": 5, "serialpos": 22, "trial_type": "single-audio", "trial_index": 219, "time_elapsed": 914918, "internal_node_id": "0.0-165.0"}}, {"uniqueid": "MTK0777:32VNZTT0A8B9FMNCMC5LSUB5SRWR4I", "current_trial": 220, "dateTime": 1512753345961, "trialdata": {"rt": -1000, "stimulus": "/static/audio/wordpool/MAMMAL.wav", "key_press": -1, "type": "PRES_AUD", "word": "mammal", "wordID": 860, "conditions": [24, 1600, "a", 12000], "trial": 5, "serialpos": 23, "trial_type": "single-audio", "trial_index": 220, "time_elapsed": 917426, "internal_node_id": "0.0-166.0"}}, {"uniqueid": "MTK0777:32VNZTT0A8B9FMNCMC5LSUB5SRWR4I", "current_trial": 221, "dateTime": 1512753347342, "trialdata": {"rt": -1, "stimulus": "", "key_press": -1, "type": "PRE_RECALL_DELAY", "trial_type": "single-stim", "trial_index": 221, "time_elapsed": 918807, "internal_node_id": "0.0-167.0-0.0"}}, {"uniqueid": "MTK0777:32VNZTT0A8B9FMNCMC5LSUB5SRWR4I", "current_trial": 222, "dateTime": 1512753347844, "trialdata": {"rt": -1000, "stimulus": "/static/audio/400Hz.wav", "key_press": -1, "type": "PRE_RECALL_ALERT", "trial_type": "single-audio", "trial_index": 222, "time_elapsed": 919308, "internal_node_id": "0.0-168.0"}}, {"uniqueid": "MTK0777:32VNZTT0A8B9FMNCMC5LSUB5SRWR4I", "current_trial": 223, "dateTime": 1512753407850, "trialdata": {"rt": [4931, 6851, 11731, 13611, 17147, 21267, 23082, 24475, 27226, 30755, 33691, 44490, 47074, 58610], "recwords": ["mammel", "razor", "kleenec", "outsoors", "ointment", "actress", "skillet", "arm", "bouquet", "kleenex", "wasp", "scissors", "banjo", "crevice"], "type": "FREE_RECALL", "conditions": [24, 1600, "a", 12000], "trial": 5, "trial_type": "free-recall", "trial_index": 223, "time_elapsed": 979312, "internal_node_id": "0.0-169.0-0.0"}}, {"uniqueid": "MTK0777:32VNZTT0A8B9FMNCMC5LSUB5SRWR4I", "current_trial": 224, "dateTime": 1512753533942, "trialdata": {"rt": 124091, "key_press": 13, "type": "INSTRUCTIONS", "trial_type": "text", "trial_index": 224, "time_elapsed": 1105407, "internal_node_id": "0.0-170.0"}}, {"uniqueid": "MTK0777:32VNZTT0A8B9FMNCMC5LSUB5SRWR4I", "current_trial": 225, "dateTime": 1512753547946, "trialdata": {"rt": [1740, 3524, 6948, 10828], "responses": ["19", "13", "15", "16"], "num1": [5, 4, 7, 2, 2], "num2": [7, 7, 6, 7, 3], "num3": [7, 2, 2, 6, 6], "type": "DISTRACTOR", "conditions": [12, 800, "v", 12000], "trial": 6, "trial_type": "math-distractor", "trial_index": 225, "time_elapsed": 1119411, "internal_node_id": "0.0-171.0"}}, {"uniqueid": "MTK0777:32VNZTT0A8B9FMNCMC5LSUB5SRWR4I", "current_trial": 226, "dateTime": 1512753550948, "trialdata": {"rt": -1, "stimulus": "<p id=\"stim\">10</p>", "key_press": -1, "trial_type": "single-stim", "trial_index": 226, "time_elapsed": 1122413, "internal_node_id": "0.0-172.0-0.0"}}, {"uniqueid": "MTK0777:32VNZTT0A8B9FMNCMC5LSUB5SRWR4I", "current_trial": 227, "dateTime": 1512753551949, "trialdata": {"rt": -1, "stimulus": "<p id=\"stim\">9</p>", "key_press": -1, "trial_type": "single-stim", "trial_index": 227, "time_elapsed": 1123414, "internal_node_id": "0.0-172.0-1.0"}}, {"uniqueid": "MTK0777:32VNZTT0A8B9FMNCMC5LSUB5SRWR4I", "current_trial": 228, "dateTime": 1512753552952, "trialdata": {"rt": -1, "stimulus": "<p id=\"stim\">8</p>", "key_press": -1, "trial_type": "single-stim", "trial_index": 228, "time_elapsed": 1124416, "internal_node_id": "0.0-172.0-2.0"}}, {"uniqueid": "MTK0777:32VNZTT0A8B9FMNCMC5LSUB5SRWR4I", "current_trial": 229, "dateTime": 1512753553954, "trialdata": {"rt": -1, "stimulus": "<p id=\"stim\">7</p>", "key_press": -1, "trial_type": "single-stim", "trial_index": 229, "time_elapsed": 1125418, "internal_node_id": "0.0-172.0-3.0"}}, {"uniqueid": "MTK0777:32VNZTT0A8B9FMNCMC5LSUB5SRWR4I", "current_trial": 230, "dateTime": 1512753554955, "trialdata": {"rt": -1, "stimulus": "<p id=\"stim\">6</p>", "key_press": -1, "trial_type": "single-stim", "trial_index": 230, "time_elapsed": 1126420, "internal_node_id": "0.0-172.0-4.0"}}, {"uniqueid": "MTK0777:32VNZTT0A8B9FMNCMC5LSUB5SRWR4I", "current_trial": 231, "dateTime": 1512753555956, "trialdata": {"rt": -1, "stimulus": "<p id=\"stim\">5</p>", "key_press": -1, "trial_type": "single-stim", "trial_index": 231, "time_elapsed": 1127421, "internal_node_id": "0.0-172.0-5.0"}}, {"uniqueid": "MTK0777:32VNZTT0A8B9FMNCMC5LSUB5SRWR4I", "current_trial": 232, "dateTime": 1512753556957, "trialdata": {"rt": -1, "stimulus": "<p id=\"stim\">4</p>", "key_press": -1, "trial_type": "single-stim", "trial_index": 232, "time_elapsed": 1128422, "internal_node_id": "0.0-172.0-6.0"}}, {"uniqueid": "MTK0777:32VNZTT0A8B9FMNCMC5LSUB5SRWR4I", "current_trial": 233, "dateTime": 1512753557958, "trialdata": {"rt": -1, "stimulus": "<p id=\"stim\">3</p>", "key_press": -1, "trial_type": "single-stim", "trial_index": 233, "time_elapsed": 1129423, "internal_node_id": "0.0-172.0-7.0"}}, {"uniqueid": "MTK0777:32VNZTT0A8B9FMNCMC5LSUB5SRWR4I", "current_trial": 234, "dateTime": 1512753558960, "trialdata": {"rt": -1, "stimulus": "<p id=\"stim\">2</p>", "key_press": -1, "trial_type": "single-stim", "trial_index": 234, "time_elapsed": 1130425, "internal_node_id": "0.0-172.0-8.0"}}, {"uniqueid": "MTK0777:32VNZTT0A8B9FMNCMC5LSUB5SRWR4I", "current_trial": 235, "dateTime": 1512753559961, "trialdata": {"rt": -1, "stimulus": "<p id=\"stim\">1</p>", "key_press": -1, "trial_type": "single-stim", "trial_index": 235, "time_elapsed": 1131426, "internal_node_id": "0.0-172.0-9.0"}}, {"uniqueid": "MTK0777:32VNZTT0A8B9FMNCMC5LSUB5SRWR4I", "current_trial": 236, "dateTime": 1512753561462, "trialdata": {"rt": -1, "stimulus": "<p id=\"stim\">+</p>", "key_press": -1, "type": "FIXATION", "trial_type": "single-stim", "trial_index": 236, "time_elapsed": 1132927, "internal_node_id": "0.0-173.0-0.0"}}, {"uniqueid": "MTK0777:32VNZTT0A8B9FMNCMC5LSUB5SRWR4I", "current_trial": 237, "dateTime": 1512753562263, "trialdata": {"rt": -1, "stimulus": "<p id=\"stim\">WARDROBE</p>", "key_press": -1, "type": "PRES_VIS", "word": "wardrobe", "wordID": 1586, "conditions": [12, 800, "v", 12000], "trial": 6, "serialpos": 0, "trial_type": "single-stim", "trial_index": 237, "time_elapsed": 1133728, "internal_node_id": "0.0-174.0"}}, {"uniqueid": "MTK0777:32VNZTT0A8B9FMNCMC5LSUB5SRWR4I", "current_trial": 238, "dateTime": 1512753563869, "trialdata": {"rt": -1, "stimulus": "<p id=\"stim\">ROBOT</p>", "key_press": -1, "type": "PRES_VIS", "word": "robot", "wordID": 1199, "conditions": [12, 800, "v", 12000], "trial": 6, "serialpos": 1, "trial_type": "single-stim", "trial_index": 238, "time_elapsed": 1135334, "internal_node_id": "0.0-175.0"}}, {"uniqueid": "MTK0777:32VNZTT0A8B9FMNCMC5LSUB5SRWR4I", "current_trial": 239, "dateTime": 1512753565747, "trialdata": {"rt": -1, "stimulus": "<p id=\"stim\">GRAVE</p>", "key_press": -1, "type": "PRES_VIS", "word": "grave", "wordID": 657, "conditions": [12, 800, "v", 12000], "trial": 6, "serialpos": 2, "trial_type": "single-stim", "trial_index": 239, "time_elapsed": 1137212, "internal_node_id": "0.0-176.0"}}, {"uniqueid": "MTK0777:32VNZTT0A8B9FMNCMC5LSUB5SRWR4I", "current_trial": 240, "dateTime": 1512753567431, "trialdata": {"rt": -1, "stimulus": "<p id=\"stim\">DRAGON</p>", "key_press": -1, "type": "PRES_VIS", "word": "dragon", "wordID": 491, "conditions": [12, 800, "v", 12000], "trial": 6, "serialpos": 3, "trial_type": "single-stim", "trial_index": 240, "time_elapsed": 1138896, "internal_node_id": "0.0-177.0"}}, {"uniqueid": "MTK0777:32VNZTT0A8B9FMNCMC5LSUB5SRWR4I", "current_trial": 241, "dateTime": 1512753569373, "trialdata": {"rt": -1, "stimulus": "<p id=\"stim\">SUNSET</p>", "key_press": -1, "type": "PRES_VIS", "word": "sunset", "wordID": 1407, "conditions": [12, 800, "v", 12000], "trial": 6, "serialpos": 4, "trial_type": "single-stim", "trial_index": 241, "time_elapsed": 1140838, "internal_node_id": "0.0-178.0"}}, {"uniqueid": "MTK0777:32VNZTT0A8B9FMNCMC5LSUB5SRWR4I", "current_trial": 242, "dateTime": 1512753571000, "trialdata": {"rt": -1, "stimulus": "<p id=\"stim\">ROOSTER</p>", "key_press": -1, "type": "PRES_VIS", "word": "rooster", "wordID": 1208, "conditions": [12, 800, "v", 12000], "trial": 6, "serialpos": 5, "trial_type": "single-stim", "trial_index": 242, "time_elapsed": 1142465, "internal_node_id": "0.0-179.0"}}, {"uniqueid": "MTK0777:32VNZTT0A8B9FMNCMC5LSUB5SRWR4I", "current_trial": 243, "dateTime": 1512753572775, "trialdata": {"rt": -1, "stimulus": "<p id=\"stim\">GOBLIN</p>", "key_press": -1, "type": "PRES_VIS", "word": "goblin", "wordID": 644, "conditions": [12, 800, "v", 12000], "trial": 6, "serialpos": 6, "trial_type": "single-stim", "trial_index": 243, "time_elapsed": 1144240, "internal_node_id": "0.0-180.0"}}, {"uniqueid": "MTK0777:32VNZTT0A8B9FMNCMC5LSUB5SRWR4I", "current_trial": 244, "dateTime": 1512753574534, "trialdata": {"rt": -1, "stimulus": "<p id=\"stim\">TEMPLE</p>", "key_press": -1, "type": "PRES_VIS", "word": "temple", "wordID": 1447, "conditions": [12, 800, "v", 12000], "trial": 6, "serialpos": 7, "trial_type": "single-stim", "trial_index": 244, "time_elapsed": 1145998, "internal_node_id": "0.0-181.0"}}, {"uniqueid": "MTK0777:32VNZTT0A8B9FMNCMC5LSUB5SRWR4I", "current_trial": 245, "dateTime": 1512753576391, "trialdata": {"rt": -1, "stimulus": "<p id=\"stim\">GYMNAST</p>", "key_press": -1, "type": "PRES_VIS", "word": "gymnast", "wordID": 674, "conditions": [12, 800, "v", 12000], "trial": 6, "serialpos": 8, "trial_type": "single-stim", "trial_index": 245, "time_elapsed": 1147856, "internal_node_id": "0.0-182.0"}}, {"uniqueid": "MTK0777:32VNZTT0A8B9FMNCMC5LSUB5SRWR4I", "current_trial": 246, "dateTime": 1512753578388, "trialdata": {"rt": -1, "stimulus": "<p id=\"stim\">POLICE</p>", "key_press": -1, "type": "PRES_VIS", "word": "police", "wordID": 1097, "conditions": [12, 800, "v", 12000], "trial": 6, "serialpos": 9, "trial_type": "single-stim", "trial_index": 246, "time_elapsed": 1149853, "internal_node_id": "0.0-183.0"}}, {"uniqueid": "MTK0777:32VNZTT0A8B9FMNCMC5LSUB5SRWR4I", "current_trial": 247, "dateTime": 1512753580293, "trialdata": {"rt": -1, "stimulus": "<p id=\"stim\">PATROL</p>", "key_press": -1, "type": "PRES_VIS", "word": "patrol", "wordID": 1026, "conditions": [12, 800, "v", 12000], "trial": 6, "serialpos": 10, "trial_type": "single-stim", "trial_index": 247, "time_elapsed": 1151758, "internal_node_id": "0.0-184.0"}}, {"uniqueid": "MTK0777:32VNZTT0A8B9FMNCMC5LSUB5SRWR4I", "current_trial": 248, "dateTime": 1512753582231, "trialdata": {"rt": -1, "stimulus": "<p id=\"stim\">FRAGRANCE</p>", "key_press": -1, "type": "PRES_VIS", "word": "fragrance", "wordID": 598, "conditions": [12, 800, "v", 12000], "trial": 6, "serialpos": 11, "trial_type": "single-stim", "trial_index": 248, "time_elapsed": 1153696, "internal_node_id": "0.0-185.0"}}, {"uniqueid": "MTK0777:32VNZTT0A8B9FMNCMC5LSUB5SRWR4I", "current_trial": 249, "dateTime": 1512753584432, "trialdata": {"rt": -1, "stimulus": "", "key_press": -1, "type": "PRE_RECALL_DELAY", "trial_type": "single-stim", "trial_index": 249, "time_elapsed": 1155897, "internal_node_id": "0.0-186.0-0.0"}}, {"uniqueid": "MTK0777:32VNZTT0A8B9FMNCMC5LSUB5SRWR4I", "current_trial": 250, "dateTime": 1512753584940, "trialdata": {"rt": -1000, "stimulus": "/static/audio/400Hz.wav", "key_press": -1, "type": "PRE_RECALL_ALERT", "trial_type": "single-audio", "trial_index": 250, "time_elapsed": 1156405, "internal_node_id": "0.0-187.0"}}, {"uniqueid": "MTK0777:32VNZTT0A8B9FMNCMC5LSUB5SRWR4I", "current_trial": 251, "dateTime": 1512753644947, "trialdata": {"rt": [6553, 11153, 16465, 19929, 22129, 26369, 29449], "recwords": ["fragrance", "police", "wardrobe", "dragon", "temple", "patrol", "grave"], "type": "FREE_RECALL", "conditions": [12, 800, "v", 12000], "trial": 6, "trial_type": "free-recall", "trial_index": 251, "time_elapsed": 1216408, "internal_node_id": "0.0-188.0-0.0"}}, {"uniqueid": "MTK0777:32VNZTT0A8B9FMNCMC5LSUB5SRWR4I", "current_trial": 252, "dateTime": 1512753649278, "trialdata": {"rt": 2329, "key_press": 13, "type": "INSTRUCTIONS", "trial_type": "text", "trial_index": 252, "time_elapsed": 1220743, "internal_node_id": "0.0-189.0"}}, {"uniqueid": "MTK0777:32VNZTT0A8B9FMNCMC5LSUB5SRWR4I", "current_trial": 253, "dateTime": 1512753675281, "trialdata": {"rt": [1350, 4133, 5582, 8077, 11741, 14669, 16181, 18133, 19989, 21949], "responses": ["15", "8", "12", "13", "19", "20", "14", "15", "19", "14"], "num1": [5, 3, 7, 6, 3, 9, 9, 3, 7, 5, 2], "num2": [1, 2, 3, 1, 9, 3, 1, 6, 5, 7, 9], "num3": [9, 3, 2, 6, 8, 8, 4, 6, 7, 2, 8], "type": "DISTRACTOR", "conditions": [24, 1600, "a", 24000], "trial": 7, "trial_type": "math-distractor", "trial_index": 253, "time_elapsed": 1246745, "internal_node_id": "0.0-190.0"}}, {"uniqueid": "MTK0777:32VNZTT0A8B9FMNCMC5LSUB5SRWR4I", "current_trial": 254, "dateTime": 1512753678283, "trialdata": {"rt": -1, "stimulus": "<p id=\"stim\">10</p>", "key_press": -1, "trial_type": "single-stim", "trial_index": 254, "time_elapsed": 1249748, "internal_node_id": "0.0-191.0-0.0"}}, {"uniqueid": "MTK0777:32VNZTT0A8B9FMNCMC5LSUB5SRWR4I", "current_trial": 255, "dateTime": 1512753679284, "trialdata": {"rt": -1, "stimulus": "<p id=\"stim\">9</p>", "key_press": -1, "trial_type": "single-stim", "trial_index": 255, "time_elapsed": 1250749, "internal_node_id": "0.0-191.0-1.0"}}, {"uniqueid": "MTK0777:32VNZTT0A8B9FMNCMC5LSUB5SRWR4I", "current_trial": 256, "dateTime": 1512753680285, "trialdata": {"rt": -1, "stimulus": "<p id=\"stim\">8</p>", "key_press": -1, "trial_type": "single-stim", "trial_index": 256, "time_elapsed": 1251750, "internal_node_id": "0.0-191.0-2.0"}}, {"uniqueid": "MTK0777:32VNZTT0A8B9FMNCMC5LSUB5SRWR4I", "current_trial": 257, "dateTime": 1512753681287, "trialdata": {"rt": -1, "stimulus": "<p id=\"stim\">7</p>", "key_press": -1, "trial_type": "single-stim", "trial_index": 257, "time_elapsed": 1252752, "internal_node_id": "0.0-191.0-3.0"}}, {"uniqueid": "MTK0777:32VNZTT0A8B9FMNCMC5LSUB5SRWR4I", "current_trial": 258, "dateTime": 1512753682288, "trialdata": {"rt": -1, "stimulus": "<p id=\"stim\">6</p>", "key_press": -1, "trial_type": "single-stim", "trial_index": 258, "time_elapsed": 1253753, "internal_node_id": "0.0-191.0-4.0"}}, {"uniqueid": "MTK0777:32VNZTT0A8B9FMNCMC5LSUB5SRWR4I", "current_trial": 259, "dateTime": 1512753683290, "trialdata": {"rt": -1, "stimulus": "<p id=\"stim\">5</p>", "key_press": -1, "trial_type": "single-stim", "trial_index": 259, "time_elapsed": 1254755, "internal_node_id": "0.0-191.0-5.0"}}, {"uniqueid": "MTK0777:32VNZTT0A8B9FMNCMC5LSUB5SRWR4I", "current_trial": 260, "dateTime": 1512753684292, "trialdata": {"rt": -1, "stimulus": "<p id=\"stim\">4</p>", "key_press": -1, "trial_type": "single-stim", "trial_index": 260, "time_elapsed": 1255757, "internal_node_id": "0.0-191.0-6.0"}}, {"uniqueid": "MTK0777:32VNZTT0A8B9FMNCMC5LSUB5SRWR4I", "current_trial": 261, "dateTime": 1512753685293, "trialdata": {"rt": -1, "stimulus": "<p id=\"stim\">3</p>", "key_press": -1, "trial_type": "single-stim", "trial_index": 261, "time_elapsed": 1256758, "internal_node_id": "0.0-191.0-7.0"}}, {"uniqueid": "MTK0777:32VNZTT0A8B9FMNCMC5LSUB5SRWR4I", "current_trial": 262, "dateTime": 1512753686294, "trialdata": {"rt": -1, "stimulus": "<p id=\"stim\">2</p>", "key_press": -1, "trial_type": "single-stim", "trial_index": 262, "time_elapsed": 1257759, "internal_node_id": "0.0-191.0-8.0"}}, {"uniqueid": "MTK0777:32VNZTT0A8B9FMNCMC5LSUB5SRWR4I", "current_trial": 263, "dateTime": 1512753687296, "trialdata": {"rt": -1, "stimulus": "<p id=\"stim\">1</p>", "key_press": -1, "trial_type": "single-stim", "trial_index": 263, "time_elapsed": 1258761, "internal_node_id": "0.0-191.0-9.0"}}, {"uniqueid": "MTK0777:32VNZTT0A8B9FMNCMC5LSUB5SRWR4I", "current_trial": 264, "dateTime": 1512753688797, "trialdata": {"rt": -1, "stimulus": "<p id=\"stim\">+</p>", "key_press": -1, "type": "FIXATION", "trial_type": "single-stim", "trial_index": 264, "time_elapsed": 1260262, "internal_node_id": "0.0-192.0-0.0"}}, {"uniqueid": "MTK0777:32VNZTT0A8B9FMNCMC5LSUB5SRWR4I", "current_trial": 265, "dateTime": 1512753691572, "trialdata": {"rt": -1000, "stimulus": "/static/audio/wordpool/OUTLAW.wav", "key_press": -1, "type": "PRES_AUD", "word": "outlaw", "wordID": 988, "conditions": [24, 1600, "a", 24000], "trial": 7, "serialpos": 0, "trial_type": "single-audio", "trial_index": 265, "time_elapsed": 1263037, "internal_node_id": "0.0-193.0"}}, {"uniqueid": "MTK0777:32VNZTT0A8B9FMNCMC5LSUB5SRWR4I", "current_trial": 266, "dateTime": 1512753694334, "trialdata": {"rt": -1000, "stimulus": "/static/audio/wordpool/COUCH.wav", "key_press": -1, "type": "PRES_AUD", "word": "couch", "wordID": 385, "conditions": [24, 1600, "a", 24000], "trial": 7, "serialpos": 1, "trial_type": "single-audio", "trial_index": 266, "time_elapsed": 1265798, "internal_node_id": "0.0-194.0"}}, {"uniqueid": "MTK0777:32VNZTT0A8B9FMNCMC5LSUB5SRWR4I", "current_trial": 267, "dateTime": 1512753696887, "trialdata": {"rt": -1000, "stimulus": "/static/audio/wordpool/BUGGY.wav", "key_press": -1, "type": "PRES_AUD", "word": "buggy", "wordID": 187, "conditions": [24, 1600, "a", 24000], "trial": 7, "serialpos": 2, "trial_type": "single-audio", "trial_index": 267, "time_elapsed": 1268351, "internal_node_id": "0.0-195.0"}}, {"uniqueid": "MTK0777:32VNZTT0A8B9FMNCMC5LSUB5SRWR4I", "current_trial": 268, "dateTime": 1512753699327, "trialdata": {"rt": -1000, "stimulus": "/static/audio/wordpool/PERMIT.wav", "key_press": -1, "type": "PRES_AUD", "word": "permit", "wordID": 1050, "conditions": [24, 1600, "a", 24000], "trial": 7, "serialpos": 3, "trial_type": "single-audio", "trial_index": 268, "time_elapsed": 1270792, "internal_node_id": "0.0-196.0"}}, {"uniqueid": "MTK0777:32VNZTT0A8B9FMNCMC5LSUB5SRWR4I", "current_trial": 269, "dateTime": 1512753701785, "trialdata": {"rt": -1000, "stimulus": "/static/audio/wordpool/SNAKE.wav", "key_press": -1, "type": "PRES_AUD", "word": "snake", "wordID": 1332, "conditions": [24, 1600, "a", 24000], "trial": 7, "serialpos": 4, "trial_type": "single-audio", "trial_index": 