{"condition": 0, "counterbalance": 1594, "assignmentId": "3CN4LGXD5YVICNZY07XF0Q42VBTY43", "workerId": "MTK0723", "hitId": "3UEDKCTP9VXIOLU68OPT5ADH8U2K77", "currenttrial": 626, "bonus": 0, "data": [{"uniqueid": "MTK0723:3CN4LGXD5YVICNZY07XF0Q42VBTY43", "current_trial": 0, "dateTime": 1512674064784, "trialdata": {"rt": 3576, "key_press": 32, "type": "INSTRUCTIONS", "trial_type": "text", "trial_index": 0, "time_elapsed": 3578, "internal_node_id": "0.0-0.0"}}, {"uniqueid": "MTK0723:3CN4LGXD5YVICNZY07XF0Q42VBTY43", "current_trial": 1, "dateTime": 1512674087033, "trialdata": {"rt": 22247, "key_press": 32, "type": "INSTRUCTIONS", "trial_type": "text", "trial_index": 1, "time_elapsed": 25827, "internal_node_id": "0.0-1.0"}}, {"uniqueid": "MTK0723:3CN4LGXD5YVICNZY07XF0Q42VBTY43", "current_trial": 2, "dateTime": 1512674109930, "trialdata": {"rt": [22872], "responses": ["ocean"], "type": "AUDIO_TEST", "trial_type": "audio-test", "trial_index": 2, "time_elapsed": 48724, "internal_node_id": "0.0-2.0"}}, {"uniqueid": "MTK0723:3CN4LGXD5YVICNZY07XF0Q42VBTY43", "current_trial": 3, "dateTime": 1512674125227, "trialdata": {"rt": [15293], "responses": ["crystal"], "type": "AUDIO_TEST", "trial_type": "audio-test", "trial_index": 3, "time_elapsed": 64021, "internal_node_id": "0.0-3.0"}}, {"uniqueid": "MTK0723:3CN4LGXD5YVICNZY07XF0Q42VBTY43", "current_trial": 4, "dateTime": 1512674132074, "trialdata": {"rt": [6843], "responses": ["spice"], "type": "AUDIO_TEST", "trial_type": "audio-test", "trial_index": 4, "time_elapsed": 70868, "internal_node_id": "0.0-4.0"}}, {"uniqueid": "MTK0723:3CN4LGXD5YVICNZY07XF0Q42VBTY43", "current_trial": 5, "dateTime": 1512674172869, "trialdata": {"rt": 40041, "responses": "{\"Q0\":\"10:30 PM\",\"Q1\":\"6:00 AM\",\"Q2\":\"3\"}", "type": "SLEEP_SURVEY", "trial_type": "survey-text", "trial_index": 5, "time_elapsed": 111663, "internal_node_id": "0.0-5.0"}}, {"uniqueid": "MTK0723:3CN4LGXD5YVICNZY07XF0Q42VBTY43", "current_trial": 6, "dateTime": 1512674218105, "trialdata": {"rt": 44234, "key_press": 13, "type": "INSTRUCTIONS", "trial_type": "text", "trial_index": 6, "time_elapsed": 156899, "internal_node_id": "0.0-6.0"}}, {"uniqueid": "MTK0723:3CN4LGXD5YVICNZY07XF0Q42VBTY43", "current_trial": 7, "dateTime": 1512674233833, "trialdata": {"rt": 15227, "key_press": 13, "type": "INSTRUCTIONS", "trial_type": "text", "trial_index": 7, "time_elapsed": 172627, "internal_node_id": "0.0-7.0"}}, {"uniqueid": "MTK0723:3CN4LGXD5YVICNZY07XF0Q42VBTY43", "current_trial": 8, "dateTime": 1512674251032, "trialdata": {"rt": 16698, "key_press": 13, "type": "INSTRUCTIONS", "trial_type": "text", "trial_index": 8, "time_elapsed": 189826, "internal_node_id": "0.0-8.0"}}, {"uniqueid": "MTK0723:3CN4LGXD5YVICNZY07XF0Q42VBTY43", "current_trial": 9, "dateTime": 1512674270042, "trialdata": {"rt": [3569, 6369, 8401, 10833, 13025, 15826], "responses": ["20", "10", "12", "20", "8", "21"], "num1": [8, 5, 4, 4, 1, 5, 7], "num2": [9, 1, 3, 8, 2, 9, 1], "num3": [3, 4, 5, 8, 5, 7, 8], "type": "DISTRACTOR", "conditions": [18, 1200, "a", 18000], "trial": 0, "trial_type": "math-distractor", "trial_index": 9, "time_elapsed": 208836, "internal_node_id": "0.0-9.0"}}, {"uniqueid": "MTK0723:3CN4LGXD5YVICNZY07XF0Q42VBTY43", "current_trial": 10, "dateTime": 1512674273044, "trialdata": {"rt": -1, "stimulus": "<p id=\"stim\">10</p>", "key_press": -1, "trial_type": "single-stim", "trial_index": 10, "time_elapsed": 211838, "internal_node_id": "0.0-10.0-0.0"}}, {"uniqueid": "MTK0723:3CN4LGXD5YVICNZY07XF0Q42VBTY43", "current_trial": 11, "dateTime": 1512674274045, "trialdata": {"rt": -1, "stimulus": "<p id=\"stim\">9</p>", "key_press": -1, "trial_type": "single-stim", "trial_index": 11, "time_elapsed": 212839, "internal_node_id": "0.0-10.0-1.0"}}, {"uniqueid": "MTK0723:3CN4LGXD5YVICNZY07XF0Q42VBTY43", "current_trial": 12, "dateTime": 1512674275046, "trialdata": {"rt": -1, "stimulus": "<p id=\"stim\">8</p>", "key_press": -1, "trial_type": "single-stim", "trial_index": 12, "time_elapsed": 213840, "internal_node_id": "0.0-10.0-2.0"}}, {"uniqueid": "MTK0723:3CN4LGXD5YVICNZY07XF0Q42VBTY43", "current_trial": 13, "dateTime": 1512674276047, "trialdata": {"rt": -1, "stimulus": "<p id=\"stim\">7</p>", "key_press": -1, "trial_type": "single-stim", "trial_index": 13, "time_elapsed": 214841, "internal_node_id": "0.0-10.0-3.0"}}, {"uniqueid": "MTK0723:3CN4LGXD5YVICNZY07XF0Q42VBTY43", "current_trial": 14, "dateTime": 1512674277048, "trialdata": {"rt": -1, "stimulus": "<p id=\"stim\">6</p>", "key_press": -1, "trial_type": "single-stim", "trial_index": 14, "time_elapsed": 215842, "internal_node_id": "0.0-10.0-4.0"}}, {"uniqueid": "MTK0723:3CN4LGXD5YVICNZY07XF0Q42VBTY43", "current_trial": 15, "dateTime": 1512674278049, "trialdata": {"rt": -1, "stimulus": "<p id=\"stim\">5</p>", "key_press": -1, "trial_type": "single-stim", "trial_index": 15, "time_elapsed": 216843, "internal_node_id": "0.0-10.0-5.0"}}, {"uniqueid": "MTK0723:3CN4LGXD5YVICNZY07XF0Q42VBTY43", "current_trial": 16, "dateTime": 1512674279050, "trialdata": {"rt": -1, "stimulus": "<p id=\"stim\">4</p>", "key_press": -1, "trial_type": "single-stim", "trial_index": 16, "time_elapsed": 217844, "internal_node_id": "0.0-10.0-6.0"}}, {"uniqueid": "MTK0723:3CN4LGXD5YVICNZY07XF0Q42VBTY43", "current_trial": 17, "dateTime": 1512674280051, "trialdata": {"rt": -1, "stimulus": "<p id=\"stim\">3</p>", "key_press": -1, "trial_type": "single-stim", "trial_index": 17, "time_elapsed": 218844, "internal_node_id": "0.0-10.0-7.0"}}, {"uniqueid": "MTK0723:3CN4LGXD5YVICNZY07XF0Q42VBTY43", "current_trial": 18, "dateTime": 1512674281051, "trialdata": {"rt": -1, "stimulus": "<p id=\"stim\">2</p>", "key_press": -1, "trial_type": "single-stim", "trial_index": 18, "time_elapsed": 219845, "internal_node_id": "0.0-10.0-8.0"}}, {"uniqueid": "MTK0723:3CN4LGXD5YVICNZY07XF0Q42VBTY43", "current_trial": 19, "dateTime": 1512674282052, "trialdata": {"rt": -1, "stimulus": "<p id=\"stim\">1</p>", "key_press": -1, "trial_type": "single-stim", "trial_index": 19, "time_elapsed": 220846, "internal_node_id": "0.0-10.0-9.0"}}, {"uniqueid": "MTK0723:3CN4LGXD5YVICNZY07XF0Q42VBTY43", "current_trial": 20, "dateTime": 1512674283554, "trialdata": {"rt": -1, "stimulus": "<p id=\"stim\">+</p>", "key_press": -1, "type": "FIXATION", "trial_type": "single-stim", "trial_index": 20, "time_elapsed": 222348, "internal_node_id": "0.0-11.0-0.0"}}, {"uniqueid": "MTK0723:3CN4LGXD5YVICNZY07XF0Q42VBTY43", "current_trial": 21, "dateTime": 1512674285569, "trialdata": {"rt": -1000, "stimulus": "/static/audio/wordpool/KNIFE.wav", "key_press": -1, "type": "PRES_AUD", "word": "knife", "wordID": 784, "conditions": [18, 1200, "a", 18000], "trial": 0, "serialpos": 0, "trial_type": "single-audio", "trial_index": 21, "time_elapsed": 224363, "internal_node_id": "0.0-12.0"}}, {"uniqueid": "MTK0723:3CN4LGXD5YVICNZY07XF0Q42VBTY43", "current_trial": 22, "dateTime": 1512674287702, "trialdata": {"rt": -1000, "stimulus": "/static/audio/wordpool/CLAM.wav", "key_press": -1, "type": "PRES_AUD", "word": "clam", "wordID": 314, "conditions": [18, 1200, "a", 18000], "trial": 0, "serialpos": 1, "trial_type": "single-audio", "trial_index": 22, "time_elapsed": 226496, "internal_node_id": "0.0-13.0"}}, {"uniqueid": "MTK0723:3CN4LGXD5YVICNZY07XF0Q42VBTY43", "current_trial": 23, "dateTime": 1512674290067, "trialdata": {"rt": -1000, "stimulus": "/static/audio/wordpool/CHILD.wav", "key_press": -1, "type": "PRES_AUD", "word": "child", "wordID": 298, "conditions": [18, 1200, "a", 18000], "trial": 0, "serialpos": 2, "trial_type": "single-audio", "trial_index": 23, "time_elapsed": 228860, "internal_node_id": "0.0-14.0"}}, {"uniqueid": "MTK0723:3CN4LGXD5YVICNZY07XF0Q42VBTY43", "current_trial": 24, "dateTime": 1512674292212, "trialdata": {"rt": -1000, "stimulus": "/static/audio/wordpool/BOYFRIEND.wav", "key_press": -1, "type": "PRES_AUD", "word": "boyfriend", "wordID": 161, "conditions": [18, 1200, "a", 18000], "trial": 0, "serialpos": 3, "trial_type": "single-audio", "trial_index": 24, "time_elapsed": 231006, "internal_node_id": "0.0-15.0"}}, {"uniqueid": "MTK0723:3CN4LGXD5YVICNZY07XF0Q42VBTY43", "current_trial": 25, "dateTime": 1512674294333, "trialdata": {"rt": -1000, "stimulus": "/static/audio/wordpool/BANK.wav", "key_press": -1, "type": "PRES_AUD", "word": "bank", "wordID": 82, "conditions": [18, 1200, "a", 18000], "trial": 0, "serialpos": 4, "trial_type": "single-audio", "trial_index": 25, "time_elapsed": 233127, "internal_node_id": "0.0-16.0"}}, {"uniqueid": "MTK0723:3CN4LGXD5YVICNZY07XF0Q42VBTY43", "current_trial": 26, "dateTime": 1512674296416, "trialdata": {"rt": -1000, "stimulus": "/static/audio/wordpool/NOMAD.wav", "key_press": -1, "type": "PRES_AUD", "word": "nomad", "wordID": 954, "conditions": [18, 1200, "a", 18000], "trial": 0, "serialpos": 5, "trial_type": "single-audio", "trial_index": 26, "time_elapsed": 235210, "internal_node_id": "0.0-17.0"}}, {"uniqueid": "MTK0723:3CN4LGXD5YVICNZY07XF0Q42VBTY43", "current_trial": 27, "dateTime": 1512674298563, "trialdata": {"rt": -1000, "stimulus": "/static/audio/wordpool/ATOM.wav", "key_press": -1, "type": "PRES_AUD", "word": "atom", "wordID": 54, "conditions": [18, 1200, "a", 18000], "trial": 0, "serialpos": 6, "trial_type": "single-audio", "trial_index": 27, "time_elapsed": 237357, "internal_node_id": "0.0-18.0"}}, {"uniqueid": "MTK0723:3CN4LGXD5YVICNZY07XF0Q42VBTY43", "current_trial": 28, "dateTime": 1512674300897, "trialdata": {"rt": -1000, "stimulus": "/static/audio/wordpool/NAPKIN.wav", "key_press": -1, "type": "PRES_AUD", "word": "napkin", "wordID": 936, "conditions": [18, 1200, "a", 18000], "trial": 0, "serialpos": 7, "trial_type": "single-audio", "trial_index": 28, "time_elapsed": 239690, "internal_node_id": "0.0-19.0"}}, {"uniqueid": "MTK0723:3CN4LGXD5YVICNZY07XF0Q42VBTY43", "current_trial": 29, "dateTime": 1512674303177, "trialdata": {"rt": -1000, "stimulus": "/static/audio/wordpool/PLIERS.wav", "key_press": -1, "type": "PRES_AUD", "word": "pliers", "wordID": 1088, "conditions": [18, 1200, "a", 18000], "trial": 0, "serialpos": 8, "trial_type": "single-audio", "trial_index": 29, "time_elapsed": 241971, "internal_node_id": "0.0-20.0"}}, {"uniqueid": "MTK0723:3CN4LGXD5YVICNZY07XF0Q42VBTY43", "current_trial": 30, "dateTime": 1512674305208, "trialdata": {"rt": -1000, "stimulus": "/static/audio/wordpool/JELLY.wav", "key_press": -1, "type": "PRES_AUD", "word": "jelly", "wordID": 754, "conditions": [18, 1200, "a", 18000], "trial": 0, "serialpos": 9, "trial_type": "single-audio", "trial_index": 30, "time_elapsed": 244002, "internal_node_id": "0.0-21.0"}}, {"uniqueid": "MTK0723:3CN4LGXD5YVICNZY07XF0Q42VBTY43", "current_trial": 31, "dateTime": 1512674307423, "trialdata": {"rt": -1000, "stimulus": "/static/audio/wordpool/HEART.wav", "key_press": -1, "type": "PRES_AUD", "word": "heart", "wordID": 696, "conditions": [18, 1200, "a", 18000], "trial": 0, "serialpos": 10, "trial_type": "single-audio", "trial_index": 31, "time_elapsed": 246217, "internal_node_id": "0.0-22.0"}}, {"uniqueid": "MTK0723:3CN4LGXD5YVICNZY07XF0Q42VBTY43", "current_trial": 32, "dateTime": 1512674309734, "trialdata": {"rt": -1000, "stimulus": "/static/audio/wordpool/SERVER.wav", "key_press": -1, "type": "PRES_AUD", "word": "server", "wordID": 1271, "conditions": [18, 1200, "a", 18000], "trial": 0, "serialpos": 11, "trial_type": "single-audio", "trial_index": 32, "time_elapsed": 248528, "internal_node_id": "0.0-23.0"}}, {"uniqueid": "MTK0723:3CN4LGXD5YVICNZY07XF0Q42VBTY43", "current_trial": 33, "dateTime": 1512674311873, "trialdata": {"rt": -1000, "stimulus": "/static/audio/wordpool/TOASTER.wav", "key_press": -1, "type": "PRES_AUD", "word": "toaster", "wordID": 1471, "conditions": [18, 1200, "a", 18000], "trial": 0, "serialpos": 12, "trial_type": "single-audio", "trial_index": 33, "time_elapsed": 250667, "internal_node_id": "0.0-24.0"}}, {"uniqueid": "MTK0723:3CN4LGXD5YVICNZY07XF0Q42VBTY43", "current_trial": 34, "dateTime": 1512674314175, "trialdata": {"rt": -1000, "stimulus": "/static/audio/wordpool/CROSS.wav", "key_press": -1, "type": "PRES_AUD", "word": "cross", "wordID": 412, "conditions": [18, 1200, "a", 18000], "trial": 0, "serialpos": 13, "trial_type": "single-audio", "trial_index": 34, "time_elapsed": 252969, "internal_node_id": "0.0-25.0"}}, {"uniqueid": "MTK0723:3CN4LGXD5YVICNZY07XF0Q42VBTY43", "current_trial": 35, "dateTime": 1512674316318, "trialdata": {"rt": -1000, "stimulus": "/static/audio/wordpool/DOLPHIN.wav", "key_press": -1, "type": "PRES_AUD", "word": "dolphin", "wordID": 482, "conditions": [18, 1200, "a", 18000], "trial": 0, "serialpos": 14, "trial_type": "single-audio", "trial_index": 35, "time_elapsed": 255112, "internal_node_id": "0.0-26.0"}}, {"uniqueid": "MTK0723:3CN4LGXD5YVICNZY07XF0Q42VBTY43", "current_trial": 36, "dateTime": 1512674318398, "trialdata": {"rt": -1000, "stimulus": "/static/audio/wordpool/CUSTARD.wav", "key_press": -1, "type": "PRES_AUD", "word": "custard", "wordID": 428, "conditions": [18, 1200, "a", 18000], "trial": 0, "serialpos": 15, "trial_type": "single-audio", "trial_index": 36, "time_elapsed": 257192, "internal_node_id": "0.0-27.0"}}, {"uniqueid": "MTK0723:3CN4LGXD5YVICNZY07XF0Q42VBTY43", "current_trial": 37, "dateTime": 1512674320592, "trialdata": {"rt": -1000, "stimulus": "/static/audio/wordpool/PASTRY.wav", "key_press": -1, "type": "PRES_AUD", "word": "pastry", "wordID": 1021, "conditions": [18, 1200, "a", 18000], "trial": 0, "serialpos": 16, "trial_type": "single-audio", "trial_index": 37, "time_elapsed": 259386, "internal_node_id": "0.0-28.0"}}, {"uniqueid": "MTK0723:3CN4LGXD5YVICNZY07XF0Q42VBTY43", "current_trial": 38, "dateTime": 1512674322927, "trialdata": {"rt": -1000, "stimulus": "/static/audio/wordpool/PLUTO.wav", "key_press": -1, "type": "PRES_AUD", "word": "pluto", "wordID": 1091, "conditions": [18, 1200, "a", 18000], "trial": 0, "serialpos": 17, "trial_type": "single-audio", "trial_index": 38, "time_elapsed": 261721, "internal_node_id": "0.0-29.0"}}, {"uniqueid": "MTK0723:3CN4LGXD5YVICNZY07XF0Q42VBTY43", "current_trial": 39, "dateTime": 1512674324205, "trialdata": {"rt": -1, "stimulus": "", "key_press": -1, "type": "PRE_RECALL_DELAY", "trial_type": "single-stim", "trial_index": 39, "time_elapsed": 262999, "internal_node_id": "0.0-30.0-0.0"}}, {"uniqueid": "MTK0723:3CN4LGXD5YVICNZY07XF0Q42VBTY43", "current_trial": 40, "dateTime": 1512674324706, "trialdata": {"rt": -1000, "stimulus": "/static/audio/400Hz.wav", "key_press": -1, "type": "PRE_RECALL_ALERT", "trial_type": "single-audio", "trial_index": 40, "time_elapsed": 263500, "internal_node_id": "0.0-31.0"}}, {"uniqueid": "MTK0723:3CN4LGXD5YVICNZY07XF0Q42VBTY43", "current_trial": 41, "dateTime": 1512674384714, "trialdata": {"rt": [2742, 6196, 8903, 10933, 12341, 14389, 16373, 21253, 41989, 56277], "recwords": ["pluto", "pastrie", "custard", "knife", "clam", "dodo", "nomad", "boyfriend", "", "heart"], "type": "FREE_RECALL", "conditions": [18, 1200, "a", 18000], "trial": 0, "trial_type": "free-recall", "trial_index": 41, "time_elapsed": 323503, "internal_node_id": "0.0-32.0-0.0"}}, {"uniqueid": "MTK0723:3CN4LGXD5YVICNZY07XF0Q42VBTY43", "current_trial": 42, "dateTime": 1512674389000, "trialdata": {"rt": 2285, "key_press": 32, "type": "INSTRUCTIONS", "trial_type": "text", "trial_index": 42, "time_elapsed": 327794, "internal_node_id": "0.0-33.0"}}, {"uniqueid": "MTK0723:3CN4LGXD5YVICNZY07XF0Q42VBTY43", "current_trial": 43, "dateTime": 1512674409003, "trialdata": {"rt": [2736, 4975, 7871, 11183, 14927, 16575], "responses": ["15", "24", "25", "13", "17", "8"], "num1": [4, 8, 9, 2, 8, 1, 1], "num2": [9, 9, 7, 5, 7, 1, 9], "num3": [2, 7, 9, 6, 2, 6, 4], "type": "DISTRACTOR", "conditions": [18, 1200, "v", 18000], "trial": 1, "trial_type": "math-distractor", "trial_index": 43, "time_elapsed": 347797, "internal_node_id": "0.0-34.0"}}, {"uniqueid": "MTK0723:3CN4LGXD5YVICNZY07XF0Q42VBTY43", "current_trial": 44, "dateTime": 1512674412004, "trialdata": {"rt": -1, "stimulus": "<p id=\"stim\">10</p>", "key_press": -1, "trial_type": "single-stim", "trial_index": 44, "time_elapsed": 350798, "internal_node_id": "0.0-35.0-0.0"}}, {"uniqueid": "MTK0723:3CN4LGXD5YVICNZY07XF0Q42VBTY43", "current_trial": 45, "dateTime": 1512674413005, "trialdata": {"rt": -1, "stimulus": "<p id=\"stim\">9</p>", "key_press": -1, "trial_type": "single-stim", "trial_index": 45, "time_elapsed": 351799, "internal_node_id": "0.0-35.0-1.0"}}, {"uniqueid": "MTK0723:3CN4LGXD5YVICNZY07XF0Q42VBTY43", "current_trial": 46, "dateTime": 1512674414006, "trialdata": {"rt": -1, "stimulus": "<p id=\"stim\">8</p>", "key_press": -1, "trial_type": "single-stim", "trial_index": 46, "time_elapsed": 352800, "internal_node_id": "0.0-35.0-2.0"}}, {"uniqueid": "MTK0723:3CN4LGXD5YVICNZY07XF0Q42VBTY43", "current_trial": 47, "dateTime": 1512674415007, "trialdata": {"rt": -1, "stimulus": "<p id=\"stim\">7</p>", "key_press": -1, "trial_type": "single-stim", "trial_index": 47, "time_elapsed": 353801, "internal_node_id": "0.0-35.0-3.0"}}, {"uniqueid": "MTK0723:3CN4LGXD5YVICNZY07XF0Q42VBTY43", "current_trial": 48, "dateTime": 1512674416008, "trialdata": {"rt": -1, "stimulus": "<p id=\"stim\">6</p>", "key_press": -1, "trial_type": "single-stim", "trial_index": 48, "time_elapsed": 354802, "internal_node_id": "0.0-35.0-4.0"}}, {"uniqueid": "MTK0723:3CN4LGXD5YVICNZY07XF0Q42VBTY43", "current_trial": 49, "dateTime": 1512674417009, "trialdata": {"rt": -1, "stimulus": "<p id=\"stim\">5</p>", "key_press": -1, "trial_type": "single-stim", "trial_index": 49, "time_elapsed": 355803, "internal_node_id": "0.0-35.0-5.0"}}, {"uniqueid": "MTK0723:3CN4LGXD5YVICNZY07XF0Q42VBTY43", "current_trial": 50, "dateTime": 1512674418010, "trialdata": {"rt": -1, "stimulus": "<p id=\"stim\">4</p>", "key_press": -1, "trial_type": "single-stim", "trial_index": 50, "time_elapsed": 356804, "internal_node_id": "0.0-35.0-6.0"}}, {"uniqueid": "MTK0723:3CN4LGXD5YVICNZY07XF0Q42VBTY43", "current_trial": 51, "dateTime": 1512674419011, "trialdata": {"rt": -1, "stimulus": "<p id=\"stim\">3</p>", "key_press": -1, "trial_type": "single-stim", "trial_index": 51, "time_elapsed": 357805, "internal_node_id": "0.0-35.0-7.0"}}, {"uniqueid": "MTK0723:3CN4LGXD5YVICNZY07XF0Q42VBTY43", "current_trial": 52, "dateTime": 1512674420012, "trialdata": {"rt": -1, "stimulus": "<p id=\"stim\">2</p>", "key_press": -1, "trial_type": "single-stim", "trial_index": 52, "time_elapsed": 358806, "internal_node_id": "0.0-35.0-8.0"}}, {"uniqueid": "MTK0723:3CN4LGXD5YVICNZY07XF0Q42VBTY43", "current_trial": 53, "dateTime": 1512674421013, "trialdata": {"rt": -1, "stimulus": "<p id=\"stim\">1</p>", "key_press": -1, "trial_type": "single-stim", "trial_index": 53, "time_elapsed": 359807, "internal_node_id": "0.0-35.0-9.0"}}, {"uniqueid": "MTK0723:3CN4LGXD5YVICNZY07XF0Q42VBTY43", "current_trial": 54, "dateTime": 1512674422514, "trialdata": {"rt": -1, "stimulus": "<p id=\"stim\">+</p>", "key_press": -1, "type": "FIXATION", "trial_type": "single-stim", "trial_index": 54, "time_elapsed": 361308, "internal_node_id": "0.0-36.0-0.0"}}, {"uniqueid": "MTK0723:3CN4LGXD5YVICNZY07XF0Q42VBTY43", "current_trial": 55, "dateTime": 1512674423716, "trialdata": {"rt": -1, "stimulus": "<p id=\"stim\">SKETCH</p>", "key_press": -1, "type": "PRES_VIS", "word": "sketch", "wordID": 1314, "conditions": [18, 1200, "v", 18000], "trial": 1, "serialpos": 0, "trial_type": "single-stim", "trial_index": 55, "time_elapsed": 362509, "internal_node_id": "0.0-37.0"}}, {"uniqueid": "MTK0723:3CN4LGXD5YVICNZY07XF0Q42VBTY43", "current_trial": 56, "dateTime": 1512674425890, "trialdata": {"rt": -1, "stimulus": "<p id=\"stim\">PIGEON</p>", "key_press": -1, "type": "PRES_VIS", "word": "pigeon", "wordID": 1064, "conditions": [18, 1200, "v", 18000], "trial": 1, "serialpos": 1, "trial_type": "single-stim", "trial_index": 56, "time_elapsed": 364684, "internal_node_id": "0.0-38.0"}}, {"uniqueid": "MTK0723:3CN4LGXD5YVICNZY07XF0Q42VBTY43", "current_trial": 57, "dateTime": 1512674428023, "trialdata": {"rt": -1, "stimulus": "<p id=\"stim\">DAUGHTER</p>", "key_press": -1, "type": "PRES_VIS", "word": "daughter", "wordID": 441, "conditions": [18, 1200, "v", 18000], "trial": 1, "serialpos": 2, "trial_type": "single-stim", "trial_index": 57, "time_elapsed": 366816, "internal_node_id": "0.0-39.0"}}, {"uniqueid": "MTK0723:3CN4LGXD5YVICNZY07XF0Q42VBTY43", "current_trial": 58, "dateTime": 1512674430248, "trialdata": {"rt": -1, "stimulus": "<p id=\"stim\">PARTNER</p>", "key_press": -1, "type": "PRES_VIS", "word": "partner", "wordID": 1016, "conditions": [18, 1200, "v", 18000], "trial": 1, "serialpos": 3, "trial_type": "single-stim", "trial_index": 58, "time_elapsed": 369042, "internal_node_id": "0.0-40.0"}}, {"uniqueid": "MTK0723:3CN4LGXD5YVICNZY07XF0Q42VBTY43", "current_trial": 59, "dateTime": 1512674432373, "trialdata": {"rt": -1, "stimulus": "<p id=\"stim\">OUTDOORS</p>", "key_press": -1, "type": "PRES_VIS", "word": "outdoors", "wordID": 986, "conditions": [18, 1200, "v", 18000], "trial": 1, "serialpos": 4, "trial_type": "single-stim", "trial_index": 59, "time_elapsed": 371167, "internal_node_id": "0.0-41.0"}}, {"uniqueid": "MTK0723:3CN4LGXD5YVICNZY07XF0Q42VBTY43", "current_trial": 60, "dateTime": 1512674434512, "trialdata": {"rt": -1, "stimulus": "<p id=\"stim\">MAILBOX</p>", "key_press": -1, "type": "PRES_VIS", "word": "mailbox", "wordID": 856, "conditions": [18, 1200, "v", 18000], "trial": 1, "serialpos": 5, "trial_type": "single-stim", "trial_index": 60, "time_elapsed": 373306, "internal_node_id": "0.0-42.0"}}, {"uniqueid": "MTK0723:3CN4LGXD5YVICNZY07XF0Q42VBTY43", "current_trial": 61, "dateTime": 1512674436885, "trialdata": {"rt": -1, "stimulus": "<p id=\"stim\">FLESH</p>", "key_press": -1, "type": "PRES_VIS", "word": "flesh", "wordID": 578, "conditions": [18, 1200, "v", 18000], "trial": 1, "serialpos": 6, "trial_type": "single-stim", "trial_index": 61, "time_elapsed": 375679, "internal_node_id": "0.0-43.0"}}, {"uniqueid": "MTK0723:3CN4LGXD5YVICNZY07XF0Q42VBTY43", "current_trial": 62, "dateTime": 1512674439285, "trialdata": {"rt": -1, "stimulus": "<p id=\"stim\">PIANO</p>", "key_press": -1, "type": "PRES_VIS", "word": "piano", "wordID": 1056, "conditions": [18, 1200, "v", 18000], "trial": 1, "serialpos": 7, "trial_type": "single-stim", "trial_index": 62, "time_elapsed": 378079, "internal_node_id": "0.0-44.0"}}, {"uniqueid": "MTK0723:3CN4LGXD5YVICNZY07XF0Q42VBTY43", "current_trial": 63, "dateTime": 1512674441536, "trialdata": {"rt": -1, "stimulus": "<p id=\"stim\">HAWK</p>", "key_press": -1, "type": "PRES_VIS", "word": "hawk", "wordID": 691, "conditions": [18, 1200, "v", 18000], "trial": 1, "serialpos": 8, "trial_type": "single-stim", "trial_index": 63, "time_elapsed": 380330, "internal_node_id": "0.0-45.0"}}, {"uniqueid": "MTK0723:3CN4LGXD5YVICNZY07XF0Q42VBTY43", "current_trial": 64, "dateTime": 1512674443693, "trialdata": {"rt": -1, "stimulus": "<p id=\"stim\">ACTOR</p>", "key_press": -1, "type": "PRES_VIS", "word": "actor", "wordID": 4, "conditions": [18, 1200, "v", 18000], "trial": 1, "serialpos": 9, "trial_type": "single-stim", "trial_index": 64, "time_elapsed": 382487, "internal_node_id": "0.0-46.0"}}, {"uniqueid": "MTK0723:3CN4LGXD5YVICNZY07XF0Q42VBTY43", "current_trial": 65, "dateTime": 1512674445957, "trialdata": {"rt": -1, "stimulus": "<p id=\"stim\">COUNTY</p>", "key_press": -1, "type": "PRES_VIS", "word": "county", "wordID": 388, "conditions": [18, 1200, "v", 18000], "trial": 1, "serialpos": 10, "trial_type": "single-stim", "trial_index": 65, "time_elapsed": 384751, "internal_node_id": "0.0-47.0"}}, {"uniqueid": "MTK0723:3CN4LGXD5YVICNZY07XF0Q42VBTY43", "current_trial": 66, "dateTime": 1512674448075, "trialdata": {"rt": -1, "stimulus": "<p id=\"stim\">LAVA</p>", "key_press": -1, "type": "PRES_VIS", "word": "lava", "wordID": 803, "conditions": [18, 1200, "v", 18000], "trial": 1, "serialpos": 11, "trial_type": "single-stim", "trial_index": 66, "time_elapsed": 386869, "internal_node_id": "0.0-48.0"}}, {"uniqueid": "MTK0723:3CN4LGXD5YVICNZY07XF0Q42VBTY43", "current_trial": 67, "dateTime": 1512674450259, "trialdata": {"rt": -1, "stimulus": "<p id=\"stim\">STALLION</p>", "key_press": -1, "type": "PRES_VIS", "word": "stallion", "wordID": 1368, "conditions": [18, 1200, "v", 18000], "trial": 1, "serialpos": 12, "trial_type": "single-stim", "trial_index": 67, "time_elapsed": 389053, "internal_node_id": "0.0-49.0"}}, {"uniqueid": "MTK0723:3CN4LGXD5YVICNZY07XF0Q42VBTY43", "current_trial": 68, "dateTime": 1512674452360, "trialdata": {"rt": -1, "stimulus": "<p id=\"stim\">PREACHER</p>", "key_press": -1, "type": "PRES_VIS", "word": "preacher", "wordID": 1118, "conditions": [18, 1200, "v", 18000], "trial": 1, "serialpos": 13, "trial_type": "single-stim", "trial_index": 68, "time_elapsed": 391154, "internal_node_id": "0.0-50.0"}}, {"uniqueid": "MTK0723:3CN4LGXD5YVICNZY07XF0Q42VBTY43", "current_trial": 69, "dateTime": 1512674454753, "trialdata": {"rt": -1, "stimulus": "<p id=\"stim\">CREVICE</p>", "key_press": -1, "type": "PRES_VIS", "word": "crevice", "wordID": 404, "conditions": [18, 1200, "v", 18000], "trial": 1, "serialpos": 14, "trial_type": "single-stim", "trial_index": 69, "time_elapsed": 393547, "internal_node_id": "0.0-51.0"}}, {"uniqueid": "MTK0723:3CN4LGXD5YVICNZY07XF0Q42VBTY43", "current_trial": 70, "dateTime": 1512674457071, "trialdata": {"rt": -1, "stimulus": "<p id=\"stim\">LIGHTNING</p>", "key_press": -1, "type": "PRES_VIS", "word": "lightning", "wordID": 819, "conditions": [18, 1200, "v", 18000], "trial": 1, "serialpos": 15, "trial_type": "single-stim", "trial_index": 70, "time_elapsed": 395865, "internal_node_id": "0.0-52.0"}}, {"uniqueid": "MTK0723:3CN4LGXD5YVICNZY07XF0Q42VBTY43", "current_trial": 71, "dateTime": 1512674459319, "trialdata": {"rt": -1, "stimulus": "<p id=\"stim\">BOUQUET</p>", "key_press": -1, "type": "PRES_VIS", "word": "bouquet", "wordID": 156, "conditions": [18, 1200, "v", 18000], "trial": 1, "serialpos": 16, "trial_type": "single-stim", "trial_index": 71, "time_elapsed": 398113, "internal_node_id": "0.0-53.0"}}, {"uniqueid": "MTK0723:3CN4LGXD5YVICNZY07XF0Q42VBTY43", "current_trial": 72, "dateTime": 1512674461560, "trialdata": {"rt": -1, "stimulus": "<p id=\"stim\">CLOTHES</p>", "key_press": -1, "type": "PRES_VIS", "word": "clothes", "wordID": 326, "conditions": [18, 1200, "v", 18000], "trial": 1, "serialpos": 17, "trial_type": "single-stim", "trial_index": 72, "time_elapsed": 400354, "internal_node_id": "0.0-54.0"}}, {"uniqueid": "MTK0723:3CN4LGXD5YVICNZY07XF0Q42VBTY43", "current_trial": 73, "dateTime": 1512674463681, "trialdata": {"rt": -1, "stimulus": "", "key_press": -1, "type": "PRE_RECALL_DELAY", "trial_type": "single-stim", "trial_index": 73, "time_elapsed": 402475, "internal_node_id": "0.0-55.0-0.0"}}, {"uniqueid": "MTK0723:3CN4LGXD5YVICNZY07XF0Q42VBTY43", "current_trial": 74, "dateTime": 1512674464182, "trialdata": {"rt": -1000, "stimulus": "/static/audio/400Hz.wav", "key_press": -1, "type": "PRE_RECALL_ALERT", "trial_type": "single-audio", "trial_index": 74, "time_elapsed": 402976, "internal_node_id": "0.0-56.0"}}, {"uniqueid": "MTK0723:3CN4LGXD5YVICNZY07XF0Q42VBTY43", "current_trial": 75, "dateTime": 1512674524189, "trialdata": {"rt": [2303, 4447, 10815, 12974, 15919, 30815, 38655], "recwords": ["clothes", "crevice", "bouquet", "actor", "preacher", "mountain", "partner"], "type": "FREE_RECALL", "conditions": [18, 1200, "v", 18000], "trial": 1, "trial_type": "free-recall", "trial_index": 75, "time_elapsed": 462981, "internal_node_id": "0.0-57.0-0.0"}}, {"uniqueid": "MTK0723:3CN4LGXD5YVICNZY07XF0Q42VBTY43", "current_trial": 76, "dateTime": 1512674541358, "trialdata": {"rt": 15163, "key_press": 13, "type": "INSTRUCTIONS", "trial_type": "text", "trial_index": 76, "time_elapsed": 480146, "internal_node_id": "0.0-58.0"}}, {"uniqueid": "MTK0723:3CN4LGXD5YVICNZY07XF0Q42VBTY43", "current_trial": 77, "dateTime": 1512674554360, "trialdata": {"rt": [2881, 5490, 7793, 9713, 11698], "responses": ["6", "18", "23", "12", "15"], "num1": [2, 9, 7, 5, 7, 4], "num2": [1, 4, 9, 6, 5, 9], "num3": [3, 5, 9, 1, 3, 5], "type": "DISTRACTOR", "conditions": [24, 800, "v", 12000], "trial": 2, "trial_type": "math-distractor", "trial_index": 77, "time_elapsed": 493154, "internal_node_id": "0.0-59.0"}}, {"uniqueid": "MTK0723:3CN4LGXD5YVICNZY07XF0Q42VBTY43", "current_trial": 78, "dateTime": 1512674557362, "trialdata": {"rt": -1, "stimulus": "<p id=\"stim\">10</p>", "key_press": -1, "trial_type": "single-stim", "trial_index": 78, "time_elapsed": 496155, "internal_node_id": "0.0-60.0-0.0"}}, {"uniqueid": "MTK0723:3CN4LGXD5YVICNZY07XF0Q42VBTY43", "current_trial": 79, "dateTime": 1512674558362, "trialdata": {"rt": -1, "stimulus": "<p id=\"stim\">9</p>", "key_press": -1, "trial_type": "single-stim", "trial_index": 79, "time_elapsed": 497156, "internal_node_id": "0.0-60.0-1.0"}}, {"uniqueid": "MTK0723:3CN4LGXD5YVICNZY07XF0Q42VBTY43", "current_trial": 80, "dateTime": 1512674559363, "trialdata": {"rt": -1, "stimulus": "<p id=\"stim\">8</p>", "key_press": -1, "trial_type": "single-stim", "trial_index": 80, "time_elapsed": 498157, "internal_node_id": "0.0-60.0-2.0"}}, {"uniqueid": "MTK0723:3CN4LGXD5YVICNZY07XF0Q42VBTY43", "current_trial": 81, "dateTime": 1512674560364, "trialdata": {"rt": -1, "stimulus": "<p id=\"stim\">7</p>", "key_press": -1, "trial_type": "single-stim", "trial_index": 81, "time_elapsed": 499158, "internal_node_id": "0.0-60.0-3.0"}}, {"uniqueid": "MTK0723:3CN4LGXD5YVICNZY07XF0Q42VBTY43", "current_trial": 82, "dateTime": 1512674561365, "trialdata": {"rt": -1, "stimulus": "<p id=\"stim\">6</p>", "key_press": -1, "trial_type": "single-stim", "trial_index": 82, "time_elapsed": 500159, "internal_node_id": "0.0-60.0-4.0"}}, {"uniqueid": "MTK0723:3CN4LGXD5YVICNZY07XF0Q42VBTY43", "current_trial": 83, "dateTime": 1512674562367, "trialdata": {"rt": -1, "stimulus": "<p id=\"stim\">5</p>", "key_press": -1, "trial_type": "single-stim", "trial_index": 83, "time_elapsed": 501161, "internal_node_id": "0.0-60.0-5.0"}}, {"uniqueid": "MTK0723:3CN4LGXD5YVICNZY07XF0Q42VBTY43", "current_trial": 84, "dateTime": 1512674563368, "trialdata": {"rt": -1, "stimulus": "<p id=\"stim\">4</p>", "key_press": -1, "trial_type": "single-stim", "trial_index": 84, "time_elapsed": 502161, "internal_node_id": "0.0-60.0-6.0"}}, {"uniqueid": "MTK0723:3CN4LGXD5YVICNZY07XF0Q42VBTY43", "current_trial": 85, "dateTime": 1512674564369, "trialdata": {"rt": -1, "stimulus": "<p id=\"stim\">3</p>", "key_press": -1, "trial_type": "single-stim", "trial_index": 85, "time_elapsed": 503162, "internal_node_id": "0.0-60.0-7.0"}}, {"uniqueid": "MTK0723:3CN4LGXD5YVICNZY07XF0Q42VBTY43", "current_trial": 86, "dateTime": 1512674565370, "trialdata": {"rt": -1, "stimulus": "<p id=\"stim\">2</p>", "key_press": -1, "trial_type": "single-stim", "trial_index": 86, "time_elapsed": 504163, "internal_node_id": "0.0-60.0-8.0"}}, {"uniqueid": "MTK0723:3CN4LGXD5YVICNZY07XF0Q42VBTY43", "current_trial": 87, "dateTime": 1512674566370, "trialdata": {"rt": -1, "stimulus": "<p id=\"stim\">1</p>", "key_press": -1, "trial_type": "single-stim", "trial_index": 87, "time_elapsed": 505164, "internal_node_id": "0.0-60.0-9.0"}}, {"uniqueid": "MTK0723:3CN4LGXD5YVICNZY07XF0Q42VBTY43", "current_trial": 88, "dateTime": 1512674567871, "trialdata": {"rt": -1, "stimulus": "<p id=\"stim\">+</p>", "key_press": -1, "type": "FIXATION", "trial_type": "single-stim", "trial_index": 88, "time_elapsed": 506665, "internal_node_id": "0.0-61.0-0.0"}}, {"uniqueid": "MTK0723:3CN4LGXD5YVICNZY07XF0Q42VBTY43", "current_trial": 89, "dateTime": 1512674568672, "trialdata": {"rt": -1, "stimulus": "<p id=\"stim\">NECKLACE</p>", "key_press": -1, "type": "PRES_VIS", "word": "necklace", "wordID": 939, "conditions": [24, 800, "v", 12000], "trial": 2, "serialpos": 0, "trial_type": "single-stim", "trial_index": 89, "time_elapsed": 507466, "internal_node_id": "0.0-62.0"}}, {"uniqueid": "MTK0723:3CN4LGXD5YVICNZY07XF0Q42VBTY43", "current_trial": 90, "dateTime": 1512674570629, "trialdata": {"rt": -1, "stimulus": "<p id=\"stim\">PENGUIN</p>", "key_press": -1, "type": "PRES_VIS", "word": "penguin", "wordID": 1043, "conditions": [24, 800, "v", 12000], "trial": 2, "serialpos": 1, "trial_type": "single-stim", "trial_index": 90, "time_elapsed": 509422, "internal_node_id": "0.0-63.0"}}, {"uniqueid": "MTK0723:3CN4LGXD5YVICNZY07XF0Q42VBTY43", "current_trial": 91, "dateTime": 1512674572582, "trialdata": {"rt": -1, "stimulus": "<p id=\"stim\">TRENCH</p>", "key_press": -1, "type": "PRES_VIS", "word": "trench", "wordID": 1502, "conditions": [24, 800, "v", 12000], "trial": 2, "serialpos": 2, "trial_type": "single-stim", "trial_index": 91, "time_elapsed": 511376, "internal_node_id": "0.0-64.0"}}, {"uniqueid": "MTK0723:3CN4LGXD5YVICNZY07XF0Q42VBTY43", "current_trial": 92, "dateTime": 1512674574365, "trialdata": {"rt": -1, "stimulus": "<p id=\"stim\">JUDGE</p>", "key_press": -1, "type": "PRES_VIS", "word": "judge", "wordID": 760, "conditions": [24, 800, "v", 12000], "trial": 2, "serialpos": 3, "trial_type": "single-stim", "trial_index": 92, "time_elapsed": 513159, "internal_node_id": "0.0-65.0"}}, {"uniqueid": "MTK0723:3CN4LGXD5YVICNZY07XF0Q42VBTY43", "current_trial": 93, "dateTime": 1512674576013, "trialdata": {"rt": -1, "stimulus": "<p id=\"stim\">JURY</p>", "key_press": -1, "type": "PRES_VIS", "word": "jury", "wordID": 765, "conditions": [24, 800, "v", 12000], "trial": 2, "serialpos": 4, "trial_type": "single-stim", "trial_index": 93, "time_elapsed": 514807, "internal_node_id": "0.0-66.0"}}, {"uniqueid": "MTK0723:3CN4LGXD5YVICNZY07XF0Q42VBTY43", "current_trial": 94, "dateTime": 1512674577959, "trialdata": {"rt": -1, "stimulus": "<p id=\"stim\">SPIDER</p>", "key_press": -1, "type": "PRES_VIS", "word": "spider", "wordID": 1350, "conditions": [24, 800, "v", 12000], "trial": 2, "serialpos": 5, "trial_type": "single-stim", "trial_index": 94, "time_elapsed": 516752, "internal_node_id": "0.0-67.0"}}, {"uniqueid": "MTK0723:3CN4LGXD5YVICNZY07XF0Q42VBTY43", "current_trial": 95, "dateTime": 1512674579820, "trialdata": {"rt": -1, "stimulus": "<p id=\"stim\">TYPIST</p>", "key_press": -1, "type": "PRES_VIS", "word": "typist", "wordID": 1531, "conditions": [24, 800, "v", 12000], "trial": 2, "serialpos": 6, "trial_type": "single-stim", "trial_index": 95, "time_elapsed": 518614, "internal_node_id": "0.0-68.0"}}, {"uniqueid": "MTK0723:3CN4LGXD5YVICNZY07XF0Q42VBTY43", "current_trial": 96, "dateTime": 1512674581508, "trialdata": {"rt": -1, "stimulus": "<p id=\"stim\">BRANCH</p>", "key_press": -1, "type": "PRES_VIS", "word": "branch", "wordID": 167, "conditions": [24, 800, "v", 12000], "trial": 2, "serialpos": 7, "trial_type": "single-stim", "trial_index": 96, "time_elapsed": 520302, "internal_node_id": "0.0-69.0"}}, {"uniqueid": "MTK0723:3CN4LGXD5YVICNZY07XF0Q42VBTY43", "current_trial": 97, "dateTime": 1512674583109, "trialdata": {"rt": -1, "stimulus": "<p id=\"stim\">MISSILE</p>", "key_press": -1, "type": "PRES_VIS", "word": "missile", "wordID": 899, "conditions": [24, 800, "v", 12000], "trial": 2, "serialpos": 8, "trial_type": "single-stim", "trial_index": 97, "time_elapsed": 521903, "internal_node_id": "0.0-70.0"}}, {"uniqueid": "MTK0723:3CN4LGXD5YVICNZY07XF0Q42VBTY43", "current_trial": 98, "dateTime": 1512674584796, "trialdata": {"rt": -1, "stimulus": "<p id=\"stim\">FRECKLE</p>", "key_press": -1, "type": "PRES_VIS", "word": "freckle", "wordID": 601, "conditions": [24, 800, "v", 12000], "trial": 2, "serialpos": 9, "trial_type": "single-stim", "trial_index": 98, "time_elapsed": 523590, "internal_node_id": "0.0-71.0"}}, {"uniqueid": "MTK0723:3CN4LGXD5YVICNZY07XF0Q42VBTY43", "current_trial": 99, "dateTime": 1512674586614, "trialdata": {"rt": -1, "stimulus": "<p id=\"stim\">HANDBAG</p>", "key_press": -1, "type": "PRES_VIS", "word": "handbag", "wordID": 683, "conditions": [24, 800, "v", 12000], "trial": 2, "serialpos": 10, "trial_type": "single-stim", "trial_index": 99, "time_elapsed": 525408, "internal_node_id": "0.0-72.0"}}, {"uniqueid": "MTK0723:3CN4LGXD5YVICNZY07XF0Q42VBTY43", "current_trial": 100, "dateTime": 1512674588533, "trialdata": {"rt": -1, "stimulus": "<p id=\"stim\">RUST</p>", "key_press": -1, "type": "PRES_VIS", "word": "rust", "wordID": 1218, "conditions": [24, 800, "v", 12000], "trial": 2, "serialpos": 11, "trial_type": "single-stim", "trial_index": 100, "time_elapsed": 527327, "internal_node_id": "0.0-73.0"}}, {"uniqueid": "MTK0723:3CN4LGXD5YVICNZY07XF0Q42VBTY43", "current_trial": 101, "dateTime": 1512674590516, "trialdata": {"rt": -1, "stimulus": "<p id=\"stim\">NURSE</p>", "key_press": -1, "type": "PRES_VIS", "word": "nurse", "wordID": 962, "conditions": [24, 800, "v", 12000], "trial": 2, "serialpos": 12, "trial_type": "single-stim", "trial_index": 101, "time_elapsed": 529310, "internal_node_id": "0.0-74.0"}}, {"uniqueid": "MTK0723:3CN4LGXD5YVICNZY07XF0Q42VBTY43", "current_trial": 102, "dateTime": 1512674592119, "trialdata": {"rt": -1, "stimulus": "<p id=\"stim\">CHURCH</p>", "key_press": -1, "type": "PRES_VIS", "word": "church", "wordID": 306, "conditions": [24, 800, "v", 12000], "trial": 2, "serialpos": 13, "trial_type": "single-stim", "trial_index": 102, "time_elapsed": 530913, "internal_node_id": "0.0-75.0"}}, {"uniqueid": "MTK0723:3CN4LGXD5YVICNZY07XF0Q42VBTY43", "current_trial": 103, "dateTime": 1512674593786, "trialdata": {"rt": -1, "stimulus": "<p id=\"stim\">SALMON</p>", "key_press": -1, "type": "PRES_VIS", "word": "salmon", "wordID": 1226, "conditions": [24, 800, "v", 12000], "trial": 2, "serialpos": 14, "trial_type": "single-stim", "trial_index": 103, "time_elapsed": 532580, "internal_node_id": "0.0-76.0"}}, {"uniqueid": "MTK0723:3CN4LGXD5YVICNZY07XF0Q42VBTY43", "current_trial": 104, "dateTime": 1512674595467, "trialdata": {"rt": -1, "stimulus": "<p id=\"stim\">COD</p>", "key_press": -1, "type": "PRES_VIS", "word": "cod", "wordID": 339, "conditions": [24, 800, "v", 12000], "trial": 2, "serialpos": 15, "trial_type": "single-stim", "trial_index": 104, "time_elapsed": 534261, "internal_node_id": "0.0-77.0"}}, {"uniqueid": "MTK0723:3CN4LGXD5YVICNZY07XF0Q42VBTY43", "current_trial": 105, "dateTime": 1512674597366, "trialdata": {"rt": -1, "stimulus": "<p id=\"stim\">LUNCH</p>", "key_press": -1, "type": "PRES_VIS", "word": "lunch", "wordID": 848, "conditions": [24, 800, "v", 12000], "trial": 2, "serialpos": 16, "trial_type": "single-stim", "trial_index": 105, "time_elapsed": 536160, "internal_node_id": "0.0-78.0"}}, {"uniqueid": "MTK0723:3CN4LGXD5YVICNZY07XF0Q42VBTY43", "current_trial": 106, "dateTime": 1512674599073, "trialdata": {"rt": -1, "stimulus": "<p id=\"stim\">CHAPEL</p>", "key_press": -1, "type": "PRES_VIS", "word": "chapel", "wordID": 279, "conditions": [24, 800, "v", 12000], "trial": 2, "serialpos": 17, "trial_type": "single-stim", "trial_index": 106, "time_elapsed": 537867, "internal_node_id": "0.0-79.0"}}, {"uniqueid": "MTK0723:3CN4LGXD5YVICNZY07XF0Q42VBTY43", "current_trial": 107, "dateTime": 1512674600724, "trialdata": {"rt": -1, "stimulus": "<p id=\"stim\">WASP</p>", "key_press": -1, "type": "PRES_VIS", "word": "wasp", "wordID": 1592, "conditions": [24, 800, "v", 12000], "trial": 2, "serialpos": 18, "trial_type": "single-stim", "trial_index": 107, "time_elapsed": 539518, "internal_node_id": "0.0-80.0"}}, {"uniqueid": "MTK0723:3CN4LGXD5YVICNZY07XF0Q42VBTY43", "current_trial": 108, "dateTime": 1512674602393, "trialdata": {"rt": -1, "stimulus": "<p id=\"stim\">GLOBE</p>", "key_press": -1, "type": "PRES_VIS", "word": "globe", "wordID": 640, "conditions": [24, 800, "v", 12000], "trial": 2, "serialpos": 19, "trial_type": "single-stim", "trial_index": 108, "time_elapsed": 541187, "internal_node_id": "0.0-81.0"}}, {"uniqueid": "MTK0723:3CN4LGXD5YVICNZY07XF0Q42VBTY43", "current_trial": 109, "dateTime": 1512674604160, "trialdata": {"rt": -1, "stimulus": "<p id=\"stim\">MARINE</p>", "key_press": -1, "type": "PRES_VIS", "word": "marine", "wordID": 868, "conditions": [24, 800, "v", 12000], "trial": 2, "serialpos": 20, "trial_type": "single-stim", "trial_index": 109, "time_elapsed": 542954, "internal_node_id": "0.0-82.0"}}, {"uniqueid": "MTK0723:3CN4LGXD5YVICNZY07XF0Q42VBTY43", "current_trial": 110, "dateTime": 1512674605986, "trialdata": {"rt": -1, "stimulus": "<p id=\"stim\">CITRUS</p>", "key_press": -1, "type": "PRES_VIS", "word": "citrus", "wordID": 312, "conditions": [24, 800, "v", 12000], "trial": 2, "serialpos": 21, "trial_type": "single-stim", "trial_index": 110, "time_elapsed": 544780, "internal_node_id": "0.0-83.0"}}, {"uniqueid": "MTK0723:3CN4LGXD5YVICNZY07XF0Q42VBTY43", "current_trial": 111, "dateTime": 1512674607774, "trialdata": {"rt": -1, "stimulus": "<p id=\"stim\">OUTFIT</p>", "key_press": -1, "type": "PRES_VIS", "word": "outfit", "wordID": 987, "conditions": [24, 800, "v", 12000], "trial": 2, "serialpos": 22, "trial_type": "single-stim", "trial_index": 111, "time_elapsed": 546567, "internal_node_id": "0.0-84.0"}}, {"uniqueid": "MTK0723:3CN4LGXD5YVICNZY07XF0Q42VBTY43", "current_trial": 112, "dateTime": 1512674609494, "trialdata": {"rt": -1, "stimulus": "<p id=\"stim\">DENIM</p>", "key_press": -1, "type": "PRES_VIS", "word": "denim", "wordID": 445, "conditions": [24, 800, "v", 12000], "trial": 2, "serialpos": 23, "trial_type": "single-stim", "trial_index": 112, "time_elapsed": 548288, "internal_node_id": "0.0-85.0"}}, {"uniqueid": "MTK0723:3CN4LGXD5YVICNZY07XF0Q42VBTY43", "current_trial": 113, "dateTime": 1512674611959, "trialdata": {"rt": -1, "stimulus": "", "key_press": -1, "type": "PRE_RECALL_DELAY", "trial_type": "single-stim", "trial_index": 113, "time_elapsed": 550753, "internal_node_id": "0.0-86.0-0.0"}}, {"uniqueid": "MTK0723:3CN4LGXD5YVICNZY07XF0Q42VBTY43", "current_trial": 114, "dateTime": 1512674612460, "trialdata": {"rt": -1000, "stimulus": "/static/audio/400Hz.wav", "key_press": -1, "type": "PRE_RECALL_ALERT", "trial_type": "single-audio", "trial_index": 114, "time_elapsed": 551254, "internal_node_id": "0.0-87.0"}}, {"uniqueid": "MTK0723:3CN4LGXD5YVICNZY07XF0Q42VBTY43", "current_trial": 115, "dateTime": 1512674672464, "trialdata": {"rt": [1706, 5483, 7980, 9691, 12347, 14603, 18491, 22268, 29611, 32251, 38219], "recwords": ["denim", "outfit", "citrus", "marine", "globe", "freckle", "handbag", "missile", "cod", "salmon", "branch"], "type": "FREE_RECALL", "conditions": [24, 800, "v", 12000], "trial": 2, "trial_type": "free-recall", "trial_index": 115, "time_elapsed": 611256, "internal_node_id": "0.0-88.0-0.0"}}, {"uniqueid": "MTK0723:3CN4LGXD5YVICNZY07XF0Q42VBTY43", "current_trial": 116, "dateTime": 1512674676905, "trialdata": {"rt": 2439, "key_press": 32, "type": "INSTRUCTIONS", "trial_type": "text", "trial_index": 116, "time_elapsed": 615699, "internal_node_id": "0.0-89.0"}}, {"uniqueid": "MTK0723:3CN4LGXD5YVICNZY07XF0Q42VBTY43", "current_trial": 117, "dateTime": 1512674690908, "trialdata": {"rt": [1854, 4782, 6590, 8606, 11102], "responses": ["4", "18", "13", "14", "10"], "num1": [1, 9, 5, 3, 3, 9], "num2": [1, 3, 6, 2, 4, 7], "num3": [2, 6, 2, 9, 3, 9], "type": "DISTRACTOR", "conditions": [24, 800, "a", 12000], "trial": 3, "trial_type": "math-distractor", "trial_index": 117, "time_elapsed": 629702, "internal_node_id": "0.0-90.0"}}, {"uniqueid": "MTK0723:3CN4LGXD5YVICNZY07XF0Q42VBTY43", "current_trial": 118, "dateTime": 1512674693909, "trialdata": {"rt": -1, "stimulus": "<p id=\"stim\">10</p>", "key_press": -1, "trial_type": "single-stim", "trial_index": 118, "time_elapsed": 632703, "internal_node_id": "0.0-91.0-0.0"}}, {"uniqueid": "MTK0723:3CN4LGXD5YVICNZY07XF0Q42VBTY43", "current_trial": 119, "dateTime": 1512674694910, "trialdata": {"rt": -1, "stimulus": "<p id=\"stim\">9</p>", "key_press": -1, "trial_type": "single-stim", "trial_index": 119, "time_elapsed": 633704, "internal_node_id": "0.0-91.0-1.0"}}, {"uniqueid": "MTK0723:3CN4LGXD5YVICNZY07XF0Q42VBTY43", "current_trial": 120, "dateTime": 1512674695911, "trialdata": {"rt": -1, "stimulus": "<p id=\"stim\">8</p>", "key_press": -1, "trial_type": "single-stim", "trial_index": 120, "time_elapsed": 634705, "internal_node_id": "0.0-91.0-2.0"}}, {"uniqueid": "MTK0723:3CN4LGXD5YVICNZY07XF0Q42VBTY43", "current_trial": 121, "dateTime": 1512674696912, "trialdata": {"rt": -1, "stimulus": "<p id=\"stim\">7</p>", "key_press": -1, "trial_type": "single-stim", "trial_index": 121, "time_elapsed": 635706, "internal_node_id": "0.0-91.0-3.0"}}, {"uniqueid": "MTK0723:3CN4LGXD5YVICNZY07XF0Q42VBTY43", "current_trial": 122, "dateTime": 1512674697913, "trialdata": {"rt": -1, "stimulus": "<p id=\"stim\">6</p>", "key_press": -1, "trial_type": "single-stim", "trial_index": 122, "time_elapsed": 636707, "internal_node_id": "0.0-91.0-4.0"}}, {"uniqueid": "MTK0723:3CN4LGXD5YVICNZY07XF0Q42VBTY43", "current_trial": 123, "dateTime": 1512674698914, "trialdata": {"rt": -1, "stimulus": "<p id=\"stim\">5</p>", "key_press": -1, "trial_type": "single-stim", "trial_index": 123, "time_elapsed": 637708, "internal_node_id": "0.0-91.0-5.0"}}, {"uniqueid": "MTK0723:3CN4LGXD5YVICNZY07XF0Q42VBTY43", "current_trial": 124, "dateTime": 1512674699915, "trialdata": {"rt": -1, "stimulus": "<p id=\"stim\">4</p>", "key_press": -1, "trial_type": "single-stim", "trial_index": 124, "time_elapsed": 638709, "internal_node_id": "0.0-91.0-6.0"}}, {"uniqueid": "MTK0723:3CN4LGXD5YVICNZY07XF0Q42VBTY43", "current_trial": 125, "dateTime": 1512674700916, "trialdata": {"rt": -1, "stimulus": "<p id=\"stim\">3</p>", "key_press": -1, "trial_type": "single-stim", "trial_index": 125, "time_elapsed": 639710, "internal_node_id": "0.0-91.0-7.0"}}, {"uniqueid": "MTK0723:3CN4LGXD5YVICNZY07XF0Q42VBTY43", "current_trial": 126, "dateTime": 1512674701917, "trialdata": {"rt": -1, "stimulus": "<p id=\"stim\">2</p>", "key_press": -1, "trial_type": "single-stim", "trial_index": 126, "time_elapsed": 640711, "internal_node_id": "0.0-91.0-8.0"}}, {"uniqueid": "MTK0723:3CN4LGXD5YVICNZY07XF0Q42VBTY43", "current_trial": 127, "dateTime": 1512674702918, "trialdata": {"rt": -1, "stimulus": "<p id=\"stim\">1</p>", "key_press": -1, "trial_type": "single-stim", "trial_index": 127, "time_elapsed": 641712, "internal_node_id": "0.0-91.0-9.0"}}, {"uniqueid": "MTK0723:3CN4LGXD5YVICNZY07XF0Q42VBTY43", "current_trial": 128, "dateTime": 1512674704419, "trialdata": {"rt": -1, "stimulus": "<p id=\"stim\">+</p>", "key_press": -1, "type": "FIXATION", "trial_type": "single-stim", "trial_index": 128, "time_elapsed": 643213, "internal_node_id": "0.0-92.0-0.0"}}, {"uniqueid": "MTK0723:3CN4LGXD5YVICNZY07XF0Q42VBTY43", "current_trial": 129, "dateTime": 1512674706147, "trialdata": {"rt": -1000, "stimulus": "/static/audio/wordpool/RADISH.wav", "key_press": -1, "type": "PRES_AUD", "word": "radish", "wordID": 1157, "conditions": [24, 800, "a", 12000], "trial": 3, "serialpos": 0, "trial_type": "single-audio", "trial_index": 129, "time_elapsed": 644940, "internal_node_id": "0.0-93.0"}}, {"uniqueid": "MTK0723:3CN4LGXD5YVICNZY07XF0Q42VBTY43", "current_trial": 130, "dateTime": 1512674708013, "trialdata": {"rt": -1000, "stimulus": "/static/audio/wordpool/SPOOL.wav", "key_press": -1, "type": "PRES_AUD", "word": "spool", "wordID": 1355, "conditions": [24, 800, "a", 12000], "trial": 3, "serialpos": 1, "trial_type": "single-audio", "trial_index": 130, "time_elapsed": 646807, "internal_node_id": "0.0-94.0"}}, {"uniqueid": "MTK0723:3CN4LGXD5YVICNZY07XF0Q42VBTY43", "current_trial": 131, "dateTime": 1512674709626, "trialdata": {"rt": -1000, "stimulus": "/static/audio/wordpool/ROD.wav", "key_press": -1, "type": "PRES_AUD", "word": "rod", "wordID": 1202, "conditions": [24, 800, "a", 12000], "trial": 3, "serialpos": 2, "trial_type": "single-audio", "trial_index": 131, "time_elapsed": 648419, "internal_node_id": "0.0-95.0"}}, {"uniqueid": "MTK0723:3CN4LGXD5YVICNZY07XF0Q42VBTY43", "current_trial": 132, "dateTime": 1512674711360, "trialdata": {"rt": -1000, "stimulus": "/static/audio/wordpool/TWIG.wav", "key_press": -1, "type": "PRES_AUD", "word": "twig", "wordID": 1526, "conditions": [24, 800, "a", 12000], "trial": 3, "serialpos": 3, "trial_type": "single-audio", "trial_index": 132, "time_elapsed": 650154, "internal_node_id": "0.0-96.0"}}, {"uniqueid": "MTK0723:3CN4LGXD5YVICNZY07XF0Q42VBTY43", "current_trial": 133, "dateTime": 1512674713185, "trialdata": {"rt": -1000, "stimulus": "/static/audio/wordpool/THREAD.wav", "key_press": -1, "type": "PRES_AUD", "word": "thread", "wordID": 1459, "conditions": [24, 800, "a", 12000], "trial": 3, "serialpos": 4, "trial_type": "single-audio", "trial_index": 133, "time_elapsed": 651979, "internal_node_id": "0.0-97.0"}}, {"uniqueid": "MTK0723:3CN4LGXD5YVICNZY07XF0Q42VBTY43", "current_trial": 134, "dateTime": 1512674715066, "trialdata": {"rt": -1000, "stimulus": "/static/audio/wordpool/SHORTS.wav", "key_press": -1, "type": "PRES_AUD", "word": "shorts", "wordID": 1292, "conditions": [24, 800, "a", 12000], "trial": 3, "serialpos": 5, "trial_type": "single-audio", "trial_index": 134, "time_elapsed": 653860, "internal_node_id": "0.0-98.0"}}, {"uniqueid": "MTK0723:3CN4LGXD5YVICNZY07XF0Q42VBTY43", "current_trial": 135, "dateTime": 1512674716920, "trialdata": {"rt": -1000, "stimulus": "/static/audio/wordpool/WARDROBE.wav", "key_press": -1, "type": "PRES_AUD", "word": "wardrobe", "wordID": 1586, "conditions": [24, 800, "a", 12000], "trial": 3, "serialpos": 6, "trial_type": "single-audio", "trial_index": 135, "time_elapsed": 655714, "internal_node_id": "0.0-99.0"}}, {"uniqueid": "MTK0723:3CN4LGXD5YVICNZY07XF0Q42VBTY43", "current_trial": 136, "dateTime": 1512674718860, "trialdata": {"rt": -1000, "stimulus": "/static/audio/wordpool/ULCER.wav", "key_press": -1, "type": "PRES_AUD", "word": "ulcer", "wordID": 1532, "conditions": [24, 800, "a", 12000], "trial": 3, "serialpos": 7, "trial_type": "single-audio", "trial_index": 136, "time_elapsed": 657654, "internal_node_id": "0.0-100.0"}}, {"uniqueid": "MTK0723:3CN4LGXD5YVICNZY07XF0Q42VBTY43", "current_trial": 137, "dateTime": 1512674720831, "trialdata": {"rt": -1000, "stimulus": "/static/audio/wordpool/CHEMIST.wav", "key_press": -1, "type": "PRES_AUD", "word": "chemist", "wordID": 291, "conditions": [24, 800, "a", 12000], "trial": 3, "serialpos": 8, "trial_type": "single-audio", "trial_index": 137, "time_elapsed": 659625, "internal_node_id": "0.0-101.0"}}, {"uniqueid": "MTK0723:3CN4LGXD5YVICNZY07XF0Q42VBTY43", "current_trial": 138, "dateTime": 1512674722616, "trialdata": {"rt": -1000, "stimulus": "/static/audio/wordpool/FOOTBALL.wav", "key_press": -1, "type": "PRES_AUD", "word": "football", "wordID": 590, "conditions": [24, 800, "a", 12000], "trial": 3, "serialpos": 9, "trial_type": "single-audio", "trial_index": 138, "time_elapsed": 661410, "internal_node_id": "0.0-102.0"}}, {"uniqueid": "MTK0723:3CN4LGXD5YVICNZY07XF0Q42VBTY43", "current_trial": 139, "dateTime": 1512674724238, "trialdata": {"rt": -1000, "stimulus": "/static/audio/wordpool/TURNIP.wav", "key_press": -1, "type": "PRES_AUD", "word": "turnip", "wordID": 1520, "conditions": [24, 800, "a", 12000], "trial": 3, "serialpos": 10, "trial_type": "single-audio", "trial_index": 139, "time_elapsed": 663032, "internal_node_id": "0.0-103.0"}}, {"uniqueid": "MTK0723:3CN4LGXD5YVICNZY07XF0Q42VBTY43", "current_trial": 140, "dateTime": 1512674725893, "trialdata": {"rt": -1000, "stimulus": "/static/audio/wordpool/ARM.wav", "key_press": -1, "type": "PRES_AUD", "word": "arm", "wordID": 37, "conditions": [24, 800, "a", 12000], "trial": 3, "serialpos": 11, "trial_type": "single-audio", "trial_index": 140, "time_elapsed": 664687, "internal_node_id": "0.0-104.0"}}, {"uniqueid": "MTK0723:3CN4LGXD5YVICNZY07XF0Q42VBTY43", "current_trial": 141, "dateTime": 1512674727630, "trialdata": {"rt": -1000, "stimulus": "/static/audio/wordpool/YACHT.wav", "key_press": -1, "type": "PRES_AUD", "word": "yacht", "wordID": 1628, "conditions": [24, 800, "a", 12000], "trial": 3, "serialpos": 12, "trial_type": "single-audio", "trial_index": 141, "time_elapsed": 666424, "internal_node_id": "0.0-105.0"}}, {"uniqueid": "MTK0723:3CN4LGXD5YVICNZY07XF0Q42VBTY43", "current_trial": 142, "dateTime": 1512674729370, "trialdata": {"rt": -1000, "stimulus": "/static/audio/wordpool/EUROPE.wav", "key_press": -1, "type": "PRES_AUD", "word": "europe", "wordID": 540, "conditions": [24, 800, "a", 12000], "trial": 3, "serialpos": 13, "trial_type": "single-audio", "trial_index": 142, "time_elapsed": 668164, "internal_node_id": "0.0-106.0"}}, {"uniqueid": "MTK0723:3CN4LGXD5YVICNZY07XF0Q42VBTY43", "current_trial": 143, "dateTime": 1512674731000, "trialdata": {"rt": -1000, "stimulus": "/static/audio/wordpool/CYCLONE.wav", "key_press": -1, "type": "PRES_AUD", "word": "cyclone", "wordID": 430, "conditions": [24, 800, "a", 12000], "trial": 3, "serialpos": 14, "trial_type": "single-audio", "trial_index": 143, "time_elapsed": 669794, "internal_node_id": "0.0-107.0"}}, {"uniqueid": "MTK0723:3CN4LGXD5YVICNZY07XF0Q42VBTY43", "current_trial": 144, "dateTime": 1512674732834, "trialdata": {"rt": -1000, "stimulus": "/static/audio/wordpool/MILDEW.wav", "key_press": -1, "type": "PRES_AUD", "word": "mildew", "wordID": 892, "conditions": [24, 800, "a", 12000], "trial": 3, "serialpos": 15, "trial_type": "single-audio", "trial_index": 144, "time_elapsed": 671628, "internal_node_id": "0.0-108.0"}}, {"uniqueid": "MTK0723:3CN4LGXD5YVICNZY07XF0Q42VBTY43", "current_trial": 145, "dateTime": 1512674734789, "trialdata": {"rt": -1000, "stimulus": "/static/audio/wordpool/LIPSTICK.wav", "key_press": -1, "type": "PRES_AUD", "word": "lipstick", "wordID": 828, "conditions": [24, 800, "a", 12000], "trial": 3, "serialpos": 16, "trial_type": "single-audio", "trial_index": 145, "time_elapsed": 673583, "internal_node_id": "0.0-109.0"}}, {"uniqueid": "MTK0723:3CN4LGXD5YVICNZY07XF0Q42VBTY43", "current_trial": 146, "dateTime": 1512674736684, "trialdata": {"rt": -1000, "stimulus": "/static/audio/wordpool/WAITER.wav", "key_press": -1, "type": "PRES_AUD", "word": "waiter", "wordID": 1579, "conditions": [24, 800, "a", 12000], "trial": 3, "serialpos": 17, "trial_type": "single-audio", "trial_index": 146, "time_elapsed": 675478, "internal_node_id": "0.0-110.0"}}, {"uniqueid": "MTK0723:3CN4LGXD5YVICNZY07XF0Q42VBTY43", "current_trial": 147, "dateTime": 1512674738394, "trialdata": {"rt": -1000, "stimulus": "/static/audio/wordpool/DINER.wav", "key_press": -1, "type": "PRES_AUD", "word": "diner", "wordID": 466, "conditions": [24, 800, "a", 12000], "trial": 3, "serialpos": 18, "trial_type": "single-audio", "trial_index": 147, "time_elapsed": 677188, "internal_node_id": "0.0-111.0"}}, {"uniqueid": "MTK0723:3CN4LGXD5YVICNZY07XF0Q42VBTY43", "current_trial": 148, "dateTime": 1512674740158, "trialdata": {"rt": -1000, "stimulus": "/static/audio/wordpool/JAPAN.wav", "key_press": -1, "type": "PRES_AUD", "word": "japan", "wordID": 748, "conditions": [24, 800, "a", 12000], "trial": 3, "serialpos": 19, "trial_type": "single-audio", "trial_index": 148, "time_elapsed": 678952, "internal_node_id": "0.0-112.0"}}, {"uniqueid": "MTK0723:3CN4LGXD5YVICNZY07XF0Q42VBTY43", "current_trial": 149, "dateTime": 1512674742130, "trialdata": {"rt": -1000, "stimulus": "/static/audio/wordpool/COCKTAIL.wav", "key_press": -1, "type": "PRES_AUD", "word": "cocktail", "wordID": 337, "conditions": [24, 800, "a", 12000], "trial": 3, "serialpos": 20, "trial_type": "single-audio", "trial_index": 149, "time_elapsed": 680924, "internal_node_id": "0.0-113.0"}}, {"uniqueid": "MTK0723:3CN4LGXD5YVICNZY07XF0Q42VBTY43", "current_trial": 150, "dateTime": 1512674744053, "trialdata": {"rt": -1000, "stimulus": "/static/audio/wordpool/SUSPECT.wav", "key_press": -1, "type": "PRES_AUD", "word": "suspect", "wordID": 1414, "conditions": [24, 800, "a", 12000], "trial": 3, "serialpos": 21, "trial_type": "single-audio", "trial_index": 150, "time_elapsed": 682847, "internal_node_id": "0.0-114.0"}}, {"uniqueid": "MTK0723:3CN4LGXD5YVICNZY07XF0Q42VBTY43", "current_trial": 151, "dateTime": 1512674745818, "trialdata": {"rt": -1000, "stimulus": "/static/audio/wordpool/COLLEGE.wav", "key_press": -1, "type": "PRES_AUD", "word": "college", "wordID": 345, "conditions": [24, 800, "a", 12000], "trial": 3, "serialpos": 22, "trial_type": "single-audio", "trial_index": 151, "time_elapsed": 684612, "internal_node_id": "0.0-115.0"}}, {"uniqueid": "MTK0723:3CN4LGXD5YVICNZY07XF0Q42VBTY43", "current_trial": 152, "dateTime": 1512674747659, "trialdata": {"rt": -1000, "stimulus": "/static/audio/wordpool/COMET.wav", "key_press": -1, "type": "PRES_AUD", "word": "comet", "wordID": 352, "conditions": [24, 800, "a", 12000], "trial": 3, "serialpos": 23, "trial_type": "single-audio", "trial_index": 152, "time_elapsed": 686453, "internal_node_id": "0.0-116.0"}}, {"uniqueid": "MTK0723:3CN4LGXD5YVICNZY07XF0Q42VBTY43", "current_trial": 153, "dateTime": 1512674748869, "trialdata": {"rt": -1, "stimulus": "", "key_press": -1, "type": "PRE_RECALL_DELAY", "trial_type": "single-stim", "trial_index": 153, "time_elapsed": 687663, "internal_node_id": "0.0-117.0-0.0"}}, {"uniqueid": "MTK0723:3CN4LGXD5YVICNZY07XF0Q42VBTY43", "current_trial": 154, "dateTime": 1512674749370, "trialdata": {"rt": -1000, "stimulus": "/static/audio/400Hz.wav", "key_press": -1, "type": "PRE_RECALL_ALERT", "trial_type": "single-audio", "trial_index": 154, "time_elapsed": 688164, "internal_node_id": "0.0-118.0"}}, {"uniqueid": "MTK0723:3CN4LGXD5YVICNZY07XF0Q42VBTY43", "current_trial": 155, "dateTime": 1512674809379, "trialdata": {"rt": [1773, 4173, 6317, 9037, 10701, 12557, 14573, 19069, 22557, 53997, 56669], "recwords": ["comet", "college", "japan", "cocktail", "waiter", "diner", "suspect", "radish", "turnip", "ulcer", "chemist"], "type": "FREE_RECALL", "conditions": [24, 800, "a", 12000], "trial": 3, "trial_type": "free-recall", "trial_index": 155, "time_elapsed": 748167, "internal_node_id": "0.0-119.0-0.0"}}, {"uniqueid": "MTK0723:3CN4LGXD5YVICNZY07XF0Q42VBTY43", "current_trial": 156, "dateTime": 1512674814521, "trialdata": {"rt": 3140, "key_press": 32, "type": "INSTRUCTIONS", "trial_type": "text", "trial_index": 156, "time_elapsed": 753314, "internal_node_id": "0.0-120.0"}}, {"uniqueid": "MTK0723:3CN4LGXD5YVICNZY07XF0Q42VBTY43", "current_trial": 157, "dateTime": 1512674840524, "trialdata": {"rt": [2222, 4398, 7229, 9006, 11150, 12798, 14718, 16942, 18990, 20958, 23422], "responses": ["16", "17", "11", "7", "25", "9", "16", "14", "14", "17", "26"], "num1": [8, 5, 5, 4, 9, 1, 9, 2, 1, 2, 8, 3], "num2": [1, 8, 2, 1, 7, 1, 1, 5, 5, 8, 9, 5], "num3": [7, 4, 4, 2, 9, 7, 6, 7, 8, 7, 9, 1], "type": "DISTRACTOR", "conditions": [12, 800, "a", 24000], "trial": 4, "trial_type": "math-distractor", "trial_index": 157, "time_elapsed": 779318, "internal_node_id": "0.0-121.0"}}, {"uniqueid": "MTK0723:3CN4LGXD5YVICNZY07XF0Q42VBTY43", "current_trial": 158, "dateTime": 1512674843525, "trialdata": {"rt": -1, "stimulus": "<p id=\"stim\">10</p>", "key_press": -1, "trial_type": "single-stim", "trial_index": 158, "time_elapsed": 782319, "internal_node_id": "0.0-122.0-0.0"}}, {"uniqueid": "MTK0723:3CN4LGXD5YVICNZY07XF0Q42VBTY43", "current_trial": 159, "dateTime": 1512674844526, "trialdata": {"rt": -1, "stimulus": "<p id=\"stim\">9</p>", "key_press": -1, "trial_type": "single-stim", "trial_index": 159, "time_elapsed": 783320, "internal_node_id": "0.0-122.0-1.0"}}, {"uniqueid": "MTK0723:3CN4LGXD5YVICNZY07XF0Q42VBTY43", "current_trial": 160, "dateTime": 1512674845527, "trialdata": {"rt": -1, "stimulus": "<p id=\"stim\">8</p>", "key_press": -1, "trial_type": "single-stim", "trial_index": 160, "time_elapsed": 784321, "internal_node_id": "0.0-122.0-2.0"}}, {"uniqueid": "MTK0723:3CN4LGXD5YVICNZY07XF0Q42VBTY43", "current_trial": 161, "dateTime": 1512674846528, "trialdata": {"rt": -1, "stimulus": "<p id=\"stim\">7</p>", "key_press": -1, "trial_type": "single-stim", "trial_index": 161, "time_elapsed": 785322, "internal_node_id": "0.0-122.0-3.0"}}, {"uniqueid": "MTK0723:3CN4LGXD5YVICNZY07XF0Q42VBTY43", "current_trial": 162, "dateTime": 1512674847529, "trialdata": {"rt": -1, "stimulus": "<p id=\"stim\">6</p>", "key_press": -1, "trial_type": "single-stim", "trial_index": 162, "time_elapsed": 786323, "internal_node_id": "0.0-122.0-4.0"}}, {"uniqueid": "MTK0723:3CN4LGXD5YVICNZY07XF0Q42VBTY43", "current_trial": 163, "dateTime": 1512674848530, "trialdata": {"rt": -1, "stimulus": "<p id=\"stim\">5</p>", "key_press": -1, "trial_type": "single-stim", "trial_index": 163, "time_elapsed": 787324, "internal_node_id": "0.0-122.0-5.0"}}, {"uniqueid": "MTK0723:3CN4LGXD5YVICNZY07XF0Q42VBTY43", "current_trial": 164, "dateTime": 1512674849531, "trialdata": {"rt": -1, "stimulus": "<p id=\"stim\">4</p>", "key_press": -1, "trial_type": "single-stim", "trial_index": 164, "time_elapsed": 788325, "internal_node_id": "0.0-122.0-6.0"}}, {"uniqueid": "MTK0723:3CN4LGXD5YVICNZY07XF0Q42VBTY43", "current_trial": 165, "dateTime": 1512674850532, "trialdata": {"rt": -1, "stimulus": "<p id=\"stim\">3</p>", "key_press": -1, "trial_type": "single-stim", "trial_index": 165, "time_elapsed": 789326, "internal_node_id": "0.0-122.0-7.0"}}, {"uniqueid": "MTK0723:3CN4LGXD5YVICNZY07XF0Q42VBTY43", "current_trial": 166, "dateTime": 1512674851533, "trialdata": {"rt": -1, "stimulus": "<p id=\"stim\">2</p>", "key_press": -1, "trial_type": "single-stim", "trial_index": 166, "time_elapsed": 790327, "internal_node_id": "0.0-122.0-8.0"}}, {"uniqueid": "MTK0723:3CN4LGXD5YVICNZY07XF0Q42VBTY43", "current_trial": 167, "dateTime": 1512674852534, "trialdata": {"rt": -1, "stimulus": "<p id=\"stim\">1</p>", "key_press": -1, "trial_type": "single-stim", "trial_index": 167, "time_elapsed": 791328, "internal_node_id": "0.0-122.0-9.0"}}, {"uniqueid": "MTK0723:3CN4LGXD5YVICNZY07XF0Q42VBTY43", "current_trial": 168, "dateTime": 1512674854035, "trialdata": {"rt": -1, "stimulus": "<p id=\"stim\">+</p>", "key_press": -1, "type": "FIXATION", "trial_type": "single-stim", "trial_index": 168, "time_elapsed": 792829, "internal_node_id": "0.0-123.0-0.0"}}, {"uniqueid": "MTK0723:3CN4LGXD5YVICNZY07XF0Q42VBTY43", "current_trial": 169, "dateTime": 1512674855886, "trialdata": {"rt": -1000, "stimulus": "/static/audio/wordpool/SHOULDER.wav", "key_press": -1, "type": "PRES_AUD", "word": "shoulder", "wordID": 1293, "conditions": [12, 800, "a", 24000], "trial": 4, "serialpos": 0, "trial_type": "single-audio", "trial_index": 169, "time_elapsed": 794680, "internal_node_id": "0.0-124.0"}}, {"uniqueid": "MTK0723:3CN4LGXD5YVICNZY07XF0Q42VBTY43", "current_trial": 170, "dateTime": 1512674857876, "trialdata": {"rt": -1000, "stimulus": "/static/audio/wordpool/SHOVEL.wav", "key_press": -1, "type": "PRES_AUD", "word": "shovel", "wordID": 1294, "conditions": [12, 800, "a", 24000], "trial": 4, "serialpos": 1, "trial_type": "single-audio", "trial_index": 170, "time_elapsed": 796669, "internal_node_id": "0.0-125.0"}}, {"uniqueid": "MTK0723:3CN4LGXD5YVICNZY07XF0Q42VBTY43", "current_trial": 171, "dateTime": 1512674859837, "trialdata": {"rt": -1000, "stimulus": "/static/audio/wordpool/APRON.wav", "key_press": -1, "type": "PRES_AUD", "word": "apron", "wordID": 34, "conditions": [12, 800, "a", 24000], "trial": 4, "serialpos": 2, "trial_type": "single-audio", "trial_index": 171, "time_elapsed": 798631, "internal_node_id": "0.0-126.0"}}, {"uniqueid": "MTK0723:3CN4LGXD5YVICNZY07XF0Q42VBTY43", "current_trial": 172, "dateTime": 1512674861512, "trialdata": {"rt": -1000, "stimulus": "/static/audio/wordpool/WAITRESS.wav", "key_press": -1, "type": "PRES_AUD", "word": "waitress", "wordID": 1580, "conditions": [12, 800, "a", 24000], "trial": 4, "serialpos": 3, "trial_type": "single-audio", "trial_index": 172, "time_elapsed": 800306, "internal_node_id": "0.0-127.0"}}, {"uniqueid": "MTK0723:3CN4LGXD5YVICNZY07XF0Q42VBTY43", "current_trial": 173, "dateTime": 1512674863234, "trialdata": {"rt": -1000, "stimulus": "/static/audio/wordpool/CRIB.wav", "key_press": -1, "type": "PRES_AUD", "word": "crib", "wordID": 406, "conditions": [12, 800, "a", 24000], "trial": 4, "serialpos": 4, "trial_type": "single-audio", "trial_index": 173, "time_elapsed": 802028, "internal_node_id": "0.0-128.0"}}, {"uniqueid": "MTK0723:3CN4LGXD5YVICNZY07XF0Q42VBTY43", "current_trial": 174, "dateTime": 1512674865212, "trialdata": {"rt": -1000, "stimulus": "/static/audio/wordpool/POWDER.wav", "key_press": -1, "type": "PRES_AUD", "word": "powder", "wordID": 1116, "conditions": [12, 800, "a", 24000], "trial": 4, "serialpos": 5, "trial_type": "single-audio", "trial_index": 174, "time_elapsed": 804006, "internal_node_id": "0.0-129.0"}}, {"uniqueid": "MTK0723:3CN4LGXD5YVICNZY07XF0Q42VBTY43", "current_trial": 175, "dateTime": 1512674866891, "trialdata": {"rt": -1000, "stimulus": "/static/audio/wordpool/SLUG.wav", "key_press": -1, "type": "PRES_AUD", "word": "slug", "wordID": 1328, "conditions": [12, 800, "a", 24000], "trial": 4, "serialpos": 6, "trial_type": "single-audio", "trial_index": 175, "time_elapsed": 805684, "internal_node_id": "0.0-130.0"}}, {"uniqueid": "MTK0723:3CN4LGXD5YVICNZY07XF0Q42VBTY43", "current_trial": 176, "dateTime": 1512674868505, "trialdata": {"rt": -1000, "stimulus": "/static/audio/wordpool/ANKLE.wav", "key_press": -1, "type": "PRES_AUD", "word": "ankle", "wordID": 23, "conditions": [12, 800, "a", 24000], "trial": 4, "serialpos": 7, "trial_type": "single-audio", "trial_index": 176, "time_elapsed": 807299, "internal_node_id": "0.0-131.0"}}, {"uniqueid": "MTK0723:3CN4LGXD5YVICNZY07XF0Q42VBTY43", "current_trial": 177, "dateTime": 1512674870398, "trialdata": {"rt": -1000, "stimulus": "/static/audio/wordpool/BANJO.wav", "key_press": -1, "type": "PRES_AUD", "word": "banjo", "wordID": 81, "conditions": [12, 800, "a", 24000], "trial": 4, "serialpos": 8, "trial_type": "single-audio", "trial_index": 177, "time_elapsed": 809192, "internal_node_id": "0.0-132.0"}}, {"uniqueid": "MTK0723:3CN4LGXD5YVICNZY07XF0Q42VBTY43", "current_trial": 178, "dateTime": 1512674872301, "trialdata": {"rt": -1000, "stimulus": "/static/audio/wordpool/PORK.wav", "key_press": -1, "type": "PRES_AUD", "word": "pork", "wordID": 1107, "conditions": [12, 800, "a", 24000], "trial": 4, "serialpos": 9, "trial_type": "single-audio", "trial_index": 178, "time_elapsed": 811095, "internal_node_id": "0.0-133.0"}}, {"uniqueid": "MTK0723:3CN4LGXD5YVICNZY07XF0Q42VBTY43", "current_trial": 179, "dateTime": 1512674874286, "trialdata": {"rt": -1000, "stimulus": "/static/audio/wordpool/DAISY.wav", "key_press": -1, "type": "PRES_AUD", "word": "daisy", "wordID": 434, "conditions": [12, 800, "a", 24000], "trial": 4, "serialpos": 10, "trial_type": "single-audio", "trial_index": 179, "time_elapsed": 813080, "internal_node_id": "0.0-134.0"}}, {"uniqueid": "MTK0723:3CN4LGXD5YVICNZY07XF0Q42VBTY43", "current_trial": 180, "dateTime": 1512674876235, "trialdata": {"rt": -1000, "stimulus": "/static/audio/wordpool/FLOWER.wav", "key_press": -1, "type": "PRES_AUD", "word": "flower", "wordID": 583, "conditions": [12, 800, "a", 24000], "trial": 4, "serialpos": 11, "trial_type": "single-audio", "trial_index": 180, "time_elapsed": 815029, "internal_node_id": "0.0-135.0"}}, {"uniqueid": "MTK0723:3CN4LGXD5YVICNZY07XF0Q42VBTY43", "current_trial": 181, "dateTime": 1512674877511, "trialdata": {"rt": -1, "stimulus": "", "key_press": -1, "type": "PRE_RECALL_DELAY", "trial_type": "single-stim", "trial_index": 181, "time_elapsed": 816305, "internal_node_id": "0.0-136.0-0.0"}}, {"uniqueid": "MTK0723:3CN4LGXD5YVICNZY07XF0Q42VBTY43", "current_trial": 182, "dateTime": 1512674878012, "trialdata": {"rt": -1000, "stimulus": "/static/audio/400Hz.wav", "key_press": -1, "type": "PRE_RECALL_ALERT", "trial_type": "single-audio", "trial_index": 182, "time_elapsed": 816806, "internal_node_id": "0.0-137.0"}}, {"uniqueid": "MTK0723:3CN4LGXD5YVICNZY07XF0Q42VBTY43", "current_trial": 183, "dateTime": 1512674938018, "trialdata": {"rt": [2364, 5804, 7612, 10636, 12604, 15084, 18412, 53676], "recwords": ["pork", "daisy", "flower", "waitress", "lug", "shoulder", "shovel", "flower"], "type": "FREE_RECALL", "conditions": [12, 800, "a", 24000], "trial": 4, "trial_type": "free-recall", "trial_index": 183, "time_elapsed": 876808, "internal_node_id": "0.0-138.0-0.0"}}, {"uniqueid": "MTK0723:3CN4LGXD5YVICNZY07XF0Q42VBTY43", "current_trial": 184, "dateTime": 1512674941977, "trialdata": {"rt": 1957, "key_press": 13, "type": "INSTRUCTIONS", "trial_type": "text", "trial_index": 184, "time_elapsed": 880770, "internal_node_id": "0.0-139.0"}}, {"uniqueid": "MTK0723:3CN4LGXD5YVICNZY07XF0Q42VBTY43", "current_trial": 185, "dateTime": 1512674967979, "trialdata": {"rt": [2767, 5744, 7663, 9183, 11231, 14943, 17615, 19870, 22047, 23839], "responses": ["12", "18", "12", "11", "23", "19", "16", "14", "14", "7"], "num1": [8, 4, 4, 1, 7, 8, 9, 5, 8, 1, 1], "num2": [3, 8, 2, 1, 8, 5, 3, 8, 4, 2, 4], "num3": [1, 6, 6, 9, 8, 6, 4, 1, 2, 4, 6], "type": "DISTRACTOR", "conditions": [24, 800, "v", 24000], "trial": 5, "trial_type": "math-distractor", "trial_index": 185, "time_elapsed": 906773, "internal_node_id": "0.0-140.0"}}, {"uniqueid": "MTK0723:3CN4LGXD5YVICNZY07XF0Q42VBTY43", "current_trial": 186, "dateTime": 1512674970980, "trialdata": {"rt": -1, "stimulus": "<p id=\"stim\">10</p>", "key_press": -1, "trial_type": "single-stim", "trial_index": 186, "time_elapsed": 909774, "internal_node_id": "0.0-141.0-0.0"}}, {"uniqueid": "MTK0723:3CN4LGXD5YVICNZY07XF0Q42VBTY43", "current_trial": 187, "dateTime": 1512674971981, "trialdata": {"rt": -1, "stimulus": "<p id=\"stim\">9</p>", "key_press": -1, "trial_type": "single-stim", "trial_index": 187, "time_elapsed": 910775, "internal_node_id": "0.0-141.0-1.0"}}, {"uniqueid": "MTK0723:3CN4LGXD5YVICNZY07XF0Q42VBTY43", "current_trial": 188, "dateTime": 1512674972982, "trialdata": {"rt": -1, "stimulus": "<p id=\"stim\">8</p>", "key_press": -1, "trial_type": "single-stim", "trial_index": 188, "time_elapsed": 911776, "internal_node_id": "0.0-141.0-2.0"}}, {"uniqueid": "MTK0723:3CN4LGXD5YVICNZY07XF0Q42VBTY43", "current_trial": 189, "dateTime": 1512674973983, "trialdata": {"rt": -1, "stimulus": "<p id=\"stim\">7</p>", "key_press": -1, "trial_type": "single-stim", "trial_index": 189, "time_elapsed": 912777, "internal_node_id": "0.0-141.0-3.0"}}, {"uniqueid": "MTK0723:3CN4LGXD5YVICNZY07XF0Q42VBTY43", "current_trial": 190, "dateTime": 1512674974984, "trialdata": {"rt": -1, "stimulus": "<p id=\"stim\">6</p>", "key_press": -1, "trial_type": "single-stim", "trial_index": 190, "time_elapsed": 913778, "internal_node_id": "0.0-141.0-4.0"}}, {"uniqueid": "MTK0723:3CN4LGXD5YVICNZY07XF0Q42VBTY43", "current_trial": 191, "dateTime": 1512674975985, "trialdata": {"rt": -1, "stimulus": "<p id=\"stim\">5</p>", "key_press": -1, "trial_type": "single-stim", "trial_index": 191, "time_elapsed": 914779, "internal_node_id": "0.0-141.0-5.0"}}, {"uniqueid": "MTK0723:3CN4LGXD5YVICNZY07XF0Q42VBTY43", "current_trial": 192, "dateTime": 1512674976986, "trialdata": {"rt": -1, "stimulus": "<p id=\"stim\">4</p>", "key_press": -1, "trial_type": "single-stim", "trial_index": 192, "time_elapsed": 915780, "internal_node_id": "0.0-141.0-6.0"}}, {"uniqueid": "MTK0723:3CN4LGXD5YVICNZY07XF0Q42VBTY43", "current_trial": 193, "dateTime": 1512674977987, "trialdata": {"rt": -1, "stimulus": "<p id=\"stim\">3</p>", "key_press": -1, "trial_type": "single-stim", "trial_index": 193, "time_elapsed": 916781, "internal_node_id": "0.0-141.0-7.0"}}, {"uniqueid": "MTK0723:3CN4LGXD5YVICNZY07XF0Q42VBTY43", "current_trial": 194, "dateTime": 1512674978988, "trialdata": {"rt": -1, "stimulus": "<p id=\"stim\">2</p>", "key_press": -1, "trial_type": "single-stim", "trial_index": 194, "time_elapsed": 917782, "internal_node_id": "0.0-141.0-8.0"}}, {"uniqueid": "MTK0723:3CN4LGXD5YVICNZY07XF0Q42VBTY43", "current_trial": 195, "dateTime": 1512674979989, "trialdata": {"rt": -1, "stimulus": "<p id=\"stim\">1</p>", "key_press": -1, "trial_type": "single-stim", "trial_index": 195, "time_elapsed": 918783, "internal_node_id": "0.0-141.0-9.0"}}, {"uniqueid": "MTK0723:3CN4LGXD5YVICNZY07XF0Q42VBTY43", "current_trial": 196, "dateTime": 1512674981490, "trialdata": {"rt": -1, "stimulus": "<p id=\"stim\">+</p>", "key_press": -1, "type": "FIXATION", "trial_type": "single-stim", "trial_index": 196, "time_elapsed": 920284, "internal_node_id": "0.0-142.0-0.0"}}, {"uniqueid": "MTK0723:3CN4LGXD5YVICNZY07XF0Q42VBTY43", "current_trial": 197, "dateTime": 1512674982291, "trialdata": {"rt": -1, "stimulus": "<p id=\"stim\">PISTOL</p>", "key_press": -1, "type": "PRES_VIS", "word": "pistol", "wordID": 1074, "conditions": [24, 800, "v", 24000], "trial": 5, "serialpos": 0, "trial_type": "single-stim", "trial_index": 197, "time_elapsed": 921085, "internal_node_id": "0.0-143.0"}}, {"uniqueid": "MTK0723:3CN4LGXD5YVICNZY07XF0Q42VBTY43", "current_trial": 198, "dateTime": 1512674983998, "trialdata": {"rt": -1, "stimulus": "<p id=\"stim\">NOTEBOOK</p>", "key_press": -1, "type": "PRES_VIS", "word": "notebook", "wordID": 958, "conditions": [24, 800, "v", 24000], "trial": 5, "serialpos": 1, "trial_type": "single-stim", "trial_index": 198, "time_elapsed": 922792, "internal_node_id": "0.0-144.0"}}, {"uniqueid": "MTK0723:3CN4LGXD5YVICNZY07XF0Q42VBTY43", "current_trial": 199, "dateTime": 1512674985965, "trialdata": {"rt": -1, "stimulus": "<p id=\"stim\">TRUCK</p>", "key_press": -1, "type": "PRES_VIS", "word": "truck", "wordID": 1511, "conditions": [24, 800, "v", 24000], "trial": 5, "serialpos": 2, "trial_type": "single-stim", "trial_index": 199, "time_elapsed": 924758, "internal_node_id": "0.0-145.0"}}, {"uniqueid": "MTK0723:3CN4LGXD5YVICNZY07XF0Q42VBTY43", "current_trial": 200, "dateTime": 1512674987693, "trialdata": {"rt": -1, "stimulus": "<p id=\"stim\">LEOPARD</p>", "key_press": -1, "type": "PRES_VIS", "word": "leopard", "wordID": 811, "conditions": [24, 800, "v", 24000], "trial": 5, "serialpos": 3, "trial_type": "single-stim", "trial_index": 200, "time_elapsed": 926487, "internal_node_id": "0.0-146.0"}}, {"uniqueid": "MTK0723:3CN4LGXD5YVICNZY07XF0Q42VBTY43", "current_trial": 201, "dateTime": 1512674989465, "trialdata": {"rt": -1, "stimulus": "<p id=\"stim\">TURKEY</p>", "key_press": -1, "type": "PRES_VIS", "word": "turkey", "wordID": 1519, "conditions": [24, 800, "v", 24000], "trial": 5, "serialpos": 4, "trial_type": "single-stim", "trial_index": 201, "time_elapsed": 928259, "internal_node_id": "0.0-147.0"}}, {"uniqueid": "MTK0723:3CN4LGXD5YVICNZY07XF0Q42VBTY43", "current_trial": 202, "dateTime": 1512674991141, "trialdata": {"rt": -1, "stimulus": "<p id=\"stim\">CLIMBER</p>", "key_press": -1, "type": "PRES_VIS", "word": "climber", "wordID": 322, "conditions": [24, 800, "v", 24000], "trial": 5, "serialpos": 5, "trial_type": "single-stim", "trial_index": 202, "time_elapsed": 929935, "internal_node_id": "0.0-148.0"}}, {"uniqueid": "MTK0723:3CN4LGXD5YVICNZY07XF0Q42VBTY43", "current_trial": 203, "dateTime": 1512674992956, "trialdata": {"rt": -1, "stimulus": "<p id=\"stim\">HIKER</p>", "key_press": -1, "type": "PRES_VIS", "word": "hiker", "wordID": 707, "conditions": [24, 800, "v", 24000], "trial": 5, "serialpos": 6, "trial_type": "single-stim", "trial_index": 203, "time_elapsed": 931750, "internal_node_id": "0.0-149.0"}}, {"uniqueid": "MTK0723:3CN4LGXD5YVICNZY07XF0Q42VBTY43", "current_trial": 204, "dateTime": 1512674994890, "trialdata": {"rt": -1, "stimulus": "<p id=\"stim\">TRACTOR</p>", "key_press": -1, "type": "PRES_VIS", "word": "tractor", "wordID": 1492, "conditions": [24, 800, "v", 24000], "trial": 5, "serialpos": 7, "trial_type": "single-stim", "trial_index": 204, "time_elapsed": 933684, "internal_node_id": "0.0-150.0"}}, {"uniqueid": "MTK0723:3CN4LGXD5YVICNZY07XF0Q42VBTY43", "current_trial": 205, "dateTime": 1512674996851, "trialdata": {"rt": -1, "stimulus": "<p id=\"stim\">IGLOO</p>", "key_press": -1, "type": "PRES_VIS", "word": "igloo", "wordID": 733, "conditions": [24, 800, "v", 24000], "trial": 5, "serialpos": 8, "trial_type": "single-stim", "trial_index": 205, "time_elapsed": 935645, "internal_node_id": "0.0-151.0"}}, {"uniqueid": "MTK0723:3CN4LGXD5YVICNZY07XF0Q42VBTY43", "current_trial": 206, "dateTime": 1512674998582, "trialdata": {"rt": -1, "stimulus": "<p id=\"stim\">RATTLE</p>", "key_press": -1, "type": "PRES_VIS", "word": "rattle", "wordID": 1169, "conditions": [24, 800, "v", 24000], "trial": 5, "serialpos": 9, "trial_type": "single-stim", "trial_index": 206, "time_elapsed": 937376, "internal_node_id": "0.0-152.0"}}, {"uniqueid": "MTK0723:3CN4LGXD5YVICNZY07XF0Q42VBTY43", "current_trial": 207, "dateTime": 1512675000338, "trialdata": {"rt": -1, "stimulus": "<p id=\"stim\">BRACES</p>", "key_press": -1, "type": "PRES_VIS", "word": "braces", "wordID": 163, "conditions": [24, 800, "v", 24000], "trial": 5, "serialpos": 10, "trial_type": "single-stim", "trial_index": 207, "time_elapsed": 939131, "internal_node_id": "0.0-153.0"}}, {"uniqueid": "MTK0723:3CN4LGXD5YVICNZY07XF0Q42VBTY43", "current_trial": 208, "dateTime": 1512675001956, "trialdata": {"rt": -1, "stimulus": "<p id=\"stim\">CRATER</p>", "key_press": -1, "type": "PRES_VIS", "word": "crater", "wordID": 399, "conditions": [24, 800, "v", 24000], "trial": 5, "serialpos": 11, "trial_type": "single-stim", "trial_index": 208, "time_elapsed": 940750, "internal_node_id": "0.0-154.0"}}, {"uniqueid": "MTK0723:3CN4LGXD5YVICNZY07XF0Q42VBTY43", "current_trial": 209, "dateTime": 1512675003809, "trialdata": {"rt": -1, "stimulus": "<p id=\"stim\">PANTHER</p>", "key_press": -1, "type": "PRES_VIS", "word": "panther", "wordID": 1008, "conditions": [24, 800, "v", 24000], "trial": 5, "serialpos": 12, "trial_type": "single-stim", "trial_index": 209, "time_elapsed": 942603, "internal_node_id": "0.0-155.0"}}, {"uniqueid": "MTK0723:3CN4LGXD5YVICNZY07XF0Q42VBTY43", "current_trial": 210, "dateTime": 1512675005597, "trialdata": {"rt": -1, "stimulus": "<p id=\"stim\">REPORT</p>", "key_press": -1, "type": "PRES_VIS", "word": "report", "wordID": 1183, "conditions": [24, 800, "v", 24000], "trial": 5, "serialpos": 13, "trial_type": "single-stim", "trial_index": 210, "time_elapsed": 944391, "internal_node_id": "0.0-156.0"}}, {"uniqueid": "MTK0723:3CN4LGXD5YVICNZY07XF0Q42VBTY43", "current_trial": 211, "dateTime": 1512675007450, "trialdata": {"rt": -1, "stimulus": "<p id=\"stim\">SURVEY</p>", "key_press": -1, "type": "PRES_VIS", "word": "survey", "wordID": 1413, "conditions": [24, 800, "v", 24000], "trial": 5, "serialpos": 14, "trial_type": "single-stim", "trial_index": 211, "time_elapsed": 946243, "internal_node_id": "0.0-157.0"}}, {"uniqueid": "MTK0723:3CN4LGXD5YVICNZY07XF0Q42VBTY43", "current_trial": 212, "dateTime": 1512675009341, "trialdata": {"rt": -1, "stimulus": "<p id=\"stim\">PLASTER</p>", "key_press": -1, "type": "PRES_VIS", "word": "plaster", "wordID": 1084, "conditions": [24, 800, "v", 24000], "trial": 5, "serialpos": 15, "trial_type": "single-stim", "trial_index": 212, "time_elapsed": 948135, "internal_node_id": "0.0-158.0"}}, {"uniqueid": "MTK0723:3CN4LGXD5YVICNZY07XF0Q42VBTY43", "current_trial": 213, "dateTime": 1512675011263, "trialdata": {"rt": -1, "stimulus": "<p id=\"stim\">LIZARD</p>", "key_press": -1, "type": "PRES_VIS", "word": "lizard", "wordID": 833, "conditions": [24, 800, "v", 24000], "trial": 5, "serialpos": 16, "trial_type": "single-stim", "trial_index": 213, "time_elapsed": 950057, "internal_node_id": "0.0-159.0"}}, {"uniqueid": "MTK0723:3CN4LGXD5YVICNZY07XF0Q42VBTY43", "current_trial": 214, "dateTime": 1512675013017, "trialdata": {"rt": -1, "stimulus": "<p id=\"stim\">SCISSORS</p>", "key_press": -1, "type": "PRES_VIS", "word": "scissors", "wordID": 1249, "conditions": [24, 800, "v", 24000], "trial": 5, "serialpos": 17, "trial_type": "single-stim", "trial_index": 214, "time_elapsed": 951811, "internal_node_id": "0.0-160.0"}}, {"uniqueid": "MTK0723:3CN4LGXD5YVICNZY07XF0Q42VBTY43", "current_trial": 215, "dateTime": 1512675014848, "trialdata": {"rt": -1, "stimulus": "<p id=\"stim\">DUST</p>", "key_press": -1, "type": "PRES_VIS", "word": "dust", "wordID": 507, "conditions": [24, 800, "v", 24000], "trial": 5, "serialpos": 18, "trial_type": "single-stim", "trial_index": 215, "time_elapsed": 953642, "internal_node_id": "0.0-161.0"}}, {"uniqueid": "MTK0723:3CN4LGXD5YVICNZY07XF0Q42VBTY43", "current_trial": 216, "dateTime": 1512675016492, "trialdata": {"rt": -1, "stimulus": "<p id=\"stim\">GARBAGE</p>", "key_press": -1, "type": "PRES_VIS", "word": "garbage", "wordID": 621, "conditions": [24, 800, "v", 24000], "trial": 5, "serialpos": 19, "trial_type": "single-stim", "trial_index": 216, "time_elapsed": 955285, "internal_node_id": "0.0-162.0"}}, {"uniqueid": "MTK0723:3CN4LGXD5YVICNZY07XF0Q42VBTY43", "current_trial": 217, "dateTime": 1512675018453, "trialdata": {"rt": -1, "stimulus": "<p id=\"stim\">FRUIT</p>", "key_press": -1, "type": "PRES_VIS", "word": "fruit", "wordID": 609, "conditions": [24, 800, "v", 24000], "trial": 5, "serialpos": 20, "trial_type": "single-stim", "trial_index": 217, "time_elapsed": 957247, "internal_node_id": "0.0-163.0"}}, {"uniqueid": "MTK0723:3CN4LGXD5YVICNZY07XF0Q42VBTY43", "current_trial": 218, "dateTime": 1512675020361, "trialdata": {"rt": -1, "stimulus": "<p id=\"stim\">VAGRANT</p>", "key_press": -1, "type": "PRES_VIS", "word": "vagrant", "wordID": 1543, "conditions": [24, 800, "v", 24000], "trial": 5, "serialpos": 21, "trial_type": "single-stim", "trial_index": 218, "time_elapsed": 959155, "internal_node_id": "0.0-164.0"}}, {"uniqueid": "MTK0723:3CN4LGXD5YVICNZY07XF0Q42VBTY43", "current_trial": 219, "dateTime": 1512675022032, "trialdata": {"rt": -1, "stimulus": "<p id=\"stim\">DIVER</p>", "key_press": -1, "type": "PRES_VIS", "word": "diver", "wordID": 475, "conditions": [24, 800, "v", 24000], "trial": 5, "serialpos": 22, "trial_type": "single-stim", "trial_index": 219, "time_elapsed": 960826, "internal_node_id": "0.0-165.0"}}, {"uniqueid": "MTK0723:3CN4LGXD5YVICNZY07XF0Q42VBTY43", "current_trial": 220, "dateTime": 1512675023679, "trialdata": {"rt": -1, "stimulus": "<p id=\"stim\">BUGGY</p>", "key_press": -1, "type": "PRES_VIS", "word": "buggy", "wordID": 187, "conditions": [24, 800, "v", 24000], "trial": 5, "serialpos": 23, "trial_type": "single-stim", "trial_index": 220, "time_elapsed": 962472, "internal_node_id": "0.0-166.0"}}, {"uniqueid": "MTK0723:3CN4LGXD5YVICNZY07XF0Q42VBTY43", "current_trial": 221, "dateTime": 1512675026123, "trialdata": {"rt": -1, "stimulus": "", "key_press": -1, "type": "PRE_RECALL_DELAY", "trial_type": "single-stim", "trial_index": 221, "time_elapsed": 964916, "internal_node_id": "0.0-167.0-0.0"}}, {"uniqueid": "MTK0723:3CN4LGXD5YVICNZY07XF0Q42VBTY43", "current_trial": 222, "dateTime": 1512675026624, "trialdata": {"rt": -1000, "stimulus": "/static/audio/400Hz.wav", "key_press": -1, "type": "PRE_RECALL_ALERT", "trial_type": "single-audio", "trial_index": 222, "time_elapsed": 965418, "internal_node_id": "0.0-168.0"}}, {"uniqueid": "MTK0723:3CN4LGXD5YVICNZY07XF0Q42VBTY43", "current_trial": 223, "dateTime": 1512675086629, "trialdata": {"rt": [2488, 4759, 7846, 10439, 14711, 18808, 32759, 36263, 53687], "recwords": ["buggy", "diver", "climber", "hiker", "scissors", "vagrant", "truck", "tractor", "pistol"], "type": "FREE_RECALL", "conditions": [24, 800, "v", 24000], "trial": 5, "trial_type": "free-recall", "trial_index": 223, "time_elapsed": 1025421, "internal_node_id": "0.0-169.0-0.0"}}, {"uniqueid": "MTK0723:3CN4LGXD5YVICNZY07XF0Q42VBTY43", "current_trial": 224, "dateTime": 1512675090617, "trialdata": {"rt": 1986, "key_press": 13, "type": "INSTRUCTIONS", "trial_type": "text", "trial_index": 224, "time_elapsed": 1029411, "internal_node_id": "0.0-170.0"}}, {"uniqueid": "MTK0723:3CN4LGXD5YVICNZY07XF0Q42VBTY43", "current_trial": 225, "dateTime": 1512675116619, "trialdata": {"rt": [2320, 4479, 8207, 9839, 12095, 14191, 15951, 18351, 20751, 22751], "responses": ["15", "22", "24", "12", "12", "9", "18", "20", "19", "9"], "num1": [3, 9, 8, 5, 4, 1, 3, 7, 3, 1, 1], "num2": [8, 4, 9, 5, 6, 3, 7, 5, 8, 5, 7], "num3": [4, 9, 7, 2, 2, 5, 8, 8, 8, 3, 8], "type": "DISTRACTOR", "conditions": [12, 800, "v", 24000], "trial": 6, "trial_type": "math-distractor", "trial_index": 225, "time_elapsed": 1055413, "internal_node_id": "0.0-171.0"}}, {"uniqueid": "MTK0723:3CN4LGXD5YVICNZY07XF0Q42VBTY43", "current_trial": 226, "dateTime": 1512675119621, "trialdata": {"rt": -1, "stimulus": "<p id=\"stim\">10</p>", "key_press": -1, "trial_type": "single-stim", "trial_index": 226, "time_elapsed": 1058415, "internal_node_id": "0.0-172.0-0.0"}}, {"uniqueid": "MTK0723:3CN4LGXD5YVICNZY07XF0Q42VBTY43", "current_trial": 227, "dateTime": 1512675120622, "trialdata": {"rt": -1, "stimulus": "<p id=\"stim\">9</p>", "key_press": -1, "trial_type": "single-stim", "trial_index": 227, "time_elapsed": 1059416, "internal_node_id": "0.0-172.0-1.0"}}, {"uniqueid": "MTK0723:3CN4LGXD5YVICNZY07XF0Q42VBTY43", "current_trial": 228, "dateTime": 1512675121623, "trialdata": {"rt": -1, "stimulus": "<p id=\"stim\">8</p>", "key_press": -1, "trial_type": "single-stim", "trial_index": 228, "time_elapsed": 1060417, "internal_node_id": "0.0-172.0-2.0"}}, {"uniqueid": "MTK0723:3CN4LGXD5YVICNZY07XF0Q42VBTY43", "current_trial": 229, "dateTime": 1512675122624, "trialdata": {"rt": -1, "stimulus": "<p id=\"stim\">7</p>", "key_press": -1, "trial_type": "single-stim", "trial_index": 229, "time_elapsed": 1061418, "internal_node_id": "0.0-172.0-3.0"}}, {"uniqueid": "MTK0723:3CN4LGXD5YVICNZY07XF0Q42VBTY43", "current_trial": 230, "dateTime": 1512675123625, "trialdata": {"rt": -1, "stimulus": "<p id=\"stim\">6</p>", "key_press": -1, "trial_type": "single-stim", "trial_index": 230, "time_elapsed": 1062419, "internal_node_id": "0.0-172.0-4.0"}}, {"uniqueid": "MTK0723:3CN4LGXD5YVICNZY07XF0Q42VBTY43", "current_trial": 231, "dateTime": 1512675124626, "trialdata": {"rt": -1, "stimulus": "<p id=\"stim\">5</p>", "key_press": -1, "trial_type": "single-stim", "trial_index": 231, "time_elapsed": 1063420, "internal_node_id": "0.0-172.0-5.0"}}, {"uniqueid": "MTK0723:3CN4LGXD5YVICNZY07XF0Q42VBTY43", "current_trial": 232, "dateTime": 1512675125627, "trialdata": {"rt": -1, "stimulus": "<p id=\"stim\">4</p>", "key_press": -1, "trial_type": "single-stim", "trial_index": 232, "time_elapsed": 1064421, "internal_node_id": "0.0-172.0-6.0"}}, {"uniqueid": "MTK0723:3CN4LGXD5YVICNZY07XF0Q42VBTY43", "current_trial": 233, "dateTime": 1512675126628, "trialdata": {"rt": -1, "stimulus": "<p id=\"stim\">3</p>", "key_press": -1, "trial_type": "single-stim", "trial_index": 233, "time_elapsed": 1065422, "internal_node_id": "0.0-172.0-7.0"}}, {"uniqueid": "MTK0723:3CN4LGXD5YVICNZY07XF0Q42VBTY43", "current_trial": 234, "dateTime": 1512675127629, "trialdata": {"rt": -1, "stimulus": "<p id=\"stim\">2</p>", "key_press": -1, "trial_type": "single-stim", "trial_index": 234, "time_elapsed": 1066423, "internal_node_id": "0.0-172.0-8.0"}}, {"uniqueid": "MTK0723:3CN4LGXD5YVICNZY07XF0Q42VBTY43", "current_trial": 235, "dateTime": 1512675128630, "trialdata": {"rt": -1, "stimulus": "<p id=\"stim\">1</p>", "key_press": -1, "trial_type": "single-stim", "trial_index": 235, "time_elapsed": 1067424, "internal_node_id": "0.0-172.0-9.0"}}, {"uniqueid": "MTK0723:3CN4LGXD5YVICNZY07XF0Q42VBTY43", "current_trial": 236, "dateTime": 1512675130132, "trialdata": {"rt": -1, "stimulus": "<p id=\"stim\">+</p>", "key_press": -1, "type": "FIXATION", "trial_type": "single-stim", "trial_index": 236, "time_elapsed": 1068925, "internal_node_id": "0.0-173.0-0.0"}}, {"uniqueid": "MTK0723:3CN4LGXD5YVICNZY07XF0Q42VBTY43", "current_trial": 237, "dateTime": 1512675130933, "trialdata": {"rt": -1, "stimulus": "<p id=\"stim\">OINTMENT</p>", "key_press": -1, "type": "PRES_VIS", "word": "ointment", "wordID": 973, "conditions": [12, 800, "v", 24000], "trial": 6, "serialpos": 0, "trial_type": "single-stim", "trial_index": 237, "time_elapsed": 1069726, "internal_node_id": "0.0-174.0"}}, {"uniqueid": "MTK0723:3CN4LGXD5YVICNZY07XF0Q42VBTY43", "current_trial": 238, "dateTime": 1512675132730, "trialdata": {"rt": -1, "stimulus": "<p id=\"stim\">HOOD</p>", "key_press": -1, "type": "PRES_VIS", "word": "hood", "wordID": 713, "conditions": [12, 800, "v", 24000], "trial": 6, "serialpos": 1, "trial_type": "single-stim", "trial_index": 238, "time_elapsed": 1071524, "internal_node_id": "0.0-175.0"}}, {"uniqueid": "MTK0723:3CN4LGXD5YVICNZY07XF0Q42VBTY43", "current_trial": 239, "dateTime": 1512675134457, "trialdata": {"rt": -1, "stimulus": "<p id=\"stim\">CRAB</p>", "key_press": -1, "type": "PRES_VIS", "word": "crab", "wordID": 396, "conditions": [12, 800, "v", 24000], "trial": 6, "serialpos": 2, "trial_type": "single-stim", "trial_index": 239, "time_elapsed": 1073251, "internal_node_id": "0.0-176.0"}}, {"uniqueid": "MTK0723:3CN4LGXD5YVICNZY07XF0Q42VBTY43", "current_trial": 240, "dateTime": 1512675136269, "trialdata": {"rt": -1, "stimulus": "<p id=\"stim\">DRESS</p>", "key_press": -1, "type": "PRES_VIS", "word": "dress", "wordID": 494, "conditions": [12, 800, "v", 24000], "trial": 6, "serialpos": 3, "trial_type": "single-stim", "trial_index": 240, "time_elapsed": 1075063, "internal_node_id": "0.0-177.0"}}, {"uniqueid": "MTK0723:3CN4LGXD5YVICNZY07XF0Q42VBTY43", "current_trial": 241, "dateTime": 1512675138072, "trialdata": {"rt": -1, "stimulus": "<p id=\"stim\">CRITIC</p>", "key_press": -1, "type": "PRES_VIS", "word": "critic", "wordID": 409, "conditions": [12, 800, "v", 24000], "trial": 6, "serialpos": 4, "trial_type": "single-stim", "trial_index": 241, "time_elapsed": 1076865, "internal_node_id": "0.0-178.0"}}, {"uniqueid": "MTK0723:3CN4LGXD5YVICNZY07XF0Q42VBTY43", "current_trial": 242, "dateTime": 1512675139754, "trialdata": {"rt": -1, "stimulus": "<p id=\"stim\">PUPPY</p>", "key_press": -1, "type": "PRES_VIS", "word": "puppy", "wordID": 1143, "conditions": [12, 800, "v", 24000], "trial": 6, "serialpos": 5, "trial_type": "single-stim", "trial_index": 242, "time_elapsed": 1078548, "internal_node_id": "0.0-179.0"}}, {"uniqueid": "MTK0723:3CN4LGXD5YVICNZY07XF0Q42VBTY43", "current_trial": 243, "dateTime": 1512675141640, "trialdata": {"rt": -1, "stimulus": "<p id=\"stim\">BUNNY</p>", "key_press": -1, "type": "PRES_VIS", "word": "bunny", "wordID": 197, "conditions": [12, 800, "v", 24000], "trial": 6, "serialpos": 6, "trial_type": "single-stim", "trial_index": 243, "time_elapsed": 1080434, "internal_node_id": "0.0-180.0"}}, {"uniqueid": "MTK0723:3CN4LGXD5YVICNZY07XF0Q42VBTY43", "current_trial": 244, "dateTime": 1512675143441, "trialdata": {"rt": -1, "stimulus": "<p id=\"stim\">KETCHUP</p>", "key_press": -1, "type": "PRES_VIS", "word": "ketchup", "wordID": 770, "conditions": [12, 800, "v", 24000], "trial": 6, "serialpos": 7, "trial_type": "single-stim", "trial_index": 244, "time_elapsed": 1082235, "internal_node_id": "0.0-181.0"}}, {"uniqueid": "MTK0723:3CN4LGXD5YVICNZY07XF0Q42VBTY43", "current_trial": 245, "dateTime": 1512675145344, "trialdata": {"rt": -1, "stimulus": "<p id=\"stim\">BANKER</p>", "key_press": -1, "type": "PRES_VIS", "word": "banker", "wordID": 83, "conditions": [12, 800, "v", 24000], "trial": 6, "serialpos": 8, "trial_type": "single-stim", "trial_index": 245, "time_elapsed": 1084137, "internal_node_id": "0.0-182.0"}}, {"uniqueid": "MTK0723:3CN4LGXD5YVICNZY07XF0Q42VBTY43", "current_trial": 246, "dateTime": 1512675147013, "trialdata": {"rt": -1, "stimulus": "<p id=\"stim\">AUTHOR</p>", "key_press": -1, "type": "PRES_VIS", "word": "author", "wordID": 60, "conditions": [12, 800, "v", 24000], "trial": 6, "serialpos": 9, "trial_type": "single-stim", "trial_index": 246, "time_elapsed": 1085807, "internal_node_id": "0.0-183.0"}}, {"uniqueid": "MTK0723:3CN4LGXD5YVICNZY07XF0Q42VBTY43", "current_trial": 247, "dateTime": 1512675148658, "trialdata": {"rt": -1, "stimulus": "<p id=\"stim\">TUTU</p>", "key_press": -1, "type": "PRES_VIS", "word": "tutu", "wordID": 1523, "conditions": [12, 800, "v", 24000], "trial": 6, "serialpos": 10, "trial_type": "single-stim", "trial_index": 247, "time_elapsed": 1087452, "internal_node_id": "0.0-184.0"}}, {"uniqueid": "MTK0723:3CN4LGXD5YVICNZY07XF0Q42VBTY43", "current_trial": 248, "dateTime": 1512675150618, "trialdata": {"rt": -1, "stimulus": "<p id=\"stim\">LILY</p>", "key_press": -1, "type": "PRES_VIS", "word": "lily", "wordID": 820, "conditions": [12, 800, "v", 24000], "trial": 6, "serialpos": 11, "trial_type": "single-stim", "trial_index": 248, "time_elapsed": 1089412, "internal_node_id": "0.0-185.0"}}, {"uniqueid": "MTK0723:3CN4LGXD5YVICNZY07XF0Q42VBTY43", "current_trial": 249, "dateTime": 1512675152857, "trialdata": {"rt": -1, "stimulus": "", "key_press": -1, "type": "PRE_RECALL_DELAY", "trial_type": "single-stim", "trial_index": 249, "time_elapsed": 1091651, "internal_node_id": "0.0-186.0-0.0"}}, {"uniqueid": "MTK0723:3CN4LGXD5YVICNZY07XF0Q42VBTY43", "current_trial": 250, "dateTime": 1512675153358, "trialdata": {"rt": -1000, "stimulus": "/static/audio/400Hz.wav", "key_press": -1, "type": "PRE_RECALL_ALERT", "trial_type": "single-audio", "trial_index": 250, "time_elapsed": 1092152, "internal_node_id": "0.0-187.0"}}, {"uniqueid": "MTK0723:3CN4LGXD5YVICNZY07XF0Q42VBTY43", "current_trial": 251, "dateTime": 1512675213364, "trialdata": {"rt": [2249, 4153, 6793, 9209, 13068, 17305, 26698, 36649, 49561], "recwords": ["lily", "tuto", "banker", "ketchup", "critic", "tutu", "ointment", "puppy", "banker"], "type": "FREE_RECALL", "conditions": [12, 800, "v", 24000], "trial": 6, "trial_type": "free-recall", "trial_index": 251, "time_elapsed": 1152155, "internal_node_id": "0.0-188.0-0.0"}}, {"uniqueid": "MTK0723:3CN4LGXD5YVICNZY07XF0Q42VBTY43", "current_trial": 252, "dateTime": 1512675218985, "trialdata": {"rt": 3619, "key_press": 13, "type": "INSTRUCTIONS", "trial_type": "text", "trial_index": 252, "time_elapsed": 1157778, "internal_node_id": "0.0-189.0"}}, {"uniqueid": "MTK0723:3CN4LGXD5YVICNZY07XF0Q42VBTY43", "current_trial": 253, "dateTime": 1512675232987, "trialdata": {"rt": [2143, 4575, 6879, 9006, 11471], "responses": ["12", "14", "8", "19", "15"], "num1": [8, 4, 5, 7, 7, 7], "num2": [1, 2, 2, 9, 6, 8], "num3": [3, 8, 1, 3, 2, 2], "type": "DISTRACTOR", "conditions": [12, 800, "v", 12000], "trial": 7, "trial_type": "math-distractor", "trial_index": 253, "time_elapsed": 1171781, "internal_node_id": "0.0-190.0"}}, {"uniqueid": "MTK0723:3CN4LGXD5YVICNZY07XF0Q42VBTY43", "current_trial": 254, "dateTime": 1512675235988, "trialdata": {"rt": -1, "stimulus": "<p id=\"stim\">10</p>", "key_press": -1, "trial_type": "single-stim", "trial_index": 254, "time_elapsed": 1174782, "internal_node_id": "0.0-191.0-0.0"}}, {"uniqueid": "MTK0723:3CN4LGXD5YVICNZY07XF0Q42VBTY43", "current_trial": 255, "dateTime": 1512675236989, "trialdata": {"rt": -1, "stimulus": "<p id=\"stim\">9</p>", "key_press": -1, "trial_type": "single-stim", "trial_index": 255, "time_elapsed": 1175783, "internal_node_id": "0.0-191.0-1.0"}}, {"uniqueid": "MTK0723:3CN4LGXD5YVICNZY07XF0Q42VBTY43", "current_trial": 256, "dateTime": 1512675237990, "trialdata": {"rt": -1, "stimulus": "<p id=\"stim\">8</p>", "key_press": -1, "trial_type": "single-stim", "trial_index": 256, "time_elapsed": 1176784, "internal_node_id": "0.0-191.0-2.0"}}, {"uniqueid": "MTK0723:3CN4LGXD5YVICNZY07XF0Q42VBTY43", "current_trial": 257, "dateTime": 1512675238991, "trialdata": {"rt": -1, "stimulus": "<p id=\"stim\">7</p>", "key_press": -1, "trial_type": "single-stim", "trial_index": 257, "time_elapsed": 1177785, "internal_node_id": "0.0-191.0-3.0"}}, {"uniqueid": "MTK0723:3CN4LGXD5YVICNZY07XF0Q42VBTY43", "current_trial": 258, "dateTime": 1512675239992, "trialdata": {"rt": -1, "stimulus": "<p id=\"stim\">6</p>", "key_press": -1, "trial_type": "single-stim", "trial_index": 258, "time_elapsed": 1178786, "internal_node_id": "0.0-191.0-4.0"}}, {"uniqueid": "MTK0723:3CN4LGXD5YVICNZY07XF0Q42VBTY43", "current_trial": 259, "dateTime": 1512675240993, "trialdata": {"rt": -1, "stimulus": "<p id=\"stim\">5</p>", "key_press": -1, "trial_type": "single-stim", "trial_index": 259, "time_elapsed": 1179787, "internal_node_id": "0.0-191.0-5.0"}}, {"uniqueid": "MTK0723:3CN4LGXD5YVICNZY07XF0Q42VBTY43", "current_trial": 260, "dateTime": 1512675241994, "trialdata": {"rt": -1, "stimulus": "<p id=\"stim\">4</p>", "key_press": -1, "trial_type": "single-stim", "trial_index": 260, "time_elapsed": 1180788, "internal_node_id": "0.0-191.0-6.0"}}, {"uniqueid": "MTK0723:3CN4LGXD5YVICNZY07XF0Q42VBTY43", "current_trial": 261, "dateTime": 1512675242995, "trialdata": {"rt": -1, "stimulus": "<p id=\"stim\">3</p>", "key_press": -1, "trial_type": "single-stim", "trial_index": 261, "time_elapsed": 1181789, "internal_node_id": "0.0-191.0-7.0"}}, {"uniqueid": "MTK0723:3CN4LGXD5YVICNZY07XF0Q42VBTY43", "current_trial": 262, "dateTime": 1512675243996, "trialdata": {"rt": -1, "stimulus": "<p id=\"stim\">2</p>", "key_press": -1, "trial_type": "single-stim", "trial_index": 262, "time_elapsed": 1182790, "internal_node_id": "0.0-191.0-8.0"}}, {"uniqueid": "MTK0723:3CN4LGXD5YVICNZY07XF0Q42VBTY43", "current_trial": 263, "dateTime": 1512675244997, "trialdata": {"rt": -1, "stimulus": "<p id=\"stim\">1</p>", "key_press": -1, "trial_type": "single-stim", "trial_index": 263, "time_elapsed": 1183791, "internal_node_id": "0.0-191.0-9.0"}}, {"uniqueid": "MTK0723:3CN4LGXD5YVICNZY07XF0Q42VBTY43", "current_trial": 264, "dateTime": 1512675246498, "trialdata": {"rt": -1, "stimulus": "<p id=\"stim\">+</p>", "key_press": -1, "type": "FIXATION", "trial_type": "single-stim", "trial_index": 264, "time_elapsed": 1185292, "internal_node_id": "0.0-192.0-0.0"}}, {"uniqueid": "MTK0723:3CN4LGXD5YVICNZY07XF0Q42VBTY43", "current_trial": 265, "dateTime": 1512675247299, "trialdata": {"rt": -1, "stimulus": "<p id=\"stim\">SANDWICH</p>", "key_press": -1, "type": "PRES_VIS", "word": "sandwich", "wordID": 1231, "conditions": [12, 800, "v", 12000], "trial": 7, "serialpos": 0, "trial_type": "single-stim", "trial_index": 265, "time_elapsed": 1186093, "internal_node_id": "0.0-193.0"}}, {"uniqueid": "MTK0723:3CN4LGXD5YVICNZY07XF0Q42VBTY43", "current_trial": 266, "dateTime": 1512675249119, "trialdata": {"rt": -1, "stimulus": "<p id=\"stim\">HARP</p>", "key_press": -1, "type": "PRES_VIS", "word": "harp", "wordID": 688, "conditions": [12, 800, "v", 12000], "trial": 7, "serialpos": 1, "trial_type": "single-stim", "trial_index": 266, "time_elapsed": 1187913, "internal_node_id": "0.0-194.0"}}, {"uniqueid": "MTK0723:3CN4LGXD5YVICNZY07XF0Q42VBTY43", "current_trial": 267, "dateTime": 1512675251103, "trialdata": {"rt": -1, "stimulus": "<p id=\"stim\">PICTURE</p>", "key_press": -1, "type": "PRES_VIS", "word": "picture", "wordID": 1060, "conditions": [12, 800, "v", 12000], "trial": 7, "serialpos": 2, "trial_type": "single-stim", "trial_index": 267, "time_elapsed": 1189896, "internal_node_id": "0.0-195.0"}}, {"uniqueid": "MTK0723:3CN4LGXD5YVICNZY07XF0Q42VBTY43", "current_trial": 268, "dateTime": 1512675252813, "trialdata": {"rt": -1, "stimulus": "<p id=\"stim\">SCARF</p>", "key_press": -1, "type": "PRES_VIS", "word": "scarf", "wordID": 1245, "conditions": [12, 800, "v", 12000], "trial": 7, "serialpos": 3, "trial_type": "single-stim", "trial_index": 268, "time_elapsed": 1191607, "internal_node_id": "0.0-196.0"}}, {"uniqueid": "MTK0723:3CN4LGXD5YVICNZY07XF0Q42VBTY43", "current_trial": 269, "dateTime": 1512675254559, "trialdata": {"rt": -1, "stimulus": "<p id=\"stim\">RUG</p>", "key_press": -1, "type": "PRES_VIS", "word": "rug", "wordID": 1214, "conditions": [12, 800, "v", 12000], "trial": 7, "serialpos": 4, "trial_type": "single-stim", "trial_index": 269, "time_elapsed": 1193353, "internal_node_id": "0.0-197.0"}}, {"uniqueid": "MTK0723:3CN4LGXD5YVICNZY07XF0Q42VBTY43", "current_trial": 270, "dateTime": 1512675256220, "trialdata": {"rt": -1, "stimulus": "<p id=\"stim\">HOOK</p>", "key_press": -1, "type": "PRES_VIS", "word": "hook", "wordID": 714, "conditions": [12, 800, "v", 12000], "trial": 7, "serialpos": 5, "trial_type": "single-stim", "trial_index": 270, "time_elapsed": 1195014, "internal_node_id": "0.0-198.0"}}, {"uniqueid": "MTK0723:3CN4LGXD5YVICNZY07XF0Q42VBTY43", "current_trial": 271, "dateTime": 1512675257956, "trialdata": {"rt": -1, "stimulus": "<p id=\"stim\">MAMMAL</p>", "key_press": -1, "type": "PRES_VIS", "word": "mammal", "wordID": 860, "conditions": [