{"condition": 0, "counterbalance": 709, "assignmentId": "3JJVG1YBEC44VYAN4K25X7CF86EB5S", "workerId": "MTK0435", "hitId": "30IRMPJWDZQS64ELH2NZAR4H9QRRKC", "currenttrial": 626, "bonus": 0, "data": [{"uniqueid": "MTK0435:3JJVG1YBEC44VYAN4K25X7CF86EB5S", "current_trial": 0, "dateTime": 1510869194360, "trialdata": {"rt": 1207, "key_press": 32, "type": "INSTRUCTIONS", "trial_type": "text", "trial_index": 0, "time_elapsed": 1209, "internal_node_id": "0.0-0.0"}}, {"uniqueid": "MTK0435:3JJVG1YBEC44VYAN4K25X7CF86EB5S", "current_trial": 1, "dateTime": 1510869206877, "trialdata": {"rt": 12516, "key_press": 32, "type": "INSTRUCTIONS", "trial_type": "text", "trial_index": 1, "time_elapsed": 13727, "internal_node_id": "0.0-1.0"}}, {"uniqueid": "MTK0435:3JJVG1YBEC44VYAN4K25X7CF86EB5S", "current_trial": 2, "dateTime": 1510869214498, "trialdata": {"rt": [7612], "responses": ["ocean"], "type": "AUDIO_TEST", "trial_type": "audio-test", "trial_index": 2, "time_elapsed": 21348, "internal_node_id": "0.0-2.0"}}, {"uniqueid": "MTK0435:3JJVG1YBEC44VYAN4K25X7CF86EB5S", "current_trial": 3, "dateTime": 1510869219883, "trialdata": {"rt": [5377], "responses": ["crystal"], "type": "AUDIO_TEST", "trial_type": "audio-test", "trial_index": 3, "time_elapsed": 26733, "internal_node_id": "0.0-3.0"}}, {"uniqueid": "MTK0435:3JJVG1YBEC44VYAN4K25X7CF86EB5S", "current_trial": 4, "dateTime": 1510869223299, "trialdata": {"rt": [3410], "responses": ["spice"], "type": "AUDIO_TEST", "trial_type": "audio-test", "trial_index": 4, "time_elapsed": 30149, "internal_node_id": "0.0-4.0"}}, {"uniqueid": "MTK0435:3JJVG1YBEC44VYAN4K25X7CF86EB5S", "current_trial": 5, "dateTime": 1510869240254, "trialdata": {"rt": 16201, "responses": "{\"Q0\":\"2:00am\",\"Q1\":\"10:00am\",\"Q2\":\"4\"}", "type": "SLEEP_SURVEY", "trial_type": "survey-text", "trial_index": 5, "time_elapsed": 47104, "internal_node_id": "0.0-5.0"}}, {"uniqueid": "MTK0435:3JJVG1YBEC44VYAN4K25X7CF86EB5S", "current_trial": 6, "dateTime": 1510869283074, "trialdata": {"rt": 41813, "key_press": 32, "type": "INSTRUCTIONS", "trial_type": "text", "trial_index": 6, "time_elapsed": 89924, "internal_node_id": "0.0-6.0"}}, {"uniqueid": "MTK0435:3JJVG1YBEC44VYAN4K25X7CF86EB5S", "current_trial": 7, "dateTime": 1510869296745, "trialdata": {"rt": 13165, "key_press": 32, "type": "INSTRUCTIONS", "trial_type": "text", "trial_index": 7, "time_elapsed": 103595, "internal_node_id": "0.0-7.0"}}, {"uniqueid": "MTK0435:3JJVG1YBEC44VYAN4K25X7CF86EB5S", "current_trial": 8, "dateTime": 1510869305588, "trialdata": {"rt": 8340, "key_press": 32, "type": "INSTRUCTIONS", "trial_type": "text", "trial_index": 8, "time_elapsed": 112438, "internal_node_id": "0.0-8.0"}}, {"uniqueid": "MTK0435:3JJVG1YBEC44VYAN4K25X7CF86EB5S", "current_trial": 9, "dateTime": 1510869324604, "trialdata": {"rt": [4434, 7734, 10183, 11737, 16676], "responses": ["18", "18", "17", "16", "17"], "num1": [7, 8, 5, 7, 7, 3], "num2": [5, 6, 4, 3, 1, 9], "num3": [6, 4, 8, 6, 9, 7], "type": "DISTRACTOR", "conditions": [18, 1200, "a", 18000], "trial": 0, "trial_type": "math-distractor", "trial_index": 9, "time_elapsed": 131454, "internal_node_id": "0.0-9.0"}}, {"uniqueid": "MTK0435:3JJVG1YBEC44VYAN4K25X7CF86EB5S", "current_trial": 10, "dateTime": 1510869327611, "trialdata": {"rt": -1, "stimulus": "<p id=\"stim\">10</p>", "key_press": -1, "trial_type": "single-stim", "trial_index": 10, "time_elapsed": 134460, "internal_node_id": "0.0-10.0-0.0"}}, {"uniqueid": "MTK0435:3JJVG1YBEC44VYAN4K25X7CF86EB5S", "current_trial": 11, "dateTime": 1510869328617, "trialdata": {"rt": -1, "stimulus": "<p id=\"stim\">9</p>", "key_press": -1, "trial_type": "single-stim", "trial_index": 11, "time_elapsed": 135467, "internal_node_id": "0.0-10.0-1.0"}}, {"uniqueid": "MTK0435:3JJVG1YBEC44VYAN4K25X7CF86EB5S", "current_trial": 12, "dateTime": 1510869329623, "trialdata": {"rt": -1, "stimulus": "<p id=\"stim\">8</p>", "key_press": -1, "trial_type": "single-stim", "trial_index": 12, "time_elapsed": 136473, "internal_node_id": "0.0-10.0-2.0"}}, {"uniqueid": "MTK0435:3JJVG1YBEC44VYAN4K25X7CF86EB5S", "current_trial": 13, "dateTime": 1510869330628, "trialdata": {"rt": -1, "stimulus": "<p id=\"stim\">7</p>", "key_press": -1, "trial_type": "single-stim", "trial_index": 13, "time_elapsed": 137478, "internal_node_id": "0.0-10.0-3.0"}}, {"uniqueid": "MTK0435:3JJVG1YBEC44VYAN4K25X7CF86EB5S", "current_trial": 14, "dateTime": 1510869331634, "trialdata": {"rt": -1, "stimulus": "<p id=\"stim\">6</p>", "key_press": -1, "trial_type": "single-stim", "trial_index": 14, "time_elapsed": 138484, "internal_node_id": "0.0-10.0-4.0"}}, {"uniqueid": "MTK0435:3JJVG1YBEC44VYAN4K25X7CF86EB5S", "current_trial": 15, "dateTime": 1510869332636, "trialdata": {"rt": -1, "stimulus": "<p id=\"stim\">5</p>", "key_press": -1, "trial_type": "single-stim", "trial_index": 15, "time_elapsed": 139486, "internal_node_id": "0.0-10.0-5.0"}}, {"uniqueid": "MTK0435:3JJVG1YBEC44VYAN4K25X7CF86EB5S", "current_trial": 16, "dateTime": 1510869333642, "trialdata": {"rt": -1, "stimulus": "<p id=\"stim\">4</p>", "key_press": -1, "trial_type": "single-stim", "trial_index": 16, "time_elapsed": 140492, "internal_node_id": "0.0-10.0-6.0"}}, {"uniqueid": "MTK0435:3JJVG1YBEC44VYAN4K25X7CF86EB5S", "current_trial": 17, "dateTime": 1510869334650, "trialdata": {"rt": -1, "stimulus": "<p id=\"stim\">3</p>", "key_press": -1, "trial_type": "single-stim", "trial_index": 17, "time_elapsed": 141500, "internal_node_id": "0.0-10.0-7.0"}}, {"uniqueid": "MTK0435:3JJVG1YBEC44VYAN4K25X7CF86EB5S", "current_trial": 18, "dateTime": 1510869335655, "trialdata": {"rt": -1, "stimulus": "<p id=\"stim\">2</p>", "key_press": -1, "trial_type": "single-stim", "trial_index": 18, "time_elapsed": 142504, "internal_node_id": "0.0-10.0-8.0"}}, {"uniqueid": "MTK0435:3JJVG1YBEC44VYAN4K25X7CF86EB5S", "current_trial": 19, "dateTime": 1510869336659, "trialdata": {"rt": -1, "stimulus": "<p id=\"stim\">1</p>", "key_press": -1, "trial_type": "single-stim", "trial_index": 19, "time_elapsed": 143508, "internal_node_id": "0.0-10.0-9.0"}}, {"uniqueid": "MTK0435:3JJVG1YBEC44VYAN4K25X7CF86EB5S", "current_trial": 20, "dateTime": 1510869338162, "trialdata": {"rt": -1, "stimulus": "<p id=\"stim\">+</p>", "key_press": -1, "type": "FIXATION", "trial_type": "single-stim", "trial_index": 20, "time_elapsed": 145012, "internal_node_id": "0.0-11.0-0.0"}}, {"uniqueid": "MTK0435:3JJVG1YBEC44VYAN4K25X7CF86EB5S", "current_trial": 21, "dateTime": 1510869340455, "trialdata": {"rt": -1000, "stimulus": "/static/audio/wordpool/CASKET.wav", "key_press": -1, "type": "PRES_AUD", "word": "casket", "wordID": 254, "conditions": [18, 1200, "a", 18000], "trial": 0, "serialpos": 0, "trial_type": "single-audio", "trial_index": 21, "time_elapsed": 147305, "internal_node_id": "0.0-12.0"}}, {"uniqueid": "MTK0435:3JJVG1YBEC44VYAN4K25X7CF86EB5S", "current_trial": 22, "dateTime": 1510869342459, "trialdata": {"rt": -1000, "stimulus": "/static/audio/wordpool/SUITCASE.wav", "key_press": -1, "type": "PRES_AUD", "word": "suitcase", "wordID": 1402, "conditions": [18, 1200, "a", 18000], "trial": 0, "serialpos": 1, "trial_type": "single-audio", "trial_index": 22, "time_elapsed": 149309, "internal_node_id": "0.0-13.0"}}, {"uniqueid": "MTK0435:3JJVG1YBEC44VYAN4K25X7CF86EB5S", "current_trial": 23, "dateTime": 1510869344668, "trialdata": {"rt": -1000, "stimulus": "/static/audio/wordpool/STONE.wav", "key_press": -1, "type": "PRES_AUD", "word": "stone", "wordID": 1384, "conditions": [18, 1200, "a", 18000], "trial": 0, "serialpos": 2, "trial_type": "single-audio", "trial_index": 23, "time_elapsed": 151518, "internal_node_id": "0.0-14.0"}}, {"uniqueid": "MTK0435:3JJVG1YBEC44VYAN4K25X7CF86EB5S", "current_trial": 24, "dateTime": 1510869346984, "trialdata": {"rt": -1000, "stimulus": "/static/audio/wordpool/HOUND.wav", "key_press": -1, "type": "PRES_AUD", "word": "hound", "wordID": 723, "conditions": [18, 1200, "a", 18000], "trial": 0, "serialpos": 3, "trial_type": "single-audio", "trial_index": 24, "time_elapsed": 153834, "internal_node_id": "0.0-15.0"}}, {"uniqueid": "MTK0435:3JJVG1YBEC44VYAN4K25X7CF86EB5S", "current_trial": 25, "dateTime": 1510869348987, "trialdata": {"rt": -1000, "stimulus": "/static/audio/wordpool/CLOCK.wav", "key_press": -1, "type": "PRES_AUD", "word": "clock", "wordID": 324, "conditions": [18, 1200, "a", 18000], "trial": 0, "serialpos": 4, "trial_type": "single-audio", "trial_index": 25, "time_elapsed": 155837, "internal_node_id": "0.0-16.0"}}, {"uniqueid": "MTK0435:3JJVG1YBEC44VYAN4K25X7CF86EB5S", "current_trial": 26, "dateTime": 1510869351390, "trialdata": {"rt": -1000, "stimulus": "/static/audio/wordpool/VENUS.wav", "key_press": -1, "type": "PRES_AUD", "word": "venus", "wordID": 1556, "conditions": [18, 1200, "a", 18000], "trial": 0, "serialpos": 5, "trial_type": "single-audio", "trial_index": 26, "time_elapsed": 158240, "internal_node_id": "0.0-17.0"}}, {"uniqueid": "MTK0435:3JJVG1YBEC44VYAN4K25X7CF86EB5S", "current_trial": 27, "dateTime": 1510869353771, "trialdata": {"rt": -1000, "stimulus": "/static/audio/wordpool/SODA.wav", "key_press": -1, "type": "PRES_AUD", "word": "soda", "wordID": 1340, "conditions": [18, 1200, "a", 18000], "trial": 0, "serialpos": 6, "trial_type": "single-audio", "trial_index": 27, "time_elapsed": 160620, "internal_node_id": "0.0-18.0"}}, {"uniqueid": "MTK0435:3JJVG1YBEC44VYAN4K25X7CF86EB5S", "current_trial": 28, "dateTime": 1510869356005, "trialdata": {"rt": -1000, "stimulus": "/static/audio/wordpool/OFFICE.wav", "key_press": -1, "type": "PRES_AUD", "word": "office", "wordID": 971, "conditions": [18, 1200, "a", 18000], "trial": 0, "serialpos": 7, "trial_type": "single-audio", "trial_index": 28, "time_elapsed": 162855, "internal_node_id": "0.0-19.0"}}, {"uniqueid": "MTK0435:3JJVG1YBEC44VYAN4K25X7CF86EB5S", "current_trial": 29, "dateTime": 1510869358275, "trialdata": {"rt": -1000, "stimulus": "/static/audio/wordpool/CONVICT.wav", "key_press": -1, "type": "PRES_AUD", "word": "convict", "wordID": 370, "conditions": [18, 1200, "a", 18000], "trial": 0, "serialpos": 8, "trial_type": "single-audio", "trial_index": 29, "time_elapsed": 165125, "internal_node_id": "0.0-20.0"}}, {"uniqueid": "MTK0435:3JJVG1YBEC44VYAN4K25X7CF86EB5S", "current_trial": 30, "dateTime": 1510869360336, "trialdata": {"rt": -1000, "stimulus": "/static/audio/wordpool/PLAID.wav", "key_press": -1, "type": "PRES_AUD", "word": "plaid", "wordID": 1079, "conditions": [18, 1200, "a", 18000], "trial": 0, "serialpos": 9, "trial_type": "single-audio", "trial_index": 30, "time_elapsed": 167186, "internal_node_id": "0.0-21.0"}}, {"uniqueid": "MTK0435:3JJVG1YBEC44VYAN4K25X7CF86EB5S", "current_trial": 31, "dateTime": 1510869362380, "trialdata": {"rt": -1000, "stimulus": "/static/audio/wordpool/SWITCH.wav", "key_press": -1, "type": "PRES_AUD", "word": "switch", "wordID": 1421, "conditions": [18, 1200, "a", 18000], "trial": 0, "serialpos": 10, "trial_type": "single-audio", "trial_index": 31, "time_elapsed": 169230, "internal_node_id": "0.0-22.0"}}, {"uniqueid": "MTK0435:3JJVG1YBEC44VYAN4K25X7CF86EB5S", "current_trial": 32, "dateTime": 1510869364667, "trialdata": {"rt": -1000, "stimulus": "/static/audio/wordpool/SNAKE.wav", "key_press": -1, "type": "PRES_AUD", "word": "snake", "wordID": 1332, "conditions": [18, 1200, "a", 18000], "trial": 0, "serialpos": 11, "trial_type": "single-audio", "trial_index": 32, "time_elapsed": 171517, "internal_node_id": "0.0-23.0"}}, {"uniqueid": "MTK0435:3JJVG1YBEC44VYAN4K25X7CF86EB5S", "current_trial": 33, "dateTime": 1510869366768, "trialdata": {"rt": -1000, "stimulus": "/static/audio/wordpool/WIFE.wav", "key_press": -1, "type": "PRES_AUD", "word": "wife", "wordID": 1608, "conditions": [18, 1200, "a", 18000], "trial": 0, "serialpos": 12, "trial_type": "single-audio", "trial_index": 33, "time_elapsed": 173618, "internal_node_id": "0.0-24.0"}}, {"uniqueid": "MTK0435:3JJVG1YBEC44VYAN4K25X7CF86EB5S", "current_trial": 34, "dateTime": 1510869369114, "trialdata": {"rt": -1000, "stimulus": "/static/audio/wordpool/PUDDING.wav", "key_press": -1, "type": "PRES_AUD", "word": "pudding", "wordID": 1138, "conditions": [18, 1200, "a", 18000], "trial": 0, "serialpos": 13, "trial_type": "single-audio", "trial_index": 34, "time_elapsed": 175964, "internal_node_id": "0.0-25.0"}}, {"uniqueid": "MTK0435:3JJVG1YBEC44VYAN4K25X7CF86EB5S", "current_trial": 35, "dateTime": 1510869371412, "trialdata": {"rt": -1000, "stimulus": "/static/audio/wordpool/COIN.wav", "key_press": -1, "type": "PRES_AUD", "word": "coin", "wordID": 342, "conditions": [18, 1200, "a", 18000], "trial": 0, "serialpos": 14, "trial_type": "single-audio", "trial_index": 35, "time_elapsed": 178262, "internal_node_id": "0.0-26.0"}}, {"uniqueid": "MTK0435:3JJVG1YBEC44VYAN4K25X7CF86EB5S", "current_trial": 36, "dateTime": 1510869373601, "trialdata": {"rt": -1000, "stimulus": "/static/audio/wordpool/CHEST.wav", "key_press": -1, "type": "PRES_AUD", "word": "chest", "wordID": 294, "conditions": [18, 1200, "a", 18000], "trial": 0, "serialpos": 15, "trial_type": "single-audio", "trial_index": 36, "time_elapsed": 180451, "internal_node_id": "0.0-27.0"}}, {"uniqueid": "MTK0435:3JJVG1YBEC44VYAN4K25X7CF86EB5S", "current_trial": 37, "dateTime": 1510869375923, "trialdata": {"rt": -1000, "stimulus": "/static/audio/wordpool/TORTOISE.wav", "key_press": -1, "type": "PRES_AUD", "word": "tortoise", "wordID": 1485, "conditions": [18, 1200, "a", 18000], "trial": 0, "serialpos": 16, "trial_type": "single-audio", "trial_index": 37, "time_elapsed": 182773, "internal_node_id": "0.0-28.0"}}, {"uniqueid": "MTK0435:3JJVG1YBEC44VYAN4K25X7CF86EB5S", "current_trial": 38, "dateTime": 1510869378326, "trialdata": {"rt": -1000, "stimulus": "/static/audio/wordpool/LUMBER.wav", "key_press": -1, "type": "PRES_AUD", "word": "lumber", "wordID": 847, "conditions": [18, 1200, "a", 18000], "trial": 0, "serialpos": 17, "trial_type": "single-audio", "trial_index": 38, "time_elapsed": 185176, "internal_node_id": "0.0-29.0"}}, {"uniqueid": "MTK0435:3JJVG1YBEC44VYAN4K25X7CF86EB5S", "current_trial": 39, "dateTime": 1510869379639, "trialdata": {"rt": -1, "stimulus": "", "key_press": -1, "type": "PRE_RECALL_DELAY", "trial_type": "single-stim", "trial_index": 39, "time_elapsed": 186489, "internal_node_id": "0.0-30.0-0.0"}}, {"uniqueid": "MTK0435:3JJVG1YBEC44VYAN4K25X7CF86EB5S", "current_trial": 40, "dateTime": 1510869380140, "trialdata": {"rt": -1000, "stimulus": "/static/audio/400Hz.wav", "key_press": -1, "type": "PRE_RECALL_ALERT", "trial_type": "single-audio", "trial_index": 40, "time_elapsed": 186990, "internal_node_id": "0.0-31.0"}}, {"uniqueid": "MTK0435:3JJVG1YBEC44VYAN4K25X7CF86EB5S", "current_trial": 41, "dateTime": 1510869440152, "trialdata": {"rt": [9749, 12246, 13941, 15167, 17968, 29307, 30841, 45504, 51284, 55471, 56794, 57863, 59050], "recwords": ["stone", "casket", "lumbar", "coin", "tortoise", "luggage", "snake", "n/a", "pudding", "n/a", "n/a", "n/a", "n/a"], "type": "FREE_RECALL", "conditions": [18, 1200, "a", 18000], "trial": 0, "trial_type": "free-recall", "trial_index": 41, "time_elapsed": 246997, "internal_node_id": "0.0-32.0-0.0"}}, {"uniqueid": "MTK0435:3JJVG1YBEC44VYAN4K25X7CF86EB5S", "current_trial": 42, "dateTime": 1510869443373, "trialdata": {"rt": 1217, "key_press": 32, "type": "INSTRUCTIONS", "trial_type": "text", "trial_index": 42, "time_elapsed": 250223, "internal_node_id": "0.0-33.0"}}, {"uniqueid": "MTK0435:3JJVG1YBEC44VYAN4K25X7CF86EB5S", "current_trial": 43, "dateTime": 1510869463383, "trialdata": {"rt": [3049, 4811, 11465, 14308], "responses": ["18", "12", "15", "19"], "num1": [9, 2, 1, 7, 9], "num2": [5, 4, 6, 5, 9], "num3": [4, 6, 8, 7, 8], "type": "DISTRACTOR", "conditions": [18, 1200, "v", 18000], "trial": 1, "trial_type": "math-distractor", "trial_index": 43, "time_elapsed": 270233, "internal_node_id": "0.0-34.0"}}, {"uniqueid": "MTK0435:3JJVG1YBEC44VYAN4K25X7CF86EB5S", "current_trial": 44, "dateTime": 1510869466390, "trialdata": {"rt": -1, "stimulus": "<p id=\"stim\">10</p>", "key_press": -1, "trial_type": "single-stim", "trial_index": 44, "time_elapsed": 273240, "internal_node_id": "0.0-35.0-0.0"}}, {"uniqueid": "MTK0435:3JJVG1YBEC44VYAN4K25X7CF86EB5S", "current_trial": 45, "dateTime": 1510869467393, "trialdata": {"rt": -1, "stimulus": "<p id=\"stim\">9</p>", "key_press": -1, "trial_type": "single-stim", "trial_index": 45, "time_elapsed": 274243, "internal_node_id": "0.0-35.0-1.0"}}, {"uniqueid": "MTK0435:3JJVG1YBEC44VYAN4K25X7CF86EB5S", "current_trial": 46, "dateTime": 1510869468399, "trialdata": {"rt": -1, "stimulus": "<p id=\"stim\">8</p>", "key_press": -1, "trial_type": "single-stim", "trial_index": 46, "time_elapsed": 275249, "internal_node_id": "0.0-35.0-2.0"}}, {"uniqueid": "MTK0435:3JJVG1YBEC44VYAN4K25X7CF86EB5S", "current_trial": 47, "dateTime": 1510869469404, "trialdata": {"rt": -1, "stimulus": "<p id=\"stim\">7</p>", "key_press": -1, "trial_type": "single-stim", "trial_index": 47, "time_elapsed": 276254, "internal_node_id": "0.0-35.0-3.0"}}, {"uniqueid": "MTK0435:3JJVG1YBEC44VYAN4K25X7CF86EB5S", "current_trial": 48, "dateTime": 1510869470410, "trialdata": {"rt": -1, "stimulus": "<p id=\"stim\">6</p>", "key_press": -1, "trial_type": "single-stim", "trial_index": 48, "time_elapsed": 277260, "internal_node_id": "0.0-35.0-4.0"}}, {"uniqueid": "MTK0435:3JJVG1YBEC44VYAN4K25X7CF86EB5S", "current_trial": 49, "dateTime": 1510869471415, "trialdata": {"rt": -1, "stimulus": "<p id=\"stim\">5</p>", "key_press": -1, "trial_type": "single-stim", "trial_index": 49, "time_elapsed": 278265, "internal_node_id": "0.0-35.0-5.0"}}, {"uniqueid": "MTK0435:3JJVG1YBEC44VYAN4K25X7CF86EB5S", "current_trial": 50, "dateTime": 1510869472424, "trialdata": {"rt": -1, "stimulus": "<p id=\"stim\">4</p>", "key_press": -1, "trial_type": "single-stim", "trial_index": 50, "time_elapsed": 279274, "internal_node_id": "0.0-35.0-6.0"}}, {"uniqueid": "MTK0435:3JJVG1YBEC44VYAN4K25X7CF86EB5S", "current_trial": 51, "dateTime": 1510869473429, "trialdata": {"rt": -1, "stimulus": "<p id=\"stim\">3</p>", "key_press": -1, "trial_type": "single-stim", "trial_index": 51, "time_elapsed": 280279, "internal_node_id": "0.0-35.0-7.0"}}, {"uniqueid": "MTK0435:3JJVG1YBEC44VYAN4K25X7CF86EB5S", "current_trial": 52, "dateTime": 1510869474434, "trialdata": {"rt": -1, "stimulus": "<p id=\"stim\">2</p>", "key_press": -1, "trial_type": "single-stim", "trial_index": 52, "time_elapsed": 281283, "internal_node_id": "0.0-35.0-8.0"}}, {"uniqueid": "MTK0435:3JJVG1YBEC44VYAN4K25X7CF86EB5S", "current_trial": 53, "dateTime": 1510869475439, "trialdata": {"rt": -1, "stimulus": "<p id=\"stim\">1</p>", "key_press": -1, "trial_type": "single-stim", "trial_index": 53, "time_elapsed": 282289, "internal_node_id": "0.0-35.0-9.0"}}, {"uniqueid": "MTK0435:3JJVG1YBEC44VYAN4K25X7CF86EB5S", "current_trial": 54, "dateTime": 1510869476941, "trialdata": {"rt": -1, "stimulus": "<p id=\"stim\">+</p>", "key_press": -1, "type": "FIXATION", "trial_type": "single-stim", "trial_index": 54, "time_elapsed": 283791, "internal_node_id": "0.0-36.0-0.0"}}, {"uniqueid": "MTK0435:3JJVG1YBEC44VYAN4K25X7CF86EB5S", "current_trial": 55, "dateTime": 1510869478143, "trialdata": {"rt": -1, "stimulus": "<p id=\"stim\">PADDLE</p>", "key_press": -1, "type": "PRES_VIS", "word": "paddle", "wordID": 999, "conditions": [18, 1200, "v", 18000], "trial": 1, "serialpos": 0, "trial_type": "single-stim", "trial_index": 55, "time_elapsed": 284992, "internal_node_id": "0.0-37.0"}}, {"uniqueid": "MTK0435:3JJVG1YBEC44VYAN4K25X7CF86EB5S", "current_trial": 56, "dateTime": 1510869480412, "trialdata": {"rt": -1, "stimulus": "<p id=\"stim\">COTTAGE</p>", "key_press": -1, "type": "PRES_VIS", "word": "cottage", "wordID": 383, "conditions": [18, 1200, "v", 18000], "trial": 1, "serialpos": 1, "trial_type": "single-stim", "trial_index": 56, "time_elapsed": 287262, "internal_node_id": "0.0-38.0"}}, {"uniqueid": "MTK0435:3JJVG1YBEC44VYAN4K25X7CF86EB5S", "current_trial": 57, "dateTime": 1510869482648, "trialdata": {"rt": -1, "stimulus": "<p id=\"stim\">MISTER</p>", "key_press": -1, "type": "PRES_VIS", "word": "mister", "wordID": 900, "conditions": [18, 1200, "v", 18000], "trial": 1, "serialpos": 2, "trial_type": "single-stim", "trial_index": 57, "time_elapsed": 289498, "internal_node_id": "0.0-39.0"}}, {"uniqueid": "MTK0435:3JJVG1YBEC44VYAN4K25X7CF86EB5S", "current_trial": 58, "dateTime": 1510869484997, "trialdata": {"rt": -1, "stimulus": "<p id=\"stim\">WINDOW</p>", "key_press": -1, "type": "PRES_VIS", "word": "window", "wordID": 1610, "conditions": [18, 1200, "v", 18000], "trial": 1, "serialpos": 3, "trial_type": "single-stim", "trial_index": 58, "time_elapsed": 291847, "internal_node_id": "0.0-40.0"}}, {"uniqueid": "MTK0435:3JJVG1YBEC44VYAN4K25X7CF86EB5S", "current_trial": 59, "dateTime": 1510869487093, "trialdata": {"rt": -1, "stimulus": "<p id=\"stim\">KETCHUP</p>", "key_press": -1, "type": "PRES_VIS", "word": "ketchup", "wordID": 770, "conditions": [18, 1200, "v", 18000], "trial": 1, "serialpos": 4, "trial_type": "single-stim", "trial_index": 59, "time_elapsed": 293943, "internal_node_id": "0.0-41.0"}}, {"uniqueid": "MTK0435:3JJVG1YBEC44VYAN4K25X7CF86EB5S", "current_trial": 60, "dateTime": 1510869489228, "trialdata": {"rt": -1, "stimulus": "<p id=\"stim\">WITNESS</p>", "key_press": -1, "type": "PRES_VIS", "word": "witness", "wordID": 1617, "conditions": [18, 1200, "v", 18000], "trial": 1, "serialpos": 5, "trial_type": "single-stim", "trial_index": 60, "time_elapsed": 296078, "internal_node_id": "0.0-42.0"}}, {"uniqueid": "MTK0435:3JJVG1YBEC44VYAN4K25X7CF86EB5S", "current_trial": 61, "dateTime": 1510869491306, "trialdata": {"rt": -1, "stimulus": "<p id=\"stim\">UMPIRE</p>", "key_press": -1, "type": "PRES_VIS", "word": "umpire", "wordID": 1534, "conditions": [18, 1200, "v", 18000], "trial": 1, "serialpos": 6, "trial_type": "single-stim", "trial_index": 61, "time_elapsed": 298156, "internal_node_id": "0.0-43.0"}}, {"uniqueid": "MTK0435:3JJVG1YBEC44VYAN4K25X7CF86EB5S", "current_trial": 62, "dateTime": 1510869493402, "trialdata": {"rt": -1, "stimulus": "<p id=\"stim\">TWEEZERS</p>", "key_press": -1, "type": "PRES_VIS", "word": "tweezers", "wordID": 1525, "conditions": [18, 1200, "v", 18000], "trial": 1, "serialpos": 7, "trial_type": "single-stim", "trial_index": 62, "time_elapsed": 300251, "internal_node_id": "0.0-44.0"}}, {"uniqueid": "MTK0435:3JJVG1YBEC44VYAN4K25X7CF86EB5S", "current_trial": 63, "dateTime": 1510869495700, "trialdata": {"rt": -1, "stimulus": "<p id=\"stim\">POWDER</p>", "key_press": -1, "type": "PRES_VIS", "word": "powder", "wordID": 1116, "conditions": [18, 1200, "v", 18000], "trial": 1, "serialpos": 8, "trial_type": "single-stim", "trial_index": 63, "time_elapsed": 302550, "internal_node_id": "0.0-45.0"}}, {"uniqueid": "MTK0435:3JJVG1YBEC44VYAN4K25X7CF86EB5S", "current_trial": 64, "dateTime": 1510869497970, "trialdata": {"rt": -1, "stimulus": "<p id=\"stim\">BANK</p>", "key_press": -1, "type": "PRES_VIS", "word": "bank", "wordID": 82, "conditions": [18, 1200, "v", 18000], "trial": 1, "serialpos": 9, "trial_type": "single-stim", "trial_index": 64, "time_elapsed": 304820, "internal_node_id": "0.0-46.0"}}, {"uniqueid": "MTK0435:3JJVG1YBEC44VYAN4K25X7CF86EB5S", "current_trial": 65, "dateTime": 1510869500059, "trialdata": {"rt": -1, "stimulus": "<p id=\"stim\">PISTON</p>", "key_press": -1, "type": "PRES_VIS", "word": "piston", "wordID": 1075, "conditions": [18, 1200, "v", 18000], "trial": 1, "serialpos": 10, "trial_type": "single-stim", "trial_index": 65, "time_elapsed": 306909, "internal_node_id": "0.0-47.0"}}, {"uniqueid": "MTK0435:3JJVG1YBEC44VYAN4K25X7CF86EB5S", "current_trial": 66, "dateTime": 1510869502189, "trialdata": {"rt": -1, "stimulus": "<p id=\"stim\">DAISY</p>", "key_press": -1, "type": "PRES_VIS", "word": "daisy", "wordID": 434, "conditions": [18, 1200, "v", 18000], "trial": 1, "serialpos": 11, "trial_type": "single-stim", "trial_index": 66, "time_elapsed": 309039, "internal_node_id": "0.0-48.0"}}, {"uniqueid": "MTK0435:3JJVG1YBEC44VYAN4K25X7CF86EB5S", "current_trial": 67, "dateTime": 1510869504383, "trialdata": {"rt": -1, "stimulus": "<p id=\"stim\">LIVER</p>", "key_press": -1, "type": "PRES_VIS", "word": "liver", "wordID": 832, "conditions": [18, 1200, "v", 18000], "trial": 1, "serialpos": 12, "trial_type": "single-stim", "trial_index": 67, "time_elapsed": 311233, "internal_node_id": "0.0-49.0"}}, {"uniqueid": "MTK0435:3JJVG1YBEC44VYAN4K25X7CF86EB5S", "current_trial": 68, "dateTime": 1510869506539, "trialdata": {"rt": -1, "stimulus": "<p id=\"stim\">EGYPT</p>", "key_press": -1, "type": "PRES_VIS", "word": "egypt", "wordID": 518, "conditions": [18, 1200, "v", 18000], "trial": 1, "serialpos": 13, "trial_type": "single-stim", "trial_index": 68, "time_elapsed": 313387, "internal_node_id": "0.0-50.0"}}, {"uniqueid": "MTK0435:3JJVG1YBEC44VYAN4K25X7CF86EB5S", "current_trial": 69, "dateTime": 1510869508562, "trialdata": {"rt": -1, "stimulus": "<p id=\"stim\">BEAKER</p>", "key_press": -1, "type": "PRES_VIS", "word": "beaker", "wordID": 103, "conditions": [18, 1200, "v", 18000], "trial": 1, "serialpos": 14, "trial_type": "single-stim", "trial_index": 69, "time_elapsed": 315412, "internal_node_id": "0.0-51.0"}}, {"uniqueid": "MTK0435:3JJVG1YBEC44VYAN4K25X7CF86EB5S", "current_trial": 70, "dateTime": 1510869510617, "trialdata": {"rt": -1, "stimulus": "<p id=\"stim\">BLACKBOARD</p>", "key_press": -1, "type": "PRES_VIS", "word": "blackboard", "wordID": 132, "conditions": [18, 1200, "v", 18000], "trial": 1, "serialpos": 15, "trial_type": "single-stim", "trial_index": 70, "time_elapsed": 317467, "internal_node_id": "0.0-52.0"}}, {"uniqueid": "MTK0435:3JJVG1YBEC44VYAN4K25X7CF86EB5S", "current_trial": 71, "dateTime": 1510869512909, "trialdata": {"rt": -1, "stimulus": "<p id=\"stim\">SALAD</p>", "key_press": -1, "type": "PRES_VIS", "word": "salad", "wordID": 1223, "conditions": [18, 1200, "v", 18000], "trial": 1, "serialpos": 16, "trial_type": "single-stim", "trial_index": 71, "time_elapsed": 319759, "internal_node_id": "0.0-53.0"}}, {"uniqueid": "MTK0435:3JJVG1YBEC44VYAN4K25X7CF86EB5S", "current_trial": 72, "dateTime": 1510869515220, "trialdata": {"rt": -1, "stimulus": "<p id=\"stim\">DANCER</p>", "key_press": -1, "type": "PRES_VIS", "word": "dancer", "wordID": 436, "conditions": [18, 1200, "v", 18000], "trial": 1, "serialpos": 17, "trial_type": "single-stim", "trial_index": 72, "time_elapsed": 322070, "internal_node_id": "0.0-54.0"}}, {"uniqueid": "MTK0435:3JJVG1YBEC44VYAN4K25X7CF86EB5S", "current_trial": 73, "dateTime": 1510869517594, "trialdata": {"rt": -1, "stimulus": "", "key_press": -1, "type": "PRE_RECALL_DELAY", "trial_type": "single-stim", "trial_index": 73, "time_elapsed": 324443, "internal_node_id": "0.0-55.0-0.0"}}, {"uniqueid": "MTK0435:3JJVG1YBEC44VYAN4K25X7CF86EB5S", "current_trial": 74, "dateTime": 1510869518096, "trialdata": {"rt": -1000, "stimulus": "/static/audio/400Hz.wav", "key_press": -1, "type": "PRE_RECALL_ALERT", "trial_type": "single-audio", "trial_index": 74, "time_elapsed": 324946, "internal_node_id": "0.0-56.0"}}, {"uniqueid": "MTK0435:3JJVG1YBEC44VYAN4K25X7CF86EB5S", "current_trial": 75, "dateTime": 1510869578104, "trialdata": {"rt": [1978, 2857, 5270, 6407, 9529, 11107, 12680, 45315], "recwords": ["dancer", "salad", "blackboard", "umpire", "paddle", "egypt", "cottage", "tweezers"], "type": "FREE_RECALL", "conditions": [18, 1200, "v", 18000], "trial": 1, "trial_type": "free-recall", "trial_index": 75, "time_elapsed": 384951, "internal_node_id": "0.0-57.0-0.0"}}, {"uniqueid": "MTK0435:3JJVG1YBEC44VYAN4K25X7CF86EB5S", "current_trial": 76, "dateTime": 1510869583088, "trialdata": {"rt": 2971, "key_press": 32, "type": "INSTRUCTIONS", "trial_type": "text", "trial_index": 76, "time_elapsed": 389930, "internal_node_id": "0.0-58.0"}}, {"uniqueid": "MTK0435:3JJVG1YBEC44VYAN4K25X7CF86EB5S", "current_trial": 77, "dateTime": 1510869608097, "trialdata": {"rt": [3355, 6097, 7595, 10231, 12132, 14304, 16419, 18174, 20154, 22389], "responses": ["16", "14", "17", "14", "19", "19", "22", "14", "17", "17"], "num1": [6, 3, 1, 9, 7, 5, 7, 8, 9, 6, 7], "num2": [9, 8, 9, 2, 6, 6, 7, 4, 3, 5, 1], "num3": [1, 3, 7, 2, 6, 8, 8, 2, 5, 6, 1], "type": "DISTRACTOR", "conditions": [12, 800, "v", 24000], "trial": 2, "trial_type": "math-distractor", "trial_index": 77, "time_elapsed": 414947, "internal_node_id": "0.0-59.0"}}, {"uniqueid": "MTK0435:3JJVG1YBEC44VYAN4K25X7CF86EB5S", "current_trial": 78, "dateTime": 1510869611104, "trialdata": {"rt": -1, "stimulus": "<p id=\"stim\">10</p>", "key_press": -1, "trial_type": "single-stim", "trial_index": 78, "time_elapsed": 417954, "internal_node_id": "0.0-60.0-0.0"}}, {"uniqueid": "MTK0435:3JJVG1YBEC44VYAN4K25X7CF86EB5S", "current_trial": 79, "dateTime": 1510869612110, "trialdata": {"rt": -1, "stimulus": "<p id=\"stim\">9</p>", "key_press": -1, "trial_type": "single-stim", "trial_index": 79, "time_elapsed": 418960, "internal_node_id": "0.0-60.0-1.0"}}, {"uniqueid": "MTK0435:3JJVG1YBEC44VYAN4K25X7CF86EB5S", "current_trial": 80, "dateTime": 1510869613116, "trialdata": {"rt": -1, "stimulus": "<p id=\"stim\">8</p>", "key_press": -1, "trial_type": "single-stim", "trial_index": 80, "time_elapsed": 419966, "internal_node_id": "0.0-60.0-2.0"}}, {"uniqueid": "MTK0435:3JJVG1YBEC44VYAN4K25X7CF86EB5S", "current_trial": 81, "dateTime": 1510869614123, "trialdata": {"rt": -1, "stimulus": "<p id=\"stim\">7</p>", "key_press": -1, "trial_type": "single-stim", "trial_index": 81, "time_elapsed": 420973, "internal_node_id": "0.0-60.0-3.0"}}, {"uniqueid": "MTK0435:3JJVG1YBEC44VYAN4K25X7CF86EB5S", "current_trial": 82, "dateTime": 1510869615126, "trialdata": {"rt": -1, "stimulus": "<p id=\"stim\">6</p>", "key_press": -1, "trial_type": "single-stim", "trial_index": 82, "time_elapsed": 421976, "internal_node_id": "0.0-60.0-4.0"}}, {"uniqueid": "MTK0435:3JJVG1YBEC44VYAN4K25X7CF86EB5S", "current_trial": 83, "dateTime": 1510869616132, "trialdata": {"rt": -1, "stimulus": "<p id=\"stim\">5</p>", "key_press": -1, "trial_type": "single-stim", "trial_index": 83, "time_elapsed": 422982, "internal_node_id": "0.0-60.0-5.0"}}, {"uniqueid": "MTK0435:3JJVG1YBEC44VYAN4K25X7CF86EB5S", "current_trial": 84, "dateTime": 1510869617138, "trialdata": {"rt": -1, "stimulus": "<p id=\"stim\">4</p>", "key_press": -1, "trial_type": "single-stim", "trial_index": 84, "time_elapsed": 423988, "internal_node_id": "0.0-60.0-6.0"}}, {"uniqueid": "MTK0435:3JJVG1YBEC44VYAN4K25X7CF86EB5S", "current_trial": 85, "dateTime": 1510869618144, "trialdata": {"rt": -1, "stimulus": "<p id=\"stim\">3</p>", "key_press": -1, "trial_type": "single-stim", "trial_index": 85, "time_elapsed": 424993, "internal_node_id": "0.0-60.0-7.0"}}, {"uniqueid": "MTK0435:3JJVG1YBEC44VYAN4K25X7CF86EB5S", "current_trial": 86, "dateTime": 1510869619150, "trialdata": {"rt": -1, "stimulus": "<p id=\"stim\">2</p>", "key_press": -1, "trial_type": "single-stim", "trial_index": 86, "time_elapsed": 426000, "internal_node_id": "0.0-60.0-8.0"}}, {"uniqueid": "MTK0435:3JJVG1YBEC44VYAN4K25X7CF86EB5S", "current_trial": 87, "dateTime": 1510869620156, "trialdata": {"rt": -1, "stimulus": "<p id=\"stim\">1</p>", "key_press": -1, "trial_type": "single-stim", "trial_index": 87, "time_elapsed": 427005, "internal_node_id": "0.0-60.0-9.0"}}, {"uniqueid": "MTK0435:3JJVG1YBEC44VYAN4K25X7CF86EB5S", "current_trial": 88, "dateTime": 1510869621662, "trialdata": {"rt": -1, "stimulus": "<p id=\"stim\">+</p>", "key_press": -1, "type": "FIXATION", "trial_type": "single-stim", "trial_index": 88, "time_elapsed": 428512, "internal_node_id": "0.0-61.0-0.0"}}, {"uniqueid": "MTK0435:3JJVG1YBEC44VYAN4K25X7CF86EB5S", "current_trial": 89, "dateTime": 1510869622466, "trialdata": {"rt": -1, "stimulus": "<p id=\"stim\">HORNET</p>", "key_press": -1, "type": "PRES_VIS", "word": "hornet", "wordID": 717, "conditions": [12, 800, "v", 24000], "trial": 2, "serialpos": 0, "trial_type": "single-stim", "trial_index": 89, "time_elapsed": 429316, "internal_node_id": "0.0-62.0"}}, {"uniqueid": "MTK0435:3JJVG1YBEC44VYAN4K25X7CF86EB5S", "current_trial": 90, "dateTime": 1510869624262, "trialdata": {"rt": -1, "stimulus": "<p id=\"stim\">TUBA</p>", "key_press": -1, "type": "PRES_VIS", "word": "tuba", "wordID": 1514, "conditions": [12, 800, "v", 24000], "trial": 2, "serialpos": 1, "trial_type": "single-stim", "trial_index": 90, "time_elapsed": 431112, "internal_node_id": "0.0-63.0"}}, {"uniqueid": "MTK0435:3JJVG1YBEC44VYAN4K25X7CF86EB5S", "current_trial": 91, "dateTime": 1510869625916, "trialdata": {"rt": -1, "stimulus": "<p id=\"stim\">WAITRESS</p>", "key_press": -1, "type": "PRES_VIS", "word": "waitress", "wordID": 1580, "conditions": [12, 800, "v", 24000], "trial": 2, "serialpos": 2, "trial_type": "single-stim", "trial_index": 91, "time_elapsed": 432766, "internal_node_id": "0.0-64.0"}}, {"uniqueid": "MTK0435:3JJVG1YBEC44VYAN4K25X7CF86EB5S", "current_trial": 92, "dateTime": 1510869627698, "trialdata": {"rt": -1, "stimulus": "<p id=\"stim\">CASHIER</p>", "key_press": -1, "type": "PRES_VIS", "word": "cashier", "wordID": 253, "conditions": [12, 800, "v", 24000], "trial": 2, "serialpos": 3, "trial_type": "single-stim", "trial_index": 92, "time_elapsed": 434548, "internal_node_id": "0.0-65.0"}}, {"uniqueid": "MTK0435:3JJVG1YBEC44VYAN4K25X7CF86EB5S", "current_trial": 93, "dateTime": 1510869629480, "trialdata": {"rt": -1, "stimulus": "<p id=\"stim\">DRAWING</p>", "key_press": -1, "type": "PRES_VIS", "word": "drawing", "wordID": 493, "conditions": [12, 800, "v", 24000], "trial": 2, "serialpos": 4, "trial_type": "single-stim", "trial_index": 93, "time_elapsed": 436330, "internal_node_id": "0.0-66.0"}}, {"uniqueid": "MTK0435:3JJVG1YBEC44VYAN4K25X7CF86EB5S", "current_trial": 94, "dateTime": 1510869631250, "trialdata": {"rt": -1, "stimulus": "<p id=\"stim\">PIGEON</p>", "key_press": -1, "type": "PRES_VIS", "word": "pigeon", "wordID": 1064, "conditions": [12, 800, "v", 24000], "trial": 2, "serialpos": 5, "trial_type": "single-stim", "trial_index": 94, "time_elapsed": 438100, "internal_node_id": "0.0-67.0"}}, {"uniqueid": "MTK0435:3JJVG1YBEC44VYAN4K25X7CF86EB5S", "current_trial": 95, "dateTime": 1510869633096, "trialdata": {"rt": -1, "stimulus": "<p id=\"stim\">BANJO</p>", "key_press": -1, "type": "PRES_VIS", "word": "banjo", "wordID": 81, "conditions": [12, 800, "v", 24000], "trial": 2, "serialpos": 6, "trial_type": "single-stim", "trial_index": 95, "time_elapsed": 439946, "internal_node_id": "0.0-68.0"}}, {"uniqueid": "MTK0435:3JJVG1YBEC44VYAN4K25X7CF86EB5S", "current_trial": 96, "dateTime": 1510869634878, "trialdata": {"rt": -1, "stimulus": "<p id=\"stim\">LEOPARD</p>", "key_press": -1, "type": "PRES_VIS", "word": "leopard", "wordID": 811, "conditions": [12, 800, "v", 24000], "trial": 2, "serialpos": 7, "trial_type": "single-stim", "trial_index": 96, "time_elapsed": 441728, "internal_node_id": "0.0-69.0"}}, {"uniqueid": "MTK0435:3JJVG1YBEC44VYAN4K25X7CF86EB5S", "current_trial": 97, "dateTime": 1510869636731, "trialdata": {"rt": -1, "stimulus": "<p id=\"stim\">HARP</p>", "key_press": -1, "type": "PRES_VIS", "word": "harp", "wordID": 688, "conditions": [12, 800, "v", 24000], "trial": 2, "serialpos": 8, "trial_type": "single-stim", "trial_index": 97, "time_elapsed": 443581, "internal_node_id": "0.0-70.0"}}, {"uniqueid": "MTK0435:3JJVG1YBEC44VYAN4K25X7CF86EB5S", "current_trial": 98, "dateTime": 1510869638471, "trialdata": {"rt": -1, "stimulus": "<p id=\"stim\">POLICE</p>", "key_press": -1, "type": "PRES_VIS", "word": "police", "wordID": 1097, "conditions": [12, 800, "v", 24000], "trial": 2, "serialpos": 9, "trial_type": "single-stim", "trial_index": 98, "time_elapsed": 445320, "internal_node_id": "0.0-71.0"}}, {"uniqueid": "MTK0435:3JJVG1YBEC44VYAN4K25X7CF86EB5S", "current_trial": 99, "dateTime": 1510869640200, "trialdata": {"rt": -1, "stimulus": "<p id=\"stim\">HIGHWAY</p>", "key_press": -1, "type": "PRES_VIS", "word": "highway", "wordID": 706, "conditions": [12, 800, "v", 24000], "trial": 2, "serialpos": 10, "trial_type": "single-stim", "trial_index": 99, "time_elapsed": 447050, "internal_node_id": "0.0-72.0"}}, {"uniqueid": "MTK0435:3JJVG1YBEC44VYAN4K25X7CF86EB5S", "current_trial": 100, "dateTime": 1510869642000, "trialdata": {"rt": -1, "stimulus": "<p id=\"stim\">TAXI</p>", "key_press": -1, "type": "PRES_VIS", "word": "taxi", "wordID": 1437, "conditions": [12, 800, "v", 24000], "trial": 2, "serialpos": 11, "trial_type": "single-stim", "trial_index": 100, "time_elapsed": 448849, "internal_node_id": "0.0-73.0"}}, {"uniqueid": "MTK0435:3JJVG1YBEC44VYAN4K25X7CF86EB5S", "current_trial": 101, "dateTime": 1510869644339, "trialdata": {"rt": -1, "stimulus": "", "key_press": -1, "type": "PRE_RECALL_DELAY", "trial_type": "single-stim", "trial_index": 101, "time_elapsed": 451188, "internal_node_id": "0.0-74.0-0.0"}}, {"uniqueid": "MTK0435:3JJVG1YBEC44VYAN4K25X7CF86EB5S", "current_trial": 102, "dateTime": 1510869644841, "trialdata": {"rt": -1000, "stimulus": "/static/audio/400Hz.wav", "key_press": -1, "type": "PRE_RECALL_ALERT", "trial_type": "single-audio", "trial_index": 102, "time_elapsed": 451690, "internal_node_id": "0.0-75.0"}}, {"uniqueid": "MTK0435:3JJVG1YBEC44VYAN4K25X7CF86EB5S", "current_trial": 103, "dateTime": 1510869704852, "trialdata": {"rt": [1617, 2812, 3856, 5097, 7126, 8424, 19194], "recwords": ["taxi", "police", "highway", "leopard", "waitess", "cashier", "hornet"], "type": "FREE_RECALL", "conditions": [12, 800, "v", 24000], "trial": 2, "trial_type": "free-recall", "trial_index": 103, "time_elapsed": 511697, "internal_node_id": "0.0-76.0-0.0"}}, {"uniqueid": "MTK0435:3JJVG1YBEC44VYAN4K25X7CF86EB5S", "current_trial": 104, "dateTime": 1510869708969, "trialdata": {"rt": 2115, "key_press": 32, "type": "INSTRUCTIONS", "trial_type": "text", "trial_index": 104, "time_elapsed": 515819, "internal_node_id": "0.0-77.0"}}, {"uniqueid": "MTK0435:3JJVG1YBEC44VYAN4K25X7CF86EB5S", "current_trial": 105, "dateTime": 1510869722979, "trialdata": {"rt": [2708, 7208, 8861], "responses": ["8", "23", "10"], "num1": [4, 6, 3, 3], "num2": [1, 8, 4, 8], "num3": [3, 9, 3, 5], "type": "DISTRACTOR", "conditions": [24, 1600, "a", 12000], "trial": 3, "trial_type": "math-distractor", "trial_index": 105, "time_elapsed": 529829, "internal_node_id": "0.0-78.0"}}, {"uniqueid": "MTK0435:3JJVG1YBEC44VYAN4K25X7CF86EB5S", "current_trial": 106, "dateTime": 1510869725985, "trialdata": {"rt": -1, "stimulus": "<p id=\"stim\">10</p>", "key_press": -1, "trial_type": "single-stim", "trial_index": 106, "time_elapsed": 532835, "internal_node_id": "0.0-79.0-0.0"}}, {"uniqueid": "MTK0435:3JJVG1YBEC44VYAN4K25X7CF86EB5S", "current_trial": 107, "dateTime": 1510869726991, "trialdata": {"rt": -1, "stimulus": "<p id=\"stim\">9</p>", "key_press": -1, "trial_type": "single-stim", "trial_index": 107, "time_elapsed": 533841, "internal_node_id": "0.0-79.0-1.0"}}, {"uniqueid": "MTK0435:3JJVG1YBEC44VYAN4K25X7CF86EB5S", "current_trial": 108, "dateTime": 1510869727997, "trialdata": {"rt": -1, "stimulus": "<p id=\"stim\">8</p>", "key_press": -1, "trial_type": "single-stim", "trial_index": 108, "time_elapsed": 534847, "internal_node_id": "0.0-79.0-2.0"}}, {"uniqueid": "MTK0435:3JJVG1YBEC44VYAN4K25X7CF86EB5S", "current_trial": 109, "dateTime": 1510869729003, "trialdata": {"rt": -1, "stimulus": "<p id=\"stim\">7</p>", "key_press": -1, "trial_type": "single-stim", "trial_index": 109, "time_elapsed": 535853, "internal_node_id": "0.0-79.0-3.0"}}, {"uniqueid": "MTK0435:3JJVG1YBEC44VYAN4K25X7CF86EB5S", "current_trial": 110, "dateTime": 1510869730008, "trialdata": {"rt": -1, "stimulus": "<p id=\"stim\">6</p>", "key_press": -1, "trial_type": "single-stim", "trial_index": 110, "time_elapsed": 536858, "internal_node_id": "0.0-79.0-4.0"}}, {"uniqueid": "MTK0435:3JJVG1YBEC44VYAN4K25X7CF86EB5S", "current_trial": 111, "dateTime": 1510869731011, "trialdata": {"rt": -1, "stimulus": "<p id=\"stim\">5</p>", "key_press": -1, "trial_type": "single-stim", "trial_index": 111, "time_elapsed": 537861, "internal_node_id": "0.0-79.0-5.0"}}, {"uniqueid": "MTK0435:3JJVG1YBEC44VYAN4K25X7CF86EB5S", "current_trial": 112, "dateTime": 1510869732015, "trialdata": {"rt": -1, "stimulus": "<p id=\"stim\">4</p>", "key_press": -1, "trial_type": "single-stim", "trial_index": 112, "time_elapsed": 538865, "internal_node_id": "0.0-79.0-6.0"}}, {"uniqueid": "MTK0435:3JJVG1YBEC44VYAN4K25X7CF86EB5S", "current_trial": 113, "dateTime": 1510869733021, "trialdata": {"rt": -1, "stimulus": "<p id=\"stim\">3</p>", "key_press": -1, "trial_type": "single-stim", "trial_index": 113, "time_elapsed": 539870, "internal_node_id": "0.0-79.0-7.0"}}, {"uniqueid": "MTK0435:3JJVG1YBEC44VYAN4K25X7CF86EB5S", "current_trial": 114, "dateTime": 1510869734026, "trialdata": {"rt": -1, "stimulus": "<p id=\"stim\">2</p>", "key_press": -1, "trial_type": "single-stim", "trial_index": 114, "time_elapsed": 540876, "internal_node_id": "0.0-79.0-8.0"}}, {"uniqueid": "MTK0435:3JJVG1YBEC44VYAN4K25X7CF86EB5S", "current_trial": 115, "dateTime": 1510869735032, "trialdata": {"rt": -1, "stimulus": "<p id=\"stim\">1</p>", "key_press": -1, "trial_type": "single-stim", "trial_index": 115, "time_elapsed": 541882, "internal_node_id": "0.0-79.0-9.0"}}, {"uniqueid": "MTK0435:3JJVG1YBEC44VYAN4K25X7CF86EB5S", "current_trial": 116, "dateTime": 1510869736537, "trialdata": {"rt": -1, "stimulus": "<p id=\"stim\">+</p>", "key_press": -1, "type": "FIXATION", "trial_type": "single-stim", "trial_index": 116, "time_elapsed": 543387, "internal_node_id": "0.0-80.0-0.0"}}, {"uniqueid": "MTK0435:3JJVG1YBEC44VYAN4K25X7CF86EB5S", "current_trial": 117, "dateTime": 1510869738996, "trialdata": {"rt": -1000, "stimulus": "/static/audio/wordpool/FUNGUS.wav", "key_press": -1, "type": "PRES_AUD", "word": "fungus", "wordID": 613, "conditions": [24, 1600, "a", 12000], "trial": 3, "serialpos": 0, "trial_type": "single-audio", "trial_index": 117, "time_elapsed": 545846, "internal_node_id": "0.0-81.0"}}, {"uniqueid": "MTK0435:3JJVG1YBEC44VYAN4K25X7CF86EB5S", "current_trial": 118, "dateTime": 1510869741568, "trialdata": {"rt": -1000, "stimulus": "/static/audio/wordpool/SPONGE.wav", "key_press": -1, "type": "PRES_AUD", "word": "sponge", "wordID": 1354, "conditions": [24, 1600, "a", 12000], "trial": 3, "serialpos": 1, "trial_type": "single-audio", "trial_index": 118, "time_elapsed": 548418, "internal_node_id": "0.0-82.0"}}, {"uniqueid": "MTK0435:3JJVG1YBEC44VYAN4K25X7CF86EB5S", "current_trial": 119, "dateTime": 1510869744012, "trialdata": {"rt": -1000, "stimulus": "/static/audio/wordpool/PLIERS.wav", "key_press": -1, "type": "PRES_AUD", "word": "pliers", "wordID": 1088, "conditions": [24, 1600, "a", 12000], "trial": 3, "serialpos": 2, "trial_type": "single-audio", "trial_index": 119, "time_elapsed": 550862, "internal_node_id": "0.0-83.0"}}, {"uniqueid": "MTK0435:3JJVG1YBEC44VYAN4K25X7CF86EB5S", "current_trial": 120, "dateTime": 1510869746521, "trialdata": {"rt": -1000, "stimulus": "/static/audio/wordpool/SHORTCAKE.wav", "key_press": -1, "type": "PRES_AUD", "word": "shortcake", "wordID": 1291, "conditions": [24, 1600, "a", 12000], "trial": 3, "serialpos": 3, "trial_type": "single-audio", "trial_index": 120, "time_elapsed": 553371, "internal_node_id": "0.0-84.0"}}, {"uniqueid": "MTK0435:3JJVG1YBEC44VYAN4K25X7CF86EB5S", "current_trial": 121, "dateTime": 1510869749063, "trialdata": {"rt": -1000, "stimulus": "/static/audio/wordpool/STUDENT.wav", "key_press": -1, "type": "PRES_AUD", "word": "student", "wordID": 1394, "conditions": [24, 1600, "a", 12000], "trial": 3, "serialpos": 4, "trial_type": "single-audio", "trial_index": 121, "time_elapsed": 555912, "internal_node_id": "0.0-85.0"}}, {"uniqueid": "MTK0435:3JJVG1YBEC44VYAN4K25X7CF86EB5S", "current_trial": 122, "dateTime": 1510869751652, "trialdata": {"rt": -1000, "stimulus": "/static/audio/wordpool/LAMP.wav", "key_press": -1, "type": "PRES_AUD", "word": "lamp", "wordID": 797, "conditions": [24, 1600, "a", 12000], "trial": 3, "serialpos": 5, "trial_type": "single-audio", "trial_index": 122, "time_elapsed": 558502, "internal_node_id": "0.0-86.0"}}, {"uniqueid": "MTK0435:3JJVG1YBEC44VYAN4K25X7CF86EB5S", "current_trial": 123, "dateTime": 1510869754351, "trialdata": {"rt": -1000, "stimulus": "/static/audio/wordpool/QUAIL.wav", "key_press": -1, "type": "PRES_AUD", "word": "quail", "wordID": 1146, "conditions": [24, 1600, "a", 12000], "trial": 3, "serialpos": 6, "trial_type": "single-audio", "trial_index": 123, "time_elapsed": 561201, "internal_node_id": "0.0-87.0"}}, {"uniqueid": "MTK0435:3JJVG1YBEC44VYAN4K25X7CF86EB5S", "current_trial": 124, "dateTime": 1510869756923, "trialdata": {"rt": -1000, "stimulus": "/static/audio/wordpool/TURKEY.wav", "key_press": -1, "type": "PRES_AUD", "word": "turkey", "wordID": 1519, "conditions": [24, 1600, "a", 12000], "trial": 3, "serialpos": 7, "trial_type": "single-audio", "trial_index": 124, "time_elapsed": 563773, "internal_node_id": "0.0-88.0"}}, {"uniqueid": "MTK0435:3JJVG1YBEC44VYAN4K25X7CF86EB5S", "current_trial": 125, "dateTime": 1510869759663, "trialdata": {"rt": -1000, "stimulus": "/static/audio/wordpool/DORM.wav", "key_press": -1, "type": "PRES_AUD", "word": "dorm", "wordID": 487, "conditions": [24, 1600, "a", 12000], "trial": 3, "serialpos": 8, "trial_type": "single-audio", "trial_index": 125, "time_elapsed": 566513, "internal_node_id": "0.0-89.0"}}, {"uniqueid": "MTK0435:3JJVG1YBEC44VYAN4K25X7CF86EB5S", "current_trial": 126, "dateTime": 1510869762142, "trialdata": {"rt": -1000, "stimulus": "/static/audio/wordpool/TERMITE.wav", "key_press": -1, "type": "PRES_AUD", "word": "termite", "wordID": 1450, "conditions": [24, 1600, "a", 12000], "trial": 3, "serialpos": 9, "trial_type": "single-audio", "trial_index": 126, "time_elapsed": 568992, "internal_node_id": "0.0-90.0"}}, {"uniqueid": "MTK0435:3JJVG1YBEC44VYAN4K25X7CF86EB5S", "current_trial": 127, "dateTime": 1510869764696, "trialdata": {"rt": -1000, "stimulus": "/static/audio/wordpool/OZONE.wav", "key_press": -1, "type": "PRES_AUD", "word": "ozone", "wordID": 995, "conditions": [24, 1600, "a", 12000], "trial": 3, "serialpos": 10, "trial_type": "single-audio", "trial_index": 127, "time_elapsed": 571546, "internal_node_id": "0.0-91.0"}}, {"uniqueid": "MTK0435:3JJVG1YBEC44VYAN4K25X7CF86EB5S", "current_trial": 128, "dateTime": 1510869767297, "trialdata": {"rt": -1000, "stimulus": "/static/audio/wordpool/CLOTHES.wav", "key_press": -1, "type": "PRES_AUD", "word": "clothes", "wordID": 326, "conditions": [24, 1600, "a", 12000], "trial": 3, "serialpos": 11, "trial_type": "single-audio", "trial_index": 128, "time_elapsed": 574147, "internal_node_id": "0.0-92.0"}}, {"uniqueid": "MTK0435:3JJVG1YBEC44VYAN4K25X7CF86EB5S", "current_trial": 129, "dateTime": 1510869769963, "trialdata": {"rt": -1000, "stimulus": "/static/audio/wordpool/NIGHTGOWN.wav", "key_press": -1, "type": "PRES_AUD", "word": "nightgown", "wordID": 952, "conditions": [24, 1600, "a", 12000], "trial": 3, "serialpos": 12, "trial_type": "single-audio", "trial_index": 129, "time_elapsed": 576813, "internal_node_id": "0.0-93.0"}}, {"uniqueid": "MTK0435:3JJVG1YBEC44VYAN4K25X7CF86EB5S", "current_trial": 130, "dateTime": 1510869772370, "trialdata": {"rt": -1000, "stimulus": "/static/audio/wordpool/SCARECROW.wav", "key_press": -1, "type": "PRES_AUD", "word": "scarecrow", "wordID": 1244, "conditions": [24, 1600, "a", 12000], "trial": 3, "serialpos": 13, "trial_type": "single-audio", "trial_index": 130, "time_elapsed": 579220, "internal_node_id": "0.0-94.0"}}, {"uniqueid": "MTK0435:3JJVG1YBEC44VYAN4K25X7CF86EB5S", "current_trial": 131, "dateTime": 1510869774959, "trialdata": {"rt": -1000, "stimulus": "/static/audio/wordpool/SALMON.wav", "key_press": -1, "type": "PRES_AUD", "word": "salmon", "wordID": 1226, "conditions": [24, 1600, "a", 12000], "trial": 3, "serialpos": 14, "trial_type": "single-audio", "trial_index": 131, "time_elapsed": 581809, "internal_node_id": "0.0-95.0"}}, {"uniqueid": "MTK0435:3JJVG1YBEC44VYAN4K25X7CF86EB5S", "current_trial": 132, "dateTime": 1510869777415, "trialdata": {"rt": -1000, "stimulus": "/static/audio/wordpool/COD.wav", "key_press": -1, "type": "PRES_AUD", "word": "cod", "wordID": 339, "conditions": [24, 1600, "a", 12000], "trial": 3, "serialpos": 15, "trial_type": "single-audio", "trial_index": 132, "time_elapsed": 584265, "internal_node_id": "0.0-96.0"}}, {"uniqueid": "MTK0435:3JJVG1YBEC44VYAN4K25X7CF86EB5S", "current_trial": 133, "dateTime": 1510869779836, "trialdata": {"rt": -1000, "stimulus": "/static/audio/wordpool/SUBWAY.wav", "key_press": -1, "type": "PRES_AUD", "word": "subway", "wordID": 1399, "conditions": [24, 1600, "a", 12000], "trial": 3, "serialpos": 16, "trial_type": "single-audio", "trial_index": 133, "time_elapsed": 586686, "internal_node_id": "0.0-97.0"}}, {"uniqueid": "MTK0435:3JJVG1YBEC44VYAN4K25X7CF86EB5S", "current_trial": 134, "dateTime": 1510869782491, "trialdata": {"rt": -1000, "stimulus": "/static/audio/wordpool/PROTON.wav", "key_press": -1, "type": "PRES_AUD", "word": "proton", "wordID": 1131, "conditions": [24, 1600, "a", 12000], "trial": 3, "serialpos": 17, "trial_type": "single-audio", "trial_index": 134, "time_elapsed": 589341, "internal_node_id": "0.0-98.0"}}, {"uniqueid": "MTK0435:3JJVG1YBEC44VYAN4K25X7CF86EB5S", "current_trial": 135, "dateTime": 1510869784904, "trialdata": {"rt": -1000, "stimulus": "/static/audio/wordpool/COMET.wav", "key_press": -1, "type": "PRES_AUD", "word": "comet", "wordID": 352, "conditions": [24, 1600, "a", 12000], "trial": 3, "serialpos": 18, "trial_type": "single-audio", "trial_index": 135, "time_elapsed": 591754, "internal_node_id": "0.0-99.0"}}, {"uniqueid": "MTK0435:3JJVG1YBEC44VYAN4K25X7CF86EB5S", "current_trial": 136, "dateTime": 1510869787690, "trialdata": {"rt": -1000, "stimulus": "/static/audio/wordpool/SEAFOOD.wav", "key_press": -1, "type": "PRES_AUD", "word": "seafood", "wordID": 1259, "conditions": [24, 1600, "a", 12000], "trial": 3, "serialpos": 19, "trial_type": "single-audio", "trial_index": 136, "time_elapsed": 594540, "internal_node_id": "0.0-100.0"}}, {"uniqueid": "MTK0435:3JJVG1YBEC44VYAN4K25X7CF86EB5S", "current_trial": 137, "dateTime": 1510869790396, "trialdata": {"rt": -1000, "stimulus": "/static/audio/wordpool/ARMY.wav", "key_press": -1, "type": "PRES_AUD", "word": "army", "wordID": 38, "conditions": [24, 1600, "a", 12000], "trial": 3, "serialpos": 20, "trial_type": "single-audio", "trial_index": 137, "time_elapsed": 597245, "internal_node_id": "0.0-101.0"}}, {"uniqueid": "MTK0435:3JJVG1YBEC44VYAN4K25X7CF86EB5S", "current_trial": 138, "dateTime": 1510869792863, "trialdata": {"rt": -1000, "stimulus": "/static/audio/wordpool/KLEENEX.wav", "key_press": -1, "type": "PRES_AUD", "word": "kleenex", "wordID": 781, "conditions": [24, 1600, "a", 12000], "trial": 3, "serialpos": 21, "trial_type": "single-audio", "trial_index": 138, "time_elapsed": 599713, "internal_node_id": "0.0-102.0"}}, {"uniqueid": "MTK0435:3JJVG1YBEC44VYAN4K25X7CF86EB5S", "current_trial": 139, "dateTime": 1510869795307, "trialdata": {"rt": -1000, "stimulus": "/static/audio/wordpool/PARSLEY.wav", "key_press": -1, "type": "PRES_AUD", "word": "parsley", "wordID": 1015, "conditions": [24, 1600, "a", 12000], "trial": 3, "serialpos": 22, "trial_type": "single-audio", "trial_index": 139, "time_elapsed": 602157, "internal_node_id": "0.0-103.0"}}, {"uniqueid": "MTK0435:3JJVG1YBEC44VYAN4K25X7CF86EB5S", "current_trial": 140, "dateTime": 1510869797919, "trialdata": {"rt": -1000, "stimulus": "/static/audio/wordpool/BLOUSE.wav", "key_press": -1, "type": "PRES_AUD", "word": "blouse", "wordID": 138, "conditions": [24, 1600, "a", 12000], "trial": 3, "serialpos": 23, "trial_type": "single-audio", "trial_index": 140, "time_elapsed": 604769, "internal_node_id": "0.0-104.0"}}, {"uniqueid": "MTK0435:3JJVG1YBEC44VYAN4K25X7CF86EB5S", "current_trial": 141, "dateTime": 1510869799237, "trialdata": {"rt": -1, "stimulus": "", "key_press": -1, "type": "PRE_RECALL_DELAY", "trial_type": "single-stim", "trial_index": 141, "time_elapsed": 606087, "internal_node_id": "0.0-105.0-0.0"}}, {"uniqueid": "MTK0435:3JJVG1YBEC44VYAN4K25X7CF86EB5S", "current_trial": 142, "dateTime": 1510869799739, "trialdata": {"rt": 248.2993197278347, "stimulus": "/static/audio/400Hz.wav", "key_press": 16, "type": "PRE_RECALL_ALERT", "trial_type": "single-audio", "trial_index": 142, "time_elapsed": 606588, "internal_node_id": "0.0-106.0"}}, {"uniqueid": "MTK0435:3JJVG1YBEC44VYAN4K25X7CF86EB5S", "current_trial": 143, "dateTime": 1510869859750, "trialdata": {"rt": [1239, 3341, 7375, 9187, 12140, 13061, 14441, 15513, 20186], "recwords": ["blouse", "kleenex", "parsley", "dorm", "turkey", "quail", "nightgown", "clothes", "cod"], "type": "FREE_RECALL", "conditions": [24, 1600, "a", 12000], "trial": 3, "trial_type": "free-recall", "trial_index": 143, "time_elapsed": 666597, "internal_node_id": "0.0-107.0-0.0"}}, {"uniqueid": "MTK0435:3JJVG1YBEC44VYAN4K25X7CF86EB5S", "current_trial": 144, "dateTime": 1510869863505, "trialdata": {"rt": 1750, "key_press": 32, "type": "INSTRUCTIONS", "trial_type": "text", "trial_index": 144, "time_elapsed": 670355, "internal_node_id": "0.0-108.0"}}, {"uniqueid": "MTK0435:3JJVG1YBEC44VYAN4K25X7CF86EB5S", "current_trial": 145, "dateTime": 1510869889517, "trialdata": {"rt": [2964, 11239, 15403, 17068, 19650, 23679], "responses": ["11", "25", "21", "13", "220", "26"], "num1": [7, 9, 9, 6, 8, 7, 6], "num2": [2, 7, 5, 5, 7, 9, 9], "num3": [2, 9, 7, 2, 5, 9, 4], "type": "DISTRACTOR", "conditions": [12, 800, "a", 24000], "trial": 4, "trial_type": "math-distractor", "trial_index": 145, "time_elapsed": 696366, "internal_node_id": "0.0-109.0"}}, {"uniqueid": "MTK0435:3JJVG1YBEC44VYAN4K25X7CF86EB5S", "current_trial": 146, "dateTime": 1510869892525, "trialdata": {"rt": -1, "stimulus": "<p id=\"stim\">10</p>", "key_press": -1, "trial_type": "single-stim", "trial_index": 146, "time_elapsed": 699374, "internal_node_id": "0.0-110.0-0.0"}}, {"uniqueid": "MTK0435:3JJVG1YBEC44VYAN4K25X7CF86EB5S", "current_trial": 147, "dateTime": 1510869893531, "trialdata": {"rt": -1, "stimulus": "<p id=\"stim\">9</p>", "key_press": -1, "trial_type": "single-stim", "trial_index": 147, "time_elapsed": 700380, "internal_node_id": "0.0-110.0-1.0"}}, {"uniqueid": "MTK0435:3JJVG1YBEC44VYAN4K25X7CF86EB5S", "current_trial": 148, "dateTime": 1510869894536, "trialdata": {"rt": -1, "stimulus": "<p id=\"stim\">8</p>", "key_press": -1, "trial_type": "single-stim", "trial_index": 148, "time_elapsed": 701386, "internal_node_id": "0.0-110.0-2.0"}}, {"uniqueid": "MTK0435:3JJVG1YBEC44VYAN4K25X7CF86EB5S", "current_trial": 149, "dateTime": 1510869895542, "trialdata": {"rt": -1, "stimulus": "<p id=\"stim\">7</p>", "key_press": -1, "trial_type": "single-stim", "trial_index": 149, "time_elapsed": 702392, "internal_node_id": "0.0-110.0-3.0"}}, {"uniqueid": "MTK0435:3JJVG1YBEC44VYAN4K25X7CF86EB5S", "current_trial": 150, "dateTime": 1510869896549, "trialdata": {"rt": -1, "stimulus": "<p id=\"stim\">6</p>", "key_press": -1, "trial_type": "single-stim", "trial_index": 150, "time_elapsed": 703399, "internal_node_id": "0.0-110.0-4.0"}}, {"uniqueid": "MTK0435:3JJVG1YBEC44VYAN4K25X7CF86EB5S", "current_trial": 151, "dateTime": 1510869897555, "trialdata": {"rt": -1, "stimulus": "<p id=\"stim\">5</p>", "key_press": -1, "trial_type": "single-stim", "trial_index": 151, "time_elapsed": 704404, "internal_node_id": "0.0-110.0-5.0"}}, {"uniqueid": "MTK0435:3JJVG1YBEC44VYAN4K25X7CF86EB5S", "current_trial": 152, "dateTime": 1510869898559, "trialdata": {"rt": -1, "stimulus": "<p id=\"stim\">4</p>", "key_press": -1, "trial_type": "single-stim", "trial_index": 152, "time_elapsed": 705409, "internal_node_id": "0.0-110.0-6.0"}}, {"uniqueid": "MTK0435:3JJVG1YBEC44VYAN4K25X7CF86EB5S", "current_trial": 153, "dateTime": 1510869899565, "trialdata": {"rt": -1, "stimulus": "<p id=\"stim\">3</p>", "key_press": -1, "trial_type": "single-stim", "trial_index": 153, "time_elapsed": 706415, "internal_node_id": "0.0-110.0-7.0"}}, {"uniqueid": "MTK0435:3JJVG1YBEC44VYAN4K25X7CF86EB5S", "current_trial": 154, "dateTime": 1510869900571, "trialdata": {"rt": -1, "stimulus": "<p id=\"stim\">2</p>", "key_press": -1, "trial_type": "single-stim", "trial_index": 154, "time_elapsed": 707421, "internal_node_id": "0.0-110.0-8.0"}}, {"uniqueid": "MTK0435:3JJVG1YBEC44VYAN4K25X7CF86EB5S", "current_trial": 155, "dateTime": 1510869901577, "trialdata": {"rt": -1, "stimulus": "<p id=\"stim\">1</p>", "key_press": -1, "trial_type": "single-stim", "trial_index": 155, "time_elapsed": 708427, "internal_node_id": "0.0-110.0-9.0"}}, {"uniqueid": "MTK0435:3JJVG1YBEC44VYAN4K25X7CF86EB5S", "current_trial": 156, "dateTime": 1510869903080, "trialdata": {"rt": -1, "stimulus": "<p id=\"stim\">+</p>", "key_press": -1, "type": "FIXATION", "trial_type": "single-stim", "trial_index": 156, "time_elapsed": 709930, "internal_node_id": "0.0-111.0-0.0"}}, {"uniqueid": "MTK0435:3JJVG1YBEC44VYAN4K25X7CF86EB5S", "current_trial": 157, "dateTime": 1510869904826, "trialdata": {"rt": -1000, "stimulus": "/static/audio/wordpool/ANKLE.wav", "key_press": -1, "type": "PRES_AUD", "word": "ankle", "wordID": 23, "conditions": [12, 800, "a", 24000], "trial": 4, "serialpos": 0, "trial_type": "single-audio", "trial_index": 157, "time_elapsed": 711676, "internal_node_id": "0.0-112.0"}}, {"uniqueid": "MTK0435:3JJVG1YBEC44VYAN4K25X7CF86EB5S", "current_trial": 158, "dateTime": 1510869906486, "trialdata": {"rt": -1000, "stimulus": "/static/audio/wordpool/LAGOON.wav", "key_press": -1, "type": "PRES_AUD", "word": "lagoon", "wordID": 794, "conditions": [12, 800, "a", 24000], "trial": 4, "serialpos": 1, "trial_type": "single-audio", "trial_index": 158, "time_elapsed": 713336, "internal_node_id": "0.0-113.0"}}, {"uniqueid": "MTK0435:3JJVG1YBEC44VYAN4K25X7CF86EB5S", "current_trial": 159, "dateTime": 1510869908141, "trialdata": {"rt": -1000, "stimulus": "/static/audio/wordpool/BLUEPRINT.wav", "key_press": -1, "type": "PRES_AUD", "word": "blueprint", "wordID": 141, "conditions": [12, 800, "a", 24000], "trial": 4, "serialpos": 2, "trial_type": "single-audio", "trial_index": 159, "time_elapsed": 714990, "internal_node_id": "0.0-114.0"}}, {"uniqueid": "MTK0435:3JJVG1YBEC44VYAN4K25X7CF86EB5S", "current_trial": 160, "dateTime": 1510869910004, "trialdata": {"rt": -1000, "stimulus": "/static/audio/wordpool/BASEMENT.wav", "key_press": -1, "type": "PRES_AUD", "word": "basement", "wordID": 93, "conditions": [12, 800, "a", 24000], "trial": 4, "serialpos": 3, "trial_type": "single-audio", "trial_index": 160, "time_elapsed": 716854, "internal_node_id": "0.0-115.0"}}, {"uniqueid": "MTK0435:3JJVG1YBEC44VYAN4K25X7CF86EB5S", "current_trial": 161, "dateTime": 1510869911891, "trialdata": {"rt": -1000, "stimulus": "/static/audio/wordpool/CELLAR.wav", "key_press": -1, "type": "PRES_AUD", "word": "cellar", "wordID": 266, "conditions": [12, 800, "a", 24000], "trial": 4, "serialpos": 4, "trial_type": "single-audio", "trial_index": 161, "time_elapsed": 718741, "internal_node_id": "0.0-116.0"}}, {"uniqueid": "MTK0435:3JJVG1YBEC44VYAN4K25X7CF86EB5S", "current_trial": 162, "dateTime": 1510869913884, "trialdata": {"rt": -1000, "stimulus": "/static/audio/wordpool/SUPPER.wav", "key_press": -1, "type": "PRES_AUD", "word": "supper", "wordID": 1410, "conditions": [12, 800, "a", 24000], "trial": 4, "serialpos": 5, "trial_type": "single-audio", "trial_index": 162, "time_elapsed": 720734, "internal_node_id": "0.0-117.0"}}, {"uniqueid": "MTK0435:3JJVG1YBEC44VYAN4K25X7CF86EB5S", "current_trial": 163, "dateTime": 1510869915589, "trialdata": {"rt": -1000, "stimulus": "/static/audio/wordpool/CRATER.wav", "key_press": -1, "type": "PRES_AUD", "word": "crater", "wordID": 399, "conditions": [12, 800, "a", 24000], "trial": 4, "serialpos": 6, "trial_type": "single-audio", "trial_index": 163, "time_elapsed": 722439, "internal_node_id": "0.0-118.0"}}, {"uniqueid": "MTK0435:3JJVG1YBEC44VYAN4K25X7CF86EB5S", "current_trial": 164, "dateTime": 1510869917539, "trialdata": {"rt": -1000, "stimulus": "/static/audio/wordpool/SHOVEL.wav", "key_press": -1, "type": "PRES_AUD", "word": "shovel", "wordID": 1294, "conditions": [12, 800, "a", 24000], "trial": 4, "serialpos": 7, "trial_type": "single-audio", "trial_index": 164, "time_elapsed": 724389, "internal_node_id": "0.0-119.0"}}, {"uniqueid": "MTK0435:3JJVG1YBEC44VYAN4K25X7CF86EB5S", "current_trial": 165, "dateTime": 1510869919426, "trialdata": {"rt": -1000, "stimulus": "/static/audio/wordpool/FRUIT.wav", "key_press": -1, "type": "PRES_AUD", "word": "fruit", "wordID": 609, "conditions": [12, 800, "a", 24000], "trial": 4, "serialpos": 8, "trial_type": "single-audio", "trial_index": 165, "time_elapsed": 726276, "internal_node_id": "0.0-120.0"}}, {"uniqueid": "MTK0435:3JJVG1YBEC44VYAN4K25X7CF86EB5S", "current_trial": 166, "dateTime": 1510869921324, "trialdata": {"rt": -1000, "stimulus": "/static/audio/wordpool/ORANGE.wav", "key_press": -1, "type": "PRES_AUD", "word": "orange", "wordID": 979, "conditions": [12, 800, "a", 24000], "trial": 4, "serialpos": 9, "trial_type": "single-audio", "trial_index": 166, "time_elapsed": 728174, "internal_node_id": "0.0-121.0"}}, {"uniqueid": "MTK0435:3JJVG1YBEC44VYAN4K25X7CF86EB5S", "current_trial": 167, "dateTime": 1510869923251, "trialdata": {"rt": -1000, "stimulus": "/static/audio/wordpool/SHELTER.wav", "key_press": -1, "type": "PRES_AUD", "word": "shelter", "wordID": 1281, "conditions": [12, 800, "a", 24000], "trial": 4, "serialpos": 10, "trial_type": "single-audio", "trial_index": 167, "time_elapsed": 730101, "internal_node_id": "0.0-122.0"}}, {"uniqueid": "MTK0435:3JJVG1YBEC44VYAN4K25X7CF86EB5S", "current_trial": 168, "dateTime": 1510869925092, "trialdata": {"rt": -1000, "stimulus": "/static/audio/wordpool/LAVA.wav", "key_press": -1, "type": "PRES_AUD", "word": "lava", "wordID": 803, "conditions": [12, 800, "a", 24000], "trial": 4, "serialpos": 11, "trial_type": "single-audio", "trial_index": 168, "time_elapsed": 731942, "internal_node_id": "0.0-123.0"}}, {"uniqueid": "MTK0435:3JJVG1YBEC44VYAN4K25X7CF86EB5S", "current_trial": 169, "dateTime": 1510869926346, "trialdata": {"rt": -1, "stimulus": "", "key_press": -1, "type": "PRE_RECALL_DELAY", "trial_type": "single-stim", "trial_index": 169, "time_elapsed": 733196, "internal_node_id": "0.0-124.0-0.0"}}, {"uniqueid": "MTK0435:3JJVG1YBEC44VYAN4K25X7CF86EB5S", "current_trial": 170, "dateTime": 1510869926848, "trialdata": {"rt": -1000, "stimulus": "/static/audio/400Hz.wav", "key_press": -1, "type": "PRE_RECALL_ALERT", "trial_type": "single-audio", "trial_index": 170, "time_elapsed": 733697, "internal_node_id": "0.0-125.0"}}, {"uniqueid": "MTK0435:3JJVG1YBEC44VYAN4K25X7CF86EB5S", "current_trial": 171, "dateTime": 1510869986859, "trialdata": {"rt": [1086, 2832, 3801, 4707, 5858, 6858, 15462, 16879, 18385], "recwords": ["lava", "shelter", "fruit", "orange", "basement", "cellar", "ankle", "lagoon", "comet"], "type": "FREE_RECALL", "conditions": [12, 800, "a", 24000], "trial": 4, "trial_type": "free-recall", "trial_index": 171, "time_elapsed": 793705, "internal_node_id": "0.0-126.0-0.0"}}, {"uniqueid": "MTK0435:3JJVG1YBEC44VYAN4K25X7CF86EB5S", "current_trial": 172, "dateTime": 1510869989678, "trialdata": {"rt": 815, "key_press": 32, "type": "INSTRUCTIONS", "trial_type": "text", "trial_index": 172, "time_elapsed": 796528, "internal_node_id": "0.0-127.0"}}, {"uniqueid": "MTK0435:3JJVG1YBEC44VYAN4K25X7CF86EB5S", "current_trial": 173, "dateTime": 1510870015685, "trialdata": {"rt": [2110, 4676, 6993, 8962, 10480, 11953, 13912, 15308, 16822, 18150, 20235, 21394, 23186], "responses": ["11", "15", "21", "20", "12", "12", "17", "17", "16", "12", "15", "11", "17"], "num1": [5, 2, 5, 4, 9, 3, 2, 5, 9, 3, 4, 7, 3, 3], "num2": [1, 6, 8, 7, 1, 5, 6, 5, 1, 5, 6, 3, 6, 5], "num3": [5, 7, 8, 9, 2, 4, 9, 7, 6, 4, 5, 1, 8, 3], "type": "DISTRACTOR", "conditions": [24, 800, "v", 24000], "trial": 5, "trial_type": "math-distractor", "trial_index": 173, "time_elapsed": 822535, "internal_node_id": "0.0-128.0"}}, {"uniqueid": "MTK0435:3JJVG1YBEC44VYAN4K25X7CF86EB5S", "current_trial": 174, "dateTime": 1510870018691, "trialdata": {"rt": -1, "stimulus": "<p id=\"stim\">10</p>", "key_press": -1, "trial_type": "single-stim", "trial_index": 174, "time_elapsed": 825541, "internal_node_id": "0.0-129.0-0.0"}}, {"uniqueid": "MTK0435:3JJVG1YBEC44VYAN4K25X7CF86EB5S", "current_trial": 175, "dateTime": 1510870019695, "trialdata": {"rt": -1, "stimulus": "<p id=\"stim\">9</p>", "key_press": -1, "trial_type": "single-stim", "trial_index": 175, "time_elapsed": 826545, "internal_node_id": "0.0-129.0-1.0"}}, {"uniqueid": "MTK0435:3JJVG1YBEC44VYAN4K25X7CF86EB5S", "current_trial": 176, "dateTime": 1510870020699, "trialdata": {"rt": -1, "stimulus": "<p id=\"stim\">8</p>", "key_press": -1, "trial_type": "single-stim", "trial_index": 176, "time_elapsed": 827549, "internal_node_id": "0.0-129.0-2.0"}}, {"uniqueid": "MTK0435:3JJVG1YBEC44VYAN4K25X7CF86EB5S", "current_trial": 177, "dateTime": 1510870021704, "trialdata": {"rt": -1, "stimulus": "<p id=\"stim\">7</p>", "key_press": -1, "trial_type": "single-stim", "trial_index": 177, "time_elapsed": 828554, "internal_node_id": "0.0-129.0-3.0"}}, {"uniqueid": "MTK0435:3JJVG1YBEC44VYAN4K25X7CF86EB5S", "current_trial": 178, "dateTime": 1510870022708, "trialdata": {"rt": -1, "stimulus": "<p id=\"stim\">6</p>", "key_press": -1, "trial_type": "single-stim", "trial_index": 178, "time_elapsed": 829558, "internal_node_id": "0.0-129.0-4.0"}}, {"uniqueid": "MTK0435:3JJVG1YBEC44VYAN4K25X7CF86EB5S", "current_trial": 179, "dateTime": 1510870023712, "trialdata": {"rt": -1, "stimulus": "<p id=\"stim\">5</p>", "key_press": -1, "trial_type": "single-stim", "trial_index": 179, "time_elapsed": 830561, "internal_node_id": "0.0-129.0-5.0"}}, {"uniqueid": "MTK0435:3JJVG1YBEC44VYAN4K25X7CF86EB5S", "current_trial": 180, "dateTime": 1510870024716, "trialdata": {"rt": -1, "stimulus": "<p id=\"stim\">4</p>", "key_press": -1, "trial_type": "single-stim", "trial_index": 180, "time_elapsed": 831566, "internal_node_id": "0.0-129.0-6.0"}}, {"uniqueid": "MTK0435:3JJVG1YBEC44VYAN4K25X7CF86EB5S", "current_trial": 181, "dateTime": 1510870025720, "trialdata": {"rt": -1, "stimulus": "<p id=\"stim\">3</p>", "key_press": -1, "trial_type": "single-stim", "trial_index": 181, "time_elapsed": 832570, "internal_node_id": "0.0-129.0-7.0"}}, {"uniqueid": "MTK0435:3JJVG1YBEC44VYAN4K25X7CF86EB5S", "current_trial": 182, "dateTime": 1510870026724, "trialdata": {"rt": -1, "stimulus": "<p id=\"stim\">2</p>", "key_press": -1, "trial_type": "single-stim", "trial_index": 182, "time_elapsed": 833574, "internal_node_id": "0.0-129.0-8.0"}}, {"uniqueid": "MTK0435:3JJVG1YBEC44VYAN4K25X7CF86EB5S", "current_trial": 183, "dateTime": 1510870027728, "trialdata": {"rt": -1, "stimulus": "<p id=\"stim\">1</p>", "key_press": -1, "trial_type": "single-stim", "trial_index": 183, "time_elapsed": 834578, "internal_node_id": "0.0-129.0-9.0"}}, {"uniqueid": "MTK0435:3JJVG1YBEC44VYAN4K25X7CF86EB5S", "current_trial": 184, "dateTime": 1510870029232, "trialdata": {"rt": -1, "stimulus": "<p id=\"stim\">+</p>", "key_press": -1, "type": "FIXATION", "trial_type": "single-stim", "trial_index": 184, "time_elapsed": 836081, "internal_node_id": "0.0-130.0-0.0"}}, {"uniqueid": "MTK0435:3JJVG1YBEC44VYAN4K25X7CF86EB5S", "current_trial": 185, "dateTime": 1510870030033, "trialdata": {"rt": -1, "stimulus": "<p id=\"stim\">GRILL</p>", "key_press": -1, "type": "PRES_VIS", "word": "grill", "wordID": 660, "conditions": [24, 800, "v", 24000], "trial": 5, "serialpos": 0, "trial_type": "single-stim", "trial_index": 185, "time_elapsed": 836883, "internal_node_id": "0.0-131.0"}}, {"uniqueid": "MTK0435:3JJVG1YBEC44VYAN4K25X7CF86EB5S", "current_trial": 186, "dateTime": 1510870031821, "trialdata": {"rt": -1, "stimulus": "<p id=\"stim\">EYELASH</p>", "key_press": -1, "type": "PRES_VIS", "word": "eyelash", "wordID": 545, "conditions": [24, 800, "v", 24000], "trial": 5, "serialpos": 1, "trial_type": "single-stim", "trial_index": 186, "time_elapsed": 838671, "internal_node_id": "0.0-132.0"}}, {"uniqueid": "MTK0435:3JJVG1YBEC44VYAN4K25X7CF86EB5S", "current_trial": 187, "dateTime": 1510870033620, "trialdata": {"rt": -1, "stimulus": "<p id=\"stim\">GLOVE</p>", "key_press": -1, "type": "PRES_VIS", "word": "glove", "wordID": 641, "conditions": [24, 800, "v", 24000], "trial": 5, "serialpos": 2, "trial_type": "single-stim", "trial_index": 187, "time_elapsed": 840470, "internal_node_id": "0.0-133.0"}}, {"uniqueid": "MTK0435:3JJVG1YBEC44VYAN4K25X7CF86EB5S", "current_trial": 188, "dateTime": 1510870035541, "trialdata": {"rt": -1, "stimulus": "<p id=\"stim\">ROBBER</p>", "key_press": -1, "type": "PRES_VIS", "word": "robber", "wordID": 1196, "conditions": [24, 800, "v", 24000], "trial": 5, "serialpos": 3, "trial_type": "single-stim", "trial_index": 188, "time_elapsed": 842391, "internal_node_id": "0.0-134.0"}}, {"uniqueid": "MTK0435:3JJVG1YBEC44VYAN4K25X7CF86EB5S", "current_trial": 189, "dateTime": 1510870037474, "trialdata": {"rt": -1, "stimulus": "<p id=\"stim\">GOBLIN</p>", "key_press": -1, "type": "PRES_VIS", "word": "goblin", "wordID": 644, "conditions": [24, 800, "v", 24000], "trial": 5, "serialpos": 4, "trial_type": "single-stim", "trial_index": 189, "time_elapsed": 844324, "internal_node_id": "0.0-135.0"}}, {"uniqueid": "MTK0435:3JJVG1YBEC44VYAN4K25X7CF86EB5S", "current_trial": 190, "dateTime": 1510870039314, "trialdata": {"rt": -1, "stimulus": "<p id=\"stim\">DRAGON</p>", "key_press": -1, "type": "PRES_VIS", "word": "dragon", "wordID": 491, "conditions": [24, 800, "v", 24000], "trial": 5, "serialpos": 5, "trial_type": "single-stim", "trial_index": 190, "time_elapsed": 846163, "internal_node_id": "0.0-136.0"}}, {"uniqueid": "MTK0435:3JJVG1YBEC44VYAN4K25X7CF86EB5S", "current_trial": 191, "dateTime": 1510870040962, "trialdata": {"rt": -1, "stimulus": "<p id=\"stim\">HERO</p>", "key_press": -1, "type": "PRES_VIS", "word": "hero", "wordID": 705, "conditions": [24, 800, "v", 24000], "trial": 5, "serialpos": 6, "trial_type": "single-stim", "trial_index": 191, "time_elapsed": 847812, "internal_node_id": "0.0-137.0"}}, {"uniqueid": "MTK0435:3JJVG1YBEC44VYAN4K25X7CF86EB5S", "current_trial": 192, "dateTime": 1510870042605, "trialdata": {"rt": -1, "stimulus": "<p id=\"stim\">STALLION</p>", "key_press": -1, "type": "PRES_VIS", "word": "stallion", "wordID": 1368, "conditions": [24, 800, "v", 24000], "trial": 5, "serialpos": 7, "trial_type": "single-stim", "trial_index": 192, "time_elapsed": 849455, "internal_node_id": "0.0-138.0"}}, {"uniqueid": "MTK0435:3JJVG1YBEC44VYAN4K25X7CF86EB5S", "current_trial": 193, "dateTime": 1510870044290, "trialdata": {"rt": -1, "stimulus": "<p id=\"stim\">BRANCH</p>", "key_press": -1, "type": "PRES_VIS", "word": "branch", "wordID": 167, "conditions": [24, 800, "v", 24000], "trial": 5, "serialpos": 8, "trial_type": "single-stim", "trial_index": 193, "time_elapsed": 851138, "internal_node_id": "0.0-139.0"}}, {"uniqueid": "MTK0435:3JJVG1YBEC44VYAN4K25X7CF86EB5S", "current_trial": 194, "dateTime": 1510870046006, "trialdata": {"rt": -1, "stimulus": "<p id=\"stim\">CIGAR</p>", "key_press": -1, "type": "PRES_VIS", "word": "cigar", "wordID": 307, "conditions": [24, 800, "v", 24000], "trial": 5, "serialpos": 9, "trial_type": "single-stim", "trial_index": 194, "time_elapsed": 852856, "internal_node_id": "0.0-140.0"}}, {"uniqueid": "MTK0435:3JJVG1YBEC44VYAN4K25X7CF86EB5S", "current_trial": 195, "dateTime": 1510870047834, "trialdata": {"rt": -1, "stimulus": "<p id=\"stim\">THIEF</p>", "key_press": -1, "type": "PRES_VIS", "word": "thief", "wordID": 1455, "conditions": [24, 800, "v", 24000], "trial": 5, "serialpos": 10, "trial_type": "single-stim", "trial_index": 195, "time_elapsed": 854684, "internal_node_id": "0.0-141.0"}}, {"uniqueid": "MTK0435:3JJVG1YBEC44VYAN4K25X7CF86EB5S", "current_trial": 196, "dateTime": 1510870049738, "trialdata": {"rt": -1, "stimulus": "<p id=\"stim\">COUNTY</p>", "key_press": -1, "type": "PRES_VIS", "word": "county", "wordID": 388, "conditions": [24, 800, "v", 24000], "trial": 5, "serialpos": 11, "trial_type": "single-stim", "trial_index": 196, "time_elapsed": 856588, "internal_node_id": "0.0-142.0"}}, {"uniqueid": "MTK0435:3JJVG1YBEC44VYAN4K25X7CF86EB5S", "current_trial": 197, "dateTime": 1510870051468, "trialdata": {"rt": -1, "stimulus": "<p id=\"stim\">SCARF</p>", "key_press": -1, "type": "PRES_VIS", "word": "scarf", "wordID": 1245, "conditions": [24, 800, "v", 24000], "trial": 5, "serialpos": 12, "trial_type": "single-stim", "trial_index": 197, "time_elapsed": 858318, "internal_node_id": "0.0-143.0"}}, {"uniqueid": "MTK0435:3JJVG1YBEC44VYAN4K25X7CF86EB5S", "current_trial": 198, "dateTime": 1510870053191, "trialdata": {"rt": -1, "stimulus": "<p id=\"stim\">DRESS</p>", "key_press": -1, "type": "PRES_VIS", "word": "dress", "wordID": 494, "conditions": [24, 800, "v", 24000], "trial": 5, "serialpos": 13, "trial_type": "single-stim", "trial_index": 198, "time_elapsed": 860041, "internal_node_id": "0.0-144.0"}}, {"uniqueid": "MTK0435:3JJVG1YBEC44VYAN4K25X7CF86EB5S", "current_trial": 199, "dateTime": 1510870055113, "trialdata": {"rt": -1, "stimulus": "<p id=\"stim\">LABEL</p>", "key_press": -1, "type": "PRES_VIS", "word": "label", "wordID": 789, "conditions": [24, 800, "v", 24000], "trial": 5, "serialpos": 14, "trial_type": "single-stim", "trial_index": 199, "time_elapsed": 861962, "internal_node_id": "0.0-145.0"}}, {"uniqueid": "MTK0435:3JJVG1YBEC44VYAN4K25X7CF86EB5S", "current_trial": 200, "dateTime": 1510870056866, "trialdata": {"rt": -1, "stimulus": "<p id=\"stim\">BEAVER</p>", "key_press": -1, "type": "PRES_VIS", "word": "beaver", "wordID": 108, "conditions": [24, 800, "v", 24000], "trial": 5, "serialpos": 15, "trial_type": "single-stim", "trial_index": 200, "time_elapsed": 863715, "internal_node_id": "0.0-146.0"}}, {"uniqueid": "MTK0435:3JJVG1YBEC44VYAN4K25X7CF86EB5S", "current_trial": 201, "dateTime": 1510870058676, "trialdata": {"rt": -1, "stimulus": "<p id=\"stim\">AIRPLANE</p>", "key_press": -1, "type": "PRES_VIS", "word": "airplane", "wordID": 11, "conditions": [24, 800, "v", 24000], "trial": 5, "serialpos": 16, "trial_type": "single-stim", "trial_index": 201, "time_elapsed": 865526, "internal_node_id": "0.0-147.0"}}, {"uniqueid": "MTK0435:3JJVG1YBEC44VYAN4K25X7CF86EB5S", "current_trial": 202, "dateTime": 1510870060667, "trialdata": {"rt": -1, "stimulus": "<p id=\"stim\">ROBOT</p>", "key_press": -1, "type": "PRES_VIS", "word": "robot", "wordID": 1199, "conditions": [24, 800, "v", 24000], "trial": 5, "serialpos": 17, "trial_type": "single-stim", "trial_index": 202, "time_elapsed": 867517, "internal_node_id": "0.0-148.0"}}, {"uniqueid": "MTK0435:3JJVG1YBEC44VYAN4K25X7CF86EB5S", "current_trial": 203, "dateTime": 1510870062385, "trialdata": {"rt": -1, "stimulus": "<p id=\"stim\">PATROL</p>", "key_press": -1, "type": "PRES_VIS", "word": "patrol", "wordID": 1026, "conditions": [24, 800, "v", 24000], "trial": 5, "serialpos": 18, "trial_type": "single-stim", "trial_index": 203, "time_elapsed": 869235, "internal_node_id": "0.0-149.0"}}, {"uniqueid": "MTK0435:3JJVG1YBEC44VYAN4K25X7CF86EB5S", "current_trial": 204, "dateTime": 1510870064016, "trialdata": {"rt": -1, "stimulus": "<p id=\"stim\">RABBIT</p>", "key_press": -1, "type": "PRES_VIS", "word": "rabbit", "wordID": 1151, "conditions": [24, 800, "v", 24000], "trial": 5, "serialpos": 19, "trial_type": "single-stim", "trial_index": 204, "time_elapsed": 870866, "internal_node_id": "0.0-150.0"}}, {"uniqueid": "MTK0435:3JJVG1YBEC44VYAN4K25X7CF86EB5S", "current_trial": 205, "dateTime": 1510870065856, "trialdata": {"rt": -1, "stimulus": "<p id=\"stim\">RECORD</p>", "key_press": -1, "type": "PRES_VIS", "word": "record", "wordID": 1175, "conditions": [24, 800, "v", 24000], "trial": 5, "serialpos": 20, "trial_type": "single-stim", "trial_index": 205, "time_elapsed": 872706, "internal_node_id": "0.0-151.0"}}, {"uniqueid": "MTK0435:3JJVG1YBEC44VYAN4K25X7CF86EB5S", "current_trial": 206, "dateTime": 1510870067722, "trialdata": {"rt": -1, "stimulus": "<p id=\"stim\">UNCLE</p>", "key_press": -1, "type": "PRES_VIS", "word": "uncle", "wordID": 1535, "conditions": [24, 800, "v", 24000], "trial": 5, "serialpos": 21, "trial_type": "single-stim", "trial_index": 206, "time_elapsed": 874572, "internal_node_id": "0.0-152.0"}}, {"uniqueid": "MTK0435:3JJVG1YBEC44VYAN4K25X7CF86EB5S", "current_trial": 207, "dateTime": 1510870069652, "trialdata": {"rt": -1, "stimulus": "<p id=\"stim\">BARREL</p>", "key_press": -1, "type": "PRES_VIS", "word": "barrel", "wordID": 90, "conditions": [24, 800, "v", 24000], "trial": 5, "serialpos": 22, "trial_type": "single-stim", "trial_index": 207, "time_elapsed": 876502, "internal_node_id": "0.0-153.0"}}, {"uniqueid": "MTK0435:3JJVG1YBEC44VYAN4K25X7CF86EB5S", "current_trial": 208, "dateTime": 1510870071614, "trialdata": {"rt": -1, "stimulus": "<p id=\"stim\">SURVEY</p>", "key_press": -1, "type": "PRES_VIS", "word": "survey", "wordID": 1413, "conditions": [24, 800, "v", 24000], "trial": 5, "serialpos": 23, "trial_type": "single-stim", "trial_index": 208, "time_elapsed": 878464, "internal_node_id": "0.0-154.0"}}, {"uniqueid": "MTK0435:3JJVG1YBEC44VYAN4K25X7CF86EB5S", "current_trial": 209, "dateTime": 1510870073680, "trialdata": {"rt": -1, "stimulus": "", "key_press": -1, "type": "PRE_RECALL_DELAY", "trial_type": "single-stim", "trial_index": 209, "time_elapsed": 880530, "internal_node_id": "0.0-155.0-0.0"}}, {"uniqueid": "MTK0435:3JJVG1YBEC44VYAN4K25X7CF86EB5S", "current_trial": 210, "dateTime": 1510870074182, "trialdata": {"rt": 10.294784580537453, "stimulus": "/static/audio/400Hz.wav", "key_press": 16, "type": "PRE_RECALL_ALERT", "trial_type": "single-audio", "trial_index": 210, "time_elapsed": 881032, "internal_node_id": "0.0-156.0"}}, {"uniqueid": "MTK0435:3JJVG1YBEC44VYAN4K25X7CF86EB5S", "current_trial": 211, "dateTime": 1510870134193, "trialdata": {"rt": [1270, 2531, 3317, 4712, 6022, 7543, 14156, 18895, 24765, 27937], "recwords": ["survey", "dragon", "hero", "eyelash", "robber", "grill", "survey", "robot", "goblin", "thief"], "type": "FREE_RECALL", "conditions": [24, 800, "v", 24000], "trial": 5, "trial_type": "free-recall", "trial_index": 211, "time_elapsed": 941039, "internal_node_id": "0.0-157.0-0.0"}}, {"uniqueid": "MTK0435:3JJVG1YBEC44VYAN4K25X7CF86EB5S", "current_trial": 212, "dateTime": 1510870136887, "trialdata": {"rt": 690, "key_press": 32, "type": "INSTRUCTIONS", "trial_type": "text", "trial_index": 212, "time_elapsed": 943737, "internal_node_id": "0.0-158.0"}}, {"uniqueid": "MTK0435:3JJVG1YBEC44VYAN4K25X7CF86EB5S", "current_trial": 213, "dateTime": 1510870162897, "trialdata": {"rt": [1864, 3859, 7474, 9098, 10667, 12789, 14637, 16375, 18589, 21545], "responses": ["12", "8", "23", "6", "17", "20", "17", "9", "5", "17"], "num1": [1, 2, 8, 2, 6, 7, 1, 1, 1, 9, 4], "num2": [5, 2, 7, 1, 3, 6, 8, 5, 1, 7, 5], "num3": [6, 4, 8, 3, 8, 7, 8, 3, 3, 1, 7], "type": "DISTRACTOR", "conditions": [24, 1600, "v", 24000], "trial": 6, "trial_type": "math-distractor", "trial_index": 213, "time_elapsed": 969747, "internal_node_id": "0.0-159.0"}}, {"uniqueid": "MTK0435:3JJVG1YBEC44VYAN4K25X7CF86EB5S", "current_trial": 214, "dateTime": 1510870165904, "trialdata": {"rt": -1, "stimulus": "<p id=\"stim\">10</p>", "key_press": -1, "trial_type": "single-stim", "trial_index": 214, "time_elapsed": 972754, "internal_node_id": "0.0-160.0-0.0"}}, {"uniqueid": "MTK0435:3JJVG1YBEC44VYAN4K25X7CF86EB5S", "current_trial": 215, "dateTime": 1510870166911, "trialdata": {"rt": -1, "stimulus": "<p id=\"stim\">9</p>", "key_press": -1, "trial_type": "single-stim", "trial_index": 215, "time_elapsed": 973760, "internal_node_id": "0.0-160.0-1.0"}}, {"uniqueid": "MTK0435:3JJVG1YBEC44VYAN4K25X7CF86EB5S", "current_trial": 216, "dateTime": 1510870167917, "trialdata": {"rt": -1, "stimulus": "<p id=\"stim\">8</p>", "key_press": -1, "trial_type": "single-stim", "trial_index": 216, "time_elapsed": 974766, "internal_node_id": "0.0-160.0-2.0"}}, {"uniqueid": "MTK0435:3JJVG1YBEC44VYAN4K25X7CF86EB5S", "current_trial": 217, "dateTime": 1510870168921, "trialdata": {"rt": -1, "stimulus": "<p id=\"stim\">7</p>", "key_press": -1, "trial_type": "single-stim", "trial_index": 217, "time_elapsed": 975771, "internal_node_id": "0.0-160.0-3.0"}}, {"uniqueid": "MTK0435:3JJVG1YBEC44VYAN4K25X7CF86EB5S", "current_trial": 218, "dateTime": 1510870169927, "trialdata": {"rt": -1, "stimulus": "<p id=\"stim\">6</p>", "key_press": -1, "trial_type": "single-stim", "trial_index": 218, "time_elapsed": 976777, "internal_node_id": "0.0-160.0-4.0"}}, {"uniqueid": "MTK0435:3JJVG1YBEC44VYAN4K25X7CF86EB5S", "current_trial": 219, "dateTime": 1510870170933, "trialdata": {"rt": -1, "stimulus": "<p id=\"stim\">5</p>", "key_press": -1, "trial_type": "single-stim", "trial_index": 219, "time_elapsed": 977783, "internal_node_id": "0.0-160.0-5.0"}}, {"uniqueid": "MTK0435:3JJVG1YBEC44VYAN4K25X7CF86EB5S", "current_trial": 220, "dateTime": 1510870171939, "trialdata": {"rt": -1, "stimulus": "<p id=\"stim\">4</p>", "key_press": -1, "trial_type": "single-stim", "trial_index": 220, "time_elapsed": 978789, "internal_node_id": "0.0-160.0-6.0"}}, {"uniqueid": "MTK0435:3JJVG1YBEC44VYAN4K25X7CF86EB5S", "current_trial": 221, "dateTime": 1510870172944, "trialdata": {"rt": -1, "stimulus": "<p id=\"stim\">3</p>", "key_press": -1, "trial_type": "single-stim", "trial_index": 221, "time_elapsed": 979794, "internal_node_id": "0.0-160.0-7.0"}}, {"uniqueid": "MTK0435:3JJVG1YBEC44VYAN4K25X7CF86EB5S", "current_trial": 222, "dateTime": 1510870173950, "trialdata": {"rt": -1, "stimulus": "<p id=\"stim\">2</p>", "key_press": -1, "trial_type": "single-stim", "trial_index": 222, "time_elapsed": 980800, "internal_node_id": "0.0-160.0-8.0"}}, {"uniqueid": "MTK0435:3JJVG1YBEC44VYAN4K25X7CF86EB5S", "current_trial": 223, "dateTime": 1510870174956, "trialdata": {"rt": -1, "stimulus": "<p id=\"stim\">1</p>", "key_press": -1, "trial_type": "single-stim", "trial_index": 223, "time_elapsed": 981805, "internal_node_id": "0.0-160.0-9.0"}}, {"uniqueid": "MTK0435:3JJVG1YBEC44VYAN4K25X7CF86EB5S", "current_trial": 224, "dateTime": 1510870176461, "trialdata": {"rt": -1, "stimulus": "<p id=\"stim\">+</p>", "key_press": -1, "type": "FIXATION", "trial_type": "single-stim", "trial_index": 224, "time_elapsed": 983311, "internal_node_id": "0.0-161.0-0.0"}}, {"uniqueid": "MTK0435:3JJVG1YBEC44VYAN4K25X7CF86EB5S", "current_trial": 225, "dateTime": 1510870178063, "trialdata": {"rt": -1, "stimulus": "<p id=\"stim\">OYSTER</p>", "key_press": -1, "type": "PRES_VIS", "word": "oyster", "wordID": 994, "conditions": [24, 1600, "v", 24000], "trial": 6, "serialpos": 0, "trial_type": "single-stim", "trial_index": 225, "time_elapsed": 984913, "internal_node_id": "0.0-162.0"}}, {"uniqueid": "MTK0435:3JJVG1YBEC44VYAN4K25X7CF86EB5S", "current_trial": 226, "dateTime": 1510870180611, "trialdata": {"rt": -1, "stimulus": "<p id=\"stim\">CLAM</p>", "key_press": -1, "type": "PRES_VIS", "word": "clam", "wordID": 314, "conditions": [24, 1600, "v", 24000], "trial": 6, "serialpos": 1, "trial_type": "single-stim", "trial_index": 226, "time_elapsed": 987461, "internal_node_id": "0.0-163.0"}}, {"uniqueid": "MTK0435:3JJVG1YBEC44VYAN4K25X7CF86EB5S", "current_trial": 227, "dateTime": 1510870183327, "trialdata": {"rt": -1, "stimulus": "<p id=\"stim\">FILM</p>", "key_press": -1, "type": "PRES_VIS", "word": "film", "wordID": 564, "conditions": [24, 1600, "v", 24000], "trial": 6, "serialpos": 2, "trial_type": "single-stim", "trial_index": 227, "time_elapsed": 990177, "internal_node_id": "0.0-164.0"}}, {"uniqueid": "MTK0435:3JJVG1YBEC44VYAN4K25X7CF86EB5S", "current_trial": 228, "dateTime": 1510870185841, "trialdata": {"rt": -1, "stimulus": "<p id=\"stim\">APRON</p>", "key_press": -1, "type": "PRES_VIS", "word": "apron", "wordID": 34, "conditions": [24, 1600, "v", 24000], "trial": 6, "serialpos": 3, "trial_type": "single-stim", "trial_index": 228, "time_elapsed": 992691, "internal_node_id": "0.0-165.0"}}, {"uniqueid": "MTK0435:3JJVG1YBEC44VYAN4K25X7CF86EB5S", "current_trial": 229, "dateTime": 1510870188551, "trialdata": {"rt": -1, "stimulus": "<p id=\"stim\">REPORT</p>", "key_press": -1, "type": "PRES_VIS", "word": "report", "wordID": 1183, "conditions": [24, 1600, "v", 24000], "trial": 6, "serialpos": 4, "trial_type": "single-stim", "trial_index": 229, "time_elapsed": 995401, "internal_node_id": "0.0-166.0"}}, {"uniqueid": "MTK0435:3JJVG1YBEC44VYAN4K25X7CF86EB5S", "current_trial": 230, "dateTime": 1510870191053, "trialdata": {"rt": -1, "stimulus": "<p id=\"stim\">GRAVEL</p>", "key_press": -1, "type": "PRES_VIS", "word": "gravel", "wordID": 658, "conditions": [24, 1600, "v", 24000], "trial": 6, "serialpos": 5, "trial_type": "single-stim", "trial_index": 230, "time_elapsed": 997903, "internal_node_id": "0.0-167.0"}}, {"uniqueid": "MTK0435:3JJVG1YBEC44VYAN4K25X7CF86EB5S", "current_trial": 231, "dateTime": 1510870193781, "trialdata": {"rt": -1, "stimulus": "<p id=\"stim\">ACTOR</p>", "key_press": -1, "type": "PRES_VIS", "word": "actor", "wordID": 4, "conditions": [24, 1600, "v", 24000], "trial": 6, "serialpos": 6, "trial_type": "single-stim", "trial_index": 231, "time_elapsed": 1000631, "internal_node_id": "0.0-168.0"}}, {"uniqueid": "MTK0435:3JJVG1YBEC44VYAN4K25X7CF86EB5S", "current_trial": 232, "dateTime": 1510870196468, "trialdata": {"rt": -1, "stimulus": "<p id=\"stim\">KNIFE</p>", "key_press": -1, "type": "PRES_VIS", "word": "knife", "wordID": 784, "conditions": [24, 1600, "v", 24000], "trial": 6, "serialpos": 7, "trial_type": "single-stim", "trial_index": 232, "time_elapsed": 1003318, "internal_node_id": "0.0-169.0"}}, {"uniqueid": "MTK0435:3JJVG1YBEC44VYAN4K25X7CF86EB5S", "current_trial": 233, "dateTime": 1510870198900, "trialdata": {"rt": -1, "stimulus": "<p id=\"stim\">BODY</p>", "key_press": -1, "type": "PRES_VIS", "word": "body", "wordID": 144, "conditions": [24, 1600, "v", 24000], "trial": 6, "serialpos": 8, "trial_type": "single-stim", "trial_index": 233, "time_elapsed": 1005750, "internal_node_id": "0.0-170.0"}}, {"uniqueid": "MTK0435:3JJVG1YBEC44VYAN4K25X7CF86EB5S", "current_trial": 234, "dateTime": 1510870201483, "trialdata": {"rt": -1, "stimulus": "<p id=\"stim\">SHOULDER</p>", "key_press": -1, "type": "PRES_VIS", "word": "shoulder", "wordID": 1293, "conditions": [24, 1600, "v", 24000], "trial": 6, "serialpos": 9, "trial_type": "single-stim", "trial_index": 234, "time_elapsed": 1008333, "internal_node_id": "0.0-171.0"}}, {"uniqueid": "MTK0435:3JJVG1YBEC44VYAN4K25X7CF86EB5S", "current_trial": 235, "dateTime": 1510870204025, "trialdata": {"rt": -1, "stimulus": "<p id=\"stim\">GANGSTER</p>", "key_press": -1, "type": "PRES_VIS", "word": "gangster", "wordID": 619, "conditions": [24, 1600, "v", 24000], "trial": 6, "serialpos": 10, "trial_type": "single-stim", "trial_index": 235, "time_elapsed": 1010875, "internal_node_id": "0.0-172.0"}}, {"uniqueid": "MTK0435:3JJVG1YBEC44VYAN4K25X7CF86EB5S", "current_trial": 236, "dateTime": 1510870206707, "trialdata": {"rt": -1, "stimulus": "<p id=\"stim\">YACHT</p>", "key_press": -1, "type": "PRES_VIS", "word": "yacht", "wordID": 1628, "conditions": [24, 1600, "v", 24000], "trial": 6, "serialpos": 11, "trial_type": "single-stim", "trial_index": 236, "time_elapsed": 1013556, "internal_node_id": "0.0-173.0"}}, {"uniqueid": "MTK0435:3JJVG1YBEC44VYAN4K25X7CF86EB5S", "current_trial": 237, "dateTime": 1510870209237, "trialdata": {"rt": -1, "stimulus": "<p id=\"stim\">SHIRT</p>", "key_press": -1, "type": "PRES_VIS", "word": "shirt", "wordID": 1286, "conditions": [24, 1600, "v", 24000], "trial": 6, "serialpos": 12, "trial_type": "single-stim", "trial_index": 237, "time_elapsed": 1016087, "internal_node_id": "0.0-174.0"}}, {"uniqueid": "MTK0435:3JJVG1YBEC44VYAN4K25X7CF86EB5S", "current_trial": 238, "dateTime": 1510870211687, "trialdata": {"rt": -1, "stimulus": "<p id=\"stim\">ISLAND</p>", "key_press": -1, "type": "PRES_VIS", "word": "island", "wordID": 744, "conditions": [24, 1600, "v", 24000], "trial": 6, "serialpos": 13, "trial_type": "single-stim", "trial_index": 238, "time_elapsed": 1018537, "internal_node_id": "0.0-175.0"}}, {"uniqueid": "MTK0435:3JJVG1YBEC44VYAN4K25X7CF86EB5S", "current_trial": 239, "dateTime": 1510870214188, "trialdata": {"rt": -1, "stimulus": "<p id=\"stim\">DONKEY</p>", "key_press": -1, "type": "PRES_VIS", "word": "donkey", "wordID": 483, "conditions": [24, 1600, "v", 24000], "trial": 6, "serialpos": 14, "trial_type": "single-stim", "trial_index": 239, "time_elapsed": 1021038, "internal_node_id": "0.0-176.0"}}, {"uniqueid": "MTK0435:3JJVG1YBEC44VYAN4K25X7CF86EB5S", "current_trial": 240, "dateTime": 1510870216864, "trialdata": {"rt": -1, "stimulus": "<p id=\"stim\">SPACE</p>", "key_press": -1, "type": "PRES_VIS", "word": "space", "wordID": 1344, "conditions": [24, 1600, "v", 24000], "trial": 6, "serialpos": 15, "trial_type": "single-stim", "trial_index": 240, "time_elapsed": 1023714, "internal_node_id": "0.0-177.0"}}, {"uniqueid": "MTK0435:3JJVG1YBEC44VYAN4K25X7CF86EB5S", "current_trial": 241, "dateTime": 1510870219360, "trialdata": {"rt": -1, "stimulus": "<p id=\"stim\">VIRUS</p>", "key_press": -1, "type": "PRES_VIS", "word": "virus", "wordID": 1571, "conditions": [24, 1600, "v", 24000], "trial": 6, "serialpos": 16, "trial_type": "single-stim", "trial_index": 241, "time_elapsed": 1026210, "internal_node_id": "0.0-178.0"}}, {"uniqueid": "MTK0435:3JJVG1YBEC44VYAN4K25X7CF86EB5S", "current_trial": 242, "dateTime": 1510870222140, "trialdata": {"rt": -1, "stimulus": "<p id=\"stim\">CRAB</p>", "key_press": -1, "type": "PRES_VIS", "word": "crab", "wordID": 396, "conditions": [24, 1600, "v", 24000], "trial": 6, "serialpos": 17, "trial_type": "single-stim", "trial_index": 242, "time_elapsed": 1028990, "internal_node_id": "0.0-179.0"}}, {"uniqueid": "MTK0435:3JJVG1YBEC44VYAN4K25X7CF86EB5S", "current_trial": 243, "dateTime": 1510870224595, "trialdata": {"rt": -1, "stimulus": "<p id=\"stim\">NOMAD</p>", "key_press": -1, "type": "PRES_VIS", "word": "nomad", "wordID": 954, "conditions": [24, 1600, "v", 24000], "trial": 6, "serialpos": 18, "trial_type": "single-stim", "trial_index": 243, "time_elapsed": 1031445, "internal_node_id": "0.0-180.0"}}, {"uniqueid": "MTK0435:3JJVG1YBEC44VYAN4K25X7CF86EB5S", "current_trial": 244, "dateTime": 1510870227259, "trialdata": {"rt": -1, "stimulus": "<p id=\"stim\">POSSUM</p>", "key_press": -1, "type": "PRES_VIS", "word": "possum", "wordID": 1111, "conditions": [24, 1600, "v", 24000], "trial": 6, "serialpos": 19, "trial_type": "single-stim", "trial_index": 244, "time_elapsed": 1034109, "internal_node_id": "0.0-181.0"}}, {"uniqueid": "MTK0435:3JJVG1YBEC44VYAN4K25X7CF86EB5S", "current_trial": 245, "dateTime": 1510870229749, "trialdata": {"rt": -1, "stimulus": "<p id=\"stim\">MUFFIN</p>", "key_press": -1, "type": "PRES_VIS", "word": "muffin", "wordID": 928, "conditions": [24, 1600, "v", 24000], "trial": 6, "serialpos": 20, "trial_type": "single-stim", "trial_index": 245, "time_elapsed": 1036599, "internal_node_id": "0.0-182.0"}}, {"uniqueid": "MTK0435:3JJVG1YBEC44VYAN4K25X7CF86EB5S", "current_trial": 246, "dateTime": 1510870232518, "trialdata": {"rt": -1, "stimulus": "<p id=\"stim\">DOUGHNUT</p>", "key_press": -1, "type": "PRES_VIS", "word": "doughnut", "wordID": 489, "conditions": [24, 1600, "v", 24000], "trial": 6, "serialpos": 21, "trial_type": "single-stim", "trial_index": 246, "time_elapsed": 1039368, "internal_node_id": "0.0-183.0"}}, {"uniqueid": "MTK0435:3JJVG1YBEC44VYAN4K25X7CF86EB5S", "current_trial": 247, "dateTime": 1510870235182, "trialdata": {"rt": -1, "stimulus": "<p id=\"stim\">CITRUS</p>", "key_press": -1, "type": "PRES_VIS", "word": "citrus", "wordID": 312, "conditions": [24, 1600, "v", 24000], "trial": 6, "serialpos": 22, "trial_type": "single-stim", "trial_index": 247, "time_elapsed": 1042032, "internal_node_id": "0.0-184.0"}}, {"uniqueid": "MTK0435:3JJVG1YBEC44VYAN4K25X7CF86EB5S", "current_trial": 248, "dateTime": 1510870237771, "trialdata": {"rt": -1, "stimulus": "<p id=\"stim\">BUG</p>", "key_press": -1, "type": "PRES_VIS", "word": "bug", "wordID": 186, "conditions": [24, 1600, "v", 24000], "trial": 6, "serialpos": 23, "trial_type": "single-stim", "trial_index": 248, "time_elapsed": 1044621, "internal_node_id": "0.0-185.0"}}, {"uniqueid": "MTK0435:3JJVG1YBEC44VYAN4K25X7CF86EB5S", "current_trial": 249, "dateTime": 1510870240226, "trialdata": {"rt": -1, "stimulus": "", "key_press": -1, "type": "PRE_RECALL_DELAY", "trial_type": "single-stim", "trial_index": 249, "time_elapsed": 1047076, "internal_node_id": "0.0-186.0-0.0"}}, {"uniqueid": "MTK0435:3JJVG1YBEC44VYAN4K25X7CF86EB5S", "current_trial": 250, "dateTime": 1510870240728, "trialdata": {"rt": 201.8594104308704, "stimulus": "/static/audio/400Hz.wav", "key_press": 16, "type": "PRE_RECALL_ALERT", "trial_type": "single-audio", "trial_index": 250, "time_elapsed": 1047578, "internal_node_id": "0.0-187.0"}}, {"uniqueid": "MTK0435:3JJVG1YBEC44VYAN4K25X7CF86EB5S", "current_trial": 251, "dateTime": 1510870300738, "trialdata": {"rt": [996, 3355, 4030, 5514, 6385, 7668, 9304, 10118, 12656, 13813, 18553, 19641, 23835, 29429], "recwords": ["donut", "citrus", "bug", "yacht", "clam", "oyster", "shoulder", "body", "gangster", "possum", "apron", "island", "crab", "shirt"], "type": "FREE_RECALL", "conditions": [24, 1600, "v", 24000], "trial": 6, "trial_type": "free-recall", "trial_index": 251, "time_elapsed": 1107584, "internal_node_id": "0.0-188.0-0.0"}}, {"uniqueid": "MTK0435:3JJVG1YBEC44VYAN4K25X7CF86EB5S", "current_trial": 252, "dateTime": 1510870303491, "trialdata": {"rt": 749, "key_press": 32, "type": "INSTRUCTIONS", "trial_type": "text", "trial_index": 252, "time_elapsed": 1110340, "internal_node_id": "0.0-189.0"}}, {"uniqueid": "MTK0435:3JJVG1YBEC44VYAN4K25X7CF86EB5S", "current_trial": 253, "dateTime": 1510870329500, "trialdata": {"rt": [2072, 3660, 5236, 7040, 9170, 11298, 13165, 16046, 17723, 21206, 22714], "responses": ["19", "8", "16", "15", "15", "20", "12", "13", "14", "14", "11"], "num1": [7, 2, 5, 2, 6, 6, 3, 4, 7, 5, 1, 1], "num2": [4, 1, 6, 9, 6, 6, 8, 4, 3, 3, 5, 5], "num3": [8, 5, 5, 4, 3, 8, 1, 5, 4, 6, 5, 4], "type": "DISTRACTOR", "conditions": [24, 800, "a", 24000], "trial": 7, "trial_type": "math-distractor", "trial_index": 253, "time_elapsed": 1136349, "internal_node_id": "0.0-190.0"}}, {"uniqueid": "MTK0435:3JJVG1YBEC44VYAN4K25X7CF86EB5S", "current_trial": 254, "dateTime": 1510870332506, "trialdata": {"rt": -1, "stimulus": "<p id=\"stim\">10</p>", "key_press": -1, "trial_type": "single-stim", "trial_index": 254, "time_elapsed": 1139356, "internal_node_id": "0.0-191.0-0.0"}}, {"uniqueid": "MTK0435:3JJVG1YBEC44VYAN4K25X7CF86EB5S", "current_trial": 255, "dateTime": 1510870333512, "trialdata": {"rt": -1, "stimulus": "<p id=\"stim\">9</p>", "key_press": -1, "trial_type": "single-stim", "trial_index": 255, "time_elapsed": 1140362, "internal_node_id": "0.0-191.0-1.0"}}, {"uniqueid": "MTK0435:3JJVG1YBEC44VYAN4K25X7CF86EB5S", "current_trial": 256, "dateTime": 1510870334520, "trialdata": {"rt": -1, "stimulus": "<p id=\"stim\">8</p>", "key_press": -1, "trial_type": "single-stim", "trial_index": 256, "time_elapsed": 1141368, "internal_node_id": "0.0-191.0-2.0"}}, {"uniqueid": "MTK0435:3JJVG1YBEC44VYAN4K25X7CF86EB5S", "current_trial": 257, "dateTime": 1510870335526, "trialdata": {"rt": -1, "stimulus": "<p id=\"stim\">7</p>", "key_press": -1, "trial_type": "single-stim", "trial_index": 257, "time_elapsed": 1142376, "internal_node_id": "0.0-191.0-3.0"}}, {"uniqueid": "MTK0435:3JJVG1YBEC44VYAN4K25X7CF86EB5S", "current_trial": 258, "dateTime": 1510870336532, "trialdata": {"rt": -1, "stimulus": "<p id=\"stim\">6</p>", "key_press": -1, "trial_type": "single-stim", "trial_index": 258, "time_elapsed": 1143382, "internal_node_id": "0.0-191.0-4.0"}}, {"uniqueid": "MTK0435:3JJVG1YBEC44VYAN4K25X7CF86EB5S", "current_trial": 259, "dateTime": 1510870337538, "trialdata": {"rt": -1, "stimulus": "<p id=\"stim\">5</p>", "key_press": -1, "trial_type": "single-stim", "trial_index": 259, "time_elapsed": 1144387, "internal_node_id": "0.0-191.0-5.0"}}, {"uniqueid": "MTK0435:3JJVG1YBEC44VYAN4K25X7CF86EB5S", "current_trial": 260, "dateTime": 1510870338544, "trialdata": {"rt": -1, "stimulus": "<p id=\"stim\">4</p>", "key_press": -1, "trial_type": "single-stim", "trial_index": 260, "time_elapsed": 1145394, "internal_node_id": "0.0-191.0-6.0"}}, {"uniqueid": "MTK0435:3JJVG1YBEC44VYAN4K25X7CF86EB5S", "current_trial": 261, "dateTime": 1510870339550, "trialdata": {"rt": -1, "stimulus": "<p id=\"stim\">3</p>", "key_press": -1, "trial_type": "single-stim", "trial_index": 261, "time_elapsed": 1146400, "internal_node_id": "0.0-191.0-7.0"}}, {"uniqueid": "MTK0435:3JJVG1YBEC44VYAN4K25X7CF86EB5S", "current_trial": 262, "dateTime": 1510870340556, "trialdata": {"rt": -1, "stimulus": "<p id=\"stim\">2</p>", "key_press": -1, "trial_type": "single-stim", "trial_index": 262, "time_elapsed": 1147406, "internal_node_id": "0.0-191.0-8.0"}}, {"uniqueid": "MTK0435:3JJVG1YBEC44VYAN4K25X7CF86EB5S", "current_trial": 263, "dateTime": 1510870341562, "trialdata": {"rt": -1, "stimulus": "<p id=\"stim\">1</p>", "key_press": -1, "trial_type": "single-stim", "trial_index": 263, "time_elapsed": 1148412, "internal_node_id": "0.0-191.0-9.0"}}, {"uniqueid": "MTK0435:3JJVG1YBEC44VYAN4K25X7CF86EB5S", "current_trial": 264, "dateTime": 1510870343064, "trialdata": {"rt": -1, "stimulus": "<p id=\"stim\">+</p>", "key_press": -1, "type": "FIXATION", "trial_type": "single-stim", "trial_index": 264, "time_elapsed": 1149913, "internal_node_id": "0.0-192.0-0.0"}}, {"uniqueid": "MTK0435:3JJVG1YBEC44VYAN4K25X7CF86EB5S", "current_trial": 265, "dateTime": 1510870344797, "trialdata": {"rt": -1000, "stimulus": "/static/audio/wordpool/FRIEND.wav", "key_press": -1, "type": "PRES_AUD", "word": "friend", "wordID": 605, "conditions": [24, 800, "a", 24000], "trial": 7, "serialpos": 0, "trial_type": "single-audio", "trial_index": 265, "time_elapsed": 1151647, "internal_node_id": "0.0-193.0"}}, {"uniqueid": "MTK0435:3JJVG1YBEC44VYAN4K25X7CF86EB5S", "current_trial": 266, "dateTime": 1510870346534, "trialdata": {"rt": -1000, "stimulus": "/static/audio/wordpool/LOVER.wav", "key_press": -1, "type": "PRES_AUD", "word": "lover", "wordID": 845, "conditions": [24, 800, "a", 24000], "trial": 7, "serialpos": 1, "trial_type": "single-audio", "trial_index": 266, "time_elapsed": 1153384, "internal_node_id": "0.0-194.0"}}, {"uniqueid": "MTK0435:3JJVG1YBEC44VYAN4K25X7CF86EB5S", "current_trial": 267, "dateTime": 1510870348397, "trialdata": {"rt": -1000, "stimulus": "/static/audio/wordpool/KITCHEN.wav", "key_press": -1, "type": "PRES_AUD", "word": "kitchen", "wordID": 777, "conditions": [24, 800, "a", 24000], "trial": 7, "serialpos": 2, "trial_type": "single-audio", "trial_index": 267, "time_elapsed": 1155247, "internal_node_id": "0.0-195.0"}}, {"uniqueid": "MTK0435:3JJVG1YBEC44VYAN4K25X7CF86EB5S", "current_trial": 268, "dateTime": 1510870350249, "trialdata": {"rt": -1000, "stimulus": "/static/audio/wordpool/TABLE.wav", "key_press": -1, "type": "PRES_AUD", "word": "table", "wordID": 1425, "conditions": [24, 800, "a", 24000], "trial": 7, "serialpos": 3, "trial_type": "single-audio", "trial_index": 268, "time_elapsed": 1157099, "internal_node_id": "0.0-196.0"}}, {"uniqueid": "MTK0435:3JJVG1YBEC44VYAN4K25X7CF86EB5S", "current_trial": 269, "dateTime": 1510870352039, "trialdata": {"rt": -1000, "stimulus": "/static/audio/wordpool/ROOSTER.wav", "key_press": -1, "type": "PRES_AUD", "word": "rooster", "wordID": 1208, "conditions": [24, 800, "a", 24000], "trial": 7, "serialpos": 4, "trial_type": "single-audio", "trial_index": 269, "time_elapsed": 1158889, "internal_node_id": "0.0-197.0"}}, {"uniqueid": "MTK0435:3JJVG1YBEC44VYAN4K25X7CF86EB5S", "current_trial": 270, "dateTime": 1510870353837, "trialdata": {"rt": -1000, "stimulus": "/static/audio/wordpool/DRUG.wav", "key_press": -1, "type": "PRES_AUD", "word": "drug", "wordID": 500, "conditions": [24, 800, "a", 24000], "trial": 7, "serialpos": 5, "trial_type": "single-audio", "trial_index": 270, "time_e