{"condition": 0, "counterbalance": 501, "assignmentId": "30MVJZJNHNKTE4ABV2S37B0U1VL9JS", "workerId": "MTK0247", "hitId": "3ACRLU860NL24X5MPJQ6CHM874SBET", "currenttrial": 626, "bonus": 0, "data": [{"uniqueid": "MTK0247:30MVJZJNHNKTE4ABV2S37B0U1VL9JS", "current_trial": 0, "dateTime": 1510677959601, "trialdata": {"rt": 1685, "key_press": 32, "type": "INSTRUCTIONS", "trial_type": "text", "trial_index": 0, "time_elapsed": 1687, "internal_node_id": "0.0-0.0"}}, {"uniqueid": "MTK0247:30MVJZJNHNKTE4ABV2S37B0U1VL9JS", "current_trial": 1, "dateTime": 1510678018326, "trialdata": {"rt": 58724, "key_press": 32, "type": "INSTRUCTIONS", "trial_type": "text", "trial_index": 1, "time_elapsed": 60413, "internal_node_id": "0.0-1.0"}}, {"uniqueid": "MTK0247:30MVJZJNHNKTE4ABV2S37B0U1VL9JS", "current_trial": 2, "dateTime": 1510678025319, "trialdata": {"rt": [6982], "responses": ["ocean"], "type": "AUDIO_TEST", "trial_type": "audio-test", "trial_index": 2, "time_elapsed": 67406, "internal_node_id": "0.0-2.0"}}, {"uniqueid": "MTK0247:30MVJZJNHNKTE4ABV2S37B0U1VL9JS", "current_trial": 3, "dateTime": 1510678030487, "trialdata": {"rt": [5162], "responses": ["crystal"], "type": "AUDIO_TEST", "trial_type": "audio-test", "trial_index": 3, "time_elapsed": 72574, "internal_node_id": "0.0-3.0"}}, {"uniqueid": "MTK0247:30MVJZJNHNKTE4ABV2S37B0U1VL9JS", "current_trial": 4, "dateTime": 1510678034934, "trialdata": {"rt": [4442], "responses": ["spice"], "type": "AUDIO_TEST", "trial_type": "audio-test", "trial_index": 4, "time_elapsed": 77021, "internal_node_id": "0.0-4.0"}}, {"uniqueid": "MTK0247:30MVJZJNHNKTE4ABV2S37B0U1VL9JS", "current_trial": 5, "dateTime": 1510678066507, "trialdata": {"rt": 30820, "responses": "{\"Q0\":\"10:00PM\",\"Q1\":\"7:45AM\",\"Q2\":\"4\"}", "type": "SLEEP_SURVEY", "trial_type": "survey-text", "trial_index": 5, "time_elapsed": 108594, "internal_node_id": "0.0-5.0"}}, {"uniqueid": "MTK0247:30MVJZJNHNKTE4ABV2S37B0U1VL9JS", "current_trial": 6, "dateTime": 1510678100430, "trialdata": {"rt": 32921, "key_press": 32, "type": "INSTRUCTIONS", "trial_type": "text", "trial_index": 6, "time_elapsed": 142517, "internal_node_id": "0.0-6.0"}}, {"uniqueid": "MTK0247:30MVJZJNHNKTE4ABV2S37B0U1VL9JS", "current_trial": 7, "dateTime": 1510678116150, "trialdata": {"rt": 15218, "key_press": 32, "type": "INSTRUCTIONS", "trial_type": "text", "trial_index": 7, "time_elapsed": 158237, "internal_node_id": "0.0-7.0"}}, {"uniqueid": "MTK0247:30MVJZJNHNKTE4ABV2S37B0U1VL9JS", "current_trial": 8, "dateTime": 1510678126478, "trialdata": {"rt": 9827, "key_press": 32, "type": "INSTRUCTIONS", "trial_type": "text", "trial_index": 8, "time_elapsed": 168565, "internal_node_id": "0.0-8.0"}}, {"uniqueid": "MTK0247:30MVJZJNHNKTE4ABV2S37B0U1VL9JS", "current_trial": 9, "dateTime": 1510678145485, "trialdata": {"rt": [3394, 5578, 8906, 10362, 12106, 14497, 16586], "responses": ["10", "11", "23", "13", "12", "21", "13"], "num1": [1, 2, 6, 6, 2, 7, 2, 1], "num2": [4, 7, 8, 1, 7, 9, 2, 9], "num3": [5, 2, 9, 6, 3, 5, 9, 2], "type": "DISTRACTOR", "conditions": [18, 1200, "a", 18000], "trial": 0, "trial_type": "math-distractor", "trial_index": 9, "time_elapsed": 187572, "internal_node_id": "0.0-9.0"}}, {"uniqueid": "MTK0247:30MVJZJNHNKTE4ABV2S37B0U1VL9JS", "current_trial": 10, "dateTime": 1510678148487, "trialdata": {"rt": -1, "stimulus": "<p id=\"stim\">10</p>", "key_press": -1, "trial_type": "single-stim", "trial_index": 10, "time_elapsed": 190573, "internal_node_id": "0.0-10.0-0.0"}}, {"uniqueid": "MTK0247:30MVJZJNHNKTE4ABV2S37B0U1VL9JS", "current_trial": 11, "dateTime": 1510678149488, "trialdata": {"rt": -1, "stimulus": "<p id=\"stim\">9</p>", "key_press": -1, "trial_type": "single-stim", "trial_index": 11, "time_elapsed": 191575, "internal_node_id": "0.0-10.0-1.0"}}, {"uniqueid": "MTK0247:30MVJZJNHNKTE4ABV2S37B0U1VL9JS", "current_trial": 12, "dateTime": 1510678150489, "trialdata": {"rt": -1, "stimulus": "<p id=\"stim\">8</p>", "key_press": -1, "trial_type": "single-stim", "trial_index": 12, "time_elapsed": 192576, "internal_node_id": "0.0-10.0-2.0"}}, {"uniqueid": "MTK0247:30MVJZJNHNKTE4ABV2S37B0U1VL9JS", "current_trial": 13, "dateTime": 1510678151490, "trialdata": {"rt": -1, "stimulus": "<p id=\"stim\">7</p>", "key_press": -1, "trial_type": "single-stim", "trial_index": 13, "time_elapsed": 193577, "internal_node_id": "0.0-10.0-3.0"}}, {"uniqueid": "MTK0247:30MVJZJNHNKTE4ABV2S37B0U1VL9JS", "current_trial": 14, "dateTime": 1510678152491, "trialdata": {"rt": -1, "stimulus": "<p id=\"stim\">6</p>", "key_press": -1, "trial_type": "single-stim", "trial_index": 14, "time_elapsed": 194578, "internal_node_id": "0.0-10.0-4.0"}}, {"uniqueid": "MTK0247:30MVJZJNHNKTE4ABV2S37B0U1VL9JS", "current_trial": 15, "dateTime": 1510678153492, "trialdata": {"rt": -1, "stimulus": "<p id=\"stim\">5</p>", "key_press": -1, "trial_type": "single-stim", "trial_index": 15, "time_elapsed": 195579, "internal_node_id": "0.0-10.0-5.0"}}, {"uniqueid": "MTK0247:30MVJZJNHNKTE4ABV2S37B0U1VL9JS", "current_trial": 16, "dateTime": 1510678154493, "trialdata": {"rt": -1, "stimulus": "<p id=\"stim\">4</p>", "key_press": -1, "trial_type": "single-stim", "trial_index": 16, "time_elapsed": 196580, "internal_node_id": "0.0-10.0-6.0"}}, {"uniqueid": "MTK0247:30MVJZJNHNKTE4ABV2S37B0U1VL9JS", "current_trial": 17, "dateTime": 1510678155494, "trialdata": {"rt": -1, "stimulus": "<p id=\"stim\">3</p>", "key_press": -1, "trial_type": "single-stim", "trial_index": 17, "time_elapsed": 197581, "internal_node_id": "0.0-10.0-7.0"}}, {"uniqueid": "MTK0247:30MVJZJNHNKTE4ABV2S37B0U1VL9JS", "current_trial": 18, "dateTime": 1510678156496, "trialdata": {"rt": -1, "stimulus": "<p id=\"stim\">2</p>", "key_press": -1, "trial_type": "single-stim", "trial_index": 18, "time_elapsed": 198583, "internal_node_id": "0.0-10.0-8.0"}}, {"uniqueid": "MTK0247:30MVJZJNHNKTE4ABV2S37B0U1VL9JS", "current_trial": 19, "dateTime": 1510678157497, "trialdata": {"rt": -1, "stimulus": "<p id=\"stim\">1</p>", "key_press": -1, "trial_type": "single-stim", "trial_index": 19, "time_elapsed": 199584, "internal_node_id": "0.0-10.0-9.0"}}, {"uniqueid": "MTK0247:30MVJZJNHNKTE4ABV2S37B0U1VL9JS", "current_trial": 20, "dateTime": 1510678158998, "trialdata": {"rt": -1, "stimulus": "<p id=\"stim\">+</p>", "key_press": -1, "type": "FIXATION", "trial_type": "single-stim", "trial_index": 20, "time_elapsed": 201085, "internal_node_id": "0.0-11.0-0.0"}}, {"uniqueid": "MTK0247:30MVJZJNHNKTE4ABV2S37B0U1VL9JS", "current_trial": 21, "dateTime": 1510678161012, "trialdata": {"rt": -1000, "stimulus": "/static/audio/wordpool/HARP.wav", "key_press": -1, "type": "PRES_AUD", "word": "harp", "wordID": 688, "conditions": [18, 1200, "a", 18000], "trial": 0, "serialpos": 0, "trial_type": "single-audio", "trial_index": 21, "time_elapsed": 203099, "internal_node_id": "0.0-12.0"}}, {"uniqueid": "MTK0247:30MVJZJNHNKTE4ABV2S37B0U1VL9JS", "current_trial": 22, "dateTime": 1510678163157, "trialdata": {"rt": -1000, "stimulus": "/static/audio/wordpool/NEUTRON.wav", "key_press": -1, "type": "PRES_AUD", "word": "neutron", "wordID": 946, "conditions": [18, 1200, "a", 18000], "trial": 0, "serialpos": 1, "trial_type": "single-audio", "trial_index": 22, "time_elapsed": 205244, "internal_node_id": "0.0-13.0"}}, {"uniqueid": "MTK0247:30MVJZJNHNKTE4ABV2S37B0U1VL9JS", "current_trial": 23, "dateTime": 1510678165536, "trialdata": {"rt": -1000, "stimulus": "/static/audio/wordpool/PASSAGE.wav", "key_press": -1, "type": "PRES_AUD", "word": "passage", "wordID": 1018, "conditions": [18, 1200, "a", 18000], "trial": 0, "serialpos": 2, "trial_type": "single-audio", "trial_index": 23, "time_elapsed": 207623, "internal_node_id": "0.0-14.0"}}, {"uniqueid": "MTK0247:30MVJZJNHNKTE4ABV2S37B0U1VL9JS", "current_trial": 24, "dateTime": 1510678167888, "trialdata": {"rt": -1000, "stimulus": "/static/audio/wordpool/THREAD.wav", "key_press": -1, "type": "PRES_AUD", "word": "thread", "wordID": 1459, "conditions": [18, 1200, "a", 18000], "trial": 0, "serialpos": 3, "trial_type": "single-audio", "trial_index": 24, "time_elapsed": 209975, "internal_node_id": "0.0-15.0"}}, {"uniqueid": "MTK0247:30MVJZJNHNKTE4ABV2S37B0U1VL9JS", "current_trial": 25, "dateTime": 1510678170103, "trialdata": {"rt": -1000, "stimulus": "/static/audio/wordpool/TWEEZERS.wav", "key_press": -1, "type": "PRES_AUD", "word": "tweezers", "wordID": 1525, "conditions": [18, 1200, "a", 18000], "trial": 0, "serialpos": 4, "trial_type": "single-audio", "trial_index": 25, "time_elapsed": 212190, "internal_node_id": "0.0-16.0"}}, {"uniqueid": "MTK0247:30MVJZJNHNKTE4ABV2S37B0U1VL9JS", "current_trial": 26, "dateTime": 1510678172319, "trialdata": {"rt": -1000, "stimulus": "/static/audio/wordpool/TYPIST.wav", "key_press": -1, "type": "PRES_AUD", "word": "typist", "wordID": 1531, "conditions": [18, 1200, "a", 18000], "trial": 0, "serialpos": 5, "trial_type": "single-audio", "trial_index": 26, "time_elapsed": 214406, "internal_node_id": "0.0-17.0"}}, {"uniqueid": "MTK0247:30MVJZJNHNKTE4ABV2S37B0U1VL9JS", "current_trial": 27, "dateTime": 1510678174691, "trialdata": {"rt": -1000, "stimulus": "/static/audio/wordpool/SPONGE.wav", "key_press": -1, "type": "PRES_AUD", "word": "sponge", "wordID": 1354, "conditions": [18, 1200, "a", 18000], "trial": 0, "serialpos": 6, "trial_type": "single-audio", "trial_index": 27, "time_elapsed": 216778, "internal_node_id": "0.0-18.0"}}, {"uniqueid": "MTK0247:30MVJZJNHNKTE4ABV2S37B0U1VL9JS", "current_trial": 28, "dateTime": 1510678176937, "trialdata": {"rt": -1000, "stimulus": "/static/audio/wordpool/CROSS.wav", "key_press": -1, "type": "PRES_AUD", "word": "cross", "wordID": 412, "conditions": [18, 1200, "a", 18000], "trial": 0, "serialpos": 7, "trial_type": "single-audio", "trial_index": 28, "time_elapsed": 219024, "internal_node_id": "0.0-19.0"}}, {"uniqueid": "MTK0247:30MVJZJNHNKTE4ABV2S37B0U1VL9JS", "current_trial": 29, "dateTime": 1510678179274, "trialdata": {"rt": -1000, "stimulus": "/static/audio/wordpool/POCKET.wav", "key_press": -1, "type": "PRES_AUD", "word": "pocket", "wordID": 1092, "conditions": [18, 1200, "a", 18000], "trial": 0, "serialpos": 8, "trial_type": "single-audio", "trial_index": 29, "time_elapsed": 221361, "internal_node_id": "0.0-20.0"}}, {"uniqueid": "MTK0247:30MVJZJNHNKTE4ABV2S37B0U1VL9JS", "current_trial": 30, "dateTime": 1510678181554, "trialdata": {"rt": -1000, "stimulus": "/static/audio/wordpool/SERVANT.wav", "key_press": -1, "type": "PRES_AUD", "word": "servant", "wordID": 1270, "conditions": [18, 1200, "a", 18000], "trial": 0, "serialpos": 9, "trial_type": "single-audio", "trial_index": 30, "time_elapsed": 223641, "internal_node_id": "0.0-21.0"}}, {"uniqueid": "MTK0247:30MVJZJNHNKTE4ABV2S37B0U1VL9JS", "current_trial": 31, "dateTime": 1510678183559, "trialdata": {"rt": -1000, "stimulus": "/static/audio/wordpool/LIGHTNING.wav", "key_press": -1, "type": "PRES_AUD", "word": "lightning", "wordID": 819, "conditions": [18, 1200, "a", 18000], "trial": 0, "serialpos": 10, "trial_type": "single-audio", "trial_index": 31, "time_elapsed": 225646, "internal_node_id": "0.0-22.0"}}, {"uniqueid": "MTK0247:30MVJZJNHNKTE4ABV2S37B0U1VL9JS", "current_trial": 32, "dateTime": 1510678185812, "trialdata": {"rt": -1000, "stimulus": "/static/audio/wordpool/FRAGRANCE.wav", "key_press": -1, "type": "PRES_AUD", "word": "fragrance", "wordID": 598, "conditions": [18, 1200, "a", 18000], "trial": 0, "serialpos": 11, "trial_type": "single-audio", "trial_index": 32, "time_elapsed": 227899, "internal_node_id": "0.0-23.0"}}, {"uniqueid": "MTK0247:30MVJZJNHNKTE4ABV2S37B0U1VL9JS", "current_trial": 33, "dateTime": 1510678187861, "trialdata": {"rt": -1000, "stimulus": "/static/audio/wordpool/CHILD.wav", "key_press": -1, "type": "PRES_AUD", "word": "child", "wordID": 298, "conditions": [18, 1200, "a", 18000], "trial": 0, "serialpos": 12, "trial_type": "single-audio", "trial_index": 33, "time_elapsed": 229948, "internal_node_id": "0.0-24.0"}}, {"uniqueid": "MTK0247:30MVJZJNHNKTE4ABV2S37B0U1VL9JS", "current_trial": 34, "dateTime": 1510678189875, "trialdata": {"rt": -1000, "stimulus": "/static/audio/wordpool/WINDOW.wav", "key_press": -1, "type": "PRES_AUD", "word": "window", "wordID": 1610, "conditions": [18, 1200, "a", 18000], "trial": 0, "serialpos": 13, "trial_type": "single-audio", "trial_index": 34, "time_elapsed": 231962, "internal_node_id": "0.0-25.0"}}, {"uniqueid": "MTK0247:30MVJZJNHNKTE4ABV2S37B0U1VL9JS", "current_trial": 35, "dateTime": 1510678192084, "trialdata": {"rt": -1000, "stimulus": "/static/audio/wordpool/RIVER.wav", "key_press": -1, "type": "PRES_AUD", "word": "river", "wordID": 1193, "conditions": [18, 1200, "a", 18000], "trial": 0, "serialpos": 14, "trial_type": "single-audio", "trial_index": 35, "time_elapsed": 234171, "internal_node_id": "0.0-26.0"}}, {"uniqueid": "MTK0247:30MVJZJNHNKTE4ABV2S37B0U1VL9JS", "current_trial": 36, "dateTime": 1510678194257, "trialdata": {"rt": -1000, "stimulus": "/static/audio/wordpool/RECEIPT.wav", "key_press": -1, "type": "PRES_AUD", "word": "receipt", "wordID": 1172, "conditions": [18, 1200, "a", 18000], "trial": 0, "serialpos": 15, "trial_type": "single-audio", "trial_index": 36, "time_elapsed": 236344, "internal_node_id": "0.0-27.0"}}, {"uniqueid": "MTK0247:30MVJZJNHNKTE4ABV2S37B0U1VL9JS", "current_trial": 37, "dateTime": 1510678196311, "trialdata": {"rt": -1000, "stimulus": "/static/audio/wordpool/BADGE.wav", "key_press": -1, "type": "PRES_AUD", "word": "badge", "wordID": 67, "conditions": [18, 1200, "a", 18000], "trial": 0, "serialpos": 16, "trial_type": "single-audio", "trial_index": 37, "time_elapsed": 238398, "internal_node_id": "0.0-28.0"}}, {"uniqueid": "MTK0247:30MVJZJNHNKTE4ABV2S37B0U1VL9JS", "current_trial": 38, "dateTime": 1510678198642, "trialdata": {"rt": -1000, "stimulus": "/static/audio/wordpool/HOSTESS.wav", "key_press": -1, "type": "PRES_AUD", "word": "hostess", "wordID": 722, "conditions": [18, 1200, "a", 18000], "trial": 0, "serialpos": 17, "trial_type": "single-audio", "trial_index": 38, "time_elapsed": 240729, "internal_node_id": "0.0-29.0"}}, {"uniqueid": "MTK0247:30MVJZJNHNKTE4ABV2S37B0U1VL9JS", "current_trial": 39, "dateTime": 1510678200028, "trialdata": {"rt": -1, "stimulus": "", "key_press": -1, "type": "PRE_RECALL_DELAY", "trial_type": "single-stim", "trial_index": 39, "time_elapsed": 242115, "internal_node_id": "0.0-30.0-0.0"}}, {"uniqueid": "MTK0247:30MVJZJNHNKTE4ABV2S37B0U1VL9JS", "current_trial": 40, "dateTime": 1510678200529, "trialdata": {"rt": -1000, "stimulus": "/static/audio/400Hz.wav", "key_press": -1, "type": "PRE_RECALL_ALERT", "trial_type": "single-audio", "trial_index": 40, "time_elapsed": 242616, "internal_node_id": "0.0-31.0"}}, {"uniqueid": "MTK0247:30MVJZJNHNKTE4ABV2S37B0U1VL9JS", "current_trial": 41, "dateTime": 1510678260539, "trialdata": {"rt": [2032, 5216, 6409, 8473, 11073, 12546, 13898, 15817, 17113, 20009, 23553, 28377], "recwords": ["hostess", "servant", "lightning", "badge", "pocket", "tweezers", "river", "fragrance", "harp", "river", "child", "neutron"], "type": "FREE_RECALL", "conditions": [18, 1200, "a", 18000], "trial": 0, "trial_type": "free-recall", "trial_index": 41, "time_elapsed": 302622, "internal_node_id": "0.0-32.0-0.0"}}, {"uniqueid": "MTK0247:30MVJZJNHNKTE4ABV2S37B0U1VL9JS", "current_trial": 42, "dateTime": 1510678264604, "trialdata": {"rt": 2064, "key_press": 32, "type": "INSTRUCTIONS", "trial_type": "text", "trial_index": 42, "time_elapsed": 306691, "internal_node_id": "0.0-33.0"}}, {"uniqueid": "MTK0247:30MVJZJNHNKTE4ABV2S37B0U1VL9JS", "current_trial": 43, "dateTime": 1510678284609, "trialdata": {"rt": [2501, 4197, 6253, 7429, 8693, 10405, 12053, 14140, 16005, 17477], "responses": ["7", "9", "17", "6", "11", "16", "13", "20", "14", "14"], "num1": [2, 5, 3, 2, 1, 6, 4, 8, 2, 3, 2], "num2": [4, 1, 9, 2, 6, 8, 2, 8, 3, 2, 5], "num3": [1, 3, 5, 2, 4, 2, 7, 4, 9, 9, 5], "type": "DISTRACTOR", "conditions": [18, 1200, "v", 18000], "trial": 1, "trial_type": "math-distractor", "trial_index": 43, "time_elapsed": 326696, "internal_node_id": "0.0-34.0"}}, {"uniqueid": "MTK0247:30MVJZJNHNKTE4ABV2S37B0U1VL9JS", "current_trial": 44, "dateTime": 1510678287611, "trialdata": {"rt": -1, "stimulus": "<p id=\"stim\">10</p>", "key_press": -1, "trial_type": "single-stim", "trial_index": 44, "time_elapsed": 329698, "internal_node_id": "0.0-35.0-0.0"}}, {"uniqueid": "MTK0247:30MVJZJNHNKTE4ABV2S37B0U1VL9JS", "current_trial": 45, "dateTime": 1510678288612, "trialdata": {"rt": -1, "stimulus": "<p id=\"stim\">9</p>", "key_press": -1, "trial_type": "single-stim", "trial_index": 45, "time_elapsed": 330699, "internal_node_id": "0.0-35.0-1.0"}}, {"uniqueid": "MTK0247:30MVJZJNHNKTE4ABV2S37B0U1VL9JS", "current_trial": 46, "dateTime": 1510678289613, "trialdata": {"rt": -1, "stimulus": "<p id=\"stim\">8</p>", "key_press": -1, "trial_type": "single-stim", "trial_index": 46, "time_elapsed": 331700, "internal_node_id": "0.0-35.0-2.0"}}, {"uniqueid": "MTK0247:30MVJZJNHNKTE4ABV2S37B0U1VL9JS", "current_trial": 47, "dateTime": 1510678290614, "trialdata": {"rt": -1, "stimulus": "<p id=\"stim\">7</p>", "key_press": -1, "trial_type": "single-stim", "trial_index": 47, "time_elapsed": 332701, "internal_node_id": "0.0-35.0-3.0"}}, {"uniqueid": "MTK0247:30MVJZJNHNKTE4ABV2S37B0U1VL9JS", "current_trial": 48, "dateTime": 1510678291615, "trialdata": {"rt": -1, "stimulus": "<p id=\"stim\">6</p>", "key_press": -1, "trial_type": "single-stim", "trial_index": 48, "time_elapsed": 333702, "internal_node_id": "0.0-35.0-4.0"}}, {"uniqueid": "MTK0247:30MVJZJNHNKTE4ABV2S37B0U1VL9JS", "current_trial": 49, "dateTime": 1510678292616, "trialdata": {"rt": -1, "stimulus": "<p id=\"stim\">5</p>", "key_press": -1, "trial_type": "single-stim", "trial_index": 49, "time_elapsed": 334703, "internal_node_id": "0.0-35.0-5.0"}}, {"uniqueid": "MTK0247:30MVJZJNHNKTE4ABV2S37B0U1VL9JS", "current_trial": 50, "dateTime": 1510678293617, "trialdata": {"rt": -1, "stimulus": "<p id=\"stim\">4</p>", "key_press": -1, "trial_type": "single-stim", "trial_index": 50, "time_elapsed": 335704, "internal_node_id": "0.0-35.0-6.0"}}, {"uniqueid": "MTK0247:30MVJZJNHNKTE4ABV2S37B0U1VL9JS", "current_trial": 51, "dateTime": 1510678294618, "trialdata": {"rt": -1, "stimulus": "<p id=\"stim\">3</p>", "key_press": -1, "trial_type": "single-stim", "trial_index": 51, "time_elapsed": 336705, "internal_node_id": "0.0-35.0-7.0"}}, {"uniqueid": "MTK0247:30MVJZJNHNKTE4ABV2S37B0U1VL9JS", "current_trial": 52, "dateTime": 1510678295619, "trialdata": {"rt": -1, "stimulus": "<p id=\"stim\">2</p>", "key_press": -1, "trial_type": "single-stim", "trial_index": 52, "time_elapsed": 337706, "internal_node_id": "0.0-35.0-8.0"}}, {"uniqueid": "MTK0247:30MVJZJNHNKTE4ABV2S37B0U1VL9JS", "current_trial": 53, "dateTime": 1510678296620, "trialdata": {"rt": -1, "stimulus": "<p id=\"stim\">1</p>", "key_press": -1, "trial_type": "single-stim", "trial_index": 53, "time_elapsed": 338707, "internal_node_id": "0.0-35.0-9.0"}}, {"uniqueid": "MTK0247:30MVJZJNHNKTE4ABV2S37B0U1VL9JS", "current_trial": 54, "dateTime": 1510678298121, "trialdata": {"rt": -1, "stimulus": "<p id=\"stim\">+</p>", "key_press": -1, "type": "FIXATION", "trial_type": "single-stim", "trial_index": 54, "time_elapsed": 340208, "internal_node_id": "0.0-36.0-0.0"}}, {"uniqueid": "MTK0247:30MVJZJNHNKTE4ABV2S37B0U1VL9JS", "current_trial": 55, "dateTime": 1510678299322, "trialdata": {"rt": -1, "stimulus": "<p id=\"stim\">STUDENT</p>", "key_press": -1, "type": "PRES_VIS", "word": "student", "wordID": 1394, "conditions": [18, 1200, "v", 18000], "trial": 1, "serialpos": 0, "trial_type": "single-stim", "trial_index": 55, "time_elapsed": 341409, "internal_node_id": "0.0-37.0"}}, {"uniqueid": "MTK0247:30MVJZJNHNKTE4ABV2S37B0U1VL9JS", "current_trial": 56, "dateTime": 1510678301325, "trialdata": {"rt": -1, "stimulus": "<p id=\"stim\">MUSTARD</p>", "key_press": -1, "type": "PRES_VIS", "word": "mustard", "wordID": 934, "conditions": [18, 1200, "v", 18000], "trial": 1, "serialpos": 1, "trial_type": "single-stim", "trial_index": 56, "time_elapsed": 343412, "internal_node_id": "0.0-38.0"}}, {"uniqueid": "MTK0247:30MVJZJNHNKTE4ABV2S37B0U1VL9JS", "current_trial": 57, "dateTime": 1510678303625, "trialdata": {"rt": -1, "stimulus": "<p id=\"stim\">KEEPER</p>", "key_press": -1, "type": "PRES_VIS", "word": "keeper", "wordID": 768, "conditions": [18, 1200, "v", 18000], "trial": 1, "serialpos": 2, "trial_type": "single-stim", "trial_index": 57, "time_elapsed": 345712, "internal_node_id": "0.0-39.0"}}, {"uniqueid": "MTK0247:30MVJZJNHNKTE4ABV2S37B0U1VL9JS", "current_trial": 58, "dateTime": 1510678305786, "trialdata": {"rt": -1, "stimulus": "<p id=\"stim\">FIREMAN</p>", "key_press": -1, "type": "PRES_VIS", "word": "fireman", "wordID": 568, "conditions": [18, 1200, "v", 18000], "trial": 1, "serialpos": 3, "trial_type": "single-stim", "trial_index": 58, "time_elapsed": 347873, "internal_node_id": "0.0-40.0"}}, {"uniqueid": "MTK0247:30MVJZJNHNKTE4ABV2S37B0U1VL9JS", "current_trial": 59, "dateTime": 1510678308024, "trialdata": {"rt": -1, "stimulus": "<p id=\"stim\">BUTCHER</p>", "key_press": -1, "type": "PRES_VIS", "word": "butcher", "wordID": 202, "conditions": [18, 1200, "v", 18000], "trial": 1, "serialpos": 4, "trial_type": "single-stim", "trial_index": 59, "time_elapsed": 350111, "internal_node_id": "0.0-41.0"}}, {"uniqueid": "MTK0247:30MVJZJNHNKTE4ABV2S37B0U1VL9JS", "current_trial": 60, "dateTime": 1510678310308, "trialdata": {"rt": -1, "stimulus": "<p id=\"stim\">FLEET</p>", "key_press": -1, "type": "PRES_VIS", "word": "fleet", "wordID": 577, "conditions": [18, 1200, "v", 18000], "trial": 1, "serialpos": 5, "trial_type": "single-stim", "trial_index": 60, "time_elapsed": 352395, "internal_node_id": "0.0-42.0"}}, {"uniqueid": "MTK0247:30MVJZJNHNKTE4ABV2S37B0U1VL9JS", "current_trial": 61, "dateTime": 1510678312484, "trialdata": {"rt": -1, "stimulus": "<p id=\"stim\">ROBBER</p>", "key_press": -1, "type": "PRES_VIS", "word": "robber", "wordID": 1196, "conditions": [18, 1200, "v", 18000], "trial": 1, "serialpos": 6, "trial_type": "single-stim", "trial_index": 61, "time_elapsed": 354571, "internal_node_id": "0.0-43.0"}}, {"uniqueid": "MTK0247:30MVJZJNHNKTE4ABV2S37B0U1VL9JS", "current_trial": 62, "dateTime": 1510678314695, "trialdata": {"rt": -1, "stimulus": "<p id=\"stim\">PRIMATE</p>", "key_press": -1, "type": "PRES_VIS", "word": "primate", "wordID": 1122, "conditions": [18, 1200, "v", 18000], "trial": 1, "serialpos": 7, "trial_type": "single-stim", "trial_index": 62, "time_elapsed": 356782, "internal_node_id": "0.0-44.0"}}, {"uniqueid": "MTK0247:30MVJZJNHNKTE4ABV2S37B0U1VL9JS", "current_trial": 63, "dateTime": 1510678316970, "trialdata": {"rt": -1, "stimulus": "<p id=\"stim\">LAPEL</p>", "key_press": -1, "type": "PRES_VIS", "word": "lapel", "wordID": 799, "conditions": [18, 1200, "v", 18000], "trial": 1, "serialpos": 8, "trial_type": "single-stim", "trial_index": 63, "time_elapsed": 359057, "internal_node_id": "0.0-45.0"}}, {"uniqueid": "MTK0247:30MVJZJNHNKTE4ABV2S37B0U1VL9JS", "current_trial": 64, "dateTime": 1510678319207, "trialdata": {"rt": -1, "stimulus": "<p id=\"stim\">TOURIST</p>", "key_press": -1, "type": "PRES_VIS", "word": "tourist", "wordID": 1487, "conditions": [18, 1200, "v", 18000], "trial": 1, "serialpos": 9, "trial_type": "single-stim", "trial_index": 64, "time_elapsed": 361294, "internal_node_id": "0.0-46.0"}}, {"uniqueid": "MTK0247:30MVJZJNHNKTE4ABV2S37B0U1VL9JS", "current_trial": 65, "dateTime": 1510678321219, "trialdata": {"rt": -1, "stimulus": "<p id=\"stim\">TWISTER</p>", "key_press": -1, "type": "PRES_VIS", "word": "twister", "wordID": 1529, "conditions": [18, 1200, "v", 18000], "trial": 1, "serialpos": 10, "trial_type": "single-stim", "trial_index": 65, "time_elapsed": 363306, "internal_node_id": "0.0-47.0"}}, {"uniqueid": "MTK0247:30MVJZJNHNKTE4ABV2S37B0U1VL9JS", "current_trial": 66, "dateTime": 1510678323510, "trialdata": {"rt": -1, "stimulus": "<p id=\"stim\">DASHBOARD</p>", "key_press": -1, "type": "PRES_VIS", "word": "dashboard", "wordID": 440, "conditions": [18, 1200, "v", 18000], "trial": 1, "serialpos": 11, "trial_type": "single-stim", "trial_index": 66, "time_elapsed": 365597, "internal_node_id": "0.0-48.0"}}, {"uniqueid": "MTK0247:30MVJZJNHNKTE4ABV2S37B0U1VL9JS", "current_trial": 67, "dateTime": 1510678325880, "trialdata": {"rt": -1, "stimulus": "<p id=\"stim\">LETTUCE</p>", "key_press": -1, "type": "PRES_VIS", "word": "lettuce", "wordID": 813, "conditions": [18, 1200, "v", 18000], "trial": 1, "serialpos": 12, "trial_type": "single-stim", "trial_index": 67, "time_elapsed": 367967, "internal_node_id": "0.0-49.0"}}, {"uniqueid": "MTK0247:30MVJZJNHNKTE4ABV2S37B0U1VL9JS", "current_trial": 68, "dateTime": 1510678328146, "trialdata": {"rt": -1, "stimulus": "<p id=\"stim\">HERO</p>", "key_press": -1, "type": "PRES_VIS", "word": "hero", "wordID": 705, "conditions": [18, 1200, "v", 18000], "trial": 1, "serialpos": 13, "trial_type": "single-stim", "trial_index": 68, "time_elapsed": 370230, "internal_node_id": "0.0-50.0"}}, {"uniqueid": "MTK0247:30MVJZJNHNKTE4ABV2S37B0U1VL9JS", "current_trial": 69, "dateTime": 1510678330522, "trialdata": {"rt": -1, "stimulus": "<p id=\"stim\">BRANDY</p>", "key_press": -1, "type": "PRES_VIS", "word": "brandy", "wordID": 168, "conditions": [18, 1200, "v", 18000], "trial": 1, "serialpos": 14, "trial_type": "single-stim", "trial_index": 69, "time_elapsed": 372609, "internal_node_id": "0.0-51.0"}}, {"uniqueid": "MTK0247:30MVJZJNHNKTE4ABV2S37B0U1VL9JS", "current_trial": 70, "dateTime": 1510678332679, "trialdata": {"rt": -1, "stimulus": "<p id=\"stim\">BOUQUET</p>", "key_press": -1, "type": "PRES_VIS", "word": "bouquet", "wordID": 156, "conditions": [18, 1200, "v", 18000], "trial": 1, "serialpos": 15, "trial_type": "single-stim", "trial_index": 70, "time_elapsed": 374766, "internal_node_id": "0.0-52.0"}}, {"uniqueid": "MTK0247:30MVJZJNHNKTE4ABV2S37B0U1VL9JS", "current_trial": 71, "dateTime": 1510678334963, "trialdata": {"rt": -1, "stimulus": "<p id=\"stim\">ATOM</p>", "key_press": -1, "type": "PRES_VIS", "word": "atom", "wordID": 54, "conditions": [18, 1200, "v", 18000], "trial": 1, "serialpos": 16, "trial_type": "single-stim", "trial_index": 71, "time_elapsed": 377050, "internal_node_id": "0.0-53.0"}}, {"uniqueid": "MTK0247:30MVJZJNHNKTE4ABV2S37B0U1VL9JS", "current_trial": 72, "dateTime": 1510678336965, "trialdata": {"rt": -1, "stimulus": "<p id=\"stim\">TART</p>", "key_press": -1, "type": "PRES_VIS", "word": "tart", "wordID": 1435, "conditions": [18, 1200, "v", 18000], "trial": 1, "serialpos": 17, "trial_type": "single-stim", "trial_index": 72, "time_elapsed": 379052, "internal_node_id": "0.0-54.0"}}, {"uniqueid": "MTK0247:30MVJZJNHNKTE4ABV2S37B0U1VL9JS", "current_trial": 73, "dateTime": 1510678339504, "trialdata": {"rt": -1, "stimulus": "", "key_press": -1, "type": "PRE_RECALL_DELAY", "trial_type": "single-stim", "trial_index": 73, "time_elapsed": 381591, "internal_node_id": "0.0-55.0-0.0"}}, {"uniqueid": "MTK0247:30MVJZJNHNKTE4ABV2S37B0U1VL9JS", "current_trial": 74, "dateTime": 1510678340005, "trialdata": {"rt": -1000, "stimulus": "/static/audio/400Hz.wav", "key_press": -1, "type": "PRE_RECALL_ALERT", "trial_type": "single-audio", "trial_index": 74, "time_elapsed": 382092, "internal_node_id": "0.0-56.0"}}, {"uniqueid": "MTK0247:30MVJZJNHNKTE4ABV2S37B0U1VL9JS", "current_trial": 75, "dateTime": 1510678400012, "trialdata": {"rt": [2229, 3477, 4701, 6021, 7125, 8541, 13798, 16102, 33814, 53797], "recwords": ["atom", "tart", "lapel", "brandy", "twister", "fleet", "mustard", "hero", "bouquet", "dashboard"], "type": "FREE_RECALL", "conditions": [18, 1200, "v", 18000], "trial": 1, "trial_type": "free-recall", "trial_index": 75, "time_elapsed": 442096, "internal_node_id": "0.0-57.0-0.0"}}, {"uniqueid": "MTK0247:30MVJZJNHNKTE4ABV2S37B0U1VL9JS", "current_trial": 76, "dateTime": 1510678622365, "trialdata": {"rt": 220348, "key_press": 32, "type": "INSTRUCTIONS", "trial_type": "text", "trial_index": 76, "time_elapsed": 664449, "internal_node_id": "0.0-58.0"}}, {"uniqueid": "MTK0247:30MVJZJNHNKTE4ABV2S37B0U1VL9JS", "current_trial": 77, "dateTime": 1510678635368, "trialdata": {"rt": [3307, 4555, 6355, 7435, 9252, 11100], "responses": ["14", "14", "15", "11", "20", "14"], "num1": [9, 5, 2, 5, 7, 6, 8], "num2": [3, 5, 9, 1, 4, 7, 4], "num3": [2, 4, 4, 5, 9, 1, 7], "type": "DISTRACTOR", "conditions": [12, 1600, "a", 12000], "trial": 2, "trial_type": "math-distractor", "trial_index": 77, "time_elapsed": 677455, "internal_node_id": "0.0-59.0"}}, {"uniqueid": "MTK0247:30MVJZJNHNKTE4ABV2S37B0U1VL9JS", "current_trial": 78, "dateTime": 1510678638370, "trialdata": {"rt": -1, "stimulus": "<p id=\"stim\">10</p>", "key_press": -1, "trial_type": "single-stim", "trial_index": 78, "time_elapsed": 680457, "internal_node_id": "0.0-60.0-0.0"}}, {"uniqueid": "MTK0247:30MVJZJNHNKTE4ABV2S37B0U1VL9JS", "current_trial": 79, "dateTime": 1510678639371, "trialdata": {"rt": -1, "stimulus": "<p id=\"stim\">9</p>", "key_press": -1, "trial_type": "single-stim", "trial_index": 79, "time_elapsed": 681458, "internal_node_id": "0.0-60.0-1.0"}}, {"uniqueid": "MTK0247:30MVJZJNHNKTE4ABV2S37B0U1VL9JS", "current_trial": 80, "dateTime": 1510678640372, "trialdata": {"rt": -1, "stimulus": "<p id=\"stim\">8</p>", "key_press": -1, "trial_type": "single-stim", "trial_index": 80, "time_elapsed": 682459, "internal_node_id": "0.0-60.0-2.0"}}, {"uniqueid": "MTK0247:30MVJZJNHNKTE4ABV2S37B0U1VL9JS", "current_trial": 81, "dateTime": 1510678641375, "trialdata": {"rt": -1, "stimulus": "<p id=\"stim\">7</p>", "key_press": -1, "trial_type": "single-stim", "trial_index": 81, "time_elapsed": 683461, "internal_node_id": "0.0-60.0-3.0"}}, {"uniqueid": "MTK0247:30MVJZJNHNKTE4ABV2S37B0U1VL9JS", "current_trial": 82, "dateTime": 1510678642376, "trialdata": {"rt": -1, "stimulus": "<p id=\"stim\">6</p>", "key_press": -1, "trial_type": "single-stim", "trial_index": 82, "time_elapsed": 684463, "internal_node_id": "0.0-60.0-4.0"}}, {"uniqueid": "MTK0247:30MVJZJNHNKTE4ABV2S37B0U1VL9JS", "current_trial": 83, "dateTime": 1510678643377, "trialdata": {"rt": -1, "stimulus": "<p id=\"stim\">5</p>", "key_press": -1, "trial_type": "single-stim", "trial_index": 83, "time_elapsed": 685464, "internal_node_id": "0.0-60.0-5.0"}}, {"uniqueid": "MTK0247:30MVJZJNHNKTE4ABV2S37B0U1VL9JS", "current_trial": 84, "dateTime": 1510678644378, "trialdata": {"rt": -1, "stimulus": "<p id=\"stim\">4</p>", "key_press": -1, "trial_type": "single-stim", "trial_index": 84, "time_elapsed": 686465, "internal_node_id": "0.0-60.0-6.0"}}, {"uniqueid": "MTK0247:30MVJZJNHNKTE4ABV2S37B0U1VL9JS", "current_trial": 85, "dateTime": 1510678645379, "trialdata": {"rt": -1, "stimulus": "<p id=\"stim\">3</p>", "key_press": -1, "trial_type": "single-stim", "trial_index": 85, "time_elapsed": 687466, "internal_node_id": "0.0-60.0-7.0"}}, {"uniqueid": "MTK0247:30MVJZJNHNKTE4ABV2S37B0U1VL9JS", "current_trial": 86, "dateTime": 1510678646380, "trialdata": {"rt": -1, "stimulus": "<p id=\"stim\">2</p>", "key_press": -1, "trial_type": "single-stim", "trial_index": 86, "time_elapsed": 688467, "internal_node_id": "0.0-60.0-8.0"}}, {"uniqueid": "MTK0247:30MVJZJNHNKTE4ABV2S37B0U1VL9JS", "current_trial": 87, "dateTime": 1510678647381, "trialdata": {"rt": -1, "stimulus": "<p id=\"stim\">1</p>", "key_press": -1, "trial_type": "single-stim", "trial_index": 87, "time_elapsed": 689468, "internal_node_id": "0.0-60.0-9.0"}}, {"uniqueid": "MTK0247:30MVJZJNHNKTE4ABV2S37B0U1VL9JS", "current_trial": 88, "dateTime": 1510678648882, "trialdata": {"rt": -1, "stimulus": "<p id=\"stim\">+</p>", "key_press": -1, "type": "FIXATION", "trial_type": "single-stim", "trial_index": 88, "time_elapsed": 690969, "internal_node_id": "0.0-61.0-0.0"}}, {"uniqueid": "MTK0247:30MVJZJNHNKTE4ABV2S37B0U1VL9JS", "current_trial": 89, "dateTime": 1510678651591, "trialdata": {"rt": -1000, "stimulus": "/static/audio/wordpool/FOREHEAD.wav", "key_press": -1, "type": "PRES_AUD", "word": "forehead", "wordID": 591, "conditions": [12, 1600, "a", 12000], "trial": 2, "serialpos": 0, "trial_type": "single-audio", "trial_index": 89, "time_elapsed": 693678, "internal_node_id": "0.0-62.0"}}, {"uniqueid": "MTK0247:30MVJZJNHNKTE4ABV2S37B0U1VL9JS", "current_trial": 90, "dateTime": 1510678654018, "trialdata": {"rt": -1000, "stimulus": "/static/audio/wordpool/SALAD.wav", "key_press": -1, "type": "PRES_AUD", "word": "salad", "wordID": 1223, "conditions": [12, 1600, "a", 12000], "trial": 2, "serialpos": 1, "trial_type": "single-audio", "trial_index": 90, "time_elapsed": 696105, "internal_node_id": "0.0-63.0"}}, {"uniqueid": "MTK0247:30MVJZJNHNKTE4ABV2S37B0U1VL9JS", "current_trial": 91, "dateTime": 1510678656618, "trialdata": {"rt": -1000, "stimulus": "/static/audio/wordpool/SHERIFF.wav", "key_press": -1, "type": "PRES_AUD", "word": "sheriff", "wordID": 1283, "conditions": [12, 1600, "a", 12000], "trial": 2, "serialpos": 2, "trial_type": "single-audio", "trial_index": 91, "time_elapsed": 698705, "internal_node_id": "0.0-64.0"}}, {"uniqueid": "MTK0247:30MVJZJNHNKTE4ABV2S37B0U1VL9JS", "current_trial": 92, "dateTime": 1510678659072, "trialdata": {"rt": -1000, "stimulus": "/static/audio/wordpool/COUNTY.wav", "key_press": -1, "type": "PRES_AUD", "word": "county", "wordID": 388, "conditions": [12, 1600, "a", 12000], "trial": 2, "serialpos": 3, "trial_type": "single-audio", "trial_index": 92, "time_elapsed": 701159, "internal_node_id": "0.0-65.0"}}, {"uniqueid": "MTK0247:30MVJZJNHNKTE4ABV2S37B0U1VL9JS", "current_trial": 93, "dateTime": 1510678661823, "trialdata": {"rt": -1000, "stimulus": "/static/audio/wordpool/DAUGHTER.wav", "key_press": -1, "type": "PRES_AUD", "word": "daughter", "wordID": 441, "conditions": [12, 1600, "a", 12000], "trial": 2, "serialpos": 4, "trial_type": "single-audio", "trial_index": 93, "time_elapsed": 703910, "internal_node_id": "0.0-66.0"}}, {"uniqueid": "MTK0247:30MVJZJNHNKTE4ABV2S37B0U1VL9JS", "current_trial": 94, "dateTime": 1510678664361, "trialdata": {"rt": -1000, "stimulus": "/static/audio/wordpool/WARDROBE.wav", "key_press": -1, "type": "PRES_AUD", "word": "wardrobe", "wordID": 1586, "conditions": [12, 1600, "a", 12000], "trial": 2, "serialpos": 5, "trial_type": "single-audio", "trial_index": 94, "time_elapsed": 706448, "internal_node_id": "0.0-67.0"}}, {"uniqueid": "MTK0247:30MVJZJNHNKTE4ABV2S37B0U1VL9JS", "current_trial": 95, "dateTime": 1510678666958, "trialdata": {"rt": -1000, "stimulus": "/static/audio/wordpool/SNAKE.wav", "key_press": -1, "type": "PRES_AUD", "word": "snake", "wordID": 1332, "conditions": [12, 1600, "a", 12000], "trial": 2, "serialpos": 6, "trial_type": "single-audio", "trial_index": 95, "time_elapsed": 709045, "internal_node_id": "0.0-68.0"}}, {"uniqueid": "MTK0247:30MVJZJNHNKTE4ABV2S37B0U1VL9JS", "current_trial": 96, "dateTime": 1510678669689, "trialdata": {"rt": -1000, "stimulus": "/static/audio/wordpool/ROBOT.wav", "key_press": -1, "type": "PRES_AUD", "word": "robot", "wordID": 1199, "conditions": [12, 1600, "a", 12000], "trial": 2, "serialpos": 7, "trial_type": "single-audio", "trial_index": 96, "time_elapsed": 711776, "internal_node_id": "0.0-69.0"}}, {"uniqueid": "MTK0247:30MVJZJNHNKTE4ABV2S37B0U1VL9JS", "current_trial": 97, "dateTime": 1510678672168, "trialdata": {"rt": -1000, "stimulus": "/static/audio/wordpool/GIFT.wav", "key_press": -1, "type": "PRES_AUD", "word": "gift", "wordID": 634, "conditions": [12, 1600, "a", 12000], "trial": 2, "serialpos": 8, "trial_type": "single-audio", "trial_index": 97, "time_elapsed": 714255, "internal_node_id": "0.0-70.0"}}, {"uniqueid": "MTK0247:30MVJZJNHNKTE4ABV2S37B0U1VL9JS", "current_trial": 98, "dateTime": 1510678674571, "trialdata": {"rt": -1000, "stimulus": "/static/audio/wordpool/RAFT.wav", "key_press": -1, "type": "PRES_AUD", "word": "raft", "wordID": 1158, "conditions": [12, 1600, "a", 12000], "trial": 2, "serialpos": 9, "trial_type": "single-audio", "trial_index": 98, "time_elapsed": 716658, "internal_node_id": "0.0-71.0"}}, {"uniqueid": "MTK0247:30MVJZJNHNKTE4ABV2S37B0U1VL9JS", "current_trial": 99, "dateTime": 1510678677023, "trialdata": {"rt": -1000, "stimulus": "/static/audio/wordpool/UMPIRE.wav", "key_press": -1, "type": "PRES_AUD", "word": "umpire", "wordID": 1534, "conditions": [12, 1600, "a", 12000], "trial": 2, "serialpos": 10, "trial_type": "single-audio", "trial_index": 99, "time_elapsed": 719110, "internal_node_id": "0.0-72.0"}}, {"uniqueid": "MTK0247:30MVJZJNHNKTE4ABV2S37B0U1VL9JS", "current_trial": 100, "dateTime": 1510678679735, "trialdata": {"rt": -1000, "stimulus": "/static/audio/wordpool/COUSIN.wav", "key_press": -1, "type": "PRES_AUD", "word": "cousin", "wordID": 391, "conditions": [12, 1600, "a", 12000], "trial": 2, "serialpos": 11, "trial_type": "single-audio", "trial_index": 100, "time_elapsed": 721822, "internal_node_id": "0.0-73.0"}}, {"uniqueid": "MTK0247:30MVJZJNHNKTE4ABV2S37B0U1VL9JS", "current_trial": 101, "dateTime": 1510678680952, "trialdata": {"rt": -1, "stimulus": "", "key_press": -1, "type": "PRE_RECALL_DELAY", "trial_type": "single-stim", "trial_index": 101, "time_elapsed": 723039, "internal_node_id": "0.0-74.0-0.0"}}, {"uniqueid": "MTK0247:30MVJZJNHNKTE4ABV2S37B0U1VL9JS", "current_trial": 102, "dateTime": 1510678681453, "trialdata": {"rt": -1000, "stimulus": "/static/audio/400Hz.wav", "key_press": -1, "type": "PRE_RECALL_ALERT", "trial_type": "single-audio", "trial_index": 102, "time_elapsed": 723540, "internal_node_id": "0.0-75.0"}}, {"uniqueid": "MTK0247:30MVJZJNHNKTE4ABV2S37B0U1VL9JS", "current_trial": 103, "dateTime": 1510678741460, "trialdata": {"rt": [1611, 3283, 4235, 4891, 7042, 10722, 13834, 16441, 48298], "recwords": ["cousin", "daughter", "raft", "gift", "robot", "county", "sheriff", "forehead", "umpire"], "type": "FREE_RECALL", "conditions": [12, 1600, "a", 12000], "trial": 2, "trial_type": "free-recall", "trial_index": 103, "time_elapsed": 783545, "internal_node_id": "0.0-76.0-0.0"}}, {"uniqueid": "MTK0247:30MVJZJNHNKTE4ABV2S37B0U1VL9JS", "current_trial": 104, "dateTime": 1510678747065, "trialdata": {"rt": 3603, "key_press": 32, "type": "INSTRUCTIONS", "trial_type": "text", "trial_index": 104, "time_elapsed": 789152, "internal_node_id": "0.0-77.0"}}, {"uniqueid": "MTK0247:30MVJZJNHNKTE4ABV2S37B0U1VL9JS", "current_trial": 105, "dateTime": 1510678761068, "trialdata": {"rt": [2765, 4501, 5598, 7734, 9862, 11374], "responses": ["20", "16", "6", "18", "19", "16"], "num1": [9, 9, 2, 5, 7, 7, 3], "num2": [5, 2, 3, 6, 8, 8, 9], "num3": [6, 5, 1, 7, 4, 1, 3], "type": "DISTRACTOR", "conditions": [12, 1600, "v", 12000], "trial": 3, "trial_type": "math-distractor", "trial_index": 105, "time_elapsed": 803155, "internal_node_id": "0.0-78.0"}}, {"uniqueid": "MTK0247:30MVJZJNHNKTE4ABV2S37B0U1VL9JS", "current_trial": 106, "dateTime": 1510678764070, "trialdata": {"rt": -1, "stimulus": "<p id=\"stim\">10</p>", "key_press": -1, "trial_type": "single-stim", "trial_index": 106, "time_elapsed": 806157, "internal_node_id": "0.0-79.0-0.0"}}, {"uniqueid": "MTK0247:30MVJZJNHNKTE4ABV2S37B0U1VL9JS", "current_trial": 107, "dateTime": 1510678765071, "trialdata": {"rt": -1, "stimulus": "<p id=\"stim\">9</p>", "key_press": -1, "trial_type": "single-stim", "trial_index": 107, "time_elapsed": 807158, "internal_node_id": "0.0-79.0-1.0"}}, {"uniqueid": "MTK0247:30MVJZJNHNKTE4ABV2S37B0U1VL9JS", "current_trial": 108, "dateTime": 1510678766072, "trialdata": {"rt": -1, "stimulus": "<p id=\"stim\">8</p>", "key_press": -1, "trial_type": "single-stim", "trial_index": 108, "time_elapsed": 808159, "internal_node_id": "0.0-79.0-2.0"}}, {"uniqueid": "MTK0247:30MVJZJNHNKTE4ABV2S37B0U1VL9JS", "current_trial": 109, "dateTime": 1510678767073, "trialdata": {"rt": -1, "stimulus": "<p id=\"stim\">7</p>", "key_press": -1, "trial_type": "single-stim", "trial_index": 109, "time_elapsed": 809160, "internal_node_id": "0.0-79.0-3.0"}}, {"uniqueid": "MTK0247:30MVJZJNHNKTE4ABV2S37B0U1VL9JS", "current_trial": 110, "dateTime": 1510678768074, "trialdata": {"rt": -1, "stimulus": "<p id=\"stim\">6</p>", "key_press": -1, "trial_type": "single-stim", "trial_index": 110, "time_elapsed": 810161, "internal_node_id": "0.0-79.0-4.0"}}, {"uniqueid": "MTK0247:30MVJZJNHNKTE4ABV2S37B0U1VL9JS", "current_trial": 111, "dateTime": 1510678769075, "trialdata": {"rt": -1, "stimulus": "<p id=\"stim\">5</p>", "key_press": -1, "trial_type": "single-stim", "trial_index": 111, "time_elapsed": 811162, "internal_node_id": "0.0-79.0-5.0"}}, {"uniqueid": "MTK0247:30MVJZJNHNKTE4ABV2S37B0U1VL9JS", "current_trial": 112, "dateTime": 1510678770076, "trialdata": {"rt": -1, "stimulus": "<p id=\"stim\">4</p>", "key_press": -1, "trial_type": "single-stim", "trial_index": 112, "time_elapsed": 812163, "internal_node_id": "0.0-79.0-6.0"}}, {"uniqueid": "MTK0247:30MVJZJNHNKTE4ABV2S37B0U1VL9JS", "current_trial": 113, "dateTime": 1510678771077, "trialdata": {"rt": -1, "stimulus": "<p id=\"stim\">3</p>", "key_press": -1, "trial_type": "single-stim", "trial_index": 113, "time_elapsed": 813164, "internal_node_id": "0.0-79.0-7.0"}}, {"uniqueid": "MTK0247:30MVJZJNHNKTE4ABV2S37B0U1VL9JS", "current_trial": 114, "dateTime": 1510678772079, "trialdata": {"rt": -1, "stimulus": "<p id=\"stim\">2</p>", "key_press": -1, "trial_type": "single-stim", "trial_index": 114, "time_elapsed": 814166, "internal_node_id": "0.0-79.0-8.0"}}, {"uniqueid": "MTK0247:30MVJZJNHNKTE4ABV2S37B0U1VL9JS", "current_trial": 115, "dateTime": 1510678773080, "trialdata": {"rt": -1, "stimulus": "<p id=\"stim\">1</p>", "key_press": -1, "trial_type": "single-stim", "trial_index": 115, "time_elapsed": 815167, "internal_node_id": "0.0-79.0-9.0"}}, {"uniqueid": "MTK0247:30MVJZJNHNKTE4ABV2S37B0U1VL9JS", "current_trial": 116, "dateTime": 1510678774581, "trialdata": {"rt": -1, "stimulus": "<p id=\"stim\">+</p>", "key_press": -1, "type": "FIXATION", "trial_type": "single-stim", "trial_index": 116, "time_elapsed": 816668, "internal_node_id": "0.0-80.0-0.0"}}, {"uniqueid": "MTK0247:30MVJZJNHNKTE4ABV2S37B0U1VL9JS", "current_trial": 117, "dateTime": 1510678776182, "trialdata": {"rt": -1, "stimulus": "<p id=\"stim\">CUSTARD</p>", "key_press": -1, "type": "PRES_VIS", "word": "custard", "wordID": 428, "conditions": [12, 1600, "v", 12000], "trial": 3, "serialpos": 0, "trial_type": "single-stim", "trial_index": 117, "time_elapsed": 818269, "internal_node_id": "0.0-81.0"}}, {"uniqueid": "MTK0247:30MVJZJNHNKTE4ABV2S37B0U1VL9JS", "current_trial": 118, "dateTime": 1510678778976, "trialdata": {"rt": -1, "stimulus": "<p id=\"stim\">SLUG</p>", "key_press": -1, "type": "PRES_VIS", "word": "slug", "wordID": 1328, "conditions": [12, 1600, "v", 12000], "trial": 3, "serialpos": 1, "trial_type": "single-stim", "trial_index": 118, "time_elapsed": 821063, "internal_node_id": "0.0-82.0"}}, {"uniqueid": "MTK0247:30MVJZJNHNKTE4ABV2S37B0U1VL9JS", "current_trial": 119, "dateTime": 1510678781745, "trialdata": {"rt": -1, "stimulus": "<p id=\"stim\">SANDWICH</p>", "key_press": -1, "type": "PRES_VIS", "word": "sandwich", "wordID": 1231, "conditions": [12, 1600, "v", 12000], "trial": 3, "serialpos": 2, "trial_type": "single-stim", "trial_index": 119, "time_elapsed": 823832, "internal_node_id": "0.0-83.0"}}, {"uniqueid": "MTK0247:30MVJZJNHNKTE4ABV2S37B0U1VL9JS", "current_trial": 120, "dateTime": 1510678784476, "trialdata": {"rt": -1, "stimulus": "<p id=\"stim\">DOUGHNUT</p>", "key_press": -1, "type": "PRES_VIS", "word": "doughnut", "wordID": 489, "conditions": [12, 1600, "v", 12000], "trial": 3, "serialpos": 3, "trial_type": "single-stim", "trial_index": 120, "time_elapsed": 826563, "internal_node_id": "0.0-84.0"}}, {"uniqueid": "MTK0247:30MVJZJNHNKTE4ABV2S37B0U1VL9JS", "current_trial": 121, "dateTime": 1510678787100, "trialdata": {"rt": -1, "stimulus": "<p id=\"stim\">REBEL</p>", "key_press": -1, "type": "PRES_VIS", "word": "rebel", "wordID": 1171, "conditions": [12, 1600, "v", 12000], "trial": 3, "serialpos": 4, "trial_type": "single-stim", "trial_index": 121, "time_elapsed": 829187, "internal_node_id": "0.0-85.0"}}, {"uniqueid": "MTK0247:30MVJZJNHNKTE4ABV2S37B0U1VL9JS", "current_trial": 122, "dateTime": 1510678789795, "trialdata": {"rt": -1, "stimulus": "<p id=\"stim\">LUGGAGE</p>", "key_press": -1, "type": "PRES_VIS", "word": "luggage", "wordID": 846, "conditions": [12, 1600, "v", 12000], "trial": 3, "serialpos": 5, "trial_type": "single-stim", "trial_index": 122, "time_elapsed": 831882, "internal_node_id": "0.0-86.0"}}, {"uniqueid": "MTK0247:30MVJZJNHNKTE4ABV2S37B0U1VL9JS", "current_trial": 123, "dateTime": 1510678792307, "trialdata": {"rt": -1, "stimulus": "<p id=\"stim\">DENIM</p>", "key_press": -1, "type": "PRES_VIS", "word": "denim", "wordID": 445, "conditions": [12, 1600, "v", 12000], "trial": 3, "serialpos": 6, "trial_type": "single-stim", "trial_index": 123, "time_elapsed": 834394, "internal_node_id": "0.0-87.0"}}, {"uniqueid": "MTK0247:30MVJZJNHNKTE4ABV2S37B0U1VL9JS", "current_trial": 124, "dateTime": 1510678794785, "trialdata": {"rt": -1, "stimulus": "<p id=\"stim\">SWITCH</p>", "key_press": -1, "type": "PRES_VIS", "word": "switch", "wordID": 1421, "conditions": [12, 1600, "v", 12000], "trial": 3, "serialpos": 7, "trial_type": "single-stim", "trial_index": 124, "time_elapsed": 836872, "internal_node_id": "0.0-88.0"}}, {"uniqueid": "MTK0247:30MVJZJNHNKTE4ABV2S37B0U1VL9JS", "current_trial": 125, "dateTime": 1510678797254, "trialdata": {"rt": -1, "stimulus": "<p id=\"stim\">DRINK</p>", "key_press": -1, "type": "PRES_VIS", "word": "drink", "wordID": 497, "conditions": [12, 1600, "v", 12000], "trial": 3, "serialpos": 8, "trial_type": "single-stim", "trial_index": 125, "time_elapsed": 839341, "internal_node_id": "0.0-89.0"}}, {"uniqueid": "MTK0247:30MVJZJNHNKTE4ABV2S37B0U1VL9JS", "current_trial": 126, "dateTime": 1510678799945, "trialdata": {"rt": -1, "stimulus": "<p id=\"stim\">FINGER</p>", "key_press": -1, "type": "PRES_VIS", "word": "finger", "wordID": 566, "conditions": [12, 1600, "v", 12000], "trial": 3, "serialpos": 9, "trial_type": "single-stim", "trial_index": 126, "time_elapsed": 842032, "internal_node_id": "0.0-90.0"}}, {"uniqueid": "MTK0247:30MVJZJNHNKTE4ABV2S37B0U1VL9JS", "current_trial": 127, "dateTime": 1510678802421, "trialdata": {"rt": -1, "stimulus": "<p id=\"stim\">JELLY</p>", "key_press": -1, "type": "PRES_VIS", "word": "jelly", "wordID": 754, "conditions": [12, 1600, "v", 12000], "trial": 3, "serialpos": 10, "trial_type": "single-stim", "trial_index": 127, "time_elapsed": 844508, "internal_node_id": "0.0-91.0"}}, {"uniqueid": "MTK0247:30MVJZJNHNKTE4ABV2S37B0U1VL9JS", "current_trial": 128, "dateTime": 1510678804986, "trialdata": {"rt": -1, "stimulus": "<p id=\"stim\">BLOCKADE</p>", "key_press": -1, "type": "PRES_VIS", "word": "blockade", "wordID": 136, "conditions": [12, 1600, "v", 12000], "trial": 3, "serialpos": 11, "trial_type": "single-stim", "trial_index": 128, "time_elapsed": 847073, "internal_node_id": "0.0-92.0"}}, {"uniqueid": "MTK0247:30MVJZJNHNKTE4ABV2S37B0U1VL9JS", "current_trial": 129, "dateTime": 1510678807179, "trialdata": {"rt": -1, "stimulus": "", "key_press": -1, "type": "PRE_RECALL_DELAY", "trial_type": "single-stim", "trial_index": 129, "time_elapsed": 849266, "internal_node_id": "0.0-93.0-0.0"}}, {"uniqueid": "MTK0247:30MVJZJNHNKTE4ABV2S37B0U1VL9JS", "current_trial": 130, "dateTime": 1510678807680, "trialdata": {"rt": -1000, "stimulus": "/static/audio/400Hz.wav", "key_press": -1, "type": "PRE_RECALL_ALERT", "trial_type": "single-audio", "trial_index": 130, "time_elapsed": 849767, "internal_node_id": "0.0-94.0"}}, {"uniqueid": "MTK0247:30MVJZJNHNKTE4ABV2S37B0U1VL9JS", "current_trial": 131, "dateTime": 1510678867687, "trialdata": {"rt": [1880, 2815, 4183, 6391, 7687, 8343, 9911, 30199, 33566, 43223], "recwords": ["blockade", "jelly", "doughnut", "sandwich", "rebel", "denim", "custard", "sandwich", "finger", "slug"], "type": "FREE_RECALL", "conditions": [12, 1600, "v", 12000], "trial": 3, "trial_type": "free-recall", "trial_index": 131, "time_elapsed": 909771, "internal_node_id": "0.0-95.0-0.0"}}, {"uniqueid": "MTK0247:30MVJZJNHNKTE4ABV2S37B0U1VL9JS", "current_trial": 132, "dateTime": 1510678876576, "trialdata": {"rt": 6887, "key_press": 32, "type": "INSTRUCTIONS", "trial_type": "text", "trial_index": 132, "time_elapsed": 918662, "internal_node_id": "0.0-96.0"}}, {"uniqueid": "MTK0247:30MVJZJNHNKTE4ABV2S37B0U1VL9JS", "current_trial": 133, "dateTime": 1510678890579, "trialdata": {"rt": [1693, 2757, 5117, 6700, 7925, 10964], "responses": ["16", "16", "12", "14", "11", "19"], "num1": [1, 1, 2, 7, 1, 8, 8], "num2": [7, 8, 4, 4, 1, 5, 1], "num3": [8, 7, 6, 3, 9, 6, 2], "type": "DISTRACTOR", "conditions": [24, 800, "v", 12000], "trial": 4, "trial_type": "math-distractor", "trial_index": 133, "time_elapsed": 932666, "internal_node_id": "0.0-97.0"}}, {"uniqueid": "MTK0247:30MVJZJNHNKTE4ABV2S37B0U1VL9JS", "current_trial": 134, "dateTime": 1510678893581, "trialdata": {"rt": -1, "stimulus": "<p id=\"stim\">10</p>", "key_press": -1, "trial_type": "single-stim", "trial_index": 134, "time_elapsed": 935668, "internal_node_id": "0.0-98.0-0.0"}}, {"uniqueid": "MTK0247:30MVJZJNHNKTE4ABV2S37B0U1VL9JS", "current_trial": 135, "dateTime": 1510678894583, "trialdata": {"rt": -1, "stimulus": "<p id=\"stim\">9</p>", "key_press": -1, "trial_type": "single-stim", "trial_index": 135, "time_elapsed": 936670, "internal_node_id": "0.0-98.0-1.0"}}, {"uniqueid": "MTK0247:30MVJZJNHNKTE4ABV2S37B0U1VL9JS", "current_trial": 136, "dateTime": 1510678895584, "trialdata": {"rt": -1, "stimulus": "<p id=\"stim\">8</p>", "key_press": -1, "trial_type": "single-stim", "trial_index": 136, "time_elapsed": 937671, "internal_node_id": "0.0-98.0-2.0"}}, {"uniqueid": "MTK0247:30MVJZJNHNKTE4ABV2S37B0U1VL9JS", "current_trial": 137, "dateTime": 1510678896585, "trialdata": {"rt": -1, "stimulus": "<p id=\"stim\">7</p>", "key_press": -1, "trial_type": "single-stim", "trial_index": 137, "time_elapsed": 938672, "internal_node_id": "0.0-98.0-3.0"}}, {"uniqueid": "MTK0247:30MVJZJNHNKTE4ABV2S37B0U1VL9JS", "current_trial": 138, "dateTime": 1510678897586, "trialdata": {"rt": -1, "stimulus": "<p id=\"stim\">6</p>", "key_press": -1, "trial_type": "single-stim", "trial_index": 138, "time_elapsed": 939673, "internal_node_id": "0.0-98.0-4.0"}}, {"uniqueid": "MTK0247:30MVJZJNHNKTE4ABV2S37B0U1VL9JS", "current_trial": 139, "dateTime": 1510678898587, "trialdata": {"rt": -1, "stimulus": "<p id=\"stim\">5</p>", "key_press": -1, "trial_type": "single-stim", "trial_index": 139, "time_elapsed": 940674, "internal_node_id": "0.0-98.0-5.0"}}, {"uniqueid": "MTK0247:30MVJZJNHNKTE4ABV2S37B0U1VL9JS", "current_trial": 140, "dateTime": 1510678899588, "trialdata": {"rt": -1, "stimulus": "<p id=\"stim\">4</p>", "key_press": -1, "trial_type": "single-stim", "trial_index": 140, "time_elapsed": 941675, "internal_node_id": "0.0-98.0-6.0"}}, {"uniqueid": "MTK0247:30MVJZJNHNKTE4ABV2S37B0U1VL9JS", "current_trial": 141, "dateTime": 1510678900589, "trialdata": {"rt": -1, "stimulus": "<p id=\"stim\">3</p>", "key_press": -1, "trial_type": "single-stim", "trial_index": 141, "time_elapsed": 942676, "internal_node_id": "0.0-98.0-7.0"}}, {"uniqueid": "MTK0247:30MVJZJNHNKTE4ABV2S37B0U1VL9JS", "current_trial": 142, "dateTime": 1510678901590, "trialdata": {"rt": -1, "stimulus": "<p id=\"stim\">2</p>", "key_press": -1, "trial_type": "single-stim", "trial_index": 142, "time_elapsed": 943677, "internal_node_id": "0.0-98.0-8.0"}}, {"uniqueid": "MTK0247:30MVJZJNHNKTE4ABV2S37B0U1VL9JS", "current_trial": 143, "dateTime": 1510678902591, "trialdata": {"rt": -1, "stimulus": "<p id=\"stim\">1</p>", "key_press": -1, "trial_type": "single-stim", "trial_index": 143, "time_elapsed": 944678, "internal_node_id": "0.0-98.0-9.0"}}, {"uniqueid": "MTK0247:30MVJZJNHNKTE4ABV2S37B0U1VL9JS", "current_trial": 144, "dateTime": 1510678904092, "trialdata": {"rt": -1, "stimulus": "<p id=\"stim\">+</p>", "key_press": -1, "type": "FIXATION", "trial_type": "single-stim", "trial_index": 144, "time_elapsed": 946179, "internal_node_id": "0.0-99.0-0.0"}}, {"uniqueid": "MTK0247:30MVJZJNHNKTE4ABV2S37B0U1VL9JS", "current_trial": 145, "dateTime": 1510678904893, "trialdata": {"rt": -1, "stimulus": "<p id=\"stim\">HANDBAG</p>", "key_press": -1, "type": "PRES_VIS", "word": "handbag", "wordID": 683, "conditions": [24, 800, "v", 12000], "trial": 4, "serialpos": 0, "trial_type": "single-stim", "trial_index": 145, "time_elapsed": 946980, "internal_node_id": "0.0-100.0"}}, {"uniqueid": "MTK0247:30MVJZJNHNKTE4ABV2S37B0U1VL9JS", "current_trial": 146, "dateTime": 1510678906584, "trialdata": {"rt": -1, "stimulus": "<p id=\"stim\">SEAFOOD</p>", "key_press": -1, "type": "PRES_VIS", "word": "seafood", "wordID": 1259, "conditions": [24, 800, "v", 12000], "trial": 4, "serialpos": 1, "trial_type": "single-stim", "trial_index": 146, "time_elapsed": 948671, "internal_node_id": "0.0-101.0"}}, {"uniqueid": "MTK0247:30MVJZJNHNKTE4ABV2S37B0U1VL9JS", "current_trial": 147, "dateTime": 1510678908493, "trialdata": {"rt": -1, "stimulus": "<p id=\"stim\">JUNGLE</p>", "key_press": -1, "type": "PRES_VIS", "word": "jungle", "wordID": 763, "conditions": [24, 800, "v", 12000], "trial": 4, "serialpos": 2, "trial_type": "single-stim", "trial_index": 147, "time_elapsed": 950580, "internal_node_id": "0.0-102.0"}}, {"uniqueid": "MTK0247:30MVJZJNHNKTE4ABV2S37B0U1VL9JS", "current_trial": 148, "dateTime": 1510678910242, "trialdata": {"rt": -1, "stimulus": "<p id=\"stim\">SUITCASE</p>", "key_press": -1, "type": "PRES_VIS", "word": "suitcase", "wordID": 1402, "conditions": [24, 800, "v", 12000], "trial": 4, "serialpos": 3, "trial_type": "single-stim", "trial_index": 148, "time_elapsed": 952329, "internal_node_id": "0.0-103.0"}}, {"uniqueid": "MTK0247:30MVJZJNHNKTE4ABV2S37B0U1VL9JS", "current_trial": 149, "dateTime": 1510678911897, "trialdata": {"rt": -1, "stimulus": "<p id=\"stim\">SHELF</p>", "key_press": -1, "type": "PRES_VIS", "word": "shelf", "wordID": 1279, "conditions": [24, 800, "v", 12000], "trial": 4, "serialpos": 4, "trial_type": "single-stim", "trial_index": 149, "time_elapsed": 953984, "internal_node_id": "0.0-104.0"}}, {"uniqueid": "MTK0247:30MVJZJNHNKTE4ABV2S37B0U1VL9JS", "current_trial": 150, "dateTime": 1510678913608, "trialdata": {"rt": -1, "stimulus": "<p id=\"stim\">INMATE</p>", "key_press": -1, "type": "PRES_VIS", "word": "inmate", "wordID": 737, "conditions": [24, 800, "v", 12000], "trial": 4, "serialpos": 5, "trial_type": "single-stim", "trial_index": 150, "time_elapsed": 955695, "internal_node_id": "0.0-105.0"}}, {"uniqueid": "MTK0247:30MVJZJNHNKTE4ABV2S37B0U1VL9JS", "current_trial": 151, "dateTime": 1510678915377, "trialdata": {"rt": -1, "stimulus": "<p id=\"stim\">WAITRESS</p>", "key_press": -1, "type": "PRES_VIS", "word": "waitress", "wordID": 1580, "conditions": [24, 800, "v", 12000], "trial": 4, "serialpos": 6, "trial_type": "single-stim", "trial_index": 151, "time_elapsed": 957464, "internal_node_id": "0.0-106.0"}}, {"uniqueid": "MTK0247:30MVJZJNHNKTE4ABV2S37B0U1VL9JS", "current_trial": 152, "dateTime": 1510678917302, "trialdata": {"rt": -1, "stimulus": "<p id=\"stim\">DINER</p>", "key_press": -1, "type": "PRES_VIS", "word": "diner", "wordID": 466, "conditions": [24, 800, "v", 12000], "trial": 4, "serialpos": 7, "trial_type": "single-stim", "trial_index": 152, "time_elapsed": 959389, "internal_node_id": "0.0-107.0"}}, {"uniqueid": "MTK0247:30MVJZJNHNKTE4ABV2S37B0U1VL9JS", "current_trial": 153, "dateTime": 1510678919170, "trialdata": {"rt": -1, "stimulus": "<p id=\"stim\">CITRUS</p>", "key_press": -1, "type": "PRES_VIS", "word": "citrus", "wordID": 312, "conditions": [24, 800, "v", 12000], "trial": 4, "serialpos": 8, "trial_type": "single-stim", "trial_index": 153, "time_elapsed": 961257, "internal_node_id": "0.0-108.0"}}, {"uniqueid": "MTK0247:30MVJZJNHNKTE4ABV2S37B0U1VL9JS", "current_trial": 154, "dateTime": 1510678921102, "trialdata": {"rt": -1, "stimulus": "<p id=\"stim\">XEROX</p>", "key_press": -1, "type": "PRES_VIS", "word": "xerox", "wordID": 1627, "conditions": [24, 800, "v", 12000], "trial": 4, "serialpos": 9, "trial_type": "single-stim", "trial_index": 154, "time_elapsed": 963189, "internal_node_id": "0.0-109.0"}}, {"uniqueid": "MTK0247:30MVJZJNHNKTE4ABV2S37B0U1VL9JS", "current_trial": 155, "dateTime": 1510678922895, "trialdata": {"rt": -1, "stimulus": "<p id=\"stim\">TRUCK</p>", "key_press": -1, "type": "PRES_VIS", "word": "truck", "wordID": 1511, "conditions": [24, 800, "v", 12000], "trial": 4, "serialpos": 10, "trial_type": "single-stim", "trial_index": 155, "time_elapsed": 964982, "internal_node_id": "0.0-110.0"}}, {"uniqueid": "MTK0247:30MVJZJNHNKTE4ABV2S37B0U1VL9JS", "current_trial": 156, "dateTime": 1510678924803, "trialdata": {"rt": -1, "stimulus": "<p id=\"stim\">SIDEWALK</p>", "key_press": -1, "type": "PRES_VIS", "word": "sidewalk", "wordID": 1302, "conditions": [24, 800, "v", 12000], "trial": 4, "serialpos": 11, "trial_type": "single-stim", "trial_index": 156, "time_elapsed": 966890, "internal_node_id": "0.0-111.0"}}, {"uniqueid": "MTK0247:30MVJZJNHNKTE4ABV2S37B0U1VL9JS", "current_trial": 157, "dateTime": 1510678926459, "trialdata": {"rt": -1, "stimulus": "<p id=\"stim\">VICTIM</p>", "key_press": -1, "type": "PRES_VIS", "word": "victim", "wordID": 1561, "conditions": [24, 800, "v", 12000], "trial": 4, "serialpos": 12, "trial_type": "single-stim", "trial_index": 157, "time_elapsed": 968546, "internal_node_id": "0.0-112.0"}}, {"uniqueid": "MTK0247:30MVJZJNHNKTE4ABV2S37B0U1VL9JS", "current_trial": 158, "dateTime": 1510678928423, "trialdata": {"rt": -1, "stimulus": "<p id=\"stim\">PIANO</p>", "key_press": -1, "type": "PRES_VIS", "word": "piano", "wordID": 1056, "conditions": [24, 800, "v", 12000], "trial": 4, "serialpos": 13, "trial_type": "single-stim", "trial_index": 158, "time_elapsed": 970510, "internal_node_id": "0.0-113.0"}}, {"uniqueid": "MTK0247:30MVJZJNHNKTE4ABV2S37B0U1VL9JS", "current_trial": 159, "dateTime": 1510678930038, "trialdata": {"rt": -1, "stimulus": "<p id=\"stim\">RABBIT</p>", "key_press": -1, "type": "PRES_VIS", "word": "rabbit", "wordID": 1151, "conditions": [24, 800, "v", 12000], "trial": 4, "serialpos": 14, "trial_type": "single-stim", "trial_index": 159, "time_elapsed": 972125, "internal_node_id": "0.0-114.0"}}, {"uniqueid": "MTK0247:30MVJZJNHNKTE4ABV2S37B0U1VL9JS", "current_trial": 160, "dateTime": 1510678931688, "trialdata": {"rt": -1, "stimulus": "<p id=\"stim\">BATHTUB</p>", "key_press": -1, "type": "PRES_VIS", "word": "bathtub", "wordID": 99, "conditions": [24, 800, "v", 12000], "trial": 4, "serialpos": 15, "trial_type": "single-stim", "trial_index": 160, "time_elapsed": 973775, "internal_node_id": "0.0-115.0"}}, {"uniqueid": "MTK0247:30MVJZJNHNKTE4ABV2S37B0U1VL9JS", "current_trial": 161, "dateTime": 1510678933687, "trialdata": {"rt": -1, "stimulus": "<p id=\"stim\">BLADE</p>", "key_press": -1, "type": "PRES_VIS", "word": "blade", "wordID": 133, "conditions": [24, 800, "v", 12000], "trial": 4, "serialpos": 16, "trial_type": "single-stim", "trial_index": 161, "time_elapsed": 975774, "internal_node_id": "0.0-116.0"}}, {"uniqueid": "MTK0247:30MVJZJNHNKTE4ABV2S37B0U1VL9JS", "current_trial": 162, "dateTime": 1510678935428, "trialdata": {"rt": -1, "stimulus": "<p id=\"stim\">AGENT</p>", "key_press": -1, "type": "PRES_VIS", "word": "agent", "wordID": 9, "conditions": [24, 800, "v", 12000], "trial": 4, "serialpos": 17, "trial_type": "single-stim", "trial_index": 162, "time_elapsed": 977515, "internal_node_id": "0.0-117.0"}}, {"uniqueid": "MTK0247:30MVJZJNHNKTE4ABV2S37B0U1VL9JS", "current_trial": 163, "dateTime": 1510678937403, "trialdata": {"rt": -1, "stimulus": "<p id=\"stim\">DRUG</p>", "key_press": -1, "type": "PRES_VIS", "word": "drug", "wordID": 500, "conditions": [24, 800, "v", 12000], "trial": 4, "serialpos": 18, "trial_type": "single-stim", "trial_index": 163, "time_elapsed": 979490, "internal_node_id": "0.0-118.0"}}, {"uniqueid": "MTK0247:30MVJZJNHNKTE4ABV2S37B0U1VL9JS", "current_trial": 164, "dateTime": 1510678939248, "trialdata": {"rt": -1, "stimulus": "<p id=\"stim\">FLUTE</p>", "key_press": -1, "type": "PRES_VIS", "word": "flute", "wordID": 584, "conditions": [24, 800, "v", 12000], "trial": 4, "serialpos": 19, "trial_type": "single-stim", "trial_index": 164, "time_elapsed": 981335, "internal_node_id": "0.0-119.0"}}, {"uniqueid": "MTK0247:30MVJZJNHNKTE4ABV2S37B0U1VL9JS", "current_trial": 165, "dateTime": 1510678941031, "trialdata": {"rt": -1, "stimulus": "<p id=\"stim\">ORCHID</p>", "key_press": -1, "type": "PRES_VIS", "word": "orchid", "wordID": 981, "conditions": [24, 800, "v", 12000], "trial": 4, "serialpos": 20, "trial_type": "single-stim", "trial_index": 165, "time_elapsed": 983118, "internal_node_id": "0.0-120.0"}}, {"uniqueid": "MTK0247:30MVJZJNHNKTE4ABV2S37B0U1VL9JS", "current_trial": 166, "dateTime": 1510678942816, "trialdata": {"rt": -1, "stimulus": "<p id=\"stim\">PRINCESS</p>", "key_press": -1, "type": "PRES_VIS", "word": "princess", "wordID": 1124, "conditions": [24, 800, "v", 12000], "trial": 4, "serialpos": 21, "trial_type": "single-stim", "trial_index": 166, "time_elapsed": 984903, "internal_node_id": "0.0-121.0"}}, {"uniqueid": "MTK0247:30MVJZJNHNKTE4ABV2S37B0U1VL9JS", "current_trial": 167, "dateTime": 1510678944537, "trialdata": {"rt": -1, "stimulus": "<p id=\"stim\">QUEEN</p>", "key_press": -1, "type": "PRES_VIS", "word": "queen", "wordID": 1148, "conditions": [24, 800, "v", 12000], "trial": 4, "serialpos": 22, "trial_type": "single-stim", "trial_index": 167, "time_elapsed": 986624, "internal_node_id": "0.0-122.0"}}, {"uniqueid": "MTK0247:30MVJZJNHNKTE4ABV2S37B0U1VL9JS", "current_trial": 168, "dateTime": 1510678946396, "trialdata": {"rt": -1, "stimulus": "<p id=\"stim\">PARROT</p>", "key_press": -1, "type": "PRES_VIS", "word": "parrot", "wordID": 1014, "conditions": [24, 800, "v", 12000], "trial": 4, "serialpos": 23, "trial_type": "single-stim", "trial_index": 168, "time_elapsed": 988483, "internal_node_id": "0.0-123.0"}}, {"uniqueid": "MTK0247:30MVJZJNHNKTE4ABV2S37B0U1VL9JS", "current_trial": 169, "dateTime": 1510678948866, "trialdata": {"rt": -1, "stimulus": "", "key_press": -1, "type": "PRE_RECALL_DELAY", "trial_type": "single-stim", "trial_index": 169, "time_elapsed": 990953, "internal_node_id": "0.0-124.0-0.0"}}, {"uniqueid": "MTK0247:30MVJZJNHNKTE4ABV2S37B0U1VL9JS", "current_trial": 170, "dateTime": 1510678949367, "trialdata": {"rt": -1000, "stimulus": "/static/audio/400Hz.wav", "key_press": -1, "type": "PRE_RECALL_ALERT", "trial_type": "single-audio", "trial_index": 170, "time_elapsed": 991454, "internal_node_id": "0.0-125.0"}}, {"uniqueid": "MTK0247:30MVJZJNHNKTE4ABV2S37B0U1VL9JS", "current_trial": 171, "dateTime": 1510679009377, "trialdata": {"rt": [1110, 2054, 3630, 4718, 8614, 12494, 15774, 23246, 30693, 34806, 40566], "recwords": ["parrot", "queen", "princess", "handbag", "xerox", "blade", "baggage", "waitress", "sidewalk", "luggage", "inmate"], "type": "FREE_RECALL", "conditions": [24, 800, "v", 12000], "trial": 4, "trial_type": "free-recall", "trial_index": 171, "time_elapsed": 1051459, "internal_node_id": "0.0-126.0-0.0"}}, {"uniqueid": "MTK0247:30MVJZJNHNKTE4ABV2S37B0U1VL9JS", "current_trial": 172, "dateTime": 1510679039911, "trialdata": {"rt": 28533, "key_press": 32, "type": "INSTRUCTIONS", "trial_type": "text", "trial_index": 172, "time_elapsed": 1081998, "internal_node_id": "0.0-127.0"}}, {"uniqueid": "MTK0247:30MVJZJNHNKTE4ABV2S37B0U1VL9JS", "current_trial": 173, "dateTime": 1510679053914, "trialdata": {"rt": [2221, 3861, 6069, 8845, 10526], "responses": ["20", "8", "19", "12", "17"], "num1": [6, 3, 6, 3, 5, 4], "num2": [9, 4, 5, 4, 9, 9], "num3": [5, 1, 8, 5, 3, 9], "type": "DISTRACTOR", "conditions": [12, 800, "a", 12000], "trial": 5, "trial_type": "math-distractor", "trial_index": 173, "time_elapsed": 1096001, "internal_node_id": "0.0-128.0"}}, {"uniqueid": "MTK0247:30MVJZJNHNKTE4ABV2S37B0U1VL9JS", "current_trial": 174, "dateTime": 1510679056916, "trialdata": {"rt": -1, "stimulus": "<p id=\"stim\">10</p>", "key_press": -1, "trial_type": "single-stim", "trial_index": 174, "time_elapsed": 1099003, "internal_node_id": "0.0-129.0-0.0"}}, {"uniqueid": "MTK0247:30MVJZJNHNKTE4ABV2S37B0U1VL9JS", "current_trial": 175, "dateTime": 1510679057917, "trialdata": {"rt": -1, "stimulus": "<p id=\"stim\">9</p>", "key_press": -1, "trial_type": "single-stim", "trial_index": 175, "time_elapsed": 1100004, "internal_node_id": "0.0-129.0-1.0"}}, {"uniqueid": "MTK0247:30MVJZJNHNKTE4ABV2S37B0U1VL9JS", "current_trial": 176, "dateTime": 1510679058918, "trialdata": {"rt": -1, "stimulus": "<p id=\"stim\">8</p>", "key_press": -1, "trial_type": "single-stim", "trial_index": 176, "time_elapsed": 1101005, "internal_node_id": "0.0-129.0-2.0"}}, {"uniqueid": "MTK0247:30MVJZJNHNKTE4ABV2S37B0U1VL9JS", "current_trial": 177, "dateTime": 1510679059919, "trialdata": {"rt": -1, "stimulus": "<p id=\"stim\">7</p>", "key_press": -1, "trial_type": "single-stim", "trial_index": 177, "time_elapsed": 1102006, "internal_node_id": "0.0-129.0-3.0"}}, {"uniqueid": "MTK0247:30MVJZJNHNKTE4ABV2S37B0U1VL9JS", "current_trial": 178, "dateTime": 1510679060921, "trialdata": {"rt": -1, "stimulus": "<p id=\"stim\">6</p>", "key_press": -1, "trial_type": "single-stim", "trial_index": 178, "time_elapsed": 1103008, "internal_node_id": "0.0-129.0-4.0"}}, {"uniqueid": "MTK0247:30MVJZJNHNKTE4ABV2S37B0U1VL9JS", "current_trial": 179, "dateTime": 1510679061922, "trialdata": {"rt": -1, "stimulus": "<p id=\"stim\">5</p>", "key_press": -1, "trial_type": "single-stim", "trial_index": 179, "time_elapsed": 1104009, "internal_node_id": "0.0-129.0-5.0"}}, {"uniqueid": "MTK0247:30MVJZJNHNKTE4ABV2S37B0U1VL9JS", "current_trial": 180, "dateTime": 1510679062923, "trialdata": {"rt": -1, "stimulus": "<p id=\"stim\">4</p>", "key_press": -1, "trial_type": "single-stim", "trial_index": 180, "time_elapsed": 1105010, "internal_node_id": "0.0-129.0-6.0"}}, {"uniqueid": "MTK0247:30MVJZJNHNKTE4ABV2S37B0U1VL9JS", "current_trial": 181, "dateTime": 1510679063924, "trialdata": {"rt": -1, "stimulus": "<p id=\"stim\">3</p>", "key_press": -1, "trial_type": "single-stim", "trial_index": 181, "time_elapsed": 1106011, "internal_node_id": "0.0-129.0-7.0"}}, {"uniqueid": "MTK0247:30MVJZJNHNKTE4ABV2S37B0U1VL9JS", "current_trial": 182, "dateTime": 1510679064925, "trialdata": {"rt": -1, "stimulus": "<p id=\"stim\">2</p>", "key_press": -1, "trial_type": "single-stim", "trial_index": 182, "time_elapsed": 1107012, "internal_node_id": "0.0-129.0-8.0"}}, {"uniqueid": "MTK0247:30MVJZJNHNKTE4ABV2S37B0U1VL9JS", "current_trial": 183, "dateTime": 1510679065926, "trialdata": {"rt": -1, "stimulus": "<p id=\"stim\">1</p>", "key_press": -1, "trial_type": "single-stim", "trial_index": 183, "time_elapsed": 1108013, "internal_node_id": "0.0-129.0-9.0"}}, {"uniqueid": "MTK0247:30MVJZJNHNKTE4ABV2S37B0U1VL9JS", "current_trial": 184, "dateTime": 1510679067427, "trialdata": {"rt": -1, "stimulus": "<p id=\"stim\">+</p>", "key_press": -1, "type": "FIXATION", "trial_type": "single-stim", "trial_index": 184, "time_elapsed": 1109514, "internal_node_id": "0.0-130.0-0.0"}}, {"uniqueid": "MTK0247:30MVJZJNHNKTE4ABV2S37B0U1VL9JS", "current_trial": 185, "dateTime": 1510679069366, "trialdata": {"rt": -1000, "stimulus": "/static/audio/wordpool/LIPSTICK.wav", "key_press": -1, "type": "PRES_AUD", "word": "lipstick", "wordID": 828, "conditions": [12, 800, "a", 12000], "trial": 5, "serialpos": 0, "trial_type": "single-audio", "trial_index": 185, "time_elapsed": 1111453, "internal_node_id": "0.0-131.0"}}, {"uniqueid": "MTK0247:30MVJZJNHNKTE4ABV2S37B0U1VL9JS", "current_trial": 186, "dateTime": 1510679071294, "trialdata": {"rt": -1000, "stimulus": "/static/audio/wordpool/POISON.wav", "key_press": -1, "type": "PRES_AUD", "word": "poison", "wordID": 1095, "conditions": [12, 800, "a", 12000], "trial": 5, "serialpos": 1, "trial_type": "single-audio", "trial_index": 186, "time_elapsed": 1113381, "internal_node_id": "0.0-132.0"}}, {"uniqueid": "MTK0247:30MVJZJNHNKTE4ABV2S37B0U1VL9JS", "current_trial": 187, "dateTime": 1510679072934, "trialdata": {"rt": -1000, "stimulus": "/static/audio/wordpool/MARROW.wav", "key_press": -1, "type": "PRES_AUD", "word": "marrow", "wordID": 871, "conditions": [12, 800, "a", 12000], "trial": 5, "serialpos": 2, "trial_type": "single-audio", "trial_index": 187, "time_elapsed": 1115021, "internal_node_id": "0.0-133.0"}}, {"uniqueid": "MTK0247:30MVJZJNHNKTE4ABV2S37B0U1VL9JS", "current_trial": 188, "dateTime": 1510679074931, "trialdata": {"rt": -1000, "stimulus": "/static/audio/wordpool/DANCER.wav", "key_press": -1, "type": "PRES_AUD", "word": "dancer", "wordID": 436, "conditions": [12, 800, "a", 12000], "trial": 5, "serialpos": 3, "trial_type": "single-audio", "trial_index": 188, "time_elapsed": 1117018, "internal_node_id": "0.0-134.0"}}, {"uniqueid": "MTK0247:30MVJZJNHNKTE4ABV2S37B0U1VL9JS", "current_trial": 189, "dateTime": 1510679076741, "trialdata": {"rt": -1000, "stimulus": "/static/audio/wordpool/COOKBOOK.wav", "key_press": -1, "type": "PRES_AUD", "word": "cookbook", "wordID": 372, "conditions": [12, 800, "a", 12000], "trial": 5, "serialpos": 4, "trial_type": "single-audio", "trial_index": 189, "time_elapsed": 1118828, "internal_node_id": "0.0-135.0"}}, {"uniqueid": "MTK0247:30MVJZJNHNKTE4ABV2S37B0U1VL9JS", "current_trial": 190, "dateTime": 1510679078726, "trialdata": {"rt": -1000, "stimulus": "/static/audio/wordpool/CHAPEL.wav", "key_press": -1, "type": "PRES_AUD", "word": "chapel", "wordID": 279, "conditions": [12, 800, "a", 12000], "trial": 5, "serialpos": 5, "trial_type": "single-audio", "trial_index": 190, "time_elapsed": 1120813, "internal_node_id": "0.0-136.0"}}, {"uniqueid": "MTK0247:30MVJZJNHNKTE4ABV2S37B0U1VL9JS", "current_trial": 191, "dateTime": 1510679080609, "trialdata": {"rt": -1000, "stimulus": "/static/audio/wordpool/CHURCH.wav", "key_press": -1, "type": "PRES_AUD", "word": "church", "wordID": 306, "conditions": [12, 800, "a", 12000], "trial": 5, "serialpos": 6, "trial_type": "single-audio", "trial_index": 191, "time_elapsed": 1122696, "internal_node_id": "0.0-137.0"}}, {"uniqueid": "MTK0247:30MVJZJNHNKTE4ABV2S37B0U1VL9JS", "current_trial": 192, "dateTime": 1510679082340, "trialdata": {"rt": -1000, "stimulus": "/static/audio/wordpool/MAILMAN.wav", "key_press": -1, "type": "PRES_AUD", "word": "mailman", "wordID": 857, "conditions": [12, 800, "a", 12000], "trial": 5, "serialpos": 7, "trial_type": "single-audio", "trial_index": 192, "time_elapsed": 1124427, "internal_node_id": "0.0-138.0"}}, {"uniqueid": "MTK0247:30MVJZJNHNKTE4ABV2S37B0U1VL9JS", "current_trial": 193, "dateTime": 1510679084263, "trialdata": {"rt": -1000, "stimulus": "/static/audio/wordpool/POSSUM.wav", "key_press": -1, "type": "PRES_AUD", "word": "possum", "wordID": 1111, "conditions": [12, 800, "a", 12000], "trial": 5, "serialpos": 8, "trial_type": "single-audio", "trial_index": 193, "time_elapsed": 1126350, "internal_node_id": "0.0-139.0"}}, {"uniqueid": "MTK0247:30MVJZJNHNKTE4ABV2S37B0U1VL9JS", "current_trial": 194, "dateTime": 1510679086055, "trialdata": {"rt": -1000, "stimulus": "/static/audio/wordpool/FLASHLIGHT.wav", "key_press": -1, "type": "PRES_AUD", "word": "flashlight", "wordID": 574, "conditions": [12, 800, "a", 12000], "trial": 5, "serialpos": 9, "trial_type": "single-audio", "trial_index": 194, "time_elapsed": 1128142, "internal_node_id": "0.0-140.0"}}, {"uniqueid": "MTK0247:30MVJZJNHNKTE4ABV2S37B0U1VL9JS", "current_trial": 195, "dateTime": 1510679087848, "trialdata": {"rt": -1000, "stimulus": "/static/audio/wordpool/LADY.wav", "key_press": -1, "type": "PRES_AUD", "word": "lady", "wordID": 793, "conditions": [12, 800, "a", 12000], "trial": 5, "serialpos": 10, "trial_type": "single-audio", "trial_index": 195, "time_elapsed": 1129935, "internal_node_id": "0.0-141.0"}}, {"uniqueid": "MTK0247:30MVJZJNHNKTE4ABV2S37B0U1VL9JS", "current_trial": 196, "dateTime": 1510679089482, "trialdata": {"rt": -1000, "stimulus": "/static/audio/wordpool/GYMNAST.wav", "key_press": -1, "type": "PRES_AUD", "word": "gymnast", "wordID": 674, "conditions": [12, 800, "a", 12000], "trial": 5, "serialpos": 11, "trial_type": "single-audio", "trial_index": 196, "time_elapsed": 1131569, "internal_node_id": "0.0-142.0"}}, {"uniqueid": "MTK0247:30MVJZJNHNKTE4ABV2S37B0U1VL9JS", "current_trial": 197, "dateTime": 1510679090863, "trialdata": {"rt": -1, "stimulus": "", "key_press": -1, "type": "PRE_RECALL_DELAY", "trial_type": "single-stim", "trial_index": 197, "time_elapsed": 1132950, "internal_node_id": "0.0-143.0-0.0"}}, {"uniqueid": "MTK0247:30MVJZJNHNKTE4ABV2S37B0U1VL9JS", "current_trial": 198, "dateTime": 1510679091364, "trialdata": {"rt": -1000, "stimulus": "/static/audio/400Hz.wav", "key_press": -1, "type": "PRE_RECALL_ALERT", "trial_type": "single-audio", "trial_index": 198, "time_elapsed": 1133451, "internal_node_id": "0.0-144.0"}}, {"uniqueid": "MTK0247:30MVJZJNHNKTE4ABV2S37B0U1VL9JS", "current_trial": 199, "dateTime": 1510679151372, "trialdata": {"rt": [984, 2888, 5864, 6880, 7656, 8544, 24327, 29566, 39303, 50815], "recwords": ["lady", "gymnast", "lipstick", "poison", "chapel", "church", "mailman", "flashlight", "dancer", "possum"], "type": "FREE_RECALL", "conditions": [12, 800, "a", 12000], "trial": 5, "trial_type": "free-recall", "trial_index": 199, "time_elapsed": 1193454, "internal_node_id": "0.0-145.0-0.0"}}, {"uniqueid": "MTK0247:30MVJZJNHNKTE4ABV2S37B0U1VL9JS", "current_trial": 200, "dateTime": 1510679157390, "trialdata": {"rt": 4016, "key_press": 32, "type": "INSTRUCTIONS", "trial_type": "text", "trial_index": 200, "time_elapsed": 1199476, "internal_node_id": "0.0-146.0"}}, {"uniqueid": "MTK0247:30MVJZJNHNKTE4ABV2S37B0U1VL9JS", "current_trial": 201, "dateTime": 1510679183394, "trialdata": {"rt": [1461, 2677, 4197, 5925, 8759, 10765, 13781, 15662, 16918, 18006, 19230, 20630, 22182, 23910], "responses": ["16", "14", "7", "16", "9", "23", "21", "18", "4", "9", "14", "12", "20", "10"], "num1": [8, 2, 4, 6, 4, 7, 9, 7, 1, 1, 4, 3, 6, 5, 6], "num2": [2, 6, 1, 3, 3, 9, 6, 5, 1, 7, 5, 7, 7, 2, 5], "num3": [6, 6, 2, 7, 2, 7, 6, 6, 2, 1, 5, 2, 7, 3, 8], "type": "DISTRACTOR", "conditions": [12, 800, "a", 24000], "trial": 6, "trial_type": "math-distractor", "trial_index": 201, "time_elapsed": 1225481, "internal_node_id": "0.0-147.0"}}, {"uniqueid": "MTK0247:30MVJZJNHNKTE4ABV2S37B0U1VL9JS", "current_trial": 202, "dateTime": 1510679186396, "trialdata": {"rt": -1, "stimulus": "<p id=\"stim\">10</p>", "key_press": -1, "trial_type": "single-stim", "trial_index": 202, "time_elapsed": 1228483, "internal_node_id": "0.0-148.0-0.0"}}, {"uniqueid": "MTK0247:30MVJZJNHNKTE4ABV2S37B0U1VL9JS", "current_trial": 203, "dateTime": 1510679187397, "trialdata": {"rt": -1, "stimulus": "<p id=\"stim\">9</p>", "key_press": -1, "trial_type": "single-stim", "trial_index": 203, "time_elapsed": 1229484, "internal_node_id": "0.0-148.0-1.0"}}, {"uniqueid": "MTK0247:30MVJZJNHNKTE4ABV2S37B0U1VL9JS", "current_trial": 204, "dateTime": 1510679188398, "trialdata": {"rt": -1, "stimulus": "<p id=\"stim\">8</p>", "key_press": -1, "trial_type": "single-stim", "trial_index": 204, "time_elapsed": 1230485, "internal_node_id": "0.0-148.0-2.0"}}, {"uniqueid": "MTK0247:30MVJZJNHNKTE4ABV2S37B0U1VL9JS", "current_trial": 205, "dateTime": 1510679189399, "trialdata": {"rt": -1, "stimulus": "<p id=\"stim\">7</p>", "key_press": -1, "trial_type": "single-stim", "trial_index": 205, "time_elapsed": 1231486, "internal_node_id": "0.0-148.0-3.0"}}, {"uniqueid": "MTK0247:30MVJZJNHNKTE4ABV2S37B0U1VL9JS", "current_trial": 206, "dateTime": 1510679190400, "trialdata": {"rt": -1, "stimulus": "<p id=\"stim\">6</p>", "key_press": -1, "trial_type": "single-stim", "trial_index": 206, "time_elapsed": 1232487, "internal_node_id": "0.0-148.0-4.0"}}, {"uniqueid": "MTK0247:30MVJZJNHNKTE4ABV2S37B0U1VL9JS", "current_trial": 207, "dateTime": 1510679191401, "trialdata": {"rt": -1, "stimulus": "<p id=\"stim\">5</p>", "key_press": -1, "trial_type": "single-stim", "trial_index": 207, "time_elapsed": 1233488, "internal_node_id": "0.0-148.0-5.0"}}, {"uniqueid": "MTK0247:30MVJZJNHNKTE4ABV2S37B0U1VL9JS", "current_trial": 208, "dateTime": 1510679192403, "trialdata": {"rt": -1, "stimulus": "<p id=\"stim\">4</p>", "key_press": -1, "trial_type": "single-stim", "trial_index": 208, "time_elapsed": 1234490, "internal_node_id": "0.0-148.0-6.0"}}, {"uniqueid": "MTK0247:30MVJZJNHNKTE4ABV2S37B0U1VL9JS", "current_trial": 209, "dateTime": 1510679193404, "trialdata": {"rt": -1, "stimulus": "<p id=\"stim\">3</p>", "key_press": -1, "trial_type": "single-stim", "trial_index": 209, "time_elapsed": 1235491, "internal_node_id": "0.0-148.0-7.0"}}, {"uniqueid": "MTK0247:30MVJZJNHNKTE4ABV2S37B0U1VL9JS", "current_trial": 210, "dateTime": 1510679194405, "trialdata": {"rt": -1, "stimulus": "<p id=\"stim\">2</p>", "key_press": -1, "trial_type": "single-stim", "trial_index": 210, "time_elapsed": 1236492, "internal_node_id": "0.0-148.0-8.0"}}, {"uniqueid": "MTK0247:30MVJZJNHNKTE4ABV2S37B0U1VL9JS", "current_trial": 211, "dateTime": 1510679195406, "trialdata": {"rt": -1, "stimulus": "<p id=\"stim\">1</p>", "key_press": -1, "trial_type": "single-stim", "trial_index": 211, "time_elapsed": 1237493, "internal_node_id": "0.0-148.0-9.0"}}, {"uniqueid": "MTK0247:30MVJZJNHNKTE4ABV2S37B0U1VL9JS", "current_trial": 212, "dateTime": 1510679196907, "trialdata": {"rt": -1, "stimulus": "<p id=\"stim\">+</p>", "key_press": -1, "type": "FIXATION", "trial_type": "single-stim", "trial_index": 212, "time_elapsed": 1238994, "internal_node_id": "0.0-149.0-0.0"}}, {"uniqueid": "MTK0247:30MVJZJNHNKTE4ABV2S37B0U1VL9JS", "current_trial": 213, "dateTime": 1510679198853, "trialdata": {"rt": -1000, "stimulus": "/static/audio/wordpool/VAGRANT.wav", "key_press": -1, "type": "PRES_AUD", "word": "vagrant", "wordID": 1543, "conditions": [12, 800, "a", 24000], "trial": 6, "serialpos": 0, "trial_type": "single-audio", "trial_index": 213, "time_elapsed": 1240940, "internal_node_id": "0.0-150.0"}}, {"uniqueid": "MTK0247:30MVJZJNHNKTE4ABV2S37B0U1VL9JS", "current_trial": 214, "dateTime": 1510679200626, "trialdata": {"rt": -1000, "stimulus": "/static/audio/wordpool/COTTAGE.wav", "key_press": -1, "type": "PRES_AUD", "word": "cottage", "wordID": 383, "conditions": [12, 800, "a", 24000], "trial": 6, "serialpos": 1, "trial_type": "single-audio", "trial_index": 214, "time_elapsed": 1242713, "internal_node_id": "0.0-151.0"}}, {"uniqueid": "MTK0247:30MVJZJNHNKTE4ABV2S37B0U1VL9JS", "current_trial": 215, "dateTime": 1510679202297, "trialdata": {"rt": -1000, "stimulus": "/static/audio/wordpool/CROWN.wav", "key_press": -1, "type": "PRES_AUD", "word": "crown", "wordID": 414, "conditions": [12, 800, "a", 24000], "trial": 6, "serialpos": 2, "trial_type": "single-audio", "trial_index": 215, "time_elapsed": 1244384, "internal_node_id": "0.0-152.0"}}, {"uniqueid": "MTK0247:30MVJZJNHNKTE4ABV2S37B0U1VL9JS", "current_trial": 216, "dateTime": 1510679204232, "trialdata": {"rt": -1000, "stimulus": "/static/audio/wordpool/OZONE.wav", "key_press": -1, "type": "PRES_AUD", "word": "ozone", "wordID": 995, "conditions": [12, 800, "a", 24000], "trial": 6, "serialpos": 3, "trial_type": "single-audio", "trial_index": 216, "time_elapsed": 1246319, "internal_node_id": "0.0-153.0"}}, {"uniqueid": "MTK0247:30MVJZJNHNKTE4ABV2S37B0U1VL9JS", "current_trial": 217, "dateTime": 1510679206029, "trialdata": {"rt": -1000, "stimulus": "/static/audio/wordpool/CIGAR.wav", "key_press": -1, "type": "PRES_AUD", "word": "cigar", "wordID": 307, "conditions": [12, 800, "a", 24000], "trial": 6, "serialpos": 4, "trial_type": "single-audio", "trial_index": 217, "time_elapsed": 1248116, "internal_node_id": "0.0-154.0"}}, {"uniqueid": "MTK0247:30MVJZJNHNKTE4ABV2S37B0U1VL9JS", "current_trial": 218, "dateTime": 1510679207680, "trialdata": {"rt": -1000, "stimulus": "/static/audio/wordpool/TABLET.wav", "key_press": -1, "type": "PRES_AUD", "word": "tablet", "wordID": 1426, "conditions": [12, 800, "a", 24000], "trial": 6, "serialpos": 5, "trial_type": "single-audio", "trial_index": 218, "time_elapsed": 1249767, "internal_node_id": "0.0-155.0"}}, {"uniqueid": "MTK0247:30MVJZJNHNKTE4ABV2S37B0U1VL9JS", "current_trial": 219, "dateTime": 1510679209583, "trialdata": {"rt": -1000, "stimulus": "/static/audio/wordpool/LEADER.wav", "key_press": -1, "type": "PRES_AUD", "word": "leader", "wordID": 806, "conditions": [12, 800, "a", 24000], "trial": 6, "serialpos": 6, "trial_type": "single-audio", "trial_index": 219, "time_elapsed": 1251670, "internal_node_id": "0.0-156.0"}}, {"uniqueid": "MTK0247:30MVJZJNHNKTE4ABV2S37B0U1VL9JS", "current_trial": 220, "dateTime": 1510679211473, "trialdata": {"rt": -1000, "stimulus": "/static/audio/wordpool/SKIRT.wav", "key_press": -1, "type": "PRES_AUD", "word": "skirt", "wordID": 1318, "conditions": [12, 800, "a", 24000], "trial": 6, "serialpos": 7, "trial_type": "single-audio", "trial_index": 220, "time_elapsed": 1253560, "internal_node_id": "0.0-157.0"}}, {"uniqueid": "MTK0247:30MVJZJNHNKTE4ABV2S37B0U1VL9JS", "current_trial": 221, "dateTime": 1510679213199, "trialdata": {"rt": -1000, "stimulus": "/static/audio/wordpool/BLOUSE.wav", "key_press": -1, "type": "PRES_AUD", "word": "blouse", "wordID": 138, "conditions": [12, 800, "a", 24000], "trial": 6, "serialpos": 8, "trial_type": "single-audio", "trial_index": 221, "time_elapsed": 1255286, "internal_node_id": "0.0-158.0"}}, {"uniqueid": "MTK0247:30MVJZJNHNKTE4ABV2S37B0U1VL9JS", "current_trial": 222, "dateTime": 1510679215119, "trialdata": {"rt": -1000, "stimulus": "/static/audio/wordpool/KLEENEX.wav", "key_press": -1, "type": "PRES_AUD", "word": "kleenex", "wordID": 781, "conditions": [12, 800, "a", 24000], "trial": 6, "serialpos": 9, "trial_type": "single-audio", "trial_index": 222, "time_elapsed": 1257206, "internal_node_id": "0.0-159.0"}}, {"uniqueid": "MTK0247:30MVJZJNHNKTE4ABV2S37B0U1VL9JS", "current_trial": 223, "dateTime": 1510679216905, "trialdata": {"rt": -1000, "stimulus": "/static/audio/wordpool/RECORD.wav", "key_press": -1, "type": "PRES_AUD", "word": "record", "wordID": 1175, "conditions": [12, 800, "a", 24000], "trial": 6, "serialpos": 10, "trial_type": "single-audio", "trial_index": 223, "time_elapsed": 1258992, "internal_node_id": "0.0-160.0"}}, {"uniqueid": "MTK0247:30MVJZJNHNKTE4ABV2S37B0U1VL9JS", "current_trial": 224, "dateTime": 1510679218780, "trialdata": {"rt": -1000, "stimulus": "/static/audio/wordpool/SMOG.wav", "key_press": -1, "type": "PRES_AUD", "word": "smog", "wordID": 1329, "conditions": [12, 800, "a", 24000], "trial": 6, "serialpos": 11, "trial_type": "single-audio", "trial_index": 224, "time_elapsed": 1260867, "internal_node_id": "0.0-161.0"}}, {"uniqueid": "MTK0247:30MVJZJNHNKTE4ABV2S37B0U1VL9JS", "current_trial": 225, "dateTime": 1510679220094, "trialdata": {"rt": -1, "stimulus": "", "key_press": -1, "type": "PRE_RECALL_DELAY", "trial_type": "single-stim", "trial_index": 225, "time_elapsed": 1262181, "internal_node_id": "0.0-162.0-0.0"}}, {"uniqueid": "MTK0247:30MVJZJNHNKTE4ABV2S37B0U1VL9JS", "current_trial": 226, "dateTime": 1510679220595, "trialdata": {"rt": -1000, "stimulus": "/static/audio/400Hz.wav", "key_press": -1, "type": "PRE_RECALL_ALERT", "trial_type": "single-audio", "trial_index": 226, "time_elapsed": 1262682, "internal_node_id": "0.0-163.0"}}, {"uniqueid": "MTK0247:30MVJZJNHNKTE4ABV2S37B0U1VL9JS", "current_trial": 227, "dateTime": 1510679280604, "trialdata": {"rt": [735, 1535, 3863, 4791, 7623, 8502, 14822, 24134], "recwords": ["smog", "ozone", "kleenex", "leader", "cottage", "cigar", "record", "vagrant"], "type": "FREE_RECALL", "conditions": [12, 800, "a", 24000], "trial": 6, "trial_type": "free-recall", "trial_index": 227, "time_elapsed": 1322687, "internal_node_id": "0.0-164.0-0.0"}}, {"uniqueid": "MTK0247:30MVJZJNHNKTE4ABV2S37B0U1VL9JS", "current_trial": 228, "dateTime": 1510679311869, "trialdata": {"rt": 29263, "key_press": 32, "type": "INSTRUCTIONS", "trial_type": "text", "trial_index": 228, "time_elapsed": 1353956, "internal_node_id": "0.0-165.0"}}, {"uniqueid": "MTK0247:30MVJZJNHNKTE4ABV2S37B0U1VL9JS", "current_trial": 229, "dateTime": 1510679337874, "trialdata": {"rt": [1478, 2726, 5374, 6990, 8749, 9981, 11549, 13677, 16573, 17894, 19142, 21190, 22590], "responses": ["14", "15", "21", "11", "17", "9", "22", "12", "14", "12", "10", "23", "7"], "num1": [8, 2, 9, 6, 9, 2, 8, 2, 8, 2, 1, 9, 2, 5], "num2": [3, 8, 5, 2, 3, 1, 8, 6, 2, 2, 4, 6, 2, 8], "num3": [3, 5, 7, 3, 5, 6, 6, 4, 4, 8, 5, 8, 3, 4], "type": "DISTRACTOR", "conditions": [24, 800, "v", 24000], "trial": 7, "trial_type": "math-distractor", "trial_index": 229, "time_elapsed": 1379960, "internal_node_id": "0.0-166.0"}}, {"uniqueid": "MTK0247:30MVJZJNHNKTE4ABV2S37B0U1VL9JS", "current_trial": 230, "dateTime": 1510679340876, "trialdata": {"rt": -1, "stimulus": "<p id=\"stim\">10</p>", "key_press": -1, "trial_type": "single-stim", "trial_index": 230, "time_elapsed": 1382963, "internal_node_id": "0.0-167.0-0.0"}}, {"uniqueid": "MTK0247:30MVJZJNHNKTE4ABV2S37B0U1VL9JS", "current_trial": 231, "dateTime": 1510679341877, "trialdata": {"rt": -1, "stimulus": "<p id=\"stim\">9</p>", "key_press": -1, "trial_type": "single-stim", "trial_index": 231, "time_elapsed": 1383964, "internal_node_id": "0.0-167.0-1.0"}}, {"uniqueid": "MTK0247:30MVJZJNHNKTE4ABV2S37B0U1VL9JS", "current_trial": 232, "dateTime": 1510679342879, "trialdata": {"rt": -1, "stimulus": "<p id=\"stim\">8</p>", "key_press": -1, "trial_type": "single-stim", "trial_index": 232, "time_elapsed": 1384966, "internal_node_id": "0.0-167.0-2.0"}}, {"uniqueid": "MTK0247:30MVJZJNHNKTE4ABV2S37B0U1VL9JS", "current_trial": 233, "dateTime": 1510679343880, "trialdata": {"rt": -1, "stimulus": "<p id=\"stim\">7</p>", "key_press": -1, "trial_type": "single-stim", "trial_index": 233, "time_elapsed": 1385967, "internal_node_id": "0.0-167.0-3.0"}}, {"uniqueid": "MTK0247:30MVJZJNHNKTE4ABV2S37B0U1VL9JS", "current_trial": 234, "dateTime": 1510679344881, "trialdata": {"rt": -1, "stimulus": "<p id=\"stim\">6</p>", "key_press": -1, "trial_type": "single-stim", "trial_index": 234, "time_elapsed": 1386968, "internal_node_id": "0.0-167.0-4.0"}}, {"uniqueid": "MTK0247:30MVJZJNHNKTE4ABV2S37B0U1VL9JS", "current_trial": 235, "dateTime": 1510679345882, "trialdata": {"rt": -1, "stimulus": "<p id=\"stim\">5</p>", "key_press": -1, "trial_type": "single-stim", "trial_index": 235, "time_elapsed": 1387969, "internal_node_id": "0.0-167.0-5.0"}}, {"uniqueid": "MTK0247:30MVJZJNHNKTE4ABV2S37B0U1VL9JS", "current_trial": 236, "dateTime": 1510679346883, "trialdata": {"rt": -1, "stimulus": "<p id=\"stim\">4</p>", "key_press": -1, "trial_type": "single-stim", "trial_index": 236, "time_elapsed": 1388970, "internal_node_id": "0.0-167.0-6.0"}}, {"uniqueid": "MTK0247:30MVJZJNHNKTE4ABV2S37B0U1VL9JS", "current_trial": 237, "dateTime": 1510679347884, "trialdata": {"rt": -1, "stimulus": "<p id=\"stim\">3</p>", "key_press": -1, "trial_type": "single-stim", "trial_index": 237, "time_elapsed": 1389971, "internal_node_id": "0.0-167.0-7.0"}}, {"uniqueid": "MTK0247:30MVJZJNHNKTE4ABV2S37B0U1VL9JS", "current_trial": 238, "dateTime": 1510679348885, "trialdata": {"rt": -1, "stimulus": "<p id=\"stim\">2</p>", "key_press": -1, "trial_type": "single-stim", "trial_index": 238, "time_elapsed": 1390972, "internal_node_id": "0.0-167.0-8.0"}}, {"uniqueid": "MTK0247:30MVJZJNHNKTE4ABV2S37B0U1VL9JS", "current_trial": 239, "dateTime": 1510679349887, "trialdata": {"rt": -1, "stimulus": "<p id=\"stim\">1</p>", "key_press": -1, "trial_type": "single-stim", "trial_index": 239, "time_elapsed": 1391974, "internal_node_id": "0.0-167.0-9.0"}}, {"uniqueid": "MTK0247:30MVJZJNHNKTE4ABV2S37B0U1VL9JS", "current_trial": 240, "dateTime": 1510679351388, "trialdata": {"rt": -1, "stimulus": "<p id=\"stim\">+</p>", "key_press": -1, "type": "FIXATION", "trial_type": "single-stim", "trial_index": 240, "time_elapsed": 1393475, "internal_node_id": "0.0-168.0-0.0"}}, {"uniqueid": "MTK0247:30MVJZJNHNKTE4ABV2S37B0U1VL9JS", "current_trial": 241, "dateTime": 1510679352189, "trialdata": {"rt": -1, "stimulus": "<p id=\"stim\">LEG</p>", "key_press": -1, "type": "PRES_VIS", "word": "leg", "wordID": 808, "conditions": [24, 800, "v", 24000], "trial": 7, "serialpos": 0, "trial_type": "single-stim", "trial_index": 241, "time_elapsed": 1394276, "internal_node_id": "0.0-169.0"}}, {"uniqueid": "MTK0247:30MVJZJNHNKTE4ABV2S37B0U1VL9JS", "current_trial": 242, "dateTime": 1510679353825, "trialdata": {"rt": -1, "stimulus": "<p id=\"stim\">BURGLAR</p>", "key_press": -1, "type": "PRES_VIS", "word": "burglar", "wordID": 199, "conditions": [24, 800, "v", 24000], "trial": 7, "serialpos": 1, "trial_type": "single-stim", "trial_index": 242, "time_elapsed": 1395912, "internal_node_id": "0.0-170.0"}}, {"uniqueid": "MTK0247:30MVJZJNHNKTE4ABV2S37B0U1VL9JS", "current_trial": 243, "dateTime": 1510679355823, "trialdata": {"rt": -1, "stimulus": "<p id=\"stim\">SUNSET</p>", "key_press": -1, "type": "PRES_VIS", "word": "sunset", "wordID": 1407, "conditions": [24, 800, "v", 24000], "trial": 7, "serialpos": 2, "trial_type": "single-stim", "trial_index": 243, "time_elapsed": 1397910, "internal_node_id": "0.0-171.0"}}, {"uniqueid": "MTK0247:30MVJZJNHNKTE4ABV2S37B0U1VL9JS", "current_trial": 244, "dateTime": 1510679357817, "trialdata": {"rt": -1, "stimulus": "<p id=\"stim\">OUTLAW</p>", "key_press": -1, "type": "PRES_VIS", "word": "outlaw", "wordID": 988, "conditions": [24, 800, "v", 24000], "trial": 7, "serialpos": 3, "trial_type": "single-stim", "trial_index": 244, "time_elapsed": 1399903, "internal_node_id": "0.0-172.0"}}, {"uniqueid": "MTK0247:30MVJZJNHNKTE4ABV2S37B0U1VL9JS", "current_trial": 245, "dateTime": 1510679359518, "trialdata": {"rt": -1, "stimulus": "<p id=\"stim\">ARM</p>", "key_press": -1, "type": "PRES_VIS", "word": "arm", "wordID": 37, "conditions": [24, 800, "v", 24000], "trial": 7, "serialpos": 4, "trial_type": "single-stim", "trial_index": 245, "time_elapsed": 1401604, "internal_node_id": "0.0-173.0"}}, {"uniqueid": "MTK0247:30MVJZJNHNKTE4ABV2S37B0U1VL9JS", "current_trial": 246, "dateTime": 1510679361333, "trialdata": {"rt": -1, "stimulus": "<p id=\"stim\">VALVE</p>", "key_press": -1, "type": "PRES_VIS", "word": "valve", "wordID": 1545, "conditions": [24, 800, "v", 24000], "trial": 7, "serialpos": 5, "trial_type": "single-stim", "trial_index": 246, "time_elapsed": 1403420, "internal_node_id": "0.0-174.0"}}, {"uniqueid": "MTK0247:30MVJZJNHNKTE4ABV2S37B0U1VL9JS", "current_trial": 247, "dateTime": 1510679363098, "trialdata": {"rt": -1, "stimulus": "<p id=\"stim\">UNCLE</p>", "key_press": -1, "type": "PRES_VIS", "word": "uncle", "wordID": 1535, "conditions": [24, 800, "v", 24000], "trial": 7, "serialpos": 6, "trial_type": "single-stim", "trial_index": 247, "time_elapsed": 1405185, "internal_node_id": "0.0-175.0"}}, {"uniqueid": "MTK0247:30MVJZJNHNKTE4ABV2S37B0U1VL9JS", "current_trial": 248, "dateTime": 1510679365045, "trialdata": {"rt": -1, "stimulus": "<p id=\"stim\">SISTER</p>", "key_press": -1, "type": "PRES_VIS", "word": "sister", "wordID": 1311, "conditions": [24, 800, "v", 24000], "trial": 7, "serialpos": 7, "trial_type": "single-stim", "trial_index": 248, "time_elapsed": 1407132, "internal_node_id": "0.0-176.0"}}, {"uniqueid": "MTK0247:30MVJZJNHNKTE4ABV2S37B0U1VL9JS", "current_trial": 249, "dateTime": 1510679366754, "trialdata": {"rt": -1, "stimulus": "<p id=\"stim\">CHIPMUNK</p>", "key_press": -1, "type": "PRES_VIS", "word": "chipmunk", "wordID": 303, "conditions": [24, 800, "v", 24000], "trial": 7, "serialpos": 8, "trial_type": "single-stim", "trial_index": 249, "time_elapsed": 1408841, "internal_node_id": "0.0-177.0"}}, {"uniqueid": "MTK0247:30MVJZJNHNKTE4ABV2S37B0U1VL9JS", "current_trial": 250, "dateTime": 1510679368499, "trialdata": {"rt": -1, "stimulus": "<p id=\"stim\">SPARROW</p>", "key_press": -1, "type": "PRES_VIS", "word": "sparrow", "wordID": 1346, "conditions": [24, 800, "v", 24000], "trial": 7, "serialpos": 9, "trial_type": "single-stim", "trial_index": 250, "time_elapsed": 1410586, "internal_node_id": "0.0-178.0"}}, {"uniqueid": "MTK0247:30MVJZJNHNKTE4ABV2S37B0U1VL9JS", "current_trial": 251, "dateTime": 1510679370499, "trialdata": {"rt": -1, "stimulus": "<p id=\"stim\">BUBBLE</p>", "key_press": -1, "type": "PRES_VIS", "word": "bubble", "wordID": 182, "conditions": [24, 800, "v", 24000], "trial": 7, "serialpos": 10, "trial_type": "single-stim", "trial_index": 251, "time_elapsed": 1412586, "internal_node_id": "0.0-179.0"}}, {"uniqueid": "MTK0247:30MVJZJNHNKTE4ABV2S37B0U1VL9JS", "current_trial": 252, "dateTime": 1510679372420, "trialdata": {"rt": -1, "stimulus": "<p id=\"stim\">BOYFRIEND</p>", "key_press": -1, "type": "PRES_VIS", "word": "boyfriend", "wordID": 161, "conditions": [24, 800, "v", 24000], "trial": 7, "serialpos": 11, "trial_type": "single-stim", "trial_index": 252, "time_elapsed": 1414507, "internal_node_id": "0.0-180.0"}}, {"uniqueid": "MTK0247:30MVJZJNHNKTE4ABV2S37B0U1VL9JS", "current_trial": 253, "dateTime": 1510679374207, "trialdata": {"rt": -1, "stimulus": "<p id=\"stim\">BRIEFCASE</p>", "key_press": -1, "type": "PRES_VIS", "word": "briefcase", "wordID": 174, "conditions": [24, 800, "v", 24000], "trial": 7, "serialpos": 12, "trial_type": "single-stim", "trial_index": 253, "time_elapsed": 1416294, "internal_node_id": "0.0-181.0"}}, {"uniqueid": "MTK0247:30MVJZJNHNKTE4ABV2S37B0U1VL9JS", "current_trial": 254, "dateTime": 1510679376141, "trialdata": {"rt": -1, "stimulus": "<p id=\"stim\">COUNTRY</p>", "key_press": -1, "type": "PRES_VIS", "word": "country", "wordID": 387, "conditions": [24, 800, "v", 24000], "trial": 7, "serialpos": 13, "trial_type": "single-stim", "trial_index": 254, "time_elapsed": 1418228, "internal_node_id": "0.0-182.0"}}, {"uniqueid": "MTK0247:30MVJZJNHNKTE4ABV2S37B0U1VL9JS", "current_trial": 255, "dateTime": 1510679378053, "trialdata": {"rt": -1, "stimulus": "<p id=\"stim\">ONION</p>", "key_press": -1, "type": "PRES_VIS", "word": "onion", "wordID": 976, "conditions": [24, 800, "v", 24000], "trial": 7, "serialpos": 14, "trial_type": "single-stim", "trial_index": 255, "time_elapsed": 1420140, "internal_node_id": "0.0-183.0"}}, {"uniqueid": "MTK0247:30MVJZJNHNKTE4ABV2S37B0U1VL9JS", "current_trial": 256, "dateTime": 1510679379895, "trialdata": {"rt": -1, "stimulus": "<p id=\"stim\">RADISH</p>", "key_press": -1, "type": "PRES_VIS", "word": "radish", "wordID": 1157, "conditions": [24, 800, "v", 24000], "trial": 7, "serialpos": 15, "trial_type": "single-stim", "trial_index": 256, "time_elapsed": 1421982, "internal_node_id": "0.0-184.0"}}, {"uniqueid": "MTK0247:30MVJZJNHNKTE4ABV2S37B0U1VL9JS", "current_trial": 257, "dateTime": 1510679381584, "trialdata": {"rt": -1, "stimulus": "<p id=\"stim\">GUITAR</p>", "key_press": -1, "type": "PRES_VIS", "word": "guitar", "wordID": 669, "conditions": [24, 800, "v", 24000], "trial": 7, "serialpos": 16, "trial_type": "single-stim", "trial_index": 257, "time_elapsed": 1423671, "internal_node_id": "0.0-185.0"}}, {"uniqueid": "MTK0247:30MVJZJNHNKTE4ABV2S37B0U1VL9JS", "current_trial": 258, "dateTime": 1510679383303, "trialdata": {"rt": -1, "stimulus": "<p id=\"stim\">DRESSER</p>", "key_press": -1, "type": "PRES_VIS", "word": "dresser", "wordID": 495, "conditions": [24, 800, "v", 24000], "trial": 7, "serialpos": 17, "trial_type": "single-stim", "trial_index": 258, "time_elapsed": 1425390, "internal_node_id": "0.0-186.0"}}, {"uniqueid": "MTK0247:30MVJZJNHNKTE4ABV2S37B0U1VL9JS", "current_trial": 259, "dateTime": 1510679385096, "trialdata": {"rt": -1, "stimulus": "<p id=\"stim\">DOLPHIN</p>", "key_press": -1, "type": "PRES_VIS", "word": "dolphin", "wordID": 482, "conditions": [24, 800, "v", 24000], "trial": 7, "serialpos": 18, "trial_type": "single-stim", "trial_index": 259, "time_elapsed": 1427183, "internal_node_id": "0.0-187.0"}}, {"uniqueid": "MTK0247:30MVJZJNHNKTE4ABV2S37B0U1VL9JS", "current_trial": 260, "dateTime": 1510679386763, "trialdata": {"rt": -1, "stimulus": "<p id=\"stim\">BOX</p>", "key_press": -1, "type": "PRES_VIS", "word": "box", "wordID": 158, "conditions": [24, 800, "v", 24000], "trial": 7, "serialpos": 19, "trial_type": "single-stim", "trial_index": 260, "time_elapsed": 1428850, "internal_node_id": "0.0-188.0"}}, {"uniqueid": "MTK0247:30MVJZJNHNKTE4ABV2S37B0U1VL9JS", "current_trial": 261, "dateTime": 1510679388409, "trialdata": {"rt": -1, "stimulus": "<p id=\"stim\">WORLD</p>", "key_press": -1, "type": "PRES_VIS", "word": "world", "wordID": 1621, "conditions": [24, 800, "v", 24000], "trial": 7, "serialpos": 20, "trial_type": "single-stim", "trial_index": 261, "time_elapsed": 1430496, "internal_node_id": "0.0-189.0"}}, {"uniqueid": "MTK0247:30MVJZJNHNKTE4ABV2S37B0U1VL9JS", "current_trial": 262, "dateTime": 1510679390303, "trialdata": {"rt": -1, "stimulus": "<p id=\"stim\">DRAWING</p>", "key_press": -1, "type": "PRES_VIS", "word": "drawing", "wordID": 493, "conditions": [24, 800, "v", 24000], "trial": 7, "serialpos": 21, "trial_type": "single-stim", "trial_index": 262, "time_elapsed": 1432390, "internal_node_id": "0.0-190.0"}}, {"uniqueid": "MTK0247:30MVJZJNHNKTE4ABV2S37B0U1VL9JS", "current_trial": 263, "dateTime": 1510679392258, "trialdata": {"rt": -1, "stimulus": "<p id=\"stim\">SCRIBBLE</p>", "key_press": -1, "type": "PRES_VIS", "word": "scribble", "wordID": 1255, "conditions": [24, 800, "v", 24000], "trial": 7, "serialpos": 22, "trial_type": "single-stim", "trial_index": 263, "time_elapsed": 1434345, "internal_node_id": "0.0-191.0"}}, {"uniqueid": "MTK0247:30MVJZJNHNKTE4ABV2S37B0U1VL9JS", "current_trial": 264, "dateTime": 1510679393898, "trialdata": {"rt": -1, "stimulus": "<p id=\"stim\">EUROPE</p>", "key_press": -1, "type": "PRES_VIS", "word": "europe", "wordID": 540, "conditions": [24, 800, "v", 24000], "trial": 7, "serialpos": 23, "trial_type": "single-stim", "trial_index": 264, "time_elapsed": 1435985, "internal_node_id": "0.0-192.0"}}, {"uniqueid": "MTK0247:30MVJZJNHNKTE4ABV2S37B0U1VL9JS", "current_trial": 265, "dateTime": 1510679396408, "trialdata": {"rt": -1, "stimulus": "", "key_press": -1, "type": "PRE_RECALL_DELAY", "trial_type": "single-stim", "trial_index": 265, "time_elapsed": 1438495, "internal_node_id": "0.0-193.0-0.0"}}, {"uniqueid": "MTK0247:30MVJZJNHNKTE4ABV2S37B0U1VL9JS", "current_trial": 266, "dateTime": 1510679396909, "trialdata": {"rt": -1000, "stimulus": "/static/audio/400Hz.wav", "key_press": -1, "type": "PRE_RECALL_ALERT", "trial_type": "single-audio", "trial_index": 266, "time_elapsed": 1438996, "internal_node_id": "0.0-194.0"}}, {"uniqueid": "MTK0247:30MVJZJNHNKTE4ABV2S37B0U1VL9JS", "current_trial": 267, "dateTime": 1510679456920, "trialdata": {"rt": [1437, 2333, 4300, 11101, 24669, 27285, 28021, 31653, 37716], "recwords": ["country", "europe", "scribble", "box", "chipmunk", "onion", "radish", "sparrow", "outlaw"], "type": "FREE_RECALL", "conditions": [24, 800, "v", 24000], "trial": 7, "trial_type": "free-recall", "trial_index": 267, "time_elapsed": 1499001, "internal_node_id": "0.0-195.0-0.0"}}, {"uniqueid": "MTK0247:30MVJZJNHNKTE4ABV2S37B0U1VL9JS", "current_trial": 268, "dateTime": 1510679539259, "trialdata": {"rt": 80338, "key_press": 32, "type": "INSTRUCTIONS", "trial_type": "text", "trial_index": 268, "time_elapsed": 1581346, "internal_node_id": "0.0-196.0"}}, {"uniqueid": "MTK0247:30MVJZJNHNKTE4ABV2S37B0U1VL9JS", "current_trial": 269, "dateTime": 1510679565263, "trialdata": {"rt": [1982, 3406, 5326, 7046, 8334, 10470, 12174, 13301, 14630, 16005, 17397, 19046, 20670, 23934], "responses": ["19", "17", "21", "17", "11", "16", "19", "13", "14", "13", "18", "18", "13", "21"], "num1": [7, 2, 6, 6, 7, 6, 9, 3, 4, 5, 6, 5, 3, 7, 3], "num2": [3, 8, 8, 3, 1, 9, 1, 7, 5, 7, 9, 4, 3, 5, 6], "num3": [9, 7, 7, 8, 3, 1, 9, 3, 5, 1, 3, 9, 7, 9, 8], "type": "DISTRACTOR", "conditions": [24, 1600, "v", 24000], "trial": 8, "trial_type": "math-distractor", "trial_index": 269, "time_elapsed": 1607350, "internal_node_id": "0.0-197.0"}}, {"uniqueid": "MTK0247:30MVJZJNHNKTE4ABV2S37B0U1VL9JS", "current_trial": 270, "dateTime": 1510679568265, "trialdata": {"rt": -1, "stimulus": "<p id=\"stim\">10</p>", "key_press": -1, "trial_type": "single-stim", "trial_index": 270, "time_elapsed": 161