{"condition": 0, "counterbalance": 1797, "assignmentId": "3Q5ZZ9ZEVPMLT0CG18IV65ME0PQ851", "workerId": "MTK0611", "hitId": "3M67TQBQQHVGQR9DBUAOPS1RYZHA9X", "currenttrial": 626, "bonus": 0, "data": [{"uniqueid": "MTK0611:3Q5ZZ9ZEVPMLT0CG18IV65ME0PQ851", "current_trial": 0, "dateTime": 1511568746914, "trialdata": {"rt": 1887, "key_press": 32, "type": "INSTRUCTIONS", "trial_type": "text", "trial_index": 0, "time_elapsed": 1891, "internal_node_id": "0.0-0.0"}}, {"uniqueid": "MTK0611:3Q5ZZ9ZEVPMLT0CG18IV65ME0PQ851", "current_trial": 1, "dateTime": 1511568994148, "trialdata": {"rt": 247232, "key_press": 75, "type": "INSTRUCTIONS", "trial_type": "text", "trial_index": 1, "time_elapsed": 249126, "internal_node_id": "0.0-1.0"}}, {"uniqueid": "MTK0611:3Q5ZZ9ZEVPMLT0CG18IV65ME0PQ851", "current_trial": 2, "dateTime": 1511569007181, "trialdata": {"rt": [13017], "responses": ["ocean"], "type": "AUDIO_TEST", "trial_type": "audio-test", "trial_index": 2, "time_elapsed": 262159, "internal_node_id": "0.0-2.0"}}, {"uniqueid": "MTK0611:3Q5ZZ9ZEVPMLT0CG18IV65ME0PQ851", "current_trial": 3, "dateTime": 1511569012598, "trialdata": {"rt": [5409], "responses": ["crystal"], "type": "AUDIO_TEST", "trial_type": "audio-test", "trial_index": 3, "time_elapsed": 267576, "internal_node_id": "0.0-3.0"}}, {"uniqueid": "MTK0611:3Q5ZZ9ZEVPMLT0CG18IV65ME0PQ851", "current_trial": 4, "dateTime": 1511569016612, "trialdata": {"rt": [4008], "responses": ["spice"], "type": "AUDIO_TEST", "trial_type": "audio-test", "trial_index": 4, "time_elapsed": 271590, "internal_node_id": "0.0-4.0"}}, {"uniqueid": "MTK0611:3Q5ZZ9ZEVPMLT0CG18IV65ME0PQ851", "current_trial": 5, "dateTime": 1511569035536, "trialdata": {"rt": 18169, "responses": "{\"Q0\":\"11 p.m.\",\"Q1\":\"8 a.m.\",\"Q2\":\"4\"}", "type": "SLEEP_SURVEY", "trial_type": "survey-text", "trial_index": 5, "time_elapsed": 290513, "internal_node_id": "0.0-5.0"}}, {"uniqueid": "MTK0611:3Q5ZZ9ZEVPMLT0CG18IV65ME0PQ851", "current_trial": 6, "dateTime": 1511569065747, "trialdata": {"rt": 29209, "key_press": 13, "type": "INSTRUCTIONS", "trial_type": "text", "trial_index": 6, "time_elapsed": 320725, "internal_node_id": "0.0-6.0"}}, {"uniqueid": "MTK0611:3Q5ZZ9ZEVPMLT0CG18IV65ME0PQ851", "current_trial": 7, "dateTime": 1511569077819, "trialdata": {"rt": 11572, "key_press": 13, "type": "INSTRUCTIONS", "trial_type": "text", "trial_index": 7, "time_elapsed": 332797, "internal_node_id": "0.0-7.0"}}, {"uniqueid": "MTK0611:3Q5ZZ9ZEVPMLT0CG18IV65ME0PQ851", "current_trial": 8, "dateTime": 1511569084586, "trialdata": {"rt": 6267, "key_press": 13, "type": "INSTRUCTIONS", "trial_type": "text", "trial_index": 8, "time_elapsed": 339564, "internal_node_id": "0.0-8.0"}}, {"uniqueid": "MTK0611:3Q5ZZ9ZEVPMLT0CG18IV65ME0PQ851", "current_trial": 9, "dateTime": 1511569103602, "trialdata": {"rt": [8313, 13041, 14529], "responses": ["17", "22", "18"], "num1": [9, 5, 3, 9], "num2": [2, 9, 8, 6], "num3": [6, 8, 7, 7], "type": "DISTRACTOR", "conditions": [18, 1200, "v", 18000], "trial": 0, "trial_type": "math-distractor", "trial_index": 9, "time_elapsed": 358580, "internal_node_id": "0.0-9.0"}}, {"uniqueid": "MTK0611:3Q5ZZ9ZEVPMLT0CG18IV65ME0PQ851", "current_trial": 10, "dateTime": 1511569106603, "trialdata": {"rt": -1, "stimulus": "<p id=\"stim\">10</p>", "key_press": -1, "trial_type": "single-stim", "trial_index": 10, "time_elapsed": 361581, "internal_node_id": "0.0-10.0-0.0"}}, {"uniqueid": "MTK0611:3Q5ZZ9ZEVPMLT0CG18IV65ME0PQ851", "current_trial": 11, "dateTime": 1511569107604, "trialdata": {"rt": -1, "stimulus": "<p id=\"stim\">9</p>", "key_press": -1, "trial_type": "single-stim", "trial_index": 11, "time_elapsed": 362582, "internal_node_id": "0.0-10.0-1.0"}}, {"uniqueid": "MTK0611:3Q5ZZ9ZEVPMLT0CG18IV65ME0PQ851", "current_trial": 12, "dateTime": 1511569108605, "trialdata": {"rt": -1, "stimulus": "<p id=\"stim\">8</p>", "key_press": -1, "trial_type": "single-stim", "trial_index": 12, "time_elapsed": 363583, "internal_node_id": "0.0-10.0-2.0"}}, {"uniqueid": "MTK0611:3Q5ZZ9ZEVPMLT0CG18IV65ME0PQ851", "current_trial": 13, "dateTime": 1511569109607, "trialdata": {"rt": -1, "stimulus": "<p id=\"stim\">7</p>", "key_press": -1, "trial_type": "single-stim", "trial_index": 13, "time_elapsed": 364585, "internal_node_id": "0.0-10.0-3.0"}}, {"uniqueid": "MTK0611:3Q5ZZ9ZEVPMLT0CG18IV65ME0PQ851", "current_trial": 14, "dateTime": 1511569110609, "trialdata": {"rt": -1, "stimulus": "<p id=\"stim\">6</p>", "key_press": -1, "trial_type": "single-stim", "trial_index": 14, "time_elapsed": 365586, "internal_node_id": "0.0-10.0-4.0"}}, {"uniqueid": "MTK0611:3Q5ZZ9ZEVPMLT0CG18IV65ME0PQ851", "current_trial": 15, "dateTime": 1511569111609, "trialdata": {"rt": -1, "stimulus": "<p id=\"stim\">5</p>", "key_press": -1, "trial_type": "single-stim", "trial_index": 15, "time_elapsed": 366587, "internal_node_id": "0.0-10.0-5.0"}}, {"uniqueid": "MTK0611:3Q5ZZ9ZEVPMLT0CG18IV65ME0PQ851", "current_trial": 16, "dateTime": 1511569112611, "trialdata": {"rt": -1, "stimulus": "<p id=\"stim\">4</p>", "key_press": -1, "trial_type": "single-stim", "trial_index": 16, "time_elapsed": 367588, "internal_node_id": "0.0-10.0-6.0"}}, {"uniqueid": "MTK0611:3Q5ZZ9ZEVPMLT0CG18IV65ME0PQ851", "current_trial": 17, "dateTime": 1511569113612, "trialdata": {"rt": -1, "stimulus": "<p id=\"stim\">3</p>", "key_press": -1, "trial_type": "single-stim", "trial_index": 17, "time_elapsed": 368590, "internal_node_id": "0.0-10.0-7.0"}}, {"uniqueid": "MTK0611:3Q5ZZ9ZEVPMLT0CG18IV65ME0PQ851", "current_trial": 18, "dateTime": 1511569114613, "trialdata": {"rt": -1, "stimulus": "<p id=\"stim\">2</p>", "key_press": -1, "trial_type": "single-stim", "trial_index": 18, "time_elapsed": 369591, "internal_node_id": "0.0-10.0-8.0"}}, {"uniqueid": "MTK0611:3Q5ZZ9ZEVPMLT0CG18IV65ME0PQ851", "current_trial": 19, "dateTime": 1511569115614, "trialdata": {"rt": -1, "stimulus": "<p id=\"stim\">1</p>", "key_press": -1, "trial_type": "single-stim", "trial_index": 19, "time_elapsed": 370592, "internal_node_id": "0.0-10.0-9.0"}}, {"uniqueid": "MTK0611:3Q5ZZ9ZEVPMLT0CG18IV65ME0PQ851", "current_trial": 20, "dateTime": 1511569117117, "trialdata": {"rt": -1, "stimulus": "<p id=\"stim\">+</p>", "key_press": -1, "type": "FIXATION", "trial_type": "single-stim", "trial_index": 20, "time_elapsed": 372094, "internal_node_id": "0.0-11.0-0.0"}}, {"uniqueid": "MTK0611:3Q5ZZ9ZEVPMLT0CG18IV65ME0PQ851", "current_trial": 21, "dateTime": 1511569118317, "trialdata": {"rt": -1, "stimulus": "<p id=\"stim\">PIANO</p>", "key_press": -1, "type": "PRES_VIS", "word": "piano", "wordID": 1056, "conditions": [18, 1200, "v", 18000], "trial": 0, "serialpos": 0, "trial_type": "single-stim", "trial_index": 21, "time_elapsed": 373295, "internal_node_id": "0.0-12.0"}}, {"uniqueid": "MTK0611:3Q5ZZ9ZEVPMLT0CG18IV65ME0PQ851", "current_trial": 22, "dateTime": 1511569120624, "trialdata": {"rt": -1, "stimulus": "<p id=\"stim\">CARROT</p>", "key_press": -1, "type": "PRES_VIS", "word": "carrot", "wordID": 248, "conditions": [18, 1200, "v", 18000], "trial": 0, "serialpos": 1, "trial_type": "single-stim", "trial_index": 22, "time_elapsed": 375602, "internal_node_id": "0.0-13.0"}}, {"uniqueid": "MTK0611:3Q5ZZ9ZEVPMLT0CG18IV65ME0PQ851", "current_trial": 23, "dateTime": 1511569122665, "trialdata": {"rt": -1, "stimulus": "<p id=\"stim\">RADISH</p>", "key_press": -1, "type": "PRES_VIS", "word": "radish", "wordID": 1157, "conditions": [18, 1200, "v", 18000], "trial": 0, "serialpos": 2, "trial_type": "single-stim", "trial_index": 23, "time_elapsed": 377643, "internal_node_id": "0.0-14.0"}}, {"uniqueid": "MTK0611:3Q5ZZ9ZEVPMLT0CG18IV65ME0PQ851", "current_trial": 24, "dateTime": 1511569124914, "trialdata": {"rt": -1, "stimulus": "<p id=\"stim\">KEEPER</p>", "key_press": -1, "type": "PRES_VIS", "word": "keeper", "wordID": 768, "conditions": [18, 1200, "v", 18000], "trial": 0, "serialpos": 3, "trial_type": "single-stim", "trial_index": 24, "time_elapsed": 379892, "internal_node_id": "0.0-15.0"}}, {"uniqueid": "MTK0611:3Q5ZZ9ZEVPMLT0CG18IV65ME0PQ851", "current_trial": 25, "dateTime": 1511569127139, "trialdata": {"rt": -1, "stimulus": "<p id=\"stim\">SUNRISE</p>", "key_press": -1, "type": "PRES_VIS", "word": "sunrise", "wordID": 1406, "conditions": [18, 1200, "v", 18000], "trial": 0, "serialpos": 4, "trial_type": "single-stim", "trial_index": 25, "time_elapsed": 382117, "internal_node_id": "0.0-16.0"}}, {"uniqueid": "MTK0611:3Q5ZZ9ZEVPMLT0CG18IV65ME0PQ851", "current_trial": 26, "dateTime": 1511569129416, "trialdata": {"rt": -1, "stimulus": "<p id=\"stim\">DENTIST</p>", "key_press": -1, "type": "PRES_VIS", "word": "dentist", "wordID": 446, "conditions": [18, 1200, "v", 18000], "trial": 0, "serialpos": 5, "trial_type": "single-stim", "trial_index": 26, "time_elapsed": 384393, "internal_node_id": "0.0-17.0"}}, {"uniqueid": "MTK0611:3Q5ZZ9ZEVPMLT0CG18IV65ME0PQ851", "current_trial": 27, "dateTime": 1511569131591, "trialdata": {"rt": -1, "stimulus": "<p id=\"stim\">JUGGLER</p>", "key_press": -1, "type": "PRES_VIS", "word": "juggler", "wordID": 762, "conditions": [18, 1200, "v", 18000], "trial": 0, "serialpos": 6, "trial_type": "single-stim", "trial_index": 27, "time_elapsed": 386568, "internal_node_id": "0.0-18.0"}}, {"uniqueid": "MTK0611:3Q5ZZ9ZEVPMLT0CG18IV65ME0PQ851", "current_trial": 28, "dateTime": 1511569133817, "trialdata": {"rt": -1, "stimulus": "<p id=\"stim\">LAGOON</p>", "key_press": -1, "type": "PRES_VIS", "word": "lagoon", "wordID": 794, "conditions": [18, 1200, "v", 18000], "trial": 0, "serialpos": 7, "trial_type": "single-stim", "trial_index": 28, "time_elapsed": 388795, "internal_node_id": "0.0-19.0"}}, {"uniqueid": "MTK0611:3Q5ZZ9ZEVPMLT0CG18IV65ME0PQ851", "current_trial": 29, "dateTime": 1511569136019, "trialdata": {"rt": -1, "stimulus": "<p id=\"stim\">GLOBE</p>", "key_press": -1, "type": "PRES_VIS", "word": "globe", "wordID": 640, "conditions": [18, 1200, "v", 18000], "trial": 0, "serialpos": 8, "trial_type": "single-stim", "trial_index": 29, "time_elapsed": 390997, "internal_node_id": "0.0-20.0"}}, {"uniqueid": "MTK0611:3Q5ZZ9ZEVPMLT0CG18IV65ME0PQ851", "current_trial": 30, "dateTime": 1511569138123, "trialdata": {"rt": -1, "stimulus": "<p id=\"stim\">GRAVE</p>", "key_press": -1, "type": "PRES_VIS", "word": "grave", "wordID": 657, "conditions": [18, 1200, "v", 18000], "trial": 0, "serialpos": 9, "trial_type": "single-stim", "trial_index": 30, "time_elapsed": 393100, "internal_node_id": "0.0-21.0"}}, {"uniqueid": "MTK0611:3Q5ZZ9ZEVPMLT0CG18IV65ME0PQ851", "current_trial": 31, "dateTime": 1511569140237, "trialdata": {"rt": -1, "stimulus": "<p id=\"stim\">HOOK</p>", "key_press": -1, "type": "PRES_VIS", "word": "hook", "wordID": 714, "conditions": [18, 1200, "v", 18000], "trial": 0, "serialpos": 10, "trial_type": "single-stim", "trial_index": 31, "time_elapsed": 395215, "internal_node_id": "0.0-22.0"}}, {"uniqueid": "MTK0611:3Q5ZZ9ZEVPMLT0CG18IV65ME0PQ851", "current_trial": 32, "dateTime": 1511569142566, "trialdata": {"rt": -1, "stimulus": "<p id=\"stim\">DOLPHIN</p>", "key_press": -1, "type": "PRES_VIS", "word": "dolphin", "wordID": 482, "conditions": [18, 1200, "v", 18000], "trial": 0, "serialpos": 11, "trial_type": "single-stim", "trial_index": 32, "time_elapsed": 397544, "internal_node_id": "0.0-23.0"}}, {"uniqueid": "MTK0611:3Q5ZZ9ZEVPMLT0CG18IV65ME0PQ851", "current_trial": 33, "dateTime": 1511569144837, "trialdata": {"rt": -1, "stimulus": "<p id=\"stim\">RECORD</p>", "key_press": -1, "type": "PRES_VIS", "word": "record", "wordID": 1175, "conditions": [18, 1200, "v", 18000], "trial": 0, "serialpos": 12, "trial_type": "single-stim", "trial_index": 33, "time_elapsed": 399815, "internal_node_id": "0.0-24.0"}}, {"uniqueid": "MTK0611:3Q5ZZ9ZEVPMLT0CG18IV65ME0PQ851", "current_trial": 34, "dateTime": 1511569147069, "trialdata": {"rt": -1, "stimulus": "<p id=\"stim\">FRANCE</p>", "key_press": -1, "type": "PRES_VIS", "word": "france", "wordID": 600, "conditions": [18, 1200, "v", 18000], "trial": 0, "serialpos": 13, "trial_type": "single-stim", "trial_index": 34, "time_elapsed": 402047, "internal_node_id": "0.0-25.0"}}, {"uniqueid": "MTK0611:3Q5ZZ9ZEVPMLT0CG18IV65ME0PQ851", "current_trial": 35, "dateTime": 1511569149220, "trialdata": {"rt": -1, "stimulus": "<p id=\"stim\">BUREAU</p>", "key_press": -1, "type": "PRES_VIS", "word": "bureau", "wordID": 198, "conditions": [18, 1200, "v", 18000], "trial": 0, "serialpos": 14, "trial_type": "single-stim", "trial_index": 35, "time_elapsed": 404198, "internal_node_id": "0.0-26.0"}}, {"uniqueid": "MTK0611:3Q5ZZ9ZEVPMLT0CG18IV65ME0PQ851", "current_trial": 36, "dateTime": 1511569151226, "trialdata": {"rt": -1, "stimulus": "<p id=\"stim\">HEART</p>", "key_press": -1, "type": "PRES_VIS", "word": "heart", "wordID": 696, "conditions": [18, 1200, "v", 18000], "trial": 0, "serialpos": 15, "trial_type": "single-stim", "trial_index": 36, "time_elapsed": 406204, "internal_node_id": "0.0-27.0"}}, {"uniqueid": "MTK0611:3Q5ZZ9ZEVPMLT0CG18IV65ME0PQ851", "current_trial": 37, "dateTime": 1511569153304, "trialdata": {"rt": -1, "stimulus": "<p id=\"stim\">SCULPTURE</p>", "key_press": -1, "type": "PRES_VIS", "word": "sculpture", "wordID": 1257, "conditions": [18, 1200, "v", 18000], "trial": 0, "serialpos": 16, "trial_type": "single-stim", "trial_index": 37, "time_elapsed": 408282, "internal_node_id": "0.0-28.0"}}, {"uniqueid": "MTK0611:3Q5ZZ9ZEVPMLT0CG18IV65ME0PQ851", "current_trial": 38, "dateTime": 1511569155570, "trialdata": {"rt": -1, "stimulus": "<p id=\"stim\">TOMBSTONE</p>", "key_press": -1, "type": "PRES_VIS", "word": "tombstone", "wordID": 1477, "conditions": [18, 1200, "v", 18000], "trial": 0, "serialpos": 17, "trial_type": "single-stim", "trial_index": 38, "time_elapsed": 410548, "internal_node_id": "0.0-29.0"}}, {"uniqueid": "MTK0611:3Q5ZZ9ZEVPMLT0CG18IV65ME0PQ851", "current_trial": 39, "dateTime": 1511569157674, "trialdata": {"rt": -1, "stimulus": "", "key_press": -1, "type": "PRE_RECALL_DELAY", "trial_type": "single-stim", "trial_index": 39, "time_elapsed": 412651, "internal_node_id": "0.0-30.0-0.0"}}, {"uniqueid": "MTK0611:3Q5ZZ9ZEVPMLT0CG18IV65ME0PQ851", "current_trial": 40, "dateTime": 1511569158177, "trialdata": {"rt": -1000, "stimulus": "/static/audio/400Hz.wav", "key_press": -1, "type": "PRE_RECALL_ALERT", "trial_type": "single-audio", "trial_index": 40, "time_elapsed": 413154, "internal_node_id": "0.0-31.0"}}, {"uniqueid": "MTK0611:3Q5ZZ9ZEVPMLT0CG18IV65ME0PQ851", "current_trial": 41, "dateTime": 1511569218188, "trialdata": {"rt": [3519, 4638, 19495, 24047, 38288], "recwords": ["tombstone", "carrot", "spoon", "golf", "cupboard"], "type": "FREE_RECALL", "conditions": [18, 1200, "v", 18000], "trial": 0, "trial_type": "free-recall", "trial_index": 41, "time_elapsed": 473160, "internal_node_id": "0.0-32.0-0.0"}}, {"uniqueid": "MTK0611:3Q5ZZ9ZEVPMLT0CG18IV65ME0PQ851", "current_trial": 42, "dateTime": 1511569221324, "trialdata": {"rt": 1135, "key_press": 32, "type": "INSTRUCTIONS", "trial_type": "text", "trial_index": 42, "time_elapsed": 476301, "internal_node_id": "0.0-33.0"}}, {"uniqueid": "MTK0611:3Q5ZZ9ZEVPMLT0CG18IV65ME0PQ851", "current_trial": 43, "dateTime": 1511569241326, "trialdata": {"rt": [2797, 4693, 6053, 11125, 16013], "responses": ["16", "11", "16", "25", "21"], "num1": [4, 5, 6, 9, 8, 5], "num2": [8, 4, 7, 8, 9, 9], "num3": [4, 2, 3, 8, 4, 4], "type": "DISTRACTOR", "conditions": [18, 1200, "a", 18000], "trial": 1, "trial_type": "math-distractor", "trial_index": 43, "time_elapsed": 496304, "internal_node_id": "0.0-34.0"}}, {"uniqueid": "MTK0611:3Q5ZZ9ZEVPMLT0CG18IV65ME0PQ851", "current_trial": 44, "dateTime": 1511569244327, "trialdata": {"rt": -1, "stimulus": "<p id=\"stim\">10</p>", "key_press": -1, "trial_type": "single-stim", "trial_index": 44, "time_elapsed": 499304, "internal_node_id": "0.0-35.0-0.0"}}, {"uniqueid": "MTK0611:3Q5ZZ9ZEVPMLT0CG18IV65ME0PQ851", "current_trial": 45, "dateTime": 1511569245328, "trialdata": {"rt": -1, "stimulus": "<p id=\"stim\">9</p>", "key_press": -1, "trial_type": "single-stim", "trial_index": 45, "time_elapsed": 500305, "internal_node_id": "0.0-35.0-1.0"}}, {"uniqueid": "MTK0611:3Q5ZZ9ZEVPMLT0CG18IV65ME0PQ851", "current_trial": 46, "dateTime": 1511569246329, "trialdata": {"rt": -1, "stimulus": "<p id=\"stim\">8</p>", "key_press": -1, "trial_type": "single-stim", "trial_index": 46, "time_elapsed": 501306, "internal_node_id": "0.0-35.0-2.0"}}, {"uniqueid": "MTK0611:3Q5ZZ9ZEVPMLT0CG18IV65ME0PQ851", "current_trial": 47, "dateTime": 1511569247329, "trialdata": {"rt": -1, "stimulus": "<p id=\"stim\">7</p>", "key_press": -1, "trial_type": "single-stim", "trial_index": 47, "time_elapsed": 502307, "internal_node_id": "0.0-35.0-3.0"}}, {"uniqueid": "MTK0611:3Q5ZZ9ZEVPMLT0CG18IV65ME0PQ851", "current_trial": 48, "dateTime": 1511569248331, "trialdata": {"rt": -1, "stimulus": "<p id=\"stim\">6</p>", "key_press": -1, "trial_type": "single-stim", "trial_index": 48, "time_elapsed": 503309, "internal_node_id": "0.0-35.0-4.0"}}, {"uniqueid": "MTK0611:3Q5ZZ9ZEVPMLT0CG18IV65ME0PQ851", "current_trial": 49, "dateTime": 1511569249331, "trialdata": {"rt": -1, "stimulus": "<p id=\"stim\">5</p>", "key_press": -1, "trial_type": "single-stim", "trial_index": 49, "time_elapsed": 504309, "internal_node_id": "0.0-35.0-5.0"}}, {"uniqueid": "MTK0611:3Q5ZZ9ZEVPMLT0CG18IV65ME0PQ851", "current_trial": 50, "dateTime": 1511569250333, "trialdata": {"rt": -1, "stimulus": "<p id=\"stim\">4</p>", "key_press": -1, "trial_type": "single-stim", "trial_index": 50, "time_elapsed": 505311, "internal_node_id": "0.0-35.0-6.0"}}, {"uniqueid": "MTK0611:3Q5ZZ9ZEVPMLT0CG18IV65ME0PQ851", "current_trial": 51, "dateTime": 1511569251335, "trialdata": {"rt": -1, "stimulus": "<p id=\"stim\">3</p>", "key_press": -1, "trial_type": "single-stim", "trial_index": 51, "time_elapsed": 506312, "internal_node_id": "0.0-35.0-7.0"}}, {"uniqueid": "MTK0611:3Q5ZZ9ZEVPMLT0CG18IV65ME0PQ851", "current_trial": 52, "dateTime": 1511569252336, "trialdata": {"rt": -1, "stimulus": "<p id=\"stim\">2</p>", "key_press": -1, "trial_type": "single-stim", "trial_index": 52, "time_elapsed": 507314, "internal_node_id": "0.0-35.0-8.0"}}, {"uniqueid": "MTK0611:3Q5ZZ9ZEVPMLT0CG18IV65ME0PQ851", "current_trial": 53, "dateTime": 1511569253337, "trialdata": {"rt": -1, "stimulus": "<p id=\"stim\">1</p>", "key_press": -1, "trial_type": "single-stim", "trial_index": 53, "time_elapsed": 508314, "internal_node_id": "0.0-35.0-9.0"}}, {"uniqueid": "MTK0611:3Q5ZZ9ZEVPMLT0CG18IV65ME0PQ851", "current_trial": 54, "dateTime": 1511569254838, "trialdata": {"rt": -1, "stimulus": "<p id=\"stim\">+</p>", "key_press": -1, "type": "FIXATION", "trial_type": "single-stim", "trial_index": 54, "time_elapsed": 509816, "internal_node_id": "0.0-36.0-0.0"}}, {"uniqueid": "MTK0611:3Q5ZZ9ZEVPMLT0CG18IV65ME0PQ851", "current_trial": 55, "dateTime": 1511569257156, "trialdata": {"rt": -1000, "stimulus": "/static/audio/wordpool/SLOPE.wav", "key_press": -1, "type": "PRES_AUD", "word": "slope", "wordID": 1327, "conditions": [18, 1200, "a", 18000], "trial": 1, "serialpos": 0, "trial_type": "single-audio", "trial_index": 55, "time_elapsed": 512134, "internal_node_id": "0.0-37.0"}}, {"uniqueid": "MTK0611:3Q5ZZ9ZEVPMLT0CG18IV65ME0PQ851", "current_trial": 56, "dateTime": 1511569259466, "trialdata": {"rt": -1000, "stimulus": "/static/audio/wordpool/EUROPE.wav", "key_press": -1, "type": "PRES_AUD", "word": "europe", "wordID": 540, "conditions": [18, 1200, "a", 18000], "trial": 1, "serialpos": 1, "trial_type": "single-audio", "trial_index": 56, "time_elapsed": 514444, "internal_node_id": "0.0-38.0"}}, {"uniqueid": "MTK0611:3Q5ZZ9ZEVPMLT0CG18IV65ME0PQ851", "current_trial": 57, "dateTime": 1511569261645, "trialdata": {"rt": -1000, "stimulus": "/static/audio/wordpool/TROMBONE.wav", "key_press": -1, "type": "PRES_AUD", "word": "trombone", "wordID": 1507, "conditions": [18, 1200, "a", 18000], "trial": 1, "serialpos": 2, "trial_type": "single-audio", "trial_index": 57, "time_elapsed": 516623, "internal_node_id": "0.0-39.0"}}, {"uniqueid": "MTK0611:3Q5ZZ9ZEVPMLT0CG18IV65ME0PQ851", "current_trial": 58, "dateTime": 1511569263977, "trialdata": {"rt": -1000, "stimulus": "/static/audio/wordpool/FLUTE.wav", "key_press": -1, "type": "PRES_AUD", "word": "flute", "wordID": 584, "conditions": [18, 1200, "a", 18000], "trial": 1, "serialpos": 3, "trial_type": "single-audio", "trial_index": 58, "time_elapsed": 518955, "internal_node_id": "0.0-40.0"}}, {"uniqueid": "MTK0611:3Q5ZZ9ZEVPMLT0CG18IV65ME0PQ851", "current_trial": 59, "dateTime": 1511569266365, "trialdata": {"rt": -1000, "stimulus": "/static/audio/wordpool/FOREHEAD.wav", "key_press": -1, "type": "PRES_AUD", "word": "forehead", "wordID": 591, "conditions": [18, 1200, "a", 18000], "trial": 1, "serialpos": 4, "trial_type": "single-audio", "trial_index": 59, "time_elapsed": 521343, "internal_node_id": "0.0-41.0"}}, {"uniqueid": "MTK0611:3Q5ZZ9ZEVPMLT0CG18IV65ME0PQ851", "current_trial": 60, "dateTime": 1511569268532, "trialdata": {"rt": -1000, "stimulus": "/static/audio/wordpool/PUPPY.wav", "key_press": -1, "type": "PRES_AUD", "word": "puppy", "wordID": 1143, "conditions": [18, 1200, "a", 18000], "trial": 1, "serialpos": 5, "trial_type": "single-audio", "trial_index": 60, "time_elapsed": 523510, "internal_node_id": "0.0-42.0"}}, {"uniqueid": "MTK0611:3Q5ZZ9ZEVPMLT0CG18IV65ME0PQ851", "current_trial": 61, "dateTime": 1511569270842, "trialdata": {"rt": -1000, "stimulus": "/static/audio/wordpool/BINDER.wav", "key_press": -1, "type": "PRES_AUD", "word": "binder", "wordID": 126, "conditions": [18, 1200, "a", 18000], "trial": 1, "serialpos": 6, "trial_type": "single-audio", "trial_index": 61, "time_elapsed": 525820, "internal_node_id": "0.0-43.0"}}, {"uniqueid": "MTK0611:3Q5ZZ9ZEVPMLT0CG18IV65ME0PQ851", "current_trial": 62, "dateTime": 1511569273105, "trialdata": {"rt": -1000, "stimulus": "/static/audio/wordpool/SUMMIT.wav", "key_press": -1, "type": "PRES_AUD", "word": "summit", "wordID": 1404, "conditions": [18, 1200, "a", 18000], "trial": 1, "serialpos": 7, "trial_type": "single-audio", "trial_index": 62, "time_elapsed": 528083, "internal_node_id": "0.0-44.0"}}, {"uniqueid": "MTK0611:3Q5ZZ9ZEVPMLT0CG18IV65ME0PQ851", "current_trial": 63, "dateTime": 1511569275467, "trialdata": {"rt": -1000, "stimulus": "/static/audio/wordpool/CELLAR.wav", "key_press": -1, "type": "PRES_AUD", "word": "cellar", "wordID": 266, "conditions": [18, 1200, "a", 18000], "trial": 1, "serialpos": 8, "trial_type": "single-audio", "trial_index": 63, "time_elapsed": 530445, "internal_node_id": "0.0-45.0"}}, {"uniqueid": "MTK0611:3Q5ZZ9ZEVPMLT0CG18IV65ME0PQ851", "current_trial": 64, "dateTime": 1511569277571, "trialdata": {"rt": -1000, "stimulus": "/static/audio/wordpool/SHORTCAKE.wav", "key_press": -1, "type": "PRES_AUD", "word": "shortcake", "wordID": 1291, "conditions": [18, 1200, "a", 18000], "trial": 1, "serialpos": 9, "trial_type": "single-audio", "trial_index": 64, "time_elapsed": 532549, "internal_node_id": "0.0-46.0"}}, {"uniqueid": "MTK0611:3Q5ZZ9ZEVPMLT0CG18IV65ME0PQ851", "current_trial": 65, "dateTime": 1511569279804, "trialdata": {"rt": -1000, "stimulus": "/static/audio/wordpool/RUG.wav", "key_press": -1, "type": "PRES_AUD", "word": "rug", "wordID": 1214, "conditions": [18, 1200, "a", 18000], "trial": 1, "serialpos": 10, "trial_type": "single-audio", "trial_index": 65, "time_elapsed": 534782, "internal_node_id": "0.0-47.0"}}, {"uniqueid": "MTK0611:3Q5ZZ9ZEVPMLT0CG18IV65ME0PQ851", "current_trial": 66, "dateTime": 1511569281848, "trialdata": {"rt": -1000, "stimulus": "/static/audio/wordpool/ROCKET.wav", "key_press": -1, "type": "PRES_AUD", "word": "rocket", "wordID": 1201, "conditions": [18, 1200, "a", 18000], "trial": 1, "serialpos": 11, "trial_type": "single-audio", "trial_index": 66, "time_elapsed": 536826, "internal_node_id": "0.0-48.0"}}, {"uniqueid": "MTK0611:3Q5ZZ9ZEVPMLT0CG18IV65ME0PQ851", "current_trial": 67, "dateTime": 1511569283867, "trialdata": {"rt": -1000, "stimulus": "/static/audio/wordpool/DANDRUFF.wav", "key_press": -1, "type": "PRES_AUD", "word": "dandruff", "wordID": 438, "conditions": [18, 1200, "a", 18000], "trial": 1, "serialpos": 12, "trial_type": "single-audio", "trial_index": 67, "time_elapsed": 538845, "internal_node_id": "0.0-49.0"}}, {"uniqueid": "MTK0611:3Q5ZZ9ZEVPMLT0CG18IV65ME0PQ851", "current_trial": 68, "dateTime": 1511569286264, "trialdata": {"rt": -1000, "stimulus": "/static/audio/wordpool/PENGUIN.wav", "key_press": -1, "type": "PRES_AUD", "word": "penguin", "wordID": 1043, "conditions": [18, 1200, "a", 18000], "trial": 1, "serialpos": 13, "trial_type": "single-audio", "trial_index": 68, "time_elapsed": 541239, "internal_node_id": "0.0-50.0"}}, {"uniqueid": "MTK0611:3Q5ZZ9ZEVPMLT0CG18IV65ME0PQ851", "current_trial": 69, "dateTime": 1511569288447, "trialdata": {"rt": -1000, "stimulus": "/static/audio/wordpool/BLUEPRINT.wav", "key_press": -1, "type": "PRES_AUD", "word": "blueprint", "wordID": 141, "conditions": [18, 1200, "a", 18000], "trial": 1, "serialpos": 14, "trial_type": "single-audio", "trial_index": 69, "time_elapsed": 543425, "internal_node_id": "0.0-51.0"}}, {"uniqueid": "MTK0611:3Q5ZZ9ZEVPMLT0CG18IV65ME0PQ851", "current_trial": 70, "dateTime": 1511569290714, "trialdata": {"rt": -1000, "stimulus": "/static/audio/wordpool/FILM.wav", "key_press": -1, "type": "PRES_AUD", "word": "film", "wordID": 564, "conditions": [18, 1200, "a", 18000], "trial": 1, "serialpos": 15, "trial_type": "single-audio", "trial_index": 70, "time_elapsed": 545692, "internal_node_id": "0.0-52.0"}}, {"uniqueid": "MTK0611:3Q5ZZ9ZEVPMLT0CG18IV65ME0PQ851", "current_trial": 71, "dateTime": 1511569292996, "trialdata": {"rt": -1000, "stimulus": "/static/audio/wordpool/DRAWING.wav", "key_press": -1, "type": "PRES_AUD", "word": "drawing", "wordID": 493, "conditions": [18, 1200, "a", 18000], "trial": 1, "serialpos": 16, "trial_type": "single-audio", "trial_index": 71, "time_elapsed": 547974, "internal_node_id": "0.0-53.0"}}, {"uniqueid": "MTK0611:3Q5ZZ9ZEVPMLT0CG18IV65ME0PQ851", "current_trial": 72, "dateTime": 1511569295004, "trialdata": {"rt": -1000, "stimulus": "/static/audio/wordpool/SADDLE.wav", "key_press": -1, "type": "PRES_AUD", "word": "saddle", "wordID": 1220, "conditions": [18, 1200, "a", 18000], "trial": 1, "serialpos": 17, "trial_type": "single-audio", "trial_index": 72, "time_elapsed": 549982, "internal_node_id": "0.0-54.0"}}, {"uniqueid": "MTK0611:3Q5ZZ9ZEVPMLT0CG18IV65ME0PQ851", "current_trial": 73, "dateTime": 1511569296400, "trialdata": {"rt": -1, "stimulus": "", "key_press": -1, "type": "PRE_RECALL_DELAY", "trial_type": "single-stim", "trial_index": 73, "time_elapsed": 551378, "internal_node_id": "0.0-55.0-0.0"}}, {"uniqueid": "MTK0611:3Q5ZZ9ZEVPMLT0CG18IV65ME0PQ851", "current_trial": 74, "dateTime": 1511569296900, "trialdata": {"rt": -1000, "stimulus": "/static/audio/400Hz.wav", "key_press": -1, "type": "PRE_RECALL_ALERT", "trial_type": "single-audio", "trial_index": 74, "time_elapsed": 551878, "internal_node_id": "0.0-56.0"}}, {"uniqueid": "MTK0611:3Q5ZZ9ZEVPMLT0CG18IV65ME0PQ851", "current_trial": 75, "dateTime": 1511569356908, "trialdata": {"rt": [3045, 4405, 8028, 9245, 13205, 14572], "recwords": ["saddle", "blueprint", "drawing", "europe", "binder", "puppy"], "type": "FREE_RECALL", "conditions": [18, 1200, "a", 18000], "trial": 1, "trial_type": "free-recall", "trial_index": 75, "time_elapsed": 611882, "internal_node_id": "0.0-57.0-0.0"}}, {"uniqueid": "MTK0611:3Q5ZZ9ZEVPMLT0CG18IV65ME0PQ851", "current_trial": 76, "dateTime": 1511569360592, "trialdata": {"rt": 1679, "key_press": 32, "type": "INSTRUCTIONS", "trial_type": "text", "trial_index": 76, "time_elapsed": 615565, "internal_node_id": "0.0-58.0"}}, {"uniqueid": "MTK0611:3Q5ZZ9ZEVPMLT0CG18IV65ME0PQ851", "current_trial": 77, "dateTime": 1511569385596, "trialdata": {"rt": [2120, 4743, 6631, 8127, 9767, 11888, 13368, 14624, 16631, 18711, 21615, 23311], "responses": ["6", "13", "9", "13", "10", "11", "8", "8", "17", "12", "18", "11"], "num1": [1, 2, 1, 8, 5, 1, 2, 1, 4, 1, 3, 5, 7], "num2": [1, 7, 1, 4, 2, 5, 5, 3, 6, 5, 9, 4, 7], "num3": [4, 4, 7, 1, 3, 5, 1, 4, 7, 6, 6, 2, 4], "type": "DISTRACTOR", "conditions": [24, 1600, "v", 24000], "trial": 2, "trial_type": "math-distractor", "trial_index": 77, "time_elapsed": 640574, "internal_node_id": "0.0-59.0"}}, {"uniqueid": "MTK0611:3Q5ZZ9ZEVPMLT0CG18IV65ME0PQ851", "current_trial": 78, "dateTime": 1511569388597, "trialdata": {"rt": -1, "stimulus": "<p id=\"stim\">10</p>", "key_press": -1, "trial_type": "single-stim", "trial_index": 78, "time_elapsed": 643574, "internal_node_id": "0.0-60.0-0.0"}}, {"uniqueid": "MTK0611:3Q5ZZ9ZEVPMLT0CG18IV65ME0PQ851", "current_trial": 79, "dateTime": 1511569389598, "trialdata": {"rt": -1, "stimulus": "<p id=\"stim\">9</p>", "key_press": -1, "trial_type": "single-stim", "trial_index": 79, "time_elapsed": 644575, "internal_node_id": "0.0-60.0-1.0"}}, {"uniqueid": "MTK0611:3Q5ZZ9ZEVPMLT0CG18IV65ME0PQ851", "current_trial": 80, "dateTime": 1511569390598, "trialdata": {"rt": -1, "stimulus": "<p id=\"stim\">8</p>", "key_press": -1, "trial_type": "single-stim", "trial_index": 80, "time_elapsed": 645576, "internal_node_id": "0.0-60.0-2.0"}}, {"uniqueid": "MTK0611:3Q5ZZ9ZEVPMLT0CG18IV65ME0PQ851", "current_trial": 81, "dateTime": 1511569391599, "trialdata": {"rt": -1, "stimulus": "<p id=\"stim\">7</p>", "key_press": -1, "trial_type": "single-stim", "trial_index": 81, "time_elapsed": 646577, "internal_node_id": "0.0-60.0-3.0"}}, {"uniqueid": "MTK0611:3Q5ZZ9ZEVPMLT0CG18IV65ME0PQ851", "current_trial": 82, "dateTime": 1511569392600, "trialdata": {"rt": -1, "stimulus": "<p id=\"stim\">6</p>", "key_press": -1, "trial_type": "single-stim", "trial_index": 82, "time_elapsed": 647578, "internal_node_id": "0.0-60.0-4.0"}}, {"uniqueid": "MTK0611:3Q5ZZ9ZEVPMLT0CG18IV65ME0PQ851", "current_trial": 83, "dateTime": 1511569393601, "trialdata": {"rt": -1, "stimulus": "<p id=\"stim\">5</p>", "key_press": -1, "trial_type": "single-stim", "trial_index": 83, "time_elapsed": 648579, "internal_node_id": "0.0-60.0-5.0"}}, {"uniqueid": "MTK0611:3Q5ZZ9ZEVPMLT0CG18IV65ME0PQ851", "current_trial": 84, "dateTime": 1511569394602, "trialdata": {"rt": -1, "stimulus": "<p id=\"stim\">4</p>", "key_press": -1, "trial_type": "single-stim", "trial_index": 84, "time_elapsed": 649580, "internal_node_id": "0.0-60.0-6.0"}}, {"uniqueid": "MTK0611:3Q5ZZ9ZEVPMLT0CG18IV65ME0PQ851", "current_trial": 85, "dateTime": 1511569395603, "trialdata": {"rt": -1, "stimulus": "<p id=\"stim\">3</p>", "key_press": -1, "trial_type": "single-stim", "trial_index": 85, "time_elapsed": 650581, "internal_node_id": "0.0-60.0-7.0"}}, {"uniqueid": "MTK0611:3Q5ZZ9ZEVPMLT0CG18IV65ME0PQ851", "current_trial": 86, "dateTime": 1511569396605, "trialdata": {"rt": -1, "stimulus": "<p id=\"stim\">2</p>", "key_press": -1, "trial_type": "single-stim", "trial_index": 86, "time_elapsed": 651582, "internal_node_id": "0.0-60.0-8.0"}}, {"uniqueid": "MTK0611:3Q5ZZ9ZEVPMLT0CG18IV65ME0PQ851", "current_trial": 87, "dateTime": 1511569397606, "trialdata": {"rt": -1, "stimulus": "<p id=\"stim\">1</p>", "key_press": -1, "trial_type": "single-stim", "trial_index": 87, "time_elapsed": 652584, "internal_node_id": "0.0-60.0-9.0"}}, {"uniqueid": "MTK0611:3Q5ZZ9ZEVPMLT0CG18IV65ME0PQ851", "current_trial": 88, "dateTime": 1511569399106, "trialdata": {"rt": -1, "stimulus": "<p id=\"stim\">+</p>", "key_press": -1, "type": "FIXATION", "trial_type": "single-stim", "trial_index": 88, "time_elapsed": 654084, "internal_node_id": "0.0-61.0-0.0"}}, {"uniqueid": "MTK0611:3Q5ZZ9ZEVPMLT0CG18IV65ME0PQ851", "current_trial": 89, "dateTime": 1511569400708, "trialdata": {"rt": -1, "stimulus": "<p id=\"stim\">MATTRESS</p>", "key_press": -1, "type": "PRES_VIS", "word": "mattress", "wordID": 878, "conditions": [24, 1600, "v", 24000], "trial": 2, "serialpos": 0, "trial_type": "single-stim", "trial_index": 89, "time_elapsed": 655686, "internal_node_id": "0.0-62.0"}}, {"uniqueid": "MTK0611:3Q5ZZ9ZEVPMLT0CG18IV65ME0PQ851", "current_trial": 90, "dateTime": 1511569403202, "trialdata": {"rt": -1, "stimulus": "<p id=\"stim\">SCALPEL</p>", "key_press": -1, "type": "PRES_VIS", "word": "scalpel", "wordID": 1242, "conditions": [24, 1600, "v", 24000], "trial": 2, "serialpos": 1, "trial_type": "single-stim", "trial_index": 90, "time_elapsed": 658180, "internal_node_id": "0.0-63.0"}}, {"uniqueid": "MTK0611:3Q5ZZ9ZEVPMLT0CG18IV65ME0PQ851", "current_trial": 91, "dateTime": 1511569405922, "trialdata": {"rt": -1, "stimulus": "<p id=\"stim\">GUITAR</p>", "key_press": -1, "type": "PRES_VIS", "word": "guitar", "wordID": 669, "conditions": [24, 1600, "v", 24000], "trial": 2, "serialpos": 2, "trial_type": "single-stim", "trial_index": 91, "time_elapsed": 660899, "internal_node_id": "0.0-64.0"}}, {"uniqueid": "MTK0611:3Q5ZZ9ZEVPMLT0CG18IV65ME0PQ851", "current_trial": 92, "dateTime": 1511569408415, "trialdata": {"rt": -1, "stimulus": "<p id=\"stim\">BANJO</p>", "key_press": -1, "type": "PRES_VIS", "word": "banjo", "wordID": 81, "conditions": [24, 1600, "v", 24000], "trial": 2, "serialpos": 3, "trial_type": "single-stim", "trial_index": 92, "time_elapsed": 663392, "internal_node_id": "0.0-65.0"}}, {"uniqueid": "MTK0611:3Q5ZZ9ZEVPMLT0CG18IV65ME0PQ851", "current_trial": 93, "dateTime": 1511569411173, "trialdata": {"rt": -1, "stimulus": "<p id=\"stim\">POSSUM</p>", "key_press": -1, "type": "PRES_VIS", "word": "possum", "wordID": 1111, "conditions": [24, 1600, "v", 24000], "trial": 2, "serialpos": 4, "trial_type": "single-stim", "trial_index": 93, "time_elapsed": 666151, "internal_node_id": "0.0-66.0"}}, {"uniqueid": "MTK0611:3Q5ZZ9ZEVPMLT0CG18IV65ME0PQ851", "current_trial": 94, "dateTime": 1511569413862, "trialdata": {"rt": -1, "stimulus": "<p id=\"stim\">LASER</p>", "key_press": -1, "type": "PRES_VIS", "word": "laser", "wordID": 800, "conditions": [24, 1600, "v", 24000], "trial": 2, "serialpos": 5, "trial_type": "single-stim", "trial_index": 94, "time_elapsed": 668840, "internal_node_id": "0.0-67.0"}}, {"uniqueid": "MTK0611:3Q5ZZ9ZEVPMLT0CG18IV65ME0PQ851", "current_trial": 95, "dateTime": 1511569416465, "trialdata": {"rt": -1, "stimulus": "<p id=\"stim\">FOX</p>", "key_press": -1, "type": "PRES_VIS", "word": "fox", "wordID": 597, "conditions": [24, 1600, "v", 24000], "trial": 2, "serialpos": 6, "trial_type": "single-stim", "trial_index": 95, "time_elapsed": 671442, "internal_node_id": "0.0-68.0"}}, {"uniqueid": "MTK0611:3Q5ZZ9ZEVPMLT0CG18IV65ME0PQ851", "current_trial": 96, "dateTime": 1511569419176, "trialdata": {"rt": -1, "stimulus": "<p id=\"stim\">PLAZA</p>", "key_press": -1, "type": "PRES_VIS", "word": "plaza", "wordID": 1087, "conditions": [24, 1600, "v", 24000], "trial": 2, "serialpos": 7, "trial_type": "single-stim", "trial_index": 96, "time_elapsed": 674153, "internal_node_id": "0.0-69.0"}}, {"uniqueid": "MTK0611:3Q5ZZ9ZEVPMLT0CG18IV65ME0PQ851", "current_trial": 97, "dateTime": 1511569421791, "trialdata": {"rt": -1, "stimulus": "<p id=\"stim\">LABEL</p>", "key_press": -1, "type": "PRES_VIS", "word": "label", "wordID": 789, "conditions": [24, 1600, "v", 24000], "trial": 2, "serialpos": 8, "trial_type": "single-stim", "trial_index": 97, "time_elapsed": 676768, "internal_node_id": "0.0-70.0"}}, {"uniqueid": "MTK0611:3Q5ZZ9ZEVPMLT0CG18IV65ME0PQ851", "current_trial": 98, "dateTime": 1511569424225, "trialdata": {"rt": -1, "stimulus": "<p id=\"stim\">STAMP</p>", "key_press": -1, "type": "PRES_VIS", "word": "stamp", "wordID": 1369, "conditions": [24, 1600, "v", 24000], "trial": 2, "serialpos": 9, "trial_type": "single-stim", "trial_index": 98, "time_elapsed": 679203, "internal_node_id": "0.0-71.0"}}, {"uniqueid": "MTK0611:3Q5ZZ9ZEVPMLT0CG18IV65ME0PQ851", "current_trial": 99, "dateTime": 1511569426635, "trialdata": {"rt": -1, "stimulus": "<p id=\"stim\">DRESS</p>", "key_press": -1, "type": "PRES_VIS", "word": "dress", "wordID": 494, "conditions": [24, 1600, "v", 24000], "trial": 2, "serialpos": 10, "trial_type": "single-stim", "trial_index": 99, "time_elapsed": 681613, "internal_node_id": "0.0-72.0"}}, {"uniqueid": "MTK0611:3Q5ZZ9ZEVPMLT0CG18IV65ME0PQ851", "current_trial": 100, "dateTime": 1511569429419, "trialdata": {"rt": -1, "stimulus": "<p id=\"stim\">COUCH</p>", "key_press": -1, "type": "PRES_VIS", "word": "couch", "wordID": 385, "conditions": [24, 1600, "v", 24000], "trial": 2, "serialpos": 11, "trial_type": "single-stim", "trial_index": 100, "time_elapsed": 684397, "internal_node_id": "0.0-73.0"}}, {"uniqueid": "MTK0611:3Q5ZZ9ZEVPMLT0CG18IV65ME0PQ851", "current_trial": 101, "dateTime": 1511569432079, "trialdata": {"rt": -1, "stimulus": "<p id=\"stim\">BRIEFCASE</p>", "key_press": -1, "type": "PRES_VIS", "word": "briefcase", "wordID": 174, "conditions": [24, 1600, "v", 24000], "trial": 2, "serialpos": 12, "trial_type": "single-stim", "trial_index": 101, "time_elapsed": 687057, "internal_node_id": "0.0-74.0"}}, {"uniqueid": "MTK0611:3Q5ZZ9ZEVPMLT0CG18IV65ME0PQ851", "current_trial": 102, "dateTime": 1511569434509, "trialdata": {"rt": -1, "stimulus": "<p id=\"stim\">MONSTER</p>", "key_press": -1, "type": "PRES_VIS", "word": "monster", "wordID": 911, "conditions": [24, 1600, "v", 24000], "trial": 2, "serialpos": 13, "trial_type": "single-stim", "trial_index": 102, "time_elapsed": 689486, "internal_node_id": "0.0-75.0"}}, {"uniqueid": "MTK0611:3Q5ZZ9ZEVPMLT0CG18IV65ME0PQ851", "current_trial": 103, "dateTime": 1511569437183, "trialdata": {"rt": -1, "stimulus": "<p id=\"stim\">CARRIAGE</p>", "key_press": -1, "type": "PRES_VIS", "word": "carriage", "wordID": 247, "conditions": [24, 1600, "v", 24000], "trial": 2, "serialpos": 14, "trial_type": "single-stim", "trial_index": 103, "time_elapsed": 692161, "internal_node_id": "0.0-76.0"}}, {"uniqueid": "MTK0611:3Q5ZZ9ZEVPMLT0CG18IV65ME0PQ851", "current_trial": 104, "dateTime": 1511569439851, "trialdata": {"rt": -1, "stimulus": "<p id=\"stim\">JOURNAL</p>", "key_press": -1, "type": "PRES_VIS", "word": "journal", "wordID": 759, "conditions": [24, 1600, "v", 24000], "trial": 2, "serialpos": 15, "trial_type": "single-stim", "trial_index": 104, "time_elapsed": 694828, "internal_node_id": "0.0-77.0"}}, {"uniqueid": "MTK0611:3Q5ZZ9ZEVPMLT0CG18IV65ME0PQ851", "current_trial": 105, "dateTime": 1511569442256, "trialdata": {"rt": -1, "stimulus": "<p id=\"stim\">EXPERT</p>", "key_press": -1, "type": "PRES_VIS", "word": "expert", "wordID": 542, "conditions": [24, 1600, "v", 24000], "trial": 2, "serialpos": 16, "trial_type": "single-stim", "trial_index": 105, "time_elapsed": 697233, "internal_node_id": "0.0-78.0"}}, {"uniqueid": "MTK0611:3Q5ZZ9ZEVPMLT0CG18IV65ME0PQ851", "current_trial": 106, "dateTime": 1511569444765, "trialdata": {"rt": -1, "stimulus": "<p id=\"stim\">SURVEY</p>", "key_press": -1, "type": "PRES_VIS", "word": "survey", "wordID": 1413, "conditions": [24, 1600, "v", 24000], "trial": 2, "serialpos": 17, "trial_type": "single-stim", "trial_index": 106, "time_elapsed": 699743, "internal_node_id": "0.0-79.0"}}, {"uniqueid": "MTK0611:3Q5ZZ9ZEVPMLT0CG18IV65ME0PQ851", "current_trial": 107, "dateTime": 1511569447549, "trialdata": {"rt": -1, "stimulus": "<p id=\"stim\">REBEL</p>", "key_press": -1, "type": "PRES_VIS", "word": "rebel", "wordID": 1171, "conditions": [24, 1600, "v", 24000], "trial": 2, "serialpos": 18, "trial_type": "single-stim", "trial_index": 107, "time_elapsed": 702527, "internal_node_id": "0.0-80.0"}}, {"uniqueid": "MTK0611:3Q5ZZ9ZEVPMLT0CG18IV65ME0PQ851", "current_trial": 108, "dateTime": 1511569450302, "trialdata": {"rt": -1, "stimulus": "<p id=\"stim\">PATIENT</p>", "key_press": -1, "type": "PRES_VIS", "word": "patient", "wordID": 1023, "conditions": [24, 1600, "v", 24000], "trial": 2, "serialpos": 19, "trial_type": "single-stim", "trial_index": 108, "time_elapsed": 705280, "internal_node_id": "0.0-81.0"}}, {"uniqueid": "MTK0611:3Q5ZZ9ZEVPMLT0CG18IV65ME0PQ851", "current_trial": 109, "dateTime": 1511569452765, "trialdata": {"rt": -1, "stimulus": "<p id=\"stim\">WAITRESS</p>", "key_press": -1, "type": "PRES_VIS", "word": "waitress", "wordID": 1580, "conditions": [24, 1600, "v", 24000], "trial": 2, "serialpos": 20, "trial_type": "single-stim", "trial_index": 109, "time_elapsed": 707743, "internal_node_id": "0.0-82.0"}}, {"uniqueid": "MTK0611:3Q5ZZ9ZEVPMLT0CG18IV65ME0PQ851", "current_trial": 110, "dateTime": 1511569455439, "trialdata": {"rt": -1, "stimulus": "<p id=\"stim\">HOSTESS</p>", "key_press": -1, "type": "PRES_VIS", "word": "hostess", "wordID": 722, "conditions": [24, 1600, "v", 24000], "trial": 2, "serialpos": 21, "trial_type": "single-stim", "trial_index": 110, "time_elapsed": 710416, "internal_node_id": "0.0-83.0"}}, {"uniqueid": "MTK0611:3Q5ZZ9ZEVPMLT0CG18IV65ME0PQ851", "current_trial": 111, "dateTime": 1511569458075, "trialdata": {"rt": -1, "stimulus": "<p id=\"stim\">REPORT</p>", "key_press": -1, "type": "PRES_VIS", "word": "report", "wordID": 1183, "conditions": [24, 1600, "v", 24000], "trial": 2, "serialpos": 22, "trial_type": "single-stim", "trial_index": 111, "time_elapsed": 713052, "internal_node_id": "0.0-84.0"}}, {"uniqueid": "MTK0611:3Q5ZZ9ZEVPMLT0CG18IV65ME0PQ851", "current_trial": 112, "dateTime": 1511569460798, "trialdata": {"rt": -1, "stimulus": "<p id=\"stim\">CLIMBER</p>", "key_press": -1, "type": "PRES_VIS", "word": "climber", "wordID": 322, "conditions": [24, 1600, "v", 24000], "trial": 2, "serialpos": 23, "trial_type": "single-stim", "trial_index": 112, "time_elapsed": 715776, "internal_node_id": "0.0-85.0"}}, {"uniqueid": "MTK0611:3Q5ZZ9ZEVPMLT0CG18IV65ME0PQ851", "current_trial": 113, "dateTime": 1511569463342, "trialdata": {"rt": -1, "stimulus": "", "key_press": -1, "type": "PRE_RECALL_DELAY", "trial_type": "single-stim", "trial_index": 113, "time_elapsed": 718320, "internal_node_id": "0.0-86.0-0.0"}}, {"uniqueid": "MTK0611:3Q5ZZ9ZEVPMLT0CG18IV65ME0PQ851", "current_trial": 114, "dateTime": 1511569463843, "trialdata": {"rt": -1000, "stimulus": "/static/audio/400Hz.wav", "key_press": -1, "type": "PRE_RECALL_ALERT", "trial_type": "single-audio", "trial_index": 114, "time_elapsed": 718821, "internal_node_id": "0.0-87.0"}}, {"uniqueid": "MTK0611:3Q5ZZ9ZEVPMLT0CG18IV65ME0PQ851", "current_trial": 115, "dateTime": 1511569523853, "trialdata": {"rt": [1837, 3182, 4181, 7486, 9333, 10958, 23334], "recwords": ["stamp", "dress", "banjo", "rebel", "waitress", "hostess", "monster"], "type": "FREE_RECALL", "conditions": [24, 1600, "v", 24000], "trial": 2, "trial_type": "free-recall", "trial_index": 115, "time_elapsed": 778824, "internal_node_id": "0.0-88.0-0.0"}}, {"uniqueid": "MTK0611:3Q5ZZ9ZEVPMLT0CG18IV65ME0PQ851", "current_trial": 116, "dateTime": 1511569527083, "trialdata": {"rt": 1229, "key_press": 32, "type": "INSTRUCTIONS", "trial_type": "text", "trial_index": 116, "time_elapsed": 782061, "internal_node_id": "0.0-89.0"}}, {"uniqueid": "MTK0611:3Q5ZZ9ZEVPMLT0CG18IV65ME0PQ851", "current_trial": 117, "dateTime": 1511569541088, "trialdata": {"rt": [3963, 7363, 8644, 10484, 11724], "responses": ["14", "25", "12", "11", "15"], "num1": [4, 8, 6, 3, 5, 9], "num2": [8, 8, 2, 7, 5, 3], "num3": [2, 9, 4, 1, 5, 3], "type": "DISTRACTOR", "conditions": [24, 1600, "v", 12000], "trial": 3, "trial_type": "math-distractor", "trial_index": 117, "time_elapsed": 796066, "internal_node_id": "0.0-90.0"}}, {"uniqueid": "MTK0611:3Q5ZZ9ZEVPMLT0CG18IV65ME0PQ851", "current_trial": 118, "dateTime": 1511569544089, "trialdata": {"rt": -1, "stimulus": "<p id=\"stim\">10</p>", "key_press": -1, "trial_type": "single-stim", "trial_index": 118, "time_elapsed": 799067, "internal_node_id": "0.0-91.0-0.0"}}, {"uniqueid": "MTK0611:3Q5ZZ9ZEVPMLT0CG18IV65ME0PQ851", "current_trial": 119, "dateTime": 1511569545090, "trialdata": {"rt": -1, "stimulus": "<p id=\"stim\">9</p>", "key_press": -1, "trial_type": "single-stim", "trial_index": 119, "time_elapsed": 800068, "internal_node_id": "0.0-91.0-1.0"}}, {"uniqueid": "MTK0611:3Q5ZZ9ZEVPMLT0CG18IV65ME0PQ851", "current_trial": 120, "dateTime": 1511569546091, "trialdata": {"rt": -1, "stimulus": "<p id=\"stim\">8</p>", "key_press": -1, "trial_type": "single-stim", "trial_index": 120, "time_elapsed": 801069, "internal_node_id": "0.0-91.0-2.0"}}, {"uniqueid": "MTK0611:3Q5ZZ9ZEVPMLT0CG18IV65ME0PQ851", "current_trial": 121, "dateTime": 1511569547093, "trialdata": {"rt": -1, "stimulus": "<p id=\"stim\">7</p>", "key_press": -1, "trial_type": "single-stim", "trial_index": 121, "time_elapsed": 802071, "internal_node_id": "0.0-91.0-3.0"}}, {"uniqueid": "MTK0611:3Q5ZZ9ZEVPMLT0CG18IV65ME0PQ851", "current_trial": 122, "dateTime": 1511569548094, "trialdata": {"rt": -1, "stimulus": "<p id=\"stim\">6</p>", "key_press": -1, "trial_type": "single-stim", "trial_index": 122, "time_elapsed": 803072, "internal_node_id": "0.0-91.0-4.0"}}, {"uniqueid": "MTK0611:3Q5ZZ9ZEVPMLT0CG18IV65ME0PQ851", "current_trial": 123, "dateTime": 1511569549096, "trialdata": {"rt": -1, "stimulus": "<p id=\"stim\">5</p>", "key_press": -1, "trial_type": "single-stim", "trial_index": 123, "time_elapsed": 804074, "internal_node_id": "0.0-91.0-5.0"}}, {"uniqueid": "MTK0611:3Q5ZZ9ZEVPMLT0CG18IV65ME0PQ851", "current_trial": 124, "dateTime": 1511569550096, "trialdata": {"rt": -1, "stimulus": "<p id=\"stim\">4</p>", "key_press": -1, "trial_type": "single-stim", "trial_index": 124, "time_elapsed": 805074, "internal_node_id": "0.0-91.0-6.0"}}, {"uniqueid": "MTK0611:3Q5ZZ9ZEVPMLT0CG18IV65ME0PQ851", "current_trial": 125, "dateTime": 1511569551097, "trialdata": {"rt": -1, "stimulus": "<p id=\"stim\">3</p>", "key_press": -1, "trial_type": "single-stim", "trial_index": 125, "time_elapsed": 806075, "internal_node_id": "0.0-91.0-7.0"}}, {"uniqueid": "MTK0611:3Q5ZZ9ZEVPMLT0CG18IV65ME0PQ851", "current_trial": 126, "dateTime": 1511569552098, "trialdata": {"rt": -1, "stimulus": "<p id=\"stim\">2</p>", "key_press": -1, "trial_type": "single-stim", "trial_index": 126, "time_elapsed": 807076, "internal_node_id": "0.0-91.0-8.0"}}, {"uniqueid": "MTK0611:3Q5ZZ9ZEVPMLT0CG18IV65ME0PQ851", "current_trial": 127, "dateTime": 1511569553100, "trialdata": {"rt": -1, "stimulus": "<p id=\"stim\">1</p>", "key_press": -1, "trial_type": "single-stim", "trial_index": 127, "time_elapsed": 808078, "internal_node_id": "0.0-91.0-9.0"}}, {"uniqueid": "MTK0611:3Q5ZZ9ZEVPMLT0CG18IV65ME0PQ851", "current_trial": 128, "dateTime": 1511569554601, "trialdata": {"rt": -1, "stimulus": "<p id=\"stim\">+</p>", "key_press": -1, "type": "FIXATION", "trial_type": "single-stim", "trial_index": 128, "time_elapsed": 809579, "internal_node_id": "0.0-92.0-0.0"}}, {"uniqueid": "MTK0611:3Q5ZZ9ZEVPMLT0CG18IV65ME0PQ851", "current_trial": 129, "dateTime": 1511569556202, "trialdata": {"rt": -1, "stimulus": "<p id=\"stim\">PORTRAIT</p>", "key_press": -1, "type": "PRES_VIS", "word": "portrait", "wordID": 1110, "conditions": [24, 1600, "v", 12000], "trial": 3, "serialpos": 0, "trial_type": "single-stim", "trial_index": 129, "time_elapsed": 811180, "internal_node_id": "0.0-93.0"}}, {"uniqueid": "MTK0611:3Q5ZZ9ZEVPMLT0CG18IV65ME0PQ851", "current_trial": 130, "dateTime": 1511569558678, "trialdata": {"rt": -1, "stimulus": "<p id=\"stim\">JELLY</p>", "key_press": -1, "type": "PRES_VIS", "word": "jelly", "wordID": 754, "conditions": [24, 1600, "v", 12000], "trial": 3, "serialpos": 1, "trial_type": "single-stim", "trial_index": 130, "time_elapsed": 813655, "internal_node_id": "0.0-94.0"}}, {"uniqueid": "MTK0611:3Q5ZZ9ZEVPMLT0CG18IV65ME0PQ851", "current_trial": 131, "dateTime": 1511569561333, "trialdata": {"rt": -1, "stimulus": "<p id=\"stim\">DRUG</p>", "key_press": -1, "type": "PRES_VIS", "word": "drug", "wordID": 500, "conditions": [24, 1600, "v", 12000], "trial": 3, "serialpos": 2, "trial_type": "single-stim", "trial_index": 131, "time_elapsed": 816310, "internal_node_id": "0.0-95.0"}}, {"uniqueid": "MTK0611:3Q5ZZ9ZEVPMLT0CG18IV65ME0PQ851", "current_trial": 132, "dateTime": 1511569563994, "trialdata": {"rt": -1, "stimulus": "<p id=\"stim\">FRUIT</p>", "key_press": -1, "type": "PRES_VIS", "word": "fruit", "wordID": 609, "conditions": [24, 1600, "v", 12000], "trial": 3, "serialpos": 3, "trial_type": "single-stim", "trial_index": 132, "time_elapsed": 818972, "internal_node_id": "0.0-96.0"}}, {"uniqueid": "MTK0611:3Q5ZZ9ZEVPMLT0CG18IV65ME0PQ851", "current_trial": 133, "dateTime": 1511569566423, "trialdata": {"rt": -1, "stimulus": "<p id=\"stim\">BANKER</p>", "key_press": -1, "type": "PRES_VIS", "word": "banker", "wordID": 83, "conditions": [24, 1600, "v", 12000], "trial": 3, "serialpos": 4, "trial_type": "single-stim", "trial_index": 133, "time_elapsed": 821401, "internal_node_id": "0.0-97.0"}}, {"uniqueid": "MTK0611:3Q5ZZ9ZEVPMLT0CG18IV65ME0PQ851", "current_trial": 134, "dateTime": 1511569569204, "trialdata": {"rt": -1, "stimulus": "<p id=\"stim\">BRANDY</p>", "key_press": -1, "type": "PRES_VIS", "word": "brandy", "wordID": 168, "conditions": [24, 1600, "v", 12000], "trial": 3, "serialpos": 5, "trial_type": "single-stim", "trial_index": 134, "time_elapsed": 824182, "internal_node_id": "0.0-98.0"}}, {"uniqueid": "MTK0611:3Q5ZZ9ZEVPMLT0CG18IV65ME0PQ851", "current_trial": 135, "dateTime": 1511569571622, "trialdata": {"rt": -1, "stimulus": "<p id=\"stim\">JELLO</p>", "key_press": -1, "type": "PRES_VIS", "word": "jello", "wordID": 753, "conditions": [24, 1600, "v", 12000], "trial": 3, "serialpos": 6, "trial_type": "single-stim", "trial_index": 135, "time_elapsed": 826600, "internal_node_id": "0.0-99.0"}}, {"uniqueid": "MTK0611:3Q5ZZ9ZEVPMLT0CG18IV65ME0PQ851", "current_trial": 136, "dateTime": 1511569574232, "trialdata": {"rt": -1, "stimulus": "<p id=\"stim\">SLIME</p>", "key_press": -1, "type": "PRES_VIS", "word": "slime", "wordID": 1326, "conditions": [24, 1600, "v", 12000], "trial": 3, "serialpos": 7, "trial_type": "single-stim", "trial_index": 136, "time_elapsed": 829210, "internal_node_id": "0.0-100.0"}}, {"uniqueid": "MTK0611:3Q5ZZ9ZEVPMLT0CG18IV65ME0PQ851", "current_trial": 137, "dateTime": 1511569576976, "trialdata": {"rt": -1, "stimulus": "<p id=\"stim\">BLACKBOARD</p>", "key_press": -1, "type": "PRES_VIS", "word": "blackboard", "wordID": 132, "conditions": [24, 1600, "v", 12000], "trial": 3, "serialpos": 8, "trial_type": "single-stim", "trial_index": 137, "time_elapsed": 831953, "internal_node_id": "0.0-101.0"}}, {"uniqueid": "MTK0611:3Q5ZZ9ZEVPMLT0CG18IV65ME0PQ851", "current_trial": 138, "dateTime": 1511569579502, "trialdata": {"rt": -1, "stimulus": "<p id=\"stim\">ULCER</p>", "key_press": -1, "type": "PRES_VIS", "word": "ulcer", "wordID": 1532, "conditions": [24, 1600, "v", 12000], "trial": 3, "serialpos": 9, "trial_type": "single-stim", "trial_index": 138, "time_elapsed": 834479, "internal_node_id": "0.0-102.0"}}, {"uniqueid": "MTK0611:3Q5ZZ9ZEVPMLT0CG18IV65ME0PQ851", "current_trial": 139, "dateTime": 1511569582186, "trialdata": {"rt": -1, "stimulus": "<p id=\"stim\">FINGER</p>", "key_press": -1, "type": "PRES_VIS", "word": "finger", "wordID": 566, "conditions": [24, 1600, "v", 12000], "trial": 3, "serialpos": 10, "trial_type": "single-stim", "trial_index": 139, "time_elapsed": 837164, "internal_node_id": "0.0-103.0"}}, {"uniqueid": "MTK0611:3Q5ZZ9ZEVPMLT0CG18IV65ME0PQ851", "current_trial": 140, "dateTime": 1511569584787, "trialdata": {"rt": -1, "stimulus": "<p id=\"stim\">WRIST</p>", "key_press": -1, "type": "PRES_VIS", "word": "wrist", "wordID": 1625, "conditions": [24, 1600, "v", 12000], "trial": 3, "serialpos": 11, "trial_type": "single-stim", "trial_index": 140, "time_elapsed": 839765, "internal_node_id": "0.0-104.0"}}, {"uniqueid": "MTK0611:3Q5ZZ9ZEVPMLT0CG18IV65ME0PQ851", "current_trial": 141, "dateTime": 1511569587478, "trialdata": {"rt": -1, "stimulus": "<p id=\"stim\">PADDING</p>", "key_press": -1, "type": "PRES_VIS", "word": "padding", "wordID": 998, "conditions": [24, 1600, "v", 12000], "trial": 3, "serialpos": 12, "trial_type": "single-stim", "trial_index": 141, "time_elapsed": 842455, "internal_node_id": "0.0-105.0"}}, {"uniqueid": "MTK0611:3Q5ZZ9ZEVPMLT0CG18IV65ME0PQ851", "current_trial": 142, "dateTime": 1511569590231, "trialdata": {"rt": -1, "stimulus": "<p id=\"stim\">CHIPMUNK</p>", "key_press": -1, "type": "PRES_VIS", "word": "chipmunk", "wordID": 303, "conditions": [24, 1600, "v", 12000], "trial": 3, "serialpos": 13, "trial_type": "single-stim", "trial_index": 142, "time_elapsed": 845209, "internal_node_id": "0.0-106.0"}}, {"uniqueid": "MTK0611:3Q5ZZ9ZEVPMLT0CG18IV65ME0PQ851", "current_trial": 143, "dateTime": 1511569592911, "trialdata": {"rt": -1, "stimulus": "<p id=\"stim\">WOMAN</p>", "key_press": -1, "type": "PRES_VIS", "word": "woman", "wordID": 1619, "conditions": [24, 1600, "v", 12000], "trial": 3, "serialpos": 14, "trial_type": "single-stim", "trial_index": 143, "time_elapsed": 847889, "internal_node_id": "0.0-107.0"}}, {"uniqueid": "MTK0611:3Q5ZZ9ZEVPMLT0CG18IV65ME0PQ851", "current_trial": 144, "dateTime": 1511569595556, "trialdata": {"rt": -1, "stimulus": "<p id=\"stim\">LADY</p>", "key_press": -1, "type": "PRES_VIS", "word": "lady", "wordID": 793, "conditions": [24, 1600, "v", 12000], "trial": 3, "serialpos": 15, "trial_type": "single-stim", "trial_index": 144, "time_elapsed": 850534, "internal_node_id": "0.0-108.0"}}, {"uniqueid": "MTK0611:3Q5ZZ9ZEVPMLT0CG18IV65ME0PQ851", "current_trial": 145, "dateTime": 1511569598019, "trialdata": {"rt": -1, "stimulus": "<p id=\"stim\">TUNNEL</p>", "key_press": -1, "type": "PRES_VIS", "word": "tunnel", "wordID": 1518, "conditions": [24, 1600, "v", 12000], "trial": 3, "serialpos": 16, "trial_type": "single-stim", "trial_index": 145, "time_elapsed": 852997, "internal_node_id": "0.0-109.0"}}, {"uniqueid": "MTK0611:3Q5ZZ9ZEVPMLT0CG18IV65ME0PQ851", "current_trial": 146, "dateTime": 1511569600480, "trialdata": {"rt": -1, "stimulus": "<p id=\"stim\">TABLET</p>", "key_press": -1, "type": "PRES_VIS", "word": "tablet", "wordID": 1426, "conditions": [24, 1600, "v", 12000], "trial": 3, "serialpos": 17, "trial_type": "single-stim", "trial_index": 146, "time_elapsed": 855458, "internal_node_id": "0.0-110.0"}}, {"uniqueid": "MTK0611:3Q5ZZ9ZEVPMLT0CG18IV65ME0PQ851", "current_trial": 147, "dateTime": 1511569603090, "trialdata": {"rt": -1, "stimulus": "<p id=\"stim\">CANDY</p>", "key_press": -1, "type": "PRES_VIS", "word": "candy", "wordID": 229, "conditions": [24, 1600, "v", 12000], "trial": 3, "serialpos": 18, "trial_type": "single-stim", "trial_index": 147, "time_elapsed": 858068, "internal_node_id": "0.0-111.0"}}, {"uniqueid": "MTK0611:3Q5ZZ9ZEVPMLT0CG18IV65ME0PQ851", "current_trial": 148, "dateTime": 1511569605597, "trialdata": {"rt": -1, "stimulus": "<p id=\"stim\">SHOVEL</p>", "key_press": -1, "type": "PRES_VIS", "word": "shovel", "wordID": 1294, "conditions": [24, 1600, "v", 12000], "trial": 3, "serialpos": 19, "trial_type": "single-stim", "trial_index": 148, "time_elapsed": 860575, "internal_node_id": "0.0-112.0"}}, {"uniqueid": "MTK0611:3Q5ZZ9ZEVPMLT0CG18IV65ME0PQ851", "current_trial": 149, "dateTime": 1511569608118, "trialdata": {"rt": -1, "stimulus": "<p id=\"stim\">FLOWER</p>", "key_press": -1, "type": "PRES_VIS", "word": "flower", "wordID": 583, "conditions": [24, 1600, "v", 12000], "trial": 3, "serialpos": 20, "trial_type": "single-stim", "trial_index": 149, "time_elapsed": 863095, "internal_node_id": "0.0-113.0"}}, {"uniqueid": "MTK0611:3Q5ZZ9ZEVPMLT0CG18IV65ME0PQ851", "current_trial": 150, "dateTime": 1511569610530, "trialdata": {"rt": -1, "stimulus": "<p id=\"stim\">BEAVER</p>", "key_press": -1, "type": "PRES_VIS", "word": "beaver", "wordID": 108, "conditions": [24, 1600, "v", 12000], "trial": 3, "serialpos": 21, "trial_type": "single-stim", "trial_index": 150, "time_elapsed": 865507, "internal_node_id": "0.0-114.0"}}, {"uniqueid": "MTK0611:3Q5ZZ9ZEVPMLT0CG18IV65ME0PQ851", "current_trial": 151, "dateTime": 1511569613053, "trialdata": {"rt": -1, "stimulus": "<p id=\"stim\">CLOTHES</p>", "key_press": -1, "type": "PRES_VIS", "word": "clothes", "wordID": 326, "conditions": [24, 1600, "v", 12000], "trial": 3, "serialpos": 22, "trial_type": "single-stim", "trial_index": 151, "time_elapsed": 868030, "internal_node_id": "0.0-115.0"}}, {"uniqueid": "MTK0611:3Q5ZZ9ZEVPMLT0CG18IV65ME0PQ851", "current_trial": 152, "dateTime": 1511569615736, "trialdata": {"rt": -1, "stimulus": "<p id=\"stim\">BIKE</p>", "key_press": -1, "type": "PRES_VIS", "word": "bike", "wordID": 124, "conditions": [24, 1600, "v", 12000], "trial": 3, "serialpos": 23, "trial_type": "single-stim", "trial_index": 152, "time_elapsed": 870714, "internal_node_id": "0.0-116.0"}}, {"uniqueid": "MTK0611:3Q5ZZ9ZEVPMLT0CG18IV65ME0PQ851", "current_trial": 153, "dateTime": 1511569618247, "trialdata": {"rt": -1, "stimulus": "", "key_press": -1, "type": "PRE_RECALL_DELAY", "trial_type": "single-stim", "trial_index": 153, "time_elapsed": 873225, "internal_node_id": "0.0-117.0-0.0"}}, {"uniqueid": "MTK0611:3Q5ZZ9ZEVPMLT0CG18IV65ME0PQ851", "current_trial": 154, "dateTime": 1511569618749, "trialdata": {"rt": -1000, "stimulus": "/static/audio/400Hz.wav", "key_press": -1, "type": "PRE_RECALL_ALERT", "trial_type": "single-audio", "trial_index": 154, "time_elapsed": 873727, "internal_node_id": "0.0-118.0"}}, {"uniqueid": "MTK0611:3Q5ZZ9ZEVPMLT0CG18IV65ME0PQ851", "current_trial": 155, "dateTime": 1511569678755, "trialdata": {"rt": [2356, 3133, 4236, 6580, 7493, 9813], "recwords": ["jello", "slime", "candy", "portrait", "lady", "bike"], "type": "FREE_RECALL", "conditions": [24, 1600, "v", 12000], "trial": 3, "trial_type": "free-recall", "trial_index": 155, "time_elapsed": 933729, "internal_node_id": "0.0-119.0-0.0"}}, {"uniqueid": "MTK0611:3Q5ZZ9ZEVPMLT0CG18IV65ME0PQ851", "current_trial": 156, "dateTime": 1511569682324, "trialdata": {"rt": 1568, "key_press": 13, "type": "INSTRUCTIONS", "trial_type": "text", "trial_index": 156, "time_elapsed": 937302, "internal_node_id": "0.0-120.0"}}, {"uniqueid": "MTK0611:3Q5ZZ9ZEVPMLT0CG18IV65ME0PQ851", "current_trial": 157, "dateTime": 1511569696326, "trialdata": {"rt": [2789, 3973, 6525, 8309, 9821], "responses": ["14", "12", "16", "13", "7"], "num1": [7, 8, 8, 1, 5, 9], "num2": [1, 2, 1, 9, 1, 3], "num3": [6, 2, 7, 3, 1, 1], "type": "DISTRACTOR", "conditions": [12, 800, "v", 12000], "trial": 4, "trial_type": "math-distractor", "trial_index": 157, "time_elapsed": 951304, "internal_node_id": "0.0-121.0"}}, {"uniqueid": "MTK0611:3Q5ZZ9ZEVPMLT0CG18IV65ME0PQ851", "current_trial": 158, "dateTime": 1511569699326, "trialdata": {"rt": -1, "stimulus": "<p id=\"stim\">10</p>", "key_press": -1, "trial_type": "single-stim", "trial_index": 158, "time_elapsed": 954304, "internal_node_id": "0.0-122.0-0.0"}}, {"uniqueid": "MTK0611:3Q5ZZ9ZEVPMLT0CG18IV65ME0PQ851", "current_trial": 159, "dateTime": 1511569700327, "trialdata": {"rt": -1, "stimulus": "<p id=\"stim\">9</p>", "key_press": -1, "trial_type": "single-stim", "trial_index": 159, "time_elapsed": 955305, "internal_node_id": "0.0-122.0-1.0"}}, {"uniqueid": "MTK0611:3Q5ZZ9ZEVPMLT0CG18IV65ME0PQ851", "current_trial": 160, "dateTime": 1511569701329, "trialdata": {"rt": -1, "stimulus": "<p id=\"stim\">8</p>", "key_press": -1, "trial_type": "single-stim", "trial_index": 160, "time_elapsed": 956307, "internal_node_id": "0.0-122.0-2.0"}}, {"uniqueid": "MTK0611:3Q5ZZ9ZEVPMLT0CG18IV65ME0PQ851", "current_trial": 161, "dateTime": 1511569702330, "trialdata": {"rt": -1, "stimulus": "<p id=\"stim\">7</p>", "key_press": -1, "trial_type": "single-stim", "trial_index": 161, "time_elapsed": 957308, "internal_node_id": "0.0-122.0-3.0"}}, {"uniqueid": "MTK0611:3Q5ZZ9ZEVPMLT0CG18IV65ME0PQ851", "current_trial": 162, "dateTime": 1511569703331, "trialdata": {"rt": -1, "stimulus": "<p id=\"stim\">6</p>", "key_press": -1, "trial_type": "single-stim", "trial_index": 162, "time_elapsed": 958309, "internal_node_id": "0.0-122.0-4.0"}}, {"uniqueid": "MTK0611:3Q5ZZ9ZEVPMLT0CG18IV65ME0PQ851", "current_trial": 163, "dateTime": 1511569704333, "trialdata": {"rt": -1, "stimulus": "<p id=\"stim\">5</p>", "key_press": -1, "trial_type": "single-stim", "trial_index": 163, "time_elapsed": 959311, "internal_node_id": "0.0-122.0-5.0"}}, {"uniqueid": "MTK0611:3Q5ZZ9ZEVPMLT0CG18IV65ME0PQ851", "current_trial": 164, "dateTime": 1511569705334, "trialdata": {"rt": -1, "stimulus": "<p id=\"stim\">4</p>", "key_press": -1, "trial_type": "single-stim", "trial_index": 164, "time_elapsed": 960312, "internal_node_id": "0.0-122.0-6.0"}}, {"uniqueid": "MTK0611:3Q5ZZ9ZEVPMLT0CG18IV65ME0PQ851", "current_trial": 165, "dateTime": 1511569706336, "trialdata": {"rt": -1, "stimulus": "<p id=\"stim\">3</p>", "key_press": -1, "trial_type": "single-stim", "trial_index": 165, "time_elapsed": 961314, "internal_node_id": "0.0-122.0-7.0"}}, {"uniqueid": "MTK0611:3Q5ZZ9ZEVPMLT0CG18IV65ME0PQ851", "current_trial": 166, "dateTime": 1511569707338, "trialdata": {"rt": -1, "stimulus": "<p id=\"stim\">2</p>", "key_press": -1, "trial_type": "single-stim", "trial_index": 166, "time_elapsed": 962316, "internal_node_id": "0.0-122.0-8.0"}}, {"uniqueid": "MTK0611:3Q5ZZ9ZEVPMLT0CG18IV65ME0PQ851", "current_trial": 167, "dateTime": 1511569708338, "trialdata": {"rt": -1, "stimulus": "<p id=\"stim\">1</p>", "key_press": -1, "trial_type": "single-stim", "trial_index": 167, "time_elapsed": 963316, "internal_node_id": "0.0-122.0-9.0"}}, {"uniqueid": "MTK0611:3Q5ZZ9ZEVPMLT0CG18IV65ME0PQ851", "current_trial": 168, "dateTime": 1511569709840, "trialdata": {"rt": -1, "stimulus": "<p id=\"stim\">+</p>", "key_press": -1, "type": "FIXATION", "trial_type": "single-stim", "trial_index": 168, "time_elapsed": 964818, "internal_node_id": "0.0-123.0-0.0"}}, {"uniqueid": "MTK0611:3Q5ZZ9ZEVPMLT0CG18IV65ME0PQ851", "current_trial": 169, "dateTime": 1511569710643, "trialdata": {"rt": -1, "stimulus": "<p id=\"stim\">SPIDER</p>", "key_press": -1, "type": "PRES_VIS", "word": "spider", "wordID": 1350, "conditions": [12, 800, "v", 12000], "trial": 4, "serialpos": 0, "trial_type": "single-stim", "trial_index": 169, "time_elapsed": 965621, "internal_node_id": "0.0-124.0"}}, {"uniqueid": "MTK0611:3Q5ZZ9ZEVPMLT0CG18IV65ME0PQ851", "current_trial": 170, "dateTime": 1511569712578, "trialdata": {"rt": -1, "stimulus": "<p id=\"stim\">MARS</p>", "key_press": -1, "type": "PRES_VIS", "word": "mars", "wordID": 872, "conditions": [12, 800, "v", 12000], "trial": 4, "serialpos": 1, "trial_type": "single-stim", "trial_index": 170, "time_elapsed": 967556, "internal_node_id": "0.0-125.0"}}, {"uniqueid": "MTK0611:3Q5ZZ9ZEVPMLT0CG18IV65ME0PQ851", "current_trial": 171, "dateTime": 1511569714536, "trialdata": {"rt": -1, "stimulus": "<p id=\"stim\">CHAUFFEUR</p>", "key_press": -1, "type": "PRES_VIS", "word": "chauffeur", "wordID": 282, "conditions": [12, 800, "v", 12000], "trial": 4, "serialpos": 2, "trial_type": "single-stim", "trial_index": 171, "time_elapsed": 969513, "internal_node_id": "0.0-126.0"}}, {"uniqueid": "MTK0611:3Q5ZZ9ZEVPMLT0CG18IV65ME0PQ851", "current_trial": 172, "dateTime": 1511569716501, "trialdata": {"rt": -1, "stimulus": "<p id=\"stim\">LILY</p>", "key_press": -1, "type": "PRES_VIS", "word": "lily", "wordID": 820, "conditions": [12, 800, "v", 12000], "trial": 4, "serialpos": 3, "trial_type": "single-stim", "trial_index": 172, "time_elapsed": 971479, "internal_node_id": "0.0-127.0"}}, {"uniqueid": "MTK0611:3Q5ZZ9ZEVPMLT0CG18IV65ME0PQ851", "current_trial": 173, "dateTime": 1511569718135, "trialdata": {"rt": -1, "stimulus": "<p id=\"stim\">CAMEL</p>", "key_press": -1, "type": "PRES_VIS", "word": "camel", "wordID": 222, "conditions": [12, 800, "v", 12000], "trial": 4, "serialpos": 4, "trial_type": "single-stim", "trial_index": 173, "time_elapsed": 973113, "internal_node_id": "0.0-128.0"}}, {"uniqueid": "MTK0611:3Q5ZZ9ZEVPMLT0CG18IV65ME0PQ851", "current_trial": 174, "dateTime": 1511569719743, "trialdata": {"rt": -1, "stimulus": "<p id=\"stim\">ROBIN</p>", "key_press": -1, "type": "PRES_VIS", "word": "robin", "wordID": 1198, "conditions": [12, 800, "v", 12000], "trial": 4, "serialpos": 5, "trial_type": "single-stim", "trial_index": 174, "time_elapsed": 974721, "internal_node_id": "0.0-129.0"}}, {"uniqueid": "MTK0611:3Q5ZZ9ZEVPMLT0CG18IV65ME0PQ851", "current_trial": 175, "dateTime": 1511569721492, "trialdata": {"rt": -1, "stimulus": "<p id=\"stim\">SNAKE</p>", "key_press": -1, "type": "PRES_VIS", "word": "snake", "wordID": 1332, "conditions": [12, 800, "v", 12000], "trial": 4, "serialpos": 6, "trial_type": "single-stim", "trial_index": 175, "time_elapsed": 976469, "internal_node_id": "0.0-130.0"}}, {"uniqueid": "MTK0611:3Q5ZZ9ZEVPMLT0CG18IV65ME0PQ851", "current_trial": 176, "dateTime": 1511569723262, "trialdata": {"rt": -1, "stimulus": "<p id=\"stim\">COBRA</p>", "key_press": -1, "type": "PRES_VIS", "word": "cobra", "wordID": 335, "conditions": [12, 800, "v", 12000], "trial": 4, "serialpos": 7, "trial_type": "single-stim", "trial_index": 176, "time_elapsed": 978239, "internal_node_id": "0.0-131.0"}}, {"uniqueid": "MTK0611:3Q5ZZ9ZEVPMLT0CG18IV65ME0PQ851", "current_trial": 177, "dateTime": 1511569725148, "trialdata": {"rt": -1, "stimulus": "<p id=\"stim\">DONKEY</p>", "key_press": -1, "type": "PRES_VIS", "word": "donkey", "wordID": 483, "conditions": [12, 800, "v", 12000], "trial": 4, "serialpos": 8, "trial_type": "single-stim", "trial_index": 177, "time_elapsed": 980126, "internal_node_id": "0.0-132.0"}}, {"uniqueid": "MTK0611:3Q5ZZ9ZEVPMLT0CG18IV65ME0PQ851", "current_trial": 178, "dateTime": 1511569726771, "trialdata": {"rt": -1, "stimulus": "<p id=\"stim\">BATHTUB</p>", "key_press": -1, "type": "PRES_VIS", "word": "bathtub", "wordID": 99, "conditions": [12, 800, "v", 12000], "trial": 4, "serialpos": 9, "trial_type": "single-stim", "trial_index": 178, "time_elapsed": 981749, "internal_node_id": "0.0-133.0"}}, {"uniqueid": "MTK0611:3Q5ZZ9ZEVPMLT0CG18IV65ME0PQ851", "current_trial": 179, "dateTime": 1511569728634, "trialdata": {"rt": -1, "stimulus": "<p id=\"stim\">DIVER</p>", "key_press": -1, "type": "PRES_VIS", "word": "diver", "wordID": 475, "conditions": [12, 800, "v", 12000], "trial": 4, "serialpos": 10, "trial_type": "single-stim", "trial_index": 179, "time_elapsed": 983612, "internal_node_id": "0.0-134.0"}}, {"uniqueid": "MTK0611:3Q5ZZ9ZEVPMLT0CG18IV65ME0PQ851", "current_trial": 180, "dateTime": 1511569730408, "trialdata": {"rt": -1, "stimulus": "<p id=\"stim\">BROTHER</p>", "key_press": -1, "type": "PRES_VIS", "word": "brother", "wordID": 178, "conditions": [12, 800, "v", 12000], "trial": 4, "serialpos": 11, "trial_type": "single-stim", "trial_index": 180, "time_elapsed": 985386, "internal_node_id": "0.0-135.0"}}, {"uniqueid": "MTK0611:3Q5ZZ9ZEVPMLT0CG18IV65ME0PQ851", "current_trial": 181, "dateTime": 1511569732611, "trialdata": {"rt": -1, "stimulus": "", "key_press": -1, "type": "PRE_RECALL_DELAY", "trial_type": "single-stim", "trial_index": 181, "time_elapsed": 987589, "internal_node_id": "0.0-136.0-0.0"}}, {"uniqueid": "MTK0611:3Q5ZZ9ZEVPMLT0CG18IV65ME0PQ851", "current_trial": 182, "dateTime": 1511569733112, "trialdata": {"rt": -1000, "stimulus": "/static/audio/400Hz.wav", "key_press": -1, "type": "PRE_RECALL_ALERT", "trial_type": "single-audio", "trial_index": 182, "time_elapsed": 988090, "internal_node_id": "0.0-137.0"}}, {"uniqueid": "MTK0611:3Q5ZZ9ZEVPMLT0CG18IV65ME0PQ851", "current_trial": 183, "dateTime": 1511569793119, "trialdata": {"rt": [2017, 2857, 3978, 4922, 5906, 7530, 11018, 26173], "recwords": ["spider", "mars", "camel", "snake", "cobra", "donkey", "lily", "cobra"], "type": "FREE_RECALL", "conditions": [12, 800, "v", 12000], "trial": 4, "trial_type": "free-recall", "trial_index": 183, "time_elapsed": 1048092, "internal_node_id": "0.0-138.0-0.0"}}, {"uniqueid": "MTK0611:3Q5ZZ9ZEVPMLT0CG18IV65ME0PQ851", "current_trial": 184, "dateTime": 1511569796124, "trialdata": {"rt": 1003, "key_press": 32, "type": "INSTRUCTIONS", "trial_type": "text", "trial_index": 184, "time_elapsed": 1051102, "internal_node_id": "0.0-139.0"}}, {"uniqueid": "MTK0611:3Q5ZZ9ZEVPMLT0CG18IV65ME0PQ851", "current_trial": 185, "dateTime": 1511569810126, "trialdata": {"rt": [4134, 6677, 9517, 11461], "responses": ["25", "20", "16", "21"], "num1": [9, 7, 9, 9, 8], "num2": [7, 7, 4, 3, 3], "num3": [9, 6, 3, 9, 5], "type": "DISTRACTOR", "conditions": [12, 1600, "v", 12000], "trial": 5, "trial_type": "math-distractor", "trial_index": 185, "time_elapsed": 1065104, "internal_node_id": "0.0-140.0"}}, {"uniqueid": "MTK0611:3Q5ZZ9ZEVPMLT0CG18IV65ME0PQ851", "current_trial": 186, "dateTime": 1511569813127, "trialdata": {"rt": -1, "stimulus": "<p id=\"stim\">10</p>", "key_press": -1, "trial_type": "single-stim", "trial_index": 186, "time_elapsed": 1068105, "internal_node_id": "0.0-141.0-0.0"}}, {"uniqueid": "MTK0611:3Q5ZZ9ZEVPMLT0CG18IV65ME0PQ851", "current_trial": 187, "dateTime": 1511569814128, "trialdata": {"rt": -1, "stimulus": "<p id=\"stim\">9</p>", "key_press": -1, "trial_type": "single-stim", "trial_index": 187, "time_elapsed": 1069106, "internal_node_id": "0.0-141.0-1.0"}}, {"uniqueid": "MTK0611:3Q5ZZ9ZEVPMLT0CG18IV65ME0PQ851", "current_trial": 188, "dateTime": 1511569815129, "trialdata": {"rt": -1, "stimulus": "<p id=\"stim\">8</p>", "key_press": -1, "trial_type": "single-stim", "trial_index": 188, "time_elapsed": 1070107, "internal_node_id": "0.0-141.0-2.0"}}, {"uniqueid": "MTK0611:3Q5ZZ9ZEVPMLT0CG18IV65ME0PQ851", "current_trial": 189, "dateTime": 1511569816130, "trialdata": {"rt": -1, "stimulus": "<p id=\"stim\">7</p>", "key_press": -1, "trial_type": "single-stim", "trial_index": 189, "time_elapsed": 1071107, "internal_node_id": "0.0-141.0-3.0"}}, {"uniqueid": "MTK0611:3Q5ZZ9ZEVPMLT0CG18IV65ME0PQ851", "current_trial": 190, "dateTime": 1511569817131, "trialdata": {"rt": -1, "stimulus": "<p id=\"stim\">6</p>", "key_press": -1, "trial_type": "single-stim", "trial_index": 190, "time_elapsed": 1072108, "internal_node_id": "0.0-141.0-4.0"}}, {"uniqueid": "MTK0611:3Q5ZZ9ZEVPMLT0CG18IV65ME0PQ851", "current_trial": 191, "dateTime": 1511569818132, "trialdata": {"rt": -1, "stimulus": "<p id=\"stim\">5</p>", "key_press": -1, "trial_type": "single-stim", "trial_index": 191, "time_elapsed": 1073110, "internal_node_id": "0.0-141.0-5.0"}}, {"uniqueid": "MTK0611:3Q5ZZ9ZEVPMLT0CG18IV65ME0PQ851", "current_trial": 192, "dateTime": 1511569819132, "trialdata": {"rt": -1, "stimulus": "<p id=\"stim\">4</p>", "key_press": -1, "trial_type": "single-stim", "trial_index": 192, "time_elapsed": 1074110, "internal_node_id": "0.0-141.0-6.0"}}, {"uniqueid": "MTK0611:3Q5ZZ9ZEVPMLT0CG18IV65ME0PQ851", "current_trial": 193, "dateTime": 1511569820135, "trialdata": {"rt": -1, "stimulus": "<p id=\"stim\">3</p>", "key_press": -1, "trial_type": "single-stim", "trial_index": 193, "time_elapsed": 1075113, "internal_node_id": "0.0-141.0-7.0"}}, {"uniqueid": "MTK0611:3Q5ZZ9ZEVPMLT0CG18IV65ME0PQ851", "current_trial": 194, "dateTime": 1511569821137, "trialdata": {"rt": -1, "stimulus": "<p id=\"stim\">2</p>", "key_press": -1, "trial_type": "single-stim", "trial_index": 194, "time_elapsed": 1076115, "internal_node_id": "0.0-141.0-8.0"}}, {"uniqueid": "MTK0611:3Q5ZZ9ZEVPMLT0CG18IV65ME0PQ851", "current_trial": 195, "dateTime": 1511569822138, "trialdata": {"rt": -1, "stimulus": "<p id=\"stim\">1</p>", "key_press": -1, "trial_type": "single-stim", "trial_index": 195, "time_elapsed": 1077116, "internal_node_id": "0.0-141.0-9.0"}}, {"uniqueid": "MTK0611:3Q5ZZ9ZEVPMLT0CG18IV65ME0PQ851", "current_trial": 196, "dateTime": 1511569823638, "trialdata": {"rt": -1, "stimulus": "<p id=\"stim\">+</p>", "key_press": -1, "type": "FIXATION", "trial_type": "single-stim", "trial_index": 196, "time_elapsed": 1078616, "internal_node_id": "0.0-142.0-0.0"}}, {"uniqueid": "MTK0611:3Q5ZZ9ZEVPMLT0CG18IV65ME0PQ851", "current_trial": 197, "dateTime": 1511569825240, "trialdata": {"rt": -1, "stimulus": "<p id=\"stim\">PLAID</p>", "key_press": -1, "type": "PRES_VIS", "word": "plaid", "wordID": 1079, "conditions": [12, 1600, "v", 12000], "trial": 5, "serialpos": 0, "trial_type": "single-stim", "trial_index": 197, "time_elapsed": 1080218, "internal_node_id": "0.0-143.0"}}, {"uniqueid": "MTK0611:3Q5ZZ9ZEVPMLT0CG18IV65ME0PQ851", "current_trial": 198, "dateTime": 1511569828034, "trialdata": {"rt": -1, "stimulus": "<p id=\"stim\">MUSTARD</p>", "key_press": -1, "type": "PRES_VIS", "word": "mustard", "wordID": 934, "conditions": [12, 1600, "v", 12000], "trial": 5, "serialpos": 1, "trial_type": "single-stim", "trial_index": 198, "time_elapsed": 1083012, "internal_node_id": "0.0-144.0"}}, {"uniqueid": "MTK0611:3Q5ZZ9ZEVPMLT0CG18IV65ME0PQ851", "current_trial": 199, "dateTime": 1511569830825, "trialdata": {"rt": -1, "stimulus": "<p id=\"stim\">DRESSER</p>", "key_press": -1, "type": "PRES_VIS", "word": "dresser", "wordID": 495, "conditions": [12, 1600, "v", 12000], "trial": 5, "serialpos": 2, "trial_type": "single-stim", "trial_index": 199, "time_elapsed": 1085803, "internal_node_id": "0.0-145.0"}}, {"uniqueid": "MTK0611:3Q5ZZ9ZEVPMLT0CG18IV65ME0PQ851", "current_trial": 200, "dateTime": 1511569833361, "trialdata": {"rt": -1, "stimulus": "<p id=\"stim\">CUPBOARD</p>", "key_press": -1, "type": "PRES_VIS", "word": "cupboard", "wordID": 424, "conditions": [12, 1600, "v", 12000], "trial": 5, "serialpos": 3, "trial_type": "single-stim", "trial_index": 200, "time_elapsed": 1088339, "internal_node_id": "0.0-146.0"}}, {"uniqueid": "MTK0611:3Q5ZZ9ZEVPMLT0CG18IV65ME0PQ851", "current_trial": 201, "dateTime": 1511569835998, "trialdata": {"rt": -1, "stimulus": "<p id=\"stim\">CATCHER</p>", "key_press": -1, "type": "PRES_VIS", "word": "catcher", "wordID": 257, "conditions": [12, 1600, "v", 12000], "trial": 5, "serialpos": 4, "trial_type": "single-stim", "trial_index": 201, "time_elapsed": 1090976, "internal_node_id": "0.0-147.0"}}, {"uniqueid": "MTK0611:3Q5ZZ9ZEVPMLT0CG18IV65ME0PQ851", "current_trial": 202, "dateTime": 1511569838594, "trialdata": {"rt": -1, "stimulus": "<p id=\"stim\">SLIDE</p>", "key_press": -1, "type": "PRES_VIS", "word": "slide", "wordID": 1325, "conditions": [12, 1600, "v", 12000], "trial": 5, "serialpos": 5, "trial_type": "single-stim", "trial_index": 202, "time_elapsed": 1093571, "internal_node_id": "0.0-148.0"}}, {"uniqueid": "MTK0611:3Q5ZZ9ZEVPMLT0CG18IV65ME0PQ851", "current_trial": 203, "dateTime": 1511569841337, "trialdata": {"rt": -1, "stimulus": "<p id=\"stim\">SWITCH</p>", "key_press": -1, "type": "PRES_VIS", "word": "switch", "wordID": 1421, "conditions": [12, 1600, "v", 12000], "trial": 5, "serialpos": 6, "trial_type": "single-stim", "trial_index": 203, "time_elapsed": 1096315, "internal_node_id": "0.0-149.0"}}, {"uniqueid": "MTK0611:3Q5ZZ9ZEVPMLT0CG18IV65ME0PQ851", "current_trial": 204, "dateTime": 1511569843931, "trialdata": {"rt": -1, "stimulus": "<p id=\"stim\">DENIM</p>", "key_press": -1, "type": "PRES_VIS", "word": "denim", "wordID": 445, "conditions": [12, 1600, "v", 12000], "trial": 5, "serialpos": 7, "trial_type": "single-stim", "trial_index": 204, "time_elapsed": 1098909, "internal_node_id": "0.0-150.0"}}, {"uniqueid": "MTK0611:3Q5ZZ9ZEVPMLT0CG18IV65ME0PQ851", "current_trial": 205, "dateTime": 1511569846446, "trialdata": {"rt": -1, "stimulus": "<p id=\"stim\">CASHEW</p>", "key_press": -1, "type": "PRES_VIS", "word": "cashew", "wordID": 252, "conditions": [12, 1600, "v", 12000], "trial": 5, "serialpos": 8, "trial_type": "single-stim", "trial_index": 205, "time_elapsed": 1101423, "internal_node_id": "0.0-151.0"}}, {"uniqueid": "MTK0611:3Q5ZZ9ZEVPMLT0CG18IV65ME0PQ851", "current_trial": 206, "dateTime": 1511569848905, "trialdata": {"rt": -1, "stimulus": "<p id=\"stim\">PLAYGROUND</p>", "key_press": -1, "type": "PRES_VIS", "word": "playground", "wordID": 1086, "conditions": [12, 1600, "v", 12000], "trial": 5, "serialpos": 9, "trial_type": "single-stim", "trial_index": 206, "time_elapsed": 1103883, "internal_node_id": "0.0-152.0"}}, {"uniqueid": "MTK0611:3Q5ZZ9ZEVPMLT0CG18IV65ME0PQ851", "current_trial": 207, "dateTime": 1511569851667, "trialdata": {"rt": -1, "stimulus": "<p id=\"stim\">BARREL</p>", "key_press": -1, "type": "PRES_VIS", "word": "barrel", "wordID": 90, "conditions": [12, 1600, "v", 12000], "trial": 5, "serialpos": 10, "trial_type": "single-stim", "trial_index": 207, "time_elapsed": 1106644, "internal_node_id": "0.0-153.0"}}, {"uniqueid": "MTK0611:3Q5ZZ9ZEVPMLT0CG18IV65ME0PQ851", "current_trial": 208, "dateTime": 1511569854136, "trialdata": {"rt": -1, "stimulus": "<p id=\"stim\">COOKBOOK</p>", "key_press": -1, "type": "PRES_VIS", "word": "cookbook", "wordID": 372, "conditions": [12, 1600, "v", 12000], "trial": 5, "serialpos": 11, "trial_type": "single-stim", "trial_index": 208, "time_elapsed": 1109113, "internal_node_id": "0.0-154.0"}}, {"uniqueid": "MTK0611:3Q5ZZ9ZEVPMLT0CG18IV65ME0PQ851", "current_trial": 209, "dateTime": 1511569856654, "trialdata": {"rt": -1, "stimulus": "", "key_press": -1, "type": "PRE_RECALL_DELAY", "trial_type": "single-stim", "trial_index": 209, "time_elapsed": 1111632, "internal_node_id": "0.0-155.0-0.0"}}, {"uniqueid": "MTK0611:3Q5ZZ9ZEVPMLT0CG18IV65ME0PQ851", "current_trial": 210, "dateTime": 1511569857156, "trialdata": {"rt": -1000, "stimulus": "/static/audio/400Hz.wav", "key_press": -1, "type": "PRE_RECALL_ALERT", "trial_type": "single-audio", "trial_index": 210, "time_elapsed": 1112134, "internal_node_id": "0.0-156.0"}}, {"uniqueid": "MTK0611:3Q5ZZ9ZEVPMLT0CG18IV65ME0PQ851", "current_trial": 211, "dateTime": 1511569917169, "trialdata": {"rt": [2317, 3261, 4342, 5869, 7349, 8318, 9998, 24334], "recwords": ["cookbook", "plaid", "denim", "mustard", "switch", "slide", "playground", "cupboard"], "type": "FREE_RECALL", "conditions": [12, 1600, "v", 12000], "trial": 5, "trial_type": "free-recall", "trial_index": 211, "time_elapsed": 1172138, "internal_node_id": "0.0-157.0-0.0"}}, {"uniqueid": "MTK0611:3Q5ZZ9ZEVPMLT0CG18IV65ME0PQ851", "current_trial": 212, "dateTime": 1511569920828, "trialdata": {"rt": 1657, "key_press": 32, "type": "INSTRUCTIONS", "trial_type": "text", "trial_index": 212, "time_elapsed": 1175806, "internal_node_id": "0.0-158.0"}}, {"uniqueid": "MTK0611:3Q5ZZ9ZEVPMLT0CG18IV65ME0PQ851", "current_trial": 213, "dateTime": 1511569934830, "trialdata": {"rt": [2597, 5213, 7285, 9070, 10254, 11965], "responses": ["12", "16", "17", "16", "16", "17"], "num1": [1, 8, 7, 5, 7, 5, 7], "num2": [7, 1, 9, 7, 3, 4, 1], "num3": [4, 7, 1, 4, 6, 8, 1], "type": "DISTRACTOR", "conditions": [24, 800, "v", 12000], "trial": 6, "trial_type": "math-distractor", "trial_index": 213, "time_elapsed": 1189807, "internal_node_id": "0.0-159.0"}}, {"uniqueid": "MTK0611:3Q5ZZ9ZEVPMLT0CG18IV65ME0PQ851", "current_trial": 214, "dateTime": 1511569937831, "trialdata": {"rt": -1, "stimulus": "<p id=\"stim\">10</p>", "key_press": -1, "trial_type": "single-stim", "trial_index": 214, "time_elapsed": 1192808, "internal_node_id": "0.0-160.0-0.0"}}, {"uniqueid": "MTK0611:3Q5ZZ9ZEVPMLT0CG18IV65ME0PQ851", "current_trial": 215, "dateTime": 1511569938832, "trialdata": {"rt": -1, "stimulus": "<p id=\"stim\">9</p>", "key_press": -1, "trial_type": "single-stim", "trial_index": 215, "time_elapsed": 1193809, "internal_node_id": "0.0-160.0-1.0"}}, {"uniqueid": "MTK0611:3Q5ZZ9ZEVPMLT0CG18IV65ME0PQ851", "current_trial": 216, "dateTime": 1511569939833, "trialdata": {"rt": -1, "stimulus": "<p id=\"stim\">8</p>", "key_press": -1, "trial_type": "single-stim", "trial_index": 216, "time_elapsed": 1194810, "internal_node_id": "0.0-160.0-2.0"}}, {"uniqueid": "MTK0611:3Q5ZZ9ZEVPMLT0CG18IV65ME0PQ851", "current_trial": 217, "dateTime": 1511569940834, "trialdata": {"rt": -1, "stimulus": "<p id=\"stim\">7</p>", "key_press": -1, "trial_type": "single-stim", "trial_index": 217, "time_elapsed": 1195812, "internal_node_id": "0.0-160.0-3.0"}}, {"uniqueid": "MTK0611:3Q5ZZ9ZEVPMLT0CG18IV65ME0PQ851", "current_trial": 218, "dateTime": 1511569941834, "trialdata": {"rt": -1, "stimulus": "<p id=\"stim\">6</p>", "key_press": -1, "trial_type": "single-stim", "trial_index": 218, "time_elapsed": 1196812, "internal_node_id": "0.0-160.0-4.0"}}, {"uniqueid": "MTK0611:3Q5ZZ9ZEVPMLT0CG18IV65ME0PQ851", "current_trial": 219, "dateTime": 1511569942836, "trialdata": {"rt": -1, "stimulus": "<p id=\"stim\">5</p>", "key_press": -1, "trial_type": "single-stim", "trial_index": 219, "time_elapsed": 1197814, "internal_node_id": "0.0-160.0-5.0"}}, {"uniqueid": "MTK0611:3Q5ZZ9ZEVPMLT0CG18IV65ME0PQ851", "current_trial": 220, "dateTime": 1511569943838, "trialdata": {"rt": -1, "stimulus": "<p id=\"stim\">4</p>", "key_press": -1, "trial_type": "single-stim", "trial_index": 220, "time_elapsed": 1198816, "internal_node_id": "0.0-160.0-6.0"}}, {"uniqueid": "MTK0611:3Q5ZZ9ZEVPMLT0CG18IV65ME0PQ851", "current_trial": 221, "dateTime": 1511569944841, "trialdata": {"rt": -1, "stimulus": "<p id=\"stim\">3</p>", "key_press": -1, "trial_type": "single-stim", "trial_index": 221, "time_elapsed": 1199818, "internal_node_id": "0.0-160.0-7.0"}}, {"uniqueid": "MTK0611:3Q5ZZ9ZEVPMLT0CG18IV65ME0PQ851", "current_trial": 222, "dateTime": 1511569945842, "trialdata": {"rt": -1, "stimulus": "<p id=\"stim\">2</p>", "key_press": -1, "trial_type": "single-stim", "trial_index": 222, "time_elapsed": 1200820, "internal_node_id": "0.0-160.0-8.0"}}, {"uniqueid": "MTK0611:3Q5ZZ9ZEVPMLT0CG18IV65ME0PQ851", "current_trial": 223, "dateTime": 1511569946844, "trialdata": {"rt": -1, "stimulus": "<p id=\"stim\">1</p>", "key_press": -1, "trial_type": "single-stim", "trial_index": 223, "time_elapsed": 1201822, "internal_node_id": "0.0-160.0-9.0"}}, {"uniqueid": "MTK0611:3Q5ZZ9ZEVPMLT0CG18IV65ME0PQ851", "current_trial": 224, "dateTime": 1511569948345, "trialdata": {"rt": -1, "stimulus": "<p id=\"stim\">+</p>", "key_press": -1, "type": "FIXATION", "trial_type": "single-stim", "trial_index": 224, "time_elapsed": 1203323, "internal_node_id": "0.0-161.0-0.0"}}, {"uniqueid": "MTK0611:3Q5ZZ9ZEVPMLT0CG18IV65ME0PQ851", "current_trial": 225, "dateTime": 1511569949146, "trialdata": {"rt": -1, "stimulus": "<p id=\"stim\">ASIA</p>", "key_press": -1, "type": "PRES_VIS", "word": "asia", "wordID": 45, "conditions": [24, 800, "v", 12000], "trial": 6, "serialpos": 0, "trial_type": "single-stim", "trial_index": 225, "time_elapsed": 1204124, "internal_node_id": "0.0-162.0"}}, {"uniqueid": "MTK0611:3Q5ZZ9ZEVPMLT0CG18IV65ME0PQ851", "current_trial": 226, "dateTime": 1511569950866, "trialdata": {"rt": -1, "stimulus": "<p id=\"stim\">VIKING</p>", "key_press": -1, "type": "PRES_VIS", "word": "viking", "wordID": 1564, "conditions": [24, 800, "v", 12000], "trial": 6, "serialpos": 1, "trial_type": "single-stim", "trial_index": 226, "time_elapsed": 1205844, "internal_node_id": "0.0-163.0"}}, {"uniqueid": "MTK0611:3Q5ZZ9ZEVPMLT0CG18IV65ME0PQ851", "current_trial": 227, "dateTime": 1511569952501, "trialdata": {"rt": -1, "stimulus": "<p id=\"stim\">SPHINX</p>", "key_press": -1, "type": "PRES_VIS", "word": "sphinx", "wordID": 1348, "conditions": [24, 800, "v", 12000], "trial": 6, "serialpos": 2, "trial_type": "single-stim", "trial_index": 227, "time_elapsed": 1207479, "internal_node_id": "0.0-164.0"}}, {"uniqueid": "MTK0611:3Q5ZZ9ZEVPMLT0CG18IV65ME0PQ851", "current_trial": 228, "dateTime": 1511569954174, "trialdata": {"rt": -1, "stimulus": "<p id=\"stim\">PASTRY</p>", "key_press": -1, "type": "PRES_VIS", "word": "pastry", "wordID": 1021, "conditions": [24, 800, "v", 12000], "trial": 6, "serialpos": 3, "trial_type": "single-stim", "trial_index": 228, "time_elapsed": 1209152, "internal_node_id": "0.0-165.0"}}, {"uniqueid": "MTK0611:3Q5ZZ9ZEVPMLT0CG18IV65ME0PQ851", "current_trial": 229, "dateTime": 1511569955957, "trialdata": {"rt": -1, "stimulus": "<p id=\"stim\">VICTIM</p>", "key_press": -1, "type": "PRES_VIS", "word": "victim", "wordID": 1561, "conditions": [24, 800, "v", 12000], "trial": 6, "serialpos": 4, "trial_type": "single-stim", "trial_index": 229, "time_elapsed": 1210935, "internal_node_id": "0.0-166.0"}}, {"uniqueid": "MTK0611:3Q5ZZ9ZEVPMLT0CG18IV65ME0PQ851", "current_trial": 230, "dateTime": 1511569957665, "trialdata": {"rt": -1, "stimulus": "<p id=\"stim\">PANTHER</p>", "key_press": -1, "type": "PRES_VIS", "word": "panther", "wordID": 1008, "conditions": [24, 800, "v", 12000], "trial": 6, "serialpos": 5, "trial_type": "single-stim", "trial_index": 230, "time_elapsed": 1212643, "internal_node_id": "0.0-167.0"}}, {"uniqueid": "MTK0611:3Q5ZZ9ZEVPMLT0CG18IV65ME0PQ851", "current_trial": 231, "dateTime": 1511569959307, "trialdata": {"rt": -1, "stimulus": "<p id=\"stim\">MUMMY</p>", "key_press": -1, "type": "PRES_VIS", "word": "mummy", "wordID": 931, "conditions": [24, 800, "v", 12000], "trial": 6, "serialpos": 6, "trial_type": "single-stim", "trial_index": 231, "time_elapsed": 1214285, "internal_node_id": "0.0-168.0"}}, {"uniqueid": "MTK0611:3Q5ZZ9ZEVPMLT0CG18IV65ME0PQ851", "current_trial": 232, "dateTime": 1511569961065, "trialdata": {"rt": -1, "stimulus": "<p id=\"stim\">LOFT</p>", "key_press": -1, "type": "PRES_VIS", "word": "loft", "wordID": 839, "conditions": [24, 800, "v", 12000], "trial": 6, "serialpos": 7, "trial_type": "single-stim", "trial_index": 232, "time_elapsed": 1216043, "internal_node_id": "0.0-169.0"}}, {"uniqueid": "MTK0611:3Q5ZZ9ZEVPMLT0CG18IV65ME0PQ851", "current_trial": 233, "dateTime": 1511569962778, "trialdata": {"rt": -1, "stimulus": "<p id=\"stim\">COCOON</p>", "key_press": -1, "type": "PRES_VIS", "word": "cocoon", "wordID": 338, "conditions": [24, 800, "v", 12000], "trial": 6, "serialpos": 8, "trial_type": "single-stim", "trial_index": 233, "time_elapsed": 1217756, "internal_node_id": "0.0-170.0"}}, {"uniqueid": "MTK0611:3Q5ZZ9ZEVPMLT0CG18IV65ME0PQ851", "current_trial": 234, "dateTime": 1511569964671, "trialdata": {"rt": -1, "stimulus": "<p id=\"stim\">SANDWICH</p>", "key_press": -1, "type": "PRES_VIS", "word": "sandwich", "wordID": 1231, "conditions": [24, 800, "v", 12000], "trial": 6, "serialpos": 9, "trial_type": "single-stim", "trial_index": 234, "time_elapsed": 1219649, "internal_node_id": "0.0-171.0"}}, {"uniqueid": "MTK0611:3Q5ZZ9ZEVPMLT0CG18IV65ME0PQ851", "current_trial": 235, "dateTime": 1511569966536, "trialdata": {"rt": -1, "stimulus": "<p id=\"stim\">DINER</p>", "key_press": -1, "type": "PRES_VIS", "word": "diner", "wordID": 466, "conditions": [24, 800, "v", 12000], "trial": 6, "serialpos": 10, "trial_type": "single-stim", "trial_index": 235, "time_elapsed": 1221514, "internal_node_id": "0.0-172.0"}}, {"uniqueid": "MTK0611:3Q5ZZ9ZEVPMLT0CG18IV65ME0PQ851", "current_trial": 236, "dateTime": 1511569968414, "trialdata": {"rt": -1, "stimulus": "<p id=\"stim\">SUSPECT</p>", "key_press": -1, "type": "PRES_VIS", "word": "suspect", "wordID": 1414, "conditions": [24, 800, "v", 12000], "trial": 6, "serialpos": 11, "trial_type": "single-stim", "trial_index": 236, "time_elapsed": 1223392, "internal_node_id": "0.0-173.0"}}, {"uniqueid": "MTK0611:3Q5ZZ9ZEVPMLT0CG18IV65ME0PQ851", "current_trial": 237, "dateTime": 1511569970321, "trialdata": {"rt": -1, "stimulus": "<p id=\"stim\">PRIMATE</p>", "key_press": -1, "type": "PRES_VIS", "word": "primate", "wordID": 1122, "conditions": [24, 800, "v", 12000], "trial": 6, "serialpos": 12, "trial_type": "single-stim", "trial_index": 237, "time_elapsed": 1225299, "internal_node_id": "0.0-174.0"}}, {"uniqueid": "MTK0611:3Q5ZZ9ZEVPMLT0CG18IV65ME0PQ851", "current_trial": 238, "dateTime": 1511569972311, "trialdata": {"rt": -1, "stimulus": "<p id=\"stim\">HEADBAND</p>", "key_press": -1, "type": "PRES_VIS", "word": "headband", "wordID": 695, "conditions": [24, 800, "v", 12000], "trial": 6, "serialpos": 13, "trial_type": "single-stim", "trial_index": 238, "time_elapsed": 1227287, "internal_node_id": "0.0-175.0"}}, {"uniqueid": "MTK0611:3Q5ZZ9ZEVPMLT0CG18IV65ME0PQ851", "current_trial": 239, "dateTime": 1511569974175, "trialdata": {"rt": -1, "stimulus": "<p id=\"stim\">BEAKER</p>", "key_press": -1, "type": "PRES_VIS", "word": "beaker", "wordID": 103, "conditions": [24, 800, "v", 12000], "trial": 6, "serialpos": 14, "trial_type": "single-stim", "trial_index": 239, "time_elapsed": 1229152, "internal_node_id": "0.0-176.0"}}, {"uniqueid": "MTK0611:3Q5ZZ9ZEVPMLT0CG18IV65ME0PQ851", "current_trial": 240, "dateTime": 1511569975790, "trialdata": {"rt": -1, "stimulus": "<p id=\"stim\">GRAVEL</p>", "key_press": -1, "type": "PRES_VIS", "word": "gravel", "wordID": 658, "conditions": [24, 800, "v", 12000], "trial": 6, "serialpos": 15, "trial_type": "single-stim", "trial_index": 240, "time_elapsed": 1230768, "internal_node_id": "0.0-177.0"}}, {"uniqueid": "MTK0611:3Q5ZZ9ZEVPMLT0CG18IV65ME0PQ851", "current_trial": 241, "dateTime": 1511569977718, "trialdata": {"rt": -1, "stimulus": "<p id=\"stim\">ROBBER</p>", "key_press": -1, "type": "PRES_VIS", "word": "robber", "wordID": 1196, "conditions": [24, 800, "v", 12000], "trial": 6, "serialpos": 16, "trial_type": "single-stim", "trial_index": 241, "time_elapsed": 1232696, "internal_node_id": "0.0-178.0"}}, {"uniqueid": "MTK0611:3Q5ZZ9ZEVPMLT0CG18IV65ME0PQ851", "current_trial": 242, "dateTime": 1511569979612, "trialdata": {"rt": -1, "stimulus": "<p id=\"stim\">BRACES</p>", "key_press": -1, "type": "PRES_VIS", "word": "braces", "wordID": 163, "conditions": [24, 800, "v", 12000], "trial": 6, "serialpos": 17, "trial_type": "single-stim", "trial_index": 242, "time_elapsed": 1234590, "internal_node_id": "0.0-179.0"}}, {"uniqueid": "MTK0611:3Q5ZZ9ZEVPMLT0CG18IV65ME0PQ851", "current_trial": 243, "dateTime": 1511569981256, "trialdata": {"rt": -1, "stimulus": "<p id=\"stim\">COSTUME</p>", "key_press": -1, "type": "PRES_VIS", "word": "costume", "wordID": 382, "conditions": [24, 800, "v", 12000], "trial": 6, "serialpos": 18, "trial_type": "single-stim", "trial_index": 243, "time_elapsed": 1236234, "internal_node_id": "0.0-180.0"}}, {"uniqueid": "MTK0611:3Q5ZZ9ZEVPMLT0CG18IV65ME0PQ851", "current_trial": 244, "dateTime": 1511569982949, "trialdata": {"rt": -1, "stimulus": "<p id=\"stim\">BRICK</p>", "key_press": -1, "type": "PRES_VIS", "word": "brick", "wordID": 171, "conditions": [24, 800, "v", 12000], "trial": 6, "serialpos": 19, "trial_type": "single-stim", "trial_index": 244, "time_elapsed": 1237927, "internal_node_id": "0.0-181.0"}}, {"uniqueid": "MTK0611:3Q5ZZ9ZEVPMLT0CG18IV65ME0PQ851", "current_trial": 245, "dateTime": 1511569984798, "trialdata": {"rt": -1, "stimulus": "<p id=\"stim\">GHETTO</p>", "key_press": -1, "type": "PRES_VIS", "word": "ghetto", "wordID": 632, "conditions": [24, 800, "v", 12000], "trial": 6, "serialpos": 20, "trial_type": "single-stim", "trial_index": 245, "time_elapsed": 1239776, "internal_node_id": "0.0-182.0"}}, {"uniqueid": "MTK0611:3Q5ZZ9ZEVPMLT0CG18IV65ME0PQ851", "current_trial": 246, "dateTime": 1511569986565, "trialdata": {"rt": -1, "stimulus": "<p id=\"stim\">TRACTOR</p>", "key_press": -1, "type": "PRES_VIS", "word": "tractor", "wordID": 1492, "conditions": [24, 800, "v", 12000], "trial": 6, "serialpos": 21, "trial_type": "single-stim", "trial_index": 246, "time_elapsed": 1241543, "internal_node_id": "0.0-183.0"}}, {"uniqueid": "MTK0611:3Q5ZZ9ZEVPMLT0CG18IV65ME0PQ851", "current_trial": 247, "dateTime": 1511569988557, "trialdata": {"rt": -1, "stimulus": "<p id=\"stim\">TRUCK</p>", "key_press": -1, "type": "PRES_VIS", "word": "truck", "wordID": 1511, "conditions": [24, 800, "v", 12000], "trial": 6, "serialpos": 22, "trial_type": "single-stim", "trial_index": 247, "time_elapsed": 1243535, "internal_node_id": "0.0-184.0"}}, {"uniqueid": "MTK0611:3Q5ZZ9ZEVPMLT0CG18IV65ME0PQ851", "current_trial": 248, "dateTime": 1511569990308, "trialdata": {"rt": -1, "stimulus": "<p id=\"stim\">MAMMAL</p>", "key_press": -1, "type": "PRES_VIS", "word": "mammal", "wordID": 860, "conditions": [24, 800, "v", 12000], "trial": 6, "serialpos": 23, "trial_type": "single-stim", "trial_index": 248, "time_elapsed": 1245285, "internal_node_id": "0.0-185.0"}}, {"uniqueid": "MTK0611:3Q5ZZ9ZEVPMLT0CG18IV65ME0PQ851", "current_trial": 249, "dateTime": 1511569992438, "trialdata": {"rt": -1, "stimulus": "", "key_press": -1, "type": "PRE_RECALL_DELAY", "trial_type": "single-stim", "trial_index": 249, "time_elapsed": 1247416, "internal_node_id": "0.0-186.0-0.0"}}, {"uniqueid": "MTK0611:3Q5ZZ9ZEVPMLT0CG18IV65ME0PQ851", "current_trial": 250, "dateTime": 1511569992939, "trialdata": {"rt": -1000, "stimulus": "/static/audio/400Hz.wav", "key_press": -1, "type": "PRE_RECALL_ALERT", "trial_type": "single-audio", "trial_index": 250, "time_elapsed": 1247917, "internal_node_id": "0.0-187.0"}}, {"uniqueid": "MTK0611:3Q5ZZ9ZEVPMLT0CG18IV65ME0PQ851", "current_trial": 251, "dateTime": 1511570052953, "trialdata": {"rt": [2093, 3205, 13781], "recwords": ["mammal", "truck", "ostrich"], "type": "FREE_RECALL", "conditions": [24, 800, "v", 12000], "trial": 6, "trial_type": "free-recall", "trial_index": 251, "time_elapsed": 1307921, "internal_node_id": "0.0-188.0-0.0"}}, {"uniqueid": "MTK0611:3Q5ZZ9ZEVPMLT0CG18IV65ME0PQ851", "current_trial": 252, "dateTime": 1511570056339, "trialdata": {"rt": 1385, "key_press": 32, "type": "INSTRUCTIONS", "trial_type": "text", "trial_index": 252, "time_elapsed": 1311317, "internal_node_id": "0.0-189.0"}}, {"uniqueid": "MTK0611:3Q5ZZ9ZEVPMLT0CG18IV65ME0PQ851", "current_trial": 253, "dateTime": 1511570082343, "trialdata": {"rt": [4495, 8055, 10254, 13558, 15079, 18175, 19822, 21510], "responses": ["18", "15", "9", "12", "10", "17", "16", "8"], "num1": [6, 4, 2, 9, 3, 6, 3, 5, 3], "num2": [5, 9, 3, 2, 3, 3, 6, 1, 9], "num3": [7, 2, 4, 1, 4, 8, 7, 2, 2], "type": "DISTRACTOR", "conditions": [12, 1600, "v", 24000], "trial": 7, "trial_type": "math-distractor", "trial_index": 253, "time_elapsed": 1337321, "internal_node_id": "0.0-190.0"}}, {"uniqueid": "MTK0611:3Q5ZZ9ZEVPMLT0CG18IV65ME0PQ851", "current_trial": 254, "dateTime": 1511570085345, "trialdata": {"rt": -1, "stimulus": "<p id=\"stim\">10</p>", "key_press": -1, "trial_type": "single-stim", "trial_index": 254, "time_elapsed": 1340322, "internal_node_id": "0.0-191.0-0.0"}}, {"uniqueid": "MTK0611:3Q5ZZ9ZEVPMLT0CG18IV65ME0PQ851", "current_trial": 255, "dateTime": 1511570086346, "trialdata": {"rt": -1, "stimulus": "<p id=\"stim\">9</p>", "key_press": -1, "trial_type": "single-stim", "trial_index": 255, "time_elapsed": 1341324, "internal_node_id": "0.0-191.0-1.0"}}, {"uniqueid": "MTK0611:3Q5ZZ9ZEVPMLT0CG18IV65ME0PQ851", "current_trial": 256, "dateTime": 1511570087347, "trialdata": {"rt": -1, "stimulus": "<p id=\"stim\">8</p>", "key_press": -1, "trial_type": "single-stim", "trial_index": 256, "time_elapsed": 1342324, "internal_node_id": "0.0-191.0-2.0"}}, {"uniqueid": "MTK0611:3Q5ZZ9ZEVPMLT0CG18IV65ME0PQ851", "current_trial": 257, "dateTime": 1511570088349, "trialdata": {"rt": -1, "stimulus": "<p id=\"stim\">7</p>", "key_press": -1, "trial_type": "single-stim", "trial_index": 257, "time_elapsed": 1343326, "internal_node_id": "0.0-191.0-3.0"}}, {"uniqueid": "MTK0611:3Q5ZZ9ZEVPMLT0CG18IV65ME0PQ851", "current_trial": 258, "dateTime": 1511570089350, "trialdata": {"rt": -1, "stimulus": "<p id=\"stim\">6</p>", "key_press": -1, "trial_type": "single-stim", "trial_index": 258, "time_elapsed": 1344327, "internal_node_id": "0.0-191.0-4.0"}}, {"uniqueid": "MTK0611:3Q5ZZ9ZEVPMLT0CG18IV65ME0PQ851", "current_trial": 259, "dateTime": 1511570090351, "trialdata": {"rt": -1, "stimulus": "<p id=\"stim\">5</p>", "key_press": -1, "trial_type": "single-stim", "trial_index": 259, "time_elapsed": 1345329, "internal_node_id": "0.0-191.0-5.0"}}, {"uniqueid": "MTK0611:3Q5ZZ9ZEVPMLT0CG18IV65ME0PQ851", "current_trial": 260, "dateTime": 1511570091352, "trialdata": {"rt": -1, "stimulus": "<p id=\"stim\">4</p>", "key_press": -1, "trial_type": "single-stim", "trial_index": 260, "time_elapsed": 1346330, "internal_node_id": "0.0-191.0-6.0"}}, {"uniqueid": "MTK0611:3Q5ZZ9ZEVPMLT0CG18IV65ME0PQ851", "current_trial": 261, "dateTime": 1511570092354, "trialdata": {"rt": -1, "stimulus": "<p id=\"stim\">3</p>", "key_press": -1, "trial_type": "single-stim", "trial_index": 261, "time_elapsed": 1347331, "internal_node_id": "0.0-191.0-7.0"}}, {"uniqueid": "MTK0611:3Q5ZZ9ZEVPMLT0CG18IV65ME0PQ851", "current_trial": 262, "dateTime": 1511570093354, "trialdata": {"rt": -1, "stimulus": "<p id=\"stim\">2</p>", "key_press": -1, "trial_type": "single-stim", "trial_index": 262, "time_elapsed": 1348332, "internal_node_id": "0.0-191.0-8.0"}}, {"uniqueid": "MTK0611:3Q5ZZ9ZEVPMLT0CG18IV65ME0PQ851", "current_trial": 263, "dateTime": 1511570094355, "trialdata": {"rt": -1, "stimulus": "<p id=\"stim\">1</p>", "key_press": -1, "trial_type": "single-stim", "trial_index": 263, "time_elapsed": 1349333, "internal_node_id": "0.0-191.0-9.0"}}, {"uniqueid": "MTK0611:3Q5ZZ9ZEVPMLT0CG18IV65ME0PQ851", "current_trial": 264, "dateTime": 1511570095857, "trialdata": {"rt": -1, "stimulus": "<p id=\"stim\">+</p>", "key_press": -1, "type": "FIXATION", "trial_type": "single-stim", "trial_index": 264, "time_elapsed": 1350835, "internal_node_id": "0.0-192.0-0.0"}}, {"uniqueid": "MTK0611:3Q5ZZ9ZEVPMLT0CG18IV65ME0PQ851", "current_trial": 265, "dateTime": 1511570097460, "trialdata": {"rt": -1, "stimulus": "<p id=\"stim\">PISTON</p>", "key_press": -1, "type": "PRES_VIS", "word": "piston", "wordID": 1075, "conditions": [12, 1600, "v", 24000], "trial": 7, "serialpos": 0, "trial_type": "single-stim", "trial_index": 265, "time_elapsed": 1352438, "internal_node_id": "0.0-193.0"}}, {"uniqueid": "MTK0611:3Q5ZZ9ZEVPMLT0CG18IV65ME0PQ851", "current_trial": 266, "dateTime": 1511570100090, "trialdata": {"rt": -1, "stimulus": "<p id=\"stim\">SCARF</p>", "key_press": -1, "type": "PRES_VIS", "word": "scarf", "wordID": 1245, "conditions": [12, 1600, "v", 24000], "trial": 7, "serialpos": 1, "trial_type": "single-stim", "trial_index": 266, "time_elapsed": 1355068, "internal_node_id": "0.0-194.0"}}, {"uniqueid": "MTK0611:3Q5ZZ9ZEVPMLT0CG18IV65ME0PQ851", "current_trial": 267, "dateTime": 1511570102747, "trialdata": {"rt": -1, "stimulus": "<p id=\"stim\">MOTEL</p>", "key_press": -1, "type": "PRES_VIS", "word": "motel", "wordID": 918, "conditions": [12, 1600, "v", 24000], "trial": 7, "serialpos": 2, "trial_type": "single-stim", "trial_index": 267, "time_elapsed": 1357725, "internal_node_id": "0.0-195.0"}}, {"uniqueid": "MTK0611:3Q5ZZ9ZEVPMLT0CG18IV65ME0PQ851", "current_trial": 268, "dateTime": 1511570105449, "trialdata": {"rt": -1, "stimulus": "<p id=\"stim\">ROD</p>", "key_press": -1, "type": "PRES_VIS", "word": "rod", "wordID": 1202, "conditions": [12, 1600, "v", 24000], "trial": 7, "serialpos": 3, "trial_type": "single-stim", "trial_index": 268, "time_elapsed": 1360427, "internal_node_id": "0.0-196.0"}}, {"uniqueid": "MTK0611:3Q5ZZ9ZEVPMLT0CG18IV65ME0PQ851", "current_trial": 269, "dateTime": 1511570108108, "trialdata": {"rt": -1, "stimulus": "<p id=\"stim\">SPOOL</p>", "key_press": -1, "type": "PRES_VIS", "word": "spool", "wordID": 1355, "conditions": [12, 1600, "v", 24000], "trial": 7, "serialpos": 4, "trial_type": "single-stim", "trial_index": 269, "time_elapsed": 1363085, "internal_node_id": "0.0-197.0"}}, {"uniqueid": "MTK0611:3Q5ZZ9ZEVPMLT0CG18IV65ME0PQ851", "current_trial": 270, "dateTime": 1511570110743, "trialdata": {"rt": -1, "stimulus": "<p id=\"stim\">SKIRT</p>", "key_press": -1, "type": "PRES_VIS", "word": "skirt", "wordID": 1318, "conditions": [12, 1600, "v", 24000], "trial": 7, "serialpos": 5, "trial_type": "single-stim", "trial_index": 270, "time_elapsed": 1365721, "internal_node_id": "0.0-198.0"}}, {"uniqueid": "MTK0611:3Q5ZZ9ZEVPMLT0CG18IV65ME0PQ851", "current_trial": 271, "dateTime": 1511570113533, "trialdata": {"rt": -1, "stimulus": "<p id=\"stim\">EYELASH</p>", "key_press": -1, "type": "PRES_VIS", "word": "eyelash", "wordID": 545, "conditions": [12, 1600, "v", 24000], "trial": 7, "serialpos": 6, "trial_type": "single-stim", "trial_index": 271, "time_elapsed": 1368511, "internal_node_id": "0.0-199.0"}}, {"uniqueid": "MTK0611:3Q5ZZ9ZEVPMLT0CG18IV65ME0PQ851", "current_trial": 272, "dateTime": 1511570116287, "trialdata": {"rt": -1, "stimulus": "<p id=\"stim\">COUNTRY</p>", "key_press": -1, "type": "PRES_VIS", "word": "country", "wordID": 387, "conditions": [12, 1600, "v", 24000], "trial": 7, "serialpos": 7, "trial_type": "single-stim", "trial_index": 272, "time_elapsed": 1371265, "internal_node_id": "0.0-200.0"}}, {"uniqueid": "MTK0611:3Q5ZZ9ZEVPMLT0CG18IV65ME0PQ851", "current_trial": 273, "dateTime": 1511570118989, "trialdata": {"rt": -1, "stimulus": "<p id=\"stim\">BLOUSE</p>", "key_press": -1, "type": "PRES_VIS", "word": "blouse", "wordID": 138, "conditions": [12, 16