{"condition": 0, "counterbalance": 555, "assignmentId": "3KYQYYSHYWEJI5EPNVPA1306SRCDOX", "workerId": "MTK0470", "hitId": "385MDVINFCM23GPPYBXTWBCLMHHJWL", "currenttrial": 626, "bonus": 0, "data": [{"uniqueid": "MTK0470:3KYQYYSHYWEJI5EPNVPA1306SRCDOX", "current_trial": 0, "dateTime": 1510940550008, "trialdata": {"rt": 3313, "key_press": 32, "type": "INSTRUCTIONS", "trial_type": "text", "trial_index": 0, "time_elapsed": 3315, "internal_node_id": "0.0-0.0"}}, {"uniqueid": "MTK0470:3KYQYYSHYWEJI5EPNVPA1306SRCDOX", "current_trial": 1, "dateTime": 1510940550016, "trialdata": {"rt": 7, "key_press": 66, "type": "INSTRUCTIONS", "trial_type": "text", "trial_index": 1, "time_elapsed": 3324, "internal_node_id": "0.0-1.0"}}, {"uniqueid": "MTK0470:3KYQYYSHYWEJI5EPNVPA1306SRCDOX", "current_trial": 2, "dateTime": 1510940561065, "trialdata": {"rt": [11042], "responses": ["ocean"], "type": "AUDIO_TEST", "trial_type": "audio-test", "trial_index": 2, "time_elapsed": 14373, "internal_node_id": "0.0-2.0"}}, {"uniqueid": "MTK0470:3KYQYYSHYWEJI5EPNVPA1306SRCDOX", "current_trial": 3, "dateTime": 1510940567154, "trialdata": {"rt": [6085], "responses": ["crystal"], "type": "AUDIO_TEST", "trial_type": "audio-test", "trial_index": 3, "time_elapsed": 20461, "internal_node_id": "0.0-3.0"}}, {"uniqueid": "MTK0470:3KYQYYSHYWEJI5EPNVPA1306SRCDOX", "current_trial": 4, "dateTime": 1510940576335, "trialdata": {"rt": [9177], "responses": ["spice"], "type": "AUDIO_TEST", "trial_type": "audio-test", "trial_index": 4, "time_elapsed": 29642, "internal_node_id": "0.0-4.0"}}, {"uniqueid": "MTK0470:3KYQYYSHYWEJI5EPNVPA1306SRCDOX", "current_trial": 5, "dateTime": 1510940598983, "trialdata": {"rt": 21897, "responses": "{\"Q0\":\"12 AM\",\"Q1\":\"8 AM\",\"Q2\":\"4\"}", "type": "SLEEP_SURVEY", "trial_type": "survey-text", "trial_index": 5, "time_elapsed": 52291, "internal_node_id": "0.0-5.0"}}, {"uniqueid": "MTK0470:3KYQYYSHYWEJI5EPNVPA1306SRCDOX", "current_trial": 6, "dateTime": 1510940633760, "trialdata": {"rt": 33776, "key_press": 32, "type": "INSTRUCTIONS", "trial_type": "text", "trial_index": 6, "time_elapsed": 87068, "internal_node_id": "0.0-6.0"}}, {"uniqueid": "MTK0470:3KYQYYSHYWEJI5EPNVPA1306SRCDOX", "current_trial": 7, "dateTime": 1510940657430, "trialdata": {"rt": 23169, "key_press": 32, "type": "INSTRUCTIONS", "trial_type": "text", "trial_index": 7, "time_elapsed": 110738, "internal_node_id": "0.0-7.0"}}, {"uniqueid": "MTK0470:3KYQYYSHYWEJI5EPNVPA1306SRCDOX", "current_trial": 8, "dateTime": 1510940670710, "trialdata": {"rt": 12779, "key_press": 32, "type": "INSTRUCTIONS", "trial_type": "text", "trial_index": 8, "time_elapsed": 124018, "internal_node_id": "0.0-8.0"}}, {"uniqueid": "MTK0470:3KYQYYSHYWEJI5EPNVPA1306SRCDOX", "current_trial": 9, "dateTime": 1510940689714, "trialdata": {"rt": [6401, 12244], "responses": ["21", "11"], "num1": [9, 5, 5], "num2": [9, 2, 8], "num3": [3, 4, 4], "type": "DISTRACTOR", "conditions": [18, 1200, "v", 18000], "trial": 0, "trial_type": "math-distractor", "trial_index": 9, "time_elapsed": 143022, "internal_node_id": "0.0-9.0"}}, {"uniqueid": "MTK0470:3KYQYYSHYWEJI5EPNVPA1306SRCDOX", "current_trial": 10, "dateTime": 1510940692714, "trialdata": {"rt": -1, "stimulus": "<p id=\"stim\">10</p>", "key_press": -1, "trial_type": "single-stim", "trial_index": 10, "time_elapsed": 146022, "internal_node_id": "0.0-10.0-0.0"}}, {"uniqueid": "MTK0470:3KYQYYSHYWEJI5EPNVPA1306SRCDOX", "current_trial": 11, "dateTime": 1510940693716, "trialdata": {"rt": -1, "stimulus": "<p id=\"stim\">9</p>", "key_press": -1, "trial_type": "single-stim", "trial_index": 11, "time_elapsed": 147024, "internal_node_id": "0.0-10.0-1.0"}}, {"uniqueid": "MTK0470:3KYQYYSHYWEJI5EPNVPA1306SRCDOX", "current_trial": 12, "dateTime": 1510940694716, "trialdata": {"rt": -1, "stimulus": "<p id=\"stim\">8</p>", "key_press": -1, "trial_type": "single-stim", "trial_index": 12, "time_elapsed": 148024, "internal_node_id": "0.0-10.0-2.0"}}, {"uniqueid": "MTK0470:3KYQYYSHYWEJI5EPNVPA1306SRCDOX", "current_trial": 13, "dateTime": 1510940695717, "trialdata": {"rt": -1, "stimulus": "<p id=\"stim\">7</p>", "key_press": -1, "trial_type": "single-stim", "trial_index": 13, "time_elapsed": 149025, "internal_node_id": "0.0-10.0-3.0"}}, {"uniqueid": "MTK0470:3KYQYYSHYWEJI5EPNVPA1306SRCDOX", "current_trial": 14, "dateTime": 1510940696718, "trialdata": {"rt": -1, "stimulus": "<p id=\"stim\">6</p>", "key_press": -1, "trial_type": "single-stim", "trial_index": 14, "time_elapsed": 150026, "internal_node_id": "0.0-10.0-4.0"}}, {"uniqueid": "MTK0470:3KYQYYSHYWEJI5EPNVPA1306SRCDOX", "current_trial": 15, "dateTime": 1510940697720, "trialdata": {"rt": -1, "stimulus": "<p id=\"stim\">5</p>", "key_press": -1, "trial_type": "single-stim", "trial_index": 15, "time_elapsed": 151028, "internal_node_id": "0.0-10.0-5.0"}}, {"uniqueid": "MTK0470:3KYQYYSHYWEJI5EPNVPA1306SRCDOX", "current_trial": 16, "dateTime": 1510940698720, "trialdata": {"rt": -1, "stimulus": "<p id=\"stim\">4</p>", "key_press": -1, "trial_type": "single-stim", "trial_index": 16, "time_elapsed": 152028, "internal_node_id": "0.0-10.0-6.0"}}, {"uniqueid": "MTK0470:3KYQYYSHYWEJI5EPNVPA1306SRCDOX", "current_trial": 17, "dateTime": 1510940699720, "trialdata": {"rt": -1, "stimulus": "<p id=\"stim\">3</p>", "key_press": -1, "trial_type": "single-stim", "trial_index": 17, "time_elapsed": 153028, "internal_node_id": "0.0-10.0-7.0"}}, {"uniqueid": "MTK0470:3KYQYYSHYWEJI5EPNVPA1306SRCDOX", "current_trial": 18, "dateTime": 1510940700720, "trialdata": {"rt": -1, "stimulus": "<p id=\"stim\">2</p>", "key_press": -1, "trial_type": "single-stim", "trial_index": 18, "time_elapsed": 154028, "internal_node_id": "0.0-10.0-8.0"}}, {"uniqueid": "MTK0470:3KYQYYSHYWEJI5EPNVPA1306SRCDOX", "current_trial": 19, "dateTime": 1510940701720, "trialdata": {"rt": -1, "stimulus": "<p id=\"stim\">1</p>", "key_press": -1, "trial_type": "single-stim", "trial_index": 19, "time_elapsed": 155028, "internal_node_id": "0.0-10.0-9.0"}}, {"uniqueid": "MTK0470:3KYQYYSHYWEJI5EPNVPA1306SRCDOX", "current_trial": 20, "dateTime": 1510940703220, "trialdata": {"rt": -1, "stimulus": "<p id=\"stim\">+</p>", "key_press": -1, "type": "FIXATION", "trial_type": "single-stim", "trial_index": 20, "time_elapsed": 156528, "internal_node_id": "0.0-11.0-0.0"}}, {"uniqueid": "MTK0470:3KYQYYSHYWEJI5EPNVPA1306SRCDOX", "current_trial": 21, "dateTime": 1510940704420, "trialdata": {"rt": -1, "stimulus": "<p id=\"stim\">EMPIRE</p>", "key_press": -1, "type": "PRES_VIS", "word": "empire", "wordID": 529, "conditions": [18, 1200, "v", 18000], "trial": 0, "serialpos": 0, "trial_type": "single-stim", "trial_index": 21, "time_elapsed": 157728, "internal_node_id": "0.0-12.0"}}, {"uniqueid": "MTK0470:3KYQYYSHYWEJI5EPNVPA1306SRCDOX", "current_trial": 22, "dateTime": 1510940706767, "trialdata": {"rt": -1, "stimulus": "<p id=\"stim\">PIGMENT</p>", "key_press": -1, "type": "PRES_VIS", "word": "pigment", "wordID": 1065, "conditions": [18, 1200, "v", 18000], "trial": 0, "serialpos": 1, "trial_type": "single-stim", "trial_index": 22, "time_elapsed": 160075, "internal_node_id": "0.0-13.0"}}, {"uniqueid": "MTK0470:3KYQYYSHYWEJI5EPNVPA1306SRCDOX", "current_trial": 23, "dateTime": 1510940708967, "trialdata": {"rt": -1, "stimulus": "<p id=\"stim\">DRESSER</p>", "key_press": -1, "type": "PRES_VIS", "word": "dresser", "wordID": 495, "conditions": [18, 1200, "v", 18000], "trial": 0, "serialpos": 2, "trial_type": "single-stim", "trial_index": 23, "time_elapsed": 162275, "internal_node_id": "0.0-14.0"}}, {"uniqueid": "MTK0470:3KYQYYSHYWEJI5EPNVPA1306SRCDOX", "current_trial": 24, "dateTime": 1510940711102, "trialdata": {"rt": -1, "stimulus": "<p id=\"stim\">FLUTE</p>", "key_press": -1, "type": "PRES_VIS", "word": "flute", "wordID": 584, "conditions": [18, 1200, "v", 18000], "trial": 0, "serialpos": 3, "trial_type": "single-stim", "trial_index": 24, "time_elapsed": 164410, "internal_node_id": "0.0-15.0"}}, {"uniqueid": "MTK0470:3KYQYYSHYWEJI5EPNVPA1306SRCDOX", "current_trial": 25, "dateTime": 1510940713137, "trialdata": {"rt": -1, "stimulus": "<p id=\"stim\">BIKE</p>", "key_press": -1, "type": "PRES_VIS", "word": "bike", "wordID": 124, "conditions": [18, 1200, "v", 18000], "trial": 0, "serialpos": 4, "trial_type": "single-stim", "trial_index": 25, "time_elapsed": 166445, "internal_node_id": "0.0-16.0"}}, {"uniqueid": "MTK0470:3KYQYYSHYWEJI5EPNVPA1306SRCDOX", "current_trial": 26, "dateTime": 1510940715175, "trialdata": {"rt": -1, "stimulus": "<p id=\"stim\">CLIMBER</p>", "key_press": -1, "type": "PRES_VIS", "word": "climber", "wordID": 322, "conditions": [18, 1200, "v", 18000], "trial": 0, "serialpos": 5, "trial_type": "single-stim", "trial_index": 26, "time_elapsed": 168483, "internal_node_id": "0.0-17.0"}}, {"uniqueid": "MTK0470:3KYQYYSHYWEJI5EPNVPA1306SRCDOX", "current_trial": 27, "dateTime": 1510940717293, "trialdata": {"rt": -1, "stimulus": "<p id=\"stim\">JUDGE</p>", "key_press": -1, "type": "PRES_VIS", "word": "judge", "wordID": 760, "conditions": [18, 1200, "v", 18000], "trial": 0, "serialpos": 6, "trial_type": "single-stim", "trial_index": 27, "time_elapsed": 170601, "internal_node_id": "0.0-18.0"}}, {"uniqueid": "MTK0470:3KYQYYSHYWEJI5EPNVPA1306SRCDOX", "current_trial": 28, "dateTime": 1510940719365, "trialdata": {"rt": -1, "stimulus": "<p id=\"stim\">MARKET</p>", "key_press": -1, "type": "PRES_VIS", "word": "market", "wordID": 870, "conditions": [18, 1200, "v", 18000], "trial": 0, "serialpos": 7, "trial_type": "single-stim", "trial_index": 28, "time_elapsed": 172673, "internal_node_id": "0.0-19.0"}}, {"uniqueid": "MTK0470:3KYQYYSHYWEJI5EPNVPA1306SRCDOX", "current_trial": 29, "dateTime": 1510940721402, "trialdata": {"rt": -1, "stimulus": "<p id=\"stim\">WARDROBE</p>", "key_press": -1, "type": "PRES_VIS", "word": "wardrobe", "wordID": 1586, "conditions": [18, 1200, "v", 18000], "trial": 0, "serialpos": 8, "trial_type": "single-stim", "trial_index": 29, "time_elapsed": 174710, "internal_node_id": "0.0-20.0"}}, {"uniqueid": "MTK0470:3KYQYYSHYWEJI5EPNVPA1306SRCDOX", "current_trial": 30, "dateTime": 1510940723714, "trialdata": {"rt": -1, "stimulus": "<p id=\"stim\">BROOK</p>", "key_press": -1, "type": "PRES_VIS", "word": "brook", "wordID": 176, "conditions": [18, 1200, "v", 18000], "trial": 0, "serialpos": 9, "trial_type": "single-stim", "trial_index": 30, "time_elapsed": 177022, "internal_node_id": "0.0-21.0"}}, {"uniqueid": "MTK0470:3KYQYYSHYWEJI5EPNVPA1306SRCDOX", "current_trial": 31, "dateTime": 1510940725975, "trialdata": {"rt": -1, "stimulus": "<p id=\"stim\">GANGSTER</p>", "key_press": -1, "type": "PRES_VIS", "word": "gangster", "wordID": 619, "conditions": [18, 1200, "v", 18000], "trial": 0, "serialpos": 10, "trial_type": "single-stim", "trial_index": 31, "time_elapsed": 179283, "internal_node_id": "0.0-22.0"}}, {"uniqueid": "MTK0470:3KYQYYSHYWEJI5EPNVPA1306SRCDOX", "current_trial": 32, "dateTime": 1510940728308, "trialdata": {"rt": -1, "stimulus": "<p id=\"stim\">OMELET</p>", "key_press": -1, "type": "PRES_VIS", "word": "omelet", "wordID": 975, "conditions": [18, 1200, "v", 18000], "trial": 0, "serialpos": 11, "trial_type": "single-stim", "trial_index": 32, "time_elapsed": 181616, "internal_node_id": "0.0-23.0"}}, {"uniqueid": "MTK0470:3KYQYYSHYWEJI5EPNVPA1306SRCDOX", "current_trial": 33, "dateTime": 1510940730523, "trialdata": {"rt": -1, "stimulus": "<p id=\"stim\">ASIA</p>", "key_press": -1, "type": "PRES_VIS", "word": "asia", "wordID": 45, "conditions": [18, 1200, "v", 18000], "trial": 0, "serialpos": 12, "trial_type": "single-stim", "trial_index": 33, "time_elapsed": 183831, "internal_node_id": "0.0-24.0"}}, {"uniqueid": "MTK0470:3KYQYYSHYWEJI5EPNVPA1306SRCDOX", "current_trial": 34, "dateTime": 1510940732790, "trialdata": {"rt": -1, "stimulus": "<p id=\"stim\">WITNESS</p>", "key_press": -1, "type": "PRES_VIS", "word": "witness", "wordID": 1617, "conditions": [18, 1200, "v", 18000], "trial": 0, "serialpos": 13, "trial_type": "single-stim", "trial_index": 34, "time_elapsed": 186098, "internal_node_id": "0.0-25.0"}}, {"uniqueid": "MTK0470:3KYQYYSHYWEJI5EPNVPA1306SRCDOX", "current_trial": 35, "dateTime": 1510940734857, "trialdata": {"rt": -1, "stimulus": "<p id=\"stim\">CYCLONE</p>", "key_press": -1, "type": "PRES_VIS", "word": "cyclone", "wordID": 430, "conditions": [18, 1200, "v", 18000], "trial": 0, "serialpos": 14, "trial_type": "single-stim", "trial_index": 35, "time_elapsed": 188165, "internal_node_id": "0.0-26.0"}}, {"uniqueid": "MTK0470:3KYQYYSHYWEJI5EPNVPA1306SRCDOX", "current_trial": 36, "dateTime": 1510940737015, "trialdata": {"rt": -1, "stimulus": "<p id=\"stim\">PLAID</p>", "key_press": -1, "type": "PRES_VIS", "word": "plaid", "wordID": 1079, "conditions": [18, 1200, "v", 18000], "trial": 0, "serialpos": 15, "trial_type": "single-stim", "trial_index": 36, "time_elapsed": 190323, "internal_node_id": "0.0-27.0"}}, {"uniqueid": "MTK0470:3KYQYYSHYWEJI5EPNVPA1306SRCDOX", "current_trial": 37, "dateTime": 1510940739053, "trialdata": {"rt": -1, "stimulus": "<p id=\"stim\">VALVE</p>", "key_press": -1, "type": "PRES_VIS", "word": "valve", "wordID": 1545, "conditions": [18, 1200, "v", 18000], "trial": 0, "serialpos": 16, "trial_type": "single-stim", "trial_index": 37, "time_elapsed": 192361, "internal_node_id": "0.0-28.0"}}, {"uniqueid": "MTK0470:3KYQYYSHYWEJI5EPNVPA1306SRCDOX", "current_trial": 38, "dateTime": 1510940741071, "trialdata": {"rt": -1, "stimulus": "<p id=\"stim\">RAFT</p>", "key_press": -1, "type": "PRES_VIS", "word": "raft", "wordID": 1158, "conditions": [18, 1200, "v", 18000], "trial": 0, "serialpos": 17, "trial_type": "single-stim", "trial_index": 38, "time_elapsed": 194379, "internal_node_id": "0.0-29.0"}}, {"uniqueid": "MTK0470:3KYQYYSHYWEJI5EPNVPA1306SRCDOX", "current_trial": 39, "dateTime": 1510940743371, "trialdata": {"rt": -1, "stimulus": "", "key_press": -1, "type": "PRE_RECALL_DELAY", "trial_type": "single-stim", "trial_index": 39, "time_elapsed": 196679, "internal_node_id": "0.0-30.0-0.0"}}, {"uniqueid": "MTK0470:3KYQYYSHYWEJI5EPNVPA1306SRCDOX", "current_trial": 40, "dateTime": 1510940743873, "trialdata": {"rt": -1000, "stimulus": "/static/audio/400Hz.wav", "key_press": -1, "type": "PRE_RECALL_ALERT", "trial_type": "single-audio", "trial_index": 40, "time_elapsed": 197181, "internal_node_id": "0.0-31.0"}}, {"uniqueid": "MTK0470:3KYQYYSHYWEJI5EPNVPA1306SRCDOX", "current_trial": 41, "dateTime": 1510940803876, "trialdata": {"rt": [2671, 6630, 9451, 12007, 16929, 29238, 35423, 43686], "recwords": ["raft", "empire", "plaid", "gangster", "market", "omelet", "judge", "cyclone"], "type": "FREE_RECALL", "conditions": [18, 1200, "v", 18000], "trial": 0, "trial_type": "free-recall", "trial_index": 41, "time_elapsed": 257183, "internal_node_id": "0.0-32.0-0.0"}}, {"uniqueid": "MTK0470:3KYQYYSHYWEJI5EPNVPA1306SRCDOX", "current_trial": 42, "dateTime": 1510940807575, "trialdata": {"rt": 1698, "key_press": 32, "type": "INSTRUCTIONS", "trial_type": "text", "trial_index": 42, "time_elapsed": 260883, "internal_node_id": "0.0-33.0"}}, {"uniqueid": "MTK0470:3KYQYYSHYWEJI5EPNVPA1306SRCDOX", "current_trial": 43, "dateTime": 1510940827577, "trialdata": {"rt": [2758, 5884, 12100, 16009], "responses": ["16", "19", "22", "11"], "num1": [2, 9, 5, 4, 3], "num2": [6, 2, 9, 3, 5], "num3": [8, 8, 8, 4, 3], "type": "DISTRACTOR", "conditions": [18, 1200, "a", 18000], "trial": 1, "trial_type": "math-distractor", "trial_index": 43, "time_elapsed": 280885, "internal_node_id": "0.0-34.0"}}, {"uniqueid": "MTK0470:3KYQYYSHYWEJI5EPNVPA1306SRCDOX", "current_trial": 44, "dateTime": 1510940830578, "trialdata": {"rt": -1, "stimulus": "<p id=\"stim\">10</p>", "key_press": -1, "trial_type": "single-stim", "trial_index": 44, "time_elapsed": 283886, "internal_node_id": "0.0-35.0-0.0"}}, {"uniqueid": "MTK0470:3KYQYYSHYWEJI5EPNVPA1306SRCDOX", "current_trial": 45, "dateTime": 1510940831579, "trialdata": {"rt": -1, "stimulus": "<p id=\"stim\">9</p>", "key_press": -1, "trial_type": "single-stim", "trial_index": 45, "time_elapsed": 284887, "internal_node_id": "0.0-35.0-1.0"}}, {"uniqueid": "MTK0470:3KYQYYSHYWEJI5EPNVPA1306SRCDOX", "current_trial": 46, "dateTime": 1510940832580, "trialdata": {"rt": -1, "stimulus": "<p id=\"stim\">8</p>", "key_press": -1, "trial_type": "single-stim", "trial_index": 46, "time_elapsed": 285888, "internal_node_id": "0.0-35.0-2.0"}}, {"uniqueid": "MTK0470:3KYQYYSHYWEJI5EPNVPA1306SRCDOX", "current_trial": 47, "dateTime": 1510940833581, "trialdata": {"rt": -1, "stimulus": "<p id=\"stim\">7</p>", "key_press": -1, "trial_type": "single-stim", "trial_index": 47, "time_elapsed": 286889, "internal_node_id": "0.0-35.0-3.0"}}, {"uniqueid": "MTK0470:3KYQYYSHYWEJI5EPNVPA1306SRCDOX", "current_trial": 48, "dateTime": 1510940834582, "trialdata": {"rt": -1, "stimulus": "<p id=\"stim\">6</p>", "key_press": -1, "trial_type": "single-stim", "trial_index": 48, "time_elapsed": 287890, "internal_node_id": "0.0-35.0-4.0"}}, {"uniqueid": "MTK0470:3KYQYYSHYWEJI5EPNVPA1306SRCDOX", "current_trial": 49, "dateTime": 1510940835582, "trialdata": {"rt": -1, "stimulus": "<p id=\"stim\">5</p>", "key_press": -1, "trial_type": "single-stim", "trial_index": 49, "time_elapsed": 288890, "internal_node_id": "0.0-35.0-5.0"}}, {"uniqueid": "MTK0470:3KYQYYSHYWEJI5EPNVPA1306SRCDOX", "current_trial": 50, "dateTime": 1510940836582, "trialdata": {"rt": -1, "stimulus": "<p id=\"stim\">4</p>", "key_press": -1, "trial_type": "single-stim", "trial_index": 50, "time_elapsed": 289890, "internal_node_id": "0.0-35.0-6.0"}}, {"uniqueid": "MTK0470:3KYQYYSHYWEJI5EPNVPA1306SRCDOX", "current_trial": 51, "dateTime": 1510940837583, "trialdata": {"rt": -1, "stimulus": "<p id=\"stim\">3</p>", "key_press": -1, "trial_type": "single-stim", "trial_index": 51, "time_elapsed": 290891, "internal_node_id": "0.0-35.0-7.0"}}, {"uniqueid": "MTK0470:3KYQYYSHYWEJI5EPNVPA1306SRCDOX", "current_trial": 52, "dateTime": 1510940838584, "trialdata": {"rt": -1, "stimulus": "<p id=\"stim\">2</p>", "key_press": -1, "trial_type": "single-stim", "trial_index": 52, "time_elapsed": 291892, "internal_node_id": "0.0-35.0-8.0"}}, {"uniqueid": "MTK0470:3KYQYYSHYWEJI5EPNVPA1306SRCDOX", "current_trial": 53, "dateTime": 1510940839584, "trialdata": {"rt": -1, "stimulus": "<p id=\"stim\">1</p>", "key_press": -1, "trial_type": "single-stim", "trial_index": 53, "time_elapsed": 292892, "internal_node_id": "0.0-35.0-9.0"}}, {"uniqueid": "MTK0470:3KYQYYSHYWEJI5EPNVPA1306SRCDOX", "current_trial": 54, "dateTime": 1510940841084, "trialdata": {"rt": -1, "stimulus": "<p id=\"stim\">+</p>", "key_press": -1, "type": "FIXATION", "trial_type": "single-stim", "trial_index": 54, "time_elapsed": 294392, "internal_node_id": "0.0-36.0-0.0"}}, {"uniqueid": "MTK0470:3KYQYYSHYWEJI5EPNVPA1306SRCDOX", "current_trial": 55, "dateTime": 1510940843301, "trialdata": {"rt": -1000, "stimulus": "/static/audio/wordpool/COWBOY.wav", "key_press": -1, "type": "PRES_AUD", "word": "cowboy", "wordID": 394, "conditions": [18, 1200, "a", 18000], "trial": 1, "serialpos": 0, "trial_type": "single-audio", "trial_index": 55, "time_elapsed": 296609, "internal_node_id": "0.0-37.0"}}, {"uniqueid": "MTK0470:3KYQYYSHYWEJI5EPNVPA1306SRCDOX", "current_trial": 56, "dateTime": 1510940845336, "trialdata": {"rt": -1000, "stimulus": "/static/audio/wordpool/DRINK.wav", "key_press": -1, "type": "PRES_AUD", "word": "drink", "wordID": 497, "conditions": [18, 1200, "a", 18000], "trial": 1, "serialpos": 1, "trial_type": "single-audio", "trial_index": 56, "time_elapsed": 298644, "internal_node_id": "0.0-38.0"}}, {"uniqueid": "MTK0470:3KYQYYSHYWEJI5EPNVPA1306SRCDOX", "current_trial": 57, "dateTime": 1510940847496, "trialdata": {"rt": -1000, "stimulus": "/static/audio/wordpool/TUNNEL.wav", "key_press": -1, "type": "PRES_AUD", "word": "tunnel", "wordID": 1518, "conditions": [18, 1200, "a", 18000], "trial": 1, "serialpos": 2, "trial_type": "single-audio", "trial_index": 57, "time_elapsed": 300804, "internal_node_id": "0.0-39.0"}}, {"uniqueid": "MTK0470:3KYQYYSHYWEJI5EPNVPA1306SRCDOX", "current_trial": 58, "dateTime": 1510940849522, "trialdata": {"rt": -1000, "stimulus": "/static/audio/wordpool/BASEMENT.wav", "key_press": -1, "type": "PRES_AUD", "word": "basement", "wordID": 93, "conditions": [18, 1200, "a", 18000], "trial": 1, "serialpos": 3, "trial_type": "single-audio", "trial_index": 58, "time_elapsed": 302830, "internal_node_id": "0.0-40.0"}}, {"uniqueid": "MTK0470:3KYQYYSHYWEJI5EPNVPA1306SRCDOX", "current_trial": 59, "dateTime": 1510940851719, "trialdata": {"rt": -1000, "stimulus": "/static/audio/wordpool/TAXI.wav", "key_press": -1, "type": "PRES_AUD", "word": "taxi", "wordID": 1437, "conditions": [18, 1200, "a", 18000], "trial": 1, "serialpos": 4, "trial_type": "single-audio", "trial_index": 59, "time_elapsed": 305026, "internal_node_id": "0.0-41.0"}}, {"uniqueid": "MTK0470:3KYQYYSHYWEJI5EPNVPA1306SRCDOX", "current_trial": 60, "dateTime": 1510940853760, "trialdata": {"rt": -1000, "stimulus": "/static/audio/wordpool/WORLD.wav", "key_press": -1, "type": "PRES_AUD", "word": "world", "wordID": 1621, "conditions": [18, 1200, "a", 18000], "trial": 1, "serialpos": 5, "trial_type": "single-audio", "trial_index": 60, "time_elapsed": 307068, "internal_node_id": "0.0-42.0"}}, {"uniqueid": "MTK0470:3KYQYYSHYWEJI5EPNVPA1306SRCDOX", "current_trial": 61, "dateTime": 1510940855926, "trialdata": {"rt": -1000, "stimulus": "/static/audio/wordpool/FREEZER.wav", "key_press": -1, "type": "PRES_AUD", "word": "freezer", "wordID": 603, "conditions": [18, 1200, "a", 18000], "trial": 1, "serialpos": 6, "trial_type": "single-audio", "trial_index": 61, "time_elapsed": 309233, "internal_node_id": "0.0-43.0"}}, {"uniqueid": "MTK0470:3KYQYYSHYWEJI5EPNVPA1306SRCDOX", "current_trial": 62, "dateTime": 1510940858321, "trialdata": {"rt": -1000, "stimulus": "/static/audio/wordpool/PRINCESS.wav", "key_press": -1, "type": "PRES_AUD", "word": "princess", "wordID": 1124, "conditions": [18, 1200, "a", 18000], "trial": 1, "serialpos": 7, "trial_type": "single-audio", "trial_index": 62, "time_elapsed": 311629, "internal_node_id": "0.0-44.0"}}, {"uniqueid": "MTK0470:3KYQYYSHYWEJI5EPNVPA1306SRCDOX", "current_trial": 63, "dateTime": 1510940860573, "trialdata": {"rt": -1000, "stimulus": "/static/audio/wordpool/PISTOL.wav", "key_press": -1, "type": "PRES_AUD", "word": "pistol", "wordID": 1074, "conditions": [18, 1200, "a", 18000], "trial": 1, "serialpos": 8, "trial_type": "single-audio", "trial_index": 63, "time_elapsed": 313881, "internal_node_id": "0.0-45.0"}}, {"uniqueid": "MTK0470:3KYQYYSHYWEJI5EPNVPA1306SRCDOX", "current_trial": 64, "dateTime": 1510940862614, "trialdata": {"rt": -1000, "stimulus": "/static/audio/wordpool/SODA.wav", "key_press": -1, "type": "PRES_AUD", "word": "soda", "wordID": 1340, "conditions": [18, 1200, "a", 18000], "trial": 1, "serialpos": 9, "trial_type": "single-audio", "trial_index": 64, "time_elapsed": 315922, "internal_node_id": "0.0-46.0"}}, {"uniqueid": "MTK0470:3KYQYYSHYWEJI5EPNVPA1306SRCDOX", "current_trial": 65, "dateTime": 1510940864704, "trialdata": {"rt": -1000, "stimulus": "/static/audio/wordpool/DIME.wav", "key_press": -1, "type": "PRES_AUD", "word": "dime", "wordID": 465, "conditions": [18, 1200, "a", 18000], "trial": 1, "serialpos": 10, "trial_type": "single-audio", "trial_index": 65, "time_elapsed": 318011, "internal_node_id": "0.0-47.0"}}, {"uniqueid": "MTK0470:3KYQYYSHYWEJI5EPNVPA1306SRCDOX", "current_trial": 66, "dateTime": 1510940867015, "trialdata": {"rt": -1000, "stimulus": "/static/audio/wordpool/OX.wav", "key_press": -1, "type": "PRES_AUD", "word": "ox", "wordID": 993, "conditions": [18, 1200, "a", 18000], "trial": 1, "serialpos": 11, "trial_type": "single-audio", "trial_index": 66, "time_elapsed": 320322, "internal_node_id": "0.0-48.0"}}, {"uniqueid": "MTK0470:3KYQYYSHYWEJI5EPNVPA1306SRCDOX", "current_trial": 67, "dateTime": 1510940869075, "trialdata": {"rt": -1000, "stimulus": "/static/audio/wordpool/BRACES.wav", "key_press": -1, "type": "PRES_AUD", "word": "braces", "wordID": 163, "conditions": [18, 1200, "a", 18000], "trial": 1, "serialpos": 12, "trial_type": "single-audio", "trial_index": 67, "time_elapsed": 322383, "internal_node_id": "0.0-49.0"}}, {"uniqueid": "MTK0470:3KYQYYSHYWEJI5EPNVPA1306SRCDOX", "current_trial": 68, "dateTime": 1510940871233, "trialdata": {"rt": -1000, "stimulus": "/static/audio/wordpool/LIGHTNING.wav", "key_press": -1, "type": "PRES_AUD", "word": "lightning", "wordID": 819, "conditions": [18, 1200, "a", 18000], "trial": 1, "serialpos": 13, "trial_type": "single-audio", "trial_index": 68, "time_elapsed": 324540, "internal_node_id": "0.0-50.0"}}, {"uniqueid": "MTK0470:3KYQYYSHYWEJI5EPNVPA1306SRCDOX", "current_trial": 69, "dateTime": 1510940873457, "trialdata": {"rt": -1000, "stimulus": "/static/audio/wordpool/EXPERT.wav", "key_press": -1, "type": "PRES_AUD", "word": "expert", "wordID": 542, "conditions": [18, 1200, "a", 18000], "trial": 1, "serialpos": 14, "trial_type": "single-audio", "trial_index": 69, "time_elapsed": 326764, "internal_node_id": "0.0-51.0"}}, {"uniqueid": "MTK0470:3KYQYYSHYWEJI5EPNVPA1306SRCDOX", "current_trial": 70, "dateTime": 1510940875519, "trialdata": {"rt": -1000, "stimulus": "/static/audio/wordpool/BADGE.wav", "key_press": -1, "type": "PRES_AUD", "word": "badge", "wordID": 67, "conditions": [18, 1200, "a", 18000], "trial": 1, "serialpos": 15, "trial_type": "single-audio", "trial_index": 70, "time_elapsed": 328827, "internal_node_id": "0.0-52.0"}}, {"uniqueid": "MTK0470:3KYQYYSHYWEJI5EPNVPA1306SRCDOX", "current_trial": 71, "dateTime": 1510940877876, "trialdata": {"rt": -1000, "stimulus": "/static/audio/wordpool/DOLPHIN.wav", "key_press": -1, "type": "PRES_AUD", "word": "dolphin", "wordID": 482, "conditions": [18, 1200, "a", 18000], "trial": 1, "serialpos": 16, "trial_type": "single-audio", "trial_index": 71, "time_elapsed": 331184, "internal_node_id": "0.0-53.0"}}, {"uniqueid": "MTK0470:3KYQYYSHYWEJI5EPNVPA1306SRCDOX", "current_trial": 72, "dateTime": 1510940880045, "trialdata": {"rt": -1000, "stimulus": "/static/audio/wordpool/GLOBE.wav", "key_press": -1, "type": "PRES_AUD", "word": "globe", "wordID": 640, "conditions": [18, 1200, "a", 18000], "trial": 1, "serialpos": 17, "trial_type": "single-audio", "trial_index": 72, "time_elapsed": 333353, "internal_node_id": "0.0-54.0"}}, {"uniqueid": "MTK0470:3KYQYYSHYWEJI5EPNVPA1306SRCDOX", "current_trial": 73, "dateTime": 1510940881361, "trialdata": {"rt": -1, "stimulus": "", "key_press": -1, "type": "PRE_RECALL_DELAY", "trial_type": "single-stim", "trial_index": 73, "time_elapsed": 334669, "internal_node_id": "0.0-55.0-0.0"}}, {"uniqueid": "MTK0470:3KYQYYSHYWEJI5EPNVPA1306SRCDOX", "current_trial": 74, "dateTime": 1510940881862, "trialdata": {"rt": -1000, "stimulus": "/static/audio/400Hz.wav", "key_press": -1, "type": "PRE_RECALL_ALERT", "trial_type": "single-audio", "trial_index": 74, "time_elapsed": 335169, "internal_node_id": "0.0-56.0"}}, {"uniqueid": "MTK0470:3KYQYYSHYWEJI5EPNVPA1306SRCDOX", "current_trial": 75, "dateTime": 1510940941865, "trialdata": {"rt": [3458, 5964, 7207, 8577, 24173, 30848], "recwords": ["globe", "expert", "taxi", "cowbow", "dolphin", "badge"], "type": "FREE_RECALL", "conditions": [18, 1200, "a", 18000], "trial": 1, "trial_type": "free-recall", "trial_index": 75, "time_elapsed": 395171, "internal_node_id": "0.0-57.0-0.0"}}, {"uniqueid": "MTK0470:3KYQYYSHYWEJI5EPNVPA1306SRCDOX", "current_trial": 76, "dateTime": 1510940946173, "trialdata": {"rt": 2304, "key_press": 32, "type": "INSTRUCTIONS", "trial_type": "text", "trial_index": 76, "time_elapsed": 399478, "internal_node_id": "0.0-58.0"}}, {"uniqueid": "MTK0470:3KYQYYSHYWEJI5EPNVPA1306SRCDOX", "current_trial": 77, "dateTime": 1510940971176, "trialdata": {"rt": [2061, 5148, 6692, 8436, 11479, 14892, 16691, 20871], "responses": ["16", "21", "6", "7", "18", "18", "16", "23"], "num1": [3, 3, 2, 2, 4, 9, 6, 9, 2], "num2": [7, 8, 2, 3, 8, 6, 4, 9, 4], "num3": [6, 8, 2, 2, 6, 3, 6, 5, 5], "type": "DISTRACTOR", "conditions": [12, 1600, "v", 24000], "trial": 2, "trial_type": "math-distractor", "trial_index": 77, "time_elapsed": 424484, "internal_node_id": "0.0-59.0"}}, {"uniqueid": "MTK0470:3KYQYYSHYWEJI5EPNVPA1306SRCDOX", "current_trial": 78, "dateTime": 1510940974176, "trialdata": {"rt": -1, "stimulus": "<p id=\"stim\">10</p>", "key_press": -1, "trial_type": "single-stim", "trial_index": 78, "time_elapsed": 427484, "internal_node_id": "0.0-60.0-0.0"}}, {"uniqueid": "MTK0470:3KYQYYSHYWEJI5EPNVPA1306SRCDOX", "current_trial": 79, "dateTime": 1510940975176, "trialdata": {"rt": -1, "stimulus": "<p id=\"stim\">9</p>", "key_press": -1, "trial_type": "single-stim", "trial_index": 79, "time_elapsed": 428484, "internal_node_id": "0.0-60.0-1.0"}}, {"uniqueid": "MTK0470:3KYQYYSHYWEJI5EPNVPA1306SRCDOX", "current_trial": 80, "dateTime": 1510940976176, "trialdata": {"rt": -1, "stimulus": "<p id=\"stim\">8</p>", "key_press": -1, "trial_type": "single-stim", "trial_index": 80, "time_elapsed": 429484, "internal_node_id": "0.0-60.0-2.0"}}, {"uniqueid": "MTK0470:3KYQYYSHYWEJI5EPNVPA1306SRCDOX", "current_trial": 81, "dateTime": 1510940977176, "trialdata": {"rt": -1, "stimulus": "<p id=\"stim\">7</p>", "key_press": -1, "trial_type": "single-stim", "trial_index": 81, "time_elapsed": 430484, "internal_node_id": "0.0-60.0-3.0"}}, {"uniqueid": "MTK0470:3KYQYYSHYWEJI5EPNVPA1306SRCDOX", "current_trial": 82, "dateTime": 1510940978177, "trialdata": {"rt": -1, "stimulus": "<p id=\"stim\">6</p>", "key_press": -1, "trial_type": "single-stim", "trial_index": 82, "time_elapsed": 431485, "internal_node_id": "0.0-60.0-4.0"}}, {"uniqueid": "MTK0470:3KYQYYSHYWEJI5EPNVPA1306SRCDOX", "current_trial": 83, "dateTime": 1510940979178, "trialdata": {"rt": -1, "stimulus": "<p id=\"stim\">5</p>", "key_press": -1, "trial_type": "single-stim", "trial_index": 83, "time_elapsed": 432486, "internal_node_id": "0.0-60.0-5.0"}}, {"uniqueid": "MTK0470:3KYQYYSHYWEJI5EPNVPA1306SRCDOX", "current_trial": 84, "dateTime": 1510940980179, "trialdata": {"rt": -1, "stimulus": "<p id=\"stim\">4</p>", "key_press": -1, "trial_type": "single-stim", "trial_index": 84, "time_elapsed": 433487, "internal_node_id": "0.0-60.0-6.0"}}, {"uniqueid": "MTK0470:3KYQYYSHYWEJI5EPNVPA1306SRCDOX", "current_trial": 85, "dateTime": 1510940981179, "trialdata": {"rt": -1, "stimulus": "<p id=\"stim\">3</p>", "key_press": -1, "trial_type": "single-stim", "trial_index": 85, "time_elapsed": 434487, "internal_node_id": "0.0-60.0-7.0"}}, {"uniqueid": "MTK0470:3KYQYYSHYWEJI5EPNVPA1306SRCDOX", "current_trial": 86, "dateTime": 1510940982179, "trialdata": {"rt": -1, "stimulus": "<p id=\"stim\">2</p>", "key_press": -1, "trial_type": "single-stim", "trial_index": 86, "time_elapsed": 435487, "internal_node_id": "0.0-60.0-8.0"}}, {"uniqueid": "MTK0470:3KYQYYSHYWEJI5EPNVPA1306SRCDOX", "current_trial": 87, "dateTime": 1510940983179, "trialdata": {"rt": -1, "stimulus": "<p id=\"stim\">1</p>", "key_press": -1, "trial_type": "single-stim", "trial_index": 87, "time_elapsed": 436487, "internal_node_id": "0.0-60.0-9.0"}}, {"uniqueid": "MTK0470:3KYQYYSHYWEJI5EPNVPA1306SRCDOX", "current_trial": 88, "dateTime": 1510940984679, "trialdata": {"rt": -1, "stimulus": "<p id=\"stim\">+</p>", "key_press": -1, "type": "FIXATION", "trial_type": "single-stim", "trial_index": 88, "time_elapsed": 437987, "internal_node_id": "0.0-61.0-0.0"}}, {"uniqueid": "MTK0470:3KYQYYSHYWEJI5EPNVPA1306SRCDOX", "current_trial": 89, "dateTime": 1510940986279, "trialdata": {"rt": -1, "stimulus": "<p id=\"stim\">HAWK</p>", "key_press": -1, "type": "PRES_VIS", "word": "hawk", "wordID": 691, "conditions": [12, 1600, "v", 24000], "trial": 2, "serialpos": 0, "trial_type": "single-stim", "trial_index": 89, "time_elapsed": 439587, "internal_node_id": "0.0-62.0"}}, {"uniqueid": "MTK0470:3KYQYYSHYWEJI5EPNVPA1306SRCDOX", "current_trial": 90, "dateTime": 1510940988894, "trialdata": {"rt": -1, "stimulus": "<p id=\"stim\">PREACHER</p>", "key_press": -1, "type": "PRES_VIS", "word": "preacher", "wordID": 1118, "conditions": [12, 1600, "v", 24000], "trial": 2, "serialpos": 1, "trial_type": "single-stim", "trial_index": 90, "time_elapsed": 442202, "internal_node_id": "0.0-63.0"}}, {"uniqueid": "MTK0470:3KYQYYSHYWEJI5EPNVPA1306SRCDOX", "current_trial": 91, "dateTime": 1510940991417, "trialdata": {"rt": -1, "stimulus": "<p id=\"stim\">FOREST</p>", "key_press": -1, "type": "PRES_VIS", "word": "forest", "wordID": 592, "conditions": [12, 1600, "v", 24000], "trial": 2, "serialpos": 2, "trial_type": "single-stim", "trial_index": 91, "time_elapsed": 444725, "internal_node_id": "0.0-64.0"}}, {"uniqueid": "MTK0470:3KYQYYSHYWEJI5EPNVPA1306SRCDOX", "current_trial": 92, "dateTime": 1510940993827, "trialdata": {"rt": -1, "stimulus": "<p id=\"stim\">CUSTARD</p>", "key_press": -1, "type": "PRES_VIS", "word": "custard", "wordID": 428, "conditions": [12, 1600, "v", 24000], "trial": 2, "serialpos": 3, "trial_type": "single-stim", "trial_index": 92, "time_elapsed": 447135, "internal_node_id": "0.0-65.0"}}, {"uniqueid": "MTK0470:3KYQYYSHYWEJI5EPNVPA1306SRCDOX", "current_trial": 93, "dateTime": 1510940996372, "trialdata": {"rt": -1, "stimulus": "<p id=\"stim\">DAUGHTER</p>", "key_press": -1, "type": "PRES_VIS", "word": "daughter", "wordID": 441, "conditions": [12, 1600, "v", 24000], "trial": 2, "serialpos": 4, "trial_type": "single-stim", "trial_index": 93, "time_elapsed": 449680, "internal_node_id": "0.0-66.0"}}, {"uniqueid": "MTK0470:3KYQYYSHYWEJI5EPNVPA1306SRCDOX", "current_trial": 94, "dateTime": 1510940998916, "trialdata": {"rt": -1, "stimulus": "<p id=\"stim\">CANAL</p>", "key_press": -1, "type": "PRES_VIS", "word": "canal", "wordID": 225, "conditions": [12, 1600, "v", 24000], "trial": 2, "serialpos": 5, "trial_type": "single-stim", "trial_index": 94, "time_elapsed": 452224, "internal_node_id": "0.0-67.0"}}, {"uniqueid": "MTK0470:3KYQYYSHYWEJI5EPNVPA1306SRCDOX", "current_trial": 95, "dateTime": 1510941001634, "trialdata": {"rt": -1, "stimulus": "<p id=\"stim\">TRACTOR</p>", "key_press": -1, "type": "PRES_VIS", "word": "tractor", "wordID": 1492, "conditions": [12, 1600, "v", 24000], "trial": 2, "serialpos": 6, "trial_type": "single-stim", "trial_index": 95, "time_elapsed": 454942, "internal_node_id": "0.0-68.0"}}, {"uniqueid": "MTK0470:3KYQYYSHYWEJI5EPNVPA1306SRCDOX", "current_trial": 96, "dateTime": 1510941004274, "trialdata": {"rt": -1, "stimulus": "<p id=\"stim\">SLIDE</p>", "key_press": -1, "type": "PRES_VIS", "word": "slide", "wordID": 1325, "conditions": [12, 1600, "v", 24000], "trial": 2, "serialpos": 7, "trial_type": "single-stim", "trial_index": 96, "time_elapsed": 457582, "internal_node_id": "0.0-69.0"}}, {"uniqueid": "MTK0470:3KYQYYSHYWEJI5EPNVPA1306SRCDOX", "current_trial": 97, "dateTime": 1510941006863, "trialdata": {"rt": -1, "stimulus": "<p id=\"stim\">RADISH</p>", "key_press": -1, "type": "PRES_VIS", "word": "radish", "wordID": 1157, "conditions": [12, 1600, "v", 24000], "trial": 2, "serialpos": 8, "trial_type": "single-stim", "trial_index": 97, "time_elapsed": 460170, "internal_node_id": "0.0-70.0"}}, {"uniqueid": "MTK0470:3KYQYYSHYWEJI5EPNVPA1306SRCDOX", "current_trial": 98, "dateTime": 1510941009517, "trialdata": {"rt": -1, "stimulus": "<p id=\"stim\">BRIEFCASE</p>", "key_press": -1, "type": "PRES_VIS", "word": "briefcase", "wordID": 174, "conditions": [12, 1600, "v", 24000], "trial": 2, "serialpos": 9, "trial_type": "single-stim", "trial_index": 98, "time_elapsed": 462825, "internal_node_id": "0.0-71.0"}}, {"uniqueid": "MTK0470:3KYQYYSHYWEJI5EPNVPA1306SRCDOX", "current_trial": 99, "dateTime": 1510941012016, "trialdata": {"rt": -1, "stimulus": "<p id=\"stim\">HANDBAG</p>", "key_press": -1, "type": "PRES_VIS", "word": "handbag", "wordID": 683, "conditions": [12, 1600, "v", 24000], "trial": 2, "serialpos": 10, "trial_type": "single-stim", "trial_index": 99, "time_elapsed": 465324, "internal_node_id": "0.0-72.0"}}, {"uniqueid": "MTK0470:3KYQYYSHYWEJI5EPNVPA1306SRCDOX", "current_trial": 100, "dateTime": 1510941014446, "trialdata": {"rt": -1, "stimulus": "<p id=\"stim\">PARSLEY</p>", "key_press": -1, "type": "PRES_VIS", "word": "parsley", "wordID": 1015, "conditions": [12, 1600, "v", 24000], "trial": 2, "serialpos": 11, "trial_type": "single-stim", "trial_index": 100, "time_elapsed": 467754, "internal_node_id": "0.0-73.0"}}, {"uniqueid": "MTK0470:3KYQYYSHYWEJI5EPNVPA1306SRCDOX", "current_trial": 101, "dateTime": 1510941016624, "trialdata": {"rt": -1, "stimulus": "", "key_press": -1, "type": "PRE_RECALL_DELAY", "trial_type": "single-stim", "trial_index": 101, "time_elapsed": 469932, "internal_node_id": "0.0-74.0-0.0"}}, {"uniqueid": "MTK0470:3KYQYYSHYWEJI5EPNVPA1306SRCDOX", "current_trial": 102, "dateTime": 1510941017124, "trialdata": {"rt": -1000, "stimulus": "/static/audio/400Hz.wav", "key_press": -1, "type": "PRE_RECALL_ALERT", "trial_type": "single-audio", "trial_index": 102, "time_elapsed": 470432, "internal_node_id": "0.0-75.0"}}, {"uniqueid": "MTK0470:3KYQYYSHYWEJI5EPNVPA1306SRCDOX", "current_trial": 103, "dateTime": 1510941077127, "trialdata": {"rt": [3169, 6693, 10628, 13067], "recwords": ["parsley", "preacher", "briefcase", "forest"], "type": "FREE_RECALL", "conditions": [12, 1600, "v", 24000], "trial": 2, "trial_type": "free-recall", "trial_index": 103, "time_elapsed": 530433, "internal_node_id": "0.0-76.0-0.0"}}, {"uniqueid": "MTK0470:3KYQYYSHYWEJI5EPNVPA1306SRCDOX", "current_trial": 104, "dateTime": 1510941081077, "trialdata": {"rt": 1950, "key_press": 32, "type": "INSTRUCTIONS", "trial_type": "text", "trial_index": 104, "time_elapsed": 534385, "internal_node_id": "0.0-77.0"}}, {"uniqueid": "MTK0470:3KYQYYSHYWEJI5EPNVPA1306SRCDOX", "current_trial": 105, "dateTime": 1510941095078, "trialdata": {"rt": [2926, 5471, 7796, 9576], "responses": ["13", "6", "10", "7"], "num1": [5, 1, 4, 4, 7], "num2": [4, 3, 3, 2, 2], "num3": [4, 2, 3, 1, 7], "type": "DISTRACTOR", "conditions": [24, 1600, "v", 12000], "trial": 3, "trial_type": "math-distractor", "trial_index": 105, "time_elapsed": 548386, "internal_node_id": "0.0-78.0"}}, {"uniqueid": "MTK0470:3KYQYYSHYWEJI5EPNVPA1306SRCDOX", "current_trial": 106, "dateTime": 1510941098079, "trialdata": {"rt": -1, "stimulus": "<p id=\"stim\">10</p>", "key_press": -1, "trial_type": "single-stim", "trial_index": 106, "time_elapsed": 551387, "internal_node_id": "0.0-79.0-0.0"}}, {"uniqueid": "MTK0470:3KYQYYSHYWEJI5EPNVPA1306SRCDOX", "current_trial": 107, "dateTime": 1510941099079, "trialdata": {"rt": -1, "stimulus": "<p id=\"stim\">9</p>", "key_press": -1, "trial_type": "single-stim", "trial_index": 107, "time_elapsed": 552387, "internal_node_id": "0.0-79.0-1.0"}}, {"uniqueid": "MTK0470:3KYQYYSHYWEJI5EPNVPA1306SRCDOX", "current_trial": 108, "dateTime": 1510941100079, "trialdata": {"rt": -1, "stimulus": "<p id=\"stim\">8</p>", "key_press": -1, "trial_type": "single-stim", "trial_index": 108, "time_elapsed": 553387, "internal_node_id": "0.0-79.0-2.0"}}, {"uniqueid": "MTK0470:3KYQYYSHYWEJI5EPNVPA1306SRCDOX", "current_trial": 109, "dateTime": 1510941101080, "trialdata": {"rt": -1, "stimulus": "<p id=\"stim\">7</p>", "key_press": -1, "trial_type": "single-stim", "trial_index": 109, "time_elapsed": 554388, "internal_node_id": "0.0-79.0-3.0"}}, {"uniqueid": "MTK0470:3KYQYYSHYWEJI5EPNVPA1306SRCDOX", "current_trial": 110, "dateTime": 1510941102081, "trialdata": {"rt": -1, "stimulus": "<p id=\"stim\">6</p>", "key_press": -1, "trial_type": "single-stim", "trial_index": 110, "time_elapsed": 555389, "internal_node_id": "0.0-79.0-4.0"}}, {"uniqueid": "MTK0470:3KYQYYSHYWEJI5EPNVPA1306SRCDOX", "current_trial": 111, "dateTime": 1510941103081, "trialdata": {"rt": -1, "stimulus": "<p id=\"stim\">5</p>", "key_press": -1, "trial_type": "single-stim", "trial_index": 111, "time_elapsed": 556389, "internal_node_id": "0.0-79.0-5.0"}}, {"uniqueid": "MTK0470:3KYQYYSHYWEJI5EPNVPA1306SRCDOX", "current_trial": 112, "dateTime": 1510941104082, "trialdata": {"rt": -1, "stimulus": "<p id=\"stim\">4</p>", "key_press": -1, "trial_type": "single-stim", "trial_index": 112, "time_elapsed": 557390, "internal_node_id": "0.0-79.0-6.0"}}, {"uniqueid": "MTK0470:3KYQYYSHYWEJI5EPNVPA1306SRCDOX", "current_trial": 113, "dateTime": 1510941105084, "trialdata": {"rt": -1, "stimulus": "<p id=\"stim\">3</p>", "key_press": -1, "trial_type": "single-stim", "trial_index": 113, "time_elapsed": 558392, "internal_node_id": "0.0-79.0-7.0"}}, {"uniqueid": "MTK0470:3KYQYYSHYWEJI5EPNVPA1306SRCDOX", "current_trial": 114, "dateTime": 1510941106084, "trialdata": {"rt": -1, "stimulus": "<p id=\"stim\">2</p>", "key_press": -1, "trial_type": "single-stim", "trial_index": 114, "time_elapsed": 559392, "internal_node_id": "0.0-79.0-8.0"}}, {"uniqueid": "MTK0470:3KYQYYSHYWEJI5EPNVPA1306SRCDOX", "current_trial": 115, "dateTime": 1510941107084, "trialdata": {"rt": -1, "stimulus": "<p id=\"stim\">1</p>", "key_press": -1, "trial_type": "single-stim", "trial_index": 115, "time_elapsed": 560392, "internal_node_id": "0.0-79.0-9.0"}}, {"uniqueid": "MTK0470:3KYQYYSHYWEJI5EPNVPA1306SRCDOX", "current_trial": 116, "dateTime": 1510941108585, "trialdata": {"rt": -1, "stimulus": "<p id=\"stim\">+</p>", "key_press": -1, "type": "FIXATION", "trial_type": "single-stim", "trial_index": 116, "time_elapsed": 561893, "internal_node_id": "0.0-80.0-0.0"}}, {"uniqueid": "MTK0470:3KYQYYSHYWEJI5EPNVPA1306SRCDOX", "current_trial": 117, "dateTime": 1510941110185, "trialdata": {"rt": -1, "stimulus": "<p id=\"stim\">SANDWICH</p>", "key_press": -1, "type": "PRES_VIS", "word": "sandwich", "wordID": 1231, "conditions": [24, 1600, "v", 12000], "trial": 3, "serialpos": 0, "trial_type": "single-stim", "trial_index": 117, "time_elapsed": 563493, "internal_node_id": "0.0-81.0"}}, {"uniqueid": "MTK0470:3KYQYYSHYWEJI5EPNVPA1306SRCDOX", "current_trial": 118, "dateTime": 1510941112792, "trialdata": {"rt": -1, "stimulus": "<p id=\"stim\">CLAM</p>", "key_press": -1, "type": "PRES_VIS", "word": "clam", "wordID": 314, "conditions": [24, 1600, "v", 12000], "trial": 3, "serialpos": 1, "trial_type": "single-stim", "trial_index": 118, "time_elapsed": 566100, "internal_node_id": "0.0-82.0"}}, {"uniqueid": "MTK0470:3KYQYYSHYWEJI5EPNVPA1306SRCDOX", "current_trial": 119, "dateTime": 1510941115421, "trialdata": {"rt": -1, "stimulus": "<p id=\"stim\">SEAL</p>", "key_press": -1, "type": "PRES_VIS", "word": "seal", "wordID": 1261, "conditions": [24, 1600, "v", 12000], "trial": 3, "serialpos": 2, "trial_type": "single-stim", "trial_index": 119, "time_elapsed": 568729, "internal_node_id": "0.0-83.0"}}, {"uniqueid": "MTK0470:3KYQYYSHYWEJI5EPNVPA1306SRCDOX", "current_trial": 120, "dateTime": 1510941117976, "trialdata": {"rt": -1, "stimulus": "<p id=\"stim\">VALLEY</p>", "key_press": -1, "type": "PRES_VIS", "word": "valley", "wordID": 1544, "conditions": [24, 1600, "v", 12000], "trial": 3, "serialpos": 3, "trial_type": "single-stim", "trial_index": 120, "time_elapsed": 571284, "internal_node_id": "0.0-84.0"}}, {"uniqueid": "MTK0470:3KYQYYSHYWEJI5EPNVPA1306SRCDOX", "current_trial": 121, "dateTime": 1510941120544, "trialdata": {"rt": -1, "stimulus": "<p id=\"stim\">MILK</p>", "key_press": -1, "type": "PRES_VIS", "word": "milk", "wordID": 894, "conditions": [24, 1600, "v", 12000], "trial": 3, "serialpos": 4, "trial_type": "single-stim", "trial_index": 121, "time_elapsed": 573852, "internal_node_id": "0.0-85.0"}}, {"uniqueid": "MTK0470:3KYQYYSHYWEJI5EPNVPA1306SRCDOX", "current_trial": 122, "dateTime": 1510941123263, "trialdata": {"rt": -1, "stimulus": "<p id=\"stim\">HONEY</p>", "key_press": -1, "type": "PRES_VIS", "word": "honey", "wordID": 712, "conditions": [24, 1600, "v", 12000], "trial": 3, "serialpos": 5, "trial_type": "single-stim", "trial_index": 122, "time_elapsed": 576571, "internal_node_id": "0.0-86.0"}}, {"uniqueid": "MTK0470:3KYQYYSHYWEJI5EPNVPA1306SRCDOX", "current_trial": 123, "dateTime": 1510941125907, "trialdata": {"rt": -1, "stimulus": "<p id=\"stim\">OZONE</p>", "key_press": -1, "type": "PRES_VIS", "word": "ozone", "wordID": 995, "conditions": [24, 1600, "v", 12000], "trial": 3, "serialpos": 6, "trial_type": "single-stim", "trial_index": 123, "time_elapsed": 579215, "internal_node_id": "0.0-87.0"}}, {"uniqueid": "MTK0470:3KYQYYSHYWEJI5EPNVPA1306SRCDOX", "current_trial": 124, "dateTime": 1510941128321, "trialdata": {"rt": -1, "stimulus": "<p id=\"stim\">WINDOW</p>", "key_press": -1, "type": "PRES_VIS", "word": "window", "wordID": 1610, "conditions": [24, 1600, "v", 12000], "trial": 3, "serialpos": 7, "trial_type": "single-stim", "trial_index": 124, "time_elapsed": 581629, "internal_node_id": "0.0-88.0"}}, {"uniqueid": "MTK0470:3KYQYYSHYWEJI5EPNVPA1306SRCDOX", "current_trial": 125, "dateTime": 1510941130946, "trialdata": {"rt": -1, "stimulus": "<p id=\"stim\">JELLO</p>", "key_press": -1, "type": "PRES_VIS", "word": "jello", "wordID": 753, "conditions": [24, 1600, "v", 12000], "trial": 3, "serialpos": 8, "trial_type": "single-stim", "trial_index": 125, "time_elapsed": 584254, "internal_node_id": "0.0-89.0"}}, {"uniqueid": "MTK0470:3KYQYYSHYWEJI5EPNVPA1306SRCDOX", "current_trial": 126, "dateTime": 1510941133685, "trialdata": {"rt": -1, "stimulus": "<p id=\"stim\">BANK</p>", "key_press": -1, "type": "PRES_VIS", "word": "bank", "wordID": 82, "conditions": [24, 1600, "v", 12000], "trial": 3, "serialpos": 9, "trial_type": "single-stim", "trial_index": 126, "time_elapsed": 586993, "internal_node_id": "0.0-90.0"}}, {"uniqueid": "MTK0470:3KYQYYSHYWEJI5EPNVPA1306SRCDOX", "current_trial": 127, "dateTime": 1510941136102, "trialdata": {"rt": -1, "stimulus": "<p id=\"stim\">SALMON</p>", "key_press": -1, "type": "PRES_VIS", "word": "salmon", "wordID": 1226, "conditions": [24, 1600, "v", 12000], "trial": 3, "serialpos": 10, "trial_type": "single-stim", "trial_index": 127, "time_elapsed": 589410, "internal_node_id": "0.0-91.0"}}, {"uniqueid": "MTK0470:3KYQYYSHYWEJI5EPNVPA1306SRCDOX", "current_trial": 128, "dateTime": 1510941138894, "trialdata": {"rt": -1, "stimulus": "<p id=\"stim\">SMOG</p>", "key_press": -1, "type": "PRES_VIS", "word": "smog", "wordID": 1329, "conditions": [24, 1600, "v", 12000], "trial": 3, "serialpos": 11, "trial_type": "single-stim", "trial_index": 128, "time_elapsed": 592202, "internal_node_id": "0.0-92.0"}}, {"uniqueid": "MTK0470:3KYQYYSHYWEJI5EPNVPA1306SRCDOX", "current_trial": 129, "dateTime": 1510941141520, "trialdata": {"rt": -1, "stimulus": "<p id=\"stim\">BUG</p>", "key_press": -1, "type": "PRES_VIS", "word": "bug", "wordID": 186, "conditions": [24, 1600, "v", 12000], "trial": 3, "serialpos": 12, "trial_type": "single-stim", "trial_index": 129, "time_elapsed": 594828, "internal_node_id": "0.0-93.0"}}, {"uniqueid": "MTK0470:3KYQYYSHYWEJI5EPNVPA1306SRCDOX", "current_trial": 130, "dateTime": 1510941144317, "trialdata": {"rt": -1, "stimulus": "<p id=\"stim\">PUPPY</p>", "key_press": -1, "type": "PRES_VIS", "word": "puppy", "wordID": 1143, "conditions": [24, 1600, "v", 12000], "trial": 3, "serialpos": 13, "trial_type": "single-stim", "trial_index": 130, "time_elapsed": 597625, "internal_node_id": "0.0-94.0"}}, {"uniqueid": "MTK0470:3KYQYYSHYWEJI5EPNVPA1306SRCDOX", "current_trial": 131, "dateTime": 1510941146961, "trialdata": {"rt": -1, "stimulus": "<p id=\"stim\">HOOK</p>", "key_press": -1, "type": "PRES_VIS", "word": "hook", "wordID": 714, "conditions": [24, 1600, "v", 12000], "trial": 3, "serialpos": 14, "trial_type": "single-stim", "trial_index": 131, "time_elapsed": 600269, "internal_node_id": "0.0-95.0"}}, {"uniqueid": "MTK0470:3KYQYYSHYWEJI5EPNVPA1306SRCDOX", "current_trial": 132, "dateTime": 1510941149688, "trialdata": {"rt": -1, "stimulus": "<p id=\"stim\">SIDEWALK</p>", "key_press": -1, "type": "PRES_VIS", "word": "sidewalk", "wordID": 1302, "conditions": [24, 1600, "v", 12000], "trial": 3, "serialpos": 15, "trial_type": "single-stim", "trial_index": 132, "time_elapsed": 602996, "internal_node_id": "0.0-96.0"}}, {"uniqueid": "MTK0470:3KYQYYSHYWEJI5EPNVPA1306SRCDOX", "current_trial": 133, "dateTime": 1510941152440, "trialdata": {"rt": -1, "stimulus": "<p id=\"stim\">PLAZA</p>", "key_press": -1, "type": "PRES_VIS", "word": "plaza", "wordID": 1087, "conditions": [24, 1600, "v", 12000], "trial": 3, "serialpos": 16, "trial_type": "single-stim", "trial_index": 133, "time_elapsed": 605748, "internal_node_id": "0.0-97.0"}}, {"uniqueid": "MTK0470:3KYQYYSHYWEJI5EPNVPA1306SRCDOX", "current_trial": 134, "dateTime": 1510941155093, "trialdata": {"rt": -1, "stimulus": "<p id=\"stim\">HELMET</p>", "key_press": -1, "type": "PRES_VIS", "word": "helmet", "wordID": 701, "conditions": [24, 1600, "v", 12000], "trial": 3, "serialpos": 17, "trial_type": "single-stim", "trial_index": 134, "time_elapsed": 608401, "internal_node_id": "0.0-98.0"}}, {"uniqueid": "MTK0470:3KYQYYSHYWEJI5EPNVPA1306SRCDOX", "current_trial": 135, "dateTime": 1510941157567, "trialdata": {"rt": -1, "stimulus": "<p id=\"stim\">FOOT</p>", "key_press": -1, "type": "PRES_VIS", "word": "foot", "wordID": 589, "conditions": [24, 1600, "v", 12000], "trial": 3, "serialpos": 18, "trial_type": "single-stim", "trial_index": 135, "time_elapsed": 610875, "internal_node_id": "0.0-99.0"}}, {"uniqueid": "MTK0470:3KYQYYSHYWEJI5EPNVPA1306SRCDOX", "current_trial": 136, "dateTime": 1510941159991, "trialdata": {"rt": -1, "stimulus": "<p id=\"stim\">VIRUS</p>", "key_press": -1, "type": "PRES_VIS", "word": "virus", "wordID": 1571, "conditions": [24, 1600, "v", 12000], "trial": 3, "serialpos": 19, "trial_type": "single-stim", "trial_index": 136, "time_elapsed": 613299, "internal_node_id": "0.0-100.0"}}, {"uniqueid": "MTK0470:3KYQYYSHYWEJI5EPNVPA1306SRCDOX", "current_trial": 137, "dateTime": 1510941162534, "trialdata": {"rt": -1, "stimulus": "<p id=\"stim\">SUSPECT</p>", "key_press": -1, "type": "PRES_VIS", "word": "suspect", "wordID": 1414, "conditions": [24, 1600, "v", 12000], "trial": 3, "serialpos": 20, "trial_type": "single-stim", "trial_index": 137, "time_elapsed": 615842, "internal_node_id": "0.0-101.0"}}, {"uniqueid": "MTK0470:3KYQYYSHYWEJI5EPNVPA1306SRCDOX", "current_trial": 138, "dateTime": 1510941165208, "trialdata": {"rt": -1, "stimulus": "<p id=\"stim\">CASHEW</p>", "key_press": -1, "type": "PRES_VIS", "word": "cashew", "wordID": 252, "conditions": [24, 1600, "v", 12000], "trial": 3, "serialpos": 21, "trial_type": "single-stim", "trial_index": 138, "time_elapsed": 618516, "internal_node_id": "0.0-102.0"}}, {"uniqueid": "MTK0470:3KYQYYSHYWEJI5EPNVPA1306SRCDOX", "current_trial": 139, "dateTime": 1510941167837, "trialdata": {"rt": -1, "stimulus": "<p id=\"stim\">MARINE</p>", "key_press": -1, "type": "PRES_VIS", "word": "marine", "wordID": 868, "conditions": [24, 1600, "v", 12000], "trial": 3, "serialpos": 22, "trial_type": "single-stim", "trial_index": 139, "time_elapsed": 621145, "internal_node_id": "0.0-103.0"}}, {"uniqueid": "MTK0470:3KYQYYSHYWEJI5EPNVPA1306SRCDOX", "current_trial": 140, "dateTime": 1510941170330, "trialdata": {"rt": -1, "stimulus": "<p id=\"stim\">JAPAN</p>", "key_press": -1, "type": "PRES_VIS", "word": "japan", "wordID": 748, "conditions": [24, 1600, "v", 12000], "trial": 3, "serialpos": 23, "trial_type": "single-stim", "trial_index": 140, "time_elapsed": 623638, "internal_node_id": "0.0-104.0"}}, {"uniqueid": "MTK0470:3KYQYYSHYWEJI5EPNVPA1306SRCDOX", "current_trial": 141, "dateTime": 1510941172783, "trialdata": {"rt": -1, "stimulus": "", "key_press": -1, "type": "PRE_RECALL_DELAY", "trial_type": "single-stim", "trial_index": 141, "time_elapsed": 626091, "internal_node_id": "0.0-105.0-0.0"}}, {"uniqueid": "MTK0470:3KYQYYSHYWEJI5EPNVPA1306SRCDOX", "current_trial": 142, "dateTime": 1510941173284, "trialdata": {"rt": -1000, "stimulus": "/static/audio/400Hz.wav", "key_press": -1, "type": "PRE_RECALL_ALERT", "trial_type": "single-audio", "trial_index": 142, "time_elapsed": 626592, "internal_node_id": "0.0-106.0"}}, {"uniqueid": "MTK0470:3KYQYYSHYWEJI5EPNVPA1306SRCDOX", "current_trial": 143, "dateTime": 1510941233287, "trialdata": {"rt": [2506, 4270, 7518, 16358, 18864, 19982, 33282], "recwords": ["japan", "sandwich", "ozone", "bug", "honey", "milk", "sidewalk"], "type": "FREE_RECALL", "conditions": [24, 1600, "v", 12000], "trial": 3, "trial_type": "free-recall", "trial_index": 143, "time_elapsed": 686593, "internal_node_id": "0.0-107.0-0.0"}}, {"uniqueid": "MTK0470:3KYQYYSHYWEJI5EPNVPA1306SRCDOX", "current_trial": 144, "dateTime": 1510941237667, "trialdata": {"rt": 2378, "key_press": 32, "type": "INSTRUCTIONS", "trial_type": "text", "trial_index": 144, "time_elapsed": 690975, "internal_node_id": "0.0-108.0"}}, {"uniqueid": "MTK0470:3KYQYYSHYWEJI5EPNVPA1306SRCDOX", "current_trial": 145, "dateTime": 1510941251668, "trialdata": {"rt": [7240], "responses": ["14"], "num1": [6, 6], "num2": [2, 8], "num3": [6, 7], "type": "DISTRACTOR", "conditions": [12, 800, "v", 12000], "trial": 4, "trial_type": "math-distractor", "trial_index": 145, "time_elapsed": 704976, "internal_node_id": "0.0-109.0"}}, {"uniqueid": "MTK0470:3KYQYYSHYWEJI5EPNVPA1306SRCDOX", "current_trial": 146, "dateTime": 1510941254668, "trialdata": {"rt": -1, "stimulus": "<p id=\"stim\">10</p>", "key_press": -1, "trial_type": "single-stim", "trial_index": 146, "time_elapsed": 707976, "internal_node_id": "0.0-110.0-0.0"}}, {"uniqueid": "MTK0470:3KYQYYSHYWEJI5EPNVPA1306SRCDOX", "current_trial": 147, "dateTime": 1510941255668, "trialdata": {"rt": -1, "stimulus": "<p id=\"stim\">9</p>", "key_press": -1, "trial_type": "single-stim", "trial_index": 147, "time_elapsed": 708976, "internal_node_id": "0.0-110.0-1.0"}}, {"uniqueid": "MTK0470:3KYQYYSHYWEJI5EPNVPA1306SRCDOX", "current_trial": 148, "dateTime": 1510941256668, "trialdata": {"rt": -1, "stimulus": "<p id=\"stim\">8</p>", "key_press": -1, "trial_type": "single-stim", "trial_index": 148, "time_elapsed": 709976, "internal_node_id": "0.0-110.0-2.0"}}, {"uniqueid": "MTK0470:3KYQYYSHYWEJI5EPNVPA1306SRCDOX", "current_trial": 149, "dateTime": 1510941257668, "trialdata": {"rt": -1, "stimulus": "<p id=\"stim\">7</p>", "key_press": -1, "trial_type": "single-stim", "trial_index": 149, "time_elapsed": 710976, "internal_node_id": "0.0-110.0-3.0"}}, {"uniqueid": "MTK0470:3KYQYYSHYWEJI5EPNVPA1306SRCDOX", "current_trial": 150, "dateTime": 1510941258668, "trialdata": {"rt": -1, "stimulus": "<p id=\"stim\">6</p>", "key_press": -1, "trial_type": "single-stim", "trial_index": 150, "time_elapsed": 711976, "internal_node_id": "0.0-110.0-4.0"}}, {"uniqueid": "MTK0470:3KYQYYSHYWEJI5EPNVPA1306SRCDOX", "current_trial": 151, "dateTime": 1510941259669, "trialdata": {"rt": -1, "stimulus": "<p id=\"stim\">5</p>", "key_press": -1, "trial_type": "single-stim", "trial_index": 151, "time_elapsed": 712977, "internal_node_id": "0.0-110.0-5.0"}}, {"uniqueid": "MTK0470:3KYQYYSHYWEJI5EPNVPA1306SRCDOX", "current_trial": 152, "dateTime": 1510941260670, "trialdata": {"rt": -1, "stimulus": "<p id=\"stim\">4</p>", "key_press": -1, "trial_type": "single-stim", "trial_index": 152, "time_elapsed": 713978, "internal_node_id": "0.0-110.0-6.0"}}, {"uniqueid": "MTK0470:3KYQYYSHYWEJI5EPNVPA1306SRCDOX", "current_trial": 153, "dateTime": 1510941261670, "trialdata": {"rt": -1, "stimulus": "<p id=\"stim\">3</p>", "key_press": -1, "trial_type": "single-stim", "trial_index": 153, "time_elapsed": 714978, "internal_node_id": "0.0-110.0-7.0"}}, {"uniqueid": "MTK0470:3KYQYYSHYWEJI5EPNVPA1306SRCDOX", "current_trial": 154, "dateTime": 1510941262670, "trialdata": {"rt": -1, "stimulus": "<p id=\"stim\">2</p>", "key_press": -1, "trial_type": "single-stim", "trial_index": 154, "time_elapsed": 715978, "internal_node_id": "0.0-110.0-8.0"}}, {"uniqueid": "MTK0470:3KYQYYSHYWEJI5EPNVPA1306SRCDOX", "current_trial": 155, "dateTime": 1510941263671, "trialdata": {"rt": -1, "stimulus": "<p id=\"stim\">1</p>", "key_press": -1, "trial_type": "single-stim", "trial_index": 155, "time_elapsed": 716979, "internal_node_id": "0.0-110.0-9.0"}}, {"uniqueid": "MTK0470:3KYQYYSHYWEJI5EPNVPA1306SRCDOX", "current_trial": 156, "dateTime": 1510941265172, "trialdata": {"rt": -1, "stimulus": "<p id=\"stim\">+</p>", "key_press": -1, "type": "FIXATION", "trial_type": "single-stim", "trial_index": 156, "time_elapsed": 718480, "internal_node_id": "0.0-111.0-0.0"}}, {"uniqueid": "MTK0470:3KYQYYSHYWEJI5EPNVPA1306SRCDOX", "current_trial": 157, "dateTime": 1510941265972, "trialdata": {"rt": -1, "stimulus": "<p id=\"stim\">PARROT</p>", "key_press": -1, "type": "PRES_VIS", "word": "parrot", "wordID": 1014, "conditions": [12, 800, "v", 12000], "trial": 4, "serialpos": 0, "trial_type": "single-stim", "trial_index": 157, "time_elapsed": 719280, "internal_node_id": "0.0-112.0"}}, {"uniqueid": "MTK0470:3KYQYYSHYWEJI5EPNVPA1306SRCDOX", "current_trial": 158, "dateTime": 1510941267598, "trialdata": {"rt": -1, "stimulus": "<p id=\"stim\">MAMMAL</p>", "key_press": -1, "type": "PRES_VIS", "word": "mammal", "wordID": 860, "conditions": [12, 800, "v", 12000], "trial": 4, "serialpos": 1, "trial_type": "single-stim", "trial_index": 158, "time_elapsed": 720906, "internal_node_id": "0.0-113.0"}}, {"uniqueid": "MTK0470:3KYQYYSHYWEJI5EPNVPA1306SRCDOX", "current_trial": 159, "dateTime": 1510941269462, "trialdata": {"rt": -1, "stimulus": "<p id=\"stim\">RATTLE</p>", "key_press": -1, "type": "PRES_VIS", "word": "rattle", "wordID": 1169, "conditions": [12, 800, "v", 12000], "trial": 4, "serialpos": 2, "trial_type": "single-stim", "trial_index": 159, "time_elapsed": 722770, "internal_node_id": "0.0-114.0"}}, {"uniqueid": "MTK0470:3KYQYYSHYWEJI5EPNVPA1306SRCDOX", "current_trial": 160, "dateTime": 1510941271179, "trialdata": {"rt": -1, "stimulus": "<p id=\"stim\">CRUTCH</p>", "key_press": -1, "type": "PRES_VIS", "word": "crutch", "wordID": 416, "conditions": [12, 800, "v", 12000], "trial": 4, "serialpos": 3, "trial_type": "single-stim", "trial_index": 160, "time_elapsed": 724486, "internal_node_id": "0.0-115.0"}}, {"uniqueid": "MTK0470:3KYQYYSHYWEJI5EPNVPA1306SRCDOX", "current_trial": 161, "dateTime": 1510941272922, "trialdata": {"rt": -1, "stimulus": "<p id=\"stim\">ROOSTER</p>", "key_press": -1, "type": "PRES_VIS", "word": "rooster", "wordID": 1208, "conditions": [12, 800, "v", 12000], "trial": 4, "serialpos": 4, "trial_type": "single-stim", "trial_index": 161, "time_elapsed": 726230, "internal_node_id": "0.0-116.0"}}, {"uniqueid": "MTK0470:3KYQYYSHYWEJI5EPNVPA1306SRCDOX", "current_trial": 162, "dateTime": 1510941274758, "trialdata": {"rt": -1, "stimulus": "<p id=\"stim\">SAUSAGE</p>", "key_press": -1, "type": "PRES_VIS", "word": "sausage", "wordID": 1237, "conditions": [12, 800, "v", 12000], "trial": 4, "serialpos": 5, "trial_type": "single-stim", "trial_index": 162, "time_elapsed": 728066, "internal_node_id": "0.0-117.0"}}, {"uniqueid": "MTK0470:3KYQYYSHYWEJI5EPNVPA1306SRCDOX", "current_trial": 163, "dateTime": 1510941276679, "trialdata": {"rt": -1, "stimulus": "<p id=\"stim\">SCARF</p>", "key_press": -1, "type": "PRES_VIS", "word": "scarf", "wordID": 1245, "conditions": [12, 800, "v", 12000], "trial": 4, "serialpos": 6, "trial_type": "single-stim", "trial_index": 163, "time_elapsed": 729987, "internal_node_id": "0.0-118.0"}}, {"uniqueid": "MTK0470:3KYQYYSHYWEJI5EPNVPA1306SRCDOX", "current_trial": 164, "dateTime": 1510941278616, "trialdata": {"rt": -1, "stimulus": "<p id=\"stim\">STAPLE</p>", "key_press": -1, "type": "PRES_VIS", "word": "staple", "wordID": 1370, "conditions": [12, 800, "v", 12000], "trial": 4, "serialpos": 7, "trial_type": "single-stim", "trial_index": 164, "time_elapsed": 731924, "internal_node_id": "0.0-119.0"}}, {"uniqueid": "MTK0470:3KYQYYSHYWEJI5EPNVPA1306SRCDOX", "current_trial": 165, "dateTime": 1510941280518, "trialdata": {"rt": -1, "stimulus": "<p id=\"stim\">POCKET</p>", "key_press": -1, "type": "PRES_VIS", "word": "pocket", "wordID": 1092, "conditions": [12, 800, "v", 12000], "trial": 4, "serialpos": 8, "trial_type": "single-stim", "trial_index": 165, "time_elapsed": 733826, "internal_node_id": "0.0-120.0"}}, {"uniqueid": "MTK0470:3KYQYYSHYWEJI5EPNVPA1306SRCDOX", "current_trial": 166, "dateTime": 1510941282189, "trialdata": {"rt": -1, "stimulus": "<p id=\"stim\">SWIMMER</p>", "key_press": -1, "type": "PRES_VIS", "word": "swimmer", "wordID": 1419, "conditions": [12, 800, "v", 12000], "trial": 4, "serialpos": 9, "trial_type": "single-stim", "trial_index": 166, "time_elapsed": 735497, "internal_node_id": "0.0-121.0"}}, {"uniqueid": "MTK0470:3KYQYYSHYWEJI5EPNVPA1306SRCDOX", "current_trial": 167, "dateTime": 1510941283960, "trialdata": {"rt": -1, "stimulus": "<p id=\"stim\">DIVER</p>", "key_press": -1, "type": "PRES_VIS", "word": "diver", "wordID": 475, "conditions": [12, 800, "v", 12000], "trial": 4, "serialpos": 10, "trial_type": "single-stim", "trial_index": 167, "time_elapsed": 737267, "internal_node_id": "0.0-122.0"}}, {"uniqueid": "MTK0470:3KYQYYSHYWEJI5EPNVPA1306SRCDOX", "current_trial": 168, "dateTime": 1510941285660, "trialdata": {"rt": -1, "stimulus": "<p id=\"stim\">WIDOW</p>", "key_press": -1, "type": "PRES_VIS", "word": "widow", "wordID": 1607, "conditions": [12, 800, "v", 12000], "trial": 4, "serialpos": 11, "trial_type": "single-stim", "trial_index": 168, "time_elapsed": 738968, "internal_node_id": "0.0-123.0"}}, {"uniqueid": "MTK0470:3KYQYYSHYWEJI5EPNVPA1306SRCDOX", "current_trial": 169, "dateTime": 1510941288162, "trialdata": {"rt": -1, "stimulus": "", "key_press": -1, "type": "PRE_RECALL_DELAY", "trial_type": "single-stim", "trial_index": 169, "time_elapsed": 741470, "internal_node_id": "0.0-124.0-0.0"}}, {"uniqueid": "MTK0470:3KYQYYSHYWEJI5EPNVPA1306SRCDOX", "current_trial": 170, "dateTime": 1510941288663, "trialdata": {"rt": -1000, "stimulus": "/static/audio/400Hz.wav", "key_press": -1, "type": "PRE_RECALL_ALERT", "trial_type": "single-audio", "trial_index": 170, "time_elapsed": 741970, "internal_node_id": "0.0-125.0"}}, {"uniqueid": "MTK0470:3KYQYYSHYWEJI5EPNVPA1306SRCDOX", "current_trial": 171, "dateTime": 1510941348666, "trialdata": {"rt": [2094, 12839, 15831, 20752, 31614], "recwords": ["widow", "swimmer", "crutch", "parrot", "mammal"], "type": "FREE_RECALL", "conditions": [12, 800, "v", 12000], "trial": 4, "trial_type": "free-recall", "trial_index": 171, "time_elapsed": 801972, "internal_node_id": "0.0-126.0-0.0"}}, {"uniqueid": "MTK0470:3KYQYYSHYWEJI5EPNVPA1306SRCDOX", "current_trial": 172, "dateTime": 1510941351976, "trialdata": {"rt": 1310, "key_press": 32, "type": "INSTRUCTIONS", "trial_type": "text", "trial_index": 172, "time_elapsed": 805284, "internal_node_id": "0.0-127.0"}}, {"uniqueid": "MTK0470:3KYQYYSHYWEJI5EPNVPA1306SRCDOX", "current_trial": 173, "dateTime": 1510941377980, "trialdata": {"rt": [1691, 3521, 6217, 9374, 11870, 14678, 18452, 21092], "responses": ["11", "15", "16", "16", "14", "13", "12", "9"], "num1": [5, 2, 2, 1, 5, 1, 1, 3, 5], "num2": [5, 8, 5, 6, 7, 6, 7, 4, 9], "num3": [1, 5, 9, 9, 2, 6, 4, 2, 8], "type": "DISTRACTOR", "conditions": [24, 800, "a", 24000], "trial": 5, "trial_type": "math-distractor", "trial_index": 173, "time_elapsed": 831288, "internal_node_id": "0.0-128.0"}}, {"uniqueid": "MTK0470:3KYQYYSHYWEJI5EPNVPA1306SRCDOX", "current_trial": 174, "dateTime": 1510941380983, "trialdata": {"rt": -1, "stimulus": "<p id=\"stim\">10</p>", "key_press": -1, "trial_type": "single-stim", "trial_index": 174, "time_elapsed": 834291, "internal_node_id": "0.0-129.0-0.0"}}, {"uniqueid": "MTK0470:3KYQYYSHYWEJI5EPNVPA1306SRCDOX", "current_trial": 175, "dateTime": 1510941381984, "trialdata": {"rt": -1, "stimulus": "<p id=\"stim\">9</p>", "key_press": -1, "trial_type": "single-stim", "trial_index": 175, "time_elapsed": 835292, "internal_node_id": "0.0-129.0-1.0"}}, {"uniqueid": "MTK0470:3KYQYYSHYWEJI5EPNVPA1306SRCDOX", "current_trial": 176, "dateTime": 1510941382985, "trialdata": {"rt": -1, "stimulus": "<p id=\"stim\">8</p>", "key_press": -1, "trial_type": "single-stim", "trial_index": 176, "time_elapsed": 836293, "internal_node_id": "0.0-129.0-2.0"}}, {"uniqueid": "MTK0470:3KYQYYSHYWEJI5EPNVPA1306SRCDOX", "current_trial": 177, "dateTime": 1510941383986, "trialdata": {"rt": -1, "stimulus": "<p id=\"stim\">7</p>", "key_press": -1, "trial_type": "single-stim", "trial_index": 177, "time_elapsed": 837294, "internal_node_id": "0.0-129.0-3.0"}}, {"uniqueid": "MTK0470:3KYQYYSHYWEJI5EPNVPA1306SRCDOX", "current_trial": 178, "dateTime": 1510941384987, "trialdata": {"rt": -1, "stimulus": "<p id=\"stim\">6</p>", "key_press": -1, "trial_type": "single-stim", "trial_index": 178, "time_elapsed": 838295, "internal_node_id": "0.0-129.0-4.0"}}, {"uniqueid": "MTK0470:3KYQYYSHYWEJI5EPNVPA1306SRCDOX", "current_trial": 179, "dateTime": 1510941385988, "trialdata": {"rt": -1, "stimulus": "<p id=\"stim\">5</p>", "key_press": -1, "trial_type": "single-stim", "trial_index": 179, "time_elapsed": 839296, "internal_node_id": "0.0-129.0-5.0"}}, {"uniqueid": "MTK0470:3KYQYYSHYWEJI5EPNVPA1306SRCDOX", "current_trial": 180, "dateTime": 1510941386988, "trialdata": {"rt": -1, "stimulus": "<p id=\"stim\">4</p>", "key_press": -1, "trial_type": "single-stim", "trial_index": 180, "time_elapsed": 840296, "internal_node_id": "0.0-129.0-6.0"}}, {"uniqueid": "MTK0470:3KYQYYSHYWEJI5EPNVPA1306SRCDOX", "current_trial": 181, "dateTime": 1510941387988, "trialdata": {"rt": -1, "stimulus": "<p id=\"stim\">3</p>", "key_press": -1, "trial_type": "single-stim", "trial_index": 181, "time_elapsed": 841296, "internal_node_id": "0.0-129.0-7.0"}}, {"uniqueid": "MTK0470:3KYQYYSHYWEJI5EPNVPA1306SRCDOX", "current_trial": 182, "dateTime": 1510941388989, "trialdata": {"rt": -1, "stimulus": "<p id=\"stim\">2</p>", "key_press": -1, "trial_type": "single-stim", "trial_index": 182, "time_elapsed": 842297, "internal_node_id": "0.0-129.0-8.0"}}, {"uniqueid": "MTK0470:3KYQYYSHYWEJI5EPNVPA1306SRCDOX", "current_trial": 183, "dateTime": 1510941389990, "trialdata": {"rt": -1, "stimulus": "<p id=\"stim\">1</p>", "key_press": -1, "trial_type": "single-stim", "trial_index": 183, "time_elapsed": 843298, "internal_node_id": "0.0-129.0-9.0"}}, {"uniqueid": "MTK0470:3KYQYYSHYWEJI5EPNVPA1306SRCDOX", "current_trial": 184, "dateTime": 1510941391490, "trialdata": {"rt": -1, "stimulus": "<p id=\"stim\">+</p>", "key_press": -1, "type": "FIXATION", "trial_type": "single-stim", "trial_index": 184, "time_elapsed": 844798, "internal_node_id": "0.0-130.0-0.0"}}, {"uniqueid": "MTK0470:3KYQYYSHYWEJI5EPNVPA1306SRCDOX", "current_trial": 185, "dateTime": 1510941393196, "trialdata": {"rt": -1000, "stimulus": "/static/audio/wordpool/GARBAGE.wav", "key_press": -1, "type": "PRES_AUD", "word": "garbage", "wordID": 621, "conditions": [24, 800, "a", 24000], "trial": 5, "serialpos": 0, "trial_type": "single-audio", "trial_index": 185, "time_elapsed": 846504, "internal_node_id": "0.0-131.0"}}, {"uniqueid": "MTK0470:3KYQYYSHYWEJI5EPNVPA1306SRCDOX", "current_trial": 186, "dateTime": 1510941394940, "trialdata": {"rt": -1000, "stimulus": "/static/audio/wordpool/WAGON.wav", "key_press": -1, "type": "PRES_AUD", "word": "wagon", "wordID": 1577, "conditions": [24, 800, "a", 24000], "trial": 5, "serialpos": 1, "trial_type": "single-audio", "trial_index": 186, "time_elapsed": 848248, "internal_node_id": "0.0-132.0"}}, {"uniqueid": "MTK0470:3KYQYYSHYWEJI5EPNVPA1306SRCDOX", "current_trial": 187, "dateTime": 1510941396887, "trialdata": {"rt": -1000, "stimulus": "/static/audio/wordpool/CHAUFFEUR.wav", "key_press": -1, "type": "PRES_AUD", "word": "chauffeur", "wordID": 282, "conditions": [24, 800, "a", 24000], "trial": 5, "serialpos": 2, "trial_type": "single-audio", "trial_index": 187, "time_elapsed": 850195, "internal_node_id": "0.0-133.0"}}, {"uniqueid": "MTK0470:3KYQYYSHYWEJI5EPNVPA1306SRCDOX", "current_trial": 188, "dateTime": 1510941398748, "trialdata": {"rt": -1000, "stimulus": "/static/audio/wordpool/SUITCASE.wav", "key_press": -1, "type": "PRES_AUD", "word": "suitcase", "wordID": 1402, "conditions": [24, 800, "a", 24000], "trial": 5, "serialpos": 3, "trial_type": "single-audio", "trial_index": 188, "time_elapsed": 852056, "internal_node_id": "0.0-134.0"}}, {"uniqueid": "MTK0470:3KYQYYSHYWEJI5EPNVPA1306SRCDOX", "current_trial": 189, "dateTime": 1510941400660, "trialdata": {"rt": -1000, "stimulus": "/static/audio/wordpool/PENGUIN.wav", "key_press": -1, "type": "PRES_AUD", "word": "penguin", "wordID": 1043, "conditions": [24, 800, "a", 24000], "trial": 5, "serialpos": 4, "trial_type": "single-audio", "trial_index": 189, "time_elapsed": 853968, "internal_node_id": "0.0-135.0"}}, {"uniqueid": "MTK0470:3KYQYYSHYWEJI5EPNVPA1306SRCDOX", "current_trial": 190, "dateTime": 1510941402512, "trialdata": {"rt": -1000, "stimulus": "/static/audio/wordpool/BUNNY.wav", "key_press": -1, "type": "PRES_AUD", "word": "bunny", "wordID": 197, "conditions": [24, 800, "a", 24000], "trial": 5, "serialpos": 5, "trial_type": "single-audio", "trial_index": 190, "time_elapsed": 855820, "internal_node_id": "0.0-136.0"}}, {"uniqueid": "MTK0470:3KYQYYSHYWEJI5EPNVPA1306SRCDOX", "current_trial": 191, "dateTime": 1510941404417, "trialdata": {"rt": -1000, "stimulus": "/static/audio/wordpool/SCOTCH.wav", "key_press": -1, "type": "PRES_AUD", "word": "scotch", "wordID": 1250, "conditions": [24, 800, "a", 24000], "trial": 5, "serialpos": 6, "trial_type": "single-audio", "trial_index": 191, "time_elapsed": 857725, "internal_node_id": "0.0-137.0"}}, {"uniqueid": "MTK0470:3KYQYYSHYWEJI5EPNVPA1306SRCDOX", "current_trial": 192, "dateTime": 1510941406106, "trialdata": {"rt": -1000, "stimulus": "/static/audio/wordpool/LUGGAGE.wav", "key_press": -1, "type": "PRES_AUD", "word": "luggage", "wordID": 846, "conditions": [24, 800, "a", 24000], "trial": 5, "serialpos": 7, "trial_type": "single-audio", "trial_index": 192, "time_elapsed": 859414, "internal_node_id": "0.0-138.0"}}, {"uniqueid": "MTK0470:3KYQYYSHYWEJI5EPNVPA1306SRCDOX", "current_trial": 193, "dateTime": 1510941407851, "trialdata": {"rt": -1000, "stimulus": "/static/audio/wordpool/BURGLAR.wav", "key_press": -1, "type": "PRES_AUD", "word": "burglar", "wordID": 199, "conditions": [24, 800, "a", 24000], "trial": 5, "serialpos": 8, "trial_type": "single-audio", "trial_index": 193, "time_elapsed": 861159, "internal_node_id": "0.0-139.0"}}, {"uniqueid": "MTK0470:3KYQYYSHYWEJI5EPNVPA1306SRCDOX", "current_trial": 194, "dateTime": 1510941409502, "trialdata": {"rt": -1000, "stimulus": "/static/audio/wordpool/SHIRT.wav", "key_press": -1, "type": "PRES_AUD", "word": "shirt", "wordID": 1286, "conditions": [24, 800, "a", 24000], "trial": 5, "serialpos": 9, "trial_type": "single-audio", "trial_index": 194, "time_elapsed": 862809, "internal_node_id": "0.0-140.0"}}, {"uniqueid": "MTK0470:3KYQYYSHYWEJI5EPNVPA1306SRCDOX", "current_trial": 195, "dateTime": 1510941411332, "trialdata": {"rt": -1000, "stimulus": "/static/audio/wordpool/THREAD.wav", "key_press": -1, "type": "PRES_AUD", "word": "thread", "wordID": 1459, "conditions": [24, 800, "a", 24000], "trial": 5, "serialpos": 10, "trial_type": "single-audio", "trial_index": 195, "time_elapsed": 864639, "internal_node_id": "0.0-141.0"}}, {"uniqueid": "MTK0470:3KYQYYSHYWEJI5EPNVPA1306SRCDOX", "current_trial": 196, "dateTime": 1510941413326, "trialdata": {"rt": -1000, "stimulus": "/static/audio/wordpool/COD.wav", "key_press": -1, "type": "PRES_AUD", "word": "cod", "wordID": 339, "conditions": [24, 800, "a", 24000], "trial": 5, "serialpos": 11, "trial_type": "single-audio", "trial_index": 196, "time_elapsed": 866633, "internal_node_id": "0.0-142.0"}}, {"uniqueid": "MTK0470:3KYQYYSHYWEJI5EPNVPA1306SRCDOX", "current_trial": 197, "dateTime": 1510941414948, "trialdata": {"rt": -1000, "stimulus": "/static/audio/wordpool/WHISTLE.wav", "key_press": -1, "type": "PRES_AUD", "word": "whistle", "wordID": 1605, "conditions": [24, 800, "a", 24000], "trial": 5, "serialpos": 12, "trial_type": "single-audio", "trial_index": 197, "time_elapsed": 868256, "internal_node_id": "0.0-143.0"}}, {"uniqueid": "MTK0470:3KYQYYSHYWEJI5EPNVPA1306SRCDOX", "current_trial": 198, "dateTime": 1510941416639, "trialdata": {"rt": -1000, "stimulus": "/static/audio/wordpool/PATIENT.wav", "key_press": -1, "type": "PRES_AUD", "word": "patient", "wordID": 1023, "conditions": [24, 800, "a", 24000], "trial": 5, "serialpos": 13, "trial_type": "single-audio", "trial_index": 198, "time_elapsed": 869947, "internal_node_id": "0.0-144.0"}}, {"uniqueid": "MTK0470:3KYQYYSHYWEJI5EPNVPA1306SRCDOX", "current_trial": 199, "dateTime": 1510941418585, "trialdata": {"rt": -1000, "stimulus": "/static/audio/wordpool/PEPPER.wav", "key_press": -1, "type": "PRES_AUD", "word": "pepper", "wordID": 1046, "conditions": [24, 800, "a", 24000], "trial": 5, "serialpos": 14, "trial_type": "single-audio", "trial_index": 199, "time_elapsed": 871893, "internal_node_id": "0.0-145.0"}}, {"uniqueid": "MTK0470:3KYQYYSHYWEJI5EPNVPA1306SRCDOX", "current_trial": 200, "dateTime": 1510941420265, "trialdata": {"rt": -1000, "stimulus": "/static/audio/wordpool/JUGGLER.wav", "key_press": -1, "type": "PRES_AUD", "word": "juggler", "wordID": 762, "conditions": [24, 800, "a", 24000], "trial": 5, "serialpos": 15, "trial_type": "single-audio", "trial_index": 200, "time_elapsed": 873573, "internal_node_id": "0.0-146.0"}}, {"uniqueid": "MTK0470:3KYQYYSHYWEJI5EPNVPA1306SRCDOX", "current_trial": 201, "dateTime": 1510941421889, "trialdata": {"rt": -1000, "stimulus": "/static/audio/wordpool/CRITIC.wav", "key_press": -1, "type": "PRES_AUD", "word": "critic", "wordID": 409, "conditions": [24, 800, "a", 24000], "trial": 5, "serialpos": 16, "trial_type": "single-audio", "trial_index": 201, "time_elapsed": 875196, "internal_node_id": "0.0-147.0"}}, {"uniqueid": "MTK0470:3KYQYYSHYWEJI5EPNVPA1306SRCDOX", "current_trial": 202, "dateTime": 1510941423522, "trialdata": {"rt": -1000, "stimulus": "/static/audio/wordpool/QUEEN.wav", "key_press": -1, "type": "PRES_AUD", "word": "queen", "wordID": 1148, "conditions": [24, 800, "a", 24000], "trial": 5, "serialpos": 17, "trial_type": "single-audio", "trial_index": 202, "time_elapsed": 876830, "internal_node_id": "0.0-148.0"}}, {"uniqueid": "MTK0470:3KYQYYSHYWEJI5EPNVPA1306SRCDOX", "current_trial": 203, "dateTime": 1510941425512, "trialdata": {"rt": -1000, "stimulus": "/static/audio/wordpool/PLIERS.wav", "key_press": -1, "type": "PRES_AUD", "word": "pliers", "wordID": 1088, "conditions": [24, 800, "a", 24000], "trial": 5, "serialpos": 18, "trial_type": "single-audio", "trial_index": 203, "time_elapsed": 878820, "internal_node_id": "0.0-149.0"}}, {"uniqueid": "MTK0470:3KYQYYSHYWEJI5EPNVPA1306SRCDOX", "current_trial": 204, "dateTime": 1510941427427, "trialdata": {"rt": -1000, "stimulus": "/static/audio/wordpool/LIPSTICK.wav", "key_press": -1, "type": "PRES_AUD", "word": "lipstick", "wordID": 828, "conditions": [24, 800, "a", 24000], "trial": 5, "serialpos": 19, "trial_type": "single-audio", "trial_index": 204, "time_elapsed": 880735, "internal_node_id": "0.0-150.0"}}, {"uniqueid": "MTK0470:3KYQYYSHYWEJI5EPNVPA1306SRCDOX", "current_trial": 205, "dateTime": 1510941429367, "trialdata": {"rt": -1000, "stimulus": "/static/audio/wordpool/STUDENT.wav", "key_press": -1, "type": "PRES_AUD", "word": "student", "wordID": 1394, "conditions": [24, 800, "a", 24000], "trial": 5, "serialpos": 20, "trial_type": "single-audio", "trial_index": 205, "time_elapsed": 882675, "internal_node_id": "0.0-151.0"}}, {"uniqueid": "MTK0470:3KYQYYSHYWEJI5EPNVPA1306SRCDOX", "current_trial": 206, "dateTime": 1510941431290, "trialdata": {"rt": -1000, "stimulus": "/static/audio/wordpool/DORM.wav", "key_press": -1, "type": "PRES_AUD", "word": "dorm", "wordID": 487, "conditions": [24, 800, "a", 24000], "trial": 5, "serialpos": 21, "trial_type": "single-audio", "trial_index": 206, "time_elapsed": 884597, "internal_node_id": "0.0-152.0"}}, {"uniqueid": "MTK0470:3KYQYYSHYWEJI5EPNVPA1306SRCDOX", "current_trial": 207, "dateTime": 1510941432985, "trialdata": {"rt": -1000, "stimulus": "/static/audio/wordpool/MACHINE.wav", "key_press": -1, "type": "PRES_AUD", "word": "machine", "wordID": 851, "conditions": [24, 800, "a", 24000], "trial": 5, "serialpos": 22, "trial_type": "single-audio", "trial_index": 207, "time_elapsed": 886293, "internal_node_id": "0.0-153.0"}}, {"uniqueid": "MTK0470:3KYQYYSHYWEJI5EPNVPA1306SRCDOX", "current_trial": 208, "dateTime": 1510941434772, "trialdata": {"rt": -1000, "stimulus": "/static/audio/wordpool/GARLIC.wav", "key_press": -1, "type": "PRES_AUD", "word": "garlic", "wordID": 623, "conditions": [24, 800, "a", 24000], "trial": 5, "serialpos": 23, "trial_type": "single-audio", "trial_index": 208, "time_elapsed": 888079, "internal_node_id": "0.0-154.0"}}, {"uniqueid": "MTK0470:3KYQYYSHYWEJI5EPNVPA1306SRCDOX", "current_trial": 209, "dateTime": 1510941436037, "trialdata": {"rt": -1, "stimulus": "", "key_press": -1, "type": "PRE_RECALL_DELAY", "trial_type": "single-stim", "trial_index": 209, "time_elapsed": 889345, "internal_node_id": "0.0-155.0-0.0"}}, {"uniqueid": "MTK0470:3KYQYYSHYWEJI5EPNVPA1306SRCDOX", "current_trial": 210, "dateTime": 1510941436538, "trialdata": {"rt": -1000, "stimulus": "/static/audio/400Hz.wav", "key_press": -1, "type": "PRE_RECALL_ALERT", "trial_type": "single-audio", "trial_index": 210, "time_elapsed": 889846, "internal_node_id": "0.0-156.0"}}, {"uniqueid": "MTK0470:3KYQYYSHYWEJI5EPNVPA1306SRCDOX", "current_trial": 211, "dateTime": 1510941496542, "trialdata": {"rt": [3045, 5899, 8010, 11247, 42616], "recwords": ["machine", "dorm", "garbage", "shofer", "plant"], "type": "FREE_RECALL", "conditions": [24, 800, "a", 24000], "trial": 5, "trial_type": "free-recall", "trial_index": 211, "time_elapsed": 949847, "internal_node_id": "0.0-157.0-0.0"}}, {"uniqueid": "MTK0470:3KYQYYSHYWEJI5EPNVPA1306SRCDOX", "current_trial": 212, "dateTime": 1510941500350, "trialdata": {"rt": 1807, "key_press": 32, "type": "INSTRUCTIONS", "trial_type": "text", "trial_index": 212, "time_elapsed": 953658, "internal_node_id": "0.0-158.0"}}, {"uniqueid": "MTK0470:3KYQYYSHYWEJI5EPNVPA1306SRCDOX", "current_trial": 213, "dateTime": 1510941526353, "trialdata": {"rt": [5664, 8892, 11228, 13574, 21852], "responses": ["16", "10", "8", "15", "23"], "num1": [8, 1, 2, 4, 8, 4], "num2": [5, 3, 1, 5, 7, 2], "num3": [6, 6, 5, 6, 8, 2], "type": "DISTRACTOR", "conditions": [24, 1600, "v", 24000], "trial": 6, "trial_type": "math-distractor", "trial_index": 213, "time_elapsed": 979661, "internal_node_id": "0.0-159.0"}}, {"uniqueid": "MTK0470:3KYQYYSHYWEJI5EPNVPA1306SRCDOX", "current_trial": 214, "dateTime": 1510941529354, "trialdata": {"rt": -1, "stimulus": "<p id=\"stim\">10</p>", "key_press": -1, "trial_type": "single-stim", "trial_index": 214, "time_elapsed": 982662, "internal_node_id": "0.0-160.0-0.0"}}, {"uniqueid": "MTK0470:3KYQYYSHYWEJI5EPNVPA1306SRCDOX", "current_trial": 215, "dateTime": 1510941530355, "trialdata": {"rt": 515, "stimulus": "<p id=\"stim\">9</p>", "key_press": 189, "trial_type": "single-stim", "trial_index": 215, "time_elapsed": 983663, "internal_node_id": "0.0-160.0-1.0"}}, {"uniqueid": "MTK0470:3KYQYYSHYWEJI5EPNVPA1306SRCDOX", "current_trial": 216, "dateTime": 1510941531355, "trialdata": {"rt": -1, "stimulus": "<p id=\"stim\">8</p>", "key_press": -1, "trial_type": "single-stim", "trial_index": 216, "time_elapsed": 984663, "internal_node_id": "0.0-160.0-2.0"}}, {"uniqueid": "MTK0470:3KYQYYSHYWEJI5EPNVPA1306SRCDOX", "current_trial": 217, "dateTime": 1510941532356, "trialdata": {"rt": -1, "stimulus": "<p id=\"stim\">7</p>", "key_press": -1, "trial_type": "single-stim", "trial_index": 217, "time_elapsed": 985663, "internal_node_id": "0.0-160.0-3.0"}}, {"uniqueid": "MTK0470:3KYQYYSHYWEJI5EPNVPA1306SRCDOX", "current_trial": 218, "dateTime": 1510941533357, "trialdata": {"rt": -1, "stimulus": "<p id=\"stim\">6</p>", "key_press": -1, "trial_type": "single-stim", "trial_index": 218, "time_elapsed": 986665, "internal_node_id": "0.0-160.0-4.0"}}, {"uniqueid": "MTK0470:3KYQYYSHYWEJI5EPNVPA1306SRCDOX", "current_trial": 219, "dateTime": 1510941534358, "trialdata": {"rt": -1, "stimulus": "<p id=\"stim\">5</p>", "key_press": -1, "trial_type": "single-stim", "trial_index": 219, "time_elapsed": 987666, "internal_node_id": "0.0-160.0-5.0"}}, {"uniqueid": "MTK0470:3KYQYYSHYWEJI5EPNVPA1306SRCDOX", "current_trial": 220, "dateTime": 1510941535358, "trialdata": {"rt": -1, "stimulus": "<p id=\"stim\">4</p>", "key_press": -1, "trial_type": "single-stim", "trial_index": 220, "time_elapsed": 988666, "internal_node_id": "0.0-160.0-6.0"}}, {"uniqueid": "MTK0470:3KYQYYSHYWEJI5EPNVPA1306SRCDOX", "current_trial": 221, "dateTime": 1510941536358, "trialdata": {"rt": -1, "stimulus": "<p id=\"stim\">3</p>", "key_press": -1, "trial_type": "single-stim", "trial_index": 221, "time_elapsed": 989666, "internal_node_id": "0.0-160.0-7.0"}}, {"uniqueid": "MTK0470:3KYQYYSHYWEJI5EPNVPA1306SRCDOX", "current_trial": 222, "dateTime": 1510941537359, "trialdata": {"rt": -1, "stimulus": "<p id=\"stim\">2</p>", "key_press": -1, "trial_type": "single-stim", "trial_index": 222, "time_elapsed": 990667, "internal_node_id": "0.0-160.0-8.0"}}, {"uniqueid": "MTK0470:3KYQYYSHYWEJI5EPNVPA1306SRCDOX", "current_trial": 223, "dateTime": 1510941538359, "trialdata": {"rt": -1, "stimulus": "<p id=\"stim\">1</p>", "key_press": -1, "trial_type": "single-stim", "trial_index": 223, "time_elapsed": 991667, "internal_node_id": "0.0-160.0-9.0"}}, {"uniqueid": "MTK0470:3KYQYYSHYWEJI5EPNVPA1306SRCDOX", "current_trial": 224, "dateTime": 1510941539859, "trialdata": {"rt": -1, "stimulus": "<p id=\"stim\">+</p>", "key_press": -1, "type": "FIXATION", "trial_type": "single-stim", "trial_index": 224, "time_elapsed": 993167, "internal_node_id": "0.0-161.0-0.0"}}, {"uniqueid": "MTK0470:3KYQYYSHYWEJI5EPNVPA1306SRCDOX", "current_trial": 225, "dateTime": 1510941541460, "trialdata": {"rt": -1, "stimulus": "<p id=\"stim\">RABBIT</p>", "key_press": -1, "type": "PRES_VIS", "word": "rabbit", "wordID": 1151, "conditions": [24, 1600, "v", 24000], "trial": 6, "serialpos": 0, "trial_type": "single-stim", "trial_index": 225, "time_elapsed": 994768, "internal_node_id": "0.0-162.0"}}, {"uniqueid": "MTK0470:3KYQYYSHYWEJI5EPNVPA1306SRCDOX", "current_trial": 226, "dateTime": 1510941543965, "trialdata": {"rt": -1, "stimulus": "<p id=\"stim\">ACTOR</p>", "key_press": -1, "type": "PRES_VIS", "word": "actor", "wordID": 4, "conditions": [24, 1600, "v", 24000], "trial": 6, "serialpos": 1, "trial_type": "single-stim", "trial_index": 226, "time_elapsed": 997273, "internal_node_id": "0.0-163.0"}}, {"uniqueid": "MTK0470:3KYQYYSHYWEJI5EPNVPA1306SRCDOX", "current_trial": 227, "dateTime": 1510941546525, "trialdata": {"rt": -1, "stimulus": "<p id=\"stim\">FILM</p>", "key_press": -1, "type": "PRES_VIS", "word": "film", "wordID": 564, "conditions": [24, 1600, "v", 24000], "trial": 6, "serialpos": 2, "trial_type": "single-stim", "trial_index": 227, "time_elapsed": 999833, "internal_node_id": "0.0-164.0"}}, {"uniqueid": "MTK0470:3KYQYYSHYWEJI5EPNVPA1306SRCDOX", "current_trial": 228, "dateTime": 1510941549234, "trialdata": {"rt": -1, "stimulus": "<p id=\"stim\">VAGRANT</p>", "key_press": -1, "type": "PRES_VIS", "word": "vagrant", "wordID": 1543, "conditions": [24, 1600, "v", 24000], "trial": 6, "serialpos": 3, "trial_type": "single-stim", "trial_index": 228, "time_elapsed": 1002542, "internal_node_id": "0.0-165.0"}}, {"uniqueid": "MTK0470:3KYQYYSHYWEJI5EPNVPA1306SRCDOX", "current_trial": 229, "dateTime": 1510941552021, "trialdata": {"rt": -1, "stimulus": "<p id=\"stim\">SPACE</p>", "key_press": -1, "type": "PRES_VIS", "word": "space", "wordID": 1344, "conditions": [24, 1600, "v", 24000], "trial": 6, "serialpos": 4, "trial_type": "single-stim", "trial_index": 229, "time_elapsed": 1005329, "internal_node_id": "0.0-166.0"}}, {"uniqueid": "MTK0470:3KYQYYSHYWEJI5EPNVPA1306SRCDOX", "current_trial": 230, "dateTime": 1510941554770, "trialdata": {"rt": -1, "stimulus": "<p id=\"stim\">NOMAD</p>", "key_press": -1, "type": "PRES_VIS", "word": "nomad", "wordID": 954, "conditions": [24, 1600, "v", 24000], "trial": 6, "serialpos": 5, "trial_type": "single-stim", "trial_index": 230, "time_elapsed": 1008078, "internal_node_id": "0.0-167.0"}}, {"uniqueid": "MTK0470:3KYQYYSHYWEJI5EPNVPA1306SRCDOX", "current_trial": 231, "dateTime": 1510941557384, "trialdata": {"rt": -1, "stimulus": "<p id=\"stim\">PORK</p>", "key_press": -1, "type": "PRES_VIS", "word": "pork", "wordID": 1107, "conditions": [24, 1600, "v", 24000], "trial": 6, "serialpos": 6, "trial_type": "single-stim", "trial_index": 231, "time_elapsed": 1010692, "internal_node_id": "0.0-168.0"}}, {"uniqueid": "MTK0470:3KYQYYSHYWEJI5EPNVPA1306SRCDOX", "current_trial": 232, "dateTime": 1510941560005, "trialdata": {"rt": -1, "stimulus": "<p id=\"stim\">JELLY</p>", "key_press": -1, "type": "PRES_VIS", "word": "jelly", "wordID": 754, "conditions": [24, 1600, "v", 24000], "trial": 6, "serialpos": 7, "trial_type": "single-stim", "trial_index": 232, "time_elapsed": 1013313, "internal_node_id": "0.0-169.0"}}, {"uniqueid": "MTK0470:3KYQYYSHYWEJI5EPNVPA1306SRCDOX", "current_trial": 233, "dateTime": 1510941562645, "trialdata": {"rt": -1, "stimulus": "<p id=\"stim\">FUNGUS</p>", "key_press": -1, "type": "PRES_VIS", "word": "fungus", "wordID": 613, "conditions": [24, 1600, "v", 24000], "trial": 6, "serialpos": 8, "trial_type": "single-stim", "trial_index": 233, "time_elapsed": 1015953, "internal_node_id": "0.0-170.0"}}, {"uniqueid": "MTK0470:3KYQYYSHYWEJI5EPNVPA1306SRCDOX", "current_trial": 234, "dateTime": 1510941565280, "trialdata": {"rt": -1, "stimulus": "<p id=\"stim\">SEAFOOD</p>", "key_press": -1, "type": "PRES_VIS", "word": "seafood", "wordID": 1259, "conditions": [24, 1600, "v", 24000], "trial": 6, "serialpos": 9, "trial_type": "single-stim", "trial_index": 234, "time_elapsed": 1018588, "internal_node_id": "0.0-171.0"}}, {"uniqueid": "MTK0470:3KYQYYSHYWEJI5EPNVPA1306SRCDOX", "current_trial": 235, "dateTime": 1510941567971, "trialdata": {"rt": -1, "stimulus": "<p id=\"stim\">SPIDER</p>", "key_press": -1, "type": "PRES_VIS", "word": "spider", "wordID": 1350, "conditions": [24, 1600, "v", 24000], "trial": 6, "serialpos": 10, "trial_type": "single-stim", "trial_index": 235, "time_elapsed": 1021279, "internal_node_id": "0.0-172.0"}}, {"uniqueid": "MTK0470:3KYQYYSHYWEJI5EPNVPA1306SRCDOX", "current_trial": 236, "dateTime": 1510941570628, "trialdata": {"rt": -1, "stimulus": "<p id=\"stim\">ROBOT</p>", "key_press": -1, "type": "PRES_VIS", "word": "robot", "wordID": 1199, "conditions": [24, 1600, "v", 24000], "trial": 6, "serialpos": 11, "trial_type": "single-stim", "trial_index": 236, "time_elapsed": 1023936, "internal_node_id": "0.0-173.0"}}, {"uniqueid": "MTK0470:3KYQYYSHYWEJI5EPNVPA1306SRCDOX", "current_trial": 237, "dateTime": 1510941573153, "trialdata": {"rt": -1, "stimulus": "<p id=\"stim\">INMATE</p>", "key_press": -1, "type": "PRES_VIS", "word": "inmate", "wordID": 737, "conditions": [24, 1600, "v", 24000], "trial": 6, "serialpos": 12, "trial_type": "single-stim", "trial_index": 237, "time_elapsed": 1026461, "internal_node_id": "0.0-174.0"}}, {"uniqueid": "MTK0470:3KYQYYSHYWEJI5EPNVPA1306SRCDOX", "current_trial": 238, "dateTime": 1510941575880, "trialdata": {"rt": -1, "stimulus": "<p id=\"stim\">CAPTIVE</p>", "key_press": -1, "type": "PRES_VIS", "word": "captive", "wordID": 239, "conditions": [24, 1600, "v", 24000], "trial": 6, "serialpos": 13, "trial_type": "single-stim", "trial_index": 238, "time_elapsed": 1029188, "internal_node_id": "0.0-175.0"}}, {"uniqueid": "MTK0470:3KYQYYSHYWEJI5EPNVPA1306SRCDOX", "current_trial": 239, "dateTime": 1510941578321, "trialdata": {"rt": -1, "stimulus": "<p id=\"stim\">LETTUCE</p>", "key_press": -1, "type": "PRES_VIS", "word": "lettuce", "wordID": 813, "conditions": [24, 1600, "v", 24000], "trial": 6, "serialpos": 14, "trial_type": "single-stim", "trial_index": 239, "time_elapsed": 1031629, "internal_node_id": "0.0-176.0"}}, {"uniqueid": "MTK0470:3KYQYYSHYWEJI5EPNVPA1306SRCDOX", "current_trial": 240, "dateTime": 1510941580939, "trialdata": {"rt": -1, "stimulus": "<p id=\"stim\">ONION</p>", "key_press": -1, "type": "PRES_VIS", "word": "onion", "wordID": 976, "conditions": [24, 1600, "v", 24000], "trial": 6, "serialpos": 15, "trial_type": "single-stim", "trial_index": 240, "time_elapsed": 1034246, "internal_node_id": "0.0-177.0"}}, {"uniqueid": "MTK0470:3KYQYYSHYWEJI5EPNVPA1306SRCDOX", "current_trial": 241, "dateTime": 1510941583495, "trialdata": {"rt": -1, "stimulus": "<p id=\"stim\">HERO</p>", "key_press": -1, "type": "PRES_VIS", "word": "hero", "wordID": 705, "conditions": [24, 1600, "v", 24000], "trial": 6, "serialpos": 16, "trial_type": "single-stim", "trial_index": 241, "time_elapsed": 1036803, "internal_node_id": "0.0-178.0"}}, {"uniqueid": "MTK0470:3KYQYYSHYWEJI5EPNVPA1306SRCDOX", "current_trial": 242, "dateTime": 1510941586062, "trialdata": {"rt": -1, "stimulus": "<p id=\"stim\">COCKTAIL</p>", "key_press": -1, "type": "PRES_VIS", "word": "cocktail", "wordID": 337, "conditions": [24, 1600, "v", 24000], "trial": 6, "serialpos": 17, "trial_type": "single-stim", "trial_index": 242, "time_elapsed": 1039370, "internal_node_id": "0.0-179.0"}}, {"uniqueid": "MTK0470:3KYQYYSHYWEJI5EPNVPA1306SRCDOX", "current_trial": 243, "dateTime": 1510941588682, "trialdata": {"rt": -1, "stimulus": "<p id=\"stim\">SHORTCAKE</p>", "key_press": -1, "type": "PRES_VIS", "word": "shortcake", "wordID": 1291, "conditions": [24, 1600, "v", 24000], "trial": 6, "serialpos": 18, "trial_type": "single-stim", "trial_index": 243, "time_elapsed": 1041990, "internal_node_id": "0.0-180.0"}}, {"uniqueid": "MTK0470:3KYQYYSHYWEJI5EPNVPA1306SRCDOX", "current_trial": 244, "dateTime": 1510941591474, "trialdata": {"rt": -1, "stimulus": "<p id=\"stim\">DENTIST</p>", "key_press": -1, "type": "PRES_VIS", "word": "dentist", "wordID": 446, "conditions": [24, 1600, "v", 24000], "trial": 6, "serialpos": 19, "trial_type": "single-stim", "trial_index": 244, "time_elapsed": 1044782, "internal_node_id": "0.0-181.0"}}, {"uniqueid": "MTK0470:3KYQYYSHYWEJI5EPNVPA1306SRCDOX", "current_trial": 245, "dateTime": 1510941594238, "trialdata": {"rt": -1, "stimulus": "<p id=\"stim\">STOMACH</p>", "key_press": -1, "type": "PRES_VIS", "word": "stomach", "wordID": 1383, "conditions": [24, 1600, "v", 24000], "trial": 6, "serialpos": 20, "trial_type": "single-stim", "trial_index": 245, "time_elapsed": 1047546, "internal_node_id": "0.0-182.0"}}, {"uniqueid": "MTK0470:3KYQYYSHYWEJI5EPNVPA1306SRCDOX", "current_trial": 246, "dateTime": 1510941596660, "trialdata": {"rt": -1, "stimulus": "<p id=\"stim\">BROTHER</p>", "key_press": -1, "type": "PRES_VIS", "word": "brother", "wordID": 178, "conditions": [24, 1600, "v", 24000], "trial": 6, "serialpos": 21, "trial_type": "single-stim", "trial_index": 246, "time_elapsed": 1049968, "internal_node_id": "0.0-183.0"}}, {"uniqueid": "MTK0470:3KYQYYSHYWEJI5EPNVPA1306SRCDOX", "current_trial": 247, "dateTime": 1510941599223, "trialdata": {"rt": -1, "stimulus": "<p id=\"stim\">ROBBER</p>", "key_press": -1, "type": "PRES_VIS", "word": "robber", "wordID": 1196, "conditions": [24, 1600, "v", 24000], "trial": 6, "serialpos": 22, "trial_type": "single-stim", "trial_index": 247, "time_elapsed": 1052531, "internal_node_id": "0.0-184.0"}}, {"uniqueid": "MTK0470:3KYQYYSHYWEJI5EPNVPA1306SRCDOX", "current_trial": 248, "dateTime": 1510941601646, "trialdata": {"rt": -1, "stimulus": "<p id=\"stim\">SALAD</p>", "key_press": -1, "type": "PRES_VIS", "word": "salad", "wordID": 1223, "conditions": [24, 1600, "v", 24000], "trial": 6, "serialpos": 23, "trial_type": "single-stim", "trial_index": 248, "time_elapsed": 1054954, "internal_node_id": "0.0-185.0"}}, {"uniqueid": "MTK0470:3KYQYYSHYWEJI5EPNVPA1306SRCDOX", "current_trial": 249, "dateTime": 1510941603835, "trialdata": {"rt": -1, "stimulus": "", "key_press": -1, "type": "PRE_RECALL_DELAY", "trial_type": "single-stim", "trial_index": 249, "time_elapsed": 1057143, "internal_node_id": "0.0-186.0-0.0"}}, {"uniqueid": "MTK0470:3KYQYYSHYWEJI5EPNVPA1306SRCDOX", "current_trial": 250, "dateTime": 1510941604335, "trialdata": {"rt": -1000, "stimulus": "/static/audio/400Hz.wav", "key_press": -1, "type": "PRE_RECALL_ALERT", "trial_type": "single-audio", "trial_index": 250, "time_elapsed": 1057643, "internal_node_id": "0.0-187.0"}}, {"uniqueid": "MTK0470:3KYQYYSHYWEJI5EPNVPA1306SRCDOX", "current_trial": 251, "dateTime": 1510941664339, "trialdata": {"rt": [2108, 3732, 5105, 7010, 10643, 25760, 29414, 33778, 44793], "recwords": ["salad", "dentist", "robber", "inmate", "captive", "lettuce", "onion", "hero", "spider"], "type": "FREE_RECALL", "conditions": [24, 1600, "v", 24000], "trial": 6, "trial_type": "free-recall", "trial_index": 251, "time_elapsed": 1117644, "internal_node_id": "0.0-188.0-0.0"}}, {"uniqueid": "MTK0470:3KYQYYSHYWEJI5EPNVPA1306SRCDOX", "current_trial": 252, "dateTime": 1510941676640, "trialdata": {"rt": 10300, "key_press": 32, "type": "INSTRUCTIONS", "trial_type": "text", "trial_index": 252, "time_elapsed": 1129948, "internal_node_id": "0.0-189.0"}}, {"uniqueid": "MTK0470:3KYQYYSHYWEJI5EPNVPA1306SRCDOX", "current_trial": 253, "dateTime": 1510941702641, "trialdata": {"rt": [3959, 6779, 9551, 12989, 15831, 18442, 20592, 22777], "responses": ["17", "11", "16", "14", "20", "20", "9", "11"], "num1": [4, 3, 6, 9, 9, 8, 3, 1, 1], "num2": [9, 3, 3, 4, 5, 8, 5, 1, 1], "num3": [4, 5, 7, 1, 6, 4, 1, 9, 6], "type": "DISTRACTOR", "conditions": [24, 1600, "a", 24000], "trial": 7, "trial_type": "math-distractor", "trial_index": 253, "time_elapsed": 1155949, "internal_node_id": "0.0-190.0"}}, {"uniqueid": "MTK0470:3KYQYYSHYWEJI5EPNVPA1306SRCDOX", "current_trial": 254, "dateTime": 1510941705641, "trialdata": {"rt": -1, "stimulus": "<p id=\"stim\">10</p>", "key_press": -1, "trial_type": "single-stim", "trial_index": 254, "time_elapsed": 1158949, "internal_node_id": "0.0-191.0-0.0"}}, {"uniqueid": "MTK0470:3KYQYYSHYWEJI5EPNVPA1306SRCDOX", "current_trial": 255, "dateTime": 1510941706641, "trialdata": {"rt": -1, "stimulus": "<p id=\"stim\">9</p>", "key_press": -1, "trial_type": "single-stim", "trial_index": 255, "time_elapsed": 1159949, "internal_node_id": "0.0-191.0-1.0"}}, {"uniqueid": "MTK0470:3KYQYYSHYWEJI5EPNVPA1306SRCDOX", "current_trial": 256, "dateTime": 1510941707642, "trialdata": {"rt": -1, "stimulus": "<p id=\"stim\">8</p>", "key_press": -1, "trial_type": "single-stim", "trial_index": 256, "time_elapsed": 1160950, "internal_node_id": "0.0-191.0-2.0"}}, {"uniqueid": "MTK0470:3KYQYYSHYWEJI5EPNVPA1306SRCDOX", "current_trial": 257, "dateTime": 1510941708643, "trialdata": {"rt": -1, "stimulus": "<p id=\"stim\">7</p>", "key_press": -1, "trial_type": "single-stim", "trial_index": 257, "time_elapsed": 1161951, "internal_node_id": "0.0-191.0-3.0"}}, {"uniqueid": "MTK0470:3KYQYYSHYWEJI5EPNVPA1306SRCDOX", "current_trial": 258, "dateTime": 1510941709644, "trialdata": {"rt": -1, "stimulus": "<p id=\"stim\">6</p>", "key_press": -1, "trial_type": "single-stim", "trial_index": 258, "time_elapsed": 1162952, "internal_node_id": "0.0-191.0-4.0"}}, {"uniqueid": "MTK0470:3KYQYYSHYWEJI5EPNVPA1306SRCDOX", "current_trial": 259, "dateTime": 1510941710644, "trialdata": {"rt": -1, "stimulus": "<p id=\"stim\">5</p>", "key_press": -1, "trial_type": "single-stim", "trial_index": 259, "time_elapsed": 1163952, "internal_node_id": "0.0-191.0-5.0"}}, {"uniqueid": "MTK0470:3KYQYYSHYWEJI5EPNVPA1306SRCDOX", "current_trial": 260, "dateTime": 1510941711645, "trialdata": {"rt": -1, "stimulus": "<p id=\"stim\">4</p>", "key_press": -1, "trial_type": "single-stim", "trial_index": 260, "time_elapsed": 1164953, "internal_node_id": "0.0-191.0-6.0"}}, {"uniqueid": "MTK0470:3KYQYYSHYWEJI5EPNVPA1306SRCDOX", "current_trial": 261, "dateTime": 1510941712645, "trialdata": {"rt": -1, "stimulus": "<p id=\"stim\">3</p>", "key_press": -1, "trial_type": "single-stim", "trial_index": 261, "time_elapsed": 1165953, "internal_node_id": "0.0-191.0-7.0"}}, {"uniqueid": "MTK0470:3KYQYYSHYWEJI5EPNVPA1306SRCDOX", "current_trial": 262, "dateTime": 1510941713645, "trialdata": {"rt": -1, "stimulus": "<p id=\"stim\">2</p>", "key_press": -1, "trial_type": "single-stim", "trial_index": 262, "time_elapsed": 1166953, "internal_node_id": "0.0-191.0-8.0"}}, {"uniqueid": "MTK0470:3KYQYYSHYWEJI5EPNVPA1306SRCDOX", "current_trial": 263, "dateTime": 1510941714645, "trialdata": {"rt": -1, "stimulus": "<p id=\"stim\">1</p>", "key_press": -1, "trial_type": "single-stim", "trial_index": 263, "time_elapsed": 1167953, "internal_node_id": "0.0-191.0-9.0"}}, {"uniqueid": "MTK0470:3KYQYYSHYWEJI5EPNVPA1306SRCDOX", "current_trial": 264, "dateTime": 1510941716145, "trialdata": {"rt": -1, "stimulus": "<p id=\"stim\">+</p>", "key_press": -1, "type": "FIXATION", "trial_type": "single-stim", "trial_index": 264, "time_elapsed": 1169453, "internal_node_id": "0.0-192.0-0.0"}}, {"uniqueid": "MTK0470:3KYQYYSHYWEJI5EPNVPA1306SRCDOX", "current_trial": 265, "dateTime": 1510941718874, "trialdata": {"rt": -1000, "stimulus": "/static/audio/wordpool/BARREL.wav", "key_press": -1, "type": "PRES_AUD", "word": "barrel", "wordID": 90, "conditions": [24, 1600, "a", 24000], "trial": 7, "serialpos": 0, "trial_type": "single-audio", "trial_index": 265, "time_elapsed": 1172182, "internal_node_id": "0.0-193.0"}}, {"uniqueid": "MTK0470:3KYQYYSHYWEJI5EPNVPA1306SRCDOX", "current_trial": 266, "dateTime": 1510941721546, "trialdata": {"rt": -1000, "stimulus": "/static/audio/wordpool/TURKEY.wav", "key_press": -1, "type": "PRES_AUD", "word": "turkey", "wordID": 1519, "conditions": [24, 1600, "a", 24000], "trial": 7, "serialpos": 1, "trial_type": "single-audio", "trial_index": 266, "time_elapsed": 1174854, "internal_node_id": "0.0-194.0"}}, {"uniqueid": "MTK0470:3KYQYYSHYWEJI5EPNVPA1306SRCDOX", "current_trial": 267, "dateTime": 1510941724245, "trialdata": {"rt": -1000, "stimulus": "/static/audio/wordpool/VELVET.wav", "key_press": -1, "type": "PRES_AUD", "word": "velvet", "wordID": 1554, "conditions": [24, 1600, "a", 24000], "trial": 7, "serialpos": 2, "trial_type": "single-audio", "trial_index": 267, "time_elapsed": 1177553, "internal_node_id": "0.0-195.0"}}, {"uniqueid": "MTK0470:3KYQYYSHYWEJI5EPNVPA1306SRCDOX", "current_trial": 268, "dateTime": 1510941726865, "trialdata": {"rt": -1000, "stimulus": "/static/audio/wordpool/SILK.wav", "key_press": -1, "type": "PRES_AUD", "word": "silk", "wordID": 1306, "conditions": [24, 1600, "a", 24000], "trial": 7, "serialpos": 3, "trial_type": "single-audio", "trial_index": 268, "time_elapsed": 1180172, "internal_node_id": "0.0-196.0"}}, {"uniqueid": "MTK0470:3KYQYYSHYWEJI5EPNVPA1306SRCDOX", "current_trial": 269, "dateTime": 1510941729383, "trialdata": {"rt": -1000, "stimulus": "/static/audio/wordpool/CHEST.wav", "key_press": -1, "type": "PRES_AUD", "word": "chest", "wordID": 294, "conditions": [24, 1600, "a", 24000], "trial": 7, "serialpos": 4, "trial_type": "single-audio", "trial_index": 269, "time_elapsed": 1182691, "internal_node_id": "0.0-197.0"}}, {"uniqueid": "MTK0470:3KYQYYSHYWEJI5EPNVPA1306SRCDOX", "current_trial": 270, "dateTime": 1510941731810, "trialdata": {"rt": -1000, "stimulus": "/static/audio/wordpool/GALLON.wav", "key_press": -1, "type": "PRES_AUD", "word": "gallon", "wordID": 617, "conditions": [24, 1600, "a", 24000], "trial": 7, "serialpos": 5, "trial_type": "single-audio", "trial_index": 270, "time_elapsed": 1185117, "internal_node_id": "0.0-198.0"}}, {"uniqueid": "MTK0470:3KYQYYSHYWEJI5EPNVPA1306SRCDOX", "current_trial": 271, "dateTime": 1510941734264, "trialdata": {"rt": -1000, "stimulus": "/static/audio/wordpool/APPLE.wav", "key_press": -1, "type": "PRES_AUD", "word": "apple", "wordID": 32, "conditions": [24, 1600, "a", 24000], "trial": 7, "serialpos": 6, "trial_type": "single-audio", "trial_index": 271, "time_elapsed": 1187572, "internal_node_id": "0.0-199.0"}}, {"uniqueid": "MTK0470:3KYQYYSHYWEJI5EPNVPA1306SRCDOX", "current_trial": 272, "dateTime": 1510941736793, "trialdata": {"rt": -1000, "stimulus": "/static/audio/wordpool/FARMER.wav", "key_press": -1, "type": "PRES_AUD", "word": "farmer", "wordID": 552, "conditions": [24, 1600, "a", 24000], "trial": 7, "serialpos": 7, "trial_type": "single-audio", "trial_index": 272, "time_elapsed": 1190101, "internal_node_id": "0.0-200.0"}}, {"uniqueid": "MTK0470:3KYQYYSHYWEJI5EPNVPA1306SRCDOX", "current_trial": 273, "dateTime": 1510941739479, "trialdata": {"rt": -10