{"condition": 0, "counterbalance": 2016, "assignmentId": "30IQTZXKALDCDURNCAOB597GCW1X04", "workerId": "MTK0771", "hitId": "3XABXM4AJ1C8Z2XKVY1WFWLLILL8QX", "currenttrial": 626, "bonus": 0, "data": [{"uniqueid": "MTK0771:30IQTZXKALDCDURNCAOB597GCW1X04", "current_trial": 0, "dateTime": 1512750734194, "trialdata": {"rt": 31304, "key_press": 32, "type": "INSTRUCTIONS", "trial_type": "text", "trial_index": 0, "time_elapsed": 31309, "internal_node_id": "0.0-0.0"}}, {"uniqueid": "MTK0771:30IQTZXKALDCDURNCAOB597GCW1X04", "current_trial": 1, "dateTime": 1512750743806, "trialdata": {"rt": 9609, "key_press": 32, "type": "INSTRUCTIONS", "trial_type": "text", "trial_index": 1, "time_elapsed": 40922, "internal_node_id": "0.0-1.0"}}, {"uniqueid": "MTK0771:30IQTZXKALDCDURNCAOB597GCW1X04", "current_trial": 2, "dateTime": 1512750753809, "trialdata": {"rt": [9932], "responses": ["ocean"], "type": "AUDIO_TEST", "trial_type": "audio-test", "trial_index": 2, "time_elapsed": 50924, "internal_node_id": "0.0-2.0"}}, {"uniqueid": "MTK0771:30IQTZXKALDCDURNCAOB597GCW1X04", "current_trial": 3, "dateTime": 1512750757933, "trialdata": {"rt": [4111], "responses": ["crystal"], "type": "AUDIO_TEST", "trial_type": "audio-test", "trial_index": 3, "time_elapsed": 55049, "internal_node_id": "0.0-3.0"}}, {"uniqueid": "MTK0771:30IQTZXKALDCDURNCAOB597GCW1X04", "current_trial": 4, "dateTime": 1512750761297, "trialdata": {"rt": [3351], "responses": ["spice"], "type": "AUDIO_TEST", "trial_type": "audio-test", "trial_index": 4, "time_elapsed": 58413, "internal_node_id": "0.0-4.0"}}, {"uniqueid": "MTK0771:30IQTZXKALDCDURNCAOB597GCW1X04", "current_trial": 5, "dateTime": 1512750772467, "trialdata": {"rt": 10415, "responses": "{\"Q0\":\"1 AM\",\"Q1\":\"10 AM\",\"Q2\":\"4\"}", "type": "SLEEP_SURVEY", "trial_type": "survey-text", "trial_index": 5, "time_elapsed": 69583, "internal_node_id": "0.0-5.0"}}, {"uniqueid": "MTK0771:30IQTZXKALDCDURNCAOB597GCW1X04", "current_trial": 6, "dateTime": 1512750792994, "trialdata": {"rt": 19524, "key_press": 32, "type": "INSTRUCTIONS", "trial_type": "text", "trial_index": 6, "time_elapsed": 90110, "internal_node_id": "0.0-6.0"}}, {"uniqueid": "MTK0771:30IQTZXKALDCDURNCAOB597GCW1X04", "current_trial": 7, "dateTime": 1512750799972, "trialdata": {"rt": 6476, "key_press": 32, "type": "INSTRUCTIONS", "trial_type": "text", "trial_index": 7, "time_elapsed": 97087, "internal_node_id": "0.0-7.0"}}, {"uniqueid": "MTK0771:30IQTZXKALDCDURNCAOB597GCW1X04", "current_trial": 8, "dateTime": 1512750802297, "trialdata": {"rt": 1823, "key_press": 32, "type": "INSTRUCTIONS", "trial_type": "text", "trial_index": 8, "time_elapsed": 99413, "internal_node_id": "0.0-8.0"}}, {"uniqueid": "MTK0771:30IQTZXKALDCDURNCAOB597GCW1X04", "current_trial": 9, "dateTime": 1512750821312, "trialdata": {"rt": [5028, 6404, 8988, 11911, 14988, 16392], "responses": ["16", "12", "12", "9", "22", "12"], "num1": [5, 5, 4, 2, 5, 2, 6], "num2": [2, 2, 2, 5, 9, 5, 1], "num3": [9, 5, 6, 2, 8, 5, 7], "type": "DISTRACTOR", "conditions": [18, 1200, "a", 18000], "trial": 0, "trial_type": "math-distractor", "trial_index": 9, "time_elapsed": 118427, "internal_node_id": "0.0-9.0"}}, {"uniqueid": "MTK0771:30IQTZXKALDCDURNCAOB597GCW1X04", "current_trial": 10, "dateTime": 1512750824316, "trialdata": {"rt": -1, "stimulus": "<p id=\"stim\">10</p>", "key_press": -1, "trial_type": "single-stim", "trial_index": 10, "time_elapsed": 121432, "internal_node_id": "0.0-10.0-0.0"}}, {"uniqueid": "MTK0771:30IQTZXKALDCDURNCAOB597GCW1X04", "current_trial": 11, "dateTime": 1512750825318, "trialdata": {"rt": -1, "stimulus": "<p id=\"stim\">9</p>", "key_press": -1, "trial_type": "single-stim", "trial_index": 11, "time_elapsed": 122434, "internal_node_id": "0.0-10.0-1.0"}}, {"uniqueid": "MTK0771:30IQTZXKALDCDURNCAOB597GCW1X04", "current_trial": 12, "dateTime": 1512750826320, "trialdata": {"rt": -1, "stimulus": "<p id=\"stim\">8</p>", "key_press": -1, "trial_type": "single-stim", "trial_index": 12, "time_elapsed": 123436, "internal_node_id": "0.0-10.0-2.0"}}, {"uniqueid": "MTK0771:30IQTZXKALDCDURNCAOB597GCW1X04", "current_trial": 13, "dateTime": 1512750827323, "trialdata": {"rt": -1, "stimulus": "<p id=\"stim\">7</p>", "key_press": -1, "trial_type": "single-stim", "trial_index": 13, "time_elapsed": 124438, "internal_node_id": "0.0-10.0-3.0"}}, {"uniqueid": "MTK0771:30IQTZXKALDCDURNCAOB597GCW1X04", "current_trial": 14, "dateTime": 1512750828325, "trialdata": {"rt": -1, "stimulus": "<p id=\"stim\">6</p>", "key_press": -1, "trial_type": "single-stim", "trial_index": 14, "time_elapsed": 125441, "internal_node_id": "0.0-10.0-4.0"}}, {"uniqueid": "MTK0771:30IQTZXKALDCDURNCAOB597GCW1X04", "current_trial": 15, "dateTime": 1512750829329, "trialdata": {"rt": -1, "stimulus": "<p id=\"stim\">5</p>", "key_press": -1, "trial_type": "single-stim", "trial_index": 15, "time_elapsed": 126444, "internal_node_id": "0.0-10.0-5.0"}}, {"uniqueid": "MTK0771:30IQTZXKALDCDURNCAOB597GCW1X04", "current_trial": 16, "dateTime": 1512750830332, "trialdata": {"rt": -1, "stimulus": "<p id=\"stim\">4</p>", "key_press": -1, "trial_type": "single-stim", "trial_index": 16, "time_elapsed": 127448, "internal_node_id": "0.0-10.0-6.0"}}, {"uniqueid": "MTK0771:30IQTZXKALDCDURNCAOB597GCW1X04", "current_trial": 17, "dateTime": 1512750831335, "trialdata": {"rt": -1, "stimulus": "<p id=\"stim\">3</p>", "key_press": -1, "trial_type": "single-stim", "trial_index": 17, "time_elapsed": 128451, "internal_node_id": "0.0-10.0-7.0"}}, {"uniqueid": "MTK0771:30IQTZXKALDCDURNCAOB597GCW1X04", "current_trial": 18, "dateTime": 1512750832338, "trialdata": {"rt": -1, "stimulus": "<p id=\"stim\">2</p>", "key_press": -1, "trial_type": "single-stim", "trial_index": 18, "time_elapsed": 129453, "internal_node_id": "0.0-10.0-8.0"}}, {"uniqueid": "MTK0771:30IQTZXKALDCDURNCAOB597GCW1X04", "current_trial": 19, "dateTime": 1512750833340, "trialdata": {"rt": -1, "stimulus": "<p id=\"stim\">1</p>", "key_press": -1, "trial_type": "single-stim", "trial_index": 19, "time_elapsed": 130455, "internal_node_id": "0.0-10.0-9.0"}}, {"uniqueid": "MTK0771:30IQTZXKALDCDURNCAOB597GCW1X04", "current_trial": 20, "dateTime": 1512750834845, "trialdata": {"rt": -1, "stimulus": "<p id=\"stim\">+</p>", "key_press": -1, "type": "FIXATION", "trial_type": "single-stim", "trial_index": 20, "time_elapsed": 131959, "internal_node_id": "0.0-11.0-0.0"}}, {"uniqueid": "MTK0771:30IQTZXKALDCDURNCAOB597GCW1X04", "current_trial": 21, "dateTime": 1512750836883, "trialdata": {"rt": -1000, "stimulus": "/static/audio/wordpool/RUG.wav", "key_press": -1, "type": "PRES_AUD", "word": "rug", "wordID": 1214, "conditions": [18, 1200, "a", 18000], "trial": 0, "serialpos": 0, "trial_type": "single-audio", "trial_index": 21, "time_elapsed": 133998, "internal_node_id": "0.0-12.0"}}, {"uniqueid": "MTK0771:30IQTZXKALDCDURNCAOB597GCW1X04", "current_trial": 22, "dateTime": 1512750839083, "trialdata": {"rt": -1000, "stimulus": "/static/audio/wordpool/PLAZA.wav", "key_press": -1, "type": "PRES_AUD", "word": "plaza", "wordID": 1087, "conditions": [18, 1200, "a", 18000], "trial": 0, "serialpos": 1, "trial_type": "single-audio", "trial_index": 22, "time_elapsed": 136199, "internal_node_id": "0.0-13.0"}}, {"uniqueid": "MTK0771:30IQTZXKALDCDURNCAOB597GCW1X04", "current_trial": 23, "dateTime": 1512750841201, "trialdata": {"rt": -1000, "stimulus": "/static/audio/wordpool/CATCHER.wav", "key_press": -1, "type": "PRES_AUD", "word": "catcher", "wordID": 257, "conditions": [18, 1200, "a", 18000], "trial": 0, "serialpos": 2, "trial_type": "single-audio", "trial_index": 23, "time_elapsed": 138316, "internal_node_id": "0.0-14.0"}}, {"uniqueid": "MTK0771:30IQTZXKALDCDURNCAOB597GCW1X04", "current_trial": 24, "dateTime": 1512750843327, "trialdata": {"rt": -1000, "stimulus": "/static/audio/wordpool/LOFT.wav", "key_press": -1, "type": "PRES_AUD", "word": "loft", "wordID": 839, "conditions": [18, 1200, "a", 18000], "trial": 0, "serialpos": 3, "trial_type": "single-audio", "trial_index": 24, "time_elapsed": 140442, "internal_node_id": "0.0-15.0"}}, {"uniqueid": "MTK0771:30IQTZXKALDCDURNCAOB597GCW1X04", "current_trial": 25, "dateTime": 1512750845456, "trialdata": {"rt": -1000, "stimulus": "/static/audio/wordpool/COUSIN.wav", "key_press": -1, "type": "PRES_AUD", "word": "cousin", "wordID": 391, "conditions": [18, 1200, "a", 18000], "trial": 0, "serialpos": 4, "trial_type": "single-audio", "trial_index": 25, "time_elapsed": 142571, "internal_node_id": "0.0-16.0"}}, {"uniqueid": "MTK0771:30IQTZXKALDCDURNCAOB597GCW1X04", "current_trial": 26, "dateTime": 1512750847577, "trialdata": {"rt": -1000, "stimulus": "/static/audio/wordpool/MISSILE.wav", "key_press": -1, "type": "PRES_AUD", "word": "missile", "wordID": 899, "conditions": [18, 1200, "a", 18000], "trial": 0, "serialpos": 5, "trial_type": "single-audio", "trial_index": 26, "time_elapsed": 144693, "internal_node_id": "0.0-17.0"}}, {"uniqueid": "MTK0771:30IQTZXKALDCDURNCAOB597GCW1X04", "current_trial": 27, "dateTime": 1512750849667, "trialdata": {"rt": -1000, "stimulus": "/static/audio/wordpool/IGLOO.wav", "key_press": -1, "type": "PRES_AUD", "word": "igloo", "wordID": 733, "conditions": [18, 1200, "a", 18000], "trial": 0, "serialpos": 6, "trial_type": "single-audio", "trial_index": 27, "time_elapsed": 146782, "internal_node_id": "0.0-18.0"}}, {"uniqueid": "MTK0771:30IQTZXKALDCDURNCAOB597GCW1X04", "current_trial": 28, "dateTime": 1512750851678, "trialdata": {"rt": -1000, "stimulus": "/static/audio/wordpool/PLIERS.wav", "key_press": -1, "type": "PRES_AUD", "word": "pliers", "wordID": 1088, "conditions": [18, 1200, "a", 18000], "trial": 0, "serialpos": 7, "trial_type": "single-audio", "trial_index": 28, "time_elapsed": 148794, "internal_node_id": "0.0-19.0"}}, {"uniqueid": "MTK0771:30IQTZXKALDCDURNCAOB597GCW1X04", "current_trial": 29, "dateTime": 1512750854040, "trialdata": {"rt": -1000, "stimulus": "/static/audio/wordpool/MUSTARD.wav", "key_press": -1, "type": "PRES_AUD", "word": "mustard", "wordID": 934, "conditions": [18, 1200, "a", 18000], "trial": 0, "serialpos": 8, "trial_type": "single-audio", "trial_index": 29, "time_elapsed": 151155, "internal_node_id": "0.0-20.0"}}, {"uniqueid": "MTK0771:30IQTZXKALDCDURNCAOB597GCW1X04", "current_trial": 30, "dateTime": 1512750856339, "trialdata": {"rt": -1000, "stimulus": "/static/audio/wordpool/ICEBERG.wav", "key_press": -1, "type": "PRES_AUD", "word": "iceberg", "wordID": 730, "conditions": [18, 1200, "a", 18000], "trial": 0, "serialpos": 9, "trial_type": "single-audio", "trial_index": 30, "time_elapsed": 153455, "internal_node_id": "0.0-21.0"}}, {"uniqueid": "MTK0771:30IQTZXKALDCDURNCAOB597GCW1X04", "current_trial": 31, "dateTime": 1512750858739, "trialdata": {"rt": -1000, "stimulus": "/static/audio/wordpool/SADDLE.wav", "key_press": -1, "type": "PRES_AUD", "word": "saddle", "wordID": 1220, "conditions": [18, 1200, "a", 18000], "trial": 0, "serialpos": 10, "trial_type": "single-audio", "trial_index": 31, "time_elapsed": 155855, "internal_node_id": "0.0-22.0"}}, {"uniqueid": "MTK0771:30IQTZXKALDCDURNCAOB597GCW1X04", "current_trial": 32, "dateTime": 1512750860948, "trialdata": {"rt": -1000, "stimulus": "/static/audio/wordpool/FLESH.wav", "key_press": -1, "type": "PRES_AUD", "word": "flesh", "wordID": 578, "conditions": [18, 1200, "a", 18000], "trial": 0, "serialpos": 11, "trial_type": "single-audio", "trial_index": 32, "time_elapsed": 158064, "internal_node_id": "0.0-23.0"}}, {"uniqueid": "MTK0771:30IQTZXKALDCDURNCAOB597GCW1X04", "current_trial": 33, "dateTime": 1512750863140, "trialdata": {"rt": -1000, "stimulus": "/static/audio/wordpool/CARRIAGE.wav", "key_press": -1, "type": "PRES_AUD", "word": "carriage", "wordID": 247, "conditions": [18, 1200, "a", 18000], "trial": 0, "serialpos": 12, "trial_type": "single-audio", "trial_index": 33, "time_elapsed": 160255, "internal_node_id": "0.0-24.0"}}, {"uniqueid": "MTK0771:30IQTZXKALDCDURNCAOB597GCW1X04", "current_trial": 34, "dateTime": 1512750865362, "trialdata": {"rt": -1000, "stimulus": "/static/audio/wordpool/FLAG.wav", "key_press": -1, "type": "PRES_AUD", "word": "flag", "wordID": 572, "conditions": [18, 1200, "a", 18000], "trial": 0, "serialpos": 13, "trial_type": "single-audio", "trial_index": 34, "time_elapsed": 162477, "internal_node_id": "0.0-25.0"}}, {"uniqueid": "MTK0771:30IQTZXKALDCDURNCAOB597GCW1X04", "current_trial": 35, "dateTime": 1512750867387, "trialdata": {"rt": -1000, "stimulus": "/static/audio/wordpool/SKIRT.wav", "key_press": -1, "type": "PRES_AUD", "word": "skirt", "wordID": 1318, "conditions": [18, 1200, "a", 18000], "trial": 0, "serialpos": 14, "trial_type": "single-audio", "trial_index": 35, "time_elapsed": 164503, "internal_node_id": "0.0-26.0"}}, {"uniqueid": "MTK0771:30IQTZXKALDCDURNCAOB597GCW1X04", "current_trial": 36, "dateTime": 1512750869692, "trialdata": {"rt": -1000, "stimulus": "/static/audio/wordpool/CABIN.wav", "key_press": -1, "type": "PRES_AUD", "word": "cabin", "wordID": 210, "conditions": [18, 1200, "a", 18000], "trial": 0, "serialpos": 15, "trial_type": "single-audio", "trial_index": 36, "time_elapsed": 166808, "internal_node_id": "0.0-27.0"}}, {"uniqueid": "MTK0771:30IQTZXKALDCDURNCAOB597GCW1X04", "current_trial": 37, "dateTime": 1512750871760, "trialdata": {"rt": -1000, "stimulus": "/static/audio/wordpool/CONCERT.wav", "key_press": -1, "type": "PRES_AUD", "word": "concert", "wordID": 359, "conditions": [18, 1200, "a", 18000], "trial": 0, "serialpos": 16, "trial_type": "single-audio", "trial_index": 37, "time_elapsed": 168876, "internal_node_id": "0.0-28.0"}}, {"uniqueid": "MTK0771:30IQTZXKALDCDURNCAOB597GCW1X04", "current_trial": 38, "dateTime": 1512750874159, "trialdata": {"rt": -1000, "stimulus": "/static/audio/wordpool/CLAM.wav", "key_press": -1, "type": "PRES_AUD", "word": "clam", "wordID": 314, "conditions": [18, 1200, "a", 18000], "trial": 0, "serialpos": 17, "trial_type": "single-audio", "trial_index": 38, "time_elapsed": 171275, "internal_node_id": "0.0-29.0"}}, {"uniqueid": "MTK0771:30IQTZXKALDCDURNCAOB597GCW1X04", "current_trial": 39, "dateTime": 1512750875398, "trialdata": {"rt": -1, "stimulus": "", "key_press": -1, "type": "PRE_RECALL_DELAY", "trial_type": "single-stim", "trial_index": 39, "time_elapsed": 172514, "internal_node_id": "0.0-30.0-0.0"}}, {"uniqueid": "MTK0771:30IQTZXKALDCDURNCAOB597GCW1X04", "current_trial": 40, "dateTime": 1512750875899, "trialdata": {"rt": -1000, "stimulus": "/static/audio/400Hz.wav", "key_press": -1, "type": "PRE_RECALL_ALERT", "trial_type": "single-audio", "trial_index": 40, "time_elapsed": 173015, "internal_node_id": "0.0-31.0"}}, {"uniqueid": "MTK0771:30IQTZXKALDCDURNCAOB597GCW1X04", "current_trial": 41, "dateTime": 1512750935910, "trialdata": {"rt": [1841, 3109, 4108, 4997, 9442, 12416, 15465, 18512, 23124, 26097], "recwords": ["rug", "plaza", "catcher", "loft", "cabin", "clam", "flesh", "pliers", "rug", "loft"], "type": "FREE_RECALL", "conditions": [18, 1200, "a", 18000], "trial": 0, "trial_type": "free-recall", "trial_index": 41, "time_elapsed": 233020, "internal_node_id": "0.0-32.0-0.0"}}, {"uniqueid": "MTK0771:30IQTZXKALDCDURNCAOB597GCW1X04", "current_trial": 42, "dateTime": 1512750938952, "trialdata": {"rt": 1039, "key_press": 32, "type": "INSTRUCTIONS", "trial_type": "text", "trial_index": 42, "time_elapsed": 236068, "internal_node_id": "0.0-33.0"}}, {"uniqueid": "MTK0771:30IQTZXKALDCDURNCAOB597GCW1X04", "current_trial": 43, "dateTime": 1512750958962, "trialdata": {"rt": [4848, 10142, 12347, 14120, 17485], "responses": ["10", "22", "21", "19", "26"], "num1": [2, 7, 8, 3, 9, 3], "num2": [3, 6, 6, 7, 8, 1], "num3": [5, 9, 7, 9, 9, 6], "type": "DISTRACTOR", "conditions": [18, 1200, "v", 18000], "trial": 1, "trial_type": "math-distractor", "trial_index": 43, "time_elapsed": 256077, "internal_node_id": "0.0-34.0"}}, {"uniqueid": "MTK0771:30IQTZXKALDCDURNCAOB597GCW1X04", "current_trial": 44, "dateTime": 1512750961965, "trialdata": {"rt": -1, "stimulus": "<p id=\"stim\">10</p>", "key_press": -1, "trial_type": "single-stim", "trial_index": 44, "time_elapsed": 259081, "internal_node_id": "0.0-35.0-0.0"}}, {"uniqueid": "MTK0771:30IQTZXKALDCDURNCAOB597GCW1X04", "current_trial": 45, "dateTime": 1512750962967, "trialdata": {"rt": -1, "stimulus": "<p id=\"stim\">9</p>", "key_press": -1, "trial_type": "single-stim", "trial_index": 45, "time_elapsed": 260083, "internal_node_id": "0.0-35.0-1.0"}}, {"uniqueid": "MTK0771:30IQTZXKALDCDURNCAOB597GCW1X04", "current_trial": 46, "dateTime": 1512750963968, "trialdata": {"rt": -1, "stimulus": "<p id=\"stim\">8</p>", "key_press": -1, "trial_type": "single-stim", "trial_index": 46, "time_elapsed": 261084, "internal_node_id": "0.0-35.0-2.0"}}, {"uniqueid": "MTK0771:30IQTZXKALDCDURNCAOB597GCW1X04", "current_trial": 47, "dateTime": 1512750964969, "trialdata": {"rt": -1, "stimulus": "<p id=\"stim\">7</p>", "key_press": -1, "trial_type": "single-stim", "trial_index": 47, "time_elapsed": 262085, "internal_node_id": "0.0-35.0-3.0"}}, {"uniqueid": "MTK0771:30IQTZXKALDCDURNCAOB597GCW1X04", "current_trial": 48, "dateTime": 1512750965971, "trialdata": {"rt": -1, "stimulus": "<p id=\"stim\">6</p>", "key_press": -1, "trial_type": "single-stim", "trial_index": 48, "time_elapsed": 263086, "internal_node_id": "0.0-35.0-4.0"}}, {"uniqueid": "MTK0771:30IQTZXKALDCDURNCAOB597GCW1X04", "current_trial": 49, "dateTime": 1512750966972, "trialdata": {"rt": -1, "stimulus": "<p id=\"stim\">5</p>", "key_press": -1, "trial_type": "single-stim", "trial_index": 49, "time_elapsed": 264088, "internal_node_id": "0.0-35.0-5.0"}}, {"uniqueid": "MTK0771:30IQTZXKALDCDURNCAOB597GCW1X04", "current_trial": 50, "dateTime": 1512750967973, "trialdata": {"rt": -1, "stimulus": "<p id=\"stim\">4</p>", "key_press": -1, "trial_type": "single-stim", "trial_index": 50, "time_elapsed": 265089, "internal_node_id": "0.0-35.0-6.0"}}, {"uniqueid": "MTK0771:30IQTZXKALDCDURNCAOB597GCW1X04", "current_trial": 51, "dateTime": 1512750968975, "trialdata": {"rt": -1, "stimulus": "<p id=\"stim\">3</p>", "key_press": -1, "trial_type": "single-stim", "trial_index": 51, "time_elapsed": 266091, "internal_node_id": "0.0-35.0-7.0"}}, {"uniqueid": "MTK0771:30IQTZXKALDCDURNCAOB597GCW1X04", "current_trial": 52, "dateTime": 1512750969977, "trialdata": {"rt": -1, "stimulus": "<p id=\"stim\">2</p>", "key_press": -1, "trial_type": "single-stim", "trial_index": 52, "time_elapsed": 267092, "internal_node_id": "0.0-35.0-8.0"}}, {"uniqueid": "MTK0771:30IQTZXKALDCDURNCAOB597GCW1X04", "current_trial": 53, "dateTime": 1512750970979, "trialdata": {"rt": -1, "stimulus": "<p id=\"stim\">1</p>", "key_press": -1, "trial_type": "single-stim", "trial_index": 53, "time_elapsed": 268095, "internal_node_id": "0.0-35.0-9.0"}}, {"uniqueid": "MTK0771:30IQTZXKALDCDURNCAOB597GCW1X04", "current_trial": 54, "dateTime": 1512750972481, "trialdata": {"rt": -1, "stimulus": "<p id=\"stim\">+</p>", "key_press": -1, "type": "FIXATION", "trial_type": "single-stim", "trial_index": 54, "time_elapsed": 269597, "internal_node_id": "0.0-36.0-0.0"}}, {"uniqueid": "MTK0771:30IQTZXKALDCDURNCAOB597GCW1X04", "current_trial": 55, "dateTime": 1512750973682, "trialdata": {"rt": -1, "stimulus": "<p id=\"stim\">FREEZER</p>", "key_press": -1, "type": "PRES_VIS", "word": "freezer", "wordID": 603, "conditions": [18, 1200, "v", 18000], "trial": 1, "serialpos": 0, "trial_type": "single-stim", "trial_index": 55, "time_elapsed": 270798, "internal_node_id": "0.0-37.0"}}, {"uniqueid": "MTK0771:30IQTZXKALDCDURNCAOB597GCW1X04", "current_trial": 56, "dateTime": 1512750975999, "trialdata": {"rt": -1, "stimulus": "<p id=\"stim\">COUCH</p>", "key_press": -1, "type": "PRES_VIS", "word": "couch", "wordID": 385, "conditions": [18, 1200, "v", 18000], "trial": 1, "serialpos": 1, "trial_type": "single-stim", "trial_index": 56, "time_elapsed": 273114, "internal_node_id": "0.0-38.0"}}, {"uniqueid": "MTK0771:30IQTZXKALDCDURNCAOB597GCW1X04", "current_trial": 57, "dateTime": 1512750978088, "trialdata": {"rt": -1, "stimulus": "<p id=\"stim\">CLOCK</p>", "key_press": -1, "type": "PRES_VIS", "word": "clock", "wordID": 324, "conditions": [18, 1200, "v", 18000], "trial": 1, "serialpos": 2, "trial_type": "single-stim", "trial_index": 57, "time_elapsed": 275203, "internal_node_id": "0.0-39.0"}}, {"uniqueid": "MTK0771:30IQTZXKALDCDURNCAOB597GCW1X04", "current_trial": 58, "dateTime": 1512750980476, "trialdata": {"rt": -1, "stimulus": "<p id=\"stim\">PERFUME</p>", "key_press": -1, "type": "PRES_VIS", "word": "perfume", "wordID": 1048, "conditions": [18, 1200, "v", 18000], "trial": 1, "serialpos": 3, "trial_type": "single-stim", "trial_index": 58, "time_elapsed": 277592, "internal_node_id": "0.0-40.0"}}, {"uniqueid": "MTK0771:30IQTZXKALDCDURNCAOB597GCW1X04", "current_trial": 59, "dateTime": 1512750982758, "trialdata": {"rt": -1, "stimulus": "<p id=\"stim\">CHAUFFEUR</p>", "key_press": -1, "type": "PRES_VIS", "word": "chauffeur", "wordID": 282, "conditions": [18, 1200, "v", 18000], "trial": 1, "serialpos": 4, "trial_type": "single-stim", "trial_index": 59, "time_elapsed": 279873, "internal_node_id": "0.0-41.0"}}, {"uniqueid": "MTK0771:30IQTZXKALDCDURNCAOB597GCW1X04", "current_trial": 60, "dateTime": 1512750985130, "trialdata": {"rt": -1, "stimulus": "<p id=\"stim\">PISTON</p>", "key_press": -1, "type": "PRES_VIS", "word": "piston", "wordID": 1075, "conditions": [18, 1200, "v", 18000], "trial": 1, "serialpos": 5, "trial_type": "single-stim", "trial_index": 60, "time_elapsed": 282246, "internal_node_id": "0.0-42.0"}}, {"uniqueid": "MTK0771:30IQTZXKALDCDURNCAOB597GCW1X04", "current_trial": 61, "dateTime": 1512750987295, "trialdata": {"rt": -1, "stimulus": "<p id=\"stim\">LAVA</p>", "key_press": -1, "type": "PRES_VIS", "word": "lava", "wordID": 803, "conditions": [18, 1200, "v", 18000], "trial": 1, "serialpos": 6, "trial_type": "single-stim", "trial_index": 61, "time_elapsed": 284410, "internal_node_id": "0.0-43.0"}}, {"uniqueid": "MTK0771:30IQTZXKALDCDURNCAOB597GCW1X04", "current_trial": 62, "dateTime": 1512750989531, "trialdata": {"rt": -1, "stimulus": "<p id=\"stim\">LIZARD</p>", "key_press": -1, "type": "PRES_VIS", "word": "lizard", "wordID": 833, "conditions": [18, 1200, "v", 18000], "trial": 1, "serialpos": 7, "trial_type": "single-stim", "trial_index": 62, "time_elapsed": 286647, "internal_node_id": "0.0-44.0"}}, {"uniqueid": "MTK0771:30IQTZXKALDCDURNCAOB597GCW1X04", "current_trial": 63, "dateTime": 1512750991811, "trialdata": {"rt": -1, "stimulus": "<p id=\"stim\">COMET</p>", "key_press": -1, "type": "PRES_VIS", "word": "comet", "wordID": 352, "conditions": [18, 1200, "v", 18000], "trial": 1, "serialpos": 8, "trial_type": "single-stim", "trial_index": 63, "time_elapsed": 288927, "internal_node_id": "0.0-45.0"}}, {"uniqueid": "MTK0771:30IQTZXKALDCDURNCAOB597GCW1X04", "current_trial": 64, "dateTime": 1512750993819, "trialdata": {"rt": -1, "stimulus": "<p id=\"stim\">COWBOY</p>", "key_press": -1, "type": "PRES_VIS", "word": "cowboy", "wordID": 394, "conditions": [18, 1200, "v", 18000], "trial": 1, "serialpos": 9, "trial_type": "single-stim", "trial_index": 64, "time_elapsed": 290935, "internal_node_id": "0.0-46.0"}}, {"uniqueid": "MTK0771:30IQTZXKALDCDURNCAOB597GCW1X04", "current_trial": 65, "dateTime": 1512750996187, "trialdata": {"rt": -1, "stimulus": "<p id=\"stim\">TURTLE</p>", "key_press": -1, "type": "PRES_VIS", "word": "turtle", "wordID": 1521, "conditions": [18, 1200, "v", 18000], "trial": 1, "serialpos": 10, "trial_type": "single-stim", "trial_index": 65, "time_elapsed": 293303, "internal_node_id": "0.0-47.0"}}, {"uniqueid": "MTK0771:30IQTZXKALDCDURNCAOB597GCW1X04", "current_trial": 66, "dateTime": 1512750998515, "trialdata": {"rt": -1, "stimulus": "<p id=\"stim\">GIRL</p>", "key_press": -1, "type": "PRES_VIS", "word": "girl", "wordID": 636, "conditions": [18, 1200, "v", 18000], "trial": 1, "serialpos": 11, "trial_type": "single-stim", "trial_index": 66, "time_elapsed": 295631, "internal_node_id": "0.0-48.0"}}, {"uniqueid": "MTK0771:30IQTZXKALDCDURNCAOB597GCW1X04", "current_trial": 67, "dateTime": 1512751000799, "trialdata": {"rt": -1, "stimulus": "<p id=\"stim\">PILOT</p>", "key_press": -1, "type": "PRES_VIS", "word": "pilot", "wordID": 1069, "conditions": [18, 1200, "v", 18000], "trial": 1, "serialpos": 12, "trial_type": "single-stim", "trial_index": 67, "time_elapsed": 297915, "internal_node_id": "0.0-49.0"}}, {"uniqueid": "MTK0771:30IQTZXKALDCDURNCAOB597GCW1X04", "current_trial": 68, "dateTime": 1512751002982, "trialdata": {"rt": -1, "stimulus": "<p id=\"stim\">RAZOR</p>", "key_press": -1, "type": "PRES_VIS", "word": "razor", "wordID": 1170, "conditions": [18, 1200, "v", 18000], "trial": 1, "serialpos": 13, "trial_type": "single-stim", "trial_index": 68, "time_elapsed": 300098, "internal_node_id": "0.0-50.0"}}, {"uniqueid": "MTK0771:30IQTZXKALDCDURNCAOB597GCW1X04", "current_trial": 69, "dateTime": 1512751005184, "trialdata": {"rt": -1, "stimulus": "<p id=\"stim\">ICING</p>", "key_press": -1, "type": "PRES_VIS", "word": "icing", "wordID": 731, "conditions": [18, 1200, "v", 18000], "trial": 1, "serialpos": 14, "trial_type": "single-stim", "trial_index": 69, "time_elapsed": 302300, "internal_node_id": "0.0-51.0"}}, {"uniqueid": "MTK0771:30IQTZXKALDCDURNCAOB597GCW1X04", "current_trial": 70, "dateTime": 1512751007579, "trialdata": {"rt": -1, "stimulus": "<p id=\"stim\">YARN</p>", "key_press": -1, "type": "PRES_VIS", "word": "yarn", "wordID": 1630, "conditions": [18, 1200, "v", 18000], "trial": 1, "serialpos": 15, "trial_type": "single-stim", "trial_index": 70, "time_elapsed": 304691, "internal_node_id": "0.0-52.0"}}, {"uniqueid": "MTK0771:30IQTZXKALDCDURNCAOB597GCW1X04", "current_trial": 71, "dateTime": 1512751009852, "trialdata": {"rt": -1, "stimulus": "<p id=\"stim\">BEAST</p>", "key_press": -1, "type": "PRES_VIS", "word": "beast", "wordID": 107, "conditions": [18, 1200, "v", 18000], "trial": 1, "serialpos": 16, "trial_type": "single-stim", "trial_index": 71, "time_elapsed": 306968, "internal_node_id": "0.0-53.0"}}, {"uniqueid": "MTK0771:30IQTZXKALDCDURNCAOB597GCW1X04", "current_trial": 72, "dateTime": 1512751012244, "trialdata": {"rt": -1, "stimulus": "<p id=\"stim\">COIN</p>", "key_press": -1, "type": "PRES_VIS", "word": "coin", "wordID": 342, "conditions": [18, 1200, "v", 18000], "trial": 1, "serialpos": 17, "trial_type": "single-stim", "trial_index": 72, "time_elapsed": 309359, "internal_node_id": "0.0-54.0"}}, {"uniqueid": "MTK0771:30IQTZXKALDCDURNCAOB597GCW1X04", "current_trial": 73, "dateTime": 1512751014565, "trialdata": {"rt": -1, "stimulus": "", "key_press": -1, "type": "PRE_RECALL_DELAY", "trial_type": "single-stim", "trial_index": 73, "time_elapsed": 311681, "internal_node_id": "0.0-55.0-0.0"}}, {"uniqueid": "MTK0771:30IQTZXKALDCDURNCAOB597GCW1X04", "current_trial": 74, "dateTime": 1512751015067, "trialdata": {"rt": -1000, "stimulus": "/static/audio/400Hz.wav", "key_press": -1, "type": "PRE_RECALL_ALERT", "trial_type": "single-audio", "trial_index": 74, "time_elapsed": 312183, "internal_node_id": "0.0-56.0"}}, {"uniqueid": "MTK0771:30IQTZXKALDCDURNCAOB597GCW1X04", "current_trial": 75, "dateTime": 1512751075081, "trialdata": {"rt": [1709, 3331, 4677, 6436, 9183, 16785, 45677], "recwords": ["coin", "freezer", "icing", "cowboy", "couch", "lava", "chauffeur"], "type": "FREE_RECALL", "conditions": [18, 1200, "v", 18000], "trial": 1, "trial_type": "free-recall", "trial_index": 75, "time_elapsed": 372192, "internal_node_id": "0.0-57.0-0.0"}}, {"uniqueid": "MTK0771:30IQTZXKALDCDURNCAOB597GCW1X04", "current_trial": 76, "dateTime": 1512751078366, "trialdata": {"rt": 1274, "key_press": 32, "type": "INSTRUCTIONS", "trial_type": "text", "trial_index": 76, "time_elapsed": 375472, "internal_node_id": "0.0-58.0"}}, {"uniqueid": "MTK0771:30IQTZXKALDCDURNCAOB597GCW1X04", "current_trial": 77, "dateTime": 1512751103372, "trialdata": {"rt": [4632, 6932, 9458, 11954, 14418, 17432, 19312, 21268, 23261], "responses": ["13", "16", "20", "16", "22", "16", "7", "21", "15"], "num1": [5, 6, 3, 8, 8, 4, 2, 6, 6, 4], "num2": [6, 1, 8, 3, 7, 4, 1, 8, 5, 7], "num3": [2, 9, 9, 5, 7, 8, 4, 7, 4, 7], "type": "DISTRACTOR", "conditions": [12, 1600, "a", 24000], "trial": 2, "trial_type": "math-distractor", "trial_index": 77, "time_elapsed": 400488, "internal_node_id": "0.0-59.0"}}, {"uniqueid": "MTK0771:30IQTZXKALDCDURNCAOB597GCW1X04", "current_trial": 78, "dateTime": 1512751106375, "trialdata": {"rt": -1, "stimulus": "<p id=\"stim\">10</p>", "key_press": -1, "trial_type": "single-stim", "trial_index": 78, "time_elapsed": 403490, "internal_node_id": "0.0-60.0-0.0"}}, {"uniqueid": "MTK0771:30IQTZXKALDCDURNCAOB597GCW1X04", "current_trial": 79, "dateTime": 1512751107376, "trialdata": {"rt": -1, "stimulus": "<p id=\"stim\">9</p>", "key_press": -1, "trial_type": "single-stim", "trial_index": 79, "time_elapsed": 404492, "internal_node_id": "0.0-60.0-1.0"}}, {"uniqueid": "MTK0771:30IQTZXKALDCDURNCAOB597GCW1X04", "current_trial": 80, "dateTime": 1512751108378, "trialdata": {"rt": -1, "stimulus": "<p id=\"stim\">8</p>", "key_press": -1, "trial_type": "single-stim", "trial_index": 80, "time_elapsed": 405494, "internal_node_id": "0.0-60.0-2.0"}}, {"uniqueid": "MTK0771:30IQTZXKALDCDURNCAOB597GCW1X04", "current_trial": 81, "dateTime": 1512751109381, "trialdata": {"rt": -1, "stimulus": "<p id=\"stim\">7</p>", "key_press": -1, "trial_type": "single-stim", "trial_index": 81, "time_elapsed": 406497, "internal_node_id": "0.0-60.0-3.0"}}, {"uniqueid": "MTK0771:30IQTZXKALDCDURNCAOB597GCW1X04", "current_trial": 82, "dateTime": 1512751110382, "trialdata": {"rt": -1, "stimulus": "<p id=\"stim\">6</p>", "key_press": -1, "trial_type": "single-stim", "trial_index": 82, "time_elapsed": 407498, "internal_node_id": "0.0-60.0-4.0"}}, {"uniqueid": "MTK0771:30IQTZXKALDCDURNCAOB597GCW1X04", "current_trial": 83, "dateTime": 1512751111384, "trialdata": {"rt": -1, "stimulus": "<p id=\"stim\">5</p>", "key_press": -1, "trial_type": "single-stim", "trial_index": 83, "time_elapsed": 408499, "internal_node_id": "0.0-60.0-5.0"}}, {"uniqueid": "MTK0771:30IQTZXKALDCDURNCAOB597GCW1X04", "current_trial": 84, "dateTime": 1512751112387, "trialdata": {"rt": -1, "stimulus": "<p id=\"stim\">4</p>", "key_press": -1, "trial_type": "single-stim", "trial_index": 84, "time_elapsed": 409503, "internal_node_id": "0.0-60.0-6.0"}}, {"uniqueid": "MTK0771:30IQTZXKALDCDURNCAOB597GCW1X04", "current_trial": 85, "dateTime": 1512751113388, "trialdata": {"rt": -1, "stimulus": "<p id=\"stim\">3</p>", "key_press": -1, "trial_type": "single-stim", "trial_index": 85, "time_elapsed": 410504, "internal_node_id": "0.0-60.0-7.0"}}, {"uniqueid": "MTK0771:30IQTZXKALDCDURNCAOB597GCW1X04", "current_trial": 86, "dateTime": 1512751114392, "trialdata": {"rt": -1, "stimulus": "<p id=\"stim\">2</p>", "key_press": -1, "trial_type": "single-stim", "trial_index": 86, "time_elapsed": 411507, "internal_node_id": "0.0-60.0-8.0"}}, {"uniqueid": "MTK0771:30IQTZXKALDCDURNCAOB597GCW1X04", "current_trial": 87, "dateTime": 1512751115395, "trialdata": {"rt": -1, "stimulus": "<p id=\"stim\">1</p>", "key_press": -1, "trial_type": "single-stim", "trial_index": 87, "time_elapsed": 412511, "internal_node_id": "0.0-60.0-9.0"}}, {"uniqueid": "MTK0771:30IQTZXKALDCDURNCAOB597GCW1X04", "current_trial": 88, "dateTime": 1512751116899, "trialdata": {"rt": -1, "stimulus": "<p id=\"stim\">+</p>", "key_press": -1, "type": "FIXATION", "trial_type": "single-stim", "trial_index": 88, "time_elapsed": 414015, "internal_node_id": "0.0-61.0-0.0"}}, {"uniqueid": "MTK0771:30IQTZXKALDCDURNCAOB597GCW1X04", "current_trial": 89, "dateTime": 1512751119439, "trialdata": {"rt": -1000, "stimulus": "/static/audio/wordpool/ATLAS.wav", "key_press": -1, "type": "PRES_AUD", "word": "atlas", "wordID": 52, "conditions": [12, 1600, "a", 24000], "trial": 2, "serialpos": 0, "trial_type": "single-audio", "trial_index": 89, "time_elapsed": 416555, "internal_node_id": "0.0-62.0"}}, {"uniqueid": "MTK0771:30IQTZXKALDCDURNCAOB597GCW1X04", "current_trial": 90, "dateTime": 1512751121846, "trialdata": {"rt": -1000, "stimulus": "/static/audio/wordpool/EXPERT.wav", "key_press": -1, "type": "PRES_AUD", "word": "expert", "wordID": 542, "conditions": [12, 1600, "a", 24000], "trial": 2, "serialpos": 1, "trial_type": "single-audio", "trial_index": 90, "time_elapsed": 418962, "internal_node_id": "0.0-63.0"}}, {"uniqueid": "MTK0771:30IQTZXKALDCDURNCAOB597GCW1X04", "current_trial": 91, "dateTime": 1512751124625, "trialdata": {"rt": -1000, "stimulus": "/static/audio/wordpool/ANKLE.wav", "key_press": -1, "type": "PRES_AUD", "word": "ankle", "wordID": 23, "conditions": [12, 1600, "a", 24000], "trial": 2, "serialpos": 2, "trial_type": "single-audio", "trial_index": 91, "time_elapsed": 421741, "internal_node_id": "0.0-64.0"}}, {"uniqueid": "MTK0771:30IQTZXKALDCDURNCAOB597GCW1X04", "current_trial": 92, "dateTime": 1512751127353, "trialdata": {"rt": -1000, "stimulus": "/static/audio/wordpool/DANCER.wav", "key_press": -1, "type": "PRES_AUD", "word": "dancer", "wordID": 436, "conditions": [12, 1600, "a", 24000], "trial": 2, "serialpos": 3, "trial_type": "single-audio", "trial_index": 92, "time_elapsed": 424468, "internal_node_id": "0.0-65.0"}}, {"uniqueid": "MTK0771:30IQTZXKALDCDURNCAOB597GCW1X04", "current_trial": 93, "dateTime": 1512751129868, "trialdata": {"rt": -1000, "stimulus": "/static/audio/wordpool/MARKER.wav", "key_press": -1, "type": "PRES_AUD", "word": "marker", "wordID": 869, "conditions": [12, 1600, "a", 24000], "trial": 2, "serialpos": 4, "trial_type": "single-audio", "trial_index": 93, "time_elapsed": 426983, "internal_node_id": "0.0-66.0"}}, {"uniqueid": "MTK0771:30IQTZXKALDCDURNCAOB597GCW1X04", "current_trial": 94, "dateTime": 1512751132434, "trialdata": {"rt": -1000, "stimulus": "/static/audio/wordpool/JUDGE.wav", "key_press": -1, "type": "PRES_AUD", "word": "judge", "wordID": 760, "conditions": [12, 1600, "a", 24000], "trial": 2, "serialpos": 5, "trial_type": "single-audio", "trial_index": 94, "time_elapsed": 429549, "internal_node_id": "0.0-67.0"}}, {"uniqueid": "MTK0771:30IQTZXKALDCDURNCAOB597GCW1X04", "current_trial": 95, "dateTime": 1512751135207, "trialdata": {"rt": -1000, "stimulus": "/static/audio/wordpool/JURY.wav", "key_press": -1, "type": "PRES_AUD", "word": "jury", "wordID": 765, "conditions": [12, 1600, "a", 24000], "trial": 2, "serialpos": 6, "trial_type": "single-audio", "trial_index": 95, "time_elapsed": 432322, "internal_node_id": "0.0-68.0"}}, {"uniqueid": "MTK0771:30IQTZXKALDCDURNCAOB597GCW1X04", "current_trial": 96, "dateTime": 1512751137853, "trialdata": {"rt": -1000, "stimulus": "/static/audio/wordpool/GYMNAST.wav", "key_press": -1, "type": "PRES_AUD", "word": "gymnast", "wordID": 674, "conditions": [12, 1600, "a", 24000], "trial": 2, "serialpos": 7, "trial_type": "single-audio", "trial_index": 96, "time_elapsed": 434969, "internal_node_id": "0.0-69.0"}}, {"uniqueid": "MTK0771:30IQTZXKALDCDURNCAOB597GCW1X04", "current_trial": 97, "dateTime": 1512751140512, "trialdata": {"rt": -1000, "stimulus": "/static/audio/wordpool/DIME.wav", "key_press": -1, "type": "PRES_AUD", "word": "dime", "wordID": 465, "conditions": [12, 1600, "a", 24000], "trial": 2, "serialpos": 8, "trial_type": "single-audio", "trial_index": 97, "time_elapsed": 437628, "internal_node_id": "0.0-70.0"}}, {"uniqueid": "MTK0771:30IQTZXKALDCDURNCAOB597GCW1X04", "current_trial": 98, "dateTime": 1512751143116, "trialdata": {"rt": -1000, "stimulus": "/static/audio/wordpool/BEAVER.wav", "key_press": -1, "type": "PRES_AUD", "word": "beaver", "wordID": 108, "conditions": [12, 1600, "a", 24000], "trial": 2, "serialpos": 9, "trial_type": "single-audio", "trial_index": 98, "time_elapsed": 440231, "internal_node_id": "0.0-71.0"}}, {"uniqueid": "MTK0771:30IQTZXKALDCDURNCAOB597GCW1X04", "current_trial": 99, "dateTime": 1512751145694, "trialdata": {"rt": -1000, "stimulus": "/static/audio/wordpool/BROOK.wav", "key_press": -1, "type": "PRES_AUD", "word": "brook", "wordID": 176, "conditions": [12, 1600, "a", 24000], "trial": 2, "serialpos": 10, "trial_type": "single-audio", "trial_index": 99, "time_elapsed": 442810, "internal_node_id": "0.0-72.0"}}, {"uniqueid": "MTK0771:30IQTZXKALDCDURNCAOB597GCW1X04", "current_trial": 100, "dateTime": 1512751148184, "trialdata": {"rt": -1000, "stimulus": "/static/audio/wordpool/BANQUET.wav", "key_press": -1, "type": "PRES_AUD", "word": "banquet", "wordID": 85, "conditions": [12, 1600, "a", 24000], "trial": 2, "serialpos": 11, "trial_type": "single-audio", "trial_index": 100, "time_elapsed": 445300, "internal_node_id": "0.0-73.0"}}, {"uniqueid": "MTK0771:30IQTZXKALDCDURNCAOB597GCW1X04", "current_trial": 101, "dateTime": 1512751149587, "trialdata": {"rt": -1, "stimulus": "", "key_press": -1, "type": "PRE_RECALL_DELAY", "trial_type": "single-stim", "trial_index": 101, "time_elapsed": 446702, "internal_node_id": "0.0-74.0-0.0"}}, {"uniqueid": "MTK0771:30IQTZXKALDCDURNCAOB597GCW1X04", "current_trial": 102, "dateTime": 1512751150089, "trialdata": {"rt": -1000, "stimulus": "/static/audio/400Hz.wav", "key_press": -1, "type": "PRE_RECALL_ALERT", "trial_type": "single-audio", "trial_index": 102, "time_elapsed": 447205, "internal_node_id": "0.0-75.0"}}, {"uniqueid": "MTK0771:30IQTZXKALDCDURNCAOB597GCW1X04", "current_trial": 103, "dateTime": 1512751210096, "trialdata": {"rt": [1359, 4105, 5062, 6752, 7917, 13208, 14543, 23527], "recwords": ["atlas", "judge", "jury", "ankle", "dancer", "brook", "beaver", "gymnast"], "type": "FREE_RECALL", "conditions": [12, 1600, "a", 24000], "trial": 2, "trial_type": "free-recall", "trial_index": 103, "time_elapsed": 507210, "internal_node_id": "0.0-76.0-0.0"}}, {"uniqueid": "MTK0771:30IQTZXKALDCDURNCAOB597GCW1X04", "current_trial": 104, "dateTime": 1512751213446, "trialdata": {"rt": 1348, "key_press": 32, "type": "INSTRUCTIONS", "trial_type": "text", "trial_index": 104, "time_elapsed": 510562, "internal_node_id": "0.0-77.0"}}, {"uniqueid": "MTK0771:30IQTZXKALDCDURNCAOB597GCW1X04", "current_trial": 105, "dateTime": 1512751239454, "trialdata": {"rt": [3148, 5237, 7378, 9169, 11095, 13454, 15099, 16696, 18388, 20005, 21733, 23399], "responses": ["19", "14", "11", "21", "14", "12", "18", "12", "10", "7", "21", "14"], "num1": [2, 8, 2, 4, 4, 7, 8, 2, 6, 1, 7, 3, 1], "num2": [9, 3, 2, 9, 3, 2, 5, 1, 2, 2, 7, 7, 5], "num3": [8, 3, 7, 8, 7, 3, 5, 9, 2, 4, 7, 4, 6], "type": "DISTRACTOR", "conditions": [24, 1600, "a", 24000], "trial": 3, "trial_type": "math-distractor", "trial_index": 105, "time_elapsed": 536570, "internal_node_id": "0.0-78.0"}}, {"uniqueid": "MTK0771:30IQTZXKALDCDURNCAOB597GCW1X04", "current_trial": 106, "dateTime": 1512751242456, "trialdata": {"rt": -1, "stimulus": "<p id=\"stim\">10</p>", "key_press": -1, "trial_type": "single-stim", "trial_index": 106, "time_elapsed": 539572, "internal_node_id": "0.0-79.0-0.0"}}, {"uniqueid": "MTK0771:30IQTZXKALDCDURNCAOB597GCW1X04", "current_trial": 107, "dateTime": 1512751243458, "trialdata": {"rt": -1, "stimulus": "<p id=\"stim\">9</p>", "key_press": -1, "trial_type": "single-stim", "trial_index": 107, "time_elapsed": 540573, "internal_node_id": "0.0-79.0-1.0"}}, {"uniqueid": "MTK0771:30IQTZXKALDCDURNCAOB597GCW1X04", "current_trial": 108, "dateTime": 1512751244459, "trialdata": {"rt": -1, "stimulus": "<p id=\"stim\">8</p>", "key_press": -1, "trial_type": "single-stim", "trial_index": 108, "time_elapsed": 541575, "internal_node_id": "0.0-79.0-2.0"}}, {"uniqueid": "MTK0771:30IQTZXKALDCDURNCAOB597GCW1X04", "current_trial": 109, "dateTime": 1512751245461, "trialdata": {"rt": -1, "stimulus": "<p id=\"stim\">7</p>", "key_press": -1, "trial_type": "single-stim", "trial_index": 109, "time_elapsed": 542576, "internal_node_id": "0.0-79.0-3.0"}}, {"uniqueid": "MTK0771:30IQTZXKALDCDURNCAOB597GCW1X04", "current_trial": 110, "dateTime": 1512751246462, "trialdata": {"rt": -1, "stimulus": "<p id=\"stim\">6</p>", "key_press": -1, "trial_type": "single-stim", "trial_index": 110, "time_elapsed": 543578, "internal_node_id": "0.0-79.0-4.0"}}, {"uniqueid": "MTK0771:30IQTZXKALDCDURNCAOB597GCW1X04", "current_trial": 111, "dateTime": 1512751247464, "trialdata": {"rt": -1, "stimulus": "<p id=\"stim\">5</p>", "key_press": -1, "trial_type": "single-stim", "trial_index": 111, "time_elapsed": 544579, "internal_node_id": "0.0-79.0-5.0"}}, {"uniqueid": "MTK0771:30IQTZXKALDCDURNCAOB597GCW1X04", "current_trial": 112, "dateTime": 1512751248465, "trialdata": {"rt": -1, "stimulus": "<p id=\"stim\">4</p>", "key_press": -1, "trial_type": "single-stim", "trial_index": 112, "time_elapsed": 545581, "internal_node_id": "0.0-79.0-6.0"}}, {"uniqueid": "MTK0771:30IQTZXKALDCDURNCAOB597GCW1X04", "current_trial": 113, "dateTime": 1512751249466, "trialdata": {"rt": -1, "stimulus": "<p id=\"stim\">3</p>", "key_press": -1, "trial_type": "single-stim", "trial_index": 113, "time_elapsed": 546582, "internal_node_id": "0.0-79.0-7.0"}}, {"uniqueid": "MTK0771:30IQTZXKALDCDURNCAOB597GCW1X04", "current_trial": 114, "dateTime": 1512751250468, "trialdata": {"rt": -1, "stimulus": "<p id=\"stim\">2</p>", "key_press": -1, "trial_type": "single-stim", "trial_index": 114, "time_elapsed": 547584, "internal_node_id": "0.0-79.0-8.0"}}, {"uniqueid": "MTK0771:30IQTZXKALDCDURNCAOB597GCW1X04", "current_trial": 115, "dateTime": 1512751251470, "trialdata": {"rt": -1, "stimulus": "<p id=\"stim\">1</p>", "key_press": -1, "trial_type": "single-stim", "trial_index": 115, "time_elapsed": 548586, "internal_node_id": "0.0-79.0-9.0"}}, {"uniqueid": "MTK0771:30IQTZXKALDCDURNCAOB597GCW1X04", "current_trial": 116, "dateTime": 1512751252972, "trialdata": {"rt": -1, "stimulus": "<p id=\"stim\">+</p>", "key_press": -1, "type": "FIXATION", "trial_type": "single-stim", "trial_index": 116, "time_elapsed": 550088, "internal_node_id": "0.0-80.0-0.0"}}, {"uniqueid": "MTK0771:30IQTZXKALDCDURNCAOB597GCW1X04", "current_trial": 117, "dateTime": 1512751255619, "trialdata": {"rt": -1000, "stimulus": "/static/audio/wordpool/TOURIST.wav", "key_press": -1, "type": "PRES_AUD", "word": "tourist", "wordID": 1487, "conditions": [24, 1600, "a", 24000], "trial": 3, "serialpos": 0, "trial_type": "single-audio", "trial_index": 117, "time_elapsed": 552734, "internal_node_id": "0.0-81.0"}}, {"uniqueid": "MTK0771:30IQTZXKALDCDURNCAOB597GCW1X04", "current_trial": 118, "dateTime": 1512751258094, "trialdata": {"rt": -1000, "stimulus": "/static/audio/wordpool/TROMBONE.wav", "key_press": -1, "type": "PRES_AUD", "word": "trombone", "wordID": 1507, "conditions": [24, 1600, "a", 24000], "trial": 3, "serialpos": 1, "trial_type": "single-audio", "trial_index": 118, "time_elapsed": 555210, "internal_node_id": "0.0-82.0"}}, {"uniqueid": "MTK0771:30IQTZXKALDCDURNCAOB597GCW1X04", "current_trial": 119, "dateTime": 1512751260755, "trialdata": {"rt": -1000, "stimulus": "/static/audio/wordpool/ELBOW.wav", "key_press": -1, "type": "PRES_AUD", "word": "elbow", "wordID": 519, "conditions": [24, 1600, "a", 24000], "trial": 3, "serialpos": 2, "trial_type": "single-audio", "trial_index": 119, "time_elapsed": 557871, "internal_node_id": "0.0-83.0"}}, {"uniqueid": "MTK0771:30IQTZXKALDCDURNCAOB597GCW1X04", "current_trial": 120, "dateTime": 1512751263174, "trialdata": {"rt": -1000, "stimulus": "/static/audio/wordpool/TART.wav", "key_press": -1, "type": "PRES_AUD", "word": "tart", "wordID": 1435, "conditions": [24, 1600, "a", 24000], "trial": 3, "serialpos": 3, "trial_type": "single-audio", "trial_index": 120, "time_elapsed": 560290, "internal_node_id": "0.0-84.0"}}, {"uniqueid": "MTK0771:30IQTZXKALDCDURNCAOB597GCW1X04", "current_trial": 121, "dateTime": 1512751265625, "trialdata": {"rt": -1000, "stimulus": "/static/audio/wordpool/OMELET.wav", "key_press": -1, "type": "PRES_AUD", "word": "omelet", "wordID": 975, "conditions": [24, 1600, "a", 24000], "trial": 3, "serialpos": 4, "trial_type": "single-audio", "trial_index": 121, "time_elapsed": 562740, "internal_node_id": "0.0-85.0"}}, {"uniqueid": "MTK0771:30IQTZXKALDCDURNCAOB597GCW1X04", "current_trial": 122, "dateTime": 1512751268231, "trialdata": {"rt": -1000, "stimulus": "/static/audio/wordpool/COOK.wav", "key_press": -1, "type": "PRES_AUD", "word": "cook", "wordID": 371, "conditions": [24, 1600, "a", 24000], "trial": 3, "serialpos": 5, "trial_type": "single-audio", "trial_index": 122, "time_elapsed": 565347, "internal_node_id": "0.0-86.0"}}, {"uniqueid": "MTK0771:30IQTZXKALDCDURNCAOB597GCW1X04", "current_trial": 123, "dateTime": 1512751270716, "trialdata": {"rt": -1000, "stimulus": "/static/audio/wordpool/GRILL.wav", "key_press": -1, "type": "PRES_AUD", "word": "grill", "wordID": 660, "conditions": [24, 1600, "a", 24000], "trial": 3, "serialpos": 6, "trial_type": "single-audio", "trial_index": 123, "time_elapsed": 567831, "internal_node_id": "0.0-87.0"}}, {"uniqueid": "MTK0771:30IQTZXKALDCDURNCAOB597GCW1X04", "current_trial": 124, "dateTime": 1512751273211, "trialdata": {"rt": -1000, "stimulus": "/static/audio/wordpool/TYPIST.wav", "key_press": -1, "type": "PRES_AUD", "word": "typist", "wordID": 1531, "conditions": [24, 1600, "a", 24000], "trial": 3, "serialpos": 7, "trial_type": "single-audio", "trial_index": 124, "time_elapsed": 570327, "internal_node_id": "0.0-88.0"}}, {"uniqueid": "MTK0771:30IQTZXKALDCDURNCAOB597GCW1X04", "current_trial": 125, "dateTime": 1512751275963, "trialdata": {"rt": -1000, "stimulus": "/static/audio/wordpool/LEG.wav", "key_press": -1, "type": "PRES_AUD", "word": "leg", "wordID": 808, "conditions": [24, 1600, "a", 24000], "trial": 3, "serialpos": 8, "trial_type": "single-audio", "trial_index": 125, "time_elapsed": 573078, "internal_node_id": "0.0-89.0"}}, {"uniqueid": "MTK0771:30IQTZXKALDCDURNCAOB597GCW1X04", "current_trial": 126, "dateTime": 1512751278547, "trialdata": {"rt": -1000, "stimulus": "/static/audio/wordpool/PASSAGE.wav", "key_press": -1, "type": "PRES_AUD", "word": "passage", "wordID": 1018, "conditions": [24, 1600, "a", 24000], "trial": 3, "serialpos": 9, "trial_type": "single-audio", "trial_index": 126, "time_elapsed": 575662, "internal_node_id": "0.0-90.0"}}, {"uniqueid": "MTK0771:30IQTZXKALDCDURNCAOB597GCW1X04", "current_trial": 127, "dateTime": 1512751281224, "trialdata": {"rt": -1000, "stimulus": "/static/audio/wordpool/AIRPLANE.wav", "key_press": -1, "type": "PRES_AUD", "word": "airplane", "wordID": 11, "conditions": [24, 1600, "a", 24000], "trial": 3, "serialpos": 10, "trial_type": "single-audio", "trial_index": 127, "time_elapsed": 578340, "internal_node_id": "0.0-91.0"}}, {"uniqueid": "MTK0771:30IQTZXKALDCDURNCAOB597GCW1X04", "current_trial": 128, "dateTime": 1512751283835, "trialdata": {"rt": -1000, "stimulus": "/static/audio/wordpool/SCRIBBLE.wav", "key_press": -1, "type": "PRES_AUD", "word": "scribble", "wordID": 1255, "conditions": [24, 1600, "a", 24000], "trial": 3, "serialpos": 11, "trial_type": "single-audio", "trial_index": 128, "time_elapsed": 580951, "internal_node_id": "0.0-92.0"}}, {"uniqueid": "MTK0771:30IQTZXKALDCDURNCAOB597GCW1X04", "current_trial": 129, "dateTime": 1512751286261, "trialdata": {"rt": -1000, "stimulus": "/static/audio/wordpool/SCOTCH.wav", "key_press": -1, "type": "PRES_AUD", "word": "scotch", "wordID": 1250, "conditions": [24, 1600, "a", 24000], "trial": 3, "serialpos": 12, "trial_type": "single-audio", "trial_index": 129, "time_elapsed": 583376, "internal_node_id": "0.0-93.0"}}, {"uniqueid": "MTK0771:30IQTZXKALDCDURNCAOB597GCW1X04", "current_trial": 130, "dateTime": 1512751288760, "trialdata": {"rt": -1000, "stimulus": "/static/audio/wordpool/CHIPMUNK.wav", "key_press": -1, "type": "PRES_AUD", "word": "chipmunk", "wordID": 303, "conditions": [24, 1600, "a", 24000], "trial": 3, "serialpos": 13, "trial_type": "single-audio", "trial_index": 130, "time_elapsed": 585875, "internal_node_id": "0.0-94.0"}}, {"uniqueid": "MTK0771:30IQTZXKALDCDURNCAOB597GCW1X04", "current_trial": 131, "dateTime": 1512751291263, "trialdata": {"rt": -1000, "stimulus": "/static/audio/wordpool/FLUTE.wav", "key_press": -1, "type": "PRES_AUD", "word": "flute", "wordID": 584, "conditions": [24, 1600, "a", 24000], "trial": 3, "serialpos": 14, "trial_type": "single-audio", "trial_index": 131, "time_elapsed": 588379, "internal_node_id": "0.0-95.0"}}, {"uniqueid": "MTK0771:30IQTZXKALDCDURNCAOB597GCW1X04", "current_trial": 132, "dateTime": 1512751293908, "trialdata": {"rt": -1000, "stimulus": "/static/audio/wordpool/HORNET.wav", "key_press": -1, "type": "PRES_AUD", "word": "hornet", "wordID": 717, "conditions": [24, 1600, "a", 24000], "trial": 3, "serialpos": 15, "trial_type": "single-audio", "trial_index": 132, "time_elapsed": 591024, "internal_node_id": "0.0-96.0"}}, {"uniqueid": "MTK0771:30IQTZXKALDCDURNCAOB597GCW1X04", "current_trial": 133, "dateTime": 1512751296529, "trialdata": {"rt": -1000, "stimulus": "/static/audio/wordpool/HOSTESS.wav", "key_press": -1, "type": "PRES_AUD", "word": "hostess", "wordID": 722, "conditions": [24, 1600, "a", 24000], "trial": 3, "serialpos": 16, "trial_type": "single-audio", "trial_index": 133, "time_elapsed": 593645, "internal_node_id": "0.0-97.0"}}, {"uniqueid": "MTK0771:30IQTZXKALDCDURNCAOB597GCW1X04", "current_trial": 134, "dateTime": 1512751298930, "trialdata": {"rt": -1000, "stimulus": "/static/audio/wordpool/THIEF.wav", "key_press": -1, "type": "PRES_AUD", "word": "thief", "wordID": 1455, "conditions": [24, 1600, "a", 24000], "trial": 3, "serialpos": 17, "trial_type": "single-audio", "trial_index": 134, "time_elapsed": 596046, "internal_node_id": "0.0-98.0"}}, {"uniqueid": "MTK0771:30IQTZXKALDCDURNCAOB597GCW1X04", "current_trial": 135, "dateTime": 1512751301631, "trialdata": {"rt": -1000, "stimulus": "/static/audio/wordpool/ROBBER.wav", "key_press": -1, "type": "PRES_AUD", "word": "robber", "wordID": 1196, "conditions": [24, 1600, "a", 24000], "trial": 3, "serialpos": 18, "trial_type": "single-audio", "trial_index": 135, "time_elapsed": 598746, "internal_node_id": "0.0-99.0"}}, {"uniqueid": "MTK0771:30IQTZXKALDCDURNCAOB597GCW1X04", "current_trial": 136, "dateTime": 1512751304033, "trialdata": {"rt": -1000, "stimulus": "/static/audio/wordpool/FOREHEAD.wav", "key_press": -1, "type": "PRES_AUD", "word": "forehead", "wordID": 591, "conditions": [24, 1600, "a", 24000], "trial": 3, "serialpos": 19, "trial_type": "single-audio", "trial_index": 136, "time_elapsed": 601149, "internal_node_id": "0.0-100.0"}}, {"uniqueid": "MTK0771:30IQTZXKALDCDURNCAOB597GCW1X04", "current_trial": 137, "dateTime": 1512751306506, "trialdata": {"rt": -1000, "stimulus": "/static/audio/wordpool/NAPKIN.wav", "key_press": -1, "type": "PRES_AUD", "word": "napkin", "wordID": 936, "conditions": [24, 1600, "a", 24000], "trial": 3, "serialpos": 20, "trial_type": "single-audio", "trial_index": 137, "time_elapsed": 603622, "internal_node_id": "0.0-101.0"}}, {"uniqueid": "MTK0771:30IQTZXKALDCDURNCAOB597GCW1X04", "current_trial": 138, "dateTime": 1512751309069, "trialdata": {"rt": -1000, "stimulus": "/static/audio/wordpool/BUNNY.wav", "key_press": -1, "type": "PRES_AUD", "word": "bunny", "wordID": 197, "conditions": [24, 1600, "a", 24000], "trial": 3, "serialpos": 21, "trial_type": "single-audio", "trial_index": 138, "time_elapsed": 606184, "internal_node_id": "0.0-102.0"}}, {"uniqueid": "MTK0771:30IQTZXKALDCDURNCAOB597GCW1X04", "current_trial": 139, "dateTime": 1512751311869, "trialdata": {"rt": -1000, "stimulus": "/static/audio/wordpool/BANJO.wav", "key_press": -1, "type": "PRES_AUD", "word": "banjo", "wordID": 81, "conditions": [24, 1600, "a", 24000], "trial": 3, "serialpos": 22, "trial_type": "single-audio", "trial_index": 139, "time_elapsed": 608984, "internal_node_id": "0.0-103.0"}}, {"uniqueid": "MTK0771:30IQTZXKALDCDURNCAOB597GCW1X04", "current_trial": 140, "dateTime": 1512751314631, "trialdata": {"rt": -1000, "stimulus": "/static/audio/wordpool/BLACKBOARD.wav", "key_press": -1, "type": "PRES_AUD", "word": "blackboard", "wordID": 132, "conditions": [24, 1600, "a", 24000], "trial": 3, "serialpos": 23, "trial_type": "single-audio", "trial_index": 140, "time_elapsed": 611747, "internal_node_id": "0.0-104.0"}}, {"uniqueid": "MTK0771:30IQTZXKALDCDURNCAOB597GCW1X04", "current_trial": 141, "dateTime": 1512751315925, "trialdata": {"rt": -1, "stimulus": "", "key_press": -1, "type": "PRE_RECALL_DELAY", "trial_type": "single-stim", "trial_index": 141, "time_elapsed": 613041, "internal_node_id": "0.0-105.0-0.0"}}, {"uniqueid": "MTK0771:30IQTZXKALDCDURNCAOB597GCW1X04", "current_trial": 142, "dateTime": 1512751316428, "trialdata": {"rt": -1000, "stimulus": "/static/audio/400Hz.wav", "key_press": -1, "type": "PRE_RECALL_ALERT", "trial_type": "single-audio", "trial_index": 142, "time_elapsed": 613544, "internal_node_id": "0.0-106.0"}}, {"uniqueid": "MTK0771:30IQTZXKALDCDURNCAOB597GCW1X04", "current_trial": 143, "dateTime": 1512751376440, "trialdata": {"rt": [3395, 6070, 7156, 9305, 15710, 20522], "recwords": ["banjo", "blackboard", "thief", "bunny", "hostess", "ankle"], "type": "FREE_RECALL", "conditions": [24, 1600, "a", 24000], "trial": 3, "trial_type": "free-recall", "trial_index": 143, "time_elapsed": 673552, "internal_node_id": "0.0-107.0-0.0"}}, {"uniqueid": "MTK0771:30IQTZXKALDCDURNCAOB597GCW1X04", "current_trial": 144, "dateTime": 1512751379322, "trialdata": {"rt": 879, "key_press": 32, "type": "INSTRUCTIONS", "trial_type": "text", "trial_index": 144, "time_elapsed": 676437, "internal_node_id": "0.0-108.0"}}, {"uniqueid": "MTK0771:30IQTZXKALDCDURNCAOB597GCW1X04", "current_trial": 145, "dateTime": 1512751405328, "trialdata": {"rt": [1538, 5765, 7861, 12599, 14522, 16397, 18947, 20378, 23073], "responses": ["11", "22", "19", "13", "13", "7", "22", "14", "19"], "num1": [8, 8, 8, 4, 9, 2, 8, 4, 6, 4], "num2": [2, 6, 5, 5, 2, 3, 6, 9, 4, 4], "num3": [1, 8, 6, 4, 2, 2, 8, 1, 9, 6], "type": "DISTRACTOR", "conditions": [24, 1600, "v", 24000], "trial": 4, "trial_type": "math-distractor", "trial_index": 145, "time_elapsed": 702443, "internal_node_id": "0.0-109.0"}}, {"uniqueid": "MTK0771:30IQTZXKALDCDURNCAOB597GCW1X04", "current_trial": 146, "dateTime": 1512751408332, "trialdata": {"rt": -1, "stimulus": "<p id=\"stim\">10</p>", "key_press": -1, "trial_type": "single-stim", "trial_index": 146, "time_elapsed": 705448, "internal_node_id": "0.0-110.0-0.0"}}, {"uniqueid": "MTK0771:30IQTZXKALDCDURNCAOB597GCW1X04", "current_trial": 147, "dateTime": 1512751409333, "trialdata": {"rt": -1, "stimulus": "<p id=\"stim\">9</p>", "key_press": -1, "trial_type": "single-stim", "trial_index": 147, "time_elapsed": 706449, "internal_node_id": "0.0-110.0-1.0"}}, {"uniqueid": "MTK0771:30IQTZXKALDCDURNCAOB597GCW1X04", "current_trial": 148, "dateTime": 1512751410336, "trialdata": {"rt": -1, "stimulus": "<p id=\"stim\">8</p>", "key_press": -1, "trial_type": "single-stim", "trial_index": 148, "time_elapsed": 707451, "internal_node_id": "0.0-110.0-2.0"}}, {"uniqueid": "MTK0771:30IQTZXKALDCDURNCAOB597GCW1X04", "current_trial": 149, "dateTime": 1512751411337, "trialdata": {"rt": -1, "stimulus": "<p id=\"stim\">7</p>", "key_press": -1, "trial_type": "single-stim", "trial_index": 149, "time_elapsed": 708453, "internal_node_id": "0.0-110.0-3.0"}}, {"uniqueid": "MTK0771:30IQTZXKALDCDURNCAOB597GCW1X04", "current_trial": 150, "dateTime": 1512751412339, "trialdata": {"rt": -1, "stimulus": "<p id=\"stim\">6</p>", "key_press": -1, "trial_type": "single-stim", "trial_index": 150, "time_elapsed": 709455, "internal_node_id": "0.0-110.0-4.0"}}, {"uniqueid": "MTK0771:30IQTZXKALDCDURNCAOB597GCW1X04", "current_trial": 151, "dateTime": 1512751413342, "trialdata": {"rt": -1, "stimulus": "<p id=\"stim\">5</p>", "key_press": -1, "trial_type": "single-stim", "trial_index": 151, "time_elapsed": 710456, "internal_node_id": "0.0-110.0-5.0"}}, {"uniqueid": "MTK0771:30IQTZXKALDCDURNCAOB597GCW1X04", "current_trial": 152, "dateTime": 1512751414343, "trialdata": {"rt": -1, "stimulus": "<p id=\"stim\">4</p>", "key_press": -1, "trial_type": "single-stim", "trial_index": 152, "time_elapsed": 711459, "internal_node_id": "0.0-110.0-6.0"}}, {"uniqueid": "MTK0771:30IQTZXKALDCDURNCAOB597GCW1X04", "current_trial": 153, "dateTime": 1512751415344, "trialdata": {"rt": -1, "stimulus": "<p id=\"stim\">3</p>", "key_press": -1, "trial_type": "single-stim", "trial_index": 153, "time_elapsed": 712460, "internal_node_id": "0.0-110.0-7.0"}}, {"uniqueid": "MTK0771:30IQTZXKALDCDURNCAOB597GCW1X04", "current_trial": 154, "dateTime": 1512751416346, "trialdata": {"rt": -1, "stimulus": "<p id=\"stim\">2</p>", "key_press": -1, "trial_type": "single-stim", "trial_index": 154, "time_elapsed": 713462, "internal_node_id": "0.0-110.0-8.0"}}, {"uniqueid": "MTK0771:30IQTZXKALDCDURNCAOB597GCW1X04", "current_trial": 155, "dateTime": 1512751417347, "trialdata": {"rt": -1, "stimulus": "<p id=\"stim\">1</p>", "key_press": -1, "trial_type": "single-stim", "trial_index": 155, "time_elapsed": 714463, "internal_node_id": "0.0-110.0-9.0"}}, {"uniqueid": "MTK0771:30IQTZXKALDCDURNCAOB597GCW1X04", "current_trial": 156, "dateTime": 1512751418849, "trialdata": {"rt": -1, "stimulus": "<p id=\"stim\">+</p>", "key_press": -1, "type": "FIXATION", "trial_type": "single-stim", "trial_index": 156, "time_elapsed": 715965, "internal_node_id": "0.0-111.0-0.0"}}, {"uniqueid": "MTK0771:30IQTZXKALDCDURNCAOB597GCW1X04", "current_trial": 157, "dateTime": 1512751420450, "trialdata": {"rt": -1, "stimulus": "<p id=\"stim\">INFANT</p>", "key_press": -1, "type": "PRES_VIS", "word": "infant", "wordID": 736, "conditions": [24, 1600, "v", 24000], "trial": 4, "serialpos": 0, "trial_type": "single-stim", "trial_index": 157, "time_elapsed": 717566, "internal_node_id": "0.0-112.0"}}, {"uniqueid": "MTK0771:30IQTZXKALDCDURNCAOB597GCW1X04", "current_trial": 158, "dateTime": 1512751422853, "trialdata": {"rt": -1, "stimulus": "<p id=\"stim\">ONION</p>", "key_press": -1, "type": "PRES_VIS", "word": "onion", "wordID": 976, "conditions": [24, 1600, "v", 24000], "trial": 4, "serialpos": 1, "trial_type": "single-stim", "trial_index": 158, "time_elapsed": 719969, "internal_node_id": "0.0-113.0"}}, {"uniqueid": "MTK0771:30IQTZXKALDCDURNCAOB597GCW1X04", "current_trial": 159, "dateTime": 1512751425577, "trialdata": {"rt": -1, "stimulus": "<p id=\"stim\">SHORTS</p>", "key_press": -1, "type": "PRES_VIS", "word": "shorts", "wordID": 1292, "conditions": [24, 1600, "v", 24000], "trial": 4, "serialpos": 2, "trial_type": "single-stim", "trial_index": 159, "time_elapsed": 722692, "internal_node_id": "0.0-114.0"}}, {"uniqueid": "MTK0771:30IQTZXKALDCDURNCAOB597GCW1X04", "current_trial": 160, "dateTime": 1512751428216, "trialdata": {"rt": -1, "stimulus": "<p id=\"stim\">CAPTIVE</p>", "key_press": -1, "type": "PRES_VIS", "word": "captive", "wordID": 239, "conditions": [24, 1600, "v", 24000], "trial": 4, "serialpos": 3, "trial_type": "single-stim", "trial_index": 160, "time_elapsed": 725331, "internal_node_id": "0.0-115.0"}}, {"uniqueid": "MTK0771:30IQTZXKALDCDURNCAOB597GCW1X04", "current_trial": 161, "dateTime": 1512751430632, "trialdata": {"rt": -1, "stimulus": "<p id=\"stim\">PATIENT</p>", "key_press": -1, "type": "PRES_VIS", "word": "patient", "wordID": 1023, "conditions": [24, 1600, "v", 24000], "trial": 4, "serialpos": 4, "trial_type": "single-stim", "trial_index": 161, "time_elapsed": 727747, "internal_node_id": "0.0-116.0"}}, {"uniqueid": "MTK0771:30IQTZXKALDCDURNCAOB597GCW1X04", "current_trial": 162, "dateTime": 1512751433389, "trialdata": {"rt": -1, "stimulus": "<p id=\"stim\">RIFLE</p>", "key_press": -1, "type": "PRES_VIS", "word": "rifle", "wordID": 1191, "conditions": [24, 1600, "v", 24000], "trial": 4, "serialpos": 5, "trial_type": "single-stim", "trial_index": 162, "time_elapsed": 730504, "internal_node_id": "0.0-117.0"}}, {"uniqueid": "MTK0771:30IQTZXKALDCDURNCAOB597GCW1X04", "current_trial": 163, "dateTime": 1512751436031, "trialdata": {"rt": -1, "stimulus": "<p id=\"stim\">FLOWER</p>", "key_press": -1, "type": "PRES_VIS", "word": "flower", "wordID": 583, "conditions": [24, 1600, "v", 24000], "trial": 4, "serialpos": 6, "trial_type": "single-stim", "trial_index": 163, "time_elapsed": 733147, "internal_node_id": "0.0-118.0"}}, {"uniqueid": "MTK0771:30IQTZXKALDCDURNCAOB597GCW1X04", "current_trial": 164, "dateTime": 1512751438688, "trialdata": {"rt": -1, "stimulus": "<p id=\"stim\">DUSTPAN</p>", "key_press": -1, "type": "PRES_VIS", "word": "dustpan", "wordID": 508, "conditions": [24, 1600, "v", 24000], "trial": 4, "serialpos": 7, "trial_type": "single-stim", "trial_index": 164, "time_elapsed": 735804, "internal_node_id": "0.0-119.0"}}, {"uniqueid": "MTK0771:30IQTZXKALDCDURNCAOB597GCW1X04", "current_trial": 165, "dateTime": 1512751441341, "trialdata": {"rt": -1, "stimulus": "<p id=\"stim\">GLOVE</p>", "key_press": -1, "type": "PRES_VIS", "word": "glove", "wordID": 641, "conditions": [24, 1600, "v", 24000], "trial": 4, "serialpos": 8, "trial_type": "single-stim", "trial_index": 165, "time_elapsed": 738457, "internal_node_id": "0.0-120.0"}}, {"uniqueid": "MTK0771:30IQTZXKALDCDURNCAOB597GCW1X04", "current_trial": 166, "dateTime": 1512751443821, "trialdata": {"rt": -1, "stimulus": "<p id=\"stim\">GARLIC</p>", "key_press": -1, "type": "PRES_VIS", "word": "garlic", "wordID": 623, "conditions": [24, 1600, "v", 24000], "trial": 4, "serialpos": 9, "trial_type": "single-stim", "trial_index": 166, "time_elapsed": 740937, "internal_node_id": "0.0-121.0"}}, {"uniqueid": "MTK0771:30IQTZXKALDCDURNCAOB597GCW1X04", "current_trial": 167, "dateTime": 1512751446398, "trialdata": {"rt": -1, "stimulus": "<p id=\"stim\">LETTUCE</p>", "key_press": -1, "type": "PRES_VIS", "word": "lettuce", "wordID": 813, "conditions": [24, 1600, "v", 24000], "trial": 4, "serialpos": 10, "trial_type": "single-stim", "trial_index": 167, "time_elapsed": 743514, "internal_node_id": "0.0-122.0"}}, {"uniqueid": "MTK0771:30IQTZXKALDCDURNCAOB597GCW1X04", "current_trial": 168, "dateTime": 1512751449181, "trialdata": {"rt": -1, "stimulus": "<p id=\"stim\">PEPPER</p>", "key_press": -1, "type": "PRES_VIS", "word": "pepper", "wordID": 1046, "conditions": [24, 1600, "v", 24000], "trial": 4, "serialpos": 11, "trial_type": "single-stim", "trial_index": 168, "time_elapsed": 746296, "internal_node_id": "0.0-123.0"}}, {"uniqueid": "MTK0771:30IQTZXKALDCDURNCAOB597GCW1X04", "current_trial": 169, "dateTime": 1512751451952, "trialdata": {"rt": -1, "stimulus": "<p id=\"stim\">OFFICE</p>", "key_press": -1, "type": "PRES_VIS", "word": "office", "wordID": 971, "conditions": [24, 1600, "v", 24000], "trial": 4, "serialpos": 12, "trial_type": "single-stim", "trial_index": 169, "time_elapsed": 749067, "internal_node_id": "0.0-124.0"}}, {"uniqueid": "MTK0771:30IQTZXKALDCDURNCAOB597GCW1X04", "current_trial": 170, "dateTime": 1512751454425, "trialdata": {"rt": -1, "stimulus": "<p id=\"stim\">VELVET</p>", "key_press": -1, "type": "PRES_VIS", "word": "velvet", "wordID": 1554, "conditions": [24, 1600, "v", 24000], "trial": 4, "serialpos": 13, "trial_type": "single-stim", "trial_index": 170, "time_elapsed": 751541, "internal_node_id": "0.0-125.0"}}, {"uniqueid": "MTK0771:30IQTZXKALDCDURNCAOB597GCW1X04", "current_trial": 171, "dateTime": 1512751456920, "trialdata": {"rt": -1, "stimulus": "<p id=\"stim\">TRUCK</p>", "key_press": -1, "type": "PRES_VIS", "word": "truck", "wordID": 1511, "conditions": [24, 1600, "v", 24000], "trial": 4, "serialpos": 14, "trial_type": "single-stim", "trial_index": 171, "time_elapsed": 754036, "internal_node_id": "0.0-126.0"}}, {"uniqueid": "MTK0771:30IQTZXKALDCDURNCAOB597GCW1X04", "current_trial": 172, "dateTime": 1512751459504, "trialdata": {"rt": -1, "stimulus": "<p id=\"stim\">PLUTO</p>", "key_press": -1, "type": "PRES_VIS", "word": "pluto", "wordID": 1091, "conditions": [24, 1600, "v", 24000], "trial": 4, "serialpos": 15, "trial_type": "single-stim", "trial_index": 172, "time_elapsed": 756619, "internal_node_id": "0.0-127.0"}}, {"uniqueid": "MTK0771:30IQTZXKALDCDURNCAOB597GCW1X04", "current_trial": 173, "dateTime": 1512751462301, "trialdata": {"rt": -1, "stimulus": "<p id=\"stim\">GRAPE</p>", "key_press": -1, "type": "PRES_VIS", "word": "grape", "wordID": 653, "conditions": [24, 1600, "v", 24000], "trial": 4, "serialpos": 16, "trial_type": "single-stim", "trial_index": 173, "time_elapsed": 759416, "internal_node_id": "0.0-128.0"}}, {"uniqueid": "MTK0771:30IQTZXKALDCDURNCAOB597GCW1X04", "current_trial": 174, "dateTime": 1512751465000, "trialdata": {"rt": -1, "stimulus": "<p id=\"stim\">BARLEY</p>", "key_press": -1, "type": "PRES_VIS", "word": "barley", "wordID": 87, "conditions": [24, 1600, "v", 24000], "trial": 4, "serialpos": 17, "trial_type": "single-stim", "trial_index": 174, "time_elapsed": 762116, "internal_node_id": "0.0-129.0"}}, {"uniqueid": "MTK0771:30IQTZXKALDCDURNCAOB597GCW1X04", "current_trial": 175, "dateTime": 1512751467726, "trialdata": {"rt": -1, "stimulus": "<p id=\"stim\">DORM</p>", "key_press": -1, "type": "PRES_VIS", "word": "dorm", "wordID": 487, "conditions": [24, 1600, "v", 24000], "trial": 4, "serialpos": 18, "trial_type": "single-stim", "trial_index": 175, "time_elapsed": 764841, "internal_node_id": "0.0-130.0"}}, {"uniqueid": "MTK0771:30IQTZXKALDCDURNCAOB597GCW1X04", "current_trial": 176, "dateTime": 1512751470311, "trialdata": {"rt": -1, "stimulus": "<p id=\"stim\">SPIDER</p>", "key_press": -1, "type": "PRES_VIS", "word": "spider", "wordID": 1350, "conditions": [24, 1600, "v", 24000], "trial": 4, "serialpos": 19, "trial_type": "single-stim", "trial_index": 176, "time_elapsed": 767427, "internal_node_id": "0.0-131.0"}}, {"uniqueid": "MTK0771:30IQTZXKALDCDURNCAOB597GCW1X04", "current_trial": 177, "dateTime": 1512751472827, "trialdata": {"rt": -1, "stimulus": "<p id=\"stim\">TRACTOR</p>", "key_press": -1, "type": "PRES_VIS", "word": "tractor", "wordID": 1492, "conditions": [24, 1600, "v", 24000], "trial": 4, "serialpos": 20, "trial_type": "single-stim", "trial_index": 177, "time_elapsed": 769942, "internal_node_id": "0.0-132.0"}}, {"uniqueid": "MTK0771:30IQTZXKALDCDURNCAOB597GCW1X04", "current_trial": 178, "dateTime": 1512751475310, "trialdata": {"rt": -1, "stimulus": "<p id=\"stim\">PACKAGE</p>", "key_press": -1, "type": "PRES_VIS", "word": "package", "wordID": 996, "conditions": [24, 1600, "v", 24000], "trial": 4, "serialpos": 21, "trial_type": "single-stim", "trial_index": 178, "time_elapsed": 772426, "internal_node_id": "0.0-133.0"}}, {"uniqueid": "MTK0771:30IQTZXKALDCDURNCAOB597GCW1X04", "current_trial": 179, "dateTime": 1512751477777, "trialdata": {"rt": -1, "stimulus": "<p id=\"stim\">ROOSTER</p>", "key_press": -1, "type": "PRES_VIS", "word": "rooster", "wordID": 1208, "conditions": [24, 1600, "v", 24000], "trial": 4, "serialpos": 22, "trial_type": "single-stim", "trial_index": 179, "time_elapsed": 774893, "internal_node_id": "0.0-134.0"}}, {"uniqueid": "MTK0771:30IQTZXKALDCDURNCAOB597GCW1X04", "current_trial": 180, "dateTime": 1512751480528, "trialdata": {"rt": -1, "stimulus": "<p id=\"stim\">TEMPLE</p>", "key_press": -1, "type": "PRES_VIS", "word": "temple", "wordID": 1447, "conditions": [24, 1600, "v", 24000], "trial": 4, "serialpos": 23, "trial_type": "single-stim", "trial_index": 180, "time_elapsed": 777643, "internal_node_id": "0.0-135.0"}}, {"uniqueid": "MTK0771:30IQTZXKALDCDURNCAOB597GCW1X04", "current_trial": 181, "dateTime": 1512751482674, "trialdata": {"rt": -1, "stimulus": "", "key_press": -1, "type": "PRE_RECALL_DELAY", "trial_type": "single-stim", "trial_index": 181, "time_elapsed": 779790, "internal_node_id": "0.0-136.0-0.0"}}, {"uniqueid": "MTK0771:30IQTZXKALDCDURNCAOB597GCW1X04", "current_trial": 182, "dateTime": 1512751483176, "trialdata": {"rt": -1000, "stimulus": "/static/audio/400Hz.wav", "key_press": -1, "type": "PRE_RECALL_ALERT", "trial_type": "single-audio", "trial_index": 182, "time_elapsed": 780292, "internal_node_id": "0.0-137.0"}}, {"uniqueid": "MTK0771:30IQTZXKALDCDURNCAOB597GCW1X04", "current_trial": 183, "dateTime": 1512751543187, "trialdata": {"rt": [2368, 3547, 9024, 10824, 11895, 13280], "recwords": ["dustpan", "glove", "temple", "pluto", "grape", "barley"], "type": "FREE_RECALL", "conditions": [24, 1600, "v", 24000], "trial": 4, "trial_type": "free-recall", "trial_index": 183, "time_elapsed": 840297, "internal_node_id": "0.0-138.0-0.0"}}, {"uniqueid": "MTK0771:30IQTZXKALDCDURNCAOB597GCW1X04", "current_trial": 184, "dateTime": 1512751546369, "trialdata": {"rt": 1180, "key_press": 32, "type": "INSTRUCTIONS", "trial_type": "text", "trial_index": 184, "time_elapsed": 843484, "internal_node_id": "0.0-139.0"}}, {"uniqueid": "MTK0771:30IQTZXKALDCDURNCAOB597GCW1X04", "current_trial": 185, "dateTime": 1512751572373, "trialdata": {"rt": [3416, 5857, 7943, 10252, 12884, 15341, 17808, 19860, 21769, 23640], "responses": ["12", "6", "23", "16", "11", "17", "14", "18", "13", "19"], "num1": [4, 1, 9, 7, 3, 3, 6, 6, 9, 8, 1], "num2": [1, 3, 5, 5, 2, 6, 4, 9, 3, 7, 2], "num3": [7, 2, 9, 4, 6, 8, 4, 3, 1, 4, 7], "type": "DISTRACTOR", "conditions": [24, 800, "v", 24000], "trial": 5, "trial_type": "math-distractor", "trial_index": 185, "time_elapsed": 869489, "internal_node_id": "0.0-140.0"}}, {"uniqueid": "MTK0771:30IQTZXKALDCDURNCAOB597GCW1X04", "current_trial": 186, "dateTime": 1512751575377, "trialdata": {"rt": -1, "stimulus": "<p id=\"stim\">10</p>", "key_press": -1, "trial_type": "single-stim", "trial_index": 186, "time_elapsed": 872493, "internal_node_id": "0.0-141.0-0.0"}}, {"uniqueid": "MTK0771:30IQTZXKALDCDURNCAOB597GCW1X04", "current_trial": 187, "dateTime": 1512751576380, "trialdata": {"rt": -1, "stimulus": "<p id=\"stim\">9</p>", "key_press": -1, "trial_type": "single-stim", "trial_index": 187, "time_elapsed": 873496, "internal_node_id": "0.0-141.0-1.0"}}, {"uniqueid": "MTK0771:30IQTZXKALDCDURNCAOB597GCW1X04", "current_trial": 188, "dateTime": 1512751577382, "trialdata": {"rt": -1, "stimulus": "<p id=\"stim\">8</p>", "key_press": -1, "trial_type": "single-stim", "trial_index": 188, "time_elapsed": 874498, "internal_node_id": "0.0-141.0-2.0"}}, {"uniqueid": "MTK0771:30IQTZXKALDCDURNCAOB597GCW1X04", "current_trial": 189, "dateTime": 1512751578384, "trialdata": {"rt": -1, "stimulus": "<p id=\"stim\">7</p>", "key_press": -1, "trial_type": "single-stim", "trial_index": 189, "time_elapsed": 875499, "internal_node_id": "0.0-141.0-3.0"}}, {"uniqueid": "MTK0771:30IQTZXKALDCDURNCAOB597GCW1X04", "current_trial": 190, "dateTime": 1512751579385, "trialdata": {"rt": -1, "stimulus": "<p id=\"stim\">6</p>", "key_press": -1, "trial_type": "single-stim", "trial_index": 190, "time_elapsed": 876501, "internal_node_id": "0.0-141.0-4.0"}}, {"uniqueid": "MTK0771:30IQTZXKALDCDURNCAOB597GCW1X04", "current_trial": 191, "dateTime": 1512751580387, "trialdata": {"rt": -1, "stimulus": "<p id=\"stim\">5</p>", "key_press": -1, "trial_type": "single-stim", "trial_index": 191, "time_elapsed": 877503, "internal_node_id": "0.0-141.0-5.0"}}, {"uniqueid": "MTK0771:30IQTZXKALDCDURNCAOB597GCW1X04", "current_trial": 192, "dateTime": 1512751581389, "trialdata": {"rt": -1, "stimulus": "<p id=\"stim\">4</p>", "key_press": -1, "trial_type": "single-stim", "trial_index": 192, "time_elapsed": 878505, "internal_node_id": "0.0-141.0-6.0"}}, {"uniqueid": "MTK0771:30IQTZXKALDCDURNCAOB597GCW1X04", "current_trial": 193, "dateTime": 1512751582392, "trialdata": {"rt": -1, "stimulus": "<p id=\"stim\">3</p>", "key_press": -1, "trial_type": "single-stim", "trial_index": 193, "time_elapsed": 879507, "internal_node_id": "0.0-141.0-7.0"}}, {"uniqueid": "MTK0771:30IQTZXKALDCDURNCAOB597GCW1X04", "current_trial": 194, "dateTime": 1512751583394, "trialdata": {"rt": -1, "stimulus": "<p id=\"stim\">2</p>", "key_press": -1, "trial_type": "single-stim", "trial_index": 194, "time_elapsed": 880510, "internal_node_id": "0.0-141.0-8.0"}}, {"uniqueid": "MTK0771:30IQTZXKALDCDURNCAOB597GCW1X04", "current_trial": 195, "dateTime": 1512751584396, "trialdata": {"rt": -1, "stimulus": "<p id=\"stim\">1</p>", "key_press": -1, "trial_type": "single-stim", "trial_index": 195, "time_elapsed": 881512, "internal_node_id": "0.0-141.0-9.0"}}, {"uniqueid": "MTK0771:30IQTZXKALDCDURNCAOB597GCW1X04", "current_trial": 196, "dateTime": 1512751585899, "trialdata": {"rt": -1, "stimulus": "<p id=\"stim\">+</p>", "key_press": -1, "type": "FIXATION", "trial_type": "single-stim", "trial_index": 196, "time_elapsed": 883014, "internal_node_id": "0.0-142.0-0.0"}}, {"uniqueid": "MTK0771:30IQTZXKALDCDURNCAOB597GCW1X04", "current_trial": 197, "dateTime": 1512751586701, "trialdata": {"rt": -1, "stimulus": "<p id=\"stim\">BUGGY</p>", "key_press": -1, "type": "PRES_VIS", "word": "buggy", "wordID": 187, "conditions": [24, 800, "v", 24000], "trial": 5, "serialpos": 0, "trial_type": "single-stim", "trial_index": 197, "time_elapsed": 883816, "internal_node_id": "0.0-143.0"}}, {"uniqueid": "MTK0771:30IQTZXKALDCDURNCAOB597GCW1X04", "current_trial": 198, "dateTime": 1512751588684, "trialdata": {"rt": -1, "stimulus": "<p id=\"stim\">STOMACH</p>", "key_press": -1, "type": "PRES_VIS", "word": "stomach", "wordID": 1383, "conditions": [24, 800, "v", 24000], "trial": 5, "serialpos": 1, "trial_type": "single-stim", "trial_index": 198, "time_elapsed": 885799, "internal_node_id": "0.0-144.0"}}, {"uniqueid": "MTK0771:30IQTZXKALDCDURNCAOB597GCW1X04", "current_trial": 199, "dateTime": 1512751590634, "trialdata": {"rt": -1, "stimulus": "<p id=\"stim\">CAMEL</p>", "key_press": -1, "type": "PRES_VIS", "word": "camel", "wordID": 222, "conditions": [24, 800, "v", 24000], "trial": 5, "serialpos": 2, "trial_type": "single-stim", "trial_index": 199, "time_elapsed": 887749, "internal_node_id": "0.0-145.0"}}, {"uniqueid": "MTK0771:30IQTZXKALDCDURNCAOB597GCW1X04", "current_trial": 200, "dateTime": 1512751592278, "trialdata": {"rt": -1, "stimulus": "<p id=\"stim\">SWAMP</p>", "key_press": -1, "type": "PRES_VIS", "word": "swamp", "wordID": 1415, "conditions": [24, 800, "v", 24000], "trial": 5, "serialpos": 3, "trial_type": "single-stim", "trial_index": 200, "time_elapsed": 889393, "internal_node_id": "0.0-146.0"}}, {"uniqueid": "MTK0771:30IQTZXKALDCDURNCAOB597GCW1X04", "current_trial": 201, "dateTime": 1512751593939, "trialdata": {"rt": -1, "stimulus": "<p id=\"stim\">VALLEY</p>", "key_press": -1, "type": "PRES_VIS", "word": "valley", "wordID": 1544, "conditions": [24, 800, "v", 24000], "trial": 5, "serialpos": 4, "trial_type": "single-stim", "trial_index": 201, "time_elapsed": 891055, "internal_node_id": "0.0-147.0"}}, {"uniqueid": "MTK0771:30IQTZXKALDCDURNCAOB597GCW1X04", "current_trial": 202, "dateTime": 1512751595698, "trialdata": {"rt": -1, "stimulus": "<p id=\"stim\">SODA</p>", "key_press": -1, "type": "PRES_VIS", "word": "soda", "wordID": 1340, "conditions": [24, 800, "v", 24000], "trial": 5, "serialpos": 5, "trial_type": "single-stim", "trial_index": 202, "time_elapsed": 892814, "internal_node_id": "0.0-148.0"}}, {"uniqueid": "MTK0771:30IQTZXKALDCDURNCAOB597GCW1X04", "current_trial": 203, "dateTime": 1512751597487, "trialdata": {"rt": -1, "stimulus": "<p id=\"stim\">COFFEE</p>", "key_press": -1, "type": "PRES_VIS", "word": "coffee", "wordID": 340, "conditions": [24, 800, "v", 24000], "trial": 5, "serialpos": 6, "trial_type": "single-stim", "trial_index": 203, "time_elapsed": 894603, "internal_node_id": "0.0-149.0"}}, {"uniqueid": "MTK0771:30IQTZXKALDCDURNCAOB597GCW1X04", "current_trial": 204, "dateTime": 1512751599280, "trialdata": {"rt": -1, "stimulus": "<p id=\"stim\">RABBIT</p>", "key_press": -1, "type": "PRES_VIS", "word": "rabbit", "wordID": 1151, "conditions": [24, 800, "v", 24000], "trial": 5, "serialpos": 7, "trial_type": "single-stim", "trial_index": 204, "time_elapsed": 896396, "internal_node_id": "0.0-150.0"}}, {"uniqueid": "MTK0771:30IQTZXKALDCDURNCAOB597GCW1X04", "current_trial": 205, "dateTime": 1512751601023, "trialdata": {"rt": -1, "stimulus": "<p id=\"stim\">COD</p>", "key_press": -1, "type": "PRES_VIS", "word": "cod", "wordID": 339, "conditions": [24, 800, "v", 24000], "trial": 5, "serialpos": 8, "trial_type": "single-stim", "trial_index": 205, "time_elapsed": 898139, "internal_node_id": "0.0-151.0"}}, {"uniqueid": "MTK0771:30IQTZXKALDCDURNCAOB597GCW1X04", "current_trial": 206, "dateTime": 1512751602641, "trialdata": {"rt": -1, "stimulus": "<p id=\"stim\">PICTURE</p>", "key_press": -1, "type": "PRES_VIS", "word": "picture", "wordID": 1060, "conditions": [24, 800, "v", 24000], "trial": 5, "serialpos": 9, "trial_type": "single-stim", "trial_index": 206, "time_elapsed": 899756, "internal_node_id": "0.0-152.0"}}, {"uniqueid": "MTK0771:30IQTZXKALDCDURNCAOB597GCW1X04", "current_trial": 207, "dateTime": 1512751604611, "trialdata": {"rt": -1, "stimulus": "<p id=\"stim\">CHEST</p>", "key_press": -1, "type": "PRES_VIS", "word": "chest", "wordID": 294, "conditions": [24, 800, "v", 24000], "trial": 5, "serialpos": 10, "trial_type": "single-stim", "trial_index": 207, "time_elapsed": 901727, "internal_node_id": "0.0-153.0"}}, {"uniqueid": "MTK0771:30IQTZXKALDCDURNCAOB597GCW1X04", "current_trial": 208, "dateTime": 1512751606274, "trialdata": {"rt": -1, "stimulus": "<p id=\"stim\">REBEL</p>", "key_press": -1, "type": "PRES_VIS", "word": "rebel", "wordID": 1171, "conditions": [24, 800, "v", 24000], "trial": 5, "serialpos": 11, "trial_type": "single-stim", "trial_index": 208, "time_elapsed": 903390, "internal_node_id": "0.0-154.0"}}, {"uniqueid": "MTK0771:30IQTZXKALDCDURNCAOB597GCW1X04", "current_trial": 209, "dateTime": 1512751607913, "trialdata": {"rt": -1, "stimulus": "<p id=\"stim\">OUTDOORS</p>", "key_press": -1, "type": "PRES_VIS", "word": "outdoors", "wordID": 986, "conditions": [24, 800, "v", 24000], "trial": 5, "serialpos": 12, "trial_type": "single-stim", "trial_index": 209, "time_elapsed": 905029, "internal_node_id": "0.0-155.0"}}, {"uniqueid": "MTK0771:30IQTZXKALDCDURNCAOB597GCW1X04", "current_trial": 210, "dateTime": 1512751609589, "trialdata": {"rt": -1, "stimulus": "<p id=\"stim\">COCOON</p>", "key_press": -1, "type": "PRES_VIS", "word": "cocoon", "wordID": 338, "conditions": [24, 800, "v", 24000], "trial": 5, "serialpos": 13, "trial_type": "single-stim", "trial_index": 210, "time_elapsed": 906705, "internal_node_id": "0.0-156.0"}}, {"uniqueid": "MTK0771:30IQTZXKALDCDURNCAOB597GCW1X04", "current_trial": 211, "dateTime": 1512751611542, "trialdata": {"rt": -1, "stimulus": "<p id=\"stim\">JUNGLE</p>", "key_press": -1, "type": "PRES_VIS", "word": "jungle", "wordID": 763, "conditions": [24, 800, "v", 24000], "trial": 5, "serialpos": 14, "trial_type": "single-stim", "trial_index": 211, "time_elapsed": 908658, "internal_node_id": "0.0-157.0"}}, {"uniqueid": "MTK0771:30IQTZXKALDCDURNCAOB597GCW1X04", "current_trial": 212, "dateTime": 1512751613456, "trialdata": {"rt": -1, "stimulus": "<p id=\"stim\">APPLE</p>", "key_press": -1, "type": "PRES_VIS", "word": "apple", "wordID": 32, "conditions": [24, 800, "v", 24000], "trial": 5, "serialpos": 15, "trial_type": "single-stim", "trial_index": 212, "time_elapsed": 910572, "internal_node_id": "0.0-158.0"}}, {"uniqueid": "MTK0771:30IQTZXKALDCDURNCAOB597GCW1X04", "current_trial": 213, "dateTime": 1512751615173, "trialdata": {"rt": -1, "stimulus": "<p id=\"stim\">HEADBAND</p>", "key_press": -1, "type": "PRES_VIS", "word": "headband", "wordID": 695, "conditions": [24, 800, "v", 24000], "trial": 5, "serialpos": 16, "trial_type": "single-stim", "trial_index": 213, "time_elapsed": 912288, "internal_node_id": "0.0-159.0"}}, {"uniqueid": "MTK0771:30IQTZXKALDCDURNCAOB597GCW1X04", "current_trial": 214, "dateTime": 1512751616818, "trialdata": {"rt": -1, "stimulus": "<p id=\"stim\">WOMAN</p>", "key_press": -1, "type": "PRES_VIS", "word": "woman", "wordID": 1619, "conditions": [24, 800, "v", 24000], "trial": 5, "serialpos": 17, "trial_type": "single-stim", "trial_index": 214, "time_elapsed": 913933, "internal_node_id": "0.0-160.0"}}, {"uniqueid": "MTK0771:30IQTZXKALDCDURNCAOB597GCW1X04", "current_trial": 215, "dateTime": 1512751618800, "trialdata": {"rt": -1, "stimulus": "<p id=\"stim\">LADY</p>", "key_press": -1, "type": "PRES_VIS", "word": "lady", "wordID": 793, "conditions": [24, 800, "v", 24000], "trial": 5, "serialpos": 18, "trial_type": "single-stim", "trial_index": 215, "time_elapsed": 915916, "internal_node_id": "0.0-161.0"}}, {"uniqueid": "MTK0771:30IQTZXKALDCDURNCAOB597GCW1X04", "current_trial": 216, "dateTime": 1512751620663, "trialdata": {"rt": -1, "stimulus": "<p id=\"stim\">FIDDLE</p>", "key_press": -1, "type": "PRES_VIS", "word": "fiddle", "wordID": 560, "conditions": [24, 800, "v", 24000], "trial": 5, "serialpos": 19, "trial_type": "single-stim", "trial_index": 216, "time_elapsed": 917778, "internal_node_id": "0.0-162.0"}}, {"uniqueid": "MTK0771:30IQTZXKALDCDURNCAOB597GCW1X04", "current_trial": 217, "dateTime": 1512751622516, "trialdata": {"rt": -1, "stimulus": "<p id=\"stim\">FOOT</p>", "key_press": -1, "type": "PRES_VIS", "word": "foot", "wordID": 589, "conditions": [24, 800, "v", 24000], "trial": 5, "serialpos": 20, "trial_type": "single-stim", "trial_index": 217, "time_elapsed": 919631, "internal_node_id": "0.0-163.0"}}, {"uniqueid": "MTK0771:30IQTZXKALDCDURNCAOB597GCW1X04", "current_trial": 218, "dateTime": 1512751624436, "trialdata": {"rt": -1, "stimulus": "<p id=\"stim\">PUPPY</p>", "key_press": -1, "type": "PRES_VIS", "word": "puppy", "wordID": 1143, "conditions": [24, 800, "v", 24000], "trial": 5, "serialpos": 21, "trial_type": "single-stim", "trial_index": 218, "time_elapsed": 921552, "internal_node_id": "0.0-164.0"}}, {"uniqueid": "MTK0771:30IQTZXKALDCDURNCAOB597GCW1X04", "current_trial": 219, "dateTime": 1512751626393, "trialdata": {"rt": -1, "stimulus": "<p id=\"stim\">PIGMENT</p>", "key_press": -1, "type": "PRES_VIS", "word": "pigment", "wordID": 1065, "conditions": [24, 800, "v", 24000], "trial": 5, "serialpos": 22, "trial_type": "single-stim", "trial_index": 219, "time_elapsed": 923509, "internal_node_id": "0.0-165.0"}}, {"uniqueid": "MTK0771:30IQTZXKALDCDURNCAOB597GCW1X04", "current_trial": 220, "dateTime": 1512751628065, "trialdata": {"rt": -1, "stimulus": "<p id=\"stim\">SHIRT</p>", "key_press": -1, "type": "PRES_VIS", "word": "shirt", "wordID": 1286, "conditions": [24, 800, "v", 24000], "trial": 5, "serialpos": 23, "trial_type": "single-stim", "trial_index": 220, "time_elapsed": 925181, "internal_node_id": "0.0-166.0"}}, {"uniqueid": "MTK0771:30IQTZXKALDCDURNCAOB597GCW1X04", "current_trial": 221, "dateTime": 1512751630200, "trialdata": {"rt": -1, "stimulus": "", "key_press": -1, "type": "PRE_RECALL_DELAY", "trial_type": "single-stim", "trial_index": 221, "time_elapsed": 927316, "internal_node_id": "0.0-167.0-0.0"}}, {"uniqueid": "MTK0771:30IQTZXKALDCDURNCAOB597GCW1X04", "current_trial": 222, "dateTime": 1512751630701, "trialdata": {"rt": -1000, "stimulus": "/static/audio/400Hz.wav", "key_press": -1, "type": "PRE_RECALL_ALERT", "trial_type": "single-audio", "trial_index": 222, "time_elapsed": 927817, "internal_node_id": "0.0-168.0"}}, {"uniqueid": "MTK0771:30IQTZXKALDCDURNCAOB597GCW1X04", "current_trial": 223, "dateTime": 1512751690717, "trialdata": {"rt": [2466, 3706, 5151, 6415], "recwords": ["coffee", "soda", "camel", "swamp"], "type": "FREE_RECALL", "conditions": [24, 800, "v", 24000], "trial": 5, "trial_type": "free-recall", "trial_index": 223, "time_elapsed": 987824, "internal_node_id": "0.0-169.0-0.0"}}, {"uniqueid": "MTK0771:30IQTZXKALDCDURNCAOB597GCW1X04", "current_trial": 224, "dateTime": 1512751693766, "trialdata": {"rt": 1046, "key_press": 32, "type": "INSTRUCTIONS", "trial_type": "text", "trial_index": 224, "time_elapsed": 990882, "internal_node_id": "0.0-170.0"}}, {"uniqueid": "MTK0771:30IQTZXKALDCDURNCAOB597GCW1X04", "current_trial": 225, "dateTime": 1512751707773, "trialdata": {"rt": [2565, 4443, 6377, 8235, 9923, 11875], "responses": ["22", "15", "19", "18", "14", "21"], "num1": [9, 2, 5, 9, 2, 8, 1], "num2": [6, 7, 5, 2, 7, 7, 7], "num3": [7, 6, 9, 7, 5, 6, 3], "type": "DISTRACTOR", "conditions": [24, 1600, "a", 12000], "trial": 6, "trial_type": "math-distractor", "trial_index": 225, "time_elapsed": 1004888, "internal_node_id": "0.0-171.0"}}, {"uniqueid": "MTK0771:30IQTZXKALDCDURNCAOB597GCW1X04", "current_trial": 226, "dateTime": 1512751710775, "trialdata": {"rt": -1, "stimulus": "<p id=\"stim\">10</p>", "key_press": -1, "trial_type": "single-stim", "trial_index": 226, "time_elapsed": 1007891, "internal_node_id": "0.0-172.0-0.0"}}, {"uniqueid": "MTK0771:30IQTZXKALDCDURNCAOB597GCW1X04", "current_trial": 227, "dateTime": 1512751711777, "trialdata": {"rt": -1, "stimulus": "<p id=\"stim\">9</p>", "key_press": -1, "trial_type": "single-stim", "trial_index": 227, "time_elapsed": 1008892, "internal_node_id": "0.0-172.0-1.0"}}, {"uniqueid": "MTK0771:30IQTZXKALDCDURNCAOB597GCW1X04", "current_trial": 228, "dateTime": 1512751712780, "trialdata": {"rt": -1, "stimulus": "<p id=\"stim\">8</p>", "key_press": -1, "trial_type": "single-stim", "trial_index": 228, "time_elapsed": 1009895, "internal_node_id": "0.0-172.0-2.0"}}, {"uniqueid": "MTK0771:30IQTZXKALDCDURNCAOB597GCW1X04", "current_trial": 229, "dateTime": 1512751713782, "trialdata": {"rt": -1, "stimulus": "<p id=\"stim\">7</p>", "key_press": -1, "trial_type": "single-stim", "trial_index": 229, "time_elapsed": 1010898, "internal_node_id": "0.0-172.0-3.0"}}, {"uniqueid": "MTK0771:30IQTZXKALDCDURNCAOB597GCW1X04", "current_trial": 230, "dateTime": 1512751714784, "trialdata": {"rt": -1, "stimulus": "<p id=\"stim\">6</p>", "key_press": -1, "trial_type": "single-stim", "trial_index": 230, "time_elapsed": 1011899, "internal_node_id": "0.0-172.0-4.0"}}, {"uniqueid": "MTK0771:30IQTZXKALDCDURNCAOB597GCW1X04", "current_trial": 231, "dateTime": 1512751715786, "trialdata": {"rt": -1, "stimulus": "<p id=\"stim\">5</p>", "key_press": -1, "trial_type": "single-stim", "trial_index": 231, "time_elapsed": 1012901, "internal_node_id": "0.0-172.0-5.0"}}, {"uniqueid": "MTK0771:30IQTZXKALDCDURNCAOB597GCW1X04", "current_trial": 232, "dateTime": 1512751716788, "trialdata": {"rt": -1, "stimulus": "<p id=\"stim\">4</p>", "key_press": -1, "trial_type": "single-stim", "trial_index": 232, "time_elapsed": 1013904, "internal_node_id": "0.0-172.0-6.0"}}, {"uniqueid": "MTK0771:30IQTZXKALDCDURNCAOB597GCW1X04", "current_trial": 233, "dateTime": 1512751717790, "trialdata": {"rt": -1, "stimulus": "<p id=\"stim\">3</p>", "key_press": -1, "trial_type": "single-stim", "trial_index": 233, "time_elapsed": 1014906, "internal_node_id": "0.0-172.0-7.0"}}, {"uniqueid": "MTK0771:30IQTZXKALDCDURNCAOB597GCW1X04", "current_trial": 234, "dateTime": 1512751718792, "trialdata": {"rt": -1, "stimulus": "<p id=\"stim\">2</p>", "key_press": -1, "trial_type": "single-stim", "trial_index": 234, "time_elapsed": 1015908, "internal_node_id": "0.0-172.0-8.0"}}, {"uniqueid": "MTK0771:30IQTZXKALDCDURNCAOB597GCW1X04", "current_trial": 235, "dateTime": 1512751719793, "trialdata": {"rt": -1, "stimulus": "<p id=\"stim\">1</p>", "key_press": -1, "trial_type": "single-stim", "trial_index": 235, "time_elapsed": 1016909, "internal_node_id": "0.0-172.0-9.0"}}, {"uniqueid": "MTK0771:30IQTZXKALDCDURNCAOB597GCW1X04", "current_trial": 236, "dateTime": 1512751721295, "trialdata": {"rt": -1, "stimulus": "<p id=\"stim\">+</p>", "key_press": -1, "type": "FIXATION", "trial_type": "single-stim", "trial_index": 236, "time_elapsed": 1018411, "internal_node_id": "0.0-173.0-0.0"}}, {"uniqueid": "MTK0771:30IQTZXKALDCDURNCAOB597GCW1X04", "current_trial": 237, "dateTime": 1512751724028, "trialdata": {"rt": -1000, "stimulus": "/static/audio/wordpool/TWEEZERS.wav", "key_press": -1, "type": "PRES_AUD", "word": "tweezers", "wordID": 1525, "conditions": [24, 1600, "a", 12000], "trial": 6, "serialpos": 0, "trial_type": "single-audio", "trial_index": 237, "time_elapsed": 1021144, "internal_node_id": "0.0-174.0"}}, {"uniqueid": "MTK0771:30IQTZXKALDCDURNCAOB597GCW1X04", "current_trial": 238, "dateTime": 1512751726622, "trialdata": {"rt": -1000, "stimulus": "/static/audio/wordpool/TWIG.wav", "key_press": -1, "type": "PRES_AUD", "word": "twig", "wordID": 1526, "conditions": [24, 1600, "a", 12000], "trial": 6, "serialpos": 1, "trial_type": "single-audio", "trial_index": 238, "time_elapsed": 1023737, "internal_node_id": "0.0-175.0"}}, {"uniqueid": "MTK0771:30IQTZXKALDCDURNCAOB597GCW1X04", "current_trial": 239, "dateTime": 1512751729121, "trialdata": {"rt": -1000, "stimulus": "/static/audio/wordpool/PRINCESS.wav", "key_press": -1, "type": "PRES_AUD", "word": "princess", "wordID": 1124, "conditions": [24, 1600, "a", 12000], "trial": 6, "serialpos": 2, "trial_type": "single-audio", "trial_index": 239, "time_elapsed": 1026236, "internal_node_id": "0.0-176.0"}}, {"uniqueid": "MTK0771:30IQTZXKALDCDURNCAOB597GCW1X04", "current_trial": 240, "dateTime": 1512751731579, "trialdata": {"rt": -1000, "stimulus": "/static/audio/wordpool/BRICK.wav", "key_press": -1, "type": "PRES_AUD", "word": "brick", "wordID": 171, "conditions": [24, 1600, "a", 12000], "trial": 6, "serialpos": 3, "trial_type": "single-audio", "trial_index": 240, "time_elapsed": 1028694, "internal_node_id": "0.0-177.0"}}, {"uniqueid": "MTK0771:30IQTZXKALDCDURNCAOB597GCW1X04", "current_trial": 241, "dateTime": 1512751734222, "trialdata": {"rt": -1000, "stimulus": "/static/audio/wordpool/PORK.wav", "key_press": -1, "type": "PRES_AUD", "word": "pork", "wordID": 1107, "conditions": [24, 1600, "a", 12000], "trial": 6, "serialpos": 4, "trial_type": "single-audio", "trial_index": 241, "time_elapsed": 1031338, "internal_node_id": "0.0-178.0"}}, {"uniqueid": "MTK0771:30IQTZXKALDCDURNCAOB597GCW1X04", "current_trial": 242, "dateTime": 1512751736841, "trialdata": {"rt": -1000, "stimulus": "/static/audio/wordpool/SWIMMER.wav", "key_press": -1, "type": "PRES_AUD", "word": "swimmer", "wordID": 1419, "conditions": [24, 1600, "a", 12000], "trial": 6, "serialpos": 5, "trial_type": "single-audio", "trial_index": 242, "time_elapsed": 1033957, "internal_node_id": "0.0-179.0"}}, {"uniqueid": "MTK0771:30IQTZXKALDCDURNCAOB597GCW1X04", "current_trial": 243, "dateTime": 1512751739378, "trialdata": {"rt": -1000, "stimulus": "/static/audio/wordpool/RECORD.wav", "key_press": -1, "type": "PRES_AUD", "word": "record", "wordID": 1175, "conditions": [24, 1600, "a", 12000], "trial": 6, "serialpos": 6, "trial_type": "single-audio", "trial_index": 243, "time_elapsed": 1036493, "internal_node_id": "0.0-180.0"}}, {"uniqueid": "MTK0771:30IQTZXKALDCDURNCAOB597GCW1X04", "current_trial": 244, "dateTime": 1512751741930, "trialdata": {"rt": -1000, "stimulus": "/static/audio/wordpool/FRUIT.wav", "key_press": -1, "type": "PRES_AUD", "word": "fruit", "wordID": 609, "conditions": [24, 1600, "a", 12000], "trial": 6, "serialpos": 7, "trial_type": "single-audio", "trial_index": 244, "time_elapsed": 1039045, "internal_node_id": "0.0-181.0"}}, {"uniqueid": "MTK0771:30IQTZXKALDCDURNCAOB597GCW1X04", "current_trial": 245, "dateTime": 1512751744504, "trialdata": {"rt": -1000, "stimulus": "/static/audio/wordpool/FOX.wav", "key_press": -1, "type": "PRES_AUD", "word": "fox", "wordID": 597, "conditions": [24, 1600, "a", 12000], "trial": 6, "serialpos": 8, "trial_type": "single-audio", "trial_index": 245, "time_elapsed": 1041619, "internal_node_id": "0.0-182.0"}}, {"uniqueid": "MTK0771:30IQTZXKALDCDURNCAOB597GCW1X04", "current_trial": 246, "dateTime": 1512751747186, "trialdata": {"rt": -1000, "stimulus": "/static/audio/wordpool/PANTHER.wav", "key_press": -1, "type": "PRES_AUD", "word": "panther", "wordID": 1008, "conditions": [24, 1600, "a", 12000], "trial": 6, "serialpos": 9, "trial_type": "single-audio", "trial_index": 246, "time_elapsed": 1044302, "internal_node_id": "0.0-183.0"}}, {"uniqueid": "MTK0771:30IQTZXKALDCDURNCAOB597GCW1X04", "current_trial": 247, "dateTime": 1512751749823, "trialdata": {"rt": -1000, "stimulus": "/static/audio/wordpool/FRAGRANCE.wav", "key_press": -1, "type": "PRES_AUD", "word": "fragrance", "wordID": 598, "conditions": [24, 1600, "a", 12000], "trial": 6, "serialpos": 10, "trial_type": "single-audio", "trial_index": 247, "time_elapsed": 1046939, "internal_node_id": "0.0-184.0"}}, {"uniqueid": "MTK0771:30IQTZXKALDCDURNCAOB597GCW1X04", "current_trial": 248, "dateTime": 1512751752514, "trialdata": {"rt": -1000, "stimulus": "/static/audio/wordpool/BACON.wav", "key_press": -1, "type": "PRES_AUD", "word": "bacon", "wordID": 66, "conditions": [24, 1600, "a", 12000], "trial": 6, "serialpos": 11, "trial_type": "single-audio", "trial_index": 248, "time_elapsed": 1049630, "internal_node_id": "0.0-185.0"}}, {"uniqueid": "MTK0771:30IQTZXKALDCDURNCAOB597GCW1X04", "current_trial": 249, "dateTime": 1512751755014, "trialdata": {"rt": -1000, "stimulus": "/static/audio/wordpool/FIREPLACE.wav", "key_press": -1, "type": "PRES_AUD", "word": "fireplace", "wordID": 569, "conditions": [24, 1600, "a", 12000], "trial": 6, "serialpos": 12, "trial_type": "single-audio", "trial_index": 249, "time_elapsed": 1052130, "internal_node_id": "0.0-186.0"}}, {"uniqueid": "MTK0771:30IQTZXKALDCDURNCAOB597GCW1X04", "current_trial": 250, "dateTime": 1512751757811, "trialdata": {"rt": -1000, "stimulus": "/static/audio/wordpool/PARSLEY.wav", "key_press": -1, "type": "PRES_AUD", "word": "parsley", "wordID": 1015, "conditions": [24, 1600, "a", 12000], "trial": 6, "serialpos": 13, "trial_type": "single-audio", "trial_index": 250, "time_elapsed": 1054926, "internal_node_id": "0.0-187.0"}}, {"uniqueid": "MTK0771:30IQTZXKALDCDURNCAOB597GCW1X04", "current_trial": 251, "dateTime": 1512751760609, "trialdata": {"rt": -1000, "stimulus": "/static/audio/wordpool/SUSPECT.wav", "key_press": -1, "type": "PRES_AUD", "word": "suspect", "wordID": 1414, "conditions": [24, 1600, "a", 12000], "trial": 6, "serialpos": 14, "trial_type": "single-audio", "trial_index": 251, "time_elapsed": 1057724, "internal_node_id": "0.0-188.0"}}, {"uniqueid": "MTK0771:30IQTZXKALDCDURNCAOB597GCW1X04", "current_trial": 252, "dateTime": 1512751763281, "trialdata": {"rt": -1000, "stimulus": "/static/audio/wordpool/BARREL.wav", "key_press": -1, "type": "PRES_AUD", "word": "barrel", "wordID": 90, "conditions": [24, 1600, "a", 12000], "trial": 6, "serialpos": 15, "trial_type": "single-audio", "trial_index": 252, "time_elapsed": 1060397, "internal_node_id": "0.0-189.0"}}, {"uniqueid": "MTK0771:30IQTZXKALDCDURNCAOB597GCW1X04", "current_trial": 253, "dateTime": 1512751765821, "trialdata": {"rt": -1000, "stimulus": "/static/audio/wordpool/GALLON.wav", "key_press": -1, "type": "PRES_AUD", "word": "gallon", "wordID": 617, "conditions": [24, 1600, "a", 12000], "trial": 6, "serialpos": 16, "trial_type": "single-audio", "trial_index": 253, "time_elapsed": 1062936, "internal_node_id": "0.0-190.0"}}, {"uniqueid": "MTK0771:30IQTZXKALDCDURNCAOB597GCW1X04", "current_trial": 254, "dateTime": 1512751768550, "trialdata": {"rt": -1000, "stimulus": "/static/audio/wordpool/FRIEND.wav", "key_press": -1, "type": "PRES_AUD", "word": "friend", "wordID": 605, "conditions": [24, 1600, "a", 12000], "trial": 6, "serialpos": 17, "trial_type": "single-audio", "trial_index": 254, "time_elapsed": 1065665, "internal_node_id": "0.0-191.0"}}, {"uniqueid": "MTK0771:30IQTZXKALDCDURNCAOB597GCW1X04", "current_trial": 255, "dateTime": 1512751771268, "trialdata": {"rt": -1000, "stimulus": "/static/audio/wordpool/GOBLIN.wav", "key_press": -1, "type": "PRES_AUD", "word": "goblin", "wordID": 644, "conditions": [24, 1600, "a", 12000], "trial": 6, "serialpos": 18, "trial_type": "single-audio", "trial_index": 255, "time_elapsed": 1068384, "internal_node_id": "0.0-192.0"}}, {"uniqueid": "MTK0771:30IQTZXKALDCDURNCAOB597GCW1X04", "current_trial": 256, "dateTime": 1512751773726, "trialdata": {"rt": -1000, "stimulus": "/static/audio/wordpool/VICTIM.wav", "key_press": -1, "type": "PRES_AUD", "word": "victim", "wordID": 1561, "conditions": [24, 1600, "a", 12000], "trial": 6, "serialpos": 19, "trial_type": "single-audio", "trial_index": 256, "time_elapsed": 1070842, "internal_node_id": "0.0-193.0"}}, {"uniqueid": "MTK0771:30IQTZXKALDCDURNCAOB597GCW1X04", "current_trial": 257, "dateTime": 1512751776398, "trialdata": {"rt": -1000, "stimulus": "/static/audio/wordpool/HEDGE.wav", "key_press": -1, "type": "PRES_AUD", "word": "hedge", "wordID": 698, "conditions": [24, 1600, "a", 12000], "trial": 6, "serialpos": 20, "trial_type": "single-audio", "trial_index": 257, "time_elapsed": 1073513, "internal_node_id": "0.0-194.0"}}, {"uniqueid": "MTK0771:30IQTZXKALDCDURNCAOB597GCW1X04", "current_trial": 258, "dateTime": 1512751778940, "trialdata": {"rt": -1000, "stimulus": "/static/audio/wordpool/PADDING.wav", "key_press": -1, "type": "PRES_AUD", "word": "padding", "wordID": 998, "conditions": [24, 1600, "a", 12000], "trial": 6, "serialpos": 21, "trial_type": "single-audio", "trial_index": 258, "time_elapsed": 1076055, "internal_node_id": "0.0-195.0"}}, {"uniqueid": "MTK0771:30IQTZXKALDCDURNCAOB597GCW1X04", "current_trial": 259, "dateTime": 1512751781531, "trialdata": {"rt": -1000, "stimulus": "/static/audio/wordpool/PUDDLE.wav", "key_press": -1, "type": "PRES_AUD", "word": "puddle", "wordID": 1139, "conditions": [24, 1600, "a", 12000], "trial": 6, "serialpos": 22, "trial_type": "single-audio", "trial_index": 259, "time_elapsed": 1078646, "internal_node_id": "0.0-196.0"}}, {"uniqueid": "MTK0771:30IQTZXKALDCDURNCAOB597GCW1X04", "current_trial": 260, "dateTime": 1512751784206, "trialdata": {"rt": -1000, "stimulus": "/static/audio/wordpool/BLOCKADE.wav", "key_press": -1, "type": "PRES_AUD", "word": "blockade", "wordID": 136, "conditions": [24, 1600, "a", 12000], "trial": 6, "serialpos": 23, "trial_type": "single-audio", "trial_index": 260, "time_elapsed": 1081321, "internal_node_id": "0.0-197.0"}}, {"uniqueid": "MTK0771:30IQTZXKALDCDURNCAOB597GCW1X04", "current_trial": 261, "dateTime": 1512751785508, "trialdata": {"rt": -1, "stimulus": "", "key_press": -1, "type": "PRE_RECALL_DELAY", "trial_type": "single-stim", "trial_index": 261, "time_elapsed": 1082623, "internal_node_id": "0.0-198.0-0.0"}}, {"uniqueid": "MTK0771:30IQTZXKALDCDURNCAOB597GCW1X04", "current_trial": 262, "dateTime": 1512751786010, "trialdata": {"rt": -1000, "stimulus": "/static/audio/400Hz.wav", "key_press": -1, "type": "PRE_RECALL_ALERT", "trial_type": "single-audio", "trial_index": 262, "time_elapsed": 1083126, "internal_node_id": "0.0-199.0"}}, {"uniqueid": "MTK0771:30IQTZXKALDCDURNCAOB597GCW1X04", "current_trial": 263, "dateTime": 1512751846034, "trialdata": {"rt": [4971, 10030, 23743, 25094], "recwords": ["puddle", "blockade", "tweezers", "twib"], "type": "FREE_RECALL", "conditions": [24, 1600, "a", 12000], "trial": 6, "trial_type": "free-recall", "trial_index": 263, "time_elapsed": 1143132, "internal_node_id": "0.0-200.0-0.0"}}, {"uniqueid": "MTK0771:30IQTZXKALDCDURNCAOB597GCW1X04", "current_trial": 264, "dateTime": 1512751848673, "trialdata": {"rt": 635, "key_press": 32, "type": "INSTRUCTIONS", "trial_type": "text", "trial_index": 264, "time_elapsed": 1145788, "internal_node_id": "0.0-201.0"}}, {"uniqueid": "MTK0771:30IQTZXKALDCDURNCAOB597GCW1X04", "current_trial": 265, "dateTime": 1512751874684, "trialdata": {"rt": [4715, 6751, 8739, 12443, 14511, 17941, 19881, 22057, 23813], "responses": ["11", "20", "15", "19", "10", "10", "16", "9", "14"], "num1": [3, 6, 3, 5, 2, 3, 9, 4, 2, 6], "num2": [6, 7, 5, 8, 2, 3, 3, 1, 6, 7], "num3": [2, 6, 7, 6, 6, 4, 4, 4, 6, 9], "type": "DISTRACTOR", "conditions": [12, 800, "a", 24000], "trial": 7, "trial_type": "math-distractor", "trial_index": 265, "time_elapsed": 1171799, "internal_node_id": "0.0-202.0"}}, {"uniqueid": "MTK0771:30IQTZXKALDCDURNCAOB597GCW1X04", "current_trial": 266, "dateTime": 1512751877687, "trialdata": {"rt": -1, "stimulus": "<p id=\"stim\">10</p>", "key_press": -1, "trial_type": "single-stim", "trial_index": 266, "time_elapsed": 1174802, "internal_node_id": "0.0-203.0-0.0"}}, {"uniqueid": "MTK0771:30IQTZXKALDCDURNCAOB597GCW1X04", "current_trial": 267, "dateTime": 1512751878688, "trialdata": {"rt": -1, "stimulus": "<p id=\"stim\">9</p>", "key_press": -1, "trial_type": "single-stim", "trial_index": 267, "time_elapsed": 1175804, "internal_node_id": "0.0-203.0-1.0"}}, {"uniqueid": "MTK0771:30IQTZXKALDCDURNCAOB597GCW1X04", "current_trial": 268, "dateTime": 1512751879690, "trialdata": {"rt": -1, "stimulus": "<p id=\"stim\">8</p>", "key_press": -1, "trial_type": "single-stim", "trial_index": 268, "time_elapsed"