{"condition": 0, "counterbalance": 740, "assignmentId": "3R5F3LQFV3RML6JLFDE7SVJ9GXNZOV", "workerId": "MTK0383", "hitId": "3P458N04Q1OHMKW71VNNZD4BT52X20", "currenttrial": 626, "bonus": 0, "data": [{"uniqueid": "MTK0383:3R5F3LQFV3RML6JLFDE7SVJ9GXNZOV", "current_trial": 0, "dateTime": 1510782061338, "trialdata": {"rt": 1911, "key_press": 32, "type": "INSTRUCTIONS", "trial_type": "text", "trial_index": 0, "time_elapsed": 1916, "internal_node_id": "0.0-0.0"}}, {"uniqueid": "MTK0383:3R5F3LQFV3RML6JLFDE7SVJ9GXNZOV", "current_trial": 1, "dateTime": 1510782084349, "trialdata": {"rt": 23008, "key_press": 32, "type": "INSTRUCTIONS", "trial_type": "text", "trial_index": 1, "time_elapsed": 24928, "internal_node_id": "0.0-1.0"}}, {"uniqueid": "MTK0383:3R5F3LQFV3RML6JLFDE7SVJ9GXNZOV", "current_trial": 2, "dateTime": 1510782101127, "trialdata": {"rt": [16728], "responses": ["ocean"], "type": "AUDIO_TEST", "trial_type": "audio-test", "trial_index": 2, "time_elapsed": 41706, "internal_node_id": "0.0-2.0"}}, {"uniqueid": "MTK0383:3R5F3LQFV3RML6JLFDE7SVJ9GXNZOV", "current_trial": 3, "dateTime": 1510782109141, "trialdata": {"rt": [8008], "responses": ["crystal"], "type": "AUDIO_TEST", "trial_type": "audio-test", "trial_index": 3, "time_elapsed": 49720, "internal_node_id": "0.0-3.0"}}, {"uniqueid": "MTK0383:3R5F3LQFV3RML6JLFDE7SVJ9GXNZOV", "current_trial": 4, "dateTime": 1510782119632, "trialdata": {"rt": [10486], "responses": ["spice"], "type": "AUDIO_TEST", "trial_type": "audio-test", "trial_index": 4, "time_elapsed": 60211, "internal_node_id": "0.0-4.0"}}, {"uniqueid": "MTK0383:3R5F3LQFV3RML6JLFDE7SVJ9GXNZOV", "current_trial": 5, "dateTime": 1510782153868, "trialdata": {"rt": 33480, "responses": "{\"Q0\":\"1:30am\",\"Q1\":\"5am\",\"Q2\":\"4\"}", "type": "SLEEP_SURVEY", "trial_type": "survey-text", "trial_index": 5, "time_elapsed": 94447, "internal_node_id": "0.0-5.0"}}, {"uniqueid": "MTK0383:3R5F3LQFV3RML6JLFDE7SVJ9GXNZOV", "current_trial": 6, "dateTime": 1510782199165, "trialdata": {"rt": 44294, "key_press": 32, "type": "INSTRUCTIONS", "trial_type": "text", "trial_index": 6, "time_elapsed": 139744, "internal_node_id": "0.0-6.0"}}, {"uniqueid": "MTK0383:3R5F3LQFV3RML6JLFDE7SVJ9GXNZOV", "current_trial": 7, "dateTime": 1510782219074, "trialdata": {"rt": 19407, "key_press": 32, "type": "INSTRUCTIONS", "trial_type": "text", "trial_index": 7, "time_elapsed": 159653, "internal_node_id": "0.0-7.0"}}, {"uniqueid": "MTK0383:3R5F3LQFV3RML6JLFDE7SVJ9GXNZOV", "current_trial": 8, "dateTime": 1510782233953, "trialdata": {"rt": 14377, "key_press": 32, "type": "INSTRUCTIONS", "trial_type": "text", "trial_index": 8, "time_elapsed": 174532, "internal_node_id": "0.0-8.0"}}, {"uniqueid": "MTK0383:3R5F3LQFV3RML6JLFDE7SVJ9GXNZOV", "current_trial": 9, "dateTime": 1510782252966, "trialdata": {"rt": [4642, 6741, 8836, 10590, 13088, 15234, 17251], "responses": ["19", "10", "16", "11", "20", "19", "9"], "num1": [1, 3, 6, 1, 3, 9, 3, 6], "num2": [9, 6, 8, 9, 9, 5, 5, 2], "num3": [9, 1, 2, 1, 8, 5, 1, 8], "type": "DISTRACTOR", "conditions": [18, 1200, "v", 18000], "trial": 0, "trial_type": "math-distractor", "trial_index": 9, "time_elapsed": 193545, "internal_node_id": "0.0-9.0"}}, {"uniqueid": "MTK0383:3R5F3LQFV3RML6JLFDE7SVJ9GXNZOV", "current_trial": 10, "dateTime": 1510782255972, "trialdata": {"rt": -1, "stimulus": "<p id=\"stim\">10</p>", "key_press": -1, "trial_type": "single-stim", "trial_index": 10, "time_elapsed": 196551, "internal_node_id": "0.0-10.0-0.0"}}, {"uniqueid": "MTK0383:3R5F3LQFV3RML6JLFDE7SVJ9GXNZOV", "current_trial": 11, "dateTime": 1510782256975, "trialdata": {"rt": -1, "stimulus": "<p id=\"stim\">9</p>", "key_press": -1, "trial_type": "single-stim", "trial_index": 11, "time_elapsed": 197554, "internal_node_id": "0.0-10.0-1.0"}}, {"uniqueid": "MTK0383:3R5F3LQFV3RML6JLFDE7SVJ9GXNZOV", "current_trial": 12, "dateTime": 1510782257977, "trialdata": {"rt": -1, "stimulus": "<p id=\"stim\">8</p>", "key_press": -1, "trial_type": "single-stim", "trial_index": 12, "time_elapsed": 198556, "internal_node_id": "0.0-10.0-2.0"}}, {"uniqueid": "MTK0383:3R5F3LQFV3RML6JLFDE7SVJ9GXNZOV", "current_trial": 13, "dateTime": 1510782258978, "trialdata": {"rt": -1, "stimulus": "<p id=\"stim\">7</p>", "key_press": -1, "trial_type": "single-stim", "trial_index": 13, "time_elapsed": 199557, "internal_node_id": "0.0-10.0-3.0"}}, {"uniqueid": "MTK0383:3R5F3LQFV3RML6JLFDE7SVJ9GXNZOV", "current_trial": 14, "dateTime": 1510782259981, "trialdata": {"rt": -1, "stimulus": "<p id=\"stim\">6</p>", "key_press": -1, "trial_type": "single-stim", "trial_index": 14, "time_elapsed": 200560, "internal_node_id": "0.0-10.0-4.0"}}, {"uniqueid": "MTK0383:3R5F3LQFV3RML6JLFDE7SVJ9GXNZOV", "current_trial": 15, "dateTime": 1510782260984, "trialdata": {"rt": -1, "stimulus": "<p id=\"stim\">5</p>", "key_press": -1, "trial_type": "single-stim", "trial_index": 15, "time_elapsed": 201563, "internal_node_id": "0.0-10.0-5.0"}}, {"uniqueid": "MTK0383:3R5F3LQFV3RML6JLFDE7SVJ9GXNZOV", "current_trial": 16, "dateTime": 1510782261986, "trialdata": {"rt": -1, "stimulus": "<p id=\"stim\">4</p>", "key_press": -1, "trial_type": "single-stim", "trial_index": 16, "time_elapsed": 202565, "internal_node_id": "0.0-10.0-6.0"}}, {"uniqueid": "MTK0383:3R5F3LQFV3RML6JLFDE7SVJ9GXNZOV", "current_trial": 17, "dateTime": 1510782263004, "trialdata": {"rt": -1, "stimulus": "<p id=\"stim\">3</p>", "key_press": -1, "trial_type": "single-stim", "trial_index": 17, "time_elapsed": 203583, "internal_node_id": "0.0-10.0-7.0"}}, {"uniqueid": "MTK0383:3R5F3LQFV3RML6JLFDE7SVJ9GXNZOV", "current_trial": 18, "dateTime": 1510782264007, "trialdata": {"rt": -1, "stimulus": "<p id=\"stim\">2</p>", "key_press": -1, "trial_type": "single-stim", "trial_index": 18, "time_elapsed": 204585, "internal_node_id": "0.0-10.0-8.0"}}, {"uniqueid": "MTK0383:3R5F3LQFV3RML6JLFDE7SVJ9GXNZOV", "current_trial": 19, "dateTime": 1510782265009, "trialdata": {"rt": -1, "stimulus": "<p id=\"stim\">1</p>", "key_press": -1, "trial_type": "single-stim", "trial_index": 19, "time_elapsed": 205588, "internal_node_id": "0.0-10.0-9.0"}}, {"uniqueid": "MTK0383:3R5F3LQFV3RML6JLFDE7SVJ9GXNZOV", "current_trial": 20, "dateTime": 1510782266510, "trialdata": {"rt": -1, "stimulus": "<p id=\"stim\">+</p>", "key_press": -1, "type": "FIXATION", "trial_type": "single-stim", "trial_index": 20, "time_elapsed": 207089, "internal_node_id": "0.0-11.0-0.0"}}, {"uniqueid": "MTK0383:3R5F3LQFV3RML6JLFDE7SVJ9GXNZOV", "current_trial": 21, "dateTime": 1510782267712, "trialdata": {"rt": -1, "stimulus": "<p id=\"stim\">MARSH</p>", "key_press": -1, "type": "PRES_VIS", "word": "marsh", "wordID": 873, "conditions": [18, 1200, "v", 18000], "trial": 0, "serialpos": 0, "trial_type": "single-stim", "trial_index": 21, "time_elapsed": 208291, "internal_node_id": "0.0-12.0"}}, {"uniqueid": "MTK0383:3R5F3LQFV3RML6JLFDE7SVJ9GXNZOV", "current_trial": 22, "dateTime": 1510782269813, "trialdata": {"rt": -1, "stimulus": "<p id=\"stim\">BUREAU</p>", "key_press": -1, "type": "PRES_VIS", "word": "bureau", "wordID": 198, "conditions": [18, 1200, "v", 18000], "trial": 0, "serialpos": 1, "trial_type": "single-stim", "trial_index": 22, "time_elapsed": 210392, "internal_node_id": "0.0-13.0"}}, {"uniqueid": "MTK0383:3R5F3LQFV3RML6JLFDE7SVJ9GXNZOV", "current_trial": 23, "dateTime": 1510782272019, "trialdata": {"rt": -1, "stimulus": "<p id=\"stim\">AGENT</p>", "key_press": -1, "type": "PRES_VIS", "word": "agent", "wordID": 9, "conditions": [18, 1200, "v", 18000], "trial": 0, "serialpos": 2, "trial_type": "single-stim", "trial_index": 23, "time_elapsed": 212598, "internal_node_id": "0.0-14.0"}}, {"uniqueid": "MTK0383:3R5F3LQFV3RML6JLFDE7SVJ9GXNZOV", "current_trial": 24, "dateTime": 1510782274297, "trialdata": {"rt": -1, "stimulus": "<p id=\"stim\">DENIM</p>", "key_press": -1, "type": "PRES_VIS", "word": "denim", "wordID": 445, "conditions": [18, 1200, "v", 18000], "trial": 0, "serialpos": 3, "trial_type": "single-stim", "trial_index": 24, "time_elapsed": 214876, "internal_node_id": "0.0-15.0"}}, {"uniqueid": "MTK0383:3R5F3LQFV3RML6JLFDE7SVJ9GXNZOV", "current_trial": 25, "dateTime": 1510782276324, "trialdata": {"rt": -1, "stimulus": "<p id=\"stim\">JAPAN</p>", "key_press": -1, "type": "PRES_VIS", "word": "japan", "wordID": 748, "conditions": [18, 1200, "v", 18000], "trial": 0, "serialpos": 4, "trial_type": "single-stim", "trial_index": 25, "time_elapsed": 216903, "internal_node_id": "0.0-16.0"}}, {"uniqueid": "MTK0383:3R5F3LQFV3RML6JLFDE7SVJ9GXNZOV", "current_trial": 26, "dateTime": 1510782278504, "trialdata": {"rt": -1, "stimulus": "<p id=\"stim\">KITCHEN</p>", "key_press": -1, "type": "PRES_VIS", "word": "kitchen", "wordID": 777, "conditions": [18, 1200, "v", 18000], "trial": 0, "serialpos": 5, "trial_type": "single-stim", "trial_index": 26, "time_elapsed": 219083, "internal_node_id": "0.0-17.0"}}, {"uniqueid": "MTK0383:3R5F3LQFV3RML6JLFDE7SVJ9GXNZOV", "current_trial": 27, "dateTime": 1510782280654, "trialdata": {"rt": -1, "stimulus": "<p id=\"stim\">NECKLACE</p>", "key_press": -1, "type": "PRES_VIS", "word": "necklace", "wordID": 939, "conditions": [18, 1200, "v", 18000], "trial": 0, "serialpos": 6, "trial_type": "single-stim", "trial_index": 27, "time_elapsed": 221233, "internal_node_id": "0.0-18.0"}}, {"uniqueid": "MTK0383:3R5F3LQFV3RML6JLFDE7SVJ9GXNZOV", "current_trial": 28, "dateTime": 1510782282730, "trialdata": {"rt": -1, "stimulus": "<p id=\"stim\">CRIB</p>", "key_press": -1, "type": "PRES_VIS", "word": "crib", "wordID": 406, "conditions": [18, 1200, "v", 18000], "trial": 0, "serialpos": 7, "trial_type": "single-stim", "trial_index": 28, "time_elapsed": 223309, "internal_node_id": "0.0-19.0"}}, {"uniqueid": "MTK0383:3R5F3LQFV3RML6JLFDE7SVJ9GXNZOV", "current_trial": 29, "dateTime": 1510782284809, "trialdata": {"rt": -1, "stimulus": "<p id=\"stim\">BLENDER</p>", "key_press": -1, "type": "PRES_VIS", "word": "blender", "wordID": 135, "conditions": [18, 1200, "v", 18000], "trial": 0, "serialpos": 8, "trial_type": "single-stim", "trial_index": 29, "time_elapsed": 225388, "internal_node_id": "0.0-20.0"}}, {"uniqueid": "MTK0383:3R5F3LQFV3RML6JLFDE7SVJ9GXNZOV", "current_trial": 30, "dateTime": 1510782287027, "trialdata": {"rt": -1, "stimulus": "<p id=\"stim\">DIVER</p>", "key_press": -1, "type": "PRES_VIS", "word": "diver", "wordID": 475, "conditions": [18, 1200, "v", 18000], "trial": 0, "serialpos": 9, "trial_type": "single-stim", "trial_index": 30, "time_elapsed": 227606, "internal_node_id": "0.0-21.0"}}, {"uniqueid": "MTK0383:3R5F3LQFV3RML6JLFDE7SVJ9GXNZOV", "current_trial": 31, "dateTime": 1510782289426, "trialdata": {"rt": -1, "stimulus": "<p id=\"stim\">EYELASH</p>", "key_press": -1, "type": "PRES_VIS", "word": "eyelash", "wordID": 545, "conditions": [18, 1200, "v", 18000], "trial": 0, "serialpos": 10, "trial_type": "single-stim", "trial_index": 31, "time_elapsed": 230005, "internal_node_id": "0.0-22.0"}}, {"uniqueid": "MTK0383:3R5F3LQFV3RML6JLFDE7SVJ9GXNZOV", "current_trial": 32, "dateTime": 1510782291472, "trialdata": {"rt": -1, "stimulus": "<p id=\"stim\">CLAMP</p>", "key_press": -1, "type": "PRES_VIS", "word": "clamp", "wordID": 315, "conditions": [18, 1200, "v", 18000], "trial": 0, "serialpos": 11, "trial_type": "single-stim", "trial_index": 32, "time_elapsed": 232051, "internal_node_id": "0.0-23.0"}}, {"uniqueid": "MTK0383:3R5F3LQFV3RML6JLFDE7SVJ9GXNZOV", "current_trial": 33, "dateTime": 1510782293623, "trialdata": {"rt": -1, "stimulus": "<p id=\"stim\">BEEF</p>", "key_press": -1, "type": "PRES_VIS", "word": "beef", "wordID": 112, "conditions": [18, 1200, "v", 18000], "trial": 0, "serialpos": 12, "trial_type": "single-stim", "trial_index": 33, "time_elapsed": 234202, "internal_node_id": "0.0-24.0"}}, {"uniqueid": "MTK0383:3R5F3LQFV3RML6JLFDE7SVJ9GXNZOV", "current_trial": 34, "dateTime": 1510782295643, "trialdata": {"rt": -1, "stimulus": "<p id=\"stim\">CARRIAGE</p>", "key_press": -1, "type": "PRES_VIS", "word": "carriage", "wordID": 247, "conditions": [18, 1200, "v", 18000], "trial": 0, "serialpos": 13, "trial_type": "single-stim", "trial_index": 34, "time_elapsed": 236222, "internal_node_id": "0.0-25.0"}}, {"uniqueid": "MTK0383:3R5F3LQFV3RML6JLFDE7SVJ9GXNZOV", "current_trial": 35, "dateTime": 1510782297929, "trialdata": {"rt": -1, "stimulus": "<p id=\"stim\">LIGHTNING</p>", "key_press": -1, "type": "PRES_VIS", "word": "lightning", "wordID": 819, "conditions": [18, 1200, "v", 18000], "trial": 0, "serialpos": 14, "trial_type": "single-stim", "trial_index": 35, "time_elapsed": 238508, "internal_node_id": "0.0-26.0"}}, {"uniqueid": "MTK0383:3R5F3LQFV3RML6JLFDE7SVJ9GXNZOV", "current_trial": 36, "dateTime": 1510782299956, "trialdata": {"rt": -1, "stimulus": "<p id=\"stim\">WITNESS</p>", "key_press": -1, "type": "PRES_VIS", "word": "witness", "wordID": 1617, "conditions": [18, 1200, "v", 18000], "trial": 0, "serialpos": 15, "trial_type": "single-stim", "trial_index": 36, "time_elapsed": 240535, "internal_node_id": "0.0-27.0"}}, {"uniqueid": "MTK0383:3R5F3LQFV3RML6JLFDE7SVJ9GXNZOV", "current_trial": 37, "dateTime": 1510782302031, "trialdata": {"rt": -1, "stimulus": "<p id=\"stim\">FIDDLE</p>", "key_press": -1, "type": "PRES_VIS", "word": "fiddle", "wordID": 560, "conditions": [18, 1200, "v", 18000], "trial": 0, "serialpos": 16, "trial_type": "single-stim", "trial_index": 37, "time_elapsed": 242610, "internal_node_id": "0.0-28.0"}}, {"uniqueid": "MTK0383:3R5F3LQFV3RML6JLFDE7SVJ9GXNZOV", "current_trial": 38, "dateTime": 1510782304349, "trialdata": {"rt": -1, "stimulus": "<p id=\"stim\">MARROW</p>", "key_press": -1, "type": "PRES_VIS", "word": "marrow", "wordID": 871, "conditions": [18, 1200, "v", 18000], "trial": 0, "serialpos": 17, "trial_type": "single-stim", "trial_index": 38, "time_elapsed": 244928, "internal_node_id": "0.0-29.0"}}, {"uniqueid": "MTK0383:3R5F3LQFV3RML6JLFDE7SVJ9GXNZOV", "current_trial": 39, "dateTime": 1510782306578, "trialdata": {"rt": -1, "stimulus": "", "key_press": -1, "type": "PRE_RECALL_DELAY", "trial_type": "single-stim", "trial_index": 39, "time_elapsed": 247157, "internal_node_id": "0.0-30.0-0.0"}}, {"uniqueid": "MTK0383:3R5F3LQFV3RML6JLFDE7SVJ9GXNZOV", "current_trial": 40, "dateTime": 1510782307083, "trialdata": {"rt": -1000, "stimulus": "/static/audio/400Hz.wav", "key_press": -1, "type": "PRE_RECALL_ALERT", "trial_type": "single-audio", "trial_index": 40, "time_elapsed": 247661, "internal_node_id": "0.0-31.0"}}, {"uniqueid": "MTK0383:3R5F3LQFV3RML6JLFDE7SVJ9GXNZOV", "current_trial": 41, "dateTime": 1510782367096, "trialdata": {"rt": [2014, 3449, 7249, 9451, 11022, 12730, 16221, 24508, 27978, 34088, 51665], "recwords": ["marrow", "fiddle", "bureau", "kitchen", "eyelash", "marsh", "agent", "denim", "japan", "clamp", "beef"], "type": "FREE_RECALL", "conditions": [18, 1200, "v", 18000], "trial": 0, "trial_type": "free-recall", "trial_index": 41, "time_elapsed": 307669, "internal_node_id": "0.0-32.0-0.0"}}, {"uniqueid": "MTK0383:3R5F3LQFV3RML6JLFDE7SVJ9GXNZOV", "current_trial": 42, "dateTime": 1510782665174, "trialdata": {"rt": 296074, "key_press": 32, "type": "INSTRUCTIONS", "trial_type": "text", "trial_index": 42, "time_elapsed": 605753, "internal_node_id": "0.0-33.0"}}, {"uniqueid": "MTK0383:3R5F3LQFV3RML6JLFDE7SVJ9GXNZOV", "current_trial": 43, "dateTime": 1510782685182, "trialdata": {"rt": [2492, 4975, 6752, 8472, 10070, 12584, 14685, 16893], "responses": ["11", "13", "10", "19", "10", "17", "11", "12"], "num1": [9, 6, 5, 5, 5, 5, 2, 3, 4], "num2": [1, 4, 4, 6, 4, 6, 6, 6, 1], "num3": [1, 3, 1, 8, 1, 6, 3, 3, 6], "type": "DISTRACTOR", "conditions": [18, 1200, "a", 18000], "trial": 1, "trial_type": "math-distractor", "trial_index": 43, "time_elapsed": 625761, "internal_node_id": "0.0-34.0"}}, {"uniqueid": "MTK0383:3R5F3LQFV3RML6JLFDE7SVJ9GXNZOV", "current_trial": 44, "dateTime": 1510782688186, "trialdata": {"rt": -1, "stimulus": "<p id=\"stim\">10</p>", "key_press": -1, "trial_type": "single-stim", "trial_index": 44, "time_elapsed": 628765, "internal_node_id": "0.0-35.0-0.0"}}, {"uniqueid": "MTK0383:3R5F3LQFV3RML6JLFDE7SVJ9GXNZOV", "current_trial": 45, "dateTime": 1510782689188, "trialdata": {"rt": -1, "stimulus": "<p id=\"stim\">9</p>", "key_press": -1, "trial_type": "single-stim", "trial_index": 45, "time_elapsed": 629767, "internal_node_id": "0.0-35.0-1.0"}}, {"uniqueid": "MTK0383:3R5F3LQFV3RML6JLFDE7SVJ9GXNZOV", "current_trial": 46, "dateTime": 1510782690190, "trialdata": {"rt": -1, "stimulus": "<p id=\"stim\">8</p>", "key_press": -1, "trial_type": "single-stim", "trial_index": 46, "time_elapsed": 630769, "internal_node_id": "0.0-35.0-2.0"}}, {"uniqueid": "MTK0383:3R5F3LQFV3RML6JLFDE7SVJ9GXNZOV", "current_trial": 47, "dateTime": 1510782691193, "trialdata": {"rt": -1, "stimulus": "<p id=\"stim\">7</p>", "key_press": -1, "trial_type": "single-stim", "trial_index": 47, "time_elapsed": 631772, "internal_node_id": "0.0-35.0-3.0"}}, {"uniqueid": "MTK0383:3R5F3LQFV3RML6JLFDE7SVJ9GXNZOV", "current_trial": 48, "dateTime": 1510782692196, "trialdata": {"rt": -1, "stimulus": "<p id=\"stim\">6</p>", "key_press": -1, "trial_type": "single-stim", "trial_index": 48, "time_elapsed": 632775, "internal_node_id": "0.0-35.0-4.0"}}, {"uniqueid": "MTK0383:3R5F3LQFV3RML6JLFDE7SVJ9GXNZOV", "current_trial": 49, "dateTime": 1510782693198, "trialdata": {"rt": -1, "stimulus": "<p id=\"stim\">5</p>", "key_press": -1, "trial_type": "single-stim", "trial_index": 49, "time_elapsed": 633777, "internal_node_id": "0.0-35.0-5.0"}}, {"uniqueid": "MTK0383:3R5F3LQFV3RML6JLFDE7SVJ9GXNZOV", "current_trial": 50, "dateTime": 1510782694200, "trialdata": {"rt": -1, "stimulus": "<p id=\"stim\">4</p>", "key_press": -1, "trial_type": "single-stim", "trial_index": 50, "time_elapsed": 634779, "internal_node_id": "0.0-35.0-6.0"}}, {"uniqueid": "MTK0383:3R5F3LQFV3RML6JLFDE7SVJ9GXNZOV", "current_trial": 51, "dateTime": 1510782695202, "trialdata": {"rt": -1, "stimulus": "<p id=\"stim\">3</p>", "key_press": -1, "trial_type": "single-stim", "trial_index": 51, "time_elapsed": 635781, "internal_node_id": "0.0-35.0-7.0"}}, {"uniqueid": "MTK0383:3R5F3LQFV3RML6JLFDE7SVJ9GXNZOV", "current_trial": 52, "dateTime": 1510782696205, "trialdata": {"rt": -1, "stimulus": "<p id=\"stim\">2</p>", "key_press": -1, "trial_type": "single-stim", "trial_index": 52, "time_elapsed": 636784, "internal_node_id": "0.0-35.0-8.0"}}, {"uniqueid": "MTK0383:3R5F3LQFV3RML6JLFDE7SVJ9GXNZOV", "current_trial": 53, "dateTime": 1510782697207, "trialdata": {"rt": -1, "stimulus": "<p id=\"stim\">1</p>", "key_press": -1, "trial_type": "single-stim", "trial_index": 53, "time_elapsed": 637786, "internal_node_id": "0.0-35.0-9.0"}}, {"uniqueid": "MTK0383:3R5F3LQFV3RML6JLFDE7SVJ9GXNZOV", "current_trial": 54, "dateTime": 1510782698723, "trialdata": {"rt": -1, "stimulus": "<p id=\"stim\">+</p>", "key_press": -1, "type": "FIXATION", "trial_type": "single-stim", "trial_index": 54, "time_elapsed": 639302, "internal_node_id": "0.0-36.0-0.0"}}, {"uniqueid": "MTK0383:3R5F3LQFV3RML6JLFDE7SVJ9GXNZOV", "current_trial": 55, "dateTime": 1510782700855, "trialdata": {"rt": 1401.3333333332412, "stimulus": "/static/audio/wordpool/HERO.wav", "key_press": 175, "type": "PRES_AUD", "word": "hero", "wordID": 705, "conditions": [18, 1200, "a", 18000], "trial": 1, "serialpos": 0, "trial_type": "single-audio", "trial_index": 55, "time_elapsed": 641434, "internal_node_id": "0.0-37.0"}}, {"uniqueid": "MTK0383:3R5F3LQFV3RML6JLFDE7SVJ9GXNZOV", "current_trial": 56, "dateTime": 1510782703118, "trialdata": {"rt": -1000, "stimulus": "/static/audio/wordpool/HATCHET.wav", "key_press": -1, "type": "PRES_AUD", "word": "hatchet", "wordID": 690, "conditions": [18, 1200, "a", 18000], "trial": 1, "serialpos": 1, "trial_type": "single-audio", "trial_index": 56, "time_elapsed": 643696, "internal_node_id": "0.0-38.0"}}, {"uniqueid": "MTK0383:3R5F3LQFV3RML6JLFDE7SVJ9GXNZOV", "current_trial": 57, "dateTime": 1510782705478, "trialdata": {"rt": -1000, "stimulus": "/static/audio/wordpool/DRAWING.wav", "key_press": -1, "type": "PRES_AUD", "word": "drawing", "wordID": 493, "conditions": [18, 1200, "a", 18000], "trial": 1, "serialpos": 2, "trial_type": "single-audio", "trial_index": 57, "time_elapsed": 646057, "internal_node_id": "0.0-39.0"}}, {"uniqueid": "MTK0383:3R5F3LQFV3RML6JLFDE7SVJ9GXNZOV", "current_trial": 58, "dateTime": 1510782707741, "trialdata": {"rt": -1000, "stimulus": "/static/audio/wordpool/GANGSTER.wav", "key_press": -1, "type": "PRES_AUD", "word": "gangster", "wordID": 619, "conditions": [18, 1200, "a", 18000], "trial": 1, "serialpos": 3, "trial_type": "single-audio", "trial_index": 58, "time_elapsed": 648320, "internal_node_id": "0.0-40.0"}}, {"uniqueid": "MTK0383:3R5F3LQFV3RML6JLFDE7SVJ9GXNZOV", "current_trial": 59, "dateTime": 1510782710020, "trialdata": {"rt": -1000, "stimulus": "/static/audio/wordpool/ROBBER.wav", "key_press": -1, "type": "PRES_AUD", "word": "robber", "wordID": 1196, "conditions": [18, 1200, "a", 18000], "trial": 1, "serialpos": 4, "trial_type": "single-audio", "trial_index": 59, "time_elapsed": 650599, "internal_node_id": "0.0-41.0"}}, {"uniqueid": "MTK0383:3R5F3LQFV3RML6JLFDE7SVJ9GXNZOV", "current_trial": 60, "dateTime": 1510782712386, "trialdata": {"rt": -1000, "stimulus": "/static/audio/wordpool/FLIPPER.wav", "key_press": -1, "type": "PRES_AUD", "word": "flipper", "wordID": 579, "conditions": [18, 1200, "a", 18000], "trial": 1, "serialpos": 5, "trial_type": "single-audio", "trial_index": 60, "time_elapsed": 652964, "internal_node_id": "0.0-42.0"}}, {"uniqueid": "MTK0383:3R5F3LQFV3RML6JLFDE7SVJ9GXNZOV", "current_trial": 61, "dateTime": 1510782714586, "trialdata": {"rt": -1000, "stimulus": "/static/audio/wordpool/GUARD.wav", "key_press": -1, "type": "PRES_AUD", "word": "guard", "wordID": 666, "conditions": [18, 1200, "a", 18000], "trial": 1, "serialpos": 6, "trial_type": "single-audio", "trial_index": 61, "time_elapsed": 655165, "internal_node_id": "0.0-43.0"}}, {"uniqueid": "MTK0383:3R5F3LQFV3RML6JLFDE7SVJ9GXNZOV", "current_trial": 62, "dateTime": 1510782716845, "trialdata": {"rt": 1729.3333333333294, "stimulus": "/static/audio/wordpool/GUITAR.wav", "key_press": 175, "type": "PRES_AUD", "word": "guitar", "wordID": 669, "conditions": [18, 1200, "a", 18000], "trial": 1, "serialpos": 7, "trial_type": "single-audio", "trial_index": 62, "time_elapsed": 657424, "internal_node_id": "0.0-44.0"}}, {"uniqueid": "MTK0383:3R5F3LQFV3RML6JLFDE7SVJ9GXNZOV", "current_trial": 63, "dateTime": 1510782719033, "trialdata": {"rt": 30.666666666661513, "stimulus": "/static/audio/wordpool/SHOULDER.wav", "key_press": 175, "type": "PRES_AUD", "word": "shoulder", "wordID": 1293, "conditions": [18, 1200, "a", 18000], "trial": 1, "serialpos": 8, "trial_type": "single-audio", "trial_index": 63, "time_elapsed": 659611, "internal_node_id": "0.0-45.0"}}, {"uniqueid": "MTK0383:3R5F3LQFV3RML6JLFDE7SVJ9GXNZOV", "current_trial": 64, "dateTime": 1510782721429, "trialdata": {"rt": -1000, "stimulus": "/static/audio/wordpool/DINER.wav", "key_press": -1, "type": "PRES_AUD", "word": "diner", "wordID": 466, "conditions": [18, 1200, "a", 18000], "trial": 1, "serialpos": 9, "trial_type": "single-audio", "trial_index": 64, "time_elapsed": 662008, "internal_node_id": "0.0-46.0"}}, {"uniqueid": "MTK0383:3R5F3LQFV3RML6JLFDE7SVJ9GXNZOV", "current_trial": 65, "dateTime": 1510782723459, "trialdata": {"rt": -1000, "stimulus": "/static/audio/wordpool/COBRA.wav", "key_press": -1, "type": "PRES_AUD", "word": "cobra", "wordID": 335, "conditions": [18, 1200, "a", 18000], "trial": 1, "serialpos": 10, "trial_type": "single-audio", "trial_index": 65, "time_elapsed": 664037, "internal_node_id": "0.0-47.0"}}, {"uniqueid": "MTK0383:3R5F3LQFV3RML6JLFDE7SVJ9GXNZOV", "current_trial": 66, "dateTime": 1510782725803, "trialdata": {"rt": -1000, "stimulus": "/static/audio/wordpool/SALAD.wav", "key_press": -1, "type": "PRES_AUD", "word": "salad", "wordID": 1223, "conditions": [18, 1200, "a", 18000], "trial": 1, "serialpos": 11, "trial_type": "single-audio", "trial_index": 66, "time_elapsed": 666382, "internal_node_id": "0.0-48.0"}}, {"uniqueid": "MTK0383:3R5F3LQFV3RML6JLFDE7SVJ9GXNZOV", "current_trial": 67, "dateTime": 1510782727953, "trialdata": {"rt": -1000, "stimulus": "/static/audio/wordpool/SNACK.wav", "key_press": -1, "type": "PRES_AUD", "word": "snack", "wordID": 1330, "conditions": [18, 1200, "a", 18000], "trial": 1, "serialpos": 12, "trial_type": "single-audio", "trial_index": 67, "time_elapsed": 668532, "internal_node_id": "0.0-49.0"}}, {"uniqueid": "MTK0383:3R5F3LQFV3RML6JLFDE7SVJ9GXNZOV", "current_trial": 68, "dateTime": 1510782730126, "trialdata": {"rt": -1000, "stimulus": "/static/audio/wordpool/KNAPSACK.wav", "key_press": -1, "type": "PRES_AUD", "word": "knapsack", "wordID": 782, "conditions": [18, 1200, "a", 18000], "trial": 1, "serialpos": 13, "trial_type": "single-audio", "trial_index": 68, "time_elapsed": 670700, "internal_node_id": "0.0-50.0"}}, {"uniqueid": "MTK0383:3R5F3LQFV3RML6JLFDE7SVJ9GXNZOV", "current_trial": 69, "dateTime": 1510782732416, "trialdata": {"rt": -1000, "stimulus": "/static/audio/wordpool/WORKER.wav", "key_press": -1, "type": "PRES_AUD", "word": "worker", "wordID": 1620, "conditions": [18, 1200, "a", 18000], "trial": 1, "serialpos": 14, "trial_type": "single-audio", "trial_index": 69, "time_elapsed": 672994, "internal_node_id": "0.0-51.0"}}, {"uniqueid": "MTK0383:3R5F3LQFV3RML6JLFDE7SVJ9GXNZOV", "current_trial": 70, "dateTime": 1510782734605, "trialdata": {"rt": -1000, "stimulus": "/static/audio/wordpool/STAMP.wav", "key_press": -1, "type": "PRES_AUD", "word": "stamp", "wordID": 1369, "conditions": [18, 1200, "a", 18000], "trial": 1, "serialpos": 15, "trial_type": "single-audio", "trial_index": 70, "time_elapsed": 675183, "internal_node_id": "0.0-52.0"}}, {"uniqueid": "MTK0383:3R5F3LQFV3RML6JLFDE7SVJ9GXNZOV", "current_trial": 71, "dateTime": 1510782736858, "trialdata": {"rt": -1000, "stimulus": "/static/audio/wordpool/RADISH.wav", "key_press": -1, "type": "PRES_AUD", "word": "radish", "wordID": 1157, "conditions": [18, 1200, "a", 18000], "trial": 1, "serialpos": 16, "trial_type": "single-audio", "trial_index": 71, "time_elapsed": 677436, "internal_node_id": "0.0-53.0"}}, {"uniqueid": "MTK0383:3R5F3LQFV3RML6JLFDE7SVJ9GXNZOV", "current_trial": 72, "dateTime": 1510782739070, "trialdata": {"rt": -1000, "stimulus": "/static/audio/wordpool/LASER.wav", "key_press": -1, "type": "PRES_AUD", "word": "laser", "wordID": 800, "conditions": [18, 1200, "a", 18000], "trial": 1, "serialpos": 17, "trial_type": "single-audio", "trial_index": 72, "time_elapsed": 679648, "internal_node_id": "0.0-54.0"}}, {"uniqueid": "MTK0383:3R5F3LQFV3RML6JLFDE7SVJ9GXNZOV", "current_trial": 73, "dateTime": 1510782740426, "trialdata": {"rt": -1, "stimulus": "", "key_press": -1, "type": "PRE_RECALL_DELAY", "trial_type": "single-stim", "trial_index": 73, "time_elapsed": 681005, "internal_node_id": "0.0-55.0-0.0"}}, {"uniqueid": "MTK0383:3R5F3LQFV3RML6JLFDE7SVJ9GXNZOV", "current_trial": 74, "dateTime": 1510782740928, "trialdata": {"rt": -1000, "stimulus": "/static/audio/400Hz.wav", "key_press": -1, "type": "PRE_RECALL_ALERT", "trial_type": "single-audio", "trial_index": 74, "time_elapsed": 681507, "internal_node_id": "0.0-56.0"}}, {"uniqueid": "MTK0383:3R5F3LQFV3RML6JLFDE7SVJ9GXNZOV", "current_trial": 75, "dateTime": 1510782800941, "trialdata": {"rt": [2582, 4914, 10293, 14308, 16151, 18477, 24256, 28866, 32814, 43176, 44795, 50104, 56145], "recwords": ["radish", "laser", "stamp", "napsack", "worker", "shoulder", "laser", "flipper", "hatchet", "salad", "snack", "gangster", "robber"], "type": "FREE_RECALL", "conditions": [18, 1200, "a", 18000], "trial": 1, "trial_type": "free-recall", "trial_index": 75, "time_elapsed": 741514, "internal_node_id": "0.0-57.0-0.0"}}, {"uniqueid": "MTK0383:3R5F3LQFV3RML6JLFDE7SVJ9GXNZOV", "current_trial": 76, "dateTime": 1510782805381, "trialdata": {"rt": 2424, "key_press": 32, "type": "INSTRUCTIONS", "trial_type": "text", "trial_index": 76, "time_elapsed": 745945, "internal_node_id": "0.0-58.0"}}, {"uniqueid": "MTK0383:3R5F3LQFV3RML6JLFDE7SVJ9GXNZOV", "current_trial": 77, "dateTime": 1510782818389, "trialdata": {"rt": [2220, 4221, 6382, 8237, 9883], "responses": ["9", "6", "17", "18", "17"], "num1": [1, 2, 9, 5, 3, 4], "num2": [6, 1, 6, 4, 7, 5], "num3": [2, 3, 2, 7, 7, 7], "type": "DISTRACTOR", "conditions": [24, 1600, "a", 12000], "trial": 2, "trial_type": "math-distractor", "trial_index": 77, "time_elapsed": 758968, "internal_node_id": "0.0-59.0"}}, {"uniqueid": "MTK0383:3R5F3LQFV3RML6JLFDE7SVJ9GXNZOV", "current_trial": 78, "dateTime": 1510782821392, "trialdata": {"rt": -1, "stimulus": "<p id=\"stim\">10</p>", "key_press": -1, "trial_type": "single-stim", "trial_index": 78, "time_elapsed": 761971, "internal_node_id": "0.0-60.0-0.0"}}, {"uniqueid": "MTK0383:3R5F3LQFV3RML6JLFDE7SVJ9GXNZOV", "current_trial": 79, "dateTime": 1510782822396, "trialdata": {"rt": -1, "stimulus": "<p id=\"stim\">9</p>", "key_press": -1, "trial_type": "single-stim", "trial_index": 79, "time_elapsed": 762975, "internal_node_id": "0.0-60.0-1.0"}}, {"uniqueid": "MTK0383:3R5F3LQFV3RML6JLFDE7SVJ9GXNZOV", "current_trial": 80, "dateTime": 1510782823400, "trialdata": {"rt": -1, "stimulus": "<p id=\"stim\">8</p>", "key_press": -1, "trial_type": "single-stim", "trial_index": 80, "time_elapsed": 763979, "internal_node_id": "0.0-60.0-2.0"}}, {"uniqueid": "MTK0383:3R5F3LQFV3RML6JLFDE7SVJ9GXNZOV", "current_trial": 81, "dateTime": 1510782824401, "trialdata": {"rt": -1, "stimulus": "<p id=\"stim\">7</p>", "key_press": -1, "trial_type": "single-stim", "trial_index": 81, "time_elapsed": 764980, "internal_node_id": "0.0-60.0-3.0"}}, {"uniqueid": "MTK0383:3R5F3LQFV3RML6JLFDE7SVJ9GXNZOV", "current_trial": 82, "dateTime": 1510782825422, "trialdata": {"rt": -1, "stimulus": "<p id=\"stim\">6</p>", "key_press": -1, "trial_type": "single-stim", "trial_index": 82, "time_elapsed": 766001, "internal_node_id": "0.0-60.0-4.0"}}, {"uniqueid": "MTK0383:3R5F3LQFV3RML6JLFDE7SVJ9GXNZOV", "current_trial": 83, "dateTime": 1510782826423, "trialdata": {"rt": -1, "stimulus": "<p id=\"stim\">5</p>", "key_press": -1, "trial_type": "single-stim", "trial_index": 83, "time_elapsed": 767002, "internal_node_id": "0.0-60.0-5.0"}}, {"uniqueid": "MTK0383:3R5F3LQFV3RML6JLFDE7SVJ9GXNZOV", "current_trial": 84, "dateTime": 1510782827425, "trialdata": {"rt": -1, "stimulus": "<p id=\"stim\">4</p>", "key_press": -1, "trial_type": "single-stim", "trial_index": 84, "time_elapsed": 768004, "internal_node_id": "0.0-60.0-6.0"}}, {"uniqueid": "MTK0383:3R5F3LQFV3RML6JLFDE7SVJ9GXNZOV", "current_trial": 85, "dateTime": 1510782828426, "trialdata": {"rt": -1, "stimulus": "<p id=\"stim\">3</p>", "key_press": -1, "trial_type": "single-stim", "trial_index": 85, "time_elapsed": 769005, "internal_node_id": "0.0-60.0-7.0"}}, {"uniqueid": "MTK0383:3R5F3LQFV3RML6JLFDE7SVJ9GXNZOV", "current_trial": 86, "dateTime": 1510782829428, "trialdata": {"rt": -1, "stimulus": "<p id=\"stim\">2</p>", "key_press": -1, "trial_type": "single-stim", "trial_index": 86, "time_elapsed": 770007, "internal_node_id": "0.0-60.0-8.0"}}, {"uniqueid": "MTK0383:3R5F3LQFV3RML6JLFDE7SVJ9GXNZOV", "current_trial": 87, "dateTime": 1510782830430, "trialdata": {"rt": -1, "stimulus": "<p id=\"stim\">1</p>", "key_press": -1, "trial_type": "single-stim", "trial_index": 87, "time_elapsed": 771009, "internal_node_id": "0.0-60.0-9.0"}}, {"uniqueid": "MTK0383:3R5F3LQFV3RML6JLFDE7SVJ9GXNZOV", "current_trial": 88, "dateTime": 1510782831931, "trialdata": {"rt": -1, "stimulus": "<p id=\"stim\">+</p>", "key_press": -1, "type": "FIXATION", "trial_type": "single-stim", "trial_index": 88, "time_elapsed": 772510, "internal_node_id": "0.0-61.0-0.0"}}, {"uniqueid": "MTK0383:3R5F3LQFV3RML6JLFDE7SVJ9GXNZOV", "current_trial": 89, "dateTime": 1510782834633, "trialdata": {"rt": -1000, "stimulus": "/static/audio/wordpool/LIVER.wav", "key_press": -1, "type": "PRES_AUD", "word": "liver", "wordID": 832, "conditions": [24, 1600, "a", 12000], "trial": 2, "serialpos": 0, "trial_type": "single-audio", "trial_index": 89, "time_elapsed": 775211, "internal_node_id": "0.0-62.0"}}, {"uniqueid": "MTK0383:3R5F3LQFV3RML6JLFDE7SVJ9GXNZOV", "current_trial": 90, "dateTime": 1510782837216, "trialdata": {"rt": -1000, "stimulus": "/static/audio/wordpool/KIDNEY.wav", "key_press": -1, "type": "PRES_AUD", "word": "kidney", "wordID": 775, "conditions": [24, 1600, "a", 12000], "trial": 2, "serialpos": 1, "trial_type": "single-audio", "trial_index": 90, "time_elapsed": 777795, "internal_node_id": "0.0-63.0"}}, {"uniqueid": "MTK0383:3R5F3LQFV3RML6JLFDE7SVJ9GXNZOV", "current_trial": 91, "dateTime": 1510782839836, "trialdata": {"rt": -1000, "stimulus": "/static/audio/wordpool/CIGAR.wav", "key_press": -1, "type": "PRES_AUD", "word": "cigar", "wordID": 307, "conditions": [24, 1600, "a", 12000], "trial": 2, "serialpos": 2, "trial_type": "single-audio", "trial_index": 91, "time_elapsed": 780415, "internal_node_id": "0.0-64.0"}}, {"uniqueid": "MTK0383:3R5F3LQFV3RML6JLFDE7SVJ9GXNZOV", "current_trial": 92, "dateTime": 1510782842397, "trialdata": {"rt": -1000, "stimulus": "/static/audio/wordpool/POPCORN.wav", "key_press": -1, "type": "PRES_AUD", "word": "popcorn", "wordID": 1103, "conditions": [24, 1600, "a", 12000], "trial": 2, "serialpos": 3, "trial_type": "single-audio", "trial_index": 92, "time_elapsed": 782976, "internal_node_id": "0.0-65.0"}}, {"uniqueid": "MTK0383:3R5F3LQFV3RML6JLFDE7SVJ9GXNZOV", "current_trial": 93, "dateTime": 1510782844885, "trialdata": {"rt": -1000, "stimulus": "/static/audio/wordpool/DOUGHNUT.wav", "key_press": -1, "type": "PRES_AUD", "word": "doughnut", "wordID": 489, "conditions": [24, 1600, "a", 12000], "trial": 2, "serialpos": 4, "trial_type": "single-audio", "trial_index": 93, "time_elapsed": 785464, "internal_node_id": "0.0-66.0"}}, {"uniqueid": "MTK0383:3R5F3LQFV3RML6JLFDE7SVJ9GXNZOV", "current_trial": 94, "dateTime": 1510782847418, "trialdata": {"rt": -1000, "stimulus": "/static/audio/wordpool/PICTURE.wav", "key_press": -1, "type": "PRES_AUD", "word": "picture", "wordID": 1060, "conditions": [24, 1600, "a", 12000], "trial": 2, "serialpos": 5, "trial_type": "single-audio", "trial_index": 94, "time_elapsed": 787997, "internal_node_id": "0.0-67.0"}}, {"uniqueid": "MTK0383:3R5F3LQFV3RML6JLFDE7SVJ9GXNZOV", "current_trial": 95, "dateTime": 1510782849874, "trialdata": {"rt": -1000, "stimulus": "/static/audio/wordpool/SUMMIT.wav", "key_press": -1, "type": "PRES_AUD", "word": "summit", "wordID": 1404, "conditions": [24, 1600, "a", 12000], "trial": 2, "serialpos": 6, "trial_type": "single-audio", "trial_index": 95, "time_elapsed": 790453, "internal_node_id": "0.0-68.0"}}, {"uniqueid": "MTK0383:3R5F3LQFV3RML6JLFDE7SVJ9GXNZOV", "current_trial": 96, "dateTime": 1510782852381, "trialdata": {"rt": -1000, "stimulus": "/static/audio/wordpool/DANDRUFF.wav", "key_press": -1, "type": "PRES_AUD", "word": "dandruff", "wordID": 438, "conditions": [24, 1600, "a", 12000], "trial": 2, "serialpos": 7, "trial_type": "single-audio", "trial_index": 96, "time_elapsed": 792959, "internal_node_id": "0.0-69.0"}}, {"uniqueid": "MTK0383:3R5F3LQFV3RML6JLFDE7SVJ9GXNZOV", "current_trial": 97, "dateTime": 1510782854815, "trialdata": {"rt": -1000, "stimulus": "/static/audio/wordpool/TRUCK.wav", "key_press": -1, "type": "PRES_AUD", "word": "truck", "wordID": 1511, "conditions": [24, 1600, "a", 12000], "trial": 2, "serialpos": 8, "trial_type": "single-audio", "trial_index": 97, "time_elapsed": 795393, "internal_node_id": "0.0-70.0"}}, {"uniqueid": "MTK0383:3R5F3LQFV3RML6JLFDE7SVJ9GXNZOV", "current_trial": 98, "dateTime": 1510782857546, "trialdata": {"rt": -1000, "stimulus": "/static/audio/wordpool/PECAN.wav", "key_press": -1, "type": "PRES_AUD", "word": "pecan", "wordID": 1035, "conditions": [24, 1600, "a", 12000], "trial": 2, "serialpos": 9, "trial_type": "single-audio", "trial_index": 98, "time_elapsed": 798125, "internal_node_id": "0.0-71.0"}}, {"uniqueid": "MTK0383:3R5F3LQFV3RML6JLFDE7SVJ9GXNZOV", "current_trial": 99, "dateTime": 1510782860075, "trialdata": {"rt": -1000, "stimulus": "/static/audio/wordpool/PASTRY.wav", "key_press": -1, "type": "PRES_AUD", "word": "pastry", "wordID": 1021, "conditions": [24, 1600, "a", 12000], "trial": 2, "serialpos": 10, "trial_type": "single-audio", "trial_index": 99, "time_elapsed": 800653, "internal_node_id": "0.0-72.0"}}, {"uniqueid": "MTK0383:3R5F3LQFV3RML6JLFDE7SVJ9GXNZOV", "current_trial": 100, "dateTime": 1510782862701, "trialdata": {"rt": -1000, "stimulus": "/static/audio/wordpool/YARN.wav", "key_press": -1, "type": "PRES_AUD", "word": "yarn", "wordID": 1630, "conditions": [24, 1600, "a", 12000], "trial": 2, "serialpos": 11, "trial_type": "single-audio", "trial_index": 100, "time_elapsed": 803279, "internal_node_id": "0.0-73.0"}}, {"uniqueid": "MTK0383:3R5F3LQFV3RML6JLFDE7SVJ9GXNZOV", "current_trial": 101, "dateTime": 1510782865105, "trialdata": {"rt": -1000, "stimulus": "/static/audio/wordpool/DONOR.wav", "key_press": -1, "type": "PRES_AUD", "word": "donor", "wordID": 484, "conditions": [24, 1600, "a", 12000], "trial": 2, "serialpos": 12, "trial_type": "single-audio", "trial_index": 101, "time_elapsed": 805683, "internal_node_id": "0.0-74.0"}}, {"uniqueid": "MTK0383:3R5F3LQFV3RML6JLFDE7SVJ9GXNZOV", "current_trial": 102, "dateTime": 1510782867826, "trialdata": {"rt": -1000, "stimulus": "/static/audio/wordpool/WRIST.wav", "key_press": -1, "type": "PRES_AUD", "word": "wrist", "wordID": 1625, "conditions": [24, 1600, "a", 12000], "trial": 2, "serialpos": 13, "trial_type": "single-audio", "trial_index": 102, "time_elapsed": 808405, "internal_node_id": "0.0-75.0"}}, {"uniqueid": "MTK0383:3R5F3LQFV3RML6JLFDE7SVJ9GXNZOV", "current_trial": 103, "dateTime": 1510782870561, "trialdata": {"rt": -1000, "stimulus": "/static/audio/wordpool/LUNCH.wav", "key_press": -1, "type": "PRES_AUD", "word": "lunch", "wordID": 848, "conditions": [24, 1600, "a", 12000], "trial": 2, "serialpos": 14, "trial_type": "single-audio", "trial_index": 103, "time_elapsed": 811140, "internal_node_id": "0.0-76.0"}}, {"uniqueid": "MTK0383:3R5F3LQFV3RML6JLFDE7SVJ9GXNZOV", "current_trial": 104, "dateTime": 1510782873053, "trialdata": {"rt": -1000, "stimulus": "/static/audio/wordpool/SERVER.wav", "key_press": -1, "type": "PRES_AUD", "word": "server", "wordID": 1271, "conditions": [24, 1600, "a", 12000], "trial": 2, "serialpos": 15, "trial_type": "single-audio", "trial_index": 104, "time_elapsed": 813632, "internal_node_id": "0.0-77.0"}}, {"uniqueid": "MTK0383:3R5F3LQFV3RML6JLFDE7SVJ9GXNZOV", "current_trial": 105, "dateTime": 1510782875599, "trialdata": {"rt": -1000, "stimulus": "/static/audio/wordpool/BUG.wav", "key_press": -1, "type": "PRES_AUD", "word": "bug", "wordID": 186, "conditions": [24, 1600, "a", 12000], "trial": 2, "serialpos": 16, "trial_type": "single-audio", "trial_index": 105, "time_elapsed": 816177, "internal_node_id": "0.0-78.0"}}, {"uniqueid": "MTK0383:3R5F3LQFV3RML6JLFDE7SVJ9GXNZOV", "current_trial": 106, "dateTime": 1510782878338, "trialdata": {"rt": -1000, "stimulus": "/static/audio/wordpool/FILM.wav", "key_press": -1, "type": "PRES_AUD", "word": "film", "wordID": 564, "conditions": [24, 1600, "a", 12000], "trial": 2, "serialpos": 17, "trial_type": "single-audio", "trial_index": 106, "time_elapsed": 818916, "internal_node_id": "0.0-79.0"}}, {"uniqueid": "MTK0383:3R5F3LQFV3RML6JLFDE7SVJ9GXNZOV", "current_trial": 107, "dateTime": 1510782880824, "trialdata": {"rt": -1000, "stimulus": "/static/audio/wordpool/ACTOR.wav", "key_press": -1, "type": "PRES_AUD", "word": "actor", "wordID": 4, "conditions": [24, 1600, "a", 12000], "trial": 2, "serialpos": 18, "trial_type": "single-audio", "trial_index": 107, "time_elapsed": 821403, "internal_node_id": "0.0-80.0"}}, {"uniqueid": "MTK0383:3R5F3LQFV3RML6JLFDE7SVJ9GXNZOV", "current_trial": 108, "dateTime": 1510782883433, "trialdata": {"rt": -1000, "stimulus": "/static/audio/wordpool/DENTIST.wav", "key_press": -1, "type": "PRES_AUD", "word": "dentist", "wordID": 446, "conditions": [24, 1600, "a", 12000], "trial": 2, "serialpos": 19, "trial_type": "single-audio", "trial_index": 108, "time_elapsed": 824011, "internal_node_id": "0.0-81.0"}}, {"uniqueid": "MTK0383:3R5F3LQFV3RML6JLFDE7SVJ9GXNZOV", "current_trial": 109, "dateTime": 1510782886033, "trialdata": {"rt": -1000, "stimulus": "/static/audio/wordpool/FINGER.wav", "key_press": -1, "type": "PRES_AUD", "word": "finger", "wordID": 566, "conditions": [24, 1600, "a", 12000], "trial": 2, "serialpos": 20, "trial_type": "single-audio", "trial_index": 109, "time_elapsed": 826611, "internal_node_id": "0.0-82.0"}}, {"uniqueid": "MTK0383:3R5F3LQFV3RML6JLFDE7SVJ9GXNZOV", "current_trial": 110, "dateTime": 1510782888685, "trialdata": {"rt": -1000, "stimulus": "/static/audio/wordpool/MUFFIN.wav", "key_press": -1, "type": "PRES_AUD", "word": "muffin", "wordID": 928, "conditions": [24, 1600, "a", 12000], "trial": 2, "serialpos": 21, "trial_type": "single-audio", "trial_index": 110, "time_elapsed": 829264, "internal_node_id": "0.0-83.0"}}, {"uniqueid": "MTK0383:3R5F3LQFV3RML6JLFDE7SVJ9GXNZOV", "current_trial": 111, "dateTime": 1510782891242, "trialdata": {"rt": -1000, "stimulus": "/static/audio/wordpool/ORCHID.wav", "key_press": -1, "type": "PRES_AUD", "word": "orchid", "wordID": 981, "conditions": [24, 1600, "a", 12000], "trial": 2, "serialpos": 22, "trial_type": "single-audio", "trial_index": 111, "time_elapsed": 831820, "internal_node_id": "0.0-84.0"}}, {"uniqueid": "MTK0383:3R5F3LQFV3RML6JLFDE7SVJ9GXNZOV", "current_trial": 112, "dateTime": 1510782893882, "trialdata": {"rt": -1000, "stimulus": "/static/audio/wordpool/COOK.wav", "key_press": -1, "type": "PRES_AUD", "word": "cook", "wordID": 371, "conditions": [24, 1600, "a", 12000], "trial": 2, "serialpos": 23, "trial_type": "single-audio", "trial_index": 112, "time_elapsed": 834461, "internal_node_id": "0.0-85.0"}}, {"uniqueid": "MTK0383:3R5F3LQFV3RML6JLFDE7SVJ9GXNZOV", "current_trial": 113, "dateTime": 1510782895152, "trialdata": {"rt": -1, "stimulus": "", "key_press": -1, "type": "PRE_RECALL_DELAY", "trial_type": "single-stim", "trial_index": 113, "time_elapsed": 835731, "internal_node_id": "0.0-86.0-0.0"}}, {"uniqueid": "MTK0383:3R5F3LQFV3RML6JLFDE7SVJ9GXNZOV", "current_trial": 114, "dateTime": 1510782895655, "trialdata": {"rt": -1000, "stimulus": "/static/audio/400Hz.wav", "key_press": -1, "type": "PRE_RECALL_ALERT", "trial_type": "single-audio", "trial_index": 114, "time_elapsed": 836234, "internal_node_id": "0.0-87.0"}}, {"uniqueid": "MTK0383:3R5F3LQFV3RML6JLFDE7SVJ9GXNZOV", "current_trial": 115, "dateTime": 1510782955663, "trialdata": {"rt": [3020, 4677, 6209, 8040, 9657, 11367, 13220, 18899, 27769, 29713, 39334, 43233, 49654], "recwords": ["dentist", "finger", "muffin", "cook", "pastry", "pecan", "donut", "orchid", "donor", "dandruff", "actor", "film", "risk"], "type": "FREE_RECALL", "conditions": [24, 1600, "a", 12000], "trial": 2, "trial_type": "free-recall", "trial_index": 115, "time_elapsed": 896238, "internal_node_id": "0.0-88.0-0.0"}}, {"uniqueid": "MTK0383:3R5F3LQFV3RML6JLFDE7SVJ9GXNZOV", "current_trial": 116, "dateTime": 1510782959612, "trialdata": {"rt": 1947, "key_press": 32, "type": "INSTRUCTIONS", "trial_type": "text", "trial_index": 116, "time_elapsed": 900191, "internal_node_id": "0.0-89.0"}}, {"uniqueid": "MTK0383:3R5F3LQFV3RML6JLFDE7SVJ9GXNZOV", "current_trial": 117, "dateTime": 1510782985617, "trialdata": {"rt": [1561, 2862, 5745, 9692, 12084, 13410, 16147, 19606, 23253], "responses": ["4", "9", "20", "15", "19", "8", "7", "20", "17"], "num1": [1, 7, 6, 5, 5, 1, 5, 5, 8, 8], "num2": [1, 1, 8, 2, 6, 6, 3, 6, 1, 1], "num3": [2, 1, 4, 8, 8, 1, 2, 9, 8, 8], "type": "DISTRACTOR", "conditions": [24, 800, "a", 24000], "trial": 3, "trial_type": "math-distractor", "trial_index": 117, "time_elapsed": 926196, "internal_node_id": "0.0-90.0"}}, {"uniqueid": "MTK0383:3R5F3LQFV3RML6JLFDE7SVJ9GXNZOV", "current_trial": 118, "dateTime": 1510782988620, "trialdata": {"rt": -1, "stimulus": "<p id=\"stim\">10</p>", "key_press": -1, "trial_type": "single-stim", "trial_index": 118, "time_elapsed": 929199, "internal_node_id": "0.0-91.0-0.0"}}, {"uniqueid": "MTK0383:3R5F3LQFV3RML6JLFDE7SVJ9GXNZOV", "current_trial": 119, "dateTime": 1510782989622, "trialdata": {"rt": -1, "stimulus": "<p id=\"stim\">9</p>", "key_press": -1, "trial_type": "single-stim", "trial_index": 119, "time_elapsed": 930201, "internal_node_id": "0.0-91.0-1.0"}}, {"uniqueid": "MTK0383:3R5F3LQFV3RML6JLFDE7SVJ9GXNZOV", "current_trial": 120, "dateTime": 1510782990623, "trialdata": {"rt": -1, "stimulus": "<p id=\"stim\">8</p>", "key_press": -1, "trial_type": "single-stim", "trial_index": 120, "time_elapsed": 931202, "internal_node_id": "0.0-91.0-2.0"}}, {"uniqueid": "MTK0383:3R5F3LQFV3RML6JLFDE7SVJ9GXNZOV", "current_trial": 121, "dateTime": 1510782991625, "trialdata": {"rt": -1, "stimulus": "<p id=\"stim\">7</p>", "key_press": -1, "trial_type": "single-stim", "trial_index": 121, "time_elapsed": 932204, "internal_node_id": "0.0-91.0-3.0"}}, {"uniqueid": "MTK0383:3R5F3LQFV3RML6JLFDE7SVJ9GXNZOV", "current_trial": 122, "dateTime": 1510782992627, "trialdata": {"rt": -1, "stimulus": "<p id=\"stim\">6</p>", "key_press": -1, "trial_type": "single-stim", "trial_index": 122, "time_elapsed": 933206, "internal_node_id": "0.0-91.0-4.0"}}, {"uniqueid": "MTK0383:3R5F3LQFV3RML6JLFDE7SVJ9GXNZOV", "current_trial": 123, "dateTime": 1510782993628, "trialdata": {"rt": -1, "stimulus": "<p id=\"stim\">5</p>", "key_press": -1, "trial_type": "single-stim", "trial_index": 123, "time_elapsed": 934207, "internal_node_id": "0.0-91.0-5.0"}}, {"uniqueid": "MTK0383:3R5F3LQFV3RML6JLFDE7SVJ9GXNZOV", "current_trial": 124, "dateTime": 1510782994630, "trialdata": {"rt": -1, "stimulus": "<p id=\"stim\">4</p>", "key_press": -1, "trial_type": "single-stim", "trial_index": 124, "time_elapsed": 935209, "internal_node_id": "0.0-91.0-6.0"}}, {"uniqueid": "MTK0383:3R5F3LQFV3RML6JLFDE7SVJ9GXNZOV", "current_trial": 125, "dateTime": 1510782995633, "trialdata": {"rt": -1, "stimulus": "<p id=\"stim\">3</p>", "key_press": -1, "trial_type": "single-stim", "trial_index": 125, "time_elapsed": 936212, "internal_node_id": "0.0-91.0-7.0"}}, {"uniqueid": "MTK0383:3R5F3LQFV3RML6JLFDE7SVJ9GXNZOV", "current_trial": 126, "dateTime": 1510782996635, "trialdata": {"rt": -1, "stimulus": "<p id=\"stim\">2</p>", "key_press": -1, "trial_type": "single-stim", "trial_index": 126, "time_elapsed": 937214, "internal_node_id": "0.0-91.0-8.0"}}, {"uniqueid": "MTK0383:3R5F3LQFV3RML6JLFDE7SVJ9GXNZOV", "current_trial": 127, "dateTime": 1510782997636, "trialdata": {"rt": -1, "stimulus": "<p id=\"stim\">1</p>", "key_press": -1, "trial_type": "single-stim", "trial_index": 127, "time_elapsed": 938215, "internal_node_id": "0.0-91.0-9.0"}}, {"uniqueid": "MTK0383:3R5F3LQFV3RML6JLFDE7SVJ9GXNZOV", "current_trial": 128, "dateTime": 1510782999138, "trialdata": {"rt": -1, "stimulus": "<p id=\"stim\">+</p>", "key_press": -1, "type": "FIXATION", "trial_type": "single-stim", "trial_index": 128, "time_elapsed": 939717, "internal_node_id": "0.0-92.0-0.0"}}, {"uniqueid": "MTK0383:3R5F3LQFV3RML6JLFDE7SVJ9GXNZOV", "current_trial": 129, "dateTime": 1510783000913, "trialdata": {"rt": -1000, "stimulus": "/static/audio/wordpool/CRATER.wav", "key_press": -1, "type": "PRES_AUD", "word": "crater", "wordID": 399, "conditions": [24, 800, "a", 24000], "trial": 3, "serialpos": 0, "trial_type": "single-audio", "trial_index": 129, "time_elapsed": 941491, "internal_node_id": "0.0-93.0"}}, {"uniqueid": "MTK0383:3R5F3LQFV3RML6JLFDE7SVJ9GXNZOV", "current_trial": 130, "dateTime": 1510783002696, "trialdata": {"rt": -1000, "stimulus": "/static/audio/wordpool/STREAM.wav", "key_press": -1, "type": "PRES_AUD", "word": "stream", "wordID": 1391, "conditions": [24, 800, "a", 24000], "trial": 3, "serialpos": 1, "trial_type": "single-audio", "trial_index": 130, "time_elapsed": 943274, "internal_node_id": "0.0-94.0"}}, {"uniqueid": "MTK0383:3R5F3LQFV3RML6JLFDE7SVJ9GXNZOV", "current_trial": 131, "dateTime": 1510783004519, "trialdata": {"rt": -1000, "stimulus": "/static/audio/wordpool/SWORD.wav", "key_press": -1, "type": "PRES_AUD", "word": "sword", "wordID": 1422, "conditions": [24, 800, "a", 24000], "trial": 3, "serialpos": 2, "trial_type": "single-audio", "trial_index": 131, "time_elapsed": 945098, "internal_node_id": "0.0-95.0"}}, {"uniqueid": "MTK0383:3R5F3LQFV3RML6JLFDE7SVJ9GXNZOV", "current_trial": 132, "dateTime": 1510783006215, "trialdata": {"rt": -1000, "stimulus": "/static/audio/wordpool/WOMAN.wav", "key_press": -1, "type": "PRES_AUD", "word": "woman", "wordID": 1619, "conditions": [24, 800, "a", 24000], "trial": 3, "serialpos": 3, "trial_type": "single-audio", "trial_index": 132, "time_elapsed": 946793, "internal_node_id": "0.0-96.0"}}, {"uniqueid": "MTK0383:3R5F3LQFV3RML6JLFDE7SVJ9GXNZOV", "current_trial": 133, "dateTime": 1510783008161, "trialdata": {"rt": -1000, "stimulus": "/static/audio/wordpool/CABBAGE.wav", "key_press": -1, "type": "PRES_AUD", "word": "cabbage", "wordID": 209, "conditions": [24, 800, "a", 24000], "trial": 3, "serialpos": 4, "trial_type": "single-audio", "trial_index": 133, "time_elapsed": 948740, "internal_node_id": "0.0-97.0"}}, {"uniqueid": "MTK0383:3R5F3LQFV3RML6JLFDE7SVJ9GXNZOV", "current_trial": 134, "dateTime": 1510783009812, "trialdata": {"rt": -1000, "stimulus": "/static/audio/wordpool/GARLIC.wav", "key_press": -1, "type": "PRES_AUD", "word": "garlic", "wordID": 623, "conditions": [24, 800, "a", 24000], "trial": 3, "serialpos": 5, "trial_type": "single-audio", "trial_index": 134, "time_elapsed": 950391, "internal_node_id": "0.0-98.0"}}, {"uniqueid": "MTK0383:3R5F3LQFV3RML6JLFDE7SVJ9GXNZOV", "current_trial": 135, "dateTime": 1510783011793, "trialdata": {"rt": -1000, "stimulus": "/static/audio/wordpool/PASTA.wav", "key_press": -1, "type": "PRES_AUD", "word": "pasta", "wordID": 1020, "conditions": [24, 800, "a", 24000], "trial": 3, "serialpos": 6, "trial_type": "single-audio", "trial_index": 135, "time_elapsed": 952371, "internal_node_id": "0.0-99.0"}}, {"uniqueid": "MTK0383:3R5F3LQFV3RML6JLFDE7SVJ9GXNZOV", "current_trial": 136, "dateTime": 1510783013750, "trialdata": {"rt": -1000, "stimulus": "/static/audio/wordpool/CLIMBER.wav", "key_press": -1, "type": "PRES_AUD", "word": "climber", "wordID": 322, "conditions": [24, 800, "a", 24000], "trial": 3, "serialpos": 7, "trial_type": "single-audio", "trial_index": 136, "time_elapsed": 954328, "internal_node_id": "0.0-100.0"}}, {"uniqueid": "MTK0383:3R5F3LQFV3RML6JLFDE7SVJ9GXNZOV", "current_trial": 137, "dateTime": 1510783015719, "trialdata": {"rt": -1000, "stimulus": "/static/audio/wordpool/MOTOR.wav", "key_press": -1, "type": "PRES_AUD", "word": "motor", "wordID": 921, "conditions": [24, 800, "a", 24000], "trial": 3, "serialpos": 8, "trial_type": "single-audio", "trial_index": 137, "time_elapsed": 956298, "internal_node_id": "0.0-101.0"}}, {"uniqueid": "MTK0383:3R5F3LQFV3RML6JLFDE7SVJ9GXNZOV", "current_trial": 138, "dateTime": 1510783017677, "trialdata": {"rt": -1000, "stimulus": "/static/audio/wordpool/OINTMENT.wav", "key_press": -1, "type": "PRES_AUD", "word": "ointment", "wordID": 973, "conditions": [24, 800, "a", 24000], "trial": 3, "serialpos": 9, "trial_type": "single-audio", "trial_index": 138, "time_elapsed": 958256, "internal_node_id": "0.0-102.0"}}, {"uniqueid": "MTK0383:3R5F3LQFV3RML6JLFDE7SVJ9GXNZOV", "current_trial": 139, "dateTime": 1510783019430, "trialdata": {"rt": -1000, "stimulus": "/static/audio/wordpool/BRACES.wav", "key_press": -1, "type": "PRES_AUD", "word": "braces", "wordID": 163, "conditions": [24, 800, "a", 24000], "trial": 3, "serialpos": 10, "trial_type": "single-audio", "trial_index": 139, "time_elapsed": 960009, "internal_node_id": "0.0-103.0"}}, {"uniqueid": "MTK0383:3R5F3LQFV3RML6JLFDE7SVJ9GXNZOV", "current_trial": 140, "dateTime": 1510783021418, "trialdata": {"rt": -1000, "stimulus": "/static/audio/wordpool/SHORTCAKE.wav", "key_press": -1, "type": "PRES_AUD", "word": "shortcake", "wordID": 1291, "conditions": [24, 800, "a", 24000], "trial": 3, "serialpos": 11, "trial_type": "single-audio", "trial_index": 140, "time_elapsed": 961997, "internal_node_id": "0.0-104.0"}}, {"uniqueid": "MTK0383:3R5F3LQFV3RML6JLFDE7SVJ9GXNZOV", "current_trial": 141, "dateTime": 1510783023147, "trialdata": {"rt": -1000, "stimulus": "/static/audio/wordpool/OUTFIT.wav", "key_press": -1, "type": "PRES_AUD", "word": "outfit", "wordID": 987, "conditions": [24, 800, "a", 24000], "trial": 3, "serialpos": 12, "trial_type": "single-audio", "trial_index": 141, "time_elapsed": 963726, "internal_node_id": "0.0-105.0"}}, {"uniqueid": "MTK0383:3R5F3LQFV3RML6JLFDE7SVJ9GXNZOV", "current_trial": 142, "dateTime": 1510783024785, "trialdata": {"rt": -1000, "stimulus": "/static/audio/wordpool/FUNGUS.wav", "key_press": -1, "type": "PRES_AUD", "word": "fungus", "wordID": 613, "conditions": [24, 800, "a", 24000], "trial": 3, "serialpos": 13, "trial_type": "single-audio", "trial_index": 142, "time_elapsed": 965363, "internal_node_id": "0.0-106.0"}}, {"uniqueid": "MTK0383:3R5F3LQFV3RML6JLFDE7SVJ9GXNZOV", "current_trial": 143, "dateTime": 1510783026610, "trialdata": {"rt": -1000, "stimulus": "/static/audio/wordpool/WINDOW.wav", "key_press": -1, "type": "PRES_AUD", "word": "window", "wordID": 1610, "conditions": [24, 800, "a", 24000], "trial": 3, "serialpos": 14, "trial_type": "single-audio", "trial_index": 143, "time_elapsed": 967188, "internal_node_id": "0.0-107.0"}}, {"uniqueid": "MTK0383:3R5F3LQFV3RML6JLFDE7SVJ9GXNZOV", "current_trial": 144, "dateTime": 1510783028383, "trialdata": {"rt": -1000, "stimulus": "/static/audio/wordpool/BEAKER.wav", "key_press": -1, "type": "PRES_AUD", "word": "beaker", "wordID": 103, "conditions": [24, 800, "a", 24000], "trial": 3, "serialpos": 15, "trial_type": "single-audio", "trial_index": 144, "time_elapsed": 968961, "internal_node_id": "0.0-108.0"}}, {"uniqueid": "MTK0383:3R5F3LQFV3RML6JLFDE7SVJ9GXNZOV", "current_trial": 145, "dateTime": 1510783030272, "trialdata": {"rt": -1000, "stimulus": "/static/audio/wordpool/LIZARD.wav", "key_press": -1, "type": "PRES_AUD", "word": "lizard", "wordID": 833, "conditions": [24, 800, "a", 24000], "trial": 3, "serialpos": 16, "trial_type": "single-audio", "trial_index": 145, "time_elapsed": 970851, "internal_node_id": "0.0-109.0"}}, {"uniqueid": "MTK0383:3R5F3LQFV3RML6JLFDE7SVJ9GXNZOV", "current_trial": 146, "dateTime": 1510783031929, "trialdata": {"rt": -1000, "stimulus": "/static/audio/wordpool/SODA.wav", "key_press": -1, "type": "PRES_AUD", "word": "soda", "wordID": 1340, "conditions": [24, 800, "a", 24000], "trial": 3, "serialpos": 17, "trial_type": "single-audio", "trial_index": 146, "time_elapsed": 972508, "internal_node_id": "0.0-110.0"}}, {"uniqueid": "MTK0383:3R5F3LQFV3RML6JLFDE7SVJ9GXNZOV", "current_trial": 147, "dateTime": 1510783033776, "trialdata": {"rt": -1000, "stimulus": "/static/audio/wordpool/CANDY.wav", "key_press": -1, "type": "PRES_AUD", "word": "candy", "wordID": 229, "conditions": [24, 800, "a", 24000], "trial": 3, "serialpos": 18, "trial_type": "single-audio", "trial_index": 147, "time_elapsed": 974355, "internal_node_id": "0.0-111.0"}}, {"uniqueid": "MTK0383:3R5F3LQFV3RML6JLFDE7SVJ9GXNZOV", "current_trial": 148, "dateTime": 1510783035734, "trialdata": {"rt": -1000, "stimulus": "/static/audio/wordpool/TWEEZERS.wav", "key_press": -1, "type": "PRES_AUD", "word": "tweezers", "wordID": 1525, "conditions": [24, 800, "a", 24000], "trial": 3, "serialpos": 19, "trial_type": "single-audio", "trial_index": 148, "time_elapsed": 976313, "internal_node_id": "0.0-112.0"}}, {"uniqueid": "MTK0383:3R5F3LQFV3RML6JLFDE7SVJ9GXNZOV", "current_trial": 149, "dateTime": 1510783037444, "trialdata": {"rt": -1000, "stimulus": "/static/audio/wordpool/SNAKE.wav", "key_press": -1, "type": "PRES_AUD", "word": "snake", "wordID": 1332, "conditions": [24, 800, "a", 24000], "trial": 3, "serialpos": 20, "trial_type": "single-audio", "trial_index": 149, "time_elapsed": 978023, "internal_node_id": "0.0-113.0"}}, {"uniqueid": "MTK0383:3R5F3LQFV3RML6JLFDE7SVJ9GXNZOV", "current_trial": 150, "dateTime": 1510783039152, "trialdata": {"rt": -1000, "stimulus": "/static/audio/wordpool/TRIBE.wav", "key_press": -1, "type": "PRES_AUD", "word": "tribe", "wordID": 1504, "conditions": [24, 800, "a", 24000], "trial": 3, "serialpos": 21, "trial_type": "single-audio", "trial_index": 150, "time_elapsed": 979731, "internal_node_id": "0.0-114.0"}}, {"uniqueid": "MTK0383:3R5F3LQFV3RML6JLFDE7SVJ9GXNZOV", "current_trial": 151, "dateTime": 1510783040823, "trialdata": {"rt": -1000, "stimulus": "/static/audio/wordpool/TURTLE.wav", "key_press": -1, "type": "PRES_AUD", "word": "turtle", "wordID": 1521, "conditions": [24, 800, "a", 24000], "trial": 3, "serialpos": 22, "trial_type": "single-audio", "trial_index": 151, "time_elapsed": 981401, "internal_node_id": "0.0-115.0"}}, {"uniqueid": "MTK0383:3R5F3LQFV3RML6JLFDE7SVJ9GXNZOV", "current_trial": 152, "dateTime": 1510783042665, "trialdata": {"rt": -1000, "stimulus": "/static/audio/wordpool/PARENT.wav", "key_press": -1, "type": "PRES_AUD", "word": "parent", "wordID": 1012, "conditions": [24, 800, "a", 24000], "trial": 3, "serialpos": 23, "trial_type": "single-audio", "trial_index": 152, "time_elapsed": 983244, "internal_node_id": "0.0-116.0"}}, {"uniqueid": "MTK0383:3R5F3LQFV3RML6JLFDE7SVJ9GXNZOV", "current_trial": 153, "dateTime": 1510783044031, "trialdata": {"rt": -1, "stimulus": "", "key_press": -1, "type": "PRE_RECALL_DELAY", "trial_type": "single-stim", "trial_index": 153, "time_elapsed": 984610, "internal_node_id": "0.0-117.0-0.0"}}, {"uniqueid": "MTK0383:3R5F3LQFV3RML6JLFDE7SVJ9GXNZOV", "current_trial": 154, "dateTime": 1510783044535, "trialdata": {"rt": -1000, "stimulus": "/static/audio/400Hz.wav", "key_press": -1, "type": "PRE_RECALL_ALERT", "trial_type": "single-audio", "trial_index": 154, "time_elapsed": 985114, "internal_node_id": "0.0-118.0"}}, {"uniqueid": "MTK0383:3R5F3LQFV3RML6JLFDE7SVJ9GXNZOV", "current_trial": 155, "dateTime": 1510783104542, "trialdata": {"rt": [2241, 5020, 6781, 10012, 11451, 14406, 39564], "recwords": ["parent", "fungus", "garlic", "cabbage", "pasta", "turtle", "ointment"], "type": "FREE_RECALL", "conditions": [24, 800, "a", 24000], "trial": 3, "trial_type": "free-recall", "trial_index": 155, "time_elapsed": 1045118, "internal_node_id": "0.0-119.0-0.0"}}, {"uniqueid": "MTK0383:3R5F3LQFV3RML6JLFDE7SVJ9GXNZOV", "current_trial": 156, "dateTime": 1510783108527, "trialdata": {"rt": 1960, "key_press": 32, "type": "INSTRUCTIONS", "trial_type": "text", "trial_index": 156, "time_elapsed": 1049106, "internal_node_id": "0.0-120.0"}}, {"uniqueid": "MTK0383:3R5F3LQFV3RML6JLFDE7SVJ9GXNZOV", "current_trial": 157, "dateTime": 1510783134534, "trialdata": {"rt": [2925, 4425, 6201, 8756, 10914, 14328, 16136, 17942, 19620, 22758], "responses": ["20", "18", "9", "20", "16", "15", "8", "18", "15", "20"], "num1": [9, 6, 6, 5, 6, 6, 5, 3, 8, 8, 1], "num2": [4, 6, 1, 8, 1, 3, 2, 8, 2, 7, 5], "num3": [8, 6, 2, 7, 9, 6, 1, 7, 5, 5, 9], "type": "DISTRACTOR", "conditions": [12, 800, "a", 24000], "trial": 4, "trial_type": "math-distractor", "trial_index": 157, "time_elapsed": 1075113, "internal_node_id": "0.0-121.0"}}, {"uniqueid": "MTK0383:3R5F3LQFV3RML6JLFDE7SVJ9GXNZOV", "current_trial": 158, "dateTime": 1510783137547, "trialdata": {"rt": -1, "stimulus": "<p id=\"stim\">10</p>", "key_press": -1, "trial_type": "single-stim", "trial_index": 158, "time_elapsed": 1078126, "internal_node_id": "0.0-122.0-0.0"}}, {"uniqueid": "MTK0383:3R5F3LQFV3RML6JLFDE7SVJ9GXNZOV", "current_trial": 159, "dateTime": 1510783138552, "trialdata": {"rt": -1, "stimulus": "<p id=\"stim\">9</p>", "key_press": -1, "trial_type": "single-stim", "trial_index": 159, "time_elapsed": 1079130, "internal_node_id": "0.0-122.0-1.0"}}, {"uniqueid": "MTK0383:3R5F3LQFV3RML6JLFDE7SVJ9GXNZOV", "current_trial": 160, "dateTime": 1510783139554, "trialdata": {"rt": -1, "stimulus": "<p id=\"stim\">8</p>", "key_press": -1, "trial_type": "single-stim", "trial_index": 160, "time_elapsed": 1080133, "internal_node_id": "0.0-122.0-2.0"}}, {"uniqueid": "MTK0383:3R5F3LQFV3RML6JLFDE7SVJ9GXNZOV", "current_trial": 161, "dateTime": 1510783140558, "trialdata": {"rt": -1, "stimulus": "<p id=\"stim\">7</p>", "key_press": -1, "trial_type": "single-stim", "trial_index": 161, "time_elapsed": 1081137, "internal_node_id": "0.0-122.0-3.0"}}, {"uniqueid": "MTK0383:3R5F3LQFV3RML6JLFDE7SVJ9GXNZOV", "current_trial": 162, "dateTime": 1510783141560, "trialdata": {"rt": -1, "stimulus": "<p id=\"stim\">6</p>", "key_press": -1, "trial_type": "single-stim", "trial_index": 162, "time_elapsed": 1082139, "internal_node_id": "0.0-122.0-4.0"}}, {"uniqueid": "MTK0383:3R5F3LQFV3RML6JLFDE7SVJ9GXNZOV", "current_trial": 163, "dateTime": 1510783142561, "trialdata": {"rt": -1, "stimulus": "<p id=\"stim\">5</p>", "key_press": -1, "trial_type": "single-stim", "trial_index": 163, "time_elapsed": 1083140, "internal_node_id": "0.0-122.0-5.0"}}, {"uniqueid": "MTK0383:3R5F3LQFV3RML6JLFDE7SVJ9GXNZOV", "current_trial": 164, "dateTime": 1510783143563, "trialdata": {"rt": -1, "stimulus": "<p id=\"stim\">4</p>", "key_press": -1, "trial_type": "single-stim", "trial_index": 164, "time_elapsed": 1084142, "internal_node_id": "0.0-122.0-6.0"}}, {"uniqueid": "MTK0383:3R5F3LQFV3RML6JLFDE7SVJ9GXNZOV", "current_trial": 165, "dateTime": 1510783144566, "trialdata": {"rt": -1, "stimulus": "<p id=\"stim\">3</p>", "key_press": -1, "trial_type": "single-stim", "trial_index": 165, "time_elapsed": 1085145, "internal_node_id": "0.0-122.0-7.0"}}, {"uniqueid": "MTK0383:3R5F3LQFV3RML6JLFDE7SVJ9GXNZOV", "current_trial": 166, "dateTime": 1510783145568, "trialdata": {"rt": -1, "stimulus": "<p id=\"stim\">2</p>", "key_press": -1, "trial_type": "single-stim", "trial_index": 166, "time_elapsed": 1086147, "internal_node_id": "0.0-122.0-8.0"}}, {"uniqueid": "MTK0383:3R5F3LQFV3RML6JLFDE7SVJ9GXNZOV", "current_trial": 167, "dateTime": 1510783146569, "trialdata": {"rt": -1, "stimulus": "<p id=\"stim\">1</p>", "key_press": -1, "trial_type": "single-stim", "trial_index": 167, "time_elapsed": 1087148, "internal_node_id": "0.0-122.0-9.0"}}, {"uniqueid": "MTK0383:3R5F3LQFV3RML6JLFDE7SVJ9GXNZOV", "current_trial": 168, "dateTime": 1510783148072, "trialdata": {"rt": -1, "stimulus": "<p id=\"stim\">+</p>", "key_press": -1, "type": "FIXATION", "trial_type": "single-stim", "trial_index": 168, "time_elapsed": 1088651, "internal_node_id": "0.0-123.0-0.0"}}, {"uniqueid": "MTK0383:3R5F3LQFV3RML6JLFDE7SVJ9GXNZOV", "current_trial": 169, "dateTime": 1510783149992, "trialdata": {"rt": -1000, "stimulus": "/static/audio/wordpool/DAUGHTER.wav", "key_press": -1, "type": "PRES_AUD", "word": "daughter", "wordID": 441, "conditions": [12, 800, "a", 24000], "trial": 4, "serialpos": 0, "trial_type": "single-audio", "trial_index": 169, "time_elapsed": 1090570, "internal_node_id": "0.0-124.0"}}, {"uniqueid": "MTK0383:3R5F3LQFV3RML6JLFDE7SVJ9GXNZOV", "current_trial": 170, "dateTime": 1510783151675, "trialdata": {"rt": -1000, "stimulus": "/static/audio/wordpool/RECEIPT.wav", "key_press": -1, "type": "PRES_AUD", "word": "receipt", "wordID": 1172, "conditions": [12, 800, "a", 24000], "trial": 4, "serialpos": 1, "trial_type": "single-audio", "trial_index": 170, "time_elapsed": 1092254, "internal_node_id": "0.0-125.0"}}, {"uniqueid": "MTK0383:3R5F3LQFV3RML6JLFDE7SVJ9GXNZOV", "current_trial": 171, "dateTime": 1510783153572, "trialdata": {"rt": -1000, "stimulus": "/static/audio/wordpool/PORK.wav", "key_press": -1, "type": "PRES_AUD", "word": "pork", "wordID": 1107, "conditions": [12, 800, "a", 24000], "trial": 4, "serialpos": 2, "trial_type": "single-audio", "trial_index": 171, "time_elapsed": 1094150, "internal_node_id": "0.0-126.0"}}, {"uniqueid": "MTK0383:3R5F3LQFV3RML6JLFDE7SVJ9GXNZOV", "current_trial": 172, "dateTime": 1510783155494, "trialdata": {"rt": -1000, "stimulus": "/static/audio/wordpool/SUITCASE.wav", "key_press": -1, "type": "PRES_AUD", "word": "suitcase", "wordID": 1402, "conditions": [12, 800, "a", 24000], "trial": 4, "serialpos": 3, "trial_type": "single-audio", "trial_index": 172, "time_elapsed": 1096073, "internal_node_id": "0.0-127.0"}}, {"uniqueid": "MTK0383:3R5F3LQFV3RML6JLFDE7SVJ9GXNZOV", "current_trial": 173, "dateTime": 1510783157297, "trialdata": {"rt": -1000, "stimulus": "/static/audio/wordpool/BRIEFCASE.wav", "key_press": -1, "type": "PRES_AUD", "word": "briefcase", "wordID": 174, "conditions": [12, 800, "a", 24000], "trial": 4, "serialpos": 4, "trial_type": "single-audio", "trial_index": 173, "time_elapsed": 1097875, "internal_node_id": "0.0-128.0"}}, {"uniqueid": "MTK0383:3R5F3LQFV3RML6JLFDE7SVJ9GXNZOV", "current_trial": 174, "dateTime": 1510783159084, "trialdata": {"rt": -1000, "stimulus": "/static/audio/wordpool/ATLAS.wav", "key_press": -1, "type": "PRES_AUD", "word": "atlas", "wordID": 52, "conditions": [12, 800, "a", 24000], "trial": 4, "serialpos": 5, "trial_type": "single-audio", "trial_index": 174, "time_elapsed": 1099663, "internal_node_id": "0.0-129.0"}}, {"uniqueid": "MTK0383:3R5F3LQFV3RML6JLFDE7SVJ9GXNZOV", "current_trial": 175, "dateTime": 1510783160874, "trialdata": {"rt": -1000, "stimulus": "/static/audio/wordpool/PADDLE.wav", "key_press": -1, "type": "PRES_AUD", "word": "paddle", "wordID": 999, "conditions": [12, 800, "a", 24000], "trial": 4, "serialpos": 6, "trial_type": "single-audio", "trial_index": 175, "time_elapsed": 1101452, "internal_node_id": "0.0-130.0"}}, {"uniqueid": "MTK0383:3R5F3LQFV3RML6JLFDE7SVJ9GXNZOV", "current_trial": 176, "dateTime": 1510783162832, "trialdata": {"rt": -1000, "stimulus": "/static/audio/wordpool/BACON.wav", "key_press": -1, "type": "PRES_AUD", "word": "bacon", "wordID": 66, "conditions": [12, 800, "a", 24000], "trial": 4, "serialpos": 7, "trial_type": "single-audio", "trial_index": 176, "time_elapsed": 1103411, "internal_node_id": "0.0-131.0"}}, {"uniqueid": "MTK0383:3R5F3LQFV3RML6JLFDE7SVJ9GXNZOV", "current_trial": 177, "dateTime": 1510783164549, "trialdata": {"rt": -1000, "stimulus": "/static/audio/wordpool/VIRUS.wav", "key_press": -1, "type": "PRES_AUD", "word": "virus", "wordID": 1571, "conditions": [12, 800, "a", 24000], "trial": 4, "serialpos": 8, "trial_type": "single-audio", "trial_index": 177, "time_elapsed": 1105128, "internal_node_id": "0.0-132.0"}}, {"uniqueid": "MTK0383:3R5F3LQFV3RML6JLFDE7SVJ9GXNZOV", "current_trial": 178, "dateTime": 1510783166194, "trialdata": {"rt": -1000, "stimulus": "/static/audio/wordpool/DONKEY.wav", "key_press": -1, "type": "PRES_AUD", "word": "donkey", "wordID": 483, "conditions": [12, 800, "a", 24000], "trial": 4, "serialpos": 9, "trial_type": "single-audio", "trial_index": 178, "time_elapsed": 1106772, "internal_node_id": "0.0-133.0"}}, {"uniqueid": "MTK0383:3R5F3LQFV3RML6JLFDE7SVJ9GXNZOV", "current_trial": 179, "dateTime": 1510783168140, "trialdata": {"rt": -1000, "stimulus": "/static/audio/wordpool/SIBLING.wav", "key_press": -1, "type": "PRES_AUD", "word": "sibling", "wordID": 1300, "conditions": [12, 800, "a", 24000], "trial": 4, "serialpos": 10, "trial_type": "single-audio", "trial_index": 179, "time_elapsed": 1108718, "internal_node_id": "0.0-134.0"}}, {"uniqueid": "MTK0383:3R5F3LQFV3RML6JLFDE7SVJ9GXNZOV", "current_trial": 180, "dateTime": 1510783170002, "trialdata": {"rt": -1000, "stimulus": "/static/audio/wordpool/STUDENT.wav", "key_press": -1, "type": "PRES_AUD", "word": "student", "wordID": 1394, "conditions": [12, 800, "a", 24000], "trial": 4, "serialpos": 11, "trial_type": "single-audio", "trial_index": 180, "time_elapsed": 1110581, "internal_node_id": "0.0-135.0"}}, {"uniqueid": "MTK0383:3R5F3LQFV3RML6JLFDE7SVJ9GXNZOV", "current_trial": 181, "dateTime": 1510783171270, "trialdata": {"rt": -1, "stimulus": "", "key_press": -1, "type": "PRE_RECALL_DELAY", "trial_type": "single-stim", "trial_index": 181, "time_elapsed": 1111849, "internal_node_id": "0.0-136.0-0.0"}}, {"uniqueid": "MTK0383:3R5F3LQFV3RML6JLFDE7SVJ9GXNZOV", "current_trial": 182, "dateTime": 1510783171773, "trialdata": {"rt": -1000, "stimulus": "/static/audio/400Hz.wav", "key_press": -1, "type": "PRE_RECALL_ALERT", "trial_type": "single-audio", "trial_index": 182, "time_elapsed": 1112352, "internal_node_id": "0.0-137.0"}}, {"uniqueid": "MTK0383:3R5F3LQFV3RML6JLFDE7SVJ9GXNZOV", "current_trial": 183, "dateTime": 1510783231785, "trialdata": {"rt": [2327, 5653, 7184, 8855, 10506, 13342, 19092, 27834, 31083, 54790], "recwords": ["student", "donkey", "bacon", "pork", "virus", "suitcase", "briefcase", "student", "sibling", "virus"], "type": "FREE_RECALL", "conditions": [12, 800, "a", 24000], "trial": 4, "trial_type": "free-recall", "trial_index": 183, "time_elapsed": 1172358, "internal_node_id": "0.0-138.0-0.0"}}, {"uniqueid": "MTK0383:3R5F3LQFV3RML6JLFDE7SVJ9GXNZOV", "current_trial": 184, "dateTime": 1510783252352, "trialdata": {"rt": 18565, "key_press": 32, "type": "INSTRUCTIONS", "trial_type": "text", "trial_index": 184, "time_elapsed": 1192931, "internal_node_id": "0.0-139.0"}}, {"uniqueid": "MTK0383:3R5F3LQFV3RML6JLFDE7SVJ9GXNZOV", "current_trial": 185, "dateTime": 1510783266359, "trialdata": {"rt": [4529, 7758, 9949, 11873], "responses": ["22", "15", "10", "13"], "num1": [9, 1, 5, 9, 2], "num2": [6, 6, 1, 1, 8], "num3": [7, 8, 4, 3, 1], "type": "DISTRACTOR", "conditions": [24, 1600, "v", 12000], "trial": 5, "trial_type": "math-distractor", "trial_index": 185, "time_elapsed": 1206938, "internal_node_id": "0.0-140.0"}}, {"uniqueid": "MTK0383:3R5F3LQFV3RML6JLFDE7SVJ9GXNZOV", "current_trial": 186, "dateTime": 1510783269366, "trialdata": {"rt": -1, "stimulus": "<p id=\"stim\">10</p>", "key_press": -1, "trial_type": "single-stim", "trial_index": 186, "time_elapsed": 1209945, "internal_node_id": "0.0-141.0-0.0"}}, {"uniqueid": "MTK0383:3R5F3LQFV3RML6JLFDE7SVJ9GXNZOV", "current_trial": 187, "dateTime": 1510783270391, "trialdata": {"rt": -1, "stimulus": "<p id=\"stim\">9</p>", "key_press": -1, "trial_type": "single-stim", "trial_index": 187, "time_elapsed": 1210970, "internal_node_id": "0.0-141.0-1.0"}}, {"uniqueid": "MTK0383:3R5F3LQFV3RML6JLFDE7SVJ9GXNZOV", "current_trial": 188, "dateTime": 1510783271394, "trialdata": {"rt": -1, "stimulus": "<p id=\"stim\">8</p>", "key_press": -1, "trial_type": "single-stim", "trial_index": 188, "time_elapsed": 1211973, "internal_node_id": "0.0-141.0-2.0"}}, {"uniqueid": "MTK0383:3R5F3LQFV3RML6JLFDE7SVJ9GXNZOV", "current_trial": 189, "dateTime": 1510783272396, "trialdata": {"rt": -1, "stimulus": "<p id=\"stim\">7</p>", "key_press": -1, "trial_type": "single-stim", "trial_index": 189, "time_elapsed": 1212975, "internal_node_id": "0.0-141.0-3.0"}}, {"uniqueid": "MTK0383:3R5F3LQFV3RML6JLFDE7SVJ9GXNZOV", "current_trial": 190, "dateTime": 1510783273399, "trialdata": {"rt": -1, "stimulus": "<p id=\"stim\">6</p>", "key_press": -1, "trial_type": "single-stim", "trial_index": 190, "time_elapsed": 1213978, "internal_node_id": "0.0-141.0-4.0"}}, {"uniqueid": "MTK0383:3R5F3LQFV3RML6JLFDE7SVJ9GXNZOV", "current_trial": 191, "dateTime": 1510783274402, "trialdata": {"rt": -1, "stimulus": "<p id=\"stim\">5</p>", "key_press": -1, "trial_type": "single-stim", "trial_index": 191, "time_elapsed": 1214981, "internal_node_id": "0.0-141.0-5.0"}}, {"uniqueid": "MTK0383:3R5F3LQFV3RML6JLFDE7SVJ9GXNZOV", "current_trial": 192, "dateTime": 1510783275406, "trialdata": {"rt": -1, "stimulus": "<p id=\"stim\">4</p>", "key_press": -1, "trial_type": "single-stim", "trial_index": 192, "time_elapsed": 1215985, "internal_node_id": "0.0-141.0-6.0"}}, {"uniqueid": "MTK0383:3R5F3LQFV3RML6JLFDE7SVJ9GXNZOV", "current_trial": 193, "dateTime": 1510783276409, "trialdata": {"rt": -1, "stimulus": "<p id=\"stim\">3</p>", "key_press": -1, "trial_type": "single-stim", "trial_index": 193, "time_elapsed": 1216988, "internal_node_id": "0.0-141.0-7.0"}}, {"uniqueid": "MTK0383:3R5F3LQFV3RML6JLFDE7SVJ9GXNZOV", "current_trial": 194, "dateTime": 1510783277411, "trialdata": {"rt": -1, "stimulus": "<p id=\"stim\">2</p>", "key_press": -1, "trial_type": "single-stim", "trial_index": 194, "time_elapsed": 1217990, "internal_node_id": "0.0-141.0-8.0"}}, {"uniqueid": "MTK0383:3R5F3LQFV3RML6JLFDE7SVJ9GXNZOV", "current_trial": 195, "dateTime": 1510783278415, "trialdata": {"rt": -1, "stimulus": "<p id=\"stim\">1</p>", "key_press": -1, "trial_type": "single-stim", "trial_index": 195, "time_elapsed": 1218994, "internal_node_id": "0.0-141.0-9.0"}}, {"uniqueid": "MTK0383:3R5F3LQFV3RML6JLFDE7SVJ9GXNZOV", "current_trial": 196, "dateTime": 1510783279917, "trialdata": {"rt": -1, "stimulus": "<p id=\"stim\">+</p>", "key_press": -1, "type": "FIXATION", "trial_type": "single-stim", "trial_index": 196, "time_elapsed": 1220496, "internal_node_id": "0.0-142.0-0.0"}}, {"uniqueid": "MTK0383:3R5F3LQFV3RML6JLFDE7SVJ9GXNZOV", "current_trial": 197, "dateTime": 1510783281519, "trialdata": {"rt": -1, "stimulus": "<p id=\"stim\">ARMY</p>", "key_press": -1, "type": "PRES_VIS", "word": "army", "wordID": 38, "conditions": [24, 1600, "v", 12000], "trial": 5, "serialpos": 0, "trial_type": "single-stim", "trial_index": 197, "time_elapsed": 1222098, "internal_node_id": "0.0-143.0"}}, {"uniqueid": "MTK0383:3R5F3LQFV3RML6JLFDE7SVJ9GXNZOV", "current_trial": 198, "dateTime": 1510783284009, "trialdata": {"rt": -1, "stimulus": "<p id=\"stim\">TOMBSTONE</p>", "key_press": -1, "type": "PRES_VIS", "word": "tombstone", "wordID": 1477, "conditions": [24, 1600, "v", 12000], "trial": 5, "serialpos": 1, "trial_type": "single-stim", "trial_index": 198, "time_elapsed": 1224588, "internal_node_id": "0.0-144.0"}}, {"uniqueid": "MTK0383:3R5F3LQFV3RML6JLFDE7SVJ9GXNZOV", "current_trial": 199, "dateTime": 1510783286796, "trialdata": {"rt": -1, "stimulus": "<p id=\"stim\">GROUND</p>", "key_press": -1, "type": "PRES_VIS", "word": "ground", "wordID": 665, "conditions": [24, 1600, "v", 12000], "trial": 5, "serialpos": 2, "trial_type": "single-stim", "trial_index": 199, "time_elapsed": 1227375, "internal_node_id": "0.0-145.0"}}, {"uniqueid": "MTK0383:3R5F3LQFV3RML6JLFDE7SVJ9GXNZOV", "current_trial": 200, "dateTime": 1510783289292, "trialdata": {"rt": -1, "stimulus": "<p id=\"stim\">REBEL</p>", "key_press": -1, "type": "PRES_VIS", "word": "rebel", "wordID": 1171, "conditions": [24, 1600, "v", 12000], "trial": 5, "serialpos": 3, "trial_type": "single-stim", "trial_index": 200, "time_elapsed": 1229871, "internal_node_id": "0.0-146.0"}}, {"uniqueid": "MTK0383:3R5F3LQFV3RML6JLFDE7SVJ9GXNZOV", "current_trial": 201, "dateTime": 1510783291825, "trialdata": {"rt": -1, "stimulus": "<p id=\"stim\">LAKE</p>", "key_press": -1, "type": "PRES_VIS", "word": "lake", "wordID": 795, "conditions": [24, 1600, "v", 12000], "trial": 5, "serialpos": 4, "trial_type": "single-stim", "trial_index": 201, "time_elapsed": 1232404, "internal_node_id": "0.0-147.0"}}, {"uniqueid": "MTK0383:3R5F3LQFV3RML6JLFDE7SVJ9GXNZOV", "current_trial": 202, "dateTime": 1510783294378, "trialdata": {"rt": -1, "stimulus": "<p id=\"stim\">CYCLONE</p>", "key_press": -1, "type": "PRES_VIS", "word": "cyclone", "wordID": 430, "conditions": [24, 1600, "v", 12000], "trial": 5, "serialpos": 5, "trial_type": "single-stim", "trial_index": 202, "time_elapsed": 1234957, "internal_node_id": "0.0-148.0"}}, {"uniqueid": "MTK0383:3R5F3LQFV3RML6JLFDE7SVJ9GXNZOV", "current_trial": 203, "dateTime": 1510783297149, "trialdata": {"rt": -1, "stimulus": "<p id=\"stim\">CUPBOARD</p>", "key_press": -1, "type": "PRES_VIS", "word": "cupboard", "wordID": 424, "conditions": [24, 1600, "v", 12000], "trial": 5, "serialpos": 6, "trial_type": "single-stim", "trial_index": 203, "time_elapsed": 1237728, "internal_node_id": "0.0-149.0"}}, {"uniqueid": "MTK0383:3R5F3LQFV3RML6JLFDE7SVJ9GXNZOV", "current_trial": 204, "dateTime": 1510783299771, "trialdata": {"rt": -1, "stimulus": "<p id=\"stim\">MOP</p>", "key_press": -1, "type": "PRES_VIS", "word": "mop", "wordID": 915, "conditions": [24, 1600, "v", 12000], "trial": 5, "serialpos": 7, "trial_type": "single-stim", "trial_index": 204, "time_elapsed": 1240350, "internal_node_id": "0.0-150.0"}}, {"uniqueid": "MTK0383:3R5F3LQFV3RML6JLFDE7SVJ9GXNZOV", "current_trial": 205, "dateTime": 1510783302405, "trialdata": {"rt": -1, "stimulus": "<p id=\"stim\">CHEST</p>", "key_press": -1, "type": "PRES_VIS", "word": "chest", "wordID": 294, "conditions": [24, 1600, "v", 12000], "trial": 5, "serialpos": 8, "trial_type": "single-stim", "trial_index": 205, "time_elapsed": 1242984, "internal_node_id": "0.0-151.0"}}, {"uniqueid": "MTK0383:3R5F3LQFV3RML6JLFDE7SVJ9GXNZOV", "current_trial": 206, "dateTime": 1510783304976, "trialdata": {"rt": -1, "stimulus": "<p id=\"stim\">STOMACH</p>", "key_press": -1, "type": "PRES_VIS", "word": "stomach", "wordID": 1383, "conditions": [24, 1600, "v", 12000], "trial": 5, "serialpos": 9, "trial_type": "single-stim", "trial_index": 206, "time_elapsed": 1245555, "internal_node_id": "0.0-152.0"}}, {"uniqueid": "MTK0383:3R5F3LQFV3RML6JLFDE7SVJ9GXNZOV", "current_trial": 207, "dateTime": 1510783307747, "trialdata": {"rt": -1, "stimulus": "<p id=\"stim\">VAGRANT</p>", "key_press": -1, "type": "PRES_VIS", "word": "vagrant", "wordID": 1543, "conditions": [24, 1600, "v", 12000], "trial": 5, "serialpos": 10, "trial_type": "single-stim", "trial_index": 207, "time_elapsed": 1248326, "internal_node_id": "0.0-153.0"}}, {"uniqueid": "MTK0383:3R5F3LQFV3RML6JLFDE7SVJ9GXNZOV", "current_trial": 208, "dateTime": 1510783310452, "trialdata": {"rt": -1, "stimulus": "<p id=\"stim\">CASKET</p>", "key_press": -1, "type": "PRES_VIS", "word": "casket", "wordID": 254, "conditions": [24, 1600, "v", 12000], "trial": 5, "serialpos": 11, "trial_type": "single-stim", "trial_index": 208, "time_elapsed": 1251031, "internal_node_id": "0.0-154.0"}}, {"uniqueid": "MTK0383:3R5F3LQFV3RML6JLFDE7SVJ9GXNZOV", "current_trial": 209, "dateTime": 1510783313224, "trialdata": {"rt": -1, "stimulus": "<p id=\"stim\">TURNIP</p>", "key_press": -1, "type": "PRES_VIS", "word": "turnip", "wordID": 1520, "conditions": [24, 1600, "v", 12000], "trial": 5, "serialpos": 12, "trial_type": "single-stim", "trial_index": 209, "time_elapsed": 1253803, "internal_node_id": "0.0-155.0"}}, {"uniqueid": "MTK0383:3R5F3LQFV3RML6JLFDE7SVJ9GXNZOV", "current_trial": 210, "dateTime": 1510783315963, "trialdata": {"rt": -1, "stimulus": "<p id=\"stim\">BABY</p>", "key_press": -1, "type": "PRES_VIS", "word": "baby", "wordID": 63, "conditions": [24, 1600, "v", 12000], "trial": 5, "serialpos": 13, "trial_type": "single-stim", "trial_index": 210, "time_elapsed": 1256542, "internal_node_id": "0.0-156.0"}}, {"uniqueid": "MTK0383:3R5F3LQFV3RML6JLFDE7SVJ9GXNZOV", "current_trial": 211, "dateTime": 1510783318595, "trialdata": {"rt": -1, "stimulus": "<p id=\"stim\">WAITER</p>", "key_press": -1, "type": "PRES_VIS", "word": "waiter", "wordID": 1579, "conditions": [24, 1600, "v", 12000], "trial": 5, "serialpos": 14, "trial_type": "single-stim", "trial_index": 211, "time_elapsed": 1259174, "internal_node_id": "0.0-157.0"}}, {"uniqueid": "MTK0383:3R5F3LQFV3RML6JLFDE7SVJ9GXNZOV", "current_trial": 212, "dateTime": 1510783321348, "trialdata": {"rt": -1, "stimulus": "<p id=\"stim\">CHIPMUNK</p>", "key_press": -1, "type": "PRES_VIS", "word": "chipmunk", "wordID": 303, "conditions": [24, 1600, "v", 12000], "trial": 5, "serialpos": 15, "trial_type": "single-stim", "trial_index": 212, "time_elapsed": 1261927, "internal_node_id": "0.0-158.0"}}, {"uniqueid": "MTK0383:3R5F3LQFV3RML6JLFDE7SVJ9GXNZOV", "current_trial": 213, "dateTime": 1510783323874, "trialdata": {"rt": -1, "stimulus": "<p id=\"stim\">CATTLE</p>", "key_press": -1, "type": "PRES_VIS", "word": "cattle", "wordID": 260, "conditions": [24, 1600, "v", 12000], "trial": 5, "serialpos": 16, "trial_type": "single-stim", "trial_index": 213, "time_elapsed": 1264453, "internal_node_id": "0.0-159.0"}}, {"uniqueid": "MTK0383:3R5F3LQFV3RML6JLFDE7SVJ9GXNZOV", "current_trial": 214, "dateTime": 1510783326316, "trialdata": {"rt": -1, "stimulus": "<p id=\"stim\">BISON</p>", "key_press": -1, "type": "PRES_VIS", "word": "bison", "wordID": 130, "conditions": [24, 1600, "v", 12000], "trial": 5, "serialpos": 17, "trial_type": "single-stim", "trial_index": 214, "time_elapsed": 1266895, "internal_node_id": "0.0-160.0"}}, {"uniqueid": "MTK0383:3R5F3LQFV3RML6JLFDE7SVJ9GXNZOV", "current_trial": 215, "dateTime": 1510783328892, "trialdata": {"rt": -1, "stimulus": "<p id=\"stim\">FLASK</p>", "key_press": -1, "type": "PRES_VIS", "word": "flask", "wordID": 575, "conditions": [24, 1600, "v", 12000], "trial": 5, "serialpos": 18, "trial_type": "single-stim", "trial_index": 215, "time_elapsed": 1269469, "internal_node_id": "0.0-161.0"}}, {"uniqueid": "MTK0383:3R5F3LQFV3RML6JLFDE7SVJ9GXNZOV", "current_trial": 216, "dateTime": 1510783331671, "trialdata": {"rt": -1, "stimulus": "<p id=\"stim\">WAITRESS</p>", "key_press": -1, "type": "PRES_VIS", "word": "waitress", "wordID": 1580, "conditions": [24, 1600, "v", 12000], "trial": 5, "serialpos": 19, "trial_type": "single-stim", "trial_index": 216, "time_elapsed": 1272250, "internal_node_id": "0.0-162.0"}}, {"uniqueid": "MTK0383:3R5F3LQFV3RML6JLFDE7SVJ9GXNZOV", "current_trial": 217, "dateTime": 1510783334116, "trialdata": {"rt": -1, "stimulus": "<p id=\"stim\">TRENCH</p>", "key_press": -1, "type": "PRES_VIS", "word": "trench", "wordID": 1502, "conditions": [24, 1600, "v", 12000], "trial": 5, "serialpos": 20, "trial_type": "single-stim", "trial_index": 217, "time_elapsed": 1274695, "internal_node_id": "0.0-163.0"}}, {"uniqueid": "MTK0383:3R5F3LQFV3RML6JLFDE7SVJ9GXNZOV", "current_trial": 218, "dateTime": 1510783336852, "trialdata": {"rt": -1, "stimulus": "<p id=\"stim\">SPOON</p>", "key_press": -1, "type": "PRES_VIS", "word": "spoon", "wordID": 1356, "conditions": [24, 1600, "v", 12000], "trial": 5, "serialpos": 21, "trial_type": "single-stim", "trial_index": 218, "time_elapsed": 1277431, "internal_node_id": "0.0-164.0"}}, {"uniqueid": "MTK0383:3R5F3LQFV3RML6JLFDE7SVJ9GXNZOV", "current_trial": 219, "dateTime": 1510783339628, "trialdata": {"rt": -1, "stimulus": "<p id=\"stim\">SLUG</p>", "key_press": -1, "type": "PRES_VIS", "word": "slug", "wordID": 1328, "conditions": [24, 1600, "v", 12000], "trial": 5, "serialpos": 22, "trial_type": "single-stim", "trial_index": 219, "time_elapsed": 1280207, "internal_node_id": "0.0-165.0"}}, {"uniqueid": "MTK0383:3R5F3LQFV3RML6JLFDE7SVJ9GXNZOV", "current_trial": 220, "dateTime": 1510783342170, "trialdata": {"rt": -1, "stimulus": "<p id=\"stim\">JOURNAL</p>", "key_press": -1, "type": "PRES_VIS", "word": "journal", "wordID": 759, "conditions": [24, 1600, "v", 12000], "trial": 5, "serialpos": 23, "trial_type": "single-stim", "trial_index": 220, "time_elapsed": 1282749, "internal_node_id": "0.0-166.0"}}, {"uniqueid": "MTK0383:3R5F3LQFV3RML6JLFDE7SVJ9GXNZOV", "current_trial": 221, "dateTime": 1510783344449, "trialdata": {"rt": -1, "stimulus": "", "key_press": -1, "type": "PRE_RECALL_DELAY", "trial_type": "single-stim", "trial_index": 221, "time_elapsed": 1285028, "internal_node_id": "0.0-167.0-0.0"}}, {"uniqueid": "MTK0383:3R5F3LQFV3RML6JLFDE7SVJ9GXNZOV", "current_trial": 222, "dateTime": 1510783344952, "trialdata": {"rt": -1000, "stimulus": "/static/audio/400Hz.wav", "key_press": -1, "type": "PRE_RECALL_ALERT", "trial_type": "single-audio", "trial_index": 222, "time_elapsed": 1285530, "internal_node_id": "0.0-168.0"}}, {"uniqueid": "MTK0383:3R5F3LQFV3RML6JLFDE7SVJ9GXNZOV", "current_trial": 223, "dateTime": 1510783404965, "trialdata": {"rt": [2547, 4673, 6256, 9447, 11728, 13450, 22693, 24633, 27442, 28572, 40316, 51528], "recwords": ["slug", "cattle", "bison", "chipmunk", "waitress", "spoon", "tombstone", "ground", "cyclone", "lake", "army", "burial"], "type": "FREE_RECALL", "conditions": [24, 1600, "v", 12000], "trial": 5, "trial_type": "free-recall", "trial_index": 223, "time_elapsed": 1345537, "internal_node_id": "0.0-169.0-0.0"}}, {"uniqueid": "MTK0383:3R5F3LQFV3RML6JLFDE7SVJ9GXNZOV", "current_trial": 224, "dateTime": 1510783408600, "trialdata": {"rt": 1633, "key_press": 32, "type": "INSTRUCTIONS", "trial_type": "text", "trial_index": 224, "time_elapsed": 1349179, "internal_node_id": "0.0-170.0"}}, {"uniqueid": "MTK0383:3R5F3LQFV3RML6JLFDE7SVJ9GXNZOV", "current_trial": 225, "dateTime": 1510783434607, "trialdata": {"rt": [2183, 6131, 8410, 10095, 12775, 14991, 18053, 20022, 22449], "responses": ["16", "13", "11", "18", "18", "11", "13", "8", "17"], "num1": [7, 6, 5, 4, 3, 3, 3, 5, 3, 7], "num2": [5, 3, 2, 6, 9, 2, 5, 1, 5, 8], "num3": [4, 4, 4, 8, 6, 6, 3, 2, 9, 7], "type": "DISTRACTOR", "conditions": [24, 800, "v", 24000], "trial": 6, "trial_type": "math-distractor", "trial_index": 225, "time_elapsed": 1375186, "internal_node_id": "0.0-171.0"}}, {"uniqueid": "MTK0383:3R5F3LQFV3RML6JLFDE7SVJ9GXNZOV", "current_trial": 226, "dateTime": 1510783437609, "trialdata": {"rt": -1, "stimulus": "<p id=\"stim\">10</p>", "key_press": -1, "trial_type": "single-stim", "trial_index": 226, "time_elapsed": 1378188, "internal_node_id": "0.0-172.0-0.0"}}, {"uniqueid": "MTK0383:3R5F3LQFV3RML6JLFDE7SVJ9GXNZOV", "current_trial": 227, "dateTime": 1510783438610, "trialdata": {"rt": -1, "stimulus": "<p id=\"stim\">9</p>", "key_press": -1, "trial_type": "single-stim", "trial_index": 227, "time_elapsed": 1379189, "internal_node_id": "0.0-172.0-1.0"}}, {"uniqueid": "MTK0383:3R5F3LQFV3RML6JLFDE7SVJ9GXNZOV", "current_trial": 228, "dateTime": 1510783439612, "trialdata": {"rt": -1, "stimulus": "<p id=\"stim\">8</p>", "key_press": -1, "trial_type": "single-stim", "trial_index": 228, "time_elapsed": 1380191, "internal_node_id": "0.0-172.0-2.0"}}, {"uniqueid": "MTK0383:3R5F3LQFV3RML6JLFDE7SVJ9GXNZOV", "current_trial": 229, "dateTime": 1510783440613, "trialdata": {"rt": -1, "stimulus": "<p id=\"stim\">7</p>", "key_press": -1, "trial_type": "single-stim", "trial_index": 229, "time_elapsed": 1381192, "internal_node_id": "0.0-172.0-3.0"}}, {"uniqueid": "MTK0383:3R5F3LQFV3RML6JLFDE7SVJ9GXNZOV", "current_trial": 230, "dateTime": 1510783441614, "trialdata": {"rt": -1, "stimulus": "<p id=\"stim\">6</p>", "key_press": -1, "trial_type": "single-stim", "trial_index": 230, "time_elapsed": 1382193, "internal_node_id": "0.0-172.0-4.0"}}, {"uniqueid": "MTK0383:3R5F3LQFV3RML6JLFDE7SVJ9GXNZOV", "current_trial": 231, "dateTime": 1510783442619, "trialdata": {"rt": -1, "stimulus": "<p id=\"stim\">5</p>", "key_press": -1, "trial_type": "single-stim", "trial_index": 231, "time_elapsed": 1383196, "internal_node_id": "0.0-172.0-5.0"}}, {"uniqueid": "MTK0383:3R5F3LQFV3RML6JLFDE7SVJ9GXNZOV", "current_trial": 232, "dateTime": 1510783443622, "trialdata": {"rt": -1, "stimulus": "<p id=\"stim\">4</p>", "key_press": -1, "trial_type": "single-stim", "trial_index": 232, "time_elapsed": 1384201, "internal_node_id": "0.0-172.0-6.0"}}, {"uniqueid": "MTK0383:3R5F3LQFV3RML6JLFDE7SVJ9GXNZOV", "current_trial": 233, "dateTime": 1510783444624, "trialdata": {"rt": -1, "stimulus": "<p id=\"stim\">3</p>", "key_press": -1, "trial_type": "single-stim", "trial_index": 233, "time_elapsed": 1385203, "internal_node_id": "0.0-172.0-7.0"}}, {"uniqueid": "MTK0383:3R5F3LQFV3RML6JLFDE7SVJ9GXNZOV", "current_trial": 234, "dateTime": 1510783445625, "trialdata": {"rt": -1, "stimulus": "<p id=\"stim\">2</p>", "key_press": -1, "trial_type": "single-stim", "trial_index": 234, "time_elapsed": 1386204, "internal_node_id": "0.0-172.0-8.0"}}, {"uniqueid": "MTK0383:3R5F3LQFV3RML6JLFDE7SVJ9GXNZOV", "current_trial": 235, "dateTime": 1510783446627, "trialdata": {"rt": -1, "stimulus": "<p id=\"stim\">1</p>", "key_press": -1, "trial_type": "single-stim", "trial_index": 235, "time_elapsed": 1387206, "internal_node_id": "0.0-172.0-9.0"}}, {"uniqueid": "MTK0383:3R5F3LQFV3RML6JLFDE7SVJ9GXNZOV", "current_trial": 236, "dateTime": 1510783448130, "trialdata": {"rt": -1, "stimulus": "<p id=\"stim\">+</p>", "key_press": -1, "type": "FIXATION", "trial_type": "single-stim", "trial_index": 236, "time_elapsed": 1388709, "internal_node_id": "0.0-173.0-0.0"}}, {"uniqueid": "MTK0383:3R5F3LQFV3RML6JLFDE7SVJ9GXNZOV", "current_trial": 237, "dateTime": 1510783448932, "trialdata": {"rt": -1, "stimulus": "<p id=\"stim\">STATUE</p>", "key_press": -1, "type": "PRES_VIS", "word": "statue", "wordID": 1373, "conditions": [24, 800, "v", 24000], "trial": 6, "serialpos": 0, "trial_type": "single-stim", "trial_index": 237, "time_elapsed": 1389511, "internal_node_id": "0.0-174.0"}}, {"uniqueid": "MTK0383:3R5F3LQFV3RML6JLFDE7SVJ9GXNZOV", "current_trial": 238, "dateTime": 1510783450639, "trialdata": {"rt": -1, "stimulus": "<p id=\"stim\">PARSLEY</p>", "key_press": -1, "type": "PRES_VIS", "word": "parsley", "wordID": 1015, "conditions": [24, 800, "v", 24000], "trial": 6, "serialpos": 1, "trial_type": "single-stim", "trial_index": 238, "time_elapsed": 1391218, "internal_node_id": "0.0-175.0"}}, {"uniqueid": "MTK0383:3R5F3LQFV3RML6JLFDE7SVJ9GXNZOV", "current_trial": 239, "dateTime": 1510783452493, "trialdata": {"rt": -1, "stimulus": "<p id=\"stim\">ROBOT</p>", "key_press": -1, "type": "PRES_VIS", "word": "robot", "wordID": 1199, "conditions": [24, 800, "v", 24000], "trial": 6, "serialpos": 2, "trial_type": "single-stim", "trial_index": 239, "time_elapsed": 1393072, "internal_node_id": "0.0-176.0"}}, {"uniqueid": "MTK0383:3R5F3LQFV3RML6JLFDE7SVJ9GXNZOV", "current_trial": 240, "dateTime": 1510783454407, "trialdata": {"rt": -1, "stimulus": "<p id=\"stim\">COUCH</p>", "key_press": -1, "type": "PRES_VIS", "word": "couch", "wordID": 385, "conditions": [24, 800, "v", 24000], "trial": 6, "serialpos": 3, "trial_type": "single-stim", "trial_index": 240, "time_elapsed": 1394986, "internal_node_id": "0.0-177.0"}}, {"uniqueid": "MTK0383:3R5F3LQFV3RML6JLFDE7SVJ9GXNZOV", "current_trial": 241, "dateTime": 1510783456154, "trialdata": {"rt": -1, "stimulus": "<p id=\"stim\">SURVEY</p>", "key_press": -1, "type": "PRES_VIS", "word": "survey", "wordID": 1413, "conditions": [24, 800, "v", 24000], "trial": 6, "serialpos": 4, "trial_type": "single-stim", "trial_index": 241, "time_elapsed": 1396733, "internal_node_id": "0.0-178.0"}}, {"uniqueid": "MTK0383:3R5F3LQFV3RML6JLFDE7SVJ9GXNZOV", "current_trial": 242, "dateTime": 1510783457905, "trialdata": {"rt": -1, "stimulus": "<p id=\"stim\">REPORT</p>", "key_press": -1, "type": "PRES_VIS", "word": "report", "wordID": 1183, "conditions": [24, 800, "v", 24000], "trial": 6, "serialpos": 5, "trial_type": "single-stim", "trial_index": 242, "time_elapsed": 1398484, "internal_node_id": "0.0-179.0"}}, {"uniqueid": "MTK0383:3R5F3LQFV3RML6JLFDE7SVJ9GXNZOV", "current_trial": 243, "dateTime": 1510783459835, "trialdata": {"rt": -1, "stimulus": "<p id=\"stim\">COFFEE</p>", "key_press": -1, "type": "PRES_VIS", "word": "coffee", "wordID": 340, "conditions": [24, 800, "v", 24000], "trial": 6, "serialpos": 6, "trial_type": "single-stim", "trial_index": 243, "time_elapsed": 1400414, "internal_node_id": "0.0-180.0"}}, {"uniqueid": "MTK0383:3R5F3LQFV3RML6JLFDE7SVJ9GXNZOV", "current_trial": 244, "dateTime": 1510783461773, "trialdata": {"rt": -1, "stimulus": "<p id=\"stim\">ORANGE</p>", "key_press": -1, "type": "PRES_VIS", "word": "orange", "wordID": 979, "conditions": [24, 800, "v", 24000], "trial": 6, "serialpos": 7, "trial_type": "single-stim", "trial_index": 244, "time_elapsed": 1402352, "internal_node_id": "0.0-181.0"}}, {"uniqueid": "MTK0383:3R5F3LQFV3RML6JLFDE7SVJ9GXNZOV", "current_trial": 245, "dateTime": 1510783463686, "trialdata": {"rt": -1, "stimulus": "<p id=\"stim\">SMOG</p>", "key_press": -1, "type": "PRES_VIS", "word": "smog", "wordID": 1329, "conditions": [24, 800, "v", 24000], "trial": 6, "serialpos": 8, "trial_type": "single-stim", "trial_index": 245, "time_elapsed": 1404265, "internal_node_id": "0.0-182.0"}}, {"uniqueid": "MTK0383:3R5F3LQFV3RML6JLFDE7SVJ9GXNZOV", "current_trial": 246, "dateTime": 1510783465627, "trialdata": {"rt": -1, "stimulus": "<p id=\"stim\">COTTAGE</p>", "key_press": -1, "type": "PRES_VIS", "word": "cottage", "wordID": 383, "conditions": [24, 800, "v", 24000], "trial": 6, "serialpos": 9, "trial_type": "single-stim", "trial_index": 246, "time_elapsed": 1406206, "internal_node_id": "0.0-183.0"}}, {"uniqueid": "MTK0383:3R5F3LQFV3RML6JLFDE7SVJ9GXNZOV", "current_trial": 247, "dateTime": 1510783467610, "trialdata": {"rt": -1, "stimulus": "<p id=\"stim\">QUEEN</p>", "key_press": -1, "type": "PRES_VIS", "word": "queen", "wordID": 1148, "conditions": [24, 800, "v", 24000], "trial": 6, "serialpos": 10, "trial_type": "single-stim", "trial_index": 247, "time_elapsed": 1408189, "internal_node_id": "0.0-184.0"}}, {"uniqueid": "MTK0383:3R5F3LQFV3RML6JLFDE7SVJ9GXNZOV", "current_trial": 248, "dateTime": 1510783469285, "trialdata": {"rt": -1, "stimulus": "<p id=\"stim\">SCULPTURE</p>", "key_press": -1, "type": "PRES_VIS", "word": "sculpture", "wordID": 1257, "conditions": [24, 800, "v", 24000], "trial": 6, "serialpos": 11, "trial_type": "single-stim", "trial_index": 248, "time_elapsed": 1409864, "internal_node_id": "0.0-185.0"}}, {"uniqueid": "MTK0383:3R5F3LQFV3RML6JLFDE7SVJ9GXNZOV", "current_trial": 249, "dateTime": 1510783471113, "trialdata": {"rt": -1, "stimulus": "<p id=\"stim\">CITRUS</p>", "key_press": -1, "type": "PRES_VIS", "word": "citrus", "wordID": 312, "conditions": [24, 800, "v", 24000], "trial": 6, "serialpos": 12, "trial_type": "single-stim", "trial_index": 249, "time_elapsed": 1411692, "internal_node_id": "0.0-186.0"}}, {"uniqueid": "MTK0383:3R5F3LQFV3RML6JLFDE7SVJ9GXNZOV", "current_trial": 250, "dateTime": 1510783473100, "trialdata": {"rt": -1, "stimulus": "<p id=\"stim\">GRAVEL</p>", "key_press": -1, "type": "PRES_VIS", "word": "gravel", "wordID": 658, "conditions": [24, 800, "v", 24000], "trial": 6, "serialpos": 13, "trial_type": "single-stim", "trial_index": 250, "time_elapsed": 1413679, "internal_node_id": "0.0-187.0"}}, {"uniqueid": "MTK0383:3R5F3LQFV3RML6JLFDE7SVJ9GXNZOV", "current_trial": 251, "dateTime": 1510783475094, "trialdata": {"rt": -1, "stimulus": "<p id=\"stim\">FRAME</p>", "key_press": -1, "type": "PRES_VIS", "word": "frame", "wordID": 599, "conditions": [24, 800, "v", 24000], "trial": 6, "serialpos": 14, "trial_type": "single-stim", "trial_index": 251, "time_elapsed": 1415673, "internal_node_id": "0.0-188.0"}}, {"uniqueid": "MTK0383:3R5F3LQFV3RML6JLFDE7SVJ9GXNZOV", "current_trial": 252, "dateTime": 1510783476726, "trialdata": {"rt": -1, "stimulus": "<p id=\"stim\">GLASS</p>", "key_press": -1, "type": "PRES_VIS", "word": "glass", "wordID": 638, "conditions": [24, 800, "v", 24000], "trial": 6, "serialpos": 15, "trial_type": "single-stim", "trial_index": 252, "time_elapsed": 1417305, "internal_node_id": "0.0-189.0"}}, {"uniqueid": "MTK0383:3R5F3LQFV3RML6JLFDE7SVJ9GXNZOV", "current_trial": 253, "dateTime": 1510783478487, "trialdata": {"rt": -1, "stimulus": "<p id=\"stim\">PEACH</p>", "key_press": -1, "type": "PRES_VIS", "word": "peach", "wordID": 1030, "conditions": [24, 800, "v", 24000], "trial": 6, "serialpos": 16, "trial_type": "single-stim", "trial_index": 253, "time_elapsed": 1419066, "internal_node_id": "0.0-190.0"}}, {"uniqueid": "MTK0383:3R5F3LQFV3RML6JLFDE7SVJ9GXNZOV", "current_trial": 254, "dateTime": 1510783480268, "trialdata": {"rt": -1, "stimulus": "<p id=\"stim\">ROD</p>", "key_press": -1, "type": "PRES_VIS", "word": "rod", "wordID": 1202, "conditions": [24, 800, "v", 24000], "trial": 6, "serialpos": 17, "trial_type": "single-stim", "trial_index": 254, "time_elapsed": 1420847, "internal_node_id": "0.0-191.0"}}, {"uniqueid": "MTK0383:3R5F3LQFV3RML6JLFDE7SVJ9GXNZOV", "current_trial": 255, "dateTime": 1510783482235, "trialdata": {"rt": -1, "stimulus": "<p id=\"stim\">SUPPER</p>", "key_press": -1, "type": "PRES_VIS", "word": "supper", "wordID": 1410, "conditions": [24, 800, "v", 24000], "trial": 6, "serialpos": 18, "trial_type": "single-stim", "trial_index": 255, "time_elapsed": 1422813, "internal_node_id": "0.0-192.0"}}, {"uniqueid": "MTK0383:3R5F3LQFV3RML6JLFDE7SVJ9GXNZOV", "current_trial": 256, "dateTime": 1510783484244, "trialdata": {"rt": -1, "stimulus": "<p id=\"stim\">BANQUET</p>", "key_press": -1, "type": "PRES_VIS", "word": "banquet", "wordID": 85, "conditions": [24, 800, "v", 24000], "trial": 6, "serialpos": 19, "trial_type": "single-stim", "trial_index": 256, "time_elapsed": 1424823, "internal_node_id": "0.0-193.0"}}, {"uniqueid": "MTK0383:3R5F3LQFV3RML6JLFDE7SVJ9GXNZOV", "current_trial": 257, "dateTime": 1510783486238, "trialdata": {"rt": -1, "stimulus": "<p id=\"stim\">LETTUCE</p>", "key_press": -1, "type": "PRES_VIS", "word": "lettuce", "wordID": 813, "conditions": [24, 800, "v", 24000], "trial": 6, "serialpos": 20, "trial_type": "single-stim", "trial_index": 257, "time_elapsed": 1426817, "internal_node_id": "0.0-194.0"}}, {"uniqueid": "MTK0383:3R5F3LQFV3RML6JLFDE7SVJ9GXNZOV", "current_trial": 258, "dateTime": 1510783487990, "trialdata": {"rt": -1, "stimulus": "<p id=\"stim\">FRUIT</p>", "key_press": -1, "type": "PRES_VIS", "word": "fruit", "wordID": 609, "conditions": [24, 800, "v", 24000], "trial": 6, "serialpos": 21, "trial_type": "single-stim", "trial_index": 258, "time_elapsed": 1428569, "internal_node_id": "0.0-195.0"}}, {"uniqueid": "MTK0383:3R5F3LQFV3RML6JLFDE7SVJ9GXNZOV", "current_trial": 259, "dateTime": 1510783489882, "trialdata": {"rt": -1, "stimulus": "<p id=\"stim\">UNCLE</p>", "key_press": -1, "type": "PRES_VIS", "word": "uncle", "wordID": 1535, "conditions": [24, 800, "v", 24000], "trial": 6, "serialpos": 22, "trial_type": "single-stim", "trial_index": 259, "time_elapsed": 1430461, "internal_node_id": "0.0-196.0"}}, {"uniqueid": "MTK0383:3R5F3LQFV3RML6JLFDE7SVJ9GXNZOV", "current_trial": 260, "dateTime": 1510783491530, "trialdata": {"rt": -1, "stimulus": "<p id=\"stim\">THREAD</p>", "key_press": -1, "type": "PRES_VIS", "word": "thread", "wordID": 1459, "conditions": [24, 800, "v", 24000], "trial": 6, "serialpos": 23, "trial_type": "single-stim", "trial_index": 260, "time_elapsed": 1432109, "internal_node_id": "0.0-197.0"}}, {"uniqueid": "MTK0383:3R5F3LQFV3RML6JLFDE7SVJ9GXNZOV", "current_trial": 261, "dateTime": 1510783493645, "trialdata": {"rt": -1, "stimulus": "", "key_press": -1, "type": "PRE_RECALL_DELAY", "trial_type": "single-stim", "trial_index": 261, "time_elapsed": 1434224, "internal_node_id": "0.0-198.0-0.0"}}, {"uniqueid": "MTK0383:3R5F3LQFV3RML6JLFDE7SVJ9GXNZOV", "current_trial": 262, "dateTime": 1510783494147, "trialdata": {"rt": -1000, "stimulus": "/static/audio/400Hz.wav", "key_press": -1, "type": "PRE_RECALL_ALERT", "trial_type": "single-audio", "trial_index": 262, "time_elapsed": 1434726, "internal_node_id": "0.0-199.0"}}, {"uniqueid": "MTK0383:3R5F3LQFV3RML6JLFDE7SVJ9GXNZOV", "current_trial": 263, "dateTime": 1510783554162, "trialdata": {"rt": [1837, 4115, 5527, 7129, 9238, 11003, 13135, 16431, 30502, 50864, 52351], "recwords": ["thread", "banquet", "fruit", "peach", "citrus", "orange", "coffee", "lettuce", "supper", "report", "survey"], "type": "FREE_RECALL", "conditions": [24, 800, "v", 24000], "trial": 6, "trial_type": "free-recall", "trial_index": 263, "time_elapsed": 1494733, "internal_node_id": "0.0-200.0-0.0"}}, {"uniqueid": "MTK0383:3R5F3LQFV3RML6JLFDE7SVJ9GXNZOV", "current_trial": 264, "dateTime": 1510783558758, "trialdata": {"rt": 2592, "key_press": 32, "type": "INSTRUCTIONS", "trial_type": "text", "trial_index": 264, "time_elapsed": 1499337, "internal_node_id": "0.0-201.0"}}, {"uniqueid": "MTK0383:3R5F3LQFV3RML6JLFDE7SVJ9GXNZOV", "current_trial": 265, "dateTime": 1510783584765, "trialdata": {"rt": [1537, 3975, 5831, 7637, 9674, 11665, 13345, 15159, 16687, 20067], "responses": ["11", "14", "10", "15", "14", "20", "19", "16", "7", "22"], "num1": [1, 2, 3, 7, 7, 7, 5, 4, 1, 8, 4], "num2": [5, 6, 4, 7, 4, 5, 6, 6, 2, 5, 3], "num3": [5, 6, 3, 1, 3, 8, 8, 6, 4, 7, 4], "type": "DISTRACTOR", "conditions": [12, 1600, "a", 24000], "trial": 7, "trial_type": "math-distractor", "trial_index": 265, "time_elapsed": 1525344, "internal_node_id": "0.0-202.0"}}, {"uniqueid": "MTK0383:3R5F3LQFV3RML6JLFDE7SVJ9GXNZOV", "current_trial": 266, "dateTime": 1510783587769, "trialdata": {"rt": -1, "stimulus": "<p id=\"stim\">10</p>", "key_press": -1, "trial_type": "single-stim", "trial_index": 266, "time_elapsed": 1528348, "