{"condition": 0, "counterbalance": 259, "assignmentId": "3X65QVEQI1U17S5EA7E7PGEUB6OLCK", "workerId": "MTK0280", "hitId": "3CMV9YRYP38MSMDQUXQRN0V5O69LJI", "currenttrial": 626, "bonus": 0, "data": [{"uniqueid": "MTK0280:3X65QVEQI1U17S5EA7E7PGEUB6OLCK", "current_trial": 0, "dateTime": 1510692418325, "trialdata": {"rt": 1639, "key_press": 13, "type": "INSTRUCTIONS", "trial_type": "text", "trial_index": 0, "time_elapsed": 1652, "internal_node_id": "0.0-0.0"}}, {"uniqueid": "MTK0280:3X65QVEQI1U17S5EA7E7PGEUB6OLCK", "current_trial": 1, "dateTime": 1510692431906, "trialdata": {"rt": 13574, "key_press": 175, "type": "INSTRUCTIONS", "trial_type": "text", "trial_index": 1, "time_elapsed": 15245, "internal_node_id": "0.0-1.0"}}, {"uniqueid": "MTK0280:3X65QVEQI1U17S5EA7E7PGEUB6OLCK", "current_trial": 2, "dateTime": 1510692447559, "trialdata": {"rt": [15602], "responses": ["ocean"], "type": "AUDIO_TEST", "trial_type": "audio-test", "trial_index": 2, "time_elapsed": 30896, "internal_node_id": "0.0-2.0"}}, {"uniqueid": "MTK0280:3X65QVEQI1U17S5EA7E7PGEUB6OLCK", "current_trial": 3, "dateTime": 1510692456195, "trialdata": {"rt": [8607], "responses": ["crystal"], "type": "AUDIO_TEST", "trial_type": "audio-test", "trial_index": 3, "time_elapsed": 39532, "internal_node_id": "0.0-3.0"}}, {"uniqueid": "MTK0280:3X65QVEQI1U17S5EA7E7PGEUB6OLCK", "current_trial": 4, "dateTime": 1510692461467, "trialdata": {"rt": [5233], "responses": ["spice"], "type": "AUDIO_TEST", "trial_type": "audio-test", "trial_index": 4, "time_elapsed": 44805, "internal_node_id": "0.0-4.0"}}, {"uniqueid": "MTK0280:3X65QVEQI1U17S5EA7E7PGEUB6OLCK", "current_trial": 5, "dateTime": 1510692496881, "trialdata": {"rt": 34549, "responses": "{\"Q0\":\"11:30PM\",\"Q1\":\"6:30AM\",\"Q2\":\"5\"}", "type": "SLEEP_SURVEY", "trial_type": "survey-text", "trial_index": 5, "time_elapsed": 80220, "internal_node_id": "0.0-5.0"}}, {"uniqueid": "MTK0280:3X65QVEQI1U17S5EA7E7PGEUB6OLCK", "current_trial": 6, "dateTime": 1510692563222, "trialdata": {"rt": 65334, "key_press": 40, "type": "INSTRUCTIONS", "trial_type": "text", "trial_index": 6, "time_elapsed": 146560, "internal_node_id": "0.0-6.0"}}, {"uniqueid": "MTK0280:3X65QVEQI1U17S5EA7E7PGEUB6OLCK", "current_trial": 7, "dateTime": 1510692586481, "trialdata": {"rt": 22754, "key_press": 13, "type": "INSTRUCTIONS", "trial_type": "text", "trial_index": 7, "time_elapsed": 169820, "internal_node_id": "0.0-7.0"}}, {"uniqueid": "MTK0280:3X65QVEQI1U17S5EA7E7PGEUB6OLCK", "current_trial": 8, "dateTime": 1510692636408, "trialdata": {"rt": 49423, "key_press": 13, "type": "INSTRUCTIONS", "trial_type": "text", "trial_index": 8, "time_elapsed": 219747, "internal_node_id": "0.0-8.0"}}, {"uniqueid": "MTK0280:3X65QVEQI1U17S5EA7E7PGEUB6OLCK", "current_trial": 9, "dateTime": 1510692655452, "trialdata": {"rt": [4381, 9623, 13607], "responses": ["20", "16", "11"], "num1": [6, 8, 4, 6], "num2": [6, 3, 4, 4], "num3": [8, 5, 3, 4], "type": "DISTRACTOR", "conditions": [18, 1200, "v", 18000], "trial": 0, "trial_type": "math-distractor", "trial_index": 9, "time_elapsed": 238790, "internal_node_id": "0.0-9.0"}}, {"uniqueid": "MTK0280:3X65QVEQI1U17S5EA7E7PGEUB6OLCK", "current_trial": 10, "dateTime": 1510692658461, "trialdata": {"rt": -1, "stimulus": "<p id=\"stim\">10</p>", "key_press": -1, "trial_type": "single-stim", "trial_index": 10, "time_elapsed": 241799, "internal_node_id": "0.0-10.0-0.0"}}, {"uniqueid": "MTK0280:3X65QVEQI1U17S5EA7E7PGEUB6OLCK", "current_trial": 11, "dateTime": 1510692659470, "trialdata": {"rt": -1, "stimulus": "<p id=\"stim\">9</p>", "key_press": -1, "trial_type": "single-stim", "trial_index": 11, "time_elapsed": 242807, "internal_node_id": "0.0-10.0-1.0"}}, {"uniqueid": "MTK0280:3X65QVEQI1U17S5EA7E7PGEUB6OLCK", "current_trial": 12, "dateTime": 1510692660513, "trialdata": {"rt": -1, "stimulus": "<p id=\"stim\">8</p>", "key_press": -1, "trial_type": "single-stim", "trial_index": 12, "time_elapsed": 243852, "internal_node_id": "0.0-10.0-2.0"}}, {"uniqueid": "MTK0280:3X65QVEQI1U17S5EA7E7PGEUB6OLCK", "current_trial": 13, "dateTime": 1510692661519, "trialdata": {"rt": -1, "stimulus": "<p id=\"stim\">7</p>", "key_press": -1, "trial_type": "single-stim", "trial_index": 13, "time_elapsed": 244857, "internal_node_id": "0.0-10.0-3.0"}}, {"uniqueid": "MTK0280:3X65QVEQI1U17S5EA7E7PGEUB6OLCK", "current_trial": 14, "dateTime": 1510692662543, "trialdata": {"rt": -1, "stimulus": "<p id=\"stim\">6</p>", "key_press": -1, "trial_type": "single-stim", "trial_index": 14, "time_elapsed": 245881, "internal_node_id": "0.0-10.0-4.0"}}, {"uniqueid": "MTK0280:3X65QVEQI1U17S5EA7E7PGEUB6OLCK", "current_trial": 15, "dateTime": 1510692663549, "trialdata": {"rt": -1, "stimulus": "<p id=\"stim\">5</p>", "key_press": -1, "trial_type": "single-stim", "trial_index": 15, "time_elapsed": 246887, "internal_node_id": "0.0-10.0-5.0"}}, {"uniqueid": "MTK0280:3X65QVEQI1U17S5EA7E7PGEUB6OLCK", "current_trial": 16, "dateTime": 1510692664553, "trialdata": {"rt": -1, "stimulus": "<p id=\"stim\">4</p>", "key_press": -1, "trial_type": "single-stim", "trial_index": 16, "time_elapsed": 247892, "internal_node_id": "0.0-10.0-6.0"}}, {"uniqueid": "MTK0280:3X65QVEQI1U17S5EA7E7PGEUB6OLCK", "current_trial": 17, "dateTime": 1510692665562, "trialdata": {"rt": -1, "stimulus": "<p id=\"stim\">3</p>", "key_press": -1, "trial_type": "single-stim", "trial_index": 17, "time_elapsed": 248901, "internal_node_id": "0.0-10.0-7.0"}}, {"uniqueid": "MTK0280:3X65QVEQI1U17S5EA7E7PGEUB6OLCK", "current_trial": 18, "dateTime": 1510692666672, "trialdata": {"rt": -1, "stimulus": "<p id=\"stim\">2</p>", "key_press": -1, "trial_type": "single-stim", "trial_index": 18, "time_elapsed": 250010, "internal_node_id": "0.0-10.0-8.0"}}, {"uniqueid": "MTK0280:3X65QVEQI1U17S5EA7E7PGEUB6OLCK", "current_trial": 19, "dateTime": 1510692667678, "trialdata": {"rt": -1, "stimulus": "<p id=\"stim\">1</p>", "key_press": -1, "trial_type": "single-stim", "trial_index": 19, "time_elapsed": 251016, "internal_node_id": "0.0-10.0-9.0"}}, {"uniqueid": "MTK0280:3X65QVEQI1U17S5EA7E7PGEUB6OLCK", "current_trial": 20, "dateTime": 1510692669184, "trialdata": {"rt": -1, "stimulus": "<p id=\"stim\">+</p>", "key_press": -1, "type": "FIXATION", "trial_type": "single-stim", "trial_index": 20, "time_elapsed": 252522, "internal_node_id": "0.0-11.0-0.0"}}, {"uniqueid": "MTK0280:3X65QVEQI1U17S5EA7E7PGEUB6OLCK", "current_trial": 21, "dateTime": 1510692670439, "trialdata": {"rt": -1, "stimulus": "<p id=\"stim\">GRILL</p>", "key_press": -1, "type": "PRES_VIS", "word": "grill", "wordID": 660, "conditions": [18, 1200, "v", 18000], "trial": 0, "serialpos": 0, "trial_type": "single-stim", "trial_index": 21, "time_elapsed": 253778, "internal_node_id": "0.0-12.0"}}, {"uniqueid": "MTK0280:3X65QVEQI1U17S5EA7E7PGEUB6OLCK", "current_trial": 22, "dateTime": 1510692672704, "trialdata": {"rt": -1, "stimulus": "<p id=\"stim\">JOURNAL</p>", "key_press": -1, "type": "PRES_VIS", "word": "journal", "wordID": 759, "conditions": [18, 1200, "v", 18000], "trial": 0, "serialpos": 1, "trial_type": "single-stim", "trial_index": 22, "time_elapsed": 256042, "internal_node_id": "0.0-13.0"}}, {"uniqueid": "MTK0280:3X65QVEQI1U17S5EA7E7PGEUB6OLCK", "current_trial": 23, "dateTime": 1510692674832, "trialdata": {"rt": -1, "stimulus": "<p id=\"stim\">TWIG</p>", "key_press": -1, "type": "PRES_VIS", "word": "twig", "wordID": 1526, "conditions": [18, 1200, "v", 18000], "trial": 0, "serialpos": 2, "trial_type": "single-stim", "trial_index": 23, "time_elapsed": 258171, "internal_node_id": "0.0-14.0"}}, {"uniqueid": "MTK0280:3X65QVEQI1U17S5EA7E7PGEUB6OLCK", "current_trial": 24, "dateTime": 1510692676900, "trialdata": {"rt": -1, "stimulus": "<p id=\"stim\">PRINCESS</p>", "key_press": -1, "type": "PRES_VIS", "word": "princess", "wordID": 1124, "conditions": [18, 1200, "v", 18000], "trial": 0, "serialpos": 3, "trial_type": "single-stim", "trial_index": 24, "time_elapsed": 260239, "internal_node_id": "0.0-15.0"}}, {"uniqueid": "MTK0280:3X65QVEQI1U17S5EA7E7PGEUB6OLCK", "current_trial": 25, "dateTime": 1510692678917, "trialdata": {"rt": -1, "stimulus": "<p id=\"stim\">SHORTCAKE</p>", "key_press": -1, "type": "PRES_VIS", "word": "shortcake", "wordID": 1291, "conditions": [18, 1200, "v", 18000], "trial": 0, "serialpos": 4, "trial_type": "single-stim", "trial_index": 25, "time_elapsed": 262256, "internal_node_id": "0.0-16.0"}}, {"uniqueid": "MTK0280:3X65QVEQI1U17S5EA7E7PGEUB6OLCK", "current_trial": 26, "dateTime": 1510692681121, "trialdata": {"rt": -1, "stimulus": "<p id=\"stim\">CHEST</p>", "key_press": -1, "type": "PRES_VIS", "word": "chest", "wordID": 294, "conditions": [18, 1200, "v", 18000], "trial": 0, "serialpos": 5, "trial_type": "single-stim", "trial_index": 26, "time_elapsed": 264459, "internal_node_id": "0.0-17.0"}}, {"uniqueid": "MTK0280:3X65QVEQI1U17S5EA7E7PGEUB6OLCK", "current_trial": 27, "dateTime": 1510692683518, "trialdata": {"rt": -1, "stimulus": "<p id=\"stim\">TWEEZERS</p>", "key_press": -1, "type": "PRES_VIS", "word": "tweezers", "wordID": 1525, "conditions": [18, 1200, "v", 18000], "trial": 0, "serialpos": 6, "trial_type": "single-stim", "trial_index": 27, "time_elapsed": 266856, "internal_node_id": "0.0-18.0"}}, {"uniqueid": "MTK0280:3X65QVEQI1U17S5EA7E7PGEUB6OLCK", "current_trial": 28, "dateTime": 1510692685770, "trialdata": {"rt": -1, "stimulus": "<p id=\"stim\">SNAIL</p>", "key_press": -1, "type": "PRES_VIS", "word": "snail", "wordID": 1331, "conditions": [18, 1200, "v", 18000], "trial": 0, "serialpos": 7, "trial_type": "single-stim", "trial_index": 28, "time_elapsed": 269109, "internal_node_id": "0.0-19.0"}}, {"uniqueid": "MTK0280:3X65QVEQI1U17S5EA7E7PGEUB6OLCK", "current_trial": 29, "dateTime": 1510692688153, "trialdata": {"rt": -1, "stimulus": "<p id=\"stim\">PLAZA</p>", "key_press": -1, "type": "PRES_VIS", "word": "plaza", "wordID": 1087, "conditions": [18, 1200, "v", 18000], "trial": 0, "serialpos": 8, "trial_type": "single-stim", "trial_index": 29, "time_elapsed": 271490, "internal_node_id": "0.0-20.0"}}, {"uniqueid": "MTK0280:3X65QVEQI1U17S5EA7E7PGEUB6OLCK", "current_trial": 30, "dateTime": 1510692690229, "trialdata": {"rt": -1, "stimulus": "<p id=\"stim\">WORLD</p>", "key_press": -1, "type": "PRES_VIS", "word": "world", "wordID": 1621, "conditions": [18, 1200, "v", 18000], "trial": 0, "serialpos": 9, "trial_type": "single-stim", "trial_index": 30, "time_elapsed": 273568, "internal_node_id": "0.0-21.0"}}, {"uniqueid": "MTK0280:3X65QVEQI1U17S5EA7E7PGEUB6OLCK", "current_trial": 31, "dateTime": 1510692692318, "trialdata": {"rt": -1, "stimulus": "<p id=\"stim\">BODY</p>", "key_press": -1, "type": "PRES_VIS", "word": "body", "wordID": 144, "conditions": [18, 1200, "v", 18000], "trial": 0, "serialpos": 10, "trial_type": "single-stim", "trial_index": 31, "time_elapsed": 275656, "internal_node_id": "0.0-22.0"}}, {"uniqueid": "MTK0280:3X65QVEQI1U17S5EA7E7PGEUB6OLCK", "current_trial": 32, "dateTime": 1510692694505, "trialdata": {"rt": -1, "stimulus": "<p id=\"stim\">RELISH</p>", "key_press": -1, "type": "PRES_VIS", "word": "relish", "wordID": 1182, "conditions": [18, 1200, "v", 18000], "trial": 0, "serialpos": 11, "trial_type": "single-stim", "trial_index": 32, "time_elapsed": 277843, "internal_node_id": "0.0-23.0"}}, {"uniqueid": "MTK0280:3X65QVEQI1U17S5EA7E7PGEUB6OLCK", "current_trial": 33, "dateTime": 1510692696677, "trialdata": {"rt": -1, "stimulus": "<p id=\"stim\">SERVER</p>", "key_press": -1, "type": "PRES_VIS", "word": "server", "wordID": 1271, "conditions": [18, 1200, "v", 18000], "trial": 0, "serialpos": 12, "trial_type": "single-stim", "trial_index": 33, "time_elapsed": 280016, "internal_node_id": "0.0-24.0"}}, {"uniqueid": "MTK0280:3X65QVEQI1U17S5EA7E7PGEUB6OLCK", "current_trial": 34, "dateTime": 1510692698994, "trialdata": {"rt": -1, "stimulus": "<p id=\"stim\">BLACKBOARD</p>", "key_press": -1, "type": "PRES_VIS", "word": "blackboard", "wordID": 132, "conditions": [18, 1200, "v", 18000], "trial": 0, "serialpos": 13, "trial_type": "single-stim", "trial_index": 34, "time_elapsed": 282333, "internal_node_id": "0.0-25.0"}}, {"uniqueid": "MTK0280:3X65QVEQI1U17S5EA7E7PGEUB6OLCK", "current_trial": 35, "dateTime": 1510692701328, "trialdata": {"rt": -1, "stimulus": "<p id=\"stim\">LEG</p>", "key_press": -1, "type": "PRES_VIS", "word": "leg", "wordID": 808, "conditions": [18, 1200, "v", 18000], "trial": 0, "serialpos": 14, "trial_type": "single-stim", "trial_index": 35, "time_elapsed": 284667, "internal_node_id": "0.0-26.0"}}, {"uniqueid": "MTK0280:3X65QVEQI1U17S5EA7E7PGEUB6OLCK", "current_trial": 36, "dateTime": 1510692703552, "trialdata": {"rt": -1, "stimulus": "<p id=\"stim\">STAPLE</p>", "key_press": -1, "type": "PRES_VIS", "word": "staple", "wordID": 1370, "conditions": [18, 1200, "v", 18000], "trial": 0, "serialpos": 15, "trial_type": "single-stim", "trial_index": 36, "time_elapsed": 286891, "internal_node_id": "0.0-27.0"}}, {"uniqueid": "MTK0280:3X65QVEQI1U17S5EA7E7PGEUB6OLCK", "current_trial": 37, "dateTime": 1510692705914, "trialdata": {"rt": -1, "stimulus": "<p id=\"stim\">SPHINX</p>", "key_press": -1, "type": "PRES_VIS", "word": "sphinx", "wordID": 1348, "conditions": [18, 1200, "v", 18000], "trial": 0, "serialpos": 16, "trial_type": "single-stim", "trial_index": 37, "time_elapsed": 289252, "internal_node_id": "0.0-28.0"}}, {"uniqueid": "MTK0280:3X65QVEQI1U17S5EA7E7PGEUB6OLCK", "current_trial": 38, "dateTime": 1510692708142, "trialdata": {"rt": -1, "stimulus": "<p id=\"stim\">DAUGHTER</p>", "key_press": -1, "type": "PRES_VIS", "word": "daughter", "wordID": 441, "conditions": [18, 1200, "v", 18000], "trial": 0, "serialpos": 17, "trial_type": "single-stim", "trial_index": 38, "time_elapsed": 291481, "internal_node_id": "0.0-29.0"}}, {"uniqueid": "MTK0280:3X65QVEQI1U17S5EA7E7PGEUB6OLCK", "current_trial": 39, "dateTime": 1510692710446, "trialdata": {"rt": -1, "stimulus": "", "key_press": -1, "type": "PRE_RECALL_DELAY", "trial_type": "single-stim", "trial_index": 39, "time_elapsed": 293785, "internal_node_id": "0.0-30.0-0.0"}}, {"uniqueid": "MTK0280:3X65QVEQI1U17S5EA7E7PGEUB6OLCK", "current_trial": 40, "dateTime": 1510692710965, "trialdata": {"rt": -1000, "stimulus": "/static/audio/400Hz.wav", "key_press": -1, "type": "PRE_RECALL_ALERT", "trial_type": "single-audio", "trial_index": 40, "time_elapsed": 294304, "internal_node_id": "0.0-31.0"}}, {"uniqueid": "MTK0280:3X65QVEQI1U17S5EA7E7PGEUB6OLCK", "current_trial": 41, "dateTime": 1510692771032, "trialdata": {"rt": [2915, 4596, 6146, 8139, 11113, 14266, 17359, 26256, 29578], "recwords": ["princess", "grill", "daughter", "plaza", "world", "cupcake", "journal", "tweezers", "snail"], "type": "FREE_RECALL", "conditions": [18, 1200, "v", 18000], "trial": 0, "trial_type": "free-recall", "trial_index": 41, "time_elapsed": 354318, "internal_node_id": "0.0-32.0-0.0"}}, {"uniqueid": "MTK0280:3X65QVEQI1U17S5EA7E7PGEUB6OLCK", "current_trial": 42, "dateTime": 1510692774854, "trialdata": {"rt": 1818, "key_press": 13, "type": "INSTRUCTIONS", "trial_type": "text", "trial_index": 42, "time_elapsed": 358192, "internal_node_id": "0.0-33.0"}}, {"uniqueid": "MTK0280:3X65QVEQI1U17S5EA7E7PGEUB6OLCK", "current_trial": 43, "dateTime": 1510692794865, "trialdata": {"rt": [3703, 8025, 11915, 15739, 17514], "responses": ["16", "13", "12", "17", "3"], "num1": [9, 6, 3, 4, 1, 5], "num2": [5, 2, 2, 8, 1, 4], "num3": [2, 5, 7, 5, 1, 1], "type": "DISTRACTOR", "conditions": [18, 1200, "a", 18000], "trial": 1, "trial_type": "math-distractor", "trial_index": 43, "time_elapsed": 378203, "internal_node_id": "0.0-34.0"}}, {"uniqueid": "MTK0280:3X65QVEQI1U17S5EA7E7PGEUB6OLCK", "current_trial": 44, "dateTime": 1510692798138, "trialdata": {"rt": 462, "stimulus": "<p id=\"stim\">10</p>", "key_press": 97, "trial_type": "single-stim", "trial_index": 44, "time_elapsed": 381477, "internal_node_id": "0.0-35.0-0.0"}}, {"uniqueid": "MTK0280:3X65QVEQI1U17S5EA7E7PGEUB6OLCK", "current_trial": 45, "dateTime": 1510692799143, "trialdata": {"rt": -1, "stimulus": "<p id=\"stim\">9</p>", "key_press": -1, "trial_type": "single-stim", "trial_index": 45, "time_elapsed": 382481, "internal_node_id": "0.0-35.0-1.0"}}, {"uniqueid": "MTK0280:3X65QVEQI1U17S5EA7E7PGEUB6OLCK", "current_trial": 46, "dateTime": 1510692800148, "trialdata": {"rt": -1, "stimulus": "<p id=\"stim\">8</p>", "key_press": -1, "trial_type": "single-stim", "trial_index": 46, "time_elapsed": 383486, "internal_node_id": "0.0-35.0-2.0"}}, {"uniqueid": "MTK0280:3X65QVEQI1U17S5EA7E7PGEUB6OLCK", "current_trial": 47, "dateTime": 1510692801152, "trialdata": {"rt": -1, "stimulus": "<p id=\"stim\">7</p>", "key_press": -1, "trial_type": "single-stim", "trial_index": 47, "time_elapsed": 384490, "internal_node_id": "0.0-35.0-3.0"}}, {"uniqueid": "MTK0280:3X65QVEQI1U17S5EA7E7PGEUB6OLCK", "current_trial": 48, "dateTime": 1510692802161, "trialdata": {"rt": -1, "stimulus": "<p id=\"stim\">6</p>", "key_press": -1, "trial_type": "single-stim", "trial_index": 48, "time_elapsed": 385499, "internal_node_id": "0.0-35.0-4.0"}}, {"uniqueid": "MTK0280:3X65QVEQI1U17S5EA7E7PGEUB6OLCK", "current_trial": 49, "dateTime": 1510692803166, "trialdata": {"rt": -1, "stimulus": "<p id=\"stim\">5</p>", "key_press": -1, "trial_type": "single-stim", "trial_index": 49, "time_elapsed": 386503, "internal_node_id": "0.0-35.0-5.0"}}, {"uniqueid": "MTK0280:3X65QVEQI1U17S5EA7E7PGEUB6OLCK", "current_trial": 50, "dateTime": 1510692804252, "trialdata": {"rt": -1, "stimulus": "<p id=\"stim\">4</p>", "key_press": -1, "trial_type": "single-stim", "trial_index": 50, "time_elapsed": 387591, "internal_node_id": "0.0-35.0-6.0"}}, {"uniqueid": "MTK0280:3X65QVEQI1U17S5EA7E7PGEUB6OLCK", "current_trial": 51, "dateTime": 1510692805258, "trialdata": {"rt": -1, "stimulus": "<p id=\"stim\">3</p>", "key_press": -1, "trial_type": "single-stim", "trial_index": 51, "time_elapsed": 388596, "internal_node_id": "0.0-35.0-7.0"}}, {"uniqueid": "MTK0280:3X65QVEQI1U17S5EA7E7PGEUB6OLCK", "current_trial": 52, "dateTime": 1510692806318, "trialdata": {"rt": -1, "stimulus": "<p id=\"stim\">2</p>", "key_press": -1, "trial_type": "single-stim", "trial_index": 52, "time_elapsed": 389657, "internal_node_id": "0.0-35.0-8.0"}}, {"uniqueid": "MTK0280:3X65QVEQI1U17S5EA7E7PGEUB6OLCK", "current_trial": 53, "dateTime": 1510692807324, "trialdata": {"rt": -1, "stimulus": "<p id=\"stim\">1</p>", "key_press": -1, "trial_type": "single-stim", "trial_index": 53, "time_elapsed": 390663, "internal_node_id": "0.0-35.0-9.0"}}, {"uniqueid": "MTK0280:3X65QVEQI1U17S5EA7E7PGEUB6OLCK", "current_trial": 54, "dateTime": 1510692808830, "trialdata": {"rt": -1, "stimulus": "<p id=\"stim\">+</p>", "key_press": -1, "type": "FIXATION", "trial_type": "single-stim", "trial_index": 54, "time_elapsed": 392169, "internal_node_id": "0.0-36.0-0.0"}}, {"uniqueid": "MTK0280:3X65QVEQI1U17S5EA7E7PGEUB6OLCK", "current_trial": 55, "dateTime": 1510692811055, "trialdata": {"rt": -1000, "stimulus": "/static/audio/wordpool/AIRPLANE.wav", "key_press": -1, "type": "PRES_AUD", "word": "airplane", "wordID": 11, "conditions": [18, 1200, "a", 18000], "trial": 1, "serialpos": 0, "trial_type": "single-audio", "trial_index": 55, "time_elapsed": 394394, "internal_node_id": "0.0-37.0"}}, {"uniqueid": "MTK0280:3X65QVEQI1U17S5EA7E7PGEUB6OLCK", "current_trial": 56, "dateTime": 1510692813172, "trialdata": {"rt": -1000, "stimulus": "/static/audio/wordpool/NOVEL.wav", "key_press": -1, "type": "PRES_AUD", "word": "novel", "wordID": 959, "conditions": [18, 1200, "a", 18000], "trial": 1, "serialpos": 1, "trial_type": "single-audio", "trial_index": 56, "time_elapsed": 396511, "internal_node_id": "0.0-38.0"}}, {"uniqueid": "MTK0280:3X65QVEQI1U17S5EA7E7PGEUB6OLCK", "current_trial": 57, "dateTime": 1510692815449, "trialdata": {"rt": -1000, "stimulus": "/static/audio/wordpool/DRUG.wav", "key_press": -1, "type": "PRES_AUD", "word": "drug", "wordID": 500, "conditions": [18, 1200, "a", 18000], "trial": 1, "serialpos": 2, "trial_type": "single-audio", "trial_index": 57, "time_elapsed": 398787, "internal_node_id": "0.0-39.0"}}, {"uniqueid": "MTK0280:3X65QVEQI1U17S5EA7E7PGEUB6OLCK", "current_trial": 58, "dateTime": 1510692817584, "trialdata": {"rt": -1000, "stimulus": "/static/audio/wordpool/PORK.wav", "key_press": -1, "type": "PRES_AUD", "word": "pork", "wordID": 1107, "conditions": [18, 1200, "a", 18000], "trial": 1, "serialpos": 3, "trial_type": "single-audio", "trial_index": 58, "time_elapsed": 400923, "internal_node_id": "0.0-40.0"}}, {"uniqueid": "MTK0280:3X65QVEQI1U17S5EA7E7PGEUB6OLCK", "current_trial": 59, "dateTime": 1510692819954, "trialdata": {"rt": -1000, "stimulus": "/static/audio/wordpool/DINER.wav", "key_press": -1, "type": "PRES_AUD", "word": "diner", "wordID": 466, "conditions": [18, 1200, "a", 18000], "trial": 1, "serialpos": 4, "trial_type": "single-audio", "trial_index": 59, "time_elapsed": 403293, "internal_node_id": "0.0-41.0"}}, {"uniqueid": "MTK0280:3X65QVEQI1U17S5EA7E7PGEUB6OLCK", "current_trial": 60, "dateTime": 1510692822095, "trialdata": {"rt": -1000, "stimulus": "/static/audio/wordpool/ORANGE.wav", "key_press": -1, "type": "PRES_AUD", "word": "orange", "wordID": 979, "conditions": [18, 1200, "a", 18000], "trial": 1, "serialpos": 5, "trial_type": "single-audio", "trial_index": 60, "time_elapsed": 405434, "internal_node_id": "0.0-42.0"}}, {"uniqueid": "MTK0280:3X65QVEQI1U17S5EA7E7PGEUB6OLCK", "current_trial": 61, "dateTime": 1510692824442, "trialdata": {"rt": -1000, "stimulus": "/static/audio/wordpool/VAGRANT.wav", "key_press": -1, "type": "PRES_AUD", "word": "vagrant", "wordID": 1543, "conditions": [18, 1200, "a", 18000], "trial": 1, "serialpos": 6, "trial_type": "single-audio", "trial_index": 61, "time_elapsed": 407780, "internal_node_id": "0.0-43.0"}}, {"uniqueid": "MTK0280:3X65QVEQI1U17S5EA7E7PGEUB6OLCK", "current_trial": 62, "dateTime": 1510692826576, "trialdata": {"rt": -1000, "stimulus": "/static/audio/wordpool/SNAKE.wav", "key_press": -1, "type": "PRES_AUD", "word": "snake", "wordID": 1332, "conditions": [18, 1200, "a", 18000], "trial": 1, "serialpos": 7, "trial_type": "single-audio", "trial_index": 62, "time_elapsed": 409914, "internal_node_id": "0.0-44.0"}}, {"uniqueid": "MTK0280:3X65QVEQI1U17S5EA7E7PGEUB6OLCK", "current_trial": 63, "dateTime": 1510692828582, "trialdata": {"rt": -1000, "stimulus": "/static/audio/wordpool/SALAD.wav", "key_press": -1, "type": "PRES_AUD", "word": "salad", "wordID": 1223, "conditions": [18, 1200, "a", 18000], "trial": 1, "serialpos": 8, "trial_type": "single-audio", "trial_index": 63, "time_elapsed": 411921, "internal_node_id": "0.0-45.0"}}, {"uniqueid": "MTK0280:3X65QVEQI1U17S5EA7E7PGEUB6OLCK", "current_trial": 64, "dateTime": 1510692830597, "trialdata": {"rt": -1000, "stimulus": "/static/audio/wordpool/WAGON.wav", "key_press": -1, "type": "PRES_AUD", "word": "wagon", "wordID": 1577, "conditions": [18, 1200, "a", 18000], "trial": 1, "serialpos": 9, "trial_type": "single-audio", "trial_index": 64, "time_elapsed": 413936, "internal_node_id": "0.0-46.0"}}, {"uniqueid": "MTK0280:3X65QVEQI1U17S5EA7E7PGEUB6OLCK", "current_trial": 65, "dateTime": 1510692832987, "trialdata": {"rt": -1000, "stimulus": "/static/audio/wordpool/TYPIST.wav", "key_press": -1, "type": "PRES_AUD", "word": "typist", "wordID": 1531, "conditions": [18, 1200, "a", 18000], "trial": 1, "serialpos": 10, "trial_type": "single-audio", "trial_index": 65, "time_elapsed": 416326, "internal_node_id": "0.0-47.0"}}, {"uniqueid": "MTK0280:3X65QVEQI1U17S5EA7E7PGEUB6OLCK", "current_trial": 66, "dateTime": 1510692835119, "trialdata": {"rt": -1000, "stimulus": "/static/audio/wordpool/CLOCK.wav", "key_press": -1, "type": "PRES_AUD", "word": "clock", "wordID": 324, "conditions": [18, 1200, "a", 18000], "trial": 1, "serialpos": 11, "trial_type": "single-audio", "trial_index": 66, "time_elapsed": 418458, "internal_node_id": "0.0-48.0"}}, {"uniqueid": "MTK0280:3X65QVEQI1U17S5EA7E7PGEUB6OLCK", "current_trial": 67, "dateTime": 1510692837268, "trialdata": {"rt": -1000, "stimulus": "/static/audio/wordpool/TABLET.wav", "key_press": -1, "type": "PRES_AUD", "word": "tablet", "wordID": 1426, "conditions": [18, 1200, "a", 18000], "trial": 1, "serialpos": 12, "trial_type": "single-audio", "trial_index": 67, "time_elapsed": 420606, "internal_node_id": "0.0-49.0"}}, {"uniqueid": "MTK0280:3X65QVEQI1U17S5EA7E7PGEUB6OLCK", "current_trial": 68, "dateTime": 1510692839811, "trialdata": {"rt": -1000, "stimulus": "/static/audio/wordpool/UMPIRE.wav", "key_press": -1, "type": "PRES_AUD", "word": "umpire", "wordID": 1534, "conditions": [18, 1200, "a", 18000], "trial": 1, "serialpos": 13, "trial_type": "single-audio", "trial_index": 68, "time_elapsed": 423088, "internal_node_id": "0.0-50.0"}}, {"uniqueid": "MTK0280:3X65QVEQI1U17S5EA7E7PGEUB6OLCK", "current_trial": 69, "dateTime": 1510692842029, "trialdata": {"rt": -1000, "stimulus": "/static/audio/wordpool/KNIFE.wav", "key_press": -1, "type": "PRES_AUD", "word": "knife", "wordID": 784, "conditions": [18, 1200, "a", 18000], "trial": 1, "serialpos": 14, "trial_type": "single-audio", "trial_index": 69, "time_elapsed": 425368, "internal_node_id": "0.0-51.0"}}, {"uniqueid": "MTK0280:3X65QVEQI1U17S5EA7E7PGEUB6OLCK", "current_trial": 70, "dateTime": 1510692844359, "trialdata": {"rt": -1000, "stimulus": "/static/audio/wordpool/COUNTY.wav", "key_press": -1, "type": "PRES_AUD", "word": "county", "wordID": 388, "conditions": [18, 1200, "a", 18000], "trial": 1, "serialpos": 15, "trial_type": "single-audio", "trial_index": 70, "time_elapsed": 427697, "internal_node_id": "0.0-52.0"}}, {"uniqueid": "MTK0280:3X65QVEQI1U17S5EA7E7PGEUB6OLCK", "current_trial": 71, "dateTime": 1510692846677, "trialdata": {"rt": -1000, "stimulus": "/static/audio/wordpool/SLOPE.wav", "key_press": -1, "type": "PRES_AUD", "word": "slope", "wordID": 1327, "conditions": [18, 1200, "a", 18000], "trial": 1, "serialpos": 16, "trial_type": "single-audio", "trial_index": 71, "time_elapsed": 430016, "internal_node_id": "0.0-53.0"}}, {"uniqueid": "MTK0280:3X65QVEQI1U17S5EA7E7PGEUB6OLCK", "current_trial": 72, "dateTime": 1510692849058, "trialdata": {"rt": -1000, "stimulus": "/static/audio/wordpool/LODGE.wav", "key_press": -1, "type": "PRES_AUD", "word": "lodge", "wordID": 838, "conditions": [18, 1200, "a", 18000], "trial": 1, "serialpos": 17, "trial_type": "single-audio", "trial_index": 72, "time_elapsed": 432394, "internal_node_id": "0.0-54.0"}}, {"uniqueid": "MTK0280:3X65QVEQI1U17S5EA7E7PGEUB6OLCK", "current_trial": 73, "dateTime": 1510692850443, "trialdata": {"rt": -1, "stimulus": "", "key_press": -1, "type": "PRE_RECALL_DELAY", "trial_type": "single-stim", "trial_index": 73, "time_elapsed": 433782, "internal_node_id": "0.0-55.0-0.0"}}, {"uniqueid": "MTK0280:3X65QVEQI1U17S5EA7E7PGEUB6OLCK", "current_trial": 74, "dateTime": 1510692850947, "trialdata": {"rt": -1000, "stimulus": "/static/audio/400Hz.wav", "key_press": -1, "type": "PRE_RECALL_ALERT", "trial_type": "single-audio", "trial_index": 74, "time_elapsed": 434285, "internal_node_id": "0.0-56.0"}}, {"uniqueid": "MTK0280:3X65QVEQI1U17S5EA7E7PGEUB6OLCK", "current_trial": 75, "dateTime": 1510692911043, "trialdata": {"rt": [1539, 2558, 3513, 5481, 8193, 11437, 12883, 26661, 46432], "recwords": ["knife", "county", "slop", "slope", "lodge", "airplane", "snake", "paperclip", "clock"], "type": "FREE_RECALL", "conditions": [18, 1200, "a", 18000], "trial": 1, "trial_type": "free-recall", "trial_index": 75, "time_elapsed": 494366, "internal_node_id": "0.0-57.0-0.0"}}, {"uniqueid": "MTK0280:3X65QVEQI1U17S5EA7E7PGEUB6OLCK", "current_trial": 76, "dateTime": 1510692915463, "trialdata": {"rt": 2389, "key_press": 13, "type": "INSTRUCTIONS", "trial_type": "text", "trial_index": 76, "time_elapsed": 498777, "internal_node_id": "0.0-58.0"}}, {"uniqueid": "MTK0280:3X65QVEQI1U17S5EA7E7PGEUB6OLCK", "current_trial": 77, "dateTime": 1510692928551, "trialdata": {"rt": [6636, 6720], "responses": ["19", ""], "num1": [7, 6, 8], "num2": [3, 5, 2], "num3": [9, 8, 3], "type": "DISTRACTOR", "conditions": [24, 1600, "a", 12000], "trial": 2, "trial_type": "math-distractor", "trial_index": 77, "time_elapsed": 511890, "internal_node_id": "0.0-59.0"}}, {"uniqueid": "MTK0280:3X65QVEQI1U17S5EA7E7PGEUB6OLCK", "current_trial": 78, "dateTime": 1510692931724, "trialdata": {"rt": -1, "stimulus": "<p id=\"stim\">10</p>", "key_press": -1, "trial_type": "single-stim", "trial_index": 78, "time_elapsed": 515062, "internal_node_id": "0.0-60.0-0.0"}}, {"uniqueid": "MTK0280:3X65QVEQI1U17S5EA7E7PGEUB6OLCK", "current_trial": 79, "dateTime": 1510692932727, "trialdata": {"rt": -1, "stimulus": "<p id=\"stim\">9</p>", "key_press": -1, "trial_type": "single-stim", "trial_index": 79, "time_elapsed": 516066, "internal_node_id": "0.0-60.0-1.0"}}, {"uniqueid": "MTK0280:3X65QVEQI1U17S5EA7E7PGEUB6OLCK", "current_trial": 80, "dateTime": 1510692933732, "trialdata": {"rt": -1, "stimulus": "<p id=\"stim\">8</p>", "key_press": -1, "trial_type": "single-stim", "trial_index": 80, "time_elapsed": 517071, "internal_node_id": "0.0-60.0-2.0"}}, {"uniqueid": "MTK0280:3X65QVEQI1U17S5EA7E7PGEUB6OLCK", "current_trial": 81, "dateTime": 1510692934735, "trialdata": {"rt": -1, "stimulus": "<p id=\"stim\">7</p>", "key_press": -1, "trial_type": "single-stim", "trial_index": 81, "time_elapsed": 518073, "internal_node_id": "0.0-60.0-3.0"}}, {"uniqueid": "MTK0280:3X65QVEQI1U17S5EA7E7PGEUB6OLCK", "current_trial": 82, "dateTime": 1510692935738, "trialdata": {"rt": -1, "stimulus": "<p id=\"stim\">6</p>", "key_press": -1, "trial_type": "single-stim", "trial_index": 82, "time_elapsed": 519077, "internal_node_id": "0.0-60.0-4.0"}}, {"uniqueid": "MTK0280:3X65QVEQI1U17S5EA7E7PGEUB6OLCK", "current_trial": 83, "dateTime": 1510692936745, "trialdata": {"rt": -1, "stimulus": "<p id=\"stim\">5</p>", "key_press": -1, "trial_type": "single-stim", "trial_index": 83, "time_elapsed": 520083, "internal_node_id": "0.0-60.0-5.0"}}, {"uniqueid": "MTK0280:3X65QVEQI1U17S5EA7E7PGEUB6OLCK", "current_trial": 84, "dateTime": 1510692937749, "trialdata": {"rt": -1, "stimulus": "<p id=\"stim\">4</p>", "key_press": -1, "trial_type": "single-stim", "trial_index": 84, "time_elapsed": 521088, "internal_node_id": "0.0-60.0-6.0"}}, {"uniqueid": "MTK0280:3X65QVEQI1U17S5EA7E7PGEUB6OLCK", "current_trial": 85, "dateTime": 1510692938752, "trialdata": {"rt": -1, "stimulus": "<p id=\"stim\">3</p>", "key_press": -1, "trial_type": "single-stim", "trial_index": 85, "time_elapsed": 522091, "internal_node_id": "0.0-60.0-7.0"}}, {"uniqueid": "MTK0280:3X65QVEQI1U17S5EA7E7PGEUB6OLCK", "current_trial": 86, "dateTime": 1510692939755, "trialdata": {"rt": -1, "stimulus": "<p id=\"stim\">2</p>", "key_press": -1, "trial_type": "single-stim", "trial_index": 86, "time_elapsed": 523094, "internal_node_id": "0.0-60.0-8.0"}}, {"uniqueid": "MTK0280:3X65QVEQI1U17S5EA7E7PGEUB6OLCK", "current_trial": 87, "dateTime": 1510692940763, "trialdata": {"rt": -1, "stimulus": "<p id=\"stim\">1</p>", "key_press": -1, "trial_type": "single-stim", "trial_index": 87, "time_elapsed": 524102, "internal_node_id": "0.0-60.0-9.0"}}, {"uniqueid": "MTK0280:3X65QVEQI1U17S5EA7E7PGEUB6OLCK", "current_trial": 88, "dateTime": 1510692942366, "trialdata": {"rt": -1, "stimulus": "<p id=\"stim\">+</p>", "key_press": -1, "type": "FIXATION", "trial_type": "single-stim", "trial_index": 88, "time_elapsed": 525705, "internal_node_id": "0.0-61.0-0.0"}}, {"uniqueid": "MTK0280:3X65QVEQI1U17S5EA7E7PGEUB6OLCK", "current_trial": 89, "dateTime": 1510692944821, "trialdata": {"rt": -1000, "stimulus": "/static/audio/wordpool/STUDENT.wav", "key_press": -1, "type": "PRES_AUD", "word": "student", "wordID": 1394, "conditions": [24, 1600, "a", 12000], "trial": 2, "serialpos": 0, "trial_type": "single-audio", "trial_index": 89, "time_elapsed": 528159, "internal_node_id": "0.0-62.0"}}, {"uniqueid": "MTK0280:3X65QVEQI1U17S5EA7E7PGEUB6OLCK", "current_trial": 90, "dateTime": 1510692947534, "trialdata": {"rt": -1000, "stimulus": "/static/audio/wordpool/DORM.wav", "key_press": -1, "type": "PRES_AUD", "word": "dorm", "wordID": 487, "conditions": [24, 1600, "a", 12000], "trial": 2, "serialpos": 1, "trial_type": "single-audio", "trial_index": 90, "time_elapsed": 530873, "internal_node_id": "0.0-63.0"}}, {"uniqueid": "MTK0280:3X65QVEQI1U17S5EA7E7PGEUB6OLCK", "current_trial": 91, "dateTime": 1510692950256, "trialdata": {"rt": -1000, "stimulus": "/static/audio/wordpool/LETTUCE.wav", "key_press": -1, "type": "PRES_AUD", "word": "lettuce", "wordID": 813, "conditions": [24, 1600, "a", 12000], "trial": 2, "serialpos": 2, "trial_type": "single-audio", "trial_index": 91, "time_elapsed": 533595, "internal_node_id": "0.0-64.0"}}, {"uniqueid": "MTK0280:3X65QVEQI1U17S5EA7E7PGEUB6OLCK", "current_trial": 92, "dateTime": 1510692952660, "trialdata": {"rt": -1000, "stimulus": "/static/audio/wordpool/ROCKET.wav", "key_press": -1, "type": "PRES_AUD", "word": "rocket", "wordID": 1201, "conditions": [24, 1600, "a", 12000], "trial": 2, "serialpos": 3, "trial_type": "single-audio", "trial_index": 92, "time_elapsed": 535999, "internal_node_id": "0.0-65.0"}}, {"uniqueid": "MTK0280:3X65QVEQI1U17S5EA7E7PGEUB6OLCK", "current_trial": 93, "dateTime": 1510692955453, "trialdata": {"rt": -1000, "stimulus": "/static/audio/wordpool/SWAMP.wav", "key_press": -1, "type": "PRES_AUD", "word": "swamp", "wordID": 1415, "conditions": [24, 1600, "a", 12000], "trial": 2, "serialpos": 4, "trial_type": "single-audio", "trial_index": 93, "time_elapsed": 538788, "internal_node_id": "0.0-66.0"}}, {"uniqueid": "MTK0280:3X65QVEQI1U17S5EA7E7PGEUB6OLCK", "current_trial": 94, "dateTime": 1510692958207, "trialdata": {"rt": -1000, "stimulus": "/static/audio/wordpool/WAITRESS.wav", "key_press": -1, "type": "PRES_AUD", "word": "waitress", "wordID": 1580, "conditions": [24, 1600, "a", 12000], "trial": 2, "serialpos": 5, "trial_type": "single-audio", "trial_index": 94, "time_elapsed": 541546, "internal_node_id": "0.0-67.0"}}, {"uniqueid": "MTK0280:3X65QVEQI1U17S5EA7E7PGEUB6OLCK", "current_trial": 95, "dateTime": 1510692960901, "trialdata": {"rt": -1000, "stimulus": "/static/audio/wordpool/GALLON.wav", "key_press": -1, "type": "PRES_AUD", "word": "gallon", "wordID": 617, "conditions": [24, 1600, "a", 12000], "trial": 2, "serialpos": 6, "trial_type": "single-audio", "trial_index": 95, "time_elapsed": 544240, "internal_node_id": "0.0-68.0"}}, {"uniqueid": "MTK0280:3X65QVEQI1U17S5EA7E7PGEUB6OLCK", "current_trial": 96, "dateTime": 1510692963587, "trialdata": {"rt": -1000, "stimulus": "/static/audio/wordpool/HORNET.wav", "key_press": -1, "type": "PRES_AUD", "word": "hornet", "wordID": 717, "conditions": [24, 1600, "a", 12000], "trial": 2, "serialpos": 7, "trial_type": "single-audio", "trial_index": 96, "time_elapsed": 546926, "internal_node_id": "0.0-69.0"}}, {"uniqueid": "MTK0280:3X65QVEQI1U17S5EA7E7PGEUB6OLCK", "current_trial": 97, "dateTime": 1510692966396, "trialdata": {"rt": -1000, "stimulus": "/static/audio/wordpool/PARSLEY.wav", "key_press": -1, "type": "PRES_AUD", "word": "parsley", "wordID": 1015, "conditions": [24, 1600, "a", 12000], "trial": 2, "serialpos": 8, "trial_type": "single-audio", "trial_index": 97, "time_elapsed": 549734, "internal_node_id": "0.0-70.0"}}, {"uniqueid": "MTK0280:3X65QVEQI1U17S5EA7E7PGEUB6OLCK", "current_trial": 98, "dateTime": 1510692969174, "trialdata": {"rt": -1000, "stimulus": "/static/audio/wordpool/SADDLE.wav", "key_press": -1, "type": "PRES_AUD", "word": "saddle", "wordID": 1220, "conditions": [24, 1600, "a", 12000], "trial": 2, "serialpos": 9, "trial_type": "single-audio", "trial_index": 98, "time_elapsed": 552512, "internal_node_id": "0.0-71.0"}}, {"uniqueid": "MTK0280:3X65QVEQI1U17S5EA7E7PGEUB6OLCK", "current_trial": 99, "dateTime": 1510692971753, "trialdata": {"rt": -1000, "stimulus": "/static/audio/wordpool/SPIDER.wav", "key_press": -1, "type": "PRES_AUD", "word": "spider", "wordID": 1350, "conditions": [24, 1600, "a", 12000], "trial": 2, "serialpos": 10, "trial_type": "single-audio", "trial_index": 99, "time_elapsed": 555092, "internal_node_id": "0.0-72.0"}}, {"uniqueid": "MTK0280:3X65QVEQI1U17S5EA7E7PGEUB6OLCK", "current_trial": 100, "dateTime": 1510692974433, "trialdata": {"rt": -1000, "stimulus": "/static/audio/wordpool/YARN.wav", "key_press": -1, "type": "PRES_AUD", "word": "yarn", "wordID": 1630, "conditions": [24, 1600, "a", 12000], "trial": 2, "serialpos": 11, "trial_type": "single-audio", "trial_index": 100, "time_elapsed": 557772, "internal_node_id": "0.0-73.0"}}, {"uniqueid": "MTK0280:3X65QVEQI1U17S5EA7E7PGEUB6OLCK", "current_trial": 101, "dateTime": 1510692976860, "trialdata": {"rt": -1000, "stimulus": "/static/audio/wordpool/POET.wav", "key_press": -1, "type": "PRES_AUD", "word": "poet", "wordID": 1094, "conditions": [24, 1600, "a", 12000], "trial": 2, "serialpos": 12, "trial_type": "single-audio", "trial_index": 101, "time_elapsed": 560199, "internal_node_id": "0.0-74.0"}}, {"uniqueid": "MTK0280:3X65QVEQI1U17S5EA7E7PGEUB6OLCK", "current_trial": 102, "dateTime": 1510692979581, "trialdata": {"rt": -1000, "stimulus": "/static/audio/wordpool/CRAB.wav", "key_press": -1, "type": "PRES_AUD", "word": "crab", "wordID": 396, "conditions": [24, 1600, "a", 12000], "trial": 2, "serialpos": 13, "trial_type": "single-audio", "trial_index": 102, "time_elapsed": 562920, "internal_node_id": "0.0-75.0"}}, {"uniqueid": "MTK0280:3X65QVEQI1U17S5EA7E7PGEUB6OLCK", "current_trial": 103, "dateTime": 1510692982113, "trialdata": {"rt": -1000, "stimulus": "/static/audio/wordpool/FLASK.wav", "key_press": -1, "type": "PRES_AUD", "word": "flask", "wordID": 575, "conditions": [24, 1600, "a", 12000], "trial": 2, "serialpos": 14, "trial_type": "single-audio", "trial_index": 103, "time_elapsed": 565447, "internal_node_id": "0.0-76.0"}}, {"uniqueid": "MTK0280:3X65QVEQI1U17S5EA7E7PGEUB6OLCK", "current_trial": 104, "dateTime": 1510692984908, "trialdata": {"rt": -1000, "stimulus": "/static/audio/wordpool/BURGLAR.wav", "key_press": -1, "type": "PRES_AUD", "word": "burglar", "wordID": 199, "conditions": [24, 1600, "a", 12000], "trial": 2, "serialpos": 15, "trial_type": "single-audio", "trial_index": 104, "time_elapsed": 568247, "internal_node_id": "0.0-77.0"}}, {"uniqueid": "MTK0280:3X65QVEQI1U17S5EA7E7PGEUB6OLCK", "current_trial": 105, "dateTime": 1510692987401, "trialdata": {"rt": -1000, "stimulus": "/static/audio/wordpool/COD.wav", "key_press": -1, "type": "PRES_AUD", "word": "cod", "wordID": 339, "conditions": [24, 1600, "a", 12000], "trial": 2, "serialpos": 16, "trial_type": "single-audio", "trial_index": 105, "time_elapsed": 570739, "internal_node_id": "0.0-78.0"}}, {"uniqueid": "MTK0280:3X65QVEQI1U17S5EA7E7PGEUB6OLCK", "current_trial": 106, "dateTime": 1510692989919, "trialdata": {"rt": -1000, "stimulus": "/static/audio/wordpool/FOX.wav", "key_press": -1, "type": "PRES_AUD", "word": "fox", "wordID": 597, "conditions": [24, 1600, "a", 12000], "trial": 2, "serialpos": 17, "trial_type": "single-audio", "trial_index": 106, "time_elapsed": 573258, "internal_node_id": "0.0-79.0"}}, {"uniqueid": "MTK0280:3X65QVEQI1U17S5EA7E7PGEUB6OLCK", "current_trial": 107, "dateTime": 1510692992832, "trialdata": {"rt": -1000, "stimulus": "/static/audio/wordpool/ROOSTER.wav", "key_press": -1, "type": "PRES_AUD", "word": "rooster", "wordID": 1208, "conditions": [24, 1600, "a", 12000], "trial": 2, "serialpos": 18, "trial_type": "single-audio", "trial_index": 107, "time_elapsed": 576171, "internal_node_id": "0.0-80.0"}}, {"uniqueid": "MTK0280:3X65QVEQI1U17S5EA7E7PGEUB6OLCK", "current_trial": 108, "dateTime": 1510692995440, "trialdata": {"rt": -1000, "stimulus": "/static/audio/wordpool/HUMAN.wav", "key_press": -1, "type": "PRES_AUD", "word": "human", "wordID": 725, "conditions": [24, 1600, "a", 12000], "trial": 2, "serialpos": 19, "trial_type": "single-audio", "trial_index": 108, "time_elapsed": 578778, "internal_node_id": "0.0-81.0"}}, {"uniqueid": "MTK0280:3X65QVEQI1U17S5EA7E7PGEUB6OLCK", "current_trial": 109, "dateTime": 1510692997959, "trialdata": {"rt": -1000, "stimulus": "/static/audio/wordpool/RECORD.wav", "key_press": -1, "type": "PRES_AUD", "word": "record", "wordID": 1175, "conditions": [24, 1600, "a", 12000], "trial": 2, "serialpos": 20, "trial_type": "single-audio", "trial_index": 109, "time_elapsed": 581298, "internal_node_id": "0.0-82.0"}}, {"uniqueid": "MTK0280:3X65QVEQI1U17S5EA7E7PGEUB6OLCK", "current_trial": 110, "dateTime": 1510693000603, "trialdata": {"rt": -1000, "stimulus": "/static/audio/wordpool/QUARTER.wav", "key_press": -1, "type": "PRES_AUD", "word": "quarter", "wordID": 1147, "conditions": [24, 1600, "a", 12000], "trial": 2, "serialpos": 21, "trial_type": "single-audio", "trial_index": 110, "time_elapsed": 583942, "internal_node_id": "0.0-83.0"}}, {"uniqueid": "MTK0280:3X65QVEQI1U17S5EA7E7PGEUB6OLCK", "current_trial": 111, "dateTime": 1510693003211, "trialdata": {"rt": -1000, "stimulus": "/static/audio/wordpool/MOP.wav", "key_press": -1, "type": "PRES_AUD", "word": "mop", "wordID": 915, "conditions": [24, 1600, "a", 12000], "trial": 2, "serialpos": 22, "trial_type": "single-audio", "trial_index": 111, "time_elapsed": 586548, "internal_node_id": "0.0-84.0"}}, {"uniqueid": "MTK0280:3X65QVEQI1U17S5EA7E7PGEUB6OLCK", "current_trial": 112, "dateTime": 1510693005983, "trialdata": {"rt": -1000, "stimulus": "/static/audio/wordpool/WOMAN.wav", "key_press": -1, "type": "PRES_AUD", "word": "woman", "wordID": 1619, "conditions": [24, 1600, "a", 12000], "trial": 2, "serialpos": 23, "trial_type": "single-audio", "trial_index": 112, "time_elapsed": 589322, "internal_node_id": "0.0-85.0"}}, {"uniqueid": "MTK0280:3X65QVEQI1U17S5EA7E7PGEUB6OLCK", "current_trial": 113, "dateTime": 1510693007265, "trialdata": {"rt": -1, "stimulus": "", "key_press": -1, "type": "PRE_RECALL_DELAY", "trial_type": "single-stim", "trial_index": 113, "time_elapsed": 590604, "internal_node_id": "0.0-86.0-0.0"}}, {"uniqueid": "MTK0280:3X65QVEQI1U17S5EA7E7PGEUB6OLCK", "current_trial": 114, "dateTime": 1510693007769, "trialdata": {"rt": -1000, "stimulus": "/static/audio/400Hz.wav", "key_press": -1, "type": "PRE_RECALL_ALERT", "trial_type": "single-audio", "trial_index": 114, "time_elapsed": 591108, "internal_node_id": "0.0-87.0"}}, {"uniqueid": "MTK0280:3X65QVEQI1U17S5EA7E7PGEUB6OLCK", "current_trial": 115, "dateTime": 1510693067796, "trialdata": {"rt": [3177, 4730, 6137, 7685, 9070, 11517, 16219, 18107, 20158, 21833, 24521, 27485, 28919, 32645, 34546, 36891, 38188, 40555], "recwords": ["swamp", "student", "dorm", "waitress", "gallon", "hornet", "parsley", "saddle", "yarn", "poet", "spider", "flask", "fox", "rooster", "record", "mop", "woman", "human"], "type": "FREE_RECALL", "conditions": [24, 1600, "a", 12000], "trial": 2, "trial_type": "free-recall", "trial_index": 115, "time_elapsed": 651120, "internal_node_id": "0.0-88.0-0.0"}}, {"uniqueid": "MTK0280:3X65QVEQI1U17S5EA7E7PGEUB6OLCK", "current_trial": 116, "dateTime": 1510693071145, "trialdata": {"rt": 1346, "key_press": 13, "type": "INSTRUCTIONS", "trial_type": "text", "trial_index": 116, "time_elapsed": 654483, "internal_node_id": "0.0-89.0"}}, {"uniqueid": "MTK0280:3X65QVEQI1U17S5EA7E7PGEUB6OLCK", "current_trial": 117, "dateTime": 1510693097158, "trialdata": {"rt": [3576, 7895, 12492, 16441, 20852], "responses": ["19", "24", "9", "15", "19"], "num1": [4, 9, 3, 2, 9, 9], "num2": [9, 9, 4, 9, 8, 2], "num3": [6, 6, 2, 4, 2, 5], "type": "DISTRACTOR", "conditions": [12, 800, "a", 24000], "trial": 3, "trial_type": "math-distractor", "trial_index": 117, "time_elapsed": 680496, "internal_node_id": "0.0-90.0"}}, {"uniqueid": "MTK0280:3X65QVEQI1U17S5EA7E7PGEUB6OLCK", "current_trial": 118, "dateTime": 1510693100186, "trialdata": {"rt": -1, "stimulus": "<p id=\"stim\">10</p>", "key_press": -1, "trial_type": "single-stim", "trial_index": 118, "time_elapsed": 683524, "internal_node_id": "0.0-91.0-0.0"}}, {"uniqueid": "MTK0280:3X65QVEQI1U17S5EA7E7PGEUB6OLCK", "current_trial": 119, "dateTime": 1510693101326, "trialdata": {"rt": -1, "stimulus": "<p id=\"stim\">9</p>", "key_press": -1, "trial_type": "single-stim", "trial_index": 119, "time_elapsed": 684665, "internal_node_id": "0.0-91.0-1.0"}}, {"uniqueid": "MTK0280:3X65QVEQI1U17S5EA7E7PGEUB6OLCK", "current_trial": 120, "dateTime": 1510693102332, "trialdata": {"rt": -1, "stimulus": "<p id=\"stim\">8</p>", "key_press": -1, "trial_type": "single-stim", "trial_index": 120, "time_elapsed": 685670, "internal_node_id": "0.0-91.0-2.0"}}, {"uniqueid": "MTK0280:3X65QVEQI1U17S5EA7E7PGEUB6OLCK", "current_trial": 121, "dateTime": 1510693103360, "trialdata": {"rt": -1, "stimulus": "<p id=\"stim\">7</p>", "key_press": -1, "trial_type": "single-stim", "trial_index": 121, "time_elapsed": 686699, "internal_node_id": "0.0-91.0-3.0"}}, {"uniqueid": "MTK0280:3X65QVEQI1U17S5EA7E7PGEUB6OLCK", "current_trial": 122, "dateTime": 1510693104366, "trialdata": {"rt": -1, "stimulus": "<p id=\"stim\">6</p>", "key_press": -1, "trial_type": "single-stim", "trial_index": 122, "time_elapsed": 687705, "internal_node_id": "0.0-91.0-4.0"}}, {"uniqueid": "MTK0280:3X65QVEQI1U17S5EA7E7PGEUB6OLCK", "current_trial": 123, "dateTime": 1510693105694, "trialdata": {"rt": -1, "stimulus": "<p id=\"stim\">5</p>", "key_press": -1, "trial_type": "single-stim", "trial_index": 123, "time_elapsed": 689033, "internal_node_id": "0.0-91.0-5.0"}}, {"uniqueid": "MTK0280:3X65QVEQI1U17S5EA7E7PGEUB6OLCK", "current_trial": 124, "dateTime": 1510693106713, "trialdata": {"rt": -1, "stimulus": "<p id=\"stim\">4</p>", "key_press": -1, "trial_type": "single-stim", "trial_index": 124, "time_elapsed": 690051, "internal_node_id": "0.0-91.0-6.0"}}, {"uniqueid": "MTK0280:3X65QVEQI1U17S5EA7E7PGEUB6OLCK", "current_trial": 125, "dateTime": 1510693107737, "trialdata": {"rt": -1, "stimulus": "<p id=\"stim\">3</p>", "key_press": -1, "trial_type": "single-stim", "trial_index": 125, "time_elapsed": 691076, "internal_node_id": "0.0-91.0-7.0"}}, {"uniqueid": "MTK0280:3X65QVEQI1U17S5EA7E7PGEUB6OLCK", "current_trial": 126, "dateTime": 1510693108742, "trialdata": {"rt": -1, "stimulus": "<p id=\"stim\">2</p>", "key_press": -1, "trial_type": "single-stim", "trial_index": 126, "time_elapsed": 692080, "internal_node_id": "0.0-91.0-8.0"}}, {"uniqueid": "MTK0280:3X65QVEQI1U17S5EA7E7PGEUB6OLCK", "current_trial": 127, "dateTime": 1510693109746, "trialdata": {"rt": -1, "stimulus": "<p id=\"stim\">1</p>", "key_press": -1, "trial_type": "single-stim", "trial_index": 127, "time_elapsed": 693085, "internal_node_id": "0.0-91.0-9.0"}}, {"uniqueid": "MTK0280:3X65QVEQI1U17S5EA7E7PGEUB6OLCK", "current_trial": 128, "dateTime": 1510693111252, "trialdata": {"rt": -1, "stimulus": "<p id=\"stim\">+</p>", "key_press": -1, "type": "FIXATION", "trial_type": "single-stim", "trial_index": 128, "time_elapsed": 694591, "internal_node_id": "0.0-92.0-0.0"}}, {"uniqueid": "MTK0280:3X65QVEQI1U17S5EA7E7PGEUB6OLCK", "current_trial": 129, "dateTime": 1510693113326, "trialdata": {"rt": -1000, "stimulus": "/static/audio/wordpool/STREAM.wav", "key_press": -1, "type": "PRES_AUD", "word": "stream", "wordID": 1391, "conditions": [12, 800, "a", 24000], "trial": 3, "serialpos": 0, "trial_type": "single-audio", "trial_index": 129, "time_elapsed": 696664, "internal_node_id": "0.0-93.0"}}, {"uniqueid": "MTK0280:3X65QVEQI1U17S5EA7E7PGEUB6OLCK", "current_trial": 130, "dateTime": 1510693115303, "trialdata": {"rt": -1000, "stimulus": "/static/audio/wordpool/MAILMAN.wav", "key_press": -1, "type": "PRES_AUD", "word": "mailman", "wordID": 857, "conditions": [12, 800, "a", 24000], "trial": 3, "serialpos": 1, "trial_type": "single-audio", "trial_index": 130, "time_elapsed": 698642, "internal_node_id": "0.0-94.0"}}, {"uniqueid": "MTK0280:3X65QVEQI1U17S5EA7E7PGEUB6OLCK", "current_trial": 131, "dateTime": 1510693116924, "trialdata": {"rt": -1000, "stimulus": "/static/audio/wordpool/GOBLIN.wav", "key_press": -1, "type": "PRES_AUD", "word": "goblin", "wordID": 644, "conditions": [12, 800, "a", 24000], "trial": 3, "serialpos": 2, "trial_type": "single-audio", "trial_index": 131, "time_elapsed": 700263, "internal_node_id": "0.0-95.0"}}, {"uniqueid": "MTK0280:3X65QVEQI1U17S5EA7E7PGEUB6OLCK", "current_trial": 132, "dateTime": 1510693118764, "trialdata": {"rt": -1000, "stimulus": "/static/audio/wordpool/ROD.wav", "key_press": -1, "type": "PRES_AUD", "word": "rod", "wordID": 1202, "conditions": [12, 800, "a", 24000], "trial": 3, "serialpos": 3, "trial_type": "single-audio", "trial_index": 132, "time_elapsed": 702102, "internal_node_id": "0.0-96.0"}}, {"uniqueid": "MTK0280:3X65QVEQI1U17S5EA7E7PGEUB6OLCK", "current_trial": 133, "dateTime": 1510693120387, "trialdata": {"rt": -1000, "stimulus": "/static/audio/wordpool/SPOOL.wav", "key_press": -1, "type": "PRES_AUD", "word": "spool", "wordID": 1355, "conditions": [12, 800, "a", 24000], "trial": 3, "serialpos": 4, "trial_type": "single-audio", "trial_index": 133, "time_elapsed": 703726, "internal_node_id": "0.0-97.0"}}, {"uniqueid": "MTK0280:3X65QVEQI1U17S5EA7E7PGEUB6OLCK", "current_trial": 134, "dateTime": 1510693122137, "trialdata": {"rt": -1000, "stimulus": "/static/audio/wordpool/TRIBE.wav", "key_press": -1, "type": "PRES_AUD", "word": "tribe", "wordID": 1504, "conditions": [12, 800, "a", 24000], "trial": 3, "serialpos": 5, "trial_type": "single-audio", "trial_index": 134, "time_elapsed": 705475, "internal_node_id": "0.0-98.0"}}, {"uniqueid": "MTK0280:3X65QVEQI1U17S5EA7E7PGEUB6OLCK", "current_trial": 135, "dateTime": 1510693123920, "trialdata": {"rt": -1000, "stimulus": "/static/audio/wordpool/TOMBSTONE.wav", "key_press": -1, "type": "PRES_AUD", "word": "tombstone", "wordID": 1477, "conditions": [12, 800, "a", 24000], "trial": 3, "serialpos": 6, "trial_type": "single-audio", "trial_index": 135, "time_elapsed": 707259, "internal_node_id": "0.0-99.0"}}, {"uniqueid": "MTK0280:3X65QVEQI1U17S5EA7E7PGEUB6OLCK", "current_trial": 136, "dateTime": 1510693125712, "trialdata": {"rt": -1000, "stimulus": "/static/audio/wordpool/CRIB.wav", "key_press": -1, "type": "PRES_AUD", "word": "crib", "wordID": 406, "conditions": [12, 800, "a", 24000], "trial": 3, "serialpos": 7, "trial_type": "single-audio", "trial_index": 136, "time_elapsed": 709051, "internal_node_id": "0.0-100.0"}}, {"uniqueid": "MTK0280:3X65QVEQI1U17S5EA7E7PGEUB6OLCK", "current_trial": 137, "dateTime": 1510693127509, "trialdata": {"rt": -1000, "stimulus": "/static/audio/wordpool/BATHTUB.wav", "key_press": -1, "type": "PRES_AUD", "word": "bathtub", "wordID": 99, "conditions": [12, 800, "a", 24000], "trial": 3, "serialpos": 8, "trial_type": "single-audio", "trial_index": 137, "time_elapsed": 710847, "internal_node_id": "0.0-101.0"}}, {"uniqueid": "MTK0280:3X65QVEQI1U17S5EA7E7PGEUB6OLCK", "current_trial": 138, "dateTime": 1510693129275, "trialdata": {"rt": -1000, "stimulus": "/static/audio/wordpool/ROBIN.wav", "key_press": -1, "type": "PRES_AUD", "word": "robin", "wordID": 1198, "conditions": [12, 800, "a", 24000], "trial": 3, "serialpos": 9, "trial_type": "single-audio", "trial_index": 138, "time_elapsed": 712613, "internal_node_id": "0.0-102.0"}}, {"uniqueid": "MTK0280:3X65QVEQI1U17S5EA7E7PGEUB6OLCK", "current_trial": 139, "dateTime": 1510693131160, "trialdata": {"rt": -1000, "stimulus": "/static/audio/wordpool/MATTRESS.wav", "key_press": -1, "type": "PRES_AUD", "word": "mattress", "wordID": 878, "conditions": [12, 800, "a", 24000], "trial": 3, "serialpos": 10, "trial_type": "single-audio", "trial_index": 139, "time_elapsed": 714499, "internal_node_id": "0.0-103.0"}}, {"uniqueid": "MTK0280:3X65QVEQI1U17S5EA7E7PGEUB6OLCK", "current_trial": 140, "dateTime": 1510693132948, "trialdata": {"rt": -1000, "stimulus": "/static/audio/wordpool/THIEF.wav", "key_press": -1, "type": "PRES_AUD", "word": "thief", "wordID": 1455, "conditions": [12, 800, "a", 24000], "trial": 3, "serialpos": 11, "trial_type": "single-audio", "trial_index": 140, "time_elapsed": 716286, "internal_node_id": "0.0-104.0"}}, {"uniqueid": "MTK0280:3X65QVEQI1U17S5EA7E7PGEUB6OLCK", "current_trial": 141, "dateTime": 1510693134256, "trialdata": {"rt": -1, "stimulus": "", "key_press": -1, "type": "PRE_RECALL_DELAY", "trial_type": "single-stim", "trial_index": 141, "time_elapsed": 717594, "internal_node_id": "0.0-105.0-0.0"}}, {"uniqueid": "MTK0280:3X65QVEQI1U17S5EA7E7PGEUB6OLCK", "current_trial": 142, "dateTime": 1510693134764, "trialdata": {"rt": -1000, "stimulus": "/static/audio/400Hz.wav", "key_press": -1, "type": "PRE_RECALL_ALERT", "trial_type": "single-audio", "trial_index": 142, "time_elapsed": 718103, "internal_node_id": "0.0-106.0"}}, {"uniqueid": "MTK0280:3X65QVEQI1U17S5EA7E7PGEUB6OLCK", "current_trial": 143, "dateTime": 1510693194791, "trialdata": {"rt": [6079, 7939, 9930, 11719, 13986, 16585, 21914, 25840, 29213], "recwords": ["stream", "mailman", "goblin", "spool", "tribe", "crib", "bathtub", "mattress", "theif"], "type": "FREE_RECALL", "conditions": [12, 800, "a", 24000], "trial": 3, "trial_type": "free-recall", "trial_index": 143, "time_elapsed": 778115, "internal_node_id": "0.0-107.0-0.0"}}, {"uniqueid": "MTK0280:3X65QVEQI1U17S5EA7E7PGEUB6OLCK", "current_trial": 144, "dateTime": 1510693200381, "trialdata": {"rt": 3582, "key_press": 13, "type": "INSTRUCTIONS", "trial_type": "text", "trial_index": 144, "time_elapsed": 783719, "internal_node_id": "0.0-108.0"}}, {"uniqueid": "MTK0280:3X65QVEQI1U17S5EA7E7PGEUB6OLCK", "current_trial": 145, "dateTime": 1510693214401, "trialdata": {"rt": [3611, 7562, 11307], "responses": ["16", "23", "13"], "num1": [7, 9, 6, 5], "num2": [1, 9, 6, 8], "num3": [8, 5, 1, 9], "type": "DISTRACTOR", "conditions": [12, 1600, "v", 12000], "trial": 4, "trial_type": "math-distractor", "trial_index": 145, "time_elapsed": 797740, "internal_node_id": "0.0-109.0"}}, {"uniqueid": "MTK0280:3X65QVEQI1U17S5EA7E7PGEUB6OLCK", "current_trial": 146, "dateTime": 1510693217408, "trialdata": {"rt": -1, "stimulus": "<p id=\"stim\">10</p>", "key_press": -1, "trial_type": "single-stim", "trial_index": 146, "time_elapsed": 800747, "internal_node_id": "0.0-110.0-0.0"}}, {"uniqueid": "MTK0280:3X65QVEQI1U17S5EA7E7PGEUB6OLCK", "current_trial": 147, "dateTime": 1510693218412, "trialdata": {"rt": -1, "stimulus": "<p id=\"stim\">9</p>", "key_press": -1, "trial_type": "single-stim", "trial_index": 147, "time_elapsed": 801751, "internal_node_id": "0.0-110.0-1.0"}}, {"uniqueid": "MTK0280:3X65QVEQI1U17S5EA7E7PGEUB6OLCK", "current_trial": 148, "dateTime": 1510693219662, "trialdata": {"rt": -1, "stimulus": "<p id=\"stim\">8</p>", "key_press": -1, "trial_type": "single-stim", "trial_index": 148, "time_elapsed": 803001, "internal_node_id": "0.0-110.0-2.0"}}, {"uniqueid": "MTK0280:3X65QVEQI1U17S5EA7E7PGEUB6OLCK", "current_trial": 149, "dateTime": 1510693220665, "trialdata": {"rt": -1, "stimulus": "<p id=\"stim\">7</p>", "key_press": -1, "trial_type": "single-stim", "trial_index": 149, "time_elapsed": 804004, "internal_node_id": "0.0-110.0-3.0"}}, {"uniqueid": "MTK0280:3X65QVEQI1U17S5EA7E7PGEUB6OLCK", "current_trial": 150, "dateTime": 1510693221670, "trialdata": {"rt": -1, "stimulus": "<p id=\"stim\">6</p>", "key_press": -1, "trial_type": "single-stim", "trial_index": 150, "time_elapsed": 805008, "internal_node_id": "0.0-110.0-4.0"}}, {"uniqueid": "MTK0280:3X65QVEQI1U17S5EA7E7PGEUB6OLCK", "current_trial": 151, "dateTime": 1510693222672, "trialdata": {"rt": -1, "stimulus": "<p id=\"stim\">5</p>", "key_press": -1, "trial_type": "single-stim", "trial_index": 151, "time_elapsed": 806011, "internal_node_id": "0.0-110.0-5.0"}}, {"uniqueid": "MTK0280:3X65QVEQI1U17S5EA7E7PGEUB6OLCK", "current_trial": 152, "dateTime": 1510693223683, "trialdata": {"rt": -1, "stimulus": "<p id=\"stim\">4</p>", "key_press": -1, "trial_type": "single-stim", "trial_index": 152, "time_elapsed": 807022, "internal_node_id": "0.0-110.0-6.0"}}, {"uniqueid": "MTK0280:3X65QVEQI1U17S5EA7E7PGEUB6OLCK", "current_trial": 153, "dateTime": 1510693224686, "trialdata": {"rt": -1, "stimulus": "<p id=\"stim\">3</p>", "key_press": -1, "trial_type": "single-stim", "trial_index": 153, "time_elapsed": 808025, "internal_node_id": "0.0-110.0-7.0"}}, {"uniqueid": "MTK0280:3X65QVEQI1U17S5EA7E7PGEUB6OLCK", "current_trial": 154, "dateTime": 1510693225712, "trialdata": {"rt": -1, "stimulus": "<p id=\"stim\">2</p>", "key_press": -1, "trial_type": "single-stim", "trial_index": 154, "time_elapsed": 809050, "internal_node_id": "0.0-110.0-8.0"}}, {"uniqueid": "MTK0280:3X65QVEQI1U17S5EA7E7PGEUB6OLCK", "current_trial": 155, "dateTime": 1510693226717, "trialdata": {"rt": -1, "stimulus": "<p id=\"stim\">1</p>", "key_press": -1, "trial_type": "single-stim", "trial_index": 155, "time_elapsed": 810056, "internal_node_id": "0.0-110.0-9.0"}}, {"uniqueid": "MTK0280:3X65QVEQI1U17S5EA7E7PGEUB6OLCK", "current_trial": 156, "dateTime": 1510693228238, "trialdata": {"rt": -1, "stimulus": "<p id=\"stim\">+</p>", "key_press": -1, "type": "FIXATION", "trial_type": "single-stim", "trial_index": 156, "time_elapsed": 811577, "internal_node_id": "0.0-111.0-0.0"}}, {"uniqueid": "MTK0280:3X65QVEQI1U17S5EA7E7PGEUB6OLCK", "current_trial": 157, "dateTime": 1510693230038, "trialdata": {"rt": -1, "stimulus": "<p id=\"stim\">WORKER</p>", "key_press": -1, "type": "PRES_VIS", "word": "worker", "wordID": 1620, "conditions": [12, 1600, "v", 12000], "trial": 4, "serialpos": 0, "trial_type": "single-stim", "trial_index": 157, "time_elapsed": 813376, "internal_node_id": "0.0-112.0"}}, {"uniqueid": "MTK0280:3X65QVEQI1U17S5EA7E7PGEUB6OLCK", "current_trial": 158, "dateTime": 1510693232544, "trialdata": {"rt": -1, "stimulus": "<p id=\"stim\">PANTHER</p>", "key_press": -1, "type": "PRES_VIS", "word": "panther", "wordID": 1008, "conditions": [12, 1600, "v", 12000], "trial": 4, "serialpos": 1, "trial_type": "single-stim", "trial_index": 158, "time_elapsed": 815882, "internal_node_id": "0.0-113.0"}}, {"uniqueid": "MTK0280:3X65QVEQI1U17S5EA7E7PGEUB6OLCK", "current_trial": 159, "dateTime": 1510693235200, "trialdata": {"rt": -1, "stimulus": "<p id=\"stim\">DANCER</p>", "key_press": -1, "type": "PRES_VIS", "word": "dancer", "wordID": 436, "conditions": [12, 1600, "v", 12000], "trial": 4, "serialpos": 2, "trial_type": "single-stim", "trial_index": 159, "time_elapsed": 818538, "internal_node_id": "0.0-114.0"}}, {"uniqueid": "MTK0280:3X65QVEQI1U17S5EA7E7PGEUB6OLCK", "current_trial": 160, "dateTime": 1510693237719, "trialdata": {"rt": -1, "stimulus": "<p id=\"stim\">WIDOW</p>", "key_press": -1, "type": "PRES_VIS", "word": "widow", "wordID": 1607, "conditions": [12, 1600, "v", 12000], "trial": 4, "serialpos": 3, "trial_type": "single-stim", "trial_index": 160, "time_elapsed": 821057, "internal_node_id": "0.0-115.0"}}, {"uniqueid": "MTK0280:3X65QVEQI1U17S5EA7E7PGEUB6OLCK", "current_trial": 161, "dateTime": 1510693240473, "trialdata": {"rt": -1, "stimulus": "<p id=\"stim\">FRECKLE</p>", "key_press": -1, "type": "PRES_VIS", "word": "freckle", "wordID": 601, "conditions": [12, 1600, "v", 12000], "trial": 4, "serialpos": 4, "trial_type": "single-stim", "trial_index": 161, "time_elapsed": 823812, "internal_node_id": "0.0-116.0"}}, {"uniqueid": "MTK0280:3X65QVEQI1U17S5EA7E7PGEUB6OLCK", "current_trial": 162, "dateTime": 1510693243219, "trialdata": {"rt": -1, "stimulus": "<p id=\"stim\">PIMPLE</p>", "key_press": -1, "type": "PRES_VIS", "word": "pimple", "wordID": 1070, "conditions": [12, 1600, "v", 12000], "trial": 4, "serialpos": 5, "trial_type": "single-stim", "trial_index": 162, "time_elapsed": 826558, "internal_node_id": "0.0-117.0"}}, {"uniqueid": "MTK0280:3X65QVEQI1U17S5EA7E7PGEUB6OLCK", "current_trial": 163, "dateTime": 1510693245841, "trialdata": {"rt": -1, "stimulus": "<p id=\"stim\">SNACK</p>", "key_press": -1, "type": "PRES_VIS", "word": "snack", "wordID": 1330, "conditions": [12, 1600, "v", 12000], "trial": 4, "serialpos": 6, "trial_type": "single-stim", "trial_index": 163, "time_elapsed": 829179, "internal_node_id": "0.0-118.0"}}, {"uniqueid": "MTK0280:3X65QVEQI1U17S5EA7E7PGEUB6OLCK", "current_trial": 164, "dateTime": 1510693248470, "trialdata": {"rt": -1, "stimulus": "<p id=\"stim\">PENGUIN</p>", "key_press": -1, "type": "PRES_VIS", "word": "penguin", "wordID": 1043, "conditions": [12, 1600, "v", 12000], "trial": 4, "serialpos": 7, "trial_type": "single-stim", "trial_index": 164, "time_elapsed": 831808, "internal_node_id": "0.0-119.0"}}, {"uniqueid": "MTK0280:3X65QVEQI1U17S5EA7E7PGEUB6OLCK", "current_trial": 165, "dateTime": 1510693250967, "trialdata": {"rt": -1, "stimulus": "<p id=\"stim\">DRESS</p>", "key_press": -1, "type": "PRES_VIS", "word": "dress", "wordID": 494, "conditions": [12, 1600, "v", 12000], "trial": 4, "serialpos": 8, "trial_type": "single-stim", "trial_index": 165, "time_elapsed": 834306, "internal_node_id": "0.0-120.0"}}, {"uniqueid": "MTK0280:3X65QVEQI1U17S5EA7E7PGEUB6OLCK", "current_trial": 166, "dateTime": 1510693253476, "trialdata": {"rt": -1, "stimulus": "<p id=\"stim\">MUFFIN</p>", "key_press": -1, "type": "PRES_VIS", "word": "muffin", "wordID": 928, "conditions": [12, 1600, "v", 12000], "trial": 4, "serialpos": 9, "trial_type": "single-stim", "trial_index": 166, "time_elapsed": 836814, "internal_node_id": "0.0-121.0"}}, {"uniqueid": "MTK0280:3X65QVEQI1U17S5EA7E7PGEUB6OLCK", "current_trial": 167, "dateTime": 1510693256113, "trialdata": {"rt": -1, "stimulus": "<p id=\"stim\">RUG</p>", "key_press": -1, "type": "PRES_VIS", "word": "rug", "wordID": 1214, "conditions": [12, 1600, "v", 12000], "trial": 4, "serialpos": 10, "trial_type": "single-stim", "trial_index": 167, "time_elapsed": 839452, "internal_node_id": "0.0-122.0"}}, {"uniqueid": "MTK0280:3X65QVEQI1U17S5EA7E7PGEUB6OLCK", "current_trial": 168, "dateTime": 1510693258637, "trialdata": {"rt": -1, "stimulus": "<p id=\"stim\">COCOON</p>", "key_press": -1, "type": "PRES_VIS", "word": "cocoon", "wordID": 338, "conditions": [12, 1600, "v", 12000], "trial": 4, "serialpos": 11, "trial_type": "single-stim", "trial_index": 168, "time_elapsed": 841976, "internal_node_id": "0.0-123.0"}}, {"uniqueid": "MTK0280:3X65QVEQI1U17S5EA7E7PGEUB6OLCK", "current_trial": 169, "dateTime": 1510693261015, "trialdata": {"rt": -1, "stimulus": "", "key_press": -1, "type": "PRE_RECALL_DELAY", "trial_type": "single-stim", "trial_index": 169, "time_elapsed": 844354, "internal_node_id": "0.0-124.0-0.0"}}, {"uniqueid": "MTK0280:3X65QVEQI1U17S5EA7E7PGEUB6OLCK", "current_trial": 170, "dateTime": 1510693261520, "trialdata": {"rt": -1000, "stimulus": "/static/audio/400Hz.wav", "key_press": -1, "type": "PRE_RECALL_ALERT", "trial_type": "single-audio", "trial_index": 170, "time_elapsed": 844858, "internal_node_id": "0.0-125.0"}}, {"uniqueid": "MTK0280:3X65QVEQI1U17S5EA7E7PGEUB6OLCK", "current_trial": 171, "dateTime": 1510693321553, "trialdata": {"rt": [3125, 5017, 7123, 9161, 10975, 12689, 14255, 15897, 21507, 23181, 51352, 56637], "recwords": ["worker", "panther", "widow", "pimple", "snack", "dancer", "dress", "muffin", "penguin", "rug", "freckle", "cocoon"], "type": "FREE_RECALL", "conditions": [12, 1600, "v", 12000], "trial": 4, "trial_type": "free-recall", "trial_index": 171, "time_elapsed": 904873, "internal_node_id": "0.0-126.0-0.0"}}, {"uniqueid": "MTK0280:3X65QVEQI1U17S5EA7E7PGEUB6OLCK", "current_trial": 172, "dateTime": 1510693324947, "trialdata": {"rt": 1389, "key_press": 13, "type": "INSTRUCTIONS", "trial_type": "text", "trial_index": 172, "time_elapsed": 908285, "internal_node_id": "0.0-127.0"}}, {"uniqueid": "MTK0280:3X65QVEQI1U17S5EA7E7PGEUB6OLCK", "current_trial": 173, "dateTime": 1510693338960, "trialdata": {"rt": [1926, 5353, 8600], "responses": ["6", "21", "13"], "num1": [4, 8, 1, 8], "num2": [1, 5, 6, 3], "num3": [1, 8, 6, 7], "type": "DISTRACTOR", "conditions": [24, 1600, "v", 12000], "trial": 5, "trial_type": "math-distractor", "trial_index": 173, "time_elapsed": 922298, "internal_node_id": "0.0-128.0"}}, {"uniqueid": "MTK0280:3X65QVEQI1U17S5EA7E7PGEUB6OLCK", "current_trial": 174, "dateTime": 1510693341964, "trialdata": {"rt": -1, "stimulus": "<p id=\"stim\">10</p>", "key_press": -1, "trial_type": "single-stim", "trial_index": 174, "time_elapsed": 925303, "internal_node_id": "0.0-129.0-0.0"}}, {"uniqueid": "MTK0280:3X65QVEQI1U17S5EA7E7PGEUB6OLCK", "current_trial": 175, "dateTime": 1510693342967, "trialdata": {"rt": -1, "stimulus": "<p id=\"stim\">9</p>", "key_press": -1, "trial_type": "single-stim", "trial_index": 175, "time_elapsed": 926306, "internal_node_id": "0.0-129.0-1.0"}}, {"uniqueid": "MTK0280:3X65QVEQI1U17S5EA7E7PGEUB6OLCK", "current_trial": 176, "dateTime": 1510693343970, "trialdata": {"rt": -1, "stimulus": "<p id=\"stim\">8</p>", "key_press": -1, "trial_type": "single-stim", "trial_index": 176, "time_elapsed": 927308, "internal_node_id": "0.0-129.0-2.0"}}, {"uniqueid": "MTK0280:3X65QVEQI1U17S5EA7E7PGEUB6OLCK", "current_trial": 177, "dateTime": 1510693344975, "trialdata": {"rt": -1, "stimulus": "<p id=\"stim\">7</p>", "key_press": -1, "trial_type": "single-stim", "trial_index": 177, "time_elapsed": 928313, "internal_node_id": "0.0-129.0-3.0"}}, {"uniqueid": "MTK0280:3X65QVEQI1U17S5EA7E7PGEUB6OLCK", "current_trial": 178, "dateTime": 1510693345994, "trialdata": {"rt": -1, "stimulus": "<p id=\"stim\">6</p>", "key_press": -1, "trial_type": "single-stim", "trial_index": 178, "time_elapsed": 929333, "internal_node_id": "0.0-129.0-4.0"}}, {"uniqueid": "MTK0280:3X65QVEQI1U17S5EA7E7PGEUB6OLCK", "current_trial": 179, "dateTime": 1510693346998, "trialdata": {"rt": -1, "stimulus": "<p id=\"stim\">5</p>", "key_press": -1, "trial_type": "single-stim", "trial_index": 179, "time_elapsed": 930337, "internal_node_id": "0.0-129.0-5.0"}}, {"uniqueid": "MTK0280:3X65QVEQI1U17S5EA7E7PGEUB6OLCK", "current_trial": 180, "dateTime": 1510693348002, "trialdata": {"rt": -1, "stimulus": "<p id=\"stim\">4</p>", "key_press": -1, "trial_type": "single-stim", "trial_index": 180, "time_elapsed": 931341, "internal_node_id": "0.0-129.0-6.0"}}, {"uniqueid": "MTK0280:3X65QVEQI1U17S5EA7E7PGEUB6OLCK", "current_trial": 181, "dateTime": 1510693349007, "trialdata": {"rt": -1, "stimulus": "<p id=\"stim\">3</p>", "key_press": -1, "trial_type": "single-stim", "trial_index": 181, "time_elapsed": 932345, "internal_node_id": "0.0-129.0-7.0"}}, {"uniqueid": "MTK0280:3X65QVEQI1U17S5EA7E7PGEUB6OLCK", "current_trial": 182, "dateTime": 1510693350077, "trialdata": {"rt": -1, "stimulus": "<p id=\"stim\">2</p>", "key_press": -1, "trial_type": "single-stim", "trial_index": 182, "time_elapsed": 933415, "internal_node_id": "0.0-129.0-8.0"}}, {"uniqueid": "MTK0280:3X65QVEQI1U17S5EA7E7PGEUB6OLCK", "current_trial": 183, "dateTime": 1510693351081, "trialdata": {"rt": -1, "stimulus": "<p id=\"stim\">1</p>", "key_press": -1, "trial_type": "single-stim", "trial_index": 183, "time_elapsed": 934419, "internal_node_id": "0.0-129.0-9.0"}}, {"uniqueid": "MTK0280:3X65QVEQI1U17S5EA7E7PGEUB6OLCK", "current_trial": 184, "dateTime": 1510693352583, "trialdata": {"rt": -1, "stimulus": "<p id=\"stim\">+</p>", "key_press": -1, "type": "FIXATION", "trial_type": "single-stim", "trial_index": 184, "time_elapsed": 935922, "internal_node_id": "0.0-130.0-0.0"}}, {"uniqueid": "MTK0280:3X65QVEQI1U17S5EA7E7PGEUB6OLCK", "current_trial": 185, "dateTime": 1510693354238, "trialdata": {"rt": -1, "stimulus": "<p id=\"stim\">SANDWICH</p>", "key_press": -1, "type": "PRES_VIS", "word": "sandwich", "wordID": 1231, "conditions": [24, 1600, "v", 12000], "trial": 5, "serialpos": 0, "trial_type": "single-stim", "trial_index": 185, "time_elapsed": 937577, "internal_node_id": "0.0-131.0"}}, {"uniqueid": "MTK0280:3X65QVEQI1U17S5EA7E7PGEUB6OLCK", "current_trial": 186, "dateTime": 1510693356870, "trialdata": {"rt": -1, "stimulus": "<p id=\"stim\">WARDROBE</p>", "key_press": -1, "type": "PRES_VIS", "word": "wardrobe", "wordID": 1586, "conditions": [24, 1600, "v", 12000], "trial": 5, "serialpos": 1, "trial_type": "single-stim", "trial_index": 186, "time_elapsed": 940209, "internal_node_id": "0.0-132.0"}}, {"uniqueid": "MTK0280:3X65QVEQI1U17S5EA7E7PGEUB6OLCK", "current_trial": 187, "dateTime": 1510693359564, "trialdata": {"rt": -1, "stimulus": "<p id=\"stim\">DASHBOARD</p>", "key_press": -1, "type": "PRES_VIS", "word": "dashboard", "wordID": 440, "conditions": [24, 1600, "v", 12000], "trial": 5, "serialpos": 2, "trial_type": "single-stim", "trial_index": 187, "time_elapsed": 942902, "internal_node_id": "0.0-133.0"}}, {"uniqueid": "MTK0280:3X65QVEQI1U17S5EA7E7PGEUB6OLCK", "current_trial": 188, "dateTime": 1510693362050, "trialdata": {"rt": -1, "stimulus": "<p id=\"stim\">GRAPE</p>", "key_press": -1, "type": "PRES_VIS", "word": "grape", "wordID": 653, "conditions": [24, 1600, "v", 12000], "trial": 5, "serialpos": 3, "trial_type": "single-stim", "trial_index": 188, "time_elapsed": 945388, "internal_node_id": "0.0-134.0"}}, {"uniqueid": "MTK0280:3X65QVEQI1U17S5EA7E7PGEUB6OLCK", "current_trial": 189, "dateTime": 1510693364832, "trialdata": {"rt": -1, "stimulus": "<p id=\"stim\">APPLE</p>", "key_press": -1, "type": "PRES_VIS", "word": "apple", "wordID": 32, "conditions": [24, 1600, "v", 12000], "trial": 5, "serialpos": 4, "trial_type": "single-stim", "trial_index": 189, "time_elapsed": 948171, "internal_node_id": "0.0-135.0"}}, {"uniqueid": "MTK0280:3X65QVEQI1U17S5EA7E7PGEUB6OLCK", "current_trial": 190, "dateTime": 1510693367309, "trialdata": {"rt": -1, "stimulus": "<p id=\"stim\">SUITCASE</p>", "key_press": -1, "type": "PRES_VIS", "word": "suitcase", "wordID": 1402, "conditions": [24, 1600, "v", 12000], "trial": 5, "serialpos": 5, "trial_type": "single-stim", "trial_index": 190, "time_elapsed": 950648, "internal_node_id": "0.0-136.0"}}, {"uniqueid": "MTK0280:3X65QVEQI1U17S5EA7E7PGEUB6OLCK", "current_trial": 191, "dateTime": 1510693369889, "trialdata": {"rt": -1, "stimulus": "<p id=\"stim\">KIDNEY</p>", "key_press": -1, "type": "PRES_VIS", "word": "kidney", "wordID": 775, "conditions": [24, 1600, "v", 12000], "trial": 5, "serialpos": 6, "trial_type": "single-stim", "trial_index": 191, "time_elapsed": 953228, "internal_node_id": "0.0-137.0"}}, {"uniqueid": "MTK0280:3X65QVEQI1U17S5EA7E7PGEUB6OLCK", "current_trial": 192, "dateTime": 1510693372686, "trialdata": {"rt": -1, "stimulus": "<p id=\"stim\">GUARD</p>", "key_press": -1, "type": "PRES_VIS", "word": "guard", "wordID": 666, "conditions": [24, 1600, "v", 12000], "trial": 5, "serialpos": 7, "trial_type": "single-stim", "trial_index": 192, "time_elapsed": 956024, "internal_node_id": "0.0-138.0"}}, {"uniqueid": "MTK0280:3X65QVEQI1U17S5EA7E7PGEUB6OLCK", "current_trial": 193, "dateTime": 1510693375158, "trialdata": {"rt": -1, "stimulus": "<p id=\"stim\">ARMY</p>", "key_press": -1, "type": "PRES_VIS", "word": "army", "wordID": 38, "conditions": [24, 1600, "v", 12000], "trial": 5, "serialpos": 8, "trial_type": "single-stim", "trial_index": 193, "time_elapsed": 958497, "internal_node_id": "0.0-139.0"}}, {"uniqueid": "MTK0280:3X65QVEQI1U17S5EA7E7PGEUB6OLCK", "current_trial": 194, "dateTime": 1510693377707, "trialdata": {"rt": -1, "stimulus": "<p id=\"stim\">HEART</p>", "key_press": -1, "type": "PRES_VIS", "word": "heart", "wordID": 696, "conditions": [24, 1600, "v", 12000], "trial": 5, "serialpos": 9, "trial_type": "single-stim", "trial_index": 194, "time_elapsed": 961046, "internal_node_id": "0.0-140.0"}}, {"uniqueid": "MTK0280:3X65QVEQI1U17S5EA7E7PGEUB6OLCK", "current_trial": 195, "dateTime": 1510693380225, "trialdata": {"rt": -1, "stimulus": "<p id=\"stim\">SUPPER</p>", "key_press": -1, "type": "PRES_VIS", "word": "supper", "wordID": 1410, "conditions": [24, 1600, "v", 12000], "trial": 5, "serialpos": 10, "trial_type": "single-stim", "trial_index": 195, "time_elapsed": 963563, "internal_node_id": "0.0-141.0"}}, {"uniqueid": "MTK0280:3X65QVEQI1U17S5EA7E7PGEUB6OLCK", "current_trial": 196, "dateTime": 1510693382773, "trialdata": {"rt": -1, "stimulus": "<p id=\"stim\">DOUGHNUT</p>", "key_press": -1, "type": "PRES_VIS", "word": "doughnut", "wordID": 489, "conditions": [24, 1600, "v", 12000], "trial": 5, "serialpos": 11, "trial_type": "single-stim", "trial_index": 196, "time_elapsed": 966112, "internal_node_id": "0.0-142.0"}}, {"uniqueid": "MTK0280:3X65QVEQI1U17S5EA7E7PGEUB6OLCK", "current_trial": 197, "dateTime": 1510693385528, "trialdata": {"rt": -1, "stimulus": "<p id=\"stim\">PIANO</p>", "key_press": -1, "type": "PRES_VIS", "word": "piano", "wordID": 1056, "conditions": [24, 1600, "v", 12000], "trial": 5, "serialpos": 12, "trial_type": "single-stim", "trial_index": 197, "time_elapsed": 968867, "internal_node_id": "0.0-143.0"}}, {"uniqueid": "MTK0280:3X65QVEQI1U17S5EA7E7PGEUB6OLCK", "current_trial": 198, "dateTime": 1510693388090, "trialdata": {"rt": -1, "stimulus": "<p id=\"stim\">BACKBONE</p>", "key_press": -1, "type": "PRES_VIS", "word": "backbone", "wordID": 65, "conditions": [24, 1600, "v", 12000], "trial": 5, "serialpos": 13, "trial_type": "single-stim", "trial_index": 198, "time_elapsed": 971427, "internal_node_id": "0.0-144.0"}}, {"uniqueid": "MTK0280:3X65QVEQI1U17S5EA7E7PGEUB6OLCK", "current_trial": 199, "dateTime": 1510693390588, "trialdata": {"rt": -1, "stimulus": "<p id=\"stim\">RAZOR</p>", "key_press": -1, "type": "PRES_VIS", "word": "razor", "wordID": 1170, "conditions": [24, 1600, "v", 12000], "trial": 5, "serialpos": 14, "trial_type": "single-stim", "trial_index": 199, "time_elapsed": 973927, "internal_node_id": "0.0-145.0"}}, {"uniqueid": "MTK0280:3X65QVEQI1U17S5EA7E7PGEUB6OLCK", "current_trial": 200, "dateTime": 1510693393165, "trialdata": {"rt": -1, "stimulus": "<p id=\"stim\">BLADE</p>", "key_press": -1, "type": "PRES_VIS", "word": "blade", "wordID": 133, "conditions": [24, 1600, "v", 12000], "trial": 5, "serialpos": 15, "trial_type": "single-stim", "trial_index": 200, "time_elapsed": 976504, "internal_node_id": "0.0-146.0"}}, {"uniqueid": "MTK0280:3X65QVEQI1U17S5EA7E7PGEUB6OLCK", "current_trial": 201, "dateTime": 1510693395798, "trialdata": {"rt": -1, "stimulus": "<p id=\"stim\">GARDEN</p>", "key_press": -1, "type": "PRES_VIS", "word": "garden", "wordID": 622, "conditions": [24, 1600, "v", 12000], "trial": 5, "serialpos": 16, "trial_type": "single-stim", "trial_index": 201, "time_elapsed": 979137, "internal_node_id": "0.0-147.0"}}, {"uniqueid": "MTK0280:3X65QVEQI1U17S5EA7E7PGEUB6OLCK", "current_trial": 202, "dateTime": 1510693398314, "trialdata": {"rt": -1, "stimulus": "<p id=\"stim\">TROMBONE</p>", "key_press": -1, "type": "PRES_VIS", "word": "trombone", "wordID": 1507, "conditions": [24, 1600, "v", 12000], "trial": 5, "serialpos": 17, "trial_type": "single-stim", "trial_index": 202, "time_elapsed": 981652, "internal_node_id": "0.0-148.0"}}, {"uniqueid": "MTK0280:3X65QVEQI1U17S5EA7E7PGEUB6OLCK", "current_trial": 203, "dateTime": 1510693401098, "trialdata": {"rt": -1, "stimulus": "<p id=\"stim\">COFFEE</p>", "key_press": -1, "type": "PRES_VIS", "word": "coffee", "wordID": 340, "conditions": [24, 1600, "v", 12000], "trial": 5, "serialpos": 18, "trial_type": "single-stim", "trial_index": 203, "time_elapsed": 984436, "internal_node_id": "0.0-149.0"}}, {"uniqueid": "MTK0280:3X65QVEQI1U17S5EA7E7PGEUB6OLCK", "current_trial": 204, "dateTime": 1510693404176, "trialdata": {"rt": -1, "stimulus": "<p id=\"stim\">CASKET</p>", "key_press": -1, "type": "PRES_VIS", "word": "casket", "wordID": 254, "conditions": [24, 1600, "v", 12000], "trial": 5, "serialpos": 19, "trial_type": "single-stim", "trial_index": 204, "time_elapsed": 987514, "internal_node_id": "0.0-150.0"}}, {"uniqueid": "MTK0280:3X65QVEQI1U17S5EA7E7PGEUB6OLCK", "current_trial": 205, "dateTime": 1510693406966, "trialdata": {"rt": -1, "stimulus": "<p id=\"stim\">EMPIRE</p>", "key_press": -1, "type": "PRES_VIS", "word": "empire", "wordID": 529, "conditions": [24, 1600, "v", 12000], "trial": 5, "serialpos": 20, "trial_type": "single-stim", "trial_index": 205, "time_elapsed": 990305, "internal_node_id": "0.0-151.0"}}, {"uniqueid": "MTK0280:3X65QVEQI1U17S5EA7E7PGEUB6OLCK", "current_trial": 206, "dateTime": 1510693409777, "trialdata": {"rt": -1, "stimulus": "<p id=\"stim\">HOSTESS</p>", "key_press": -1, "type": "PRES_VIS", "word": "hostess", "wordID": 722, "conditions": [24, 1600, "v", 12000], "trial": 5, "serialpos": 21, "trial_type": "single-stim", "trial_index": 206, "time_elapsed": 993115, "internal_node_id": "0.0-152.0"}}, {"uniqueid": "MTK0280:3X65QVEQI1U17S5EA7E7PGEUB6OLCK", "current_trial": 207, "dateTime": 1510693412638, "trialdata": {"rt": -1, "stimulus": "<p id=\"stim\">SCARECROW</p>", "key_press": -1, "type": "PRES_VIS", "word": "scarecrow", "wordID": 1244, "conditions": [24, 1600, "v", 12000], "trial": 5, "serialpos": 22, "trial_type": "single-stim", "trial_index": 207, "time_elapsed": 995977, "internal_node_id": "0.0-153.0"}}, {"uniqueid": "MTK0280:3X65QVEQI1U17S5EA7E7PGEUB6OLCK", "current_trial": 208, "dateTime": 1510693415341, "trialdata": {"rt": -1, "stimulus": "<p id=\"stim\">SKETCH</p>", "key_press": -1, "type": "PRES_VIS", "word": "sketch", "wordID": 1314, "conditions": [24, 1600, "v", 12000], "trial": 5, "serialpos": 23, "trial_type": "single-stim", "trial_index": 208, "time_elapsed": 998679, "internal_node_id": "0.0-154.0"}}, {"uniqueid": "MTK0280:3X65QVEQI1U17S5EA7E7PGEUB6OLCK", "current_trial": 209, "dateTime": 1510693417860, "trialdata": {"rt": -1, "stimulus": "", "key_press": -1, "type": "PRE_RECALL_DELAY", "trial_type": "single-stim", "trial_index": 209, "time_elapsed": 1001198, "internal_node_id": "0.0-155.0-0.0"}}, {"uniqueid": "MTK0280:3X65QVEQI1U17S5EA7E7PGEUB6OLCK", "current_trial": 210, "dateTime": 1510693418366, "trialdata": {"rt": -1000, "stimulus": "/static/audio/400Hz.wav", "key_press": -1, "type": "PRE_RECALL_ALERT", "trial_type": "single-audio", "trial_index": 210, "time_elapsed": 1001705, "internal_node_id": "0.0-156.0"}}, {"uniqueid": "MTK0280:3X65QVEQI1U17S5EA7E7PGEUB6OLCK", "current_trial": 211, "dateTime": 1510693478400, "trialdata": {"rt": [4752, 6661, 9221, 12700, 13977, 16124, 18671, 21779, 23888, 30894, 32137, 38716, 41514, 45529, 48233, 50809, 53910, 59129], "recwords": ["wardrobe", "dashboard", "sandwich", "apple", "grape", "kidney", "garden", "razor", "blade", "suitcase", "army", "blade", "piano", "coffee", "sketch", "trombone", "hostess", "supper"], "type": "FREE_RECALL", "conditions": [24, 1600, "v", 12000], "trial": 5, "trial_type": "free-recall", "trial_index": 211, "time_elapsed": 1061717, "internal_node_id": "0.0-157.0-0.0"}}, {"uniqueid": "MTK0280:3X65QVEQI1U17S5EA7E7PGEUB6OLCK", "current_trial": 212, "dateTime": 1510693484009, "trialdata": {"rt": 3605, "key_press": 13, "type": "INSTRUCTIONS", "trial_type": "text", "trial_index": 212, "time_elapsed": 1067348, "internal_node_id": "0.0-158.0"}}, {"uniqueid": "MTK0280:3X65QVEQI1U17S5EA7E7PGEUB6OLCK", "current_trial": 213, "dateTime": 1510693510051, "trialdata": {"rt": [2725, 10710, 14098, 16611, 19901, 23670], "responses": ["6", "21", "17", "10", "13", "17"], "num1": [4, 5, 7, 4, 4, 4, 7], "num2": [1, 9, 2, 1, 1, 5, 4], "num3": [1, 7, 8, 5, 8, 8, 4], "type": "DISTRACTOR", "conditions": [24, 1600, "v", 24000], "trial": 6, "trial_type": "math-distractor", "trial_index": 213, "time_elapsed": 1093390, "internal_node_id": "0.0-159.0"}}, {"uniqueid": "MTK0280:3X65QVEQI1U17S5EA7E7PGEUB6OLCK", "current_trial": 214, "dateTime": 1510693513127, "trialdata": {"rt": -1, "stimulus": "<p id=\"stim\">10</p>", "key_press": -1, "trial_type": "single-stim", "trial_index": 214, "time_elapsed": 1096465, "internal_node_id": "0.0-160.0-0.0"}}, {"uniqueid": "MTK0280:3X65QVEQI1U17S5EA7E7PGEUB6OLCK", "current_trial": 215, "dateTime": 1510693514535, "trialdata": {"rt": -1, "stimulus": "<p id=\"stim\">9</p>", "key_press": -1, "trial_type": "single-stim", "trial_index": 215, "time_elapsed": 1097874, "internal_node_id": "0.0-160.0-1.0"}}, {"uniqueid": "MTK0280:3X65QVEQI1U17S5EA7E7PGEUB6OLCK", "current_trial": 216, "dateTime": 1510693515538, "trialdata": {"rt": -1, "stimulus": "<p id=\"stim\">8</p>", "key_press": -1, "trial_type": "single-stim", "trial_index": 216, "time_elapsed": 1098877, "internal_node_id": "0.0-160.0-2.0"}}, {"uniqueid": "MTK0280:3X65QVEQI1U17S5EA7E7PGEUB6OLCK", "current_trial": 217, "dateTime": 1510693516546, "trialdata": {"rt": -1, "stimulus": "<p id=\"stim\">7</p>", "key_press": -1, "trial_type": "single-stim", "trial_index": 217, "time_elapsed": 1099884, "internal_node_id": "0.0-160.0-3.0"}}, {"uniqueid": "MTK0280:3X65QVEQI1U17S5EA7E7PGEUB6OLCK", "current_trial": 218, "dateTime": 1510693517552, "trialdata": {"rt": -1, "stimulus": "<p id=\"stim\">6</p>", "key_press": -1, "trial_type": "single-stim", "trial_index": 218, "time_elapsed": 1100891, "internal_node_id": "0.0-160.0-4.0"}}, {"uniqueid": "MTK0280:3X65QVEQI1U17S5EA7E7PGEUB6OLCK", "current_trial": 219, "dateTime": 1510693518558, "trialdata": {"rt": -1, "stimulus": "<p id=\"stim\">5</p>", "key_press": -1, "trial_type": "single-stim", "trial_index": 219, "time_elapsed": 1101897, "internal_node_id": "0.0-160.0-5.0"}}, {"uniqueid": "MTK0280:3X65QVEQI1U17S5EA7E7PGEUB6OLCK", "current_trial": 220, "dateTime": 1510693519564, "trialdata": {"rt": -1, "stimulus": "<p id=\"stim\">4</p>", "key_press": -1, "trial_type": "single-stim", "trial_index": 220, "time_elapsed": 1102903, "internal_node_id": "0.0-160.0-6.0"}}, {"uniqueid": "MTK0280:3X65QVEQI1U17S5EA7E7PGEUB6OLCK", "current_trial": 221, "dateTime": 1510693520573, "trialdata": {"rt": -1, "stimulus": "<p id=\"stim\">3</p>", "key_press": -1, "trial_type": "single-stim", "trial_index": 221, "time_elapsed": 1103911, "internal_node_id": "0.0-160.0-7.0"}}, {"uniqueid": "MTK0280:3X65QVEQI1U17S5EA7E7PGEUB6OLCK", "current_trial": 222, "dateTime": 1510693521577, "trialdata": {"rt": -1, "stimulus": "<p id=\"stim\">2</p>", "key_press": -1, "trial_type": "single-stim", "trial_index": 222, "time_elapsed": 1104915, "internal_node_id": "0.0-160.0-8.0"}}, {"uniqueid": "MTK0280:3X65QVEQI1U17S5EA7E7PGEUB6OLCK", "current_trial": 223, "dateTime": 1510693522583, "trialdata": {"rt": -1, "stimulus": "<p id=\"stim\">1</p>", "key_press": -1, "trial_type": "single-stim", "trial_index": 223, "time_elapsed": 1105921, "internal_node_id": "0.0-160.0-9.0"}}, {"uniqueid": "MTK0280:3X65QVEQI1U17S5EA7E7PGEUB6OLCK", "current_trial": 224, "dateTime": 1510693524088, "trialdata": {"rt": -1, "stimulus": "<p id=\"stim\">+</p>", "key_press": -1, "type": "FIXATION", "trial_type": "single-stim", "trial_index": 224, "time_elapsed": 1107427, "internal_node_id": "0.0-161.0-0.0"}}, {"uniqueid": "MTK0280:3X65QVEQI1U17S5EA7E7PGEUB6OLCK", "current_trial": 225, "dateTime": 1510693525694, "trialdata": {"rt": -1, "stimulus": "<p id=\"stim\">DIVER</p>", "key_press": -1, "type": "PRES_VIS", "word": "diver", "wordID": 475, "conditions": [24, 1600, "v", 24000], "trial": 6, "serialpos": 0, "trial_type": "single-stim", "trial_index": 225, "time_elapsed": 1109033, "internal_node_id": "0.0-162.0"}}, {"uniqueid": "MTK0280:3X65QVEQI1U17S5EA7E7PGEUB6OLCK", "current_trial": 226, "dateTime": 1510693528400, "trialdata": {"rt": -1, "stimulus": "<p id=\"stim\">POPCORN</p>", "key_press": -1, "type": "PRES_VIS", "word": "popcorn", "wordID": 1103, "conditions": [24, 1600, "v", 24000], "trial": 6, "serialpos": 1, "trial_type": "single-stim", "trial_index": 226, "time_elapsed": 1111738, "internal_node_id": "0.0-163.0"}}, {"uniqueid": "MTK0280:3X65QVEQI1U17S5EA7E7PGEUB6OLCK", "current_trial": 227, "dateTime": 1510693530910, "trialdata": {"rt": -1, "stimulus": "<p id=\"stim\">BARREL</p>", "key_press": -1, "type": "PRES_VIS", "word": "barrel", "wordID": 90, "conditions": [24, 1600, "v", 24000], "trial": 6, "serialpos": 2, "trial_type": "single-stim", "trial_index": 227, "time_elapsed": 1114249, "internal_node_id": "0.0-164.0"}}, {"uniqueid": "MTK0280:3X65QVEQI1U17S5EA7E7PGEUB6OLCK", "current_trial": 228, "dateTime": 1510693533502, "trialdata": {"rt": -1, "stimulus": "<p id=\"stim\">TRENCH</p>", "key_press": -1, "type": "PRES_VIS", "word": "trench", "wordID": 1502, "conditions": [24, 1600, "v", 24000], "trial": 6, "serialpos": 3, "trial_type": "single-stim", "trial_index": 228, "time_elapsed": 1116841, "internal_node_id": "0.0-165.0"}}, {"uniqueid": "MTK0280:3X65QVEQI1U17S5EA7E7PGEUB6OLCK", "current_trial": 229, "dateTime": 1510693536253, "trialdata": {"rt": -1, "stimulus": "<p id=\"stim\">OFFICE</p>", "key_press": -1, "type": "PRES_VIS", "word": "office", "wordID": 971, "conditions": [24, 1600, "v", 24000], "trial": 6, "serialpos": 4, "trial_type": "single-stim", "trial_index": 229, "time_elapsed": 1119592, "internal_node_id": "0.0-166.0"}}, {"uniqueid": "MTK0280:3X65QVEQI1U17S5EA7E7PGEUB6OLCK", "current_trial": 230, "dateTime": 1510693538838, "trialdata": {"rt": -1, "stimulus": "<p id=\"stim\">SHARK</p>", "key_press": -1, "type": "PRES_VIS", "word": "shark", "wordID": 1274, "conditions": [24, 1600, "v", 24000], "trial": 6, "serialpos": 5, "trial_type": "single-stim", "trial_index": 230, "time_elapsed": 1122177, "internal_node_id": "0.0-167.0"}}, {"uniqueid": "MTK0280:3X65QVEQI1U17S5EA7E7PGEUB6OLCK", "current_trial": 231, "dateTime": 1510693541326, "trialdata": {"rt": -1, "stimulus": "<p id=\"stim\">BEAKER</p>", "key_press": -1, "type": "PRES_VIS", "word": "beaker", "wordID": 103, "conditions": [24, 1600, "v", 24000], "trial": 6, "serialpos": 6, "trial_type": "single-stim", "trial_index": 231, "time_elapsed": 1124664, "internal_node_id": "0.0-168.0"}}, {"uniqueid": "MTK0280:3X65QVEQI1U17S5EA7E7PGEUB6OLCK", "current_trial": 232, "dateTime": 1510693543856, "trialdata": {"rt": -1, "stimulus": "<p id=\"stim\">CIGAR</p>", "key_press": -1, "type": "PRES_VIS", "word": "cigar", "wordID": 307, "conditions": [24, 1600, "v", 24000], "trial": 6, "serialpos": 7, "trial_type": "single-stim", "trial_index": 232, "time_elapsed": 1127195, "internal_node_id": "0.0-169.0"}}, {"uniqueid": "MTK0280:3X65QVEQI1U17S5EA7E7PGEUB6OLCK", "current_trial": 233, "dateTime": 1510693546586, "trialdata": {"rt": -1, "stimulus": "<p id=\"stim\">TURKEY</p>", "key_press": -1, "type": "PRES_VIS", "word": "turkey", "wordID": 1519, "conditions": [24, 1600, "v", 24000], "trial": 6, "serialpos": 8, "trial_type": "single-stim", "trial_index": 233, "time_elapsed": 1129924, "internal_node_id": "0.0-170.0"}}, {"uniqueid": "MTK0280:3X65QVEQI1U17S5EA7E7PGEUB6OLCK", "current_trial": 234, "dateTime": 1510693549227, "trialdata": {"rt": -1, "stimulus": "<p id=\"stim\">QUAIL</p>", "key_press": -1, "type": "PRES_VIS", "word": "quail", "wordID": 1146, "conditions": [24, 1600, "v", 24000], "trial": 6, "serialpos": 9, "trial_type": "single-stim", "trial_index": 234, "time_elapsed": 1132565, "internal_node_id": "0.0-171.0"}}, {"uniqueid": "MTK0280:3X65QVEQI1U17S5EA7E7PGEUB6OLCK", "current_trial": 235, "dateTime": 1510693551727, "trialdata": {"rt": -1, "stimulus": "<p id=\"stim\">CANDY</p>", "key_press": -1, "type": "PRES_VIS", "word": "candy", "wordID": 229, "conditions": [24, 1600, "v", 24000], "trial": 6, "serialpos": 10, "trial_type": "single-stim", "trial_index": 235, "time_elapsed": 1135065, "internal_node_id": "0.0-172.0"}}, {"uniqueid": "MTK0280:3X65QVEQI1U17S5EA7E7PGEUB6OLCK", "current_trial": 236, "dateTime": 1510693554405, "trialdata": {"rt": -1, "stimulus": "<p id=\"stim\">AWARD</p>", "key_press": -1, "type": "PRES_VIS", "word": "award", "wordID": 62, "conditions": [24, 1600, "v", 24000], "trial": 6, "serialpos": 11, "trial_type": "single-stim", "trial_index": 236, "time_elapsed": 1137744, "internal_node_id": "0.0-173.0"}}, {"uniqueid": "MTK0280:3X65QVEQI1U17S5EA7E7PGEUB6OLCK", "current_trial": 237, "dateTime": 1510693557115, "trialdata": {"rt": -1, "stimulus": "<p id=\"stim\">SILK</p>", "key_press": -1, "type": "PRES_VIS", "word": "silk", "wordID": 1306, "conditions": [24, 1600, "v", 24000], "trial": 6, "serialpos": 12, "trial_type": "single-stim", "trial_index": 237, "time_elapsed": 1140453, "internal_node_id": "0.0-174.0"}}, {"uniqueid": "MTK0280:3X65QVEQI1U17S5EA7E7PGEUB6OLCK", "current_trial": 238, "dateTime": 1510693559742, "trialdata": {"rt": -1, "stimulus": "<p id=\"stim\">EUROPE</p>", "key_press": -1, "type": "PRES_VIS", "word": "europe", "wordID": 540, "conditions": [24, 1600, "v", 24000], "trial": 6, "serialpos": 13, "trial_type": "single-stim", "trial_index": 238, "time_elapsed": 1143081, "internal_node_id": "0.0-175.0"}}, {"uniqueid": "MTK0280:3X65QVEQI1U17S5EA7E7PGEUB6OLCK", "current_trial": 239, "dateTime": 1510693562447, "trialdata": {"rt": -1, "stimulus": "<p id=\"stim\">LONDON</p>", "key_press": -1, "type": "PRES_VIS", "word": "london", "wordID": 842, "conditions": [24, 1600, "v", 24000], "trial": 6, "serialpos": 14, "trial_type": "single-stim", "trial_index": 239, "time_elapsed": 1145784, "internal_node_id": "0.0-176.0"}}, {"uniqueid": "MTK0280:3X65QVEQI1U17S5EA7E7PGEUB6OLCK", "current_trial": 240, "dateTime": 1510693565308, "trialdata": {"rt": -1, "stimulus": "<p id=\"stim\">BIKE</p>", "key_press": -1, "type": "PRES_VIS", "word": "bike", "wordID": 124, "conditions": [24, 1600, "v", 24000], "trial": 6, "serialpos": 15, "trial_type": "single-stim", "trial_index": 240, "time_elapsed": 1148647, "internal_node_id": "0.0-177.0"}}, {"uniqueid": "MTK0280:3X65QVEQI1U17S5EA7E7PGEUB6OLCK", "current_trial": 241, "dateTime": 1510693567911, "trialdata": {"rt": -1, "stimulus": "<p id=\"stim\">LACE</p>", "key_press": -1, "type": "PRES_VIS", "word": "lace", "wordID": 791, "conditions": [24, 1600, "v", 24000], "trial": 6, "serialpos": 16, "trial_type": "single-stim", "trial_index": 241, "time_elapsed": 1151250, "internal_node_id": "0.0-178.0"}}, {"uniqueid": "MTK0280:3X65QVEQI1U17S5EA7E7PGEUB6OLCK", "current_trial": 242, "dateTime": 1510693570416, "trialdata": {"rt": -1, "stimulus": "<p id=\"stim\">SUSPECT</p>", "key_press": -1, "type": "PRES_VIS", "word": "suspect", "wordID": 1414, "conditions": [24, 1600, "v", 24000], "trial": 6, "serialpos": 17, "trial_type": "single-stim", "trial_index": 242, "time_elapsed": 1153755, "internal_node_id": "0.0-179.0"}}, {"uniqueid": "MTK0280:3X65QVEQI1U17S5EA7E7PGEUB6OLCK", "current_trial": 243, "dateTime": 1510693573015, "trialdata": {"rt": -1, "stimulus": "<p id=\"stim\">MONSTER</p>", "key_press": -1, "type": "PRES_VIS", "word": "monster", "wordID": 911, "conditions": [24, 1600, "v", 24000], "trial": 6, "serialpos": 18, "trial_type": "single-stim", "trial_index": 243, "time_elapsed": 1156353, "internal_node_id": "0.0-180.0"}}, {"uniqueid": "MTK0280:3X65QVEQI1U17S5EA7E7PGEUB6OLCK", "current_trial": 244, "dateTime": 1510693575705, "trialdata": {"rt": -1, "stimulus": "<p id=\"stim\">GHETTO</p>", "key_press": -1, "type": "PRES_VIS", "word": "ghetto", "wordID": 632, "conditions": [24, 1600, "v", 24000], "trial": 6, "serialpos": 19, "trial_type": "single-stim", "trial_index": 244, "time_elapsed": 1159044, "internal_node_id": "0.0-181.0"}}, {"uniqueid": "MTK0280:3X65QVEQI1U17S5EA7E7PGEUB6OLCK", "current_trial": 245, "dateTime": 1510693578205, "trialdata": {"rt": -1, "stimulus": "<p id=\"stim\">WRENCH</p>", "key_press": -1, "type": "PRES_VIS", "word": "wrench", "wordID": 1624, "conditions": [24, 1600, "v", 24000], "trial": 6, "serialpos": 20, "trial_type": "single-stim", "trial_index": 245, "time_elapsed": 1161544, "internal_node_id": "0.0-182.0"}}, {"uniqueid": "MTK0280:3X65QVEQI1U17S5EA7E7PGEUB6OLCK", "current_trial": 246, "dateTime": 1510693580982, "trialdata": {"rt": -1, "stimulus": "<p id=\"stim\">DRAGON</p>", "key_press": -1, "type": "PRES_VIS", "word": "dragon", "wordID": 491, "conditions": [24, 1600, "v", 24000], "trial": 6, "serialpos": 21, "trial_type": "single-stim", "trial_index": 246, "time_elapsed": 1164320, "internal_node_id": "0.0-183.0"}}, {"uniqueid": "MTK0280:3X65QVEQI1U17S5EA7E7PGEUB6OLCK", "current_trial": 247, "dateTime": 1510693583474, "trialdata": {"rt": -1, "stimulus": "<p id=\"stim\">SCRIBBLE</p>", "key_press": -1, "type": "PRES_VIS", "word": "scribble", "wordID": 1255, "conditions": [24, 1600, "v", 24000], "trial": 6, "serialpos": 22, "trial_type": "single-stim", "trial_index": 247, "time_elapsed": 1166812, "internal_node_id": "0.0-184.0"}}, {"uniqueid": "MTK0280:3X65QVEQI1U17S5EA7E7PGEUB6OLCK", "current_trial": 248, "dateTime": 1510693586026, "trialdata": {"rt": -1, "stimulus": "<p id=\"stim\">INFANT</p>", "key_press": -1, "type": "PRES_VIS", "word": "infant", "wordID": 736, "conditions": [24, 1600, "v", 24000], "trial": 6, "serialpos": 23, "trial_type": "single-stim", "trial_index": 248, "time_elapsed": 1169364, "internal_node_id": "0.0-185.0"}}, {"uniqueid": "MTK0280:3X65QVEQI1U17S5EA7E7PGEUB6OLCK", "current_trial": 249, "dateTime": 1510693588168, "trialdata": {"rt": -1, "stimulus": "", "key_press": -1, "type": "PRE_RECALL_DELAY", "trial_type": "single-stim", "trial_index": 249, "time_elapsed": 1171507, "internal_node_id": "0.0-186.0-0.0"}}, {"uniqueid": "MTK0280:3X65QVEQI1U17S5EA7E7PGEUB6OLCK", "current_trial": 250, "dateTime": 1510693588672, "trialdata": {"rt": -1000, "stimulus": "/static/audio/400Hz.wav", "key_press": -1, "type": "PRE_RECALL_ALERT", "trial_type": "single-audio", "trial_index": 250, "time_elapsed": 1172011, "internal_node_id": "0.0-187.0"}}, {"uniqueid": "MTK0280:3X65QVEQI1U17S5EA7E7PGEUB6OLCK", "current_trial": 251, "dateTime": 1510693648821, "trialdata": {"rt": [3249, 5588, 7095, 8355, 11252, 12679, 14568, 15970, 17557, 19187, 21288, 24212, 26820, 30623, 34795, 46302], "recwords": ["dragon", "popcorn", "office", "shark", "trench", "diver", "ghetto", "silk", "lace", "infant", "monster", "suspect", "beaker", "cigar", "candy", "quail"], "type": "FREE_RECALL", "conditions": [24, 1600, "v", 24000], "trial": 6, "trial_type": "free-recall", "trial_index": 251, "time_elapsed": 1232025, "internal_node_id": "0.0-188.0-0.0"}}, {"uniqueid": "MTK0280:3X65QVEQI1U17S5EA7E7PGEUB6OLCK", "current_trial": 252, "dateTime": 1510693652026, "trialdata": {"rt": 1200, "key_press": 13, "type": "INSTRUCTIONS", "trial_type": "text", "trial_index": 252, "time_elapsed": 1235364, "internal_node_id": "0.0-189.0"}}, {"uniqueid": "MTK0280:3X65QVEQI1U17S5EA7E7PGEUB6OLCK", "current_trial": 253, "dateTime": 1510693666038, "trialdata": {"rt": [3198, 8539], "responses": ["20", "10"], "num1": [6, 6, 8], "num2": [6, 3, 9], "num3": [8, 1, 7], "type": "DISTRACTOR", "conditions": [24, 800, "a", 12000], "trial": 7, "trial_type": "math-distractor", "trial_index": 253, "time_elapsed": 1249377, "internal_node_id": "0.0-190.0"}}, {"uniqueid": "MTK0280:3X65QVEQI1U17S5EA7E7PGEUB6OLCK", "current_trial": 254, "dateTime": 1510693669045, "trialdata": {"rt": -1, "stimulus": "<p id=\"stim\">10</p>", "key_press": -1, "trial_type": "single-stim", "trial_index": 254, "time_elapsed": 1252383, "internal_node_id": "0.0-191.0-0.0"}}, {"uniqueid": "MTK0280:3X65QVEQI1U17S5EA7E7PGEUB6OLCK", "current_trial": 255, "dateTime": 1510693670051, "trialdata": {"rt": -1, "stimulus": "<p id=\"stim\">9</p>", "key_press": -1, "trial_type": "single-stim", "trial_index": 255, "time_elapsed": 1253390, "internal_node_id": "0.0-191.0-1.0"}}, {"uniqueid": "MTK0280:3X65QVEQI1U17S5EA7E7PGEUB6OLCK", "current_trial": 256, "dateTime": 1510693671055, "trialdata": {"rt": -1, "stimulus": "<p id=\"stim\">8</p>", "key_press": -1, "trial_type": "single-stim", "trial_index": 256, "time_elapsed": 1254394, "internal_node_id": "0.0-191.0-2.0"}}, {"uniqueid": "MTK0280:3X65QVEQI1U17S5EA7E7PGEUB6OLCK", "current_trial": 257, "dateTime": 1510693672060, "trialdata": {"rt": -1, "stimulus": "<p id=\"stim\">7</p>", "key_press": -1, "trial_type": "single-stim", "trial_index": 257, "time_elapsed": 1255399, "internal_node_id": "0.0-191.0-3.0"}}, {"uniqueid": "MTK0280:3X65QVEQI1U17S5EA7E7PGEUB6OLCK", "current_trial": 258, "dateTime": 1510693673066, "trialdata": {"rt": -1, "stimulus": "<p id=\"stim\">6</p>", "key_press": -1, "trial_type": "single-stim", "trial_index": 258, "time_elapsed": 1256405, "internal_node_id": "0.0-191.0-4.0"}}, {"uniqueid": "MTK0280:3X65QVEQI1U17S5EA7E7PGEUB6OLCK", "current_trial": 259, "dateTime": 1510693674072, "trialdata": {"rt": -1, "stimulus": "<p id=\"stim\">5</p>", "key_press": -1, "trial_type": "single-stim", "trial_index": 259, "time_elapsed": 1257411, "internal_node_id": "0.0-191.0-5.0"}}, {"uniqueid": "MTK0280:3X65QVEQI1U17S5EA7E7PGEUB6OLCK", "current_trial": 260, "dateTime": 1510693675126, "trialdata": {"rt": -1, "stimulus": "<p id=\"stim\">4</p>", "key_press": -1, "trial_type": "single-stim", "trial_index": 260, "time_elapsed": 1258464, "internal_node_id": "0.0-191.0-6.0"}}, {"uniqueid": "MTK0280:3X65QVEQI1U17S5EA7E7PGEUB6OLCK", "current_trial": 261, "dateTime": 1510693676129, "trialdata": {"rt": -1, "stimulus": "<p id=\"stim\">3</p>", "key_press": -1, "trial_type": "single-stim", "trial_index": 261, "time_elapsed": 1259468, "internal_node_id": "0.0-191.0-7.0"}}, {"uniqueid": "MTK0280:3X65QVEQI1U17S5EA7E7PGEUB6OLCK", "current_trial": 262, "dateTime": 1510693677415, "trialdata": {"rt": -1, "stimulus": "<p id=\"stim\">2</p>", "key_press": -1, "trial_type": "single-stim", "trial_index": 262, "time_elapsed": 1260753, "internal_node_id": "0.0-191.0-8.0"}}, {"uniqueid": "MTK0280:3X65QVEQI1U17S5EA7E7PGEUB6OLCK", "current_trial": 263, "dateTime": 1510693678418, "trialdata": {"rt": -1, "stimulus": "<p id=\"stim\">1</p>", "key_press": -1, "trial_type": "single-stim", "trial_index": 263, "time_elapsed": 1261756, "internal_node_id": "0.0-191.0-9.0"}}, {"uniqueid": "MTK0280:3X65QVEQI1U17S5EA7E7PGEUB6OLCK", "current_trial": 264, "dateTime": 1510693679921, "trialdata": {"rt": -1, "stimulus": "<p id=\"stim\">+</p>", "key_press": -1, "type": "FIXATION", "trial_type": "single-stim", "trial_index": 264, "time_elapsed": 1263260, "internal_node_id": "0.0-192.0-0.0"}}, {"uniqueid": "MTK0280:3X65QVEQI1U17S5EA7E7PGEUB6OLCK", "current_trial": 265, "dateTime": 1510693681626, "trialdata": {"rt": -1000, "stimulus": "/static/audio/wordpool/LAVA.wav", "key_press": -1, "type": "PRES_AUD", "word": "lava", "wordID": 803, "conditions": [24, 800, "a", 12000], "trial": 7, "serialpos": 0, "trial_type": "single-audio", "trial_index": 265, "time_elapsed": 1264964, "internal_node_id": "0.0-193.0"}}, {"uniqueid": "MTK0280:3X65QVEQI1U17S5EA7E7PGEUB6OLCK", "current_trial": 266, "dateTime": 1510693683514, "trialdata": {"rt": -1000, "stimulus": "/static/audio/wordpool/CRATER.wav", "key_press": -1, "type": "PRES_AUD", "word": "crater", "wordID": 399, "conditions": [24, 800, "a", 12000], "trial": 7, "serialpos": 1, "trial_type": "single-audio", "trial_index": 266, "time_elapsed": 1266853, "internal_node_id": "0.0-194.0"}}, {"uniqueid": "MTK0280:3X65QVEQI1U17S5EA7E7PGEUB6OLCK", "current_trial": 267, "dateTime": 1510693685270, "trialdata": {"rt": -1000, "stimulus": "/static/audio/wordpool/BEAVER.wav", "key_press": -1, "type": "PRES_AUD", "word": "beaver", "wordID": 108, "conditions": [24, 800, "a", 12000], "trial": 7, "serialpos": 2, "trial_type": "single-audio", "trial_index": 267, "time_elapsed": 1268608, "internal_node_id": "0.0-195.0"}}, {"uniqueid": "MTK0280:3X65QVEQI1U17S5EA7E7PGEUB6OLCK", "current_trial": 268, "dateTime": 1510693686902, "trialdata": {"rt": -1000, "stimulus": "/static/audio/wordpool/FRAGRANCE.wav", "key_press": -1, "type": "PRES_AUD", "word": "fragrance", "wordID": 598, "conditions": [24, 800, "a", 12000], "trial": 7, "serialpos": 3, "trial_type": "single-audio", "trial_index": 268, "time_elapsed": 1270240, "internal_node_id": "0.0-196.0"}}, {"uniqueid": "MTK0280:3X65QVEQI1U17S5EA7E7PGEUB6OLCK", "current_trial": 269, "dateTime": 1510693688789, "trialdata": {"rt": -1000, "stimulus": "/static/audio/wordpool/CHURCH.wav", "key_press": -1, "type": "PRES_AUD", "word": "church", "wordID": 306, "conditions": [24, 800, "a", 12000], "trial": 7, "serialpos": 4, "trial_type": "single-audio", "trial_index": 269, "time_elapsed": 1272128, "internal_node_id": "0.0-197.0"}}, {"uniqueid": "MTK0280:3X65QVEQI1U17S5EA7E7PGEUB6OLCK", "current_trial": 270, "dateTime": 1510693690496, "trialdata": {"rt": -1000, "stimulus": "/static/audio/wordpool/VALVE.wav", "key_press": -1, "type": "PRES_AUD", "word": "valve", "wordID": 1545, "conditions": [24, 800, "a", 12000], "trial": 7, "serialpos": 5, "trial_type": "single-audio", "trial_index": 270, "time_elapsed": 1273835, "internal_node_id": "0.0-198.0"}}, {"uniqueid": "MTK0280:3X65QVEQI1U17S5EA7E7PGEUB6OLCK", "current_trial": 271, "dateTime": 1510693692368, "trialdata": {"rt": -1000, "stimulus": "/static/audio/wordpool/CLAMP.wav", "key_press": -1, "type": "PRES_AUD", "word": "clamp", "wordID": 315, "con