{"condition": 0, "counterbalance": 23, "assignmentId": "31N2WW6R9SXRU0ZZV308105G7MFF3E", "workerId": "MTK0165", "hitId": "3P4C70TRMROC1KNPMR5OQN3PVY0LGP", "currenttrial": 625, "bonus": 0, "data": [{"uniqueid": "MTK0165:31N2WW6R9SXRU0ZZV308105G7MFF3E", "current_trial": 0, "dateTime": 1509472121259, "trialdata": {"rt": 3061, "key_press": 32, "type": "INSTRUCTIONS", "trial_type": "text", "trial_index": 0, "time_elapsed": 3066, "internal_node_id": "0.0-0.0"}}, {"uniqueid": "MTK0165:31N2WW6R9SXRU0ZZV308105G7MFF3E", "current_trial": 1, "dateTime": 1509472147509, "trialdata": {"rt": 26248, "key_press": 13, "type": "INSTRUCTIONS", "trial_type": "text", "trial_index": 1, "time_elapsed": 29318, "internal_node_id": "0.0-1.0"}}, {"uniqueid": "MTK0165:31N2WW6R9SXRU0ZZV308105G7MFF3E", "current_trial": 2, "dateTime": 1509472174875, "trialdata": {"rt": [27357], "responses": ["ocean"], "type": "AUDIO_TEST", "trial_type": "audio-test", "trial_index": 2, "time_elapsed": 56684, "internal_node_id": "0.0-2.0"}}, {"uniqueid": "MTK0165:31N2WW6R9SXRU0ZZV308105G7MFF3E", "current_trial": 3, "dateTime": 1509472192760, "trialdata": {"rt": [17880], "responses": ["crystal"], "type": "AUDIO_TEST", "trial_type": "audio-test", "trial_index": 3, "time_elapsed": 74569, "internal_node_id": "0.0-3.0"}}, {"uniqueid": "MTK0165:31N2WW6R9SXRU0ZZV308105G7MFF3E", "current_trial": 4, "dateTime": 1509472200694, "trialdata": {"rt": [7930], "responses": ["spice"], "type": "AUDIO_TEST", "trial_type": "audio-test", "trial_index": 4, "time_elapsed": 82503, "internal_node_id": "0.0-4.0"}}, {"uniqueid": "MTK0165:31N2WW6R9SXRU0ZZV308105G7MFF3E", "current_trial": 5, "dateTime": 1509472205143, "trialdata": {"rt": 3696, "key_press": 13, "type": "INSTRUCTIONS", "trial_type": "text", "trial_index": 5, "time_elapsed": 86952, "internal_node_id": "0.0-5.0"}}, {"uniqueid": "MTK0165:31N2WW6R9SXRU0ZZV308105G7MFF3E", "current_trial": 6, "dateTime": 1509472263315, "trialdata": {"rt": 58171, "key_press": 13, "type": "INSTRUCTIONS", "trial_type": "text", "trial_index": 6, "time_elapsed": 145124, "internal_node_id": "0.0-6.0"}}, {"uniqueid": "MTK0165:31N2WW6R9SXRU0ZZV308105G7MFF3E", "current_trial": 7, "dateTime": 1509472286779, "trialdata": {"rt": 23464, "key_press": 13, "type": "INSTRUCTIONS", "trial_type": "text", "trial_index": 7, "time_elapsed": 168588, "internal_node_id": "0.0-7.0"}}, {"uniqueid": "MTK0165:31N2WW6R9SXRU0ZZV308105G7MFF3E", "current_trial": 8, "dateTime": 1509472343602, "trialdata": {"rt": 56822, "key_press": 32, "type": "INSTRUCTIONS", "trial_type": "text", "trial_index": 8, "time_elapsed": 225411, "internal_node_id": "0.0-8.0"}}, {"uniqueid": "MTK0165:31N2WW6R9SXRU0ZZV308105G7MFF3E", "current_trial": 9, "dateTime": 1509472362611, "trialdata": {"rt": [4004, 7366, 10212, 13645, 17707], "responses": ["12", "11", "17", "15", "16"], "num1": [9, 2, 3, 2, 6, 9], "num2": [1, 7, 5, 4, 3, 3], "num3": [2, 2, 9, 9, 7, 9], "type": "DISTRACTOR", "conditions": [18, 1200, "a", 18000], "trial": 0, "trial_type": "math-distractor", "trial_index": 9, "time_elapsed": 244420, "internal_node_id": "0.0-9.0"}}, {"uniqueid": "MTK0165:31N2WW6R9SXRU0ZZV308105G7MFF3E", "current_trial": 10, "dateTime": 1509472365614, "trialdata": {"rt": -1, "stimulus": "<p id=\"stim\">10</p>", "key_press": -1, "trial_type": "single-stim", "trial_index": 10, "time_elapsed": 247423, "internal_node_id": "0.0-10.0-0.0"}}, {"uniqueid": "MTK0165:31N2WW6R9SXRU0ZZV308105G7MFF3E", "current_trial": 11, "dateTime": 1509472366617, "trialdata": {"rt": -1, "stimulus": "<p id=\"stim\">9</p>", "key_press": -1, "trial_type": "single-stim", "trial_index": 11, "time_elapsed": 248426, "internal_node_id": "0.0-10.0-1.0"}}, {"uniqueid": "MTK0165:31N2WW6R9SXRU0ZZV308105G7MFF3E", "current_trial": 12, "dateTime": 1509472367620, "trialdata": {"rt": -1, "stimulus": "<p id=\"stim\">8</p>", "key_press": -1, "trial_type": "single-stim", "trial_index": 12, "time_elapsed": 249429, "internal_node_id": "0.0-10.0-2.0"}}, {"uniqueid": "MTK0165:31N2WW6R9SXRU0ZZV308105G7MFF3E", "current_trial": 13, "dateTime": 1509472368623, "trialdata": {"rt": -1, "stimulus": "<p id=\"stim\">7</p>", "key_press": -1, "trial_type": "single-stim", "trial_index": 13, "time_elapsed": 250432, "internal_node_id": "0.0-10.0-3.0"}}, {"uniqueid": "MTK0165:31N2WW6R9SXRU0ZZV308105G7MFF3E", "current_trial": 14, "dateTime": 1509472369626, "trialdata": {"rt": -1, "stimulus": "<p id=\"stim\">6</p>", "key_press": -1, "trial_type": "single-stim", "trial_index": 14, "time_elapsed": 251435, "internal_node_id": "0.0-10.0-4.0"}}, {"uniqueid": "MTK0165:31N2WW6R9SXRU0ZZV308105G7MFF3E", "current_trial": 15, "dateTime": 1509472370627, "trialdata": {"rt": -1, "stimulus": "<p id=\"stim\">5</p>", "key_press": -1, "trial_type": "single-stim", "trial_index": 15, "time_elapsed": 252436, "internal_node_id": "0.0-10.0-5.0"}}, {"uniqueid": "MTK0165:31N2WW6R9SXRU0ZZV308105G7MFF3E", "current_trial": 16, "dateTime": 1509472371628, "trialdata": {"rt": -1, "stimulus": "<p id=\"stim\">4</p>", "key_press": -1, "trial_type": "single-stim", "trial_index": 16, "time_elapsed": 253437, "internal_node_id": "0.0-10.0-6.0"}}, {"uniqueid": "MTK0165:31N2WW6R9SXRU0ZZV308105G7MFF3E", "current_trial": 17, "dateTime": 1509472372630, "trialdata": {"rt": -1, "stimulus": "<p id=\"stim\">3</p>", "key_press": -1, "trial_type": "single-stim", "trial_index": 17, "time_elapsed": 254439, "internal_node_id": "0.0-10.0-7.0"}}, {"uniqueid": "MTK0165:31N2WW6R9SXRU0ZZV308105G7MFF3E", "current_trial": 18, "dateTime": 1509472373633, "trialdata": {"rt": -1, "stimulus": "<p id=\"stim\">2</p>", "key_press": -1, "trial_type": "single-stim", "trial_index": 18, "time_elapsed": 255442, "internal_node_id": "0.0-10.0-8.0"}}, {"uniqueid": "MTK0165:31N2WW6R9SXRU0ZZV308105G7MFF3E", "current_trial": 19, "dateTime": 1509472374634, "trialdata": {"rt": -1, "stimulus": "<p id=\"stim\">1</p>", "key_press": -1, "trial_type": "single-stim", "trial_index": 19, "time_elapsed": 256443, "internal_node_id": "0.0-10.0-9.0"}}, {"uniqueid": "MTK0165:31N2WW6R9SXRU0ZZV308105G7MFF3E", "current_trial": 20, "dateTime": 1509472376137, "trialdata": {"rt": -1, "stimulus": "<p id=\"stim\">+</p>", "key_press": -1, "type": "FIXATION", "trial_type": "single-stim", "trial_index": 20, "time_elapsed": 257946, "internal_node_id": "0.0-11.0-0.0"}}, {"uniqueid": "MTK0165:31N2WW6R9SXRU0ZZV308105G7MFF3E", "current_trial": 21, "dateTime": 1509472378166, "trialdata": {"rt": -1000, "stimulus": "/static/audio/wordpool/YACHT.wav", "key_press": -1, "type": "PRES_AUD", "word": "yacht", "wordID": 1628, "conditions": [18, 1200, "a", 18000], "trial": 0, "serialpos": 0, "trial_type": "single-audio", "trial_index": 21, "time_elapsed": 259975, "internal_node_id": "0.0-12.0"}}, {"uniqueid": "MTK0165:31N2WW6R9SXRU0ZZV308105G7MFF3E", "current_trial": 22, "dateTime": 1509472380368, "trialdata": {"rt": -1000, "stimulus": "/static/audio/wordpool/EAGLE.wav", "key_press": -1, "type": "PRES_AUD", "word": "eagle", "wordID": 511, "conditions": [18, 1200, "a", 18000], "trial": 0, "serialpos": 1, "trial_type": "single-audio", "trial_index": 22, "time_elapsed": 262177, "internal_node_id": "0.0-13.0"}}, {"uniqueid": "MTK0165:31N2WW6R9SXRU0ZZV308105G7MFF3E", "current_trial": 23, "dateTime": 1509472382442, "trialdata": {"rt": -1000, "stimulus": "/static/audio/wordpool/CHAPEL.wav", "key_press": -1, "type": "PRES_AUD", "word": "chapel", "wordID": 279, "conditions": [18, 1200, "a", 18000], "trial": 0, "serialpos": 2, "trial_type": "single-audio", "trial_index": 23, "time_elapsed": 264251, "internal_node_id": "0.0-14.0"}}, {"uniqueid": "MTK0165:31N2WW6R9SXRU0ZZV308105G7MFF3E", "current_trial": 24, "dateTime": 1509472384740, "trialdata": {"rt": -1000, "stimulus": "/static/audio/wordpool/CHILD.wav", "key_press": -1, "type": "PRES_AUD", "word": "child", "wordID": 298, "conditions": [18, 1200, "a", 18000], "trial": 0, "serialpos": 3, "trial_type": "single-audio", "trial_index": 24, "time_elapsed": 266549, "internal_node_id": "0.0-15.0"}}, {"uniqueid": "MTK0165:31N2WW6R9SXRU0ZZV308105G7MFF3E", "current_trial": 25, "dateTime": 1509472386963, "trialdata": {"rt": -1000, "stimulus": "/static/audio/wordpool/TRENCH.wav", "key_press": -1, "type": "PRES_AUD", "word": "trench", "wordID": 1502, "conditions": [18, 1200, "a", 18000], "trial": 0, "serialpos": 4, "trial_type": "single-audio", "trial_index": 25, "time_elapsed": 268772, "internal_node_id": "0.0-16.0"}}, {"uniqueid": "MTK0165:31N2WW6R9SXRU0ZZV308105G7MFF3E", "current_trial": 26, "dateTime": 1509472389128, "trialdata": {"rt": -1000, "stimulus": "/static/audio/wordpool/COWBOY.wav", "key_press": -1, "type": "PRES_AUD", "word": "cowboy", "wordID": 394, "conditions": [18, 1200, "a", 18000], "trial": 0, "serialpos": 5, "trial_type": "single-audio", "trial_index": 26, "time_elapsed": 270937, "internal_node_id": "0.0-17.0"}}, {"uniqueid": "MTK0165:31N2WW6R9SXRU0ZZV308105G7MFF3E", "current_trial": 27, "dateTime": 1509472391175, "trialdata": {"rt": -1000, "stimulus": "/static/audio/wordpool/SWORD.wav", "key_press": -1, "type": "PRES_AUD", "word": "sword", "wordID": 1422, "conditions": [18, 1200, "a", 18000], "trial": 0, "serialpos": 6, "trial_type": "single-audio", "trial_index": 27, "time_elapsed": 272984, "internal_node_id": "0.0-18.0"}}, {"uniqueid": "MTK0165:31N2WW6R9SXRU0ZZV308105G7MFF3E", "current_trial": 28, "dateTime": 1509472393331, "trialdata": {"rt": -1000, "stimulus": "/static/audio/wordpool/VELVET.wav", "key_press": -1, "type": "PRES_AUD", "word": "velvet", "wordID": 1554, "conditions": [18, 1200, "a", 18000], "trial": 0, "serialpos": 7, "trial_type": "single-audio", "trial_index": 28, "time_elapsed": 275140, "internal_node_id": "0.0-19.0"}}, {"uniqueid": "MTK0165:31N2WW6R9SXRU0ZZV308105G7MFF3E", "current_trial": 29, "dateTime": 1509472395396, "trialdata": {"rt": -1000, "stimulus": "/static/audio/wordpool/STUDENT.wav", "key_press": -1, "type": "PRES_AUD", "word": "student", "wordID": 1394, "conditions": [18, 1200, "a", 18000], "trial": 0, "serialpos": 8, "trial_type": "single-audio", "trial_index": 29, "time_elapsed": 277205, "internal_node_id": "0.0-20.0"}}, {"uniqueid": "MTK0165:31N2WW6R9SXRU0ZZV308105G7MFF3E", "current_trial": 30, "dateTime": 1509472397649, "trialdata": {"rt": -1000, "stimulus": "/static/audio/wordpool/BABY.wav", "key_press": -1, "type": "PRES_AUD", "word": "baby", "wordID": 63, "conditions": [18, 1200, "a", 18000], "trial": 0, "serialpos": 9, "trial_type": "single-audio", "trial_index": 30, "time_elapsed": 279458, "internal_node_id": "0.0-21.0"}}, {"uniqueid": "MTK0165:31N2WW6R9SXRU0ZZV308105G7MFF3E", "current_trial": 31, "dateTime": 1509472400007, "trialdata": {"rt": -1000, "stimulus": "/static/audio/wordpool/CELLAR.wav", "key_press": -1, "type": "PRES_AUD", "word": "cellar", "wordID": 266, "conditions": [18, 1200, "a", 18000], "trial": 0, "serialpos": 10, "trial_type": "single-audio", "trial_index": 31, "time_elapsed": 281816, "internal_node_id": "0.0-22.0"}}, {"uniqueid": "MTK0165:31N2WW6R9SXRU0ZZV308105G7MFF3E", "current_trial": 32, "dateTime": 1509472402164, "trialdata": {"rt": -1000, "stimulus": "/static/audio/wordpool/LACE.wav", "key_press": -1, "type": "PRES_AUD", "word": "lace", "wordID": 791, "conditions": [18, 1200, "a", 18000], "trial": 0, "serialpos": 11, "trial_type": "single-audio", "trial_index": 32, "time_elapsed": 283973, "internal_node_id": "0.0-23.0"}}, {"uniqueid": "MTK0165:31N2WW6R9SXRU0ZZV308105G7MFF3E", "current_trial": 33, "dateTime": 1509472404293, "trialdata": {"rt": -1000, "stimulus": "/static/audio/wordpool/RADISH.wav", "key_press": -1, "type": "PRES_AUD", "word": "radish", "wordID": 1157, "conditions": [18, 1200, "a", 18000], "trial": 0, "serialpos": 12, "trial_type": "single-audio", "trial_index": 33, "time_elapsed": 286102, "internal_node_id": "0.0-24.0"}}, {"uniqueid": "MTK0165:31N2WW6R9SXRU0ZZV308105G7MFF3E", "current_trial": 34, "dateTime": 1509472406530, "trialdata": {"rt": -1000, "stimulus": "/static/audio/wordpool/REPORT.wav", "key_press": -1, "type": "PRES_AUD", "word": "report", "wordID": 1183, "conditions": [18, 1200, "a", 18000], "trial": 0, "serialpos": 13, "trial_type": "single-audio", "trial_index": 34, "time_elapsed": 288339, "internal_node_id": "0.0-25.0"}}, {"uniqueid": "MTK0165:31N2WW6R9SXRU0ZZV308105G7MFF3E", "current_trial": 35, "dateTime": 1509472408709, "trialdata": {"rt": -1000, "stimulus": "/static/audio/wordpool/KNAPSACK.wav", "key_press": -1, "type": "PRES_AUD", "word": "knapsack", "wordID": 782, "conditions": [18, 1200, "a", 18000], "trial": 0, "serialpos": 14, "trial_type": "single-audio", "trial_index": 35, "time_elapsed": 290518, "internal_node_id": "0.0-26.0"}}, {"uniqueid": "MTK0165:31N2WW6R9SXRU0ZZV308105G7MFF3E", "current_trial": 36, "dateTime": 1509472410941, "trialdata": {"rt": -1000, "stimulus": "/static/audio/wordpool/CARROT.wav", "key_press": -1, "type": "PRES_AUD", "word": "carrot", "wordID": 248, "conditions": [18, 1200, "a", 18000], "trial": 0, "serialpos": 15, "trial_type": "single-audio", "trial_index": 36, "time_elapsed": 292750, "internal_node_id": "0.0-27.0"}}, {"uniqueid": "MTK0165:31N2WW6R9SXRU0ZZV308105G7MFF3E", "current_trial": 37, "dateTime": 1509472412970, "trialdata": {"rt": -1000, "stimulus": "/static/audio/wordpool/CYCLONE.wav", "key_press": -1, "type": "PRES_AUD", "word": "cyclone", "wordID": 430, "conditions": [18, 1200, "a", 18000], "trial": 0, "serialpos": 16, "trial_type": "single-audio", "trial_index": 37, "time_elapsed": 294779, "internal_node_id": "0.0-28.0"}}, {"uniqueid": "MTK0165:31N2WW6R9SXRU0ZZV308105G7MFF3E", "current_trial": 38, "dateTime": 1509472415290, "trialdata": {"rt": -1000, "stimulus": "/static/audio/wordpool/PENGUIN.wav", "key_press": -1, "type": "PRES_AUD", "word": "penguin", "wordID": 1043, "conditions": [18, 1200, "a", 18000], "trial": 0, "serialpos": 17, "trial_type": "single-audio", "trial_index": 38, "time_elapsed": 297099, "internal_node_id": "0.0-29.0"}}, {"uniqueid": "MTK0165:31N2WW6R9SXRU0ZZV308105G7MFF3E", "current_trial": 39, "dateTime": 1509472416540, "trialdata": {"rt": -1, "stimulus": "", "key_press": -1, "type": "PRE_RECALL_DELAY", "trial_type": "single-stim", "trial_index": 39, "time_elapsed": 298349, "internal_node_id": "0.0-30.0-0.0"}}, {"uniqueid": "MTK0165:31N2WW6R9SXRU0ZZV308105G7MFF3E", "current_trial": 40, "dateTime": 1509472417043, "trialdata": {"rt": -1000, "stimulus": "/static/audio/400Hz.wav", "key_press": -1, "type": "PRE_RECALL_ALERT", "trial_type": "single-audio", "trial_index": 40, "time_elapsed": 298852, "internal_node_id": "0.0-31.0"}}, {"uniqueid": "MTK0165:31N2WW6R9SXRU0ZZV308105G7MFF3E", "current_trial": 41, "dateTime": 1509472477054, "trialdata": {"rt": [5606, 9283, 11708, 16128, 19061, 23567, 26252, 38503], "recwords": ["cowboy", "cyclone", "carrot", "lakes", "baby", "rabbit", "sword", "knapsack"], "type": "FREE_RECALL", "conditions": [18, 1200, "a", 18000], "trial": 0, "trial_type": "free-recall", "trial_index": 41, "time_elapsed": 358858, "internal_node_id": "0.0-32.0-0.0"}}, {"uniqueid": "MTK0165:31N2WW6R9SXRU0ZZV308105G7MFF3E", "current_trial": 42, "dateTime": 1509472482456, "trialdata": {"rt": 3401, "key_press": 32, "type": "INSTRUCTIONS", "trial_type": "text", "trial_index": 42, "time_elapsed": 364265, "internal_node_id": "0.0-33.0"}}, {"uniqueid": "MTK0165:31N2WW6R9SXRU0ZZV308105G7MFF3E", "current_trial": 43, "dateTime": 1509472502462, "trialdata": {"rt": [4680, 6766, 10499, 12935, 16218], "responses": ["19", "7", "22", "19", "14"], "num1": [4, 1, 7, 6, 4, 5], "num2": [8, 3, 7, 4, 8, 4], "num3": [5, 3, 8, 9, 2, 2], "type": "DISTRACTOR", "conditions": [18, 1200, "v", 18000], "trial": 1, "trial_type": "math-distractor", "trial_index": 43, "time_elapsed": 384271, "internal_node_id": "0.0-34.0"}}, {"uniqueid": "MTK0165:31N2WW6R9SXRU0ZZV308105G7MFF3E", "current_trial": 44, "dateTime": 1509472505466, "trialdata": {"rt": -1, "stimulus": "<p id=\"stim\">10</p>", "key_press": -1, "trial_type": "single-stim", "trial_index": 44, "time_elapsed": 387274, "internal_node_id": "0.0-35.0-0.0"}}, {"uniqueid": "MTK0165:31N2WW6R9SXRU0ZZV308105G7MFF3E", "current_trial": 45, "dateTime": 1509472506468, "trialdata": {"rt": -1, "stimulus": "<p id=\"stim\">9</p>", "key_press": -1, "trial_type": "single-stim", "trial_index": 45, "time_elapsed": 388277, "internal_node_id": "0.0-35.0-1.0"}}, {"uniqueid": "MTK0165:31N2WW6R9SXRU0ZZV308105G7MFF3E", "current_trial": 46, "dateTime": 1509472507471, "trialdata": {"rt": -1, "stimulus": "<p id=\"stim\">8</p>", "key_press": -1, "trial_type": "single-stim", "trial_index": 46, "time_elapsed": 389279, "internal_node_id": "0.0-35.0-2.0"}}, {"uniqueid": "MTK0165:31N2WW6R9SXRU0ZZV308105G7MFF3E", "current_trial": 47, "dateTime": 1509472508472, "trialdata": {"rt": -1, "stimulus": "<p id=\"stim\">7</p>", "key_press": -1, "trial_type": "single-stim", "trial_index": 47, "time_elapsed": 390281, "internal_node_id": "0.0-35.0-3.0"}}, {"uniqueid": "MTK0165:31N2WW6R9SXRU0ZZV308105G7MFF3E", "current_trial": 48, "dateTime": 1509472509474, "trialdata": {"rt": -1, "stimulus": "<p id=\"stim\">6</p>", "key_press": -1, "trial_type": "single-stim", "trial_index": 48, "time_elapsed": 391282, "internal_node_id": "0.0-35.0-4.0"}}, {"uniqueid": "MTK0165:31N2WW6R9SXRU0ZZV308105G7MFF3E", "current_trial": 49, "dateTime": 1509472510476, "trialdata": {"rt": -1, "stimulus": "<p id=\"stim\">5</p>", "key_press": -1, "trial_type": "single-stim", "trial_index": 49, "time_elapsed": 392284, "internal_node_id": "0.0-35.0-5.0"}}, {"uniqueid": "MTK0165:31N2WW6R9SXRU0ZZV308105G7MFF3E", "current_trial": 50, "dateTime": 1509472511478, "trialdata": {"rt": -1, "stimulus": "<p id=\"stim\">4</p>", "key_press": -1, "trial_type": "single-stim", "trial_index": 50, "time_elapsed": 393286, "internal_node_id": "0.0-35.0-6.0"}}, {"uniqueid": "MTK0165:31N2WW6R9SXRU0ZZV308105G7MFF3E", "current_trial": 51, "dateTime": 1509472512480, "trialdata": {"rt": -1, "stimulus": "<p id=\"stim\">3</p>", "key_press": -1, "trial_type": "single-stim", "trial_index": 51, "time_elapsed": 394288, "internal_node_id": "0.0-35.0-7.0"}}, {"uniqueid": "MTK0165:31N2WW6R9SXRU0ZZV308105G7MFF3E", "current_trial": 52, "dateTime": 1509472513482, "trialdata": {"rt": -1, "stimulus": "<p id=\"stim\">2</p>", "key_press": -1, "trial_type": "single-stim", "trial_index": 52, "time_elapsed": 395291, "internal_node_id": "0.0-35.0-8.0"}}, {"uniqueid": "MTK0165:31N2WW6R9SXRU0ZZV308105G7MFF3E", "current_trial": 53, "dateTime": 1509472514485, "trialdata": {"rt": -1, "stimulus": "<p id=\"stim\">1</p>", "key_press": -1, "trial_type": "single-stim", "trial_index": 53, "time_elapsed": 396293, "internal_node_id": "0.0-35.0-9.0"}}, {"uniqueid": "MTK0165:31N2WW6R9SXRU0ZZV308105G7MFF3E", "current_trial": 54, "dateTime": 1509472515988, "trialdata": {"rt": -1, "stimulus": "<p id=\"stim\">+</p>", "key_press": -1, "type": "FIXATION", "trial_type": "single-stim", "trial_index": 54, "time_elapsed": 397796, "internal_node_id": "0.0-36.0-0.0"}}, {"uniqueid": "MTK0165:31N2WW6R9SXRU0ZZV308105G7MFF3E", "current_trial": 55, "dateTime": 1509472517190, "trialdata": {"rt": -1, "stimulus": "<p id=\"stim\">HOUND</p>", "key_press": -1, "type": "PRES_VIS", "word": "hound", "wordID": 723, "conditions": [18, 1200, "v", 18000], "trial": 1, "serialpos": 0, "trial_type": "single-stim", "trial_index": 55, "time_elapsed": 398999, "internal_node_id": "0.0-37.0"}}, {"uniqueid": "MTK0165:31N2WW6R9SXRU0ZZV308105G7MFF3E", "current_trial": 56, "dateTime": 1509472519581, "trialdata": {"rt": -1, "stimulus": "<p id=\"stim\">PLAYGROUND</p>", "key_press": -1, "type": "PRES_VIS", "word": "playground", "wordID": 1086, "conditions": [18, 1200, "v", 18000], "trial": 1, "serialpos": 1, "trial_type": "single-stim", "trial_index": 56, "time_elapsed": 401390, "internal_node_id": "0.0-38.0"}}, {"uniqueid": "MTK0165:31N2WW6R9SXRU0ZZV308105G7MFF3E", "current_trial": 57, "dateTime": 1509472521829, "trialdata": {"rt": -1, "stimulus": "<p id=\"stim\">MOTEL</p>", "key_press": -1, "type": "PRES_VIS", "word": "motel", "wordID": 918, "conditions": [18, 1200, "v", 18000], "trial": 1, "serialpos": 2, "trial_type": "single-stim", "trial_index": 57, "time_elapsed": 403637, "internal_node_id": "0.0-39.0"}}, {"uniqueid": "MTK0165:31N2WW6R9SXRU0ZZV308105G7MFF3E", "current_trial": 58, "dateTime": 1509472523971, "trialdata": {"rt": -1, "stimulus": "<p id=\"stim\">PREACHER</p>", "key_press": -1, "type": "PRES_VIS", "word": "preacher", "wordID": 1118, "conditions": [18, 1200, "v", 18000], "trial": 1, "serialpos": 3, "trial_type": "single-stim", "trial_index": 58, "time_elapsed": 405780, "internal_node_id": "0.0-40.0"}}, {"uniqueid": "MTK0165:31N2WW6R9SXRU0ZZV308105G7MFF3E", "current_trial": 59, "dateTime": 1509472526184, "trialdata": {"rt": -1, "stimulus": "<p id=\"stim\">HAND</p>", "key_press": -1, "type": "PRES_VIS", "word": "hand", "wordID": 682, "conditions": [18, 1200, "v", 18000], "trial": 1, "serialpos": 4, "trial_type": "single-stim", "trial_index": 59, "time_elapsed": 407993, "internal_node_id": "0.0-41.0"}}, {"uniqueid": "MTK0165:31N2WW6R9SXRU0ZZV308105G7MFF3E", "current_trial": 60, "dateTime": 1509472528246, "trialdata": {"rt": -1, "stimulus": "<p id=\"stim\">JUGGLER</p>", "key_press": -1, "type": "PRES_VIS", "word": "juggler", "wordID": 762, "conditions": [18, 1200, "v", 18000], "trial": 1, "serialpos": 5, "trial_type": "single-stim", "trial_index": 60, "time_elapsed": 410055, "internal_node_id": "0.0-42.0"}}, {"uniqueid": "MTK0165:31N2WW6R9SXRU0ZZV308105G7MFF3E", "current_trial": 61, "dateTime": 1509472530337, "trialdata": {"rt": -1, "stimulus": "<p id=\"stim\">BELLY</p>", "key_press": -1, "type": "PRES_VIS", "word": "belly", "wordID": 118, "conditions": [18, 1200, "v", 18000], "trial": 1, "serialpos": 6, "trial_type": "single-stim", "trial_index": 61, "time_elapsed": 412146, "internal_node_id": "0.0-43.0"}}, {"uniqueid": "MTK0165:31N2WW6R9SXRU0ZZV308105G7MFF3E", "current_trial": 62, "dateTime": 1509472532708, "trialdata": {"rt": -1, "stimulus": "<p id=\"stim\">KLEENEX</p>", "key_press": -1, "type": "PRES_VIS", "word": "kleenex", "wordID": 781, "conditions": [18, 1200, "v", 18000], "trial": 1, "serialpos": 7, "trial_type": "single-stim", "trial_index": 62, "time_elapsed": 414517, "internal_node_id": "0.0-44.0"}}, {"uniqueid": "MTK0165:31N2WW6R9SXRU0ZZV308105G7MFF3E", "current_trial": 63, "dateTime": 1509472534948, "trialdata": {"rt": -1, "stimulus": "<p id=\"stim\">TUNNEL</p>", "key_press": -1, "type": "PRES_VIS", "word": "tunnel", "wordID": 1518, "conditions": [18, 1200, "v", 18000], "trial": 1, "serialpos": 8, "trial_type": "single-stim", "trial_index": 63, "time_elapsed": 416757, "internal_node_id": "0.0-45.0"}}, {"uniqueid": "MTK0165:31N2WW6R9SXRU0ZZV308105G7MFF3E", "current_trial": 64, "dateTime": 1509472536970, "trialdata": {"rt": -1, "stimulus": "<p id=\"stim\">SPOON</p>", "key_press": -1, "type": "PRES_VIS", "word": "spoon", "wordID": 1356, "conditions": [18, 1200, "v", 18000], "trial": 1, "serialpos": 9, "trial_type": "single-stim", "trial_index": 64, "time_elapsed": 418778, "internal_node_id": "0.0-46.0"}}, {"uniqueid": "MTK0165:31N2WW6R9SXRU0ZZV308105G7MFF3E", "current_trial": 65, "dateTime": 1509472539239, "trialdata": {"rt": -1, "stimulus": "<p id=\"stim\">SUITCASE</p>", "key_press": -1, "type": "PRES_VIS", "word": "suitcase", "wordID": 1402, "conditions": [18, 1200, "v", 18000], "trial": 1, "serialpos": 10, "trial_type": "single-stim", "trial_index": 65, "time_elapsed": 421048, "internal_node_id": "0.0-47.0"}}, {"uniqueid": "MTK0165:31N2WW6R9SXRU0ZZV308105G7MFF3E", "current_trial": 66, "dateTime": 1509472541323, "trialdata": {"rt": -1, "stimulus": "<p id=\"stim\">SNACK</p>", "key_press": -1, "type": "PRES_VIS", "word": "snack", "wordID": 1330, "conditions": [18, 1200, "v", 18000], "trial": 1, "serialpos": 11, "trial_type": "single-stim", "trial_index": 66, "time_elapsed": 423132, "internal_node_id": "0.0-48.0"}}, {"uniqueid": "MTK0165:31N2WW6R9SXRU0ZZV308105G7MFF3E", "current_trial": 67, "dateTime": 1509472543413, "trialdata": {"rt": -1, "stimulus": "<p id=\"stim\">PROTON</p>", "key_press": -1, "type": "PRES_VIS", "word": "proton", "wordID": 1131, "conditions": [18, 1200, "v", 18000], "trial": 1, "serialpos": 12, "trial_type": "single-stim", "trial_index": 67, "time_elapsed": 425221, "internal_node_id": "0.0-49.0"}}, {"uniqueid": "MTK0165:31N2WW6R9SXRU0ZZV308105G7MFF3E", "current_trial": 68, "dateTime": 1509472545577, "trialdata": {"rt": -1, "stimulus": "<p id=\"stim\">COSTUME</p>", "key_press": -1, "type": "PRES_VIS", "word": "costume", "wordID": 382, "conditions": [18, 1200, "v", 18000], "trial": 1, "serialpos": 13, "trial_type": "single-stim", "trial_index": 68, "time_elapsed": 427383, "internal_node_id": "0.0-50.0"}}, {"uniqueid": "MTK0165:31N2WW6R9SXRU0ZZV308105G7MFF3E", "current_trial": 69, "dateTime": 1509472547975, "trialdata": {"rt": -1, "stimulus": "<p id=\"stim\">NEUTRON</p>", "key_press": -1, "type": "PRES_VIS", "word": "neutron", "wordID": 946, "conditions": [18, 1200, "v", 18000], "trial": 1, "serialpos": 14, "trial_type": "single-stim", "trial_index": 69, "time_elapsed": 429784, "internal_node_id": "0.0-51.0"}}, {"uniqueid": "MTK0165:31N2WW6R9SXRU0ZZV308105G7MFF3E", "current_trial": 70, "dateTime": 1509472550233, "trialdata": {"rt": -1, "stimulus": "<p id=\"stim\">CHAUFFEUR</p>", "key_press": -1, "type": "PRES_VIS", "word": "chauffeur", "wordID": 282, "conditions": [18, 1200, "v", 18000], "trial": 1, "serialpos": 15, "trial_type": "single-stim", "trial_index": 70, "time_elapsed": 432042, "internal_node_id": "0.0-52.0"}}, {"uniqueid": "MTK0165:31N2WW6R9SXRU0ZZV308105G7MFF3E", "current_trial": 71, "dateTime": 1509472552571, "trialdata": {"rt": -1, "stimulus": "<p id=\"stim\">VALLEY</p>", "key_press": -1, "type": "PRES_VIS", "word": "valley", "wordID": 1544, "conditions": [18, 1200, "v", 18000], "trial": 1, "serialpos": 16, "trial_type": "single-stim", "trial_index": 71, "time_elapsed": 434379, "internal_node_id": "0.0-53.0"}}, {"uniqueid": "MTK0165:31N2WW6R9SXRU0ZZV308105G7MFF3E", "current_trial": 72, "dateTime": 1509472554803, "trialdata": {"rt": -1, "stimulus": "<p id=\"stim\">PERMIT</p>", "key_press": -1, "type": "PRES_VIS", "word": "permit", "wordID": 1050, "conditions": [18, 1200, "v", 18000], "trial": 1, "serialpos": 17, "trial_type": "single-stim", "trial_index": 72, "time_elapsed": 436612, "internal_node_id": "0.0-54.0"}}, {"uniqueid": "MTK0165:31N2WW6R9SXRU0ZZV308105G7MFF3E", "current_trial": 73, "dateTime": 1509472557170, "trialdata": {"rt": -1, "stimulus": "", "key_press": -1, "type": "PRE_RECALL_DELAY", "trial_type": "single-stim", "trial_index": 73, "time_elapsed": 438979, "internal_node_id": "0.0-55.0-0.0"}}, {"uniqueid": "MTK0165:31N2WW6R9SXRU0ZZV308105G7MFF3E", "current_trial": 74, "dateTime": 1509472557672, "trialdata": {"rt": -1000, "stimulus": "/static/audio/400Hz.wav", "key_press": -1, "type": "PRE_RECALL_ALERT", "trial_type": "single-audio", "trial_index": 74, "time_elapsed": 439481, "internal_node_id": "0.0-56.0"}}, {"uniqueid": "MTK0165:31N2WW6R9SXRU0ZZV308105G7MFF3E", "current_trial": 75, "dateTime": 1509472617677, "trialdata": {"rt": [3484, 5306, 7013, 13068, 20253, 27012, 31114, 39196, 41916], "recwords": ["permit", "hand", "belly", "playground", "choufrure", "suitcase", "costume", "proton", "nuetron"], "type": "FREE_RECALL", "conditions": [18, 1200, "v", 18000], "trial": 1, "trial_type": "free-recall", "trial_index": 75, "time_elapsed": 499485, "internal_node_id": "0.0-57.0-0.0"}}, {"uniqueid": "MTK0165:31N2WW6R9SXRU0ZZV308105G7MFF3E", "current_trial": 76, "dateTime": 1509472623057, "trialdata": {"rt": 3377, "key_press": 32, "type": "INSTRUCTIONS", "trial_type": "text", "trial_index": 76, "time_elapsed": 504865, "internal_node_id": "0.0-58.0"}}, {"uniqueid": "MTK0165:31N2WW6R9SXRU0ZZV308105G7MFF3E", "current_trial": 77, "dateTime": 1509472648062, "trialdata": {"rt": [2410, 4535, 10231, 12655, 16197, 18144], "responses": ["19", "18", "17", "13", "19", "15"], "num1": [5, 4, 6, 6, 7, 8, 4], "num2": [9, 6, 8, 1, 7, 5, 8], "num3": [5, 8, 3, 6, 5, 4, 7], "type": "DISTRACTOR", "conditions": [24, 1600, "a", 24000], "trial": 2, "trial_type": "math-distractor", "trial_index": 77, "time_elapsed": 529870, "internal_node_id": "0.0-59.0"}}, {"uniqueid": "MTK0165:31N2WW6R9SXRU0ZZV308105G7MFF3E", "current_trial": 78, "dateTime": 1509472651065, "trialdata": {"rt": -1, "stimulus": "<p id=\"stim\">10</p>", "key_press": -1, "trial_type": "single-stim", "trial_index": 78, "time_elapsed": 532874, "internal_node_id": "0.0-60.0-0.0"}}, {"uniqueid": "MTK0165:31N2WW6R9SXRU0ZZV308105G7MFF3E", "current_trial": 79, "dateTime": 1509472652067, "trialdata": {"rt": -1, "stimulus": "<p id=\"stim\">9</p>", "key_press": -1, "trial_type": "single-stim", "trial_index": 79, "time_elapsed": 533876, "internal_node_id": "0.0-60.0-1.0"}}, {"uniqueid": "MTK0165:31N2WW6R9SXRU0ZZV308105G7MFF3E", "current_trial": 80, "dateTime": 1509472653070, "trialdata": {"rt": -1, "stimulus": "<p id=\"stim\">8</p>", "key_press": -1, "trial_type": "single-stim", "trial_index": 80, "time_elapsed": 534879, "internal_node_id": "0.0-60.0-2.0"}}, {"uniqueid": "MTK0165:31N2WW6R9SXRU0ZZV308105G7MFF3E", "current_trial": 81, "dateTime": 1509472654071, "trialdata": {"rt": -1, "stimulus": "<p id=\"stim\">7</p>", "key_press": -1, "trial_type": "single-stim", "trial_index": 81, "time_elapsed": 535880, "internal_node_id": "0.0-60.0-3.0"}}, {"uniqueid": "MTK0165:31N2WW6R9SXRU0ZZV308105G7MFF3E", "current_trial": 82, "dateTime": 1509472655073, "trialdata": {"rt": -1, "stimulus": "<p id=\"stim\">6</p>", "key_press": -1, "trial_type": "single-stim", "trial_index": 82, "time_elapsed": 536882, "internal_node_id": "0.0-60.0-4.0"}}, {"uniqueid": "MTK0165:31N2WW6R9SXRU0ZZV308105G7MFF3E", "current_trial": 83, "dateTime": 1509472656075, "trialdata": {"rt": -1, "stimulus": "<p id=\"stim\">5</p>", "key_press": -1, "trial_type": "single-stim", "trial_index": 83, "time_elapsed": 537884, "internal_node_id": "0.0-60.0-5.0"}}, {"uniqueid": "MTK0165:31N2WW6R9SXRU0ZZV308105G7MFF3E", "current_trial": 84, "dateTime": 1509472657077, "trialdata": {"rt": -1, "stimulus": "<p id=\"stim\">4</p>", "key_press": -1, "trial_type": "single-stim", "trial_index": 84, "time_elapsed": 538885, "internal_node_id": "0.0-60.0-6.0"}}, {"uniqueid": "MTK0165:31N2WW6R9SXRU0ZZV308105G7MFF3E", "current_trial": 85, "dateTime": 1509472658082, "trialdata": {"rt": -1, "stimulus": "<p id=\"stim\">3</p>", "key_press": -1, "trial_type": "single-stim", "trial_index": 85, "time_elapsed": 539888, "internal_node_id": "0.0-60.0-7.0"}}, {"uniqueid": "MTK0165:31N2WW6R9SXRU0ZZV308105G7MFF3E", "current_trial": 86, "dateTime": 1509472659084, "trialdata": {"rt": -1, "stimulus": "<p id=\"stim\">2</p>", "key_press": -1, "trial_type": "single-stim", "trial_index": 86, "time_elapsed": 540892, "internal_node_id": "0.0-60.0-8.0"}}, {"uniqueid": "MTK0165:31N2WW6R9SXRU0ZZV308105G7MFF3E", "current_trial": 87, "dateTime": 1509472660085, "trialdata": {"rt": -1, "stimulus": "<p id=\"stim\">1</p>", "key_press": -1, "trial_type": "single-stim", "trial_index": 87, "time_elapsed": 541893, "internal_node_id": "0.0-60.0-9.0"}}, {"uniqueid": "MTK0165:31N2WW6R9SXRU0ZZV308105G7MFF3E", "current_trial": 88, "dateTime": 1509472661587, "trialdata": {"rt": -1, "stimulus": "<p id=\"stim\">+</p>", "key_press": -1, "type": "FIXATION", "trial_type": "single-stim", "trial_index": 88, "time_elapsed": 543396, "internal_node_id": "0.0-61.0-0.0"}}, {"uniqueid": "MTK0165:31N2WW6R9SXRU0ZZV308105G7MFF3E", "current_trial": 89, "dateTime": 1509472664385, "trialdata": {"rt": -1000, "stimulus": "/static/audio/wordpool/FRAGRANCE.wav", "key_press": -1, "type": "PRES_AUD", "word": "fragrance", "wordID": 598, "conditions": [24, 1600, "a", 24000], "trial": 2, "serialpos": 0, "trial_type": "single-audio", "trial_index": 89, "time_elapsed": 546194, "internal_node_id": "0.0-62.0"}}, {"uniqueid": "MTK0165:31N2WW6R9SXRU0ZZV308105G7MFF3E", "current_trial": 90, "dateTime": 1509472667162, "trialdata": {"rt": -1000, "stimulus": "/static/audio/wordpool/PERFUME.wav", "key_press": -1, "type": "PRES_AUD", "word": "perfume", "wordID": 1048, "conditions": [24, 1600, "a", 24000], "trial": 2, "serialpos": 1, "trial_type": "single-audio", "trial_index": 90, "time_elapsed": 548971, "internal_node_id": "0.0-63.0"}}, {"uniqueid": "MTK0165:31N2WW6R9SXRU0ZZV308105G7MFF3E", "current_trial": 91, "dateTime": 1509472669930, "trialdata": {"rt": -1000, "stimulus": "/static/audio/wordpool/RACKET.wav", "key_press": -1, "type": "PRES_AUD", "word": "racket", "wordID": 1154, "conditions": [24, 1600, "a", 24000], "trial": 2, "serialpos": 2, "trial_type": "single-audio", "trial_index": 91, "time_elapsed": 551739, "internal_node_id": "0.0-64.0"}}, {"uniqueid": "MTK0165:31N2WW6R9SXRU0ZZV308105G7MFF3E", "current_trial": 92, "dateTime": 1509472672597, "trialdata": {"rt": -1000, "stimulus": "/static/audio/wordpool/TURNIP.wav", "key_press": -1, "type": "PRES_AUD", "word": "turnip", "wordID": 1520, "conditions": [24, 1600, "a", 24000], "trial": 2, "serialpos": 3, "trial_type": "single-audio", "trial_index": 92, "time_elapsed": 554406, "internal_node_id": "0.0-65.0"}}, {"uniqueid": "MTK0165:31N2WW6R9SXRU0ZZV308105G7MFF3E", "current_trial": 93, "dateTime": 1509472675074, "trialdata": {"rt": -1000, "stimulus": "/static/audio/wordpool/GLOVE.wav", "key_press": -1, "type": "PRES_AUD", "word": "glove", "wordID": 641, "conditions": [24, 1600, "a", 24000], "trial": 2, "serialpos": 4, "trial_type": "single-audio", "trial_index": 93, "time_elapsed": 556883, "internal_node_id": "0.0-66.0"}}, {"uniqueid": "MTK0165:31N2WW6R9SXRU0ZZV308105G7MFF3E", "current_trial": 94, "dateTime": 1509472677555, "trialdata": {"rt": -1000, "stimulus": "/static/audio/wordpool/EMPIRE.wav", "key_press": -1, "type": "PRES_AUD", "word": "empire", "wordID": 529, "conditions": [24, 1600, "a", 24000], "trial": 2, "serialpos": 5, "trial_type": "single-audio", "trial_index": 94, "time_elapsed": 559364, "internal_node_id": "0.0-67.0"}}, {"uniqueid": "MTK0165:31N2WW6R9SXRU0ZZV308105G7MFF3E", "current_trial": 95, "dateTime": 1509472680198, "trialdata": {"rt": -1000, "stimulus": "/static/audio/wordpool/BUTCHER.wav", "key_press": -1, "type": "PRES_AUD", "word": "butcher", "wordID": 202, "conditions": [24, 1600, "a", 24000], "trial": 2, "serialpos": 6, "trial_type": "single-audio", "trial_index": 95, "time_elapsed": 562006, "internal_node_id": "0.0-68.0"}}, {"uniqueid": "MTK0165:31N2WW6R9SXRU0ZZV308105G7MFF3E", "current_trial": 96, "dateTime": 1509472682857, "trialdata": {"rt": -1000, "stimulus": "/static/audio/wordpool/KNIFE.wav", "key_press": -1, "type": "PRES_AUD", "word": "knife", "wordID": 784, "conditions": [24, 1600, "a", 24000], "trial": 2, "serialpos": 7, "trial_type": "single-audio", "trial_index": 96, "time_elapsed": 564665, "internal_node_id": "0.0-69.0"}}, {"uniqueid": "MTK0165:31N2WW6R9SXRU0ZZV308105G7MFF3E", "current_trial": 97, "dateTime": 1509472685285, "trialdata": {"rt": -1000, "stimulus": "/static/audio/wordpool/SCARF.wav", "key_press": -1, "type": "PRES_AUD", "word": "scarf", "wordID": 1245, "conditions": [24, 1600, "a", 24000], "trial": 2, "serialpos": 8, "trial_type": "single-audio", "trial_index": 97, "time_elapsed": 567094, "internal_node_id": "0.0-70.0"}}, {"uniqueid": "MTK0165:31N2WW6R9SXRU0ZZV308105G7MFF3E", "current_trial": 98, "dateTime": 1509472688074, "trialdata": {"rt": -1000, "stimulus": "/static/audio/wordpool/KEEPER.wav", "key_press": -1, "type": "PRES_AUD", "word": "keeper", "wordID": 768, "conditions": [24, 1600, "a", 24000], "trial": 2, "serialpos": 9, "trial_type": "single-audio", "trial_index": 98, "time_elapsed": 569883, "internal_node_id": "0.0-71.0"}}, {"uniqueid": "MTK0165:31N2WW6R9SXRU0ZZV308105G7MFF3E", "current_trial": 99, "dateTime": 1509472690519, "trialdata": {"rt": -1000, "stimulus": "/static/audio/wordpool/NAPKIN.wav", "key_press": -1, "type": "PRES_AUD", "word": "napkin", "wordID": 936, "conditions": [24, 1600, "a", 24000], "trial": 2, "serialpos": 10, "trial_type": "single-audio", "trial_index": 99, "time_elapsed": 572328, "internal_node_id": "0.0-72.0"}}, {"uniqueid": "MTK0165:31N2WW6R9SXRU0ZZV308105G7MFF3E", "current_trial": 100, "dateTime": 1509472693074, "trialdata": {"rt": -1000, "stimulus": "/static/audio/wordpool/BLOUSE.wav", "key_press": -1, "type": "PRES_AUD", "word": "blouse", "wordID": 138, "conditions": [24, 1600, "a", 24000], "trial": 2, "serialpos": 11, "trial_type": "single-audio", "trial_index": 100, "time_elapsed": 574883, "internal_node_id": "0.0-73.0"}}, {"uniqueid": "MTK0165:31N2WW6R9SXRU0ZZV308105G7MFF3E", "current_trial": 101, "dateTime": 1509472695649, "trialdata": {"rt": -1000, "stimulus": "/static/audio/wordpool/DOUGHNUT.wav", "key_press": -1, "type": "PRES_AUD", "word": "doughnut", "wordID": 489, "conditions": [24, 1600, "a", 24000], "trial": 2, "serialpos": 12, "trial_type": "single-audio", "trial_index": 101, "time_elapsed": 577457, "internal_node_id": "0.0-74.0"}}, {"uniqueid": "MTK0165:31N2WW6R9SXRU0ZZV308105G7MFF3E", "current_trial": 102, "dateTime": 1509472698149, "trialdata": {"rt": -1000, "stimulus": "/static/audio/wordpool/OYSTER.wav", "key_press": -1, "type": "PRES_AUD", "word": "oyster", "wordID": 994, "conditions": [24, 1600, "a", 24000], "trial": 2, "serialpos": 13, "trial_type": "single-audio", "trial_index": 102, "time_elapsed": 579957, "internal_node_id": "0.0-75.0"}}, {"uniqueid": "MTK0165:31N2WW6R9SXRU0ZZV308105G7MFF3E", "current_trial": 103, "dateTime": 1509472700693, "trialdata": {"rt": -1000, "stimulus": "/static/audio/wordpool/BEAKER.wav", "key_press": -1, "type": "PRES_AUD", "word": "beaker", "wordID": 103, "conditions": [24, 1600, "a", 24000], "trial": 2, "serialpos": 14, "trial_type": "single-audio", "trial_index": 103, "time_elapsed": 582502, "internal_node_id": "0.0-76.0"}}, {"uniqueid": "MTK0165:31N2WW6R9SXRU0ZZV308105G7MFF3E", "current_trial": 104, "dateTime": 1509472703331, "trialdata": {"rt": -1000, "stimulus": "/static/audio/wordpool/RUST.wav", "key_press": -1, "type": "PRES_AUD", "word": "rust", "wordID": 1218, "conditions": [24, 1600, "a", 24000], "trial": 2, "serialpos": 15, "trial_type": "single-audio", "trial_index": 104, "time_elapsed": 585140, "internal_node_id": "0.0-77.0"}}, {"uniqueid": "MTK0165:31N2WW6R9SXRU0ZZV308105G7MFF3E", "current_trial": 105, "dateTime": 1509472705749, "trialdata": {"rt": -1000, "stimulus": "/static/audio/wordpool/GARLIC.wav", "key_press": -1, "type": "PRES_AUD", "word": "garlic", "wordID": 623, "conditions": [24, 1600, "a", 24000], "trial": 2, "serialpos": 16, "trial_type": "single-audio", "trial_index": 105, "time_elapsed": 587558, "internal_node_id": "0.0-78.0"}}, {"uniqueid": "MTK0165:31N2WW6R9SXRU0ZZV308105G7MFF3E", "current_trial": 106, "dateTime": 1509472708512, "trialdata": {"rt": -1000, "stimulus": "/static/audio/wordpool/NIGHTGOWN.wav", "key_press": -1, "type": "PRES_AUD", "word": "nightgown", "wordID": 952, "conditions": [24, 1600, "a", 24000], "trial": 2, "serialpos": 17, "trial_type": "single-audio", "trial_index": 106, "time_elapsed": 590321, "internal_node_id": "0.0-79.0"}}, {"uniqueid": "MTK0165:31N2WW6R9SXRU0ZZV308105G7MFF3E", "current_trial": 107, "dateTime": 1509472711114, "trialdata": {"rt": -1000, "stimulus": "/static/audio/wordpool/PEACH.wav", "key_press": -1, "type": "PRES_AUD", "word": "peach", "wordID": 1030, "conditions": [24, 1600, "a", 24000], "trial": 2, "serialpos": 18, "trial_type": "single-audio", "trial_index": 107, "time_elapsed": 592923, "internal_node_id": "0.0-80.0"}}, {"uniqueid": "MTK0165:31N2WW6R9SXRU0ZZV308105G7MFF3E", "current_trial": 108, "dateTime": 1509472713707, "trialdata": {"rt": -1000, "stimulus": "/static/audio/wordpool/POCKET.wav", "key_press": -1, "type": "PRES_AUD", "word": "pocket", "wordID": 1092, "conditions": [24, 1600, "a", 24000], "trial": 2, "serialpos": 19, "trial_type": "single-audio", "trial_index": 108, "time_elapsed": 595516, "internal_node_id": "0.0-81.0"}}, {"uniqueid": "MTK0165:31N2WW6R9SXRU0ZZV308105G7MFF3E", "current_trial": 109, "dateTime": 1509472716452, "trialdata": {"rt": -1000, "stimulus": "/static/audio/wordpool/MUFFIN.wav", "key_press": -1, "type": "PRES_AUD", "word": "muffin", "wordID": 928, "conditions": [24, 1600, "a", 24000], "trial": 2, "serialpos": 20, "trial_type": "single-audio", "trial_index": 109, "time_elapsed": 598261, "internal_node_id": "0.0-82.0"}}, {"uniqueid": "MTK0165:31N2WW6R9SXRU0ZZV308105G7MFF3E", "current_trial": 110, "dateTime": 1509472719162, "trialdata": {"rt": -1000, "stimulus": "/static/audio/wordpool/MILK.wav", "key_press": -1, "type": "PRES_AUD", "word": "milk", "wordID": 894, "conditions": [24, 1600, "a", 24000], "trial": 2, "serialpos": 21, "trial_type": "single-audio", "trial_index": 110, "time_elapsed": 600970, "internal_node_id": "0.0-83.0"}}, {"uniqueid": "MTK0165:31N2WW6R9SXRU0ZZV308105G7MFF3E", "current_trial": 111, "dateTime": 1509472721640, "trialdata": {"rt": -1000, "stimulus": "/static/audio/wordpool/CRIB.wav", "key_press": -1, "type": "PRES_AUD", "word": "crib", "wordID": 406, "conditions": [24, 1600, "a", 24000], "trial": 2, "serialpos": 22, "trial_type": "single-audio", "trial_index": 111, "time_elapsed": 603449, "internal_node_id": "0.0-84.0"}}, {"uniqueid": "MTK0165:31N2WW6R9SXRU0ZZV308105G7MFF3E", "current_trial": 112, "dateTime": 1509472724248, "trialdata": {"rt": -1000, "stimulus": "/static/audio/wordpool/MATTRESS.wav", "key_press": -1, "type": "PRES_AUD", "word": "mattress", "wordID": 878, "conditions": [24, 1600, "a", 24000], "trial": 2, "serialpos": 23, "trial_type": "single-audio", "trial_index": 112, "time_elapsed": 606057, "internal_node_id": "0.0-85.0"}}, {"uniqueid": "MTK0165:31N2WW6R9SXRU0ZZV308105G7MFF3E", "current_trial": 113, "dateTime": 1509472725557, "trialdata": {"rt": -1, "stimulus": "", "key_press": -1, "type": "PRE_RECALL_DELAY", "trial_type": "single-stim", "trial_index": 113, "time_elapsed": 607366, "internal_node_id": "0.0-86.0-0.0"}}, {"uniqueid": "MTK0165:31N2WW6R9SXRU0ZZV308105G7MFF3E", "current_trial": 114, "dateTime": 1509472726062, "trialdata": {"rt": -1000, "stimulus": "/static/audio/400Hz.wav", "key_press": -1, "type": "PRE_RECALL_ALERT", "trial_type": "single-audio", "trial_index": 114, "time_elapsed": 607871, "internal_node_id": "0.0-87.0"}}, {"uniqueid": "MTK0165:31N2WW6R9SXRU0ZZV308105G7MFF3E", "current_trial": 115, "dateTime": 1509472786071, "trialdata": {"rt": [3953, 5947, 8655, 11468, 12905, 18806], "recwords": ["matress", "crib", "blouse", "knife", "butcher", "glove"], "type": "FREE_RECALL", "conditions": [24, 1600, "a", 24000], "trial": 2, "trial_type": "free-recall", "trial_index": 115, "time_elapsed": 667875, "internal_node_id": "0.0-88.0-0.0"}}, {"uniqueid": "MTK0165:31N2WW6R9SXRU0ZZV308105G7MFF3E", "current_trial": 116, "dateTime": 1509472796874, "trialdata": {"rt": 8800, "key_press": 13, "type": "INSTRUCTIONS", "trial_type": "text", "trial_index": 116, "time_elapsed": 678683, "internal_node_id": "0.0-89.0"}}, {"uniqueid": "MTK0165:31N2WW6R9SXRU0ZZV308105G7MFF3E", "current_trial": 117, "dateTime": 1509472822880, "trialdata": {"rt": [12821, 14521, 16852, 19900, 22975], "responses": ["17", "15", "17", "11", "12"], "num1": [4, 7, 7, 6, 1, 2], "num2": [8, 1, 5, 2, 5, 7], "num3": [5, 7, 5, 3, 6, 7], "type": "DISTRACTOR", "conditions": [24, 800, "v", 24000], "trial": 3, "trial_type": "math-distractor", "trial_index": 117, "time_elapsed": 704689, "internal_node_id": "0.0-90.0"}}, {"uniqueid": "MTK0165:31N2WW6R9SXRU0ZZV308105G7MFF3E", "current_trial": 118, "dateTime": 1509472825884, "trialdata": {"rt": -1, "stimulus": "<p id=\"stim\">10</p>", "key_press": -1, "trial_type": "single-stim", "trial_index": 118, "time_elapsed": 707693, "internal_node_id": "0.0-91.0-0.0"}}, {"uniqueid": "MTK0165:31N2WW6R9SXRU0ZZV308105G7MFF3E", "current_trial": 119, "dateTime": 1509472826886, "trialdata": {"rt": -1, "stimulus": "<p id=\"stim\">9</p>", "key_press": -1, "trial_type": "single-stim", "trial_index": 119, "time_elapsed": 708695, "internal_node_id": "0.0-91.0-1.0"}}, {"uniqueid": "MTK0165:31N2WW6R9SXRU0ZZV308105G7MFF3E", "current_trial": 120, "dateTime": 1509472827889, "trialdata": {"rt": -1, "stimulus": "<p id=\"stim\">8</p>", "key_press": -1, "trial_type": "single-stim", "trial_index": 120, "time_elapsed": 709698, "internal_node_id": "0.0-91.0-2.0"}}, {"uniqueid": "MTK0165:31N2WW6R9SXRU0ZZV308105G7MFF3E", "current_trial": 121, "dateTime": 1509472828891, "trialdata": {"rt": -1, "stimulus": "<p id=\"stim\">7</p>", "key_press": -1, "trial_type": "single-stim", "trial_index": 121, "time_elapsed": 710699, "internal_node_id": "0.0-91.0-3.0"}}, {"uniqueid": "MTK0165:31N2WW6R9SXRU0ZZV308105G7MFF3E", "current_trial": 122, "dateTime": 1509472829893, "trialdata": {"rt": -1, "stimulus": "<p id=\"stim\">6</p>", "key_press": -1, "trial_type": "single-stim", "trial_index": 122, "time_elapsed": 711701, "internal_node_id": "0.0-91.0-4.0"}}, {"uniqueid": "MTK0165:31N2WW6R9SXRU0ZZV308105G7MFF3E", "current_trial": 123, "dateTime": 1509472830893, "trialdata": {"rt": -1, "stimulus": "<p id=\"stim\">5</p>", "key_press": -1, "trial_type": "single-stim", "trial_index": 123, "time_elapsed": 712701, "internal_node_id": "0.0-91.0-5.0"}}, {"uniqueid": "MTK0165:31N2WW6R9SXRU0ZZV308105G7MFF3E", "current_trial": 124, "dateTime": 1509472831895, "trialdata": {"rt": -1, "stimulus": "<p id=\"stim\">4</p>", "key_press": -1, "trial_type": "single-stim", "trial_index": 124, "time_elapsed": 713704, "internal_node_id": "0.0-91.0-6.0"}}, {"uniqueid": "MTK0165:31N2WW6R9SXRU0ZZV308105G7MFF3E", "current_trial": 125, "dateTime": 1509472832897, "trialdata": {"rt": -1, "stimulus": "<p id=\"stim\">3</p>", "key_press": -1, "trial_type": "single-stim", "trial_index": 125, "time_elapsed": 714706, "internal_node_id": "0.0-91.0-7.0"}}, {"uniqueid": "MTK0165:31N2WW6R9SXRU0ZZV308105G7MFF3E", "current_trial": 126, "dateTime": 1509472833900, "trialdata": {"rt": -1, "stimulus": "<p id=\"stim\">2</p>", "key_press": -1, "trial_type": "single-stim", "trial_index": 126, "time_elapsed": 715708, "internal_node_id": "0.0-91.0-8.0"}}, {"uniqueid": "MTK0165:31N2WW6R9SXRU0ZZV308105G7MFF3E", "current_trial": 127, "dateTime": 1509472834902, "trialdata": {"rt": -1, "stimulus": "<p id=\"stim\">1</p>", "key_press": -1, "trial_type": "single-stim", "trial_index": 127, "time_elapsed": 716710, "internal_node_id": "0.0-91.0-9.0"}}, {"uniqueid": "MTK0165:31N2WW6R9SXRU0ZZV308105G7MFF3E", "current_trial": 128, "dateTime": 1509472836405, "trialdata": {"rt": -1, "stimulus": "<p id=\"stim\">+</p>", "key_press": -1, "type": "FIXATION", "trial_type": "single-stim", "trial_index": 128, "time_elapsed": 718214, "internal_node_id": "0.0-92.0-0.0"}}, {"uniqueid": "MTK0165:31N2WW6R9SXRU0ZZV308105G7MFF3E", "current_trial": 129, "dateTime": 1509472837206, "trialdata": {"rt": -1, "stimulus": "<p id=\"stim\">BREAST</p>", "key_press": -1, "type": "PRES_VIS", "word": "breast", "wordID": 170, "conditions": [24, 800, "v", 24000], "trial": 3, "serialpos": 0, "trial_type": "single-stim", "trial_index": 129, "time_elapsed": 719015, "internal_node_id": "0.0-93.0"}}, {"uniqueid": "MTK0165:31N2WW6R9SXRU0ZZV308105G7MFF3E", "current_trial": 130, "dateTime": 1509472838867, "trialdata": {"rt": -1, "stimulus": "<p id=\"stim\">HIKER</p>", "key_press": -1, "type": "PRES_VIS", "word": "hiker", "wordID": 707, "conditions": [24, 800, "v", 24000], "trial": 3, "serialpos": 1, "trial_type": "single-stim", "trial_index": 130, "time_elapsed": 720675, "internal_node_id": "0.0-94.0"}}, {"uniqueid": "MTK0165:31N2WW6R9SXRU0ZZV308105G7MFF3E", "current_trial": 131, "dateTime": 1509472840572, "trialdata": {"rt": -1, "stimulus": "<p id=\"stim\">LOVER</p>", "key_press": -1, "type": "PRES_VIS", "word": "lover", "wordID": 845, "conditions": [24, 800, "v", 24000], "trial": 3, "serialpos": 2, "trial_type": "single-stim", "trial_index": 131, "time_elapsed": 722381, "internal_node_id": "0.0-95.0"}}, {"uniqueid": "MTK0165:31N2WW6R9SXRU0ZZV308105G7MFF3E", "current_trial": 132, "dateTime": 1509472842543, "trialdata": {"rt": -1, "stimulus": "<p id=\"stim\">BLENDER</p>", "key_press": -1, "type": "PRES_VIS", "word": "blender", "wordID": 135, "conditions": [24, 800, "v", 24000], "trial": 3, "serialpos": 3, "trial_type": "single-stim", "trial_index": 132, "time_elapsed": 724352, "internal_node_id": "0.0-96.0"}}, {"uniqueid": "MTK0165:31N2WW6R9SXRU0ZZV308105G7MFF3E", "current_trial": 133, "dateTime": 1509472844394, "trialdata": {"rt": -1, "stimulus": "<p id=\"stim\">FOX</p>", "key_press": -1, "type": "PRES_VIS", "word": "fox", "wordID": 597, "conditions": [24, 800, "v", 24000], "trial": 3, "serialpos": 4, "trial_type": "single-stim", "trial_index": 133, "time_elapsed": 726202, "internal_node_id": "0.0-97.0"}}, {"uniqueid": "MTK0165:31N2WW6R9SXRU0ZZV308105G7MFF3E", "current_trial": 134, "dateTime": 1509472846355, "trialdata": {"rt": -1, "stimulus": "<p id=\"stim\">LIZARD</p>", "key_press": -1, "type": "PRES_VIS", "word": "lizard", "wordID": 833, "conditions": [24, 800, "v", 24000], "trial": 3, "serialpos": 5, "trial_type": "single-stim", "trial_index": 134, "time_elapsed": 728163, "internal_node_id": "0.0-98.0"}}, {"uniqueid": "MTK0165:31N2WW6R9SXRU0ZZV308105G7MFF3E", "current_trial": 135, "dateTime": 1509472848294, "trialdata": {"rt": -1, "stimulus": "<p id=\"stim\">JURY</p>", "key_press": -1, "type": "PRES_VIS", "word": "jury", "wordID": 765, "conditions": [24, 800, "v", 24000], "trial": 3, "serialpos": 6, "trial_type": "single-stim", "trial_index": 135, "time_elapsed": 730103, "internal_node_id": "0.0-99.0"}}, {"uniqueid": "MTK0165:31N2WW6R9SXRU0ZZV308105G7MFF3E", "current_trial": 136, "dateTime": 1509472850047, "trialdata": {"rt": -1, "stimulus": "<p id=\"stim\">PIZZA</p>", "key_press": -1, "type": "PRES_VIS", "word": "pizza", "wordID": 1078, "conditions": [24, 800, "v", 24000], "trial": 3, "serialpos": 7, "trial_type": "single-stim", "trial_index": 136, "time_elapsed": 731856, "internal_node_id": "0.0-100.0"}}, {"uniqueid": "MTK0165:31N2WW6R9SXRU0ZZV308105G7MFF3E", "current_trial": 137, "dateTime": 1509472851820, "trialdata": {"rt": -1, "stimulus": "<p id=\"stim\">BUNNY</p>", "key_press": -1, "type": "PRES_VIS", "word": "bunny", "wordID": 197, "conditions": [24, 800, "v", 24000], "trial": 3, "serialpos": 8, "trial_type": "single-stim", "trial_index": 137, "time_elapsed": 733629, "internal_node_id": "0.0-101.0"}}, {"uniqueid": "MTK0165:31N2WW6R9SXRU0ZZV308105G7MFF3E", "current_trial": 138, "dateTime": 1509472853531, "trialdata": {"rt": -1, "stimulus": "<p id=\"stim\">STONE</p>", "key_press": -1, "type": "PRES_VIS", "word": "stone", "wordID": 1384, "conditions": [24, 800, "v", 24000], "trial": 3, "serialpos": 9, "trial_type": "single-stim", "trial_index": 138, "time_elapsed": 735339, "internal_node_id": "0.0-102.0"}}, {"uniqueid": "MTK0165:31N2WW6R9SXRU0ZZV308105G7MFF3E", "current_trial": 139, "dateTime": 1509472855350, "trialdata": {"rt": -1, "stimulus": "<p id=\"stim\">SKILLET</p>", "key_press": -1, "type": "PRES_VIS", "word": "skillet", "wordID": 1316, "conditions": [24, 800, "v", 24000], "trial": 3, "serialpos": 10, "trial_type": "single-stim", "trial_index": 139, "time_elapsed": 737159, "internal_node_id": "0.0-103.0"}}, {"uniqueid": "MTK0165:31N2WW6R9SXRU0ZZV308105G7MFF3E", "current_trial": 140, "dateTime": 1509472856977, "trialdata": {"rt": -1, "stimulus": "<p id=\"stim\">SALT</p>", "key_press": -1, "type": "PRES_VIS", "word": "salt", "wordID": 1228, "conditions": [24, 800, "v", 24000], "trial": 3, "serialpos": 11, "trial_type": "single-stim", "trial_index": 140, "time_elapsed": 738785, "internal_node_id": "0.0-104.0"}}, {"uniqueid": "MTK0165:31N2WW6R9SXRU0ZZV308105G7MFF3E", "current_trial": 141, "dateTime": 1509472858778, "trialdata": {"rt": -1, "stimulus": "<p id=\"stim\">FLOWER</p>", "key_press": -1, "type": "PRES_VIS", "word": "flower", "wordID": 583, "conditions": [24, 800, "v", 24000], "trial": 3, "serialpos": 12, "trial_type": "single-stim", "trial_index": 141, "time_elapsed": 740587, "internal_node_id": "0.0-105.0"}}, {"uniqueid": "MTK0165:31N2WW6R9SXRU0ZZV308105G7MFF3E", "current_trial": 142, "dateTime": 1509472860656, "trialdata": {"rt": -1, "stimulus": "<p id=\"stim\">CLOTHES</p>", "key_press": -1, "type": "PRES_VIS", "word": "clothes", "wordID": 326, "conditions": [24, 800, "v", 24000], "trial": 3, "serialpos": 13, "trial_type": "single-stim", "trial_index": 142, "time_elapsed": 742465, "internal_node_id": "0.0-106.0"}}, {"uniqueid": "MTK0165:31N2WW6R9SXRU0ZZV308105G7MFF3E", "current_trial": 143, "dateTime": 1509472862565, "trialdata": {"rt": -1, "stimulus": "<p id=\"stim\">SEAGULL</p>", "key_press": -1, "type": "PRES_VIS", "word": "seagull", "wordID": 1260, "conditions": [24, 800, "v", 24000], "trial": 3, "serialpos": 14, "trial_type": "single-stim", "trial_index": 143, "time_elapsed": 744374, "internal_node_id": "0.0-107.0"}}, {"uniqueid": "MTK0165:31N2WW6R9SXRU0ZZV308105G7MFF3E", "current_trial": 144, "dateTime": 1509472864523, "trialdata": {"rt": -1, "stimulus": "<p id=\"stim\">FLEET</p>", "key_press": -1, "type": "PRES_VIS", "word": "fleet", "wordID": 577, "conditions": [24, 800, "v", 24000], "trial": 3, "serialpos": 15, "trial_type": "single-stim", "trial_index": 144, "time_elapsed": 746332, "internal_node_id": "0.0-108.0"}}, {"uniqueid": "MTK0165:31N2WW6R9SXRU0ZZV308105G7MFF3E", "current_trial": 145, "dateTime": 1509472866198, "trialdata": {"rt": -1, "stimulus": "<p id=\"stim\">SLUG</p>", "key_press": -1, "type": "PRES_VIS", "word": "slug", "wordID": 1328, "conditions": [24, 800, "v", 24000], "trial": 3, "serialpos": 16, "trial_type": "single-stim", "trial_index": 145, "time_elapsed": 748007, "internal_node_id": "0.0-109.0"}}, {"uniqueid": "MTK0165:31N2WW6R9SXRU0ZZV308105G7MFF3E", "current_trial": 146, "dateTime": 1509472867957, "trialdata": {"rt": -1, "stimulus": "<p id=\"stim\">DRESS</p>", "key_press": -1, "type": "PRES_VIS", "word": "dress", "wordID": 494, "conditions": [24, 800, "v", 24000], "trial": 3, "serialpos": 17, "trial_type": "single-stim", "trial_index": 146, "time_elapsed": 749766, "internal_node_id": "0.0-110.0"}}, {"uniqueid": "MTK0165:31N2WW6R9SXRU0ZZV308105G7MFF3E", "current_trial": 147, "dateTime": 1509472869867, "trialdata": {"rt": -1, "stimulus": "<p id=\"stim\">LIVER</p>", "key_press": -1, "type": "PRES_VIS", "word": "liver", "wordID": 832, "conditions": [24, 800, "v", 24000], "trial": 3, "serialpos": 18, "trial_type": "single-stim", "trial_index": 147, "time_elapsed": 751676, "internal_node_id": "0.0-111.0"}}, {"uniqueid": "MTK0165:31N2WW6R9SXRU0ZZV308105G7MFF3E", "current_trial": 148, "dateTime": 1509472871827, "trialdata": {"rt": -1, "stimulus": "<p id=\"stim\">KIDNEY</p>", "key_press": -1, "type": "PRES_VIS", "word": "kidney", "wordID": 775, "conditions": [24, 800, "v", 24000], "trial": 3, "serialpos": 19, "trial_type": "single-stim", "trial_index": 148, "time_elapsed": 753636, "internal_node_id": "0.0-112.0"}}, {"uniqueid": "MTK0165:31N2WW6R9SXRU0ZZV308105G7MFF3E", "current_trial": 149, "dateTime": 1509472873751, "trialdata": {"rt": -1, "stimulus": "<p id=\"stim\">MAMMAL</p>", "key_press": -1, "type": "PRES_VIS", "word": "mammal", "wordID": 860, "conditions": [24, 800, "v", 24000], "trial": 3, "serialpos": 20, "trial_type": "single-stim", "trial_index": 149, "time_elapsed": 755560, "internal_node_id": "0.0-113.0"}}, {"uniqueid": "MTK0165:31N2WW6R9SXRU0ZZV308105G7MFF3E", "current_trial": 150, "dateTime": 1509472875552, "trialdata": {"rt": -1, "stimulus": "<p id=\"stim\">CLIMBER</p>", "key_press": -1, "type": "PRES_VIS", "word": "climber", "wordID": 322, "conditions": [24, 800, "v", 24000], "trial": 3, "serialpos": 21, "trial_type": "single-stim", "trial_index": 150, "time_elapsed": 757361, "internal_node_id": "0.0-114.0"}}, {"uniqueid": "MTK0165:31N2WW6R9SXRU0ZZV308105G7MFF3E", "current_trial": 151, "dateTime": 1509472877245, "trialdata": {"rt": -1, "stimulus": "<p id=\"stim\">MAILMAN</p>", "key_press": -1, "type": "PRES_VIS", "word": "mailman", "wordID": 857, "conditions": [24, 800, "v", 24000], "trial": 3, "serialpos": 22, "trial_type": "single-stim", "trial_index": 151, "time_elapsed": 759054, "internal_node_id": "0.0-115.0"}}, {"uniqueid": "MTK0165:31N2WW6R9SXRU0ZZV308105G7MFF3E", "current_trial": 152, "dateTime": 1509472879139, "trialdata": {"rt": -1, "stimulus": "<p id=\"stim\">RECORD</p>", "key_press": -1, "type": "PRES_VIS", "word": "record", "wordID": 1175, "conditions": [24, 800, "v", 24000], "trial": 3, "serialpos": 23, "trial_type": "single-stim", "trial_index": 152, "time_elapsed": 760948, "internal_node_id": "0.0-116.0"}}, {"uniqueid": "MTK0165:31N2WW6R9SXRU0ZZV308105G7MFF3E", "current_trial": 153, "dateTime": 1509472881252, "trialdata": {"rt": -1, "stimulus": "", "key_press": -1, "type": "PRE_RECALL_DELAY", "trial_type": "single-stim", "trial_index": 153, "time_elapsed": 763060, "internal_node_id": "0.0-117.0-0.0"}}, {"uniqueid": "MTK0165:31N2WW6R9SXRU0ZZV308105G7MFF3E", "current_trial": 154, "dateTime": 1509472881753, "trialdata": {"rt": -1000, "stimulus": "/static/audio/400Hz.wav", "key_press": -1, "type": "PRE_RECALL_ALERT", "trial_type": "single-audio", "trial_index": 154, "time_elapsed": 763562, "internal_node_id": "0.0-118.0"}}, {"uniqueid": "MTK0165:31N2WW6R9SXRU0ZZV308105G7MFF3E", "current_trial": 155, "dateTime": 1509472941763, "trialdata": {"rt": [2448, 4367, 7485, 22097, 25876], "recwords": ["record", "mailman", "hiker", "fox", "bunny"], "type": "FREE_RECALL", "conditions": [24, 800, "v", 24000], "trial": 3, "trial_type": "free-recall", "trial_index": 155, "time_elapsed": 823566, "internal_node_id": "0.0-119.0-0.0"}}, {"uniqueid": "MTK0165:31N2WW6R9SXRU0ZZV308105G7MFF3E", "current_trial": 156, "dateTime": 1509472945245, "trialdata": {"rt": 1479, "key_press": 32, "type": "INSTRUCTIONS", "trial_type": "text", "trial_index": 156, "time_elapsed": 827054, "internal_node_id": "0.0-120.0"}}, {"uniqueid": "MTK0165:31N2WW6R9SXRU0ZZV308105G7MFF3E", "current_trial": 157, "dateTime": 1509472959251, "trialdata": {"rt": [7723], "responses": ["22"], "num1": [6, 8], "num2": [8, 9], "num3": [8, 8], "type": "DISTRACTOR", "conditions": [12, 800, "a", 12000], "trial": 4, "trial_type": "math-distractor", "trial_index": 157, "time_elapsed": 841060, "internal_node_id": "0.0-121.0"}}, {"uniqueid": "MTK0165:31N2WW6R9SXRU0ZZV308105G7MFF3E", "current_trial": 158, "dateTime": 1509472962254, "trialdata": {"rt": -1, "stimulus": "<p id=\"stim\">10</p>", "key_press": -1, "trial_type": "single-stim", "trial_index": 158, "time_elapsed": 844062, "internal_node_id": "0.0-122.0-0.0"}}, {"uniqueid": "MTK0165:31N2WW6R9SXRU0ZZV308105G7MFF3E", "current_trial": 159, "dateTime": 1509472963256, "trialdata": {"rt": -1, "stimulus": "<p id=\"stim\">9</p>", "key_press": -1, "trial_type": "single-stim", "trial_index": 159, "time_elapsed": 845065, "internal_node_id": "0.0-122.0-1.0"}}, {"uniqueid": "MTK0165:31N2WW6R9SXRU0ZZV308105G7MFF3E", "current_trial": 160, "dateTime": 1509472964258, "trialdata": {"rt": -1, "stimulus": "<p id=\"stim\">8</p>", "key_press": -1, "trial_type": "single-stim", "trial_index": 160, "time_elapsed": 846067, "internal_node_id": "0.0-122.0-2.0"}}, {"uniqueid": "MTK0165:31N2WW6R9SXRU0ZZV308105G7MFF3E", "current_trial": 161, "dateTime": 1509472965259, "trialdata": {"rt": -1, "stimulus": "<p id=\"stim\">7</p>", "key_press": -1, "trial_type": "single-stim", "trial_index": 161, "time_elapsed": 847067, "internal_node_id": "0.0-122.0-3.0"}}, {"uniqueid": "MTK0165:31N2WW6R9SXRU0ZZV308105G7MFF3E", "current_trial": 162, "dateTime": 1509472966261, "trialdata": {"rt": -1, "stimulus": "<p id=\"stim\">6</p>", "key_press": -1, "trial_type": "single-stim", "trial_index": 162, "time_elapsed": 848069, "internal_node_id": "0.0-122.0-4.0"}}, {"uniqueid": "MTK0165:31N2WW6R9SXRU0ZZV308105G7MFF3E", "current_trial": 163, "dateTime": 1509472967262, "trialdata": {"rt": -1, "stimulus": "<p id=\"stim\">5</p>", "key_press": -1, "trial_type": "single-stim", "trial_index": 163, "time_elapsed": 849071, "internal_node_id": "0.0-122.0-5.0"}}, {"uniqueid": "MTK0165:31N2WW6R9SXRU0ZZV308105G7MFF3E", "current_trial": 164, "dateTime": 1509472968265, "trialdata": {"rt": -1, "stimulus": "<p id=\"stim\">4</p>", "key_press": -1, "trial_type": "single-stim", "trial_index": 164, "time_elapsed": 850073, "internal_node_id": "0.0-122.0-6.0"}}, {"uniqueid": "MTK0165:31N2WW6R9SXRU0ZZV308105G7MFF3E", "current_trial": 165, "dateTime": 1509472969265, "trialdata": {"rt": -1, "stimulus": "<p id=\"stim\">3</p>", "key_press": -1, "trial_type": "single-stim", "trial_index": 165, "time_elapsed": 851074, "internal_node_id": "0.0-122.0-7.0"}}, {"uniqueid": "MTK0165:31N2WW6R9SXRU0ZZV308105G7MFF3E", "current_trial": 166, "dateTime": 1509472970267, "trialdata": {"rt": -1, "stimulus": "<p id=\"stim\">2</p>", "key_press": -1, "trial_type": "single-stim", "trial_index": 166, "time_elapsed": 852076, "internal_node_id": "0.0-122.0-8.0"}}, {"uniqueid": "MTK0165:31N2WW6R9SXRU0ZZV308105G7MFF3E", "current_trial": 167, "dateTime": 1509472971270, "trialdata": {"rt": -1, "stimulus": "<p id=\"stim\">1</p>", "key_press": -1, "trial_type": "single-stim", "trial_index": 167, "time_elapsed": 853079, "internal_node_id": "0.0-122.0-9.0"}}, {"uniqueid": "MTK0165:31N2WW6R9SXRU0ZZV308105G7MFF3E", "current_trial": 168, "dateTime": 1509472972772, "trialdata": {"rt": -1, "stimulus": "<p id=\"stim\">+</p>", "key_press": -1, "type": "FIXATION", "trial_type": "single-stim", "trial_index": 168, "time_elapsed": 854580, "internal_node_id": "0.0-123.0-0.0"}}, {"uniqueid": "MTK0165:31N2WW6R9SXRU0ZZV308105G7MFF3E", "current_trial": 169, "dateTime": 1509472974482, "trialdata": {"rt": -1000, "stimulus": "/static/audio/wordpool/LETTUCE.wav", "key_press": -1, "type": "PRES_AUD", "word": "lettuce", "wordID": 813, "conditions": [12, 800, "a", 12000], "trial": 4, "serialpos": 0, "trial_type": "single-audio", "trial_index": 169, "time_elapsed": 856291, "internal_node_id": "0.0-124.0"}}, {"uniqueid": "MTK0165:31N2WW6R9SXRU0ZZV308105G7MFF3E", "current_trial": 170, "dateTime": 1509472976432, "trialdata": {"rt": -1000, "stimulus": "/static/audio/wordpool/ASIA.wav", "key_press": -1, "type": "PRES_AUD", "word": "asia", "wordID": 45, "conditions": [12, 800, "a", 12000], "trial": 4, "serialpos": 1, "trial_type": "single-audio", "trial_index": 170, "time_elapsed": 858241, "internal_node_id": "0.0-125.0"}}, {"uniqueid": "MTK0165:31N2WW6R9SXRU0ZZV308105G7MFF3E", "current_trial": 171, "dateTime": 1509472978195, "trialdata": {"rt": -1000, "stimulus": "/static/audio/wordpool/CREVICE.wav", "key_press": -1, "type": "PRES_AUD", "word": "crevice", "wordID": 404, "conditions": [12, 800, "a", 12000], "trial": 4, "serialpos": 2, "trial_type": "single-audio", "trial_index": 171, "time_elapsed": 860004, "internal_node_id": "0.0-126.0"}}, {"uniqueid": "MTK0165:31N2WW6R9SXRU0ZZV308105G7MFF3E", "current_trial": 172, "dateTime": 1509472980078, "trialdata": {"rt": -1000, "stimulus": "/static/audio/wordpool/DORM.wav", "key_press": -1, "type": "PRES_AUD", "word": "dorm", "wordID": 487, "conditions": [12, 800, "a", 12000], "trial": 4, "serialpos": 3, "trial_type": "single-audio", "trial_index": 172, "time_elapsed": 861887, "internal_node_id": "0.0-127.0"}}, {"uniqueid": "MTK0165:31N2WW6R9SXRU0ZZV308105G7MFF3E", "current_trial": 173, "dateTime": 1509472981824, "trialdata": {"rt": -1000, "stimulus": "/static/audio/wordpool/JUNGLE.wav", "key_press": -1, "type": "PRES_AUD", "word": "jungle", "wordID": 763, "conditions": [12, 800, "a", 12000], "trial": 4, "serialpos": 4, "trial_type": "single-audio", "trial_index": 173, "time_elapsed": 863633, "internal_node_id": "0.0-128.0"}}, {"uniqueid": "MTK0165:31N2WW6R9SXRU0ZZV308105G7MFF3E", "current_trial": 174, "dateTime": 1509472983655, "trialdata": {"rt": -1000, "stimulus": "/static/audio/wordpool/GAZELLE.wav", "key_press": -1, "type": "PRES_AUD", "word": "gazelle", "wordID": 627, "conditions": [12, 800, "a", 12000], "trial": 4, "serialpos": 5, "trial_type": "single-audio", "trial_index": 174, "time_elapsed": 865463, "internal_node_id": "0.0-129.0"}}, {"uniqueid": "MTK0165:31N2WW6R9SXRU0ZZV308105G7MFF3E", "current_trial": 175, "dateTime": 1509472985320, "trialdata": {"rt": -1000, "stimulus": "/static/audio/wordpool/SPHINX.wav", "key_press": -1, "type": "PRES_AUD", "word": "sphinx", "wordID": 1348, "conditions": [12, 800, "a", 12000], "trial": 4, "serialpos": 6, "trial_type": "single-audio", "trial_index": 175, "time_elapsed": 867129, "internal_node_id": "0.0-130.0"}}, {"uniqueid": "MTK0165:31N2WW6R9SXRU0ZZV308105G7MFF3E", "current_trial": 176, "dateTime": 1509472987136, "trialdata": {"rt": -1000, "stimulus": "/static/audio/wordpool/CABBAGE.wav", "key_press": -1, "type": "PRES_AUD", "word": "cabbage", "wordID": 209, "conditions": [12, 800, "a", 12000], "trial": 4, "serialpos": 7, "trial_type": "single-audio", "trial_index": 176, "time_elapsed": 868944, "internal_node_id": "0.0-131.0"}}, {"uniqueid": "MTK0165:31N2WW6R9SXRU0ZZV308105G7MFF3E", "current_trial": 177, "dateTime": 1509472988993, "trialdata": {"rt": -1000, "stimulus": "/static/audio/wordpool/DRESSER.wav", "key_press": -1, "type": "PRES_AUD", "word": "dresser", "wordID": 495, "conditions": [12, 800, "a", 12000], "trial": 4, "serialpos": 8, "trial_type": "single-audio", "trial_index": 177, "time_elapsed": 870801, "internal_node_id": "0.0-132.0"}}, {"uniqueid": "MTK0165:31N2WW6R9SXRU0ZZV308105G7MFF3E", "current_trial": 178, "dateTime": 1509472990900, "trialdata": {"rt": -1000, "stimulus": "/static/audio/wordpool/CUPBOARD.wav", "key_press": -1, "type": "PRES_AUD", "word": "cupboard", "wordID": 424, "conditions": [12, 800, "a", 12000], "trial": 4, "serialpos": 9, "trial_type": "single-audio", "trial_index": 178, "time_elapsed": 872708, "internal_node_id": "0.0-133.0"}}, {"uniqueid": "MTK0165:31N2WW6R9SXRU0ZZV308105G7MFF3E", "current_trial": 179, "dateTime": 1509472992650, "trialdata": {"rt": -1000, "stimulus": "/static/audio/wordpool/TERMITE.wav", "key_press": -1, "type": "PRES_AUD", "word": "termite", "wordID": 1450, "conditions": [12, 800, "a", 12000], "trial": 4, "serialpos": 10, "trial_type": "single-audio", "trial_index": 179, "time_elapsed": 874459, "internal_node_id": "0.0-134.0"}}, {"uniqueid": "MTK0165:31N2WW6R9SXRU0ZZV308105G7MFF3E", "current_trial": 180, "dateTime": 1509472994459, "trialdata": {"rt": -1000, "stimulus": "/static/audio/wordpool/CHIPMUNK.wav", "key_press": -1, "type": "PRES_AUD", "word": "chipmunk", "wordID": 303, "conditions": [12, 800, "a", 12000], "trial": 4, "serialpos": 11, "trial_type": "single-audio", "trial_index": 180, "time_elapsed": 876268, "internal_node_id": "0.0-135.0"}}, {"uniqueid": "MTK0165:31N2WW6R9SXRU0ZZV308105G7MFF3E", "current_trial": 181, "dateTime": 1509472995781, "trialdata": {"rt": -1, "stimulus": "", "key_press": -1, "type": "PRE_RECALL_DELAY", "trial_type": "single-stim", "trial_index": 181, "time_elapsed": 877590, "internal_node_id": "0.0-136.0-0.0"}}, {"uniqueid": "MTK0165:31N2WW6R9SXRU0ZZV308105G7MFF3E", "current_trial": 182, "dateTime": 1509472996283, "trialdata": {"rt": -1000, "stimulus": "/static/audio/400Hz.wav", "key_press": -1, "type": "PRE_RECALL_ALERT", "trial_type": "single-audio", "trial_index": 182, "time_elapsed": 878092, "internal_node_id": "0.0-137.0"}}, {"uniqueid": "MTK0165:31N2WW6R9SXRU0ZZV308105G7MFF3E", "current_trial": 183, "dateTime": 1509473056291, "trialdata": {"rt": [3876, 6656, 10481, 13911, 18152, 21255], "recwords": ["chipmonk", "dresser", "cupboard", "lizard", "termite", "ladder"], "type": "FREE_RECALL", "conditions": [12, 800, "a", 12000], "trial": 4, "trial_type": "free-recall", "trial_index": 183, "time_elapsed": 938094, "internal_node_id": "0.0-138.0-0.0"}}, {"uniqueid": "MTK0165:31N2WW6R9SXRU0ZZV308105G7MFF3E", "current_trial": 184, "dateTime": 1509473060321, "trialdata": {"rt": 2029, "key_press": 32, "type": "INSTRUCTIONS", "trial_type": "text", "trial_index": 184, "time_elapsed": 942130, "internal_node_id": "0.0-139.0"}}, {"uniqueid": "MTK0165:31N2WW6R9SXRU0ZZV308105G7MFF3E", "current_trial": 185, "dateTime": 1509473086329, "trialdata": {"rt": [4888, 16109, 20216, 23649], "responses": ["9", "21", "19", "16"], "num1": [1, 8, 2, 7, 9], "num2": [5, 9, 8, 6, 3], "num3": [3, 4, 9, 3, 6], "type": "DISTRACTOR", "conditions": [12, 1600, "v", 24000], "trial": 5, "trial_type": "math-distractor", "trial_index": 185, "time_elapsed": 968138, "internal_node_id": "0.0-140.0"}}, {"uniqueid": "MTK0165:31N2WW6R9SXRU0ZZV308105G7MFF3E", "current_trial": 186, "dateTime": 1509473089331, "trialdata": {"rt": -1, "stimulus": "<p id=\"stim\">10</p>", "key_press": -1, "trial_type": "single-stim", "trial_index": 186, "time_elapsed": 971140, "internal_node_id": "0.0-141.0-0.0"}}, {"uniqueid": "MTK0165:31N2WW6R9SXRU0ZZV308105G7MFF3E", "current_trial": 187, "dateTime": 1509473090334, "trialdata": {"rt": -1, "stimulus": "<p id=\"stim\">9</p>", "key_press": -1, "trial_type": "single-stim", "trial_index": 187, "time_elapsed": 972143, "internal_node_id": "0.0-141.0-1.0"}}, {"uniqueid": "MTK0165:31N2WW6R9SXRU0ZZV308105G7MFF3E", "current_trial": 188, "dateTime": 1509473091334, "trialdata": {"rt": -1, "stimulus": "<p id=\"stim\">8</p>", "key_press": -1, "trial_type": "single-stim", "trial_index": 188, "time_elapsed": 973143, "internal_node_id": "0.0-141.0-2.0"}}, {"uniqueid": "MTK0165:31N2WW6R9SXRU0ZZV308105G7MFF3E", "current_trial": 189, "dateTime": 1509473092336, "trialdata": {"rt": -1, "stimulus": "<p id=\"stim\">7</p>", "key_press": -1, "trial_type": "single-stim", "trial_index": 189, "time_elapsed": 974145, "internal_node_id": "0.0-141.0-3.0"}}, {"uniqueid": "MTK0165:31N2WW6R9SXRU0ZZV308105G7MFF3E", "current_trial": 190, "dateTime": 1509473093338, "trialdata": {"rt": -1, "stimulus": "<p id=\"stim\">6</p>", "key_press": -1, "trial_type": "single-stim", "trial_index": 190, "time_elapsed": 975146, "internal_node_id": "0.0-141.0-4.0"}}, {"uniqueid": "MTK0165:31N2WW6R9SXRU0ZZV308105G7MFF3E", "current_trial": 191, "dateTime": 1509473094339, "trialdata": {"rt": -1, "stimulus": "<p id=\"stim\">5</p>", "key_press": -1, "trial_type": "single-stim", "trial_index": 191, "time_elapsed": 976148, "internal_node_id": "0.0-141.0-5.0"}}, {"uniqueid": "MTK0165:31N2WW6R9SXRU0ZZV308105G7MFF3E", "current_trial": 192, "dateTime": 1509473095340, "trialdata": {"rt": -1, "stimulus": "<p id=\"stim\">4</p>", "key_press": -1, "trial_type": "single-stim", "trial_index": 192, "time_elapsed": 977149, "internal_node_id": "0.0-141.0-6.0"}}, {"uniqueid": "MTK0165:31N2WW6R9SXRU0ZZV308105G7MFF3E", "current_trial": 193, "dateTime": 1509473096342, "trialdata": {"rt": -1, "stimulus": "<p id=\"stim\">3</p>", "key_press": -1, "trial_type": "single-stim", "trial_index": 193, "time_elapsed": 978150, "internal_node_id": "0.0-141.0-7.0"}}, {"uniqueid": "MTK0165:31N2WW6R9SXRU0ZZV308105G7MFF3E", "current_trial": 194, "dateTime": 1509473097344, "trialdata": {"rt": -1, "stimulus": "<p id=\"stim\">2</p>", "key_press": -1, "trial_type": "single-stim", "trial_index": 194, "time_elapsed": 979153, "internal_node_id": "0.0-141.0-8.0"}}, {"uniqueid": "MTK0165:31N2WW6R9SXRU0ZZV308105G7MFF3E", "current_trial": 195, "dateTime": 1509473098347, "trialdata": {"rt": -1, "stimulus": "<p id=\"stim\">1</p>", "key_press": -1, "trial_type": "single-stim", "trial_index": 195, "time_elapsed": 980155, "internal_node_id": "0.0-141.0-9.0"}}, {"uniqueid": "MTK0165:31N2WW6R9SXRU0ZZV308105G7MFF3E", "current_trial": 196, "dateTime": 1509473099850, "trialdata": {"rt": -1, "stimulus": "<p id=\"stim\">+</p>", "key_press": -1, "type": "FIXATION", "trial_type": "single-stim", "trial_index": 196, "time_elapsed": 981658, "internal_node_id": "0.0-142.0-0.0"}}, {"uniqueid": "MTK0165:31N2WW6R9SXRU0ZZV308105G7MFF3E", "current_trial": 197, "dateTime": 1509473101453, "trialdata": {"rt": -1, "stimulus": "<p id=\"stim\">PASTRY</p>", "key_press": -1, "type": "PRES_VIS", "word": "pastry", "wordID": 1021, "conditions": [12, 1600, "v", 24000], "trial": 5, "serialpos": 0, "trial_type": "single-stim", "trial_index": 197, "time_elapsed": 983261, "internal_node_id": "0.0-143.0"}}, {"uniqueid": "MTK0165:31N2WW6R9SXRU0ZZV308105G7MFF3E", "current_trial": 198, "dateTime": 1509473103867, "trialdata": {"rt": -1, "stimulus": "<p id=\"stim\">DAISY</p>", "key_press": -1, "type": "PRES_VIS", "word": "daisy", "wordID": 434, "conditions": [12, 1600, "v", 24000], "trial": 5, "serialpos": 1, "trial_type": "single-stim", "trial_index": 198, "time_elapsed": 985676, "internal_node_id": "0.0-144.0"}}, {"uniqueid": "MTK0165:31N2WW6R9SXRU0ZZV308105G7MFF3E", "current_trial": 199, "dateTime": 1509473106546, "trialdata": {"rt": -1, "stimulus": "<p id=\"stim\">SANDWICH</p>", "key_press": -1, "type": "PRES_VIS", "word": "sandwich", "wordID": 1231, "conditions": [12, 1600, "v", 24000], "trial": 5, "serialpos": 2, "trial_type": "single-stim", "trial_index": 199, "time_elapsed": 988355, "internal_node_id": "0.0-145.0"}}, {"uniqueid": "MTK0165:31N2WW6R9SXRU0ZZV308105G7MFF3E", "current_trial": 200, "dateTime": 1509473109285, "trialdata": {"rt": -1, "stimulus": "<p id=\"stim\">CASHIER</p>", "key_press": -1, "type": "PRES_VIS", "word": "cashier", "wordID": 253, "conditions": [12, 1600, "v", 24000], "trial": 5, "serialpos": 3, "trial_type": "single-stim", "trial_index": 200, "time_elapsed": 991093, "internal_node_id": "0.0-146.0"}}, {"uniqueid": "MTK0165:31N2WW6R9SXRU0ZZV308105G7MFF3E", "current_trial": 201, "dateTime": 1509473111695, "trialdata": {"rt": -1, "stimulus": "<p id=\"stim\">PLIERS</p>", "key_press": -1, "type": "PRES_VIS", "word": "pliers", "wordID": 1088, "conditions": [12, 1600, "v", 24000], "trial": 5, "serialpos": 4, "trial_type": "single-stim", "trial_index": 201, "time_elapsed": 993503, "internal_node_id": "0.0-147.0"}}, {"uniqueid": "MTK0165:31N2WW6R9SXRU0ZZV308105G7MFF3E", "current_trial": 202, "dateTime": 1509473114238, "trialdata": {"rt": -1, "stimulus": "<p id=\"stim\">LILY</p>", "key_press": -1, "type": "PRES_VIS", "word": "lily", "wordID": 820, "conditions": [12, 1600, "v", 24000], "trial": 5, "serialpos": 5, "trial_type": "single-stim", "trial_index": 202, "time_elapsed": 996047, "internal_node_id": "0.0-148.0"}}, {"uniqueid": "MTK0165:31N2WW6R9SXRU0ZZV308105G7MFF3E", "current_trial": 203, "dateTime": 1509473116797, "trialdata": {"rt": -1, "stimulus": "<p id=\"stim\">POPCORN</p>", "key_press": -1, "type": "PRES_VIS", "word": "popcorn", "wordID": 1103, "conditions": [12, 1600, "v", 24000], "trial": 5, "serialpos": 6, "trial_type": "single-stim", "trial_index": 203, "time_elapsed": 998606, "internal_node_id": "0.0-149.0"}}, {"uniqueid": "MTK0165:31N2WW6R9SXRU0ZZV308105G7MFF3E", "current_trial": 204, "dateTime": 1509473119561, "trialdata": {"rt": -1, "stimulus": "<p id=\"stim\">HANDBAG</p>", "key_press": -1, "type": "PRES_VIS", "word": "handbag", "wordID": 683, "conditions": [12, 1600, "v", 24000], "trial": 5, "serialpos": 7, "trial_type": "single-stim", "trial_index": 204, "time_elapsed": 1001369, "internal_node_id": "0.0-150.0"}}, {"uniqueid": "MTK0165:31N2WW6R9SXRU0ZZV308105G7MFF3E", "current_trial": 205, "dateTime": 1509473122277, "trialdata": {"rt": -1, "stimulus": "<p id=\"stim\">SPOUSE</p>", "key_press": -1, "type": "PRES_VIS", "word": "spouse", "wordID": 1357, "conditions": [12, 1600, "v", 24000], "trial": 5, "serialpos": 8, "trial_type": "single-stim", "trial_index": 205, "time_elapsed": 1004086, "internal_node_id": "0.0-151.0"}}, {"uniqueid": "MTK0165:31N2WW6R9SXRU0ZZV308105G7MFF3E", "current_trial": 206, "dateTime": 1509473124882, "trialdata": {"rt": -1, "stimulus": "<p id=\"stim\">WIFE</p>", "key_press": -1, "type": "PRES_VIS", "word": "wife", "wordID": 1608, "conditions": [12, 1600, "v", 24000], "trial": 5, "serialpos": 9, "trial_type": "single-stim", "trial_index": 206, "time_elapsed": 1006691, "internal_node_id": "0.0-152.0"}}, {"uniqueid": "MTK0165:31N2WW6R9SXRU0ZZV308105G7MFF3E", "current_trial": 207, "dateTime": 1509473127448, "trialdata": {"rt": -1, "stimulus": "<p id=\"stim\">CIGAR</p>", "key_press": -1, "type": "PRES_VIS", "word": "cigar", "wordID": 307, "conditions": [12, 1600, "v", 24000], "trial": 5, "serialpos": 10, "trial_type": "single-stim", "trial_index": 207, "time_elapsed": 1009256, "internal_node_id": "0.0-153.0"}}, {"uniqueid": "MTK0165:31N2WW6R9SXRU0ZZV308105G7MFF3E", "current_trial": 208, "dateTime": 1509473130108, "trialdata": {"rt": -1, "stimulus": "<p id=\"stim\">ZEBRA</p>", "key_press": -1, "type": "PRES_VIS", "word": "zebra", "wordID": 1634, "conditions": [12, 1600, "v", 24000], "trial": 5, "serialpos": 11, "trial_type": "single-stim", "trial_index": 208, "time_elapsed": 1011917, "internal_node_id": "0.0-154.0"}}, {"uniqueid": "MTK0165:31N2WW6R9SXRU0ZZV308105G7MFF3E", "current_trial": 209, "dateTime": 1509473132474, "trialdata": {"rt": -1, "stimulus": "", "key_press": -1, "type": "PRE_RECALL_DELAY", "trial_type": "single-stim", "trial_index": 209, "time_elapsed": 1014283, "internal_node_id": "0.0-155.0-0.0"}}, {"uniqueid": "MTK0165:31N2WW6R9SXRU0ZZV308105G7MFF3E", "current_trial": 210, "dateTime": 1509473132977, "trialdata": {"rt": -1000, "stimulus": "/static/audio/400Hz.wav", "key_press": -1, "type": "PRE_RECALL_ALERT", "trial_type": "single-audio", "trial_index": 210, "time_elapsed": 1014786, "internal_node_id": "0.0-156.0"}}, {"uniqueid": "MTK0165:31N2WW6R9SXRU0ZZV308105G7MFF3E", "current_trial": 211, "dateTime": 1509473192995, "trialdata": {"rt": [4240, 6530, 8447, 16187], "recwords": ["zebra", "cigar", "lilly", "zebra"], "type": "FREE_RECALL", "conditions": [12, 1600, "v", 24000], "trial": 5, "trial_type": "free-recall", "trial_index": 211, "time_elapsed": 1074795, "internal_node_id": "0.0-157.0-0.0"}}, {"uniqueid": "MTK0165:31N2WW6R9SXRU0ZZV308105G7MFF3E", "current_trial": 212, "dateTime": 1509473196128, "trialdata": {"rt": 1133, "key_press": 32, "type": "INSTRUCTIONS", "trial_type": "text", "trial_index": 212, "time_elapsed": 1077937, "internal_node_id": "0.0-158.0"}}, {"uniqueid": "MTK0165:31N2WW6R9SXRU0ZZV308105G7MFF3E", "current_trial": 213, "dateTime": 1509473210133, "trialdata": {"rt": [4062, 7309, 9456], "responses": ["16", "18", "10"], "num1": [4, 5, 1, 7], "num2": [5, 4, 5, 4], "num3": [7, 9, 4, 8], "type": "DISTRACTOR", "conditions": [12, 800, "v", 12000], "trial": 6, "trial_type": "math-distractor", "trial_index": 213, "time_elapsed": 1091941, "internal_node_id": "0.0-159.0"}}, {"uniqueid": "MTK0165:31N2WW6R9SXRU0ZZV308105G7MFF3E", "current_trial": 214, "dateTime": 1509473213135, "trialdata": {"rt": -1, "stimulus": "<p id=\"stim\">10</p>", "key_press": -1, "trial_type": "single-stim", "trial_index": 214, "time_elapsed": 1094944, "internal_node_id": "0.0-160.0-0.0"}}, {"uniqueid": "MTK0165:31N2WW6R9SXRU0ZZV308105G7MFF3E", "current_trial": 215, "dateTime": 1509473214139, "trialdata": {"rt": -1, "stimulus": "<p id=\"stim\">9</p>", "key_press": -1, "trial_type": "single-stim", "trial_index": 215, "time_elapsed": 1095945, "internal_node_id": "0.0-160.0-1.0"}}, {"uniqueid": "MTK0165:31N2WW6R9SXRU0ZZV308105G7MFF3E", "current_trial": 216, "dateTime": 1509473215140, "trialdata": {"rt": -1, "stimulus": "<p id=\"stim\">8</p>", "key_press": -1, "trial_type": "single-stim", "trial_index": 216, "time_elapsed": 1096949, "internal_node_id": "0.0-160.0-2.0"}}, {"uniqueid": "MTK0165:31N2WW6R9SXRU0ZZV308105G7MFF3E", "current_trial": 217, "dateTime": 1509473216142, "trialdata": {"rt": -1, "stimulus": "<p id=\"stim\">7</p>", "key_press": -1, "trial_type": "single-stim", "trial_index": 217, "time_elapsed": 1097951, "internal_node_id": "0.0-160.0-3.0"}}, {"uniqueid": "MTK0165:31N2WW6R9SXRU0ZZV308105G7MFF3E", "current_trial": 218, "dateTime": 1509473217145, "trialdata": {"rt": -1, "stimulus": "<p id=\"stim\">6</p>", "key_press": -1, "trial_type": "single-stim", "trial_index": 218, "time_elapsed": 1098953, "internal_node_id": "0.0-160.0-4.0"}}, {"uniqueid": "MTK0165:31N2WW6R9SXRU0ZZV308105G7MFF3E", "current_trial": 219, "dateTime": 1509473218145, "trialdata": {"rt": -1, "stimulus": "<p id=\"stim\">5</p>", "key_press": -1, "trial_type": "single-stim", "trial_index": 219, "time_elapsed": 1099954, "internal_node_id": "0.0-160.0-5.0"}}, {"uniqueid": "MTK0165:31N2WW6R9SXRU0ZZV308105G7MFF3E", "current_trial": 220, "dateTime": 1509473219147, "trialdata": {"rt": -1, "stimulus": "<p id=\"stim\">4</p>", "key_press": -1, "trial_type": "single-stim", "trial_index": 220, "time_elapsed": 1100956, "internal_node_id": "0.0-160.0-6.0"}}, {"uniqueid": "MTK0165:31N2WW6R9SXRU0ZZV308105G7MFF3E", "current_trial": 221, "dateTime": 1509473220149, "trialdata": {"rt": -1, "stimulus": "<p id=\"stim\">3</p>", "key_press": -1, "trial_type": "single-stim", "trial_index": 221, "time_elapsed": 1101958, "internal_node_id": "0.0-160.0-7.0"}}, {"uniqueid": "MTK0165:31N2WW6R9SXRU0ZZV308105G7MFF3E", "current_trial": 222, "dateTime": 1509473221152, "trialdata": {"rt": -1, "stimulus": "<p id=\"stim\">2</p>", "key_press": -1, "trial_type": "single-stim", "trial_index": 222, "time_elapsed": 1102961, "internal_node_id": "0.0-160.0-8.0"}}, {"uniqueid": "MTK0165:31N2WW6R9SXRU0ZZV308105G7MFF3E", "current_trial": 223, "dateTime": 1509473222154, "trialdata": {"rt": -1, "stimulus": "<p id=\"stim\">1</p>", "key_press": -1, "trial_type": "single-stim", "trial_index": 223, "time_elapsed": 1103963, "internal_node_id": "0.0-160.0-9.0"}}, {"uniqueid": "MTK0165:31N2WW6R9SXRU0ZZV308105G7MFF3E", "current_trial": 224, "dateTime": 1509473223656, "trialdata": {"rt": -1, "stimulus": "<p id=\"stim\">+</p>", "key_press": -1, "type": "FIXATION", "trial_type": "single-stim", "trial_index": 224, "time_elapsed": 1105465, "internal_node_id": "0.0-161.0-0.0"}}, {"uniqueid": "MTK0165:31N2WW6R9SXRU0ZZV308105G7MFF3E", "current_trial": 225, "dateTime": 1509473224458, "trialdata": {"rt": -1, "stimulus": "<p id=\"stim\">OINTMENT</p>", "key_press": -1, "type": "PRES_VIS", "word": "ointment", "wordID": 973, "conditions": [12, 800, "v", 12000], "trial": 6, "serialpos": 0, "trial_type": "single-stim", "trial_index": 225, "time_elapsed": 1106267, "internal_node_id": "0.0-162.0"}}, {"uniqueid": "MTK0165:31N2WW6R9SXRU0ZZV308105G7MFF3E", "current_trial": 226, "dateTime": 1509473226262, "trialdata": {"rt": -1, "stimulus": "<p id=\"stim\">SALMON</p>", "key_press": -1, "type": "PRES_VIS", "word": "salmon", "wordID": 1226, "conditions": [12, 800, "v", 12000], "trial": 6, "serialpos": 1, "trial_type": "single-stim", "trial_index": 226, "time_elapsed": 1108071, "internal_node_id": "0.0-163.0"}}, {"uniqueid": "MTK0165:31N2WW6R9SXRU0ZZV308105G7MFF3E", "current_trial": 227, "dateTime": 1509473227913, "trialdata": {"rt": -1, "stimulus": "<p id=\"stim\">TROUT</p>", "key_press": -1, "type": "PRES_VIS", "word": "trout", "wordID": 1510, "conditions": [12, 800, "v", 12000], "trial": 6, "serialpos": 2, "trial_type": "single-stim", "trial_index": 227, "time_elapsed": 1109721, "internal_node_id": "0.0-164.0"}}, {"uniqueid": "MTK0165:31N2WW6R9SXRU0ZZV308105G7MFF3E", "current_trial": 228, "dateTime": 1509473229851, "trialdata": {"rt": -1, "stimulus": "<p id=\"stim\">GANGSTER</p>", "key_press": -1, "type": "PRES_VIS", "word": "gangster", "wordID": 619, "conditions": [12, 800, "v", 12000], "trial": 6, "serialpos": 3, "trial_type": "single-stim", "trial_index": 228, "time_elapsed": 1111660, "internal_node_id": "0.0-165.0"}}, {"uniqueid": "MTK0165:31N2WW6R9SXRU0ZZV308105G7MFF3E", "current_trial": 229, "dateTime": 1509473231556, "trialdata": {"rt": -1, "stimulus": "<p id=\"stim\">SWITCH</p>", "key_press": -1, "type": "PRES_VIS", "word": "switch", "wordID": 1421, "conditions": [12, 800, "v", 12000], "trial": 6, "serialpos": 4, "trial_type": "single-stim", "trial_index": 229, "time_elapsed": 1113361, "internal_node_id": "0.0-166.0"}}, {"uniqueid": "MTK0165:31N2WW6R9SXRU0ZZV308105G7MFF3E", "current_trial": 230, "dateTime": 1509473233219, "trialdata": {"rt": -1, "stimulus": "<p id=\"stim\">DENIM</p>", "key_press": -1, "type": "PRES_VIS", "word": "denim", "wordID": 445, "conditions": [12, 800, "v", 12000], "trial": 6, "serialpos": 5, "trial_type": "single-stim", "trial_index": 230, "time_elapsed": 1115028, "internal_node_id": "0.0-167.0"}}, {"uniqueid": "MTK0165:31N2WW6R9SXRU0ZZV308105G7MFF3E", "current_trial": 231, "dateTime": 1509473234976, "trialdata": {"rt": -1, "stimulus": "<p id=\"stim\">BROTHER</p>", "key_press": -1, "type": "PRES_VIS", "word": "brother", "wordID": 178, "conditions": [12, 800, "v", 12000], "trial": 6, "serialpos": 6, "trial_type": "single-stim", "trial_index": 231, "time_elapsed": 1116785, "internal_node_id": "0.0-168.0"}}, {"uniqueid": "MTK0165:31N2WW6R9SXRU0ZZV308105G7MFF3E", "current_trial": 232, "dateTime": 1509473236728, "trialdata": {"rt": -1, "stimulus": "<p id=\"stim\">SHERIFF</p>", "key_press": -1, "type": "PRES_VIS", "word": "sheriff", "wordID": 1283, "conditions": [12, 800, "v", 12000], "trial": 6, "serialpos": 7, "trial_type": "single-stim", "trial_index": 232, "time_elapsed": 1118536, "internal_node_id": "0.0-169.0"}}, {"uniqueid": "MTK0165:31N2WW6R9SXRU0ZZV308105G7MFF3E", "current_trial": 233, "dateTime": 1509473238693, "trialdata": {"rt": -1, "stimulus": "<p id=\"stim\">SWIMMER</p>", "key_press": -1, "type": "PRES_VIS", "word": "swimmer", "wordID": 1419, "conditions": [12, 800, "v", 12000], "trial": 6, "serialpos": 8, "trial_type": "single-stim", "trial_index": 233, "time_elapsed": 1120502, "internal_node_id": "0.0-170.0"}}, {"uniqueid": "MTK0165:31N2WW6R9SXRU0ZZV308105G7MFF3E", "current_trial": 234, "dateTime": 1509473240446, "trialdata": {"rt": -1, "stimulus": "<p id=\"stim\">FOOTBALL</p>", "key_press": -1, "type": "PRES_VIS", "word": "football", "wordID": 590, "conditions": [12, 800, "v", 12000], "trial": 6, "serialpos": 9, "trial_type": "single-stim", "trial_index": 234, "time_elapsed": 1122255, "internal_node_id": "0.0-171.0"}}, {"uniqueid": "MTK0165:31N2WW6R9SXRU0ZZV308105G7MFF3E", "current_trial": 235, "dateTime": 1509473242411, "trialdata": {"rt": -1, "stimulus": "<p id=\"stim\">QUEEN</p>", "key_press": -1, "type": "PRES_VIS", "word": "queen", "wordID": 1148, "conditions": [12, 800, "v", 12000], "trial": 6, "serialpos": 10, "trial_type": "single-stim", "trial_index": 235, "time_elapsed": 1124220, "internal_node_id": "0.0-172.0"}}, {"uniqueid": "MTK0165:31N2WW6R9SXRU0ZZV308105G7MFF3E", "current_trial": 236, "dateTime": 1509473244097, "trialdata": {"rt": -1, "stimulus": "<p id=\"stim\">COUNTY</p>", "key_press": -1, "type": "PRES_VIS", "word": "county", "wordID": 388, "conditions": [12, 800, "v", 12000], "trial": 6, "serialpos": 11, "trial_type": "single-stim", "trial_index": 236, "time_elapsed": 1125906, "internal_node_id": "0.0-173.0"}}, {"uniqueid": "MTK0165:31N2WW6R9SXRU0ZZV308105G7MFF3E", "current_trial": 237, "dateTime": 1509473246476, "trialdata": {"rt": -1, "stimulus": "", "key_press": -1, "type": "PRE_RECALL_DELAY", "trial_type": "single-stim", "trial_index": 237, "time_elapsed": 1128285, "internal_node_id": "0.0-174.0-0.0"}}, {"uniqueid": "MTK0165:31N2WW6R9SXRU0ZZV308105G7MFF3E", "current_trial": 238, "dateTime": 1509473246978, "trialdata": {"rt": -1000, "stimulus": "/static/audio/400Hz.wav", "key_press": -1, "type": "PRE_RECALL_ALERT", "trial_type": "single-audio", "trial_index": 238, "time_elapsed": 1128787, "internal_node_id": "0.0-175.0"}}, {"uniqueid": "MTK0165:31N2WW6R9SXRU0ZZV308105G7MFF3E", "current_trial": 239, "dateTime": 1509473306989, "trialdata": {"rt": [3411, 5413, 6929, 11286, 14576, 21853, 23225], "recwords": ["county", "sherif", "brother", "queen", "switch", "trout", "salmon"], "type": "FREE_RECALL", "conditions": [12, 800, "v", 12000], "trial": 6, "trial_type": "free-recall", "trial_index": 239, "time_elapsed": 1188791, "internal_node_id": "0.0-176.0-0.0"}}, {"uniqueid": "MTK0165:31N2WW6R9SXRU0ZZV308105G7MFF3E", "current_trial": 240, "dateTime": 1509473309937, "trialdata": {"rt": 948, "key_press": 32, "type": "INSTRUCTIONS", "trial_type": "text", "trial_index": 240, "time_elapsed": 1191746, "internal_node_id": "0.0-177.0"}}, {"uniqueid": "MTK0165:31N2WW6R9SXRU0ZZV308105G7MFF3E", "current_trial": 241, "dateTime": 1509473323943, "trialdata": {"rt": [4600, 7076, 10998], "responses": ["16", "12", "15"], "num1": [9, 7, 4, 8], "num2": [5, 2, 6, 4], "num3": [2, 3, 3, 2], "type": "DISTRACTOR", "conditions": [12, 1600, "a", 12000], "trial": 7, "trial_type": "math-distractor", "trial_index": 241, "time_elapsed": 1205752, "internal_node_id": "0.0-178.0"}}, {"uniqueid": "MTK0165:31N2WW6R9SXRU0ZZV308105G7MFF3E", "current_trial": 242, "dateTime": 1509473326946, "trialdata": {"rt": -1, "stimulus": "<p id=\"stim\">10</p>", "key_press": -1, "trial_type": "single-stim", "trial_index": 242, "time_elapsed": 1208755, "internal_node_id": "0.0-179.0-0.0"}}, {"uniqueid": "MTK0165:31N2WW6R9SXRU0ZZV308105G7MFF3E", "current_trial": 243, "dateTime": 1509473327949, "trialdata": {"rt": -1, "stimulus": "<p id=\"stim\">9</p>", "key_press": -1, "trial_type": "single-stim", "trial_index": 243, "time_elapsed": 1209758, "internal_node_id": "0.0-179.0-1.0"}}, {"uniqueid": "MTK0165:31N2WW6R9SXRU0ZZV308105G7MFF3E", "current_trial": 244, "dateTime": 1509473328952, "trialdata": {"rt": -1, "stimulus": "<p id=\"stim\">8</p>", "key_press": -1, "trial_type": "single-stim", "trial_index": 244, "time_elapsed": 1210760, "internal_node_id": "0.0-179.0-2.0"}}, {"uniqueid": "MTK0165:31N2WW6R9SXRU0ZZV308105G7MFF3E", "current_trial": 245, "dateTime": 1509473329954, "trialdata": {"rt": -1, "stimulus": "<p id=\"stim\">7</p>", "key_press": -1, "trial_type": "single-stim", "trial_index": 245, "time_elapsed": 1211763, "internal_node_id": "0.0-179.0-3.0"}}, {"uniqueid": "MTK0165:31N2WW6R9SXRU0ZZV308105G7MFF3E", "current_trial": 246, "dateTime": 1509473330956, "trialdata": {"rt": -1, "stimulus": "<p id=\"stim\">6</p>", "key_press": -1, "trial_type": "single-stim", "trial_index": 246, "time_elapsed": 1212765, "internal_node_id": "0.0-179.0-4.0"}}, {"uniqueid": "MTK0165:31N2WW6R9SXRU0ZZV308105G7MFF3E", "current_trial": 247, "dateTime": 1509473331959, "trialdata": {"rt": -1, "stimulus": "<p id=\"stim\">5</p>", "key_press": -1, "trial_type": "single-stim", "trial_index": 247, "time_elapsed": 1213767, "internal_node_id": "0.0-179.0-5.0"}}, {"uniqueid": "MTK0165:31N2WW6R9SXRU0ZZV308105G7MFF3E", "current_trial": 248, "dateTime": 1509473332961, "trialdata": {"rt": -1, "stimulus": "<p id=\"stim\">4</p>", "key_press": -1, "trial_type": "single-stim", "trial_index": 248, "time_elapsed": 1214769, "internal_node_id": "0.0-179.0-6.0"}}, {"uniqueid": "MTK0165:31N2WW6R9SXRU0ZZV308105G7MFF3E", "current_trial": 249, "dateTime": 1509473333962, "trialdata": {"rt": -1, "stimulus": "<p id=\"stim\">3</p>", "key_press": -1, "trial_type": "single-stim", "trial_index": 249, "time_elapsed": 1215771, "internal_node_id": "0.0-179.0-7.0"}}, {"uniqueid": "MTK0165:31N2WW6R9SXRU0ZZV308105G7MFF3E", "current_trial": 250, "dateTime": 1509473334965, "trialdata": {"rt": -1, "stimulus": "<p id=\"stim\">2</p>", "key_press": -1, "trial_type": "single-stim", "trial_index": 250, "time_elapsed": 1216773, "internal_node_id": "0.0-179.0-8.0"}}, {"uniqueid": "MTK0165:31N2WW6R9SXRU0ZZV308105G7MFF3E", "current_trial": 251, "dateTime": 1509473335968, "trialdata": {"rt": -1, "stimulus": "<p id=\"stim\">1</p>", "key_press": -1, "trial_type": "single-stim", "trial_index": 251, "time_elapsed": 1217776, "internal_node_id": "0.0-179.0-9.0"}}, {"uniqueid": "MTK0165:31N2WW6R9SXRU0ZZV308105G7MFF3E", "current_trial": 252, "dateTime": 1509473337470, "trialdata": {"rt": -1, "stimulus": "<p id=\"stim\">+</p>", "key_press": -1, "type": "FIXATION", "trial_type": "single-stim", "trial_index": 252, "time_elapsed": 1219278, "internal_node_id": "0.0-180.0-0.0"}}, {"uniqueid": "MTK0165:31N2WW6R9SXRU0ZZV308105G7MFF3E", "current_trial": 253, "dateTime": 1509473340216, "trialdata": {"rt": -1000, "stimulus": "/static/audio/wordpool/BROOK.wav", "key_press": -1, "type": "PRES_AUD", "word": "brook", "wordID": 176, "conditions": [12, 1600, "a", 12000], "trial": 7, "serialpos": 0, "trial_type": "single-audio", "trial_index": 253, "time_elapsed": 1222025, "internal_node_id": "0.0-181.0"}}, {"uniqueid": "MTK0165:31N2WW6R9SXRU0ZZV308105G7MFF3E", "current_trial": 254, "dateTime": 1509473342763, "trialdata": {"rt": -1000, "stimulus": "/static/audio/wordpool/RAZOR.wav", "key_press": -1, "type": "PRES_AUD", "word": "razor", "wordID": 1170, "conditions": [12, 1600, "a", 12000], "trial": 7, "serialpos": 1, "trial_type": "single-audio", "trial_index": 254, "time_elapsed": 1224571, "internal_node_id": "0.0-182.0"}}, {"uniqueid": "MTK0165:31N2WW6R9SXRU0ZZV308105G7MFF3E", "current_trial": 255, "dateTime": 1509473345484, "trialdata": {"rt": -1000, "stimulus": "/static/audio/wordpool/BLADE.wav", "key_press": -1, "type": "PRES_AUD", "word": "blade", "wordID": 133, "conditions": [12, 1600, "a", 12000], "trial": 7, "serialpos": 2, "trial_type": "single-audio", "trial_index": 255, "time_elapsed": 1227293, "internal_node_id": "0.0-183.0"}}, {"uniqueid": "MTK0165:31N2WW6R9SXRU0ZZV308105G7MFF3E", "current_trial": 256, "dateTime": 1509473347994, "trialdata": {"rt": -1000, "stimulus": "/static/audio/wordpool/BALLOON.wav", "key_press": -1, "type": "PRES_AUD", "word": "balloon", "wordID": 74, "conditions": [12, 1600, "a", 12000], "trial": 7, "serialpos": 3, "trial_type": "single-audio", "trial_index": 256, "time_elapsed": 1229803, "internal_node_id": "0.0-184.0"}}, {"uniqueid": "MTK0165:31N2WW6R9SXRU0ZZV308105G7MFF3E", "current_trial": 257, "dateTime": 1509473350528, "trialdata": {"rt": -1000, "stimulus": "/static/audio/wordpool/SUPPER.wav", "key_press": -1, "type": "PRES_AUD", "word": "supper", "wordID": 1410, "conditions": [12, 1600, "a", 12000], "trial": 7, "serialpos": 4, "trial_type": "single-audio", "trial_index": 257, "time_elapsed": 1232337, "internal_node_id": "0.0-185.0"}}, {"uniqueid": "MTK0165:31N2WW6R9SXRU0ZZV308105G7MFF3E", "current_trial": 258, "dateTime": 1509473353141, "trialdata": {"rt": -1000, "stimulus": "/static/audio/wordpool/CATTLE.wav", "key_press": -1, "type": "PRES_AUD", "word": "cattle", "wordID": 260, "conditions": [12, 1600, "a", 12000], "trial": 7, "serialpos": 5, "trial_type": "single-audio", "trial_index": 258, "time_elapsed": 1234950, "internal_node_id": "0.0-186.0"}}, {"uniqueid": "MTK0165:31N2WW6R9SXRU0ZZV308105G7MFF3E", "current_trial": 259, "dateTime": 1509473355568, "trialdata": {"rt": -1000, "stimulus": "/static/audio/wordpool/JELLO.wav", "key_press": -1, "type": "PRES_AUD", "word": "jello", "wordID": 753, "conditions": [12, 1600, "a", 12000], "trial": 7, "serialpos": 6, "trial_type": "single-audio", "trial_index": 259, "time_elapsed": 1237376, "internal_node_id": "0.0-187.0"}}, {"uniqueid": "MTK0165:31N2WW6R9SXRU0ZZV308105G7MFF3E", "current_trial": 260, "dateTime": 1509473358171, "trialdata": {"rt": -1000, "stimulus": "/static/audio/wordpool/LAKE.wav", "key_press": -1, "type": "PRES_AUD", "word": "lake", "wordID": 795, "conditions": [12, 1600, "a", 12000], "trial": 7, "serialpos": 7, "trial_type": "single-audio", "trial_index": 260, "time_elapsed": 1239980, "internal_node_id": "0.0-188.0"}}, {"uniqueid": "MTK0165:31N2WW6R9SXRU0ZZV308105G7MFF3E", "current_trial": 261, "dateTime": 1509473360587, "trialdata": {"rt": -1000, "stimulus": "/static/audio/wordpool/BEEF.wav", "key_press": -1, "type": "PRES_AUD", "word": "beef", "wordID": 112, "conditions": [12, 1600, "a", 12000], "trial": 7, "serialpos": 8, "trial_type": "single-audio", "trial_index": 261, "time_elapsed": 1242395, "internal_node_id": "0.0-189.0"}}, {"uniqueid": "MTK0165:31N2WW6R9SXRU0ZZV308105G7MFF3E", "current_trial": 262, "dateTime": 1509473363015, "trialdata": {"rt": -1000, "stimulus": "/static/audio/wordpool/RIFLE.wav", "key_press": -1, "type": "PRES_AUD", "word": "rifle", "wordID": 1191, "conditions": [12, 1600, "a", 12000], "trial": 7, "serialpos": 9, "trial_type": "single-audio", "trial_index": 262, "time_elapsed": 1244824, "internal_node_id": "0.0-190.0"}}, {"uniqueid": "MTK0165:31N2WW6R9SXRU0ZZV308105G7MFF3E", "current_trial": 263, "dateTime": 1509473365763, "trialdata": {"rt": -1000, "stimulus": "/static/audio/wordpool/TUBA.wav", "key_press": -1, "type": "PRES_AUD", "word": "tuba", "wordID": 1514, "conditions": [12, 1600, "a", 12000], "trial": 7, "serialpos": 10, "trial_type": "single-audio", "trial_index": 263, "time_elapsed": 1247572, "internal_node_id": "0.0-191.0"}}, {"uniqueid": "MTK0165:31N2WW6R9SXRU0ZZV308105G7MFF3E", "current_trial": 264, "dateTime": 1509473368486, "trialdata": {"rt": -1000, "stimulus": "/static/audio/wordpool/SHOVEL.wav", "key_press": -1, "type": "PRES_AUD", "word": "shovel", "wordID": 1294, "conditions": [12, 1600, "a", 12000], "trial": 7, "serialpos": 11, "trial_type": "single-audio", "trial_index": 264, "time_elapsed": 1250294, "internal_node_id": "0.0-192.0"}}, {"uniqueid": "MTK0165:31N2WW6R9SXRU0ZZV308105G7MFF3E", "current_trial": 265, "dateTime": 1509473369710, "trialdata": {"rt": -1, "stimulus": "", "key_press": -1, "type": "PRE_RECALL_DELAY", "trial_type": "single-stim", "trial_index": 265, "time_elapsed": 1251519, "internal_node_id": "0.0-193.0-0.0"}}, {"uniqueid": "MTK0165:31N2WW6R9SXRU0ZZV308105G7MFF3E", "current_trial": 266, "dateTime": 1509473370215, "trialdata": {"rt": -1000, "stimulus": "/static/audio/400Hz.wav", "key_press": -1, "type": "PRE_RECALL_ALERT", "trial_type": "single-audio", "trial_index": 266, "time_elapsed": 1252021, "internal_node_id": "0.0-194.0"}}, {"uniqueid": "MTK0165:31N2WW6R9SXRU0ZZV308105G7MFF3E", "current_trial": 267, "dateTime": 1509473430229, "trialdata": {"rt": [2913, 4595, 6838, 8375, 11755, 13617, 15194], "recwords": ["shovel", "beef", "blade", "knife", "baloon", "paddle", "jello"], "type": "FREE_RECALL", "conditions": [12, 1600, "a", 12000], "trial": 7, "trial_type": "free-recall", "trial_index": 267, "time_elapsed": 1312028, "internal_node_id": "0.0-195.0-0.0"}}, {"uniqueid": "MTK0165:31N2WW6R9SXRU0ZZV308105G7MFF3E", "current_trial": 268, "dateTime": 1509473433342, "trialdata": {"rt": 1112, "key_press": 32, "type": "INSTRUCTIONS", "trial_type": "text", "trial_index": 268, "time_elapsed": 1315151, "internal_node_id": "0.0-196.0"}}, {"uniqueid": "MTK0165:31N2WW6R9SXRU0ZZV308105G7MFF3E", "current_trial": 269, "dateTime": 1509473459346, "trialdata": {"rt": [3508, 6070, 10326, 12120, 14290, 16508, 18898, 21918], "responses": ["10", "14", "15", "9", "9", "13", "14", "19"], "num1": [4, 2, 3, 3, 2, 3, 7, 6, 5], "num2": [3, 4, 4, 3, 3, 8, 1, 7, 6], "num3": [3, 8, 8, 3, 4, 2, 6, 6, 6], "type": "DISTRACTOR", "conditions": [24, 800, "a", 24000], "trial": 8, "trial_type": "math-distractor", "trial_index": 269, "time_elapsed": 1341155, "internal_node_id": "0.0-197.0"}}, {"uniqueid": "MTK0165:31N2WW6R9SXRU0ZZV308105G7MFF3E", "current_trial": 270, "dateTime": 1509473462349, "trialdata": {"rt": -1, "stimulus": "<p id=\"stim\">10</p>", "key_press": -1, "trial_type": "single-stim", "trial_index": 270, "time_elapsed": 1344158, "internal_node_id": "0.0-198.0-0.0"}}, {"uniqueid": "MTK0165:31N2WW6R9SXRU0ZZV308105G7MFF3E", "current_trial": 271, "dateTime": 1509473463351, "trialdata": {"rt": -1, "stimulus": "<p id=\"stim\">9</p>", "key_press": -1, "trial_type": "single-stim", "trial_index": 271, "time_elapsed": 1345160, "internal_node_id": "0.0-198.0-1.0"}}, {"uniqueid": "MTK0165:31N2WW6R9SXRU0ZZV308105G7MFF3E", "current_trial": 272, "dateTime": 1509473464353, "trialdata": {"rt": -1, "stimulus": "<p id=\"stim\">8</p>", "key_press": -1, "trial_type": "single-stim", "trial_index": 272, "time_elapsed": 1346162, "internal_node_id": "0.0-198.0-2.0"}}, {"uniqueid": "MTK0165:31N2WW6R9SXRU0ZZV308105G7MFF3E", "current_trial": 273, "dateTime": 1509473465355, "trialdata": {"rt": -1, "stimulus": "<p id=\"stim\">7</p>", "key_press": -1, "trial_type": "single-stim", "trial_index": 273, "time_elapsed": 1347164, "internal_node_id": "0.0-198.0-3.0"}}, {"uniqueid": "MTK0165:31N2WW6R9SXRU0ZZV308105G7MFF3E", "current_trial": 274, "dateTime": 1509473466357, "trialdata": {"rt": -1, "stimulus": "<p id=\"stim\">6</p>", "key_press": -1, "trial_type": "single-stim", "trial_index": 274, "time_elapsed": 1348165, "internal_node_id": "0.0-198.0-4.0"}}, {"uniqueid": "MTK0165:31N2WW6R9SXRU0ZZV308105G7MFF3E", "current_trial": 275, 