{"condition": 0, "counterbalance": 1357, "assignmentId": "3X87C8JFV7IS56ANZYC3L7H69G7SQO", "workerId": "MTK0675", "hitId": "3TC2K6WK9G9R7JVZTNBVJENI2DY826", "currenttrial": 627, "bonus": 0, "data": [{"uniqueid": "MTK0675:3X87C8JFV7IS56ANZYC3L7H69G7SQO", "current_trial": 0, "dateTime": 1512589372567, "trialdata": {"rt": 40620, "key_press": 32, "type": "INSTRUCTIONS", "trial_type": "text", "trial_index": 0, "time_elapsed": 40622, "internal_node_id": "0.0-0.0"}}, {"uniqueid": "MTK0675:3X87C8JFV7IS56ANZYC3L7H69G7SQO", "current_trial": 1, "dateTime": 1512589392346, "trialdata": {"rt": 19777, "key_press": 32, "type": "INSTRUCTIONS", "trial_type": "text", "trial_index": 1, "time_elapsed": 60402, "internal_node_id": "0.0-1.0"}}, {"uniqueid": "MTK0675:3X87C8JFV7IS56ANZYC3L7H69G7SQO", "current_trial": 2, "dateTime": 1512589402349, "trialdata": {"rt": [9995], "responses": ["ocean"], "type": "AUDIO_TEST", "trial_type": "audio-test", "trial_index": 2, "time_elapsed": 70405, "internal_node_id": "0.0-2.0"}}, {"uniqueid": "MTK0675:3X87C8JFV7IS56ANZYC3L7H69G7SQO", "current_trial": 3, "dateTime": 1512589411233, "trialdata": {"rt": [8878], "responses": ["crystal"], "type": "AUDIO_TEST", "trial_type": "audio-test", "trial_index": 3, "time_elapsed": 79289, "internal_node_id": "0.0-3.0"}}, {"uniqueid": "MTK0675:3X87C8JFV7IS56ANZYC3L7H69G7SQO", "current_trial": 4, "dateTime": 1512589418425, "trialdata": {"rt": [7188], "responses": ["spice"], "type": "AUDIO_TEST", "trial_type": "audio-test", "trial_index": 4, "time_elapsed": 86481, "internal_node_id": "0.0-4.0"}}, {"uniqueid": "MTK0675:3X87C8JFV7IS56ANZYC3L7H69G7SQO", "current_trial": 5, "dateTime": 1512589456394, "trialdata": {"rt": 37215, "responses": "{\"Q0\":\"12am\",\"Q1\":\"7:30am\",\"Q2\":\"4\"}", "type": "SLEEP_SURVEY", "trial_type": "survey-text", "trial_index": 5, "time_elapsed": 124450, "internal_node_id": "0.0-5.0"}}, {"uniqueid": "MTK0675:3X87C8JFV7IS56ANZYC3L7H69G7SQO", "current_trial": 6, "dateTime": 1512589500058, "trialdata": {"rt": 42662, "key_press": 32, "type": "INSTRUCTIONS", "trial_type": "text", "trial_index": 6, "time_elapsed": 168114, "internal_node_id": "0.0-6.0"}}, {"uniqueid": "MTK0675:3X87C8JFV7IS56ANZYC3L7H69G7SQO", "current_trial": 7, "dateTime": 1512589543662, "trialdata": {"rt": 43101, "key_press": 32, "type": "INSTRUCTIONS", "trial_type": "text", "trial_index": 7, "time_elapsed": 211718, "internal_node_id": "0.0-7.0"}}, {"uniqueid": "MTK0675:3X87C8JFV7IS56ANZYC3L7H69G7SQO", "current_trial": 8, "dateTime": 1512589555191, "trialdata": {"rt": 11028, "key_press": 32, "type": "INSTRUCTIONS", "trial_type": "text", "trial_index": 8, "time_elapsed": 223247, "internal_node_id": "0.0-8.0"}}, {"uniqueid": "MTK0675:3X87C8JFV7IS56ANZYC3L7H69G7SQO", "current_trial": 9, "dateTime": 1512589574196, "trialdata": {"rt": [2921, 6552, 11437, 13795, 16221], "responses": ["9", "14", "21", "12", "11"], "num1": [1, 2, 4, 5, 1, 5], "num2": [3, 7, 9, 4, 9, 4], "num3": [5, 5, 8, 2, 1, 8], "type": "DISTRACTOR", "conditions": [18, 1200, "v", 18000], "trial": 0, "trial_type": "math-distractor", "trial_index": 9, "time_elapsed": 242252, "internal_node_id": "0.0-9.0"}}, {"uniqueid": "MTK0675:3X87C8JFV7IS56ANZYC3L7H69G7SQO", "current_trial": 10, "dateTime": 1512589577199, "trialdata": {"rt": -1, "stimulus": "<p id=\"stim\">10</p>", "key_press": -1, "trial_type": "single-stim", "trial_index": 10, "time_elapsed": 245255, "internal_node_id": "0.0-10.0-0.0"}}, {"uniqueid": "MTK0675:3X87C8JFV7IS56ANZYC3L7H69G7SQO", "current_trial": 11, "dateTime": 1512589578200, "trialdata": {"rt": -1, "stimulus": "<p id=\"stim\">9</p>", "key_press": -1, "trial_type": "single-stim", "trial_index": 11, "time_elapsed": 246256, "internal_node_id": "0.0-10.0-1.0"}}, {"uniqueid": "MTK0675:3X87C8JFV7IS56ANZYC3L7H69G7SQO", "current_trial": 12, "dateTime": 1512589579201, "trialdata": {"rt": 699, "stimulus": "<p id=\"stim\">8</p>", "key_press": 175, "trial_type": "single-stim", "trial_index": 12, "time_elapsed": 247257, "internal_node_id": "0.0-10.0-2.0"}}, {"uniqueid": "MTK0675:3X87C8JFV7IS56ANZYC3L7H69G7SQO", "current_trial": 13, "dateTime": 1512589580204, "trialdata": {"rt": -1, "stimulus": "<p id=\"stim\">7</p>", "key_press": -1, "trial_type": "single-stim", "trial_index": 13, "time_elapsed": 248260, "internal_node_id": "0.0-10.0-3.0"}}, {"uniqueid": "MTK0675:3X87C8JFV7IS56ANZYC3L7H69G7SQO", "current_trial": 14, "dateTime": 1512589581206, "trialdata": {"rt": -1, "stimulus": "<p id=\"stim\">6</p>", "key_press": -1, "trial_type": "single-stim", "trial_index": 14, "time_elapsed": 249262, "internal_node_id": "0.0-10.0-4.0"}}, {"uniqueid": "MTK0675:3X87C8JFV7IS56ANZYC3L7H69G7SQO", "current_trial": 15, "dateTime": 1512589582207, "trialdata": {"rt": -1, "stimulus": "<p id=\"stim\">5</p>", "key_press": -1, "trial_type": "single-stim", "trial_index": 15, "time_elapsed": 250263, "internal_node_id": "0.0-10.0-5.0"}}, {"uniqueid": "MTK0675:3X87C8JFV7IS56ANZYC3L7H69G7SQO", "current_trial": 16, "dateTime": 1512589583210, "trialdata": {"rt": -1, "stimulus": "<p id=\"stim\">4</p>", "key_press": -1, "trial_type": "single-stim", "trial_index": 16, "time_elapsed": 251266, "internal_node_id": "0.0-10.0-6.0"}}, {"uniqueid": "MTK0675:3X87C8JFV7IS56ANZYC3L7H69G7SQO", "current_trial": 17, "dateTime": 1512589584212, "trialdata": {"rt": -1, "stimulus": "<p id=\"stim\">3</p>", "key_press": -1, "trial_type": "single-stim", "trial_index": 17, "time_elapsed": 252268, "internal_node_id": "0.0-10.0-7.0"}}, {"uniqueid": "MTK0675:3X87C8JFV7IS56ANZYC3L7H69G7SQO", "current_trial": 18, "dateTime": 1512589585213, "trialdata": {"rt": -1, "stimulus": "<p id=\"stim\">2</p>", "key_press": -1, "trial_type": "single-stim", "trial_index": 18, "time_elapsed": 253269, "internal_node_id": "0.0-10.0-8.0"}}, {"uniqueid": "MTK0675:3X87C8JFV7IS56ANZYC3L7H69G7SQO", "current_trial": 19, "dateTime": 1512589586213, "trialdata": {"rt": -1, "stimulus": "<p id=\"stim\">1</p>", "key_press": -1, "trial_type": "single-stim", "trial_index": 19, "time_elapsed": 254269, "internal_node_id": "0.0-10.0-9.0"}}, {"uniqueid": "MTK0675:3X87C8JFV7IS56ANZYC3L7H69G7SQO", "current_trial": 20, "dateTime": 1512589587716, "trialdata": {"rt": -1, "stimulus": "<p id=\"stim\">+</p>", "key_press": -1, "type": "FIXATION", "trial_type": "single-stim", "trial_index": 20, "time_elapsed": 255772, "internal_node_id": "0.0-11.0-0.0"}}, {"uniqueid": "MTK0675:3X87C8JFV7IS56ANZYC3L7H69G7SQO", "current_trial": 21, "dateTime": 1512589588918, "trialdata": {"rt": -1, "stimulus": "<p id=\"stim\">FRAGRANCE</p>", "key_press": -1, "type": "PRES_VIS", "word": "fragrance", "wordID": 598, "conditions": [18, 1200, "v", 18000], "trial": 0, "serialpos": 0, "trial_type": "single-stim", "trial_index": 21, "time_elapsed": 256974, "internal_node_id": "0.0-12.0"}}, {"uniqueid": "MTK0675:3X87C8JFV7IS56ANZYC3L7H69G7SQO", "current_trial": 22, "dateTime": 1512589591041, "trialdata": {"rt": -1, "stimulus": "<p id=\"stim\">CASHIER</p>", "key_press": -1, "type": "PRES_VIS", "word": "cashier", "wordID": 253, "conditions": [18, 1200, "v", 18000], "trial": 0, "serialpos": 1, "trial_type": "single-stim", "trial_index": 22, "time_elapsed": 259097, "internal_node_id": "0.0-13.0"}}, {"uniqueid": "MTK0675:3X87C8JFV7IS56ANZYC3L7H69G7SQO", "current_trial": 23, "dateTime": 1512589593086, "trialdata": {"rt": -1, "stimulus": "<p id=\"stim\">LOFT</p>", "key_press": -1, "type": "PRES_VIS", "word": "loft", "wordID": 839, "conditions": [18, 1200, "v", 18000], "trial": 0, "serialpos": 2, "trial_type": "single-stim", "trial_index": 23, "time_elapsed": 261142, "internal_node_id": "0.0-14.0"}}, {"uniqueid": "MTK0675:3X87C8JFV7IS56ANZYC3L7H69G7SQO", "current_trial": 24, "dateTime": 1512589595097, "trialdata": {"rt": -1, "stimulus": "<p id=\"stim\">NIGHTGOWN</p>", "key_press": -1, "type": "PRES_VIS", "word": "nightgown", "wordID": 952, "conditions": [18, 1200, "v", 18000], "trial": 0, "serialpos": 3, "trial_type": "single-stim", "trial_index": 24, "time_elapsed": 263153, "internal_node_id": "0.0-15.0"}}, {"uniqueid": "MTK0675:3X87C8JFV7IS56ANZYC3L7H69G7SQO", "current_trial": 25, "dateTime": 1512589597487, "trialdata": {"rt": -1, "stimulus": "<p id=\"stim\">UMPIRE</p>", "key_press": -1, "type": "PRES_VIS", "word": "umpire", "wordID": 1534, "conditions": [18, 1200, "v", 18000], "trial": 0, "serialpos": 4, "trial_type": "single-stim", "trial_index": 25, "time_elapsed": 265543, "internal_node_id": "0.0-16.0"}}, {"uniqueid": "MTK0675:3X87C8JFV7IS56ANZYC3L7H69G7SQO", "current_trial": 26, "dateTime": 1512589599771, "trialdata": {"rt": -1, "stimulus": "<p id=\"stim\">COMET</p>", "key_press": -1, "type": "PRES_VIS", "word": "comet", "wordID": 352, "conditions": [18, 1200, "v", 18000], "trial": 0, "serialpos": 5, "trial_type": "single-stim", "trial_index": 26, "time_elapsed": 267827, "internal_node_id": "0.0-17.0"}}, {"uniqueid": "MTK0675:3X87C8JFV7IS56ANZYC3L7H69G7SQO", "current_trial": 27, "dateTime": 1512589601875, "trialdata": {"rt": -1, "stimulus": "<p id=\"stim\">REBEL</p>", "key_press": -1, "type": "PRES_VIS", "word": "rebel", "wordID": 1171, "conditions": [18, 1200, "v", 18000], "trial": 0, "serialpos": 6, "trial_type": "single-stim", "trial_index": 27, "time_elapsed": 269931, "internal_node_id": "0.0-18.0"}}, {"uniqueid": "MTK0675:3X87C8JFV7IS56ANZYC3L7H69G7SQO", "current_trial": 28, "dateTime": 1512589604089, "trialdata": {"rt": -1, "stimulus": "<p id=\"stim\">STAMP</p>", "key_press": -1, "type": "PRES_VIS", "word": "stamp", "wordID": 1369, "conditions": [18, 1200, "v", 18000], "trial": 0, "serialpos": 7, "trial_type": "single-stim", "trial_index": 28, "time_elapsed": 272145, "internal_node_id": "0.0-19.0"}}, {"uniqueid": "MTK0675:3X87C8JFV7IS56ANZYC3L7H69G7SQO", "current_trial": 29, "dateTime": 1512589606456, "trialdata": {"rt": -1, "stimulus": "<p id=\"stim\">HIKER</p>", "key_press": -1, "type": "PRES_VIS", "word": "hiker", "wordID": 707, "conditions": [18, 1200, "v", 18000], "trial": 0, "serialpos": 8, "trial_type": "single-stim", "trial_index": 29, "time_elapsed": 274512, "internal_node_id": "0.0-20.0"}}, {"uniqueid": "MTK0675:3X87C8JFV7IS56ANZYC3L7H69G7SQO", "current_trial": 30, "dateTime": 1512589608586, "trialdata": {"rt": -1, "stimulus": "<p id=\"stim\">THIEF</p>", "key_press": -1, "type": "PRES_VIS", "word": "thief", "wordID": 1455, "conditions": [18, 1200, "v", 18000], "trial": 0, "serialpos": 9, "trial_type": "single-stim", "trial_index": 30, "time_elapsed": 276642, "internal_node_id": "0.0-21.0"}}, {"uniqueid": "MTK0675:3X87C8JFV7IS56ANZYC3L7H69G7SQO", "current_trial": 31, "dateTime": 1512589610981, "trialdata": {"rt": -1, "stimulus": "<p id=\"stim\">PERCH</p>", "key_press": -1, "type": "PRES_VIS", "word": "perch", "wordID": 1047, "conditions": [18, 1200, "v", 18000], "trial": 0, "serialpos": 10, "trial_type": "single-stim", "trial_index": 31, "time_elapsed": 279037, "internal_node_id": "0.0-22.0"}}, {"uniqueid": "MTK0675:3X87C8JFV7IS56ANZYC3L7H69G7SQO", "current_trial": 32, "dateTime": 1512589613046, "trialdata": {"rt": -1, "stimulus": "<p id=\"stim\">DENTIST</p>", "key_press": -1, "type": "PRES_VIS", "word": "dentist", "wordID": 446, "conditions": [18, 1200, "v", 18000], "trial": 0, "serialpos": 11, "trial_type": "single-stim", "trial_index": 32, "time_elapsed": 281102, "internal_node_id": "0.0-23.0"}}, {"uniqueid": "MTK0675:3X87C8JFV7IS56ANZYC3L7H69G7SQO", "current_trial": 33, "dateTime": 1512589615392, "trialdata": {"rt": -1, "stimulus": "<p id=\"stim\">GHETTO</p>", "key_press": -1, "type": "PRES_VIS", "word": "ghetto", "wordID": 632, "conditions": [18, 1200, "v", 18000], "trial": 0, "serialpos": 12, "trial_type": "single-stim", "trial_index": 33, "time_elapsed": 283448, "internal_node_id": "0.0-24.0"}}, {"uniqueid": "MTK0675:3X87C8JFV7IS56ANZYC3L7H69G7SQO", "current_trial": 34, "dateTime": 1512589617502, "trialdata": {"rt": -1, "stimulus": "<p id=\"stim\">GIFT</p>", "key_press": -1, "type": "PRES_VIS", "word": "gift", "wordID": 634, "conditions": [18, 1200, "v", 18000], "trial": 0, "serialpos": 13, "trial_type": "single-stim", "trial_index": 34, "time_elapsed": 285558, "internal_node_id": "0.0-25.0"}}, {"uniqueid": "MTK0675:3X87C8JFV7IS56ANZYC3L7H69G7SQO", "current_trial": 35, "dateTime": 1512589619658, "trialdata": {"rt": -1, "stimulus": "<p id=\"stim\">MATCH</p>", "key_press": -1, "type": "PRES_VIS", "word": "match", "wordID": 877, "conditions": [18, 1200, "v", 18000], "trial": 0, "serialpos": 14, "trial_type": "single-stim", "trial_index": 35, "time_elapsed": 287714, "internal_node_id": "0.0-26.0"}}, {"uniqueid": "MTK0675:3X87C8JFV7IS56ANZYC3L7H69G7SQO", "current_trial": 36, "dateTime": 1512589621830, "trialdata": {"rt": -1, "stimulus": "<p id=\"stim\">SPONGE</p>", "key_press": -1, "type": "PRES_VIS", "word": "sponge", "wordID": 1354, "conditions": [18, 1200, "v", 18000], "trial": 0, "serialpos": 15, "trial_type": "single-stim", "trial_index": 36, "time_elapsed": 289886, "internal_node_id": "0.0-27.0"}}, {"uniqueid": "MTK0675:3X87C8JFV7IS56ANZYC3L7H69G7SQO", "current_trial": 37, "dateTime": 1512589623874, "trialdata": {"rt": -1, "stimulus": "<p id=\"stim\">RADISH</p>", "key_press": -1, "type": "PRES_VIS", "word": "radish", "wordID": 1157, "conditions": [18, 1200, "v", 18000], "trial": 0, "serialpos": 16, "trial_type": "single-stim", "trial_index": 37, "time_elapsed": 291930, "internal_node_id": "0.0-28.0"}}, {"uniqueid": "MTK0675:3X87C8JFV7IS56ANZYC3L7H69G7SQO", "current_trial": 38, "dateTime": 1512589626220, "trialdata": {"rt": -1, "stimulus": "<p id=\"stim\">BROOK</p>", "key_press": -1, "type": "PRES_VIS", "word": "brook", "wordID": 176, "conditions": [18, 1200, "v", 18000], "trial": 0, "serialpos": 17, "trial_type": "single-stim", "trial_index": 38, "time_elapsed": 294276, "internal_node_id": "0.0-29.0"}}, {"uniqueid": "MTK0675:3X87C8JFV7IS56ANZYC3L7H69G7SQO", "current_trial": 39, "dateTime": 1512589628452, "trialdata": {"rt": -1, "stimulus": "", "key_press": -1, "type": "PRE_RECALL_DELAY", "trial_type": "single-stim", "trial_index": 39, "time_elapsed": 296508, "internal_node_id": "0.0-30.0-0.0"}}, {"uniqueid": "MTK0675:3X87C8JFV7IS56ANZYC3L7H69G7SQO", "current_trial": 40, "dateTime": 1512589628962, "trialdata": {"rt": -1000, "stimulus": "/static/audio/400Hz.wav", "key_press": -1, "type": "PRE_RECALL_ALERT", "trial_type": "single-audio", "trial_index": 40, "time_elapsed": 297018, "internal_node_id": "0.0-31.0"}}, {"uniqueid": "MTK0675:3X87C8JFV7IS56ANZYC3L7H69G7SQO", "current_trial": 41, "dateTime": 1512589688968, "trialdata": {"rt": [3144, 5062, 7352, 9459, 11284, 17944, 25577, 32929, 41655], "recwords": ["brook", "sponge", "nightgown", "rebel", "gift", "nature", "umpire", "fragrance", ""], "type": "FREE_RECALL", "conditions": [18, 1200, "v", 18000], "trial": 0, "trial_type": "free-recall", "trial_index": 41, "time_elapsed": 357022, "internal_node_id": "0.0-32.0-0.0"}}, {"uniqueid": "MTK0675:3X87C8JFV7IS56ANZYC3L7H69G7SQO", "current_trial": 42, "dateTime": 1512589706927, "trialdata": {"rt": 15957, "key_press": 32, "type": "INSTRUCTIONS", "trial_type": "text", "trial_index": 42, "time_elapsed": 374983, "internal_node_id": "0.0-33.0"}}, {"uniqueid": "MTK0675:3X87C8JFV7IS56ANZYC3L7H69G7SQO", "current_trial": 43, "dateTime": 1512589726930, "trialdata": {"rt": [2533, 4786, 7475, 10193, 12333, 15271, 17480], "responses": ["11", "9", "19", "18", "14", "14", "15"], "num1": [2, 2, 9, 9, 4, 8, 4, 5], "num2": [4, 4, 5, 2, 9, 5, 6, 3], "num3": [5, 3, 5, 7, 1, 1, 5, 9], "type": "DISTRACTOR", "conditions": [18, 1200, "a", 18000], "trial": 1, "trial_type": "math-distractor", "trial_index": 43, "time_elapsed": 394986, "internal_node_id": "0.0-34.0"}}, {"uniqueid": "MTK0675:3X87C8JFV7IS56ANZYC3L7H69G7SQO", "current_trial": 44, "dateTime": 1512589729932, "trialdata": {"rt": -1, "stimulus": "<p id=\"stim\">10</p>", "key_press": -1, "trial_type": "single-stim", "trial_index": 44, "time_elapsed": 397988, "internal_node_id": "0.0-35.0-0.0"}}, {"uniqueid": "MTK0675:3X87C8JFV7IS56ANZYC3L7H69G7SQO", "current_trial": 45, "dateTime": 1512589730934, "trialdata": {"rt": -1, "stimulus": "<p id=\"stim\">9</p>", "key_press": -1, "trial_type": "single-stim", "trial_index": 45, "time_elapsed": 398990, "internal_node_id": "0.0-35.0-1.0"}}, {"uniqueid": "MTK0675:3X87C8JFV7IS56ANZYC3L7H69G7SQO", "current_trial": 46, "dateTime": 1512589731936, "trialdata": {"rt": -1, "stimulus": "<p id=\"stim\">8</p>", "key_press": -1, "trial_type": "single-stim", "trial_index": 46, "time_elapsed": 399992, "internal_node_id": "0.0-35.0-2.0"}}, {"uniqueid": "MTK0675:3X87C8JFV7IS56ANZYC3L7H69G7SQO", "current_trial": 47, "dateTime": 1512589732938, "trialdata": {"rt": -1, "stimulus": "<p id=\"stim\">7</p>", "key_press": -1, "trial_type": "single-stim", "trial_index": 47, "time_elapsed": 400994, "internal_node_id": "0.0-35.0-3.0"}}, {"uniqueid": "MTK0675:3X87C8JFV7IS56ANZYC3L7H69G7SQO", "current_trial": 48, "dateTime": 1512589733940, "trialdata": {"rt": -1, "stimulus": "<p id=\"stim\">6</p>", "key_press": -1, "trial_type": "single-stim", "trial_index": 48, "time_elapsed": 401996, "internal_node_id": "0.0-35.0-4.0"}}, {"uniqueid": "MTK0675:3X87C8JFV7IS56ANZYC3L7H69G7SQO", "current_trial": 49, "dateTime": 1512589734942, "trialdata": {"rt": -1, "stimulus": "<p id=\"stim\">5</p>", "key_press": -1, "trial_type": "single-stim", "trial_index": 49, "time_elapsed": 402998, "internal_node_id": "0.0-35.0-5.0"}}, {"uniqueid": "MTK0675:3X87C8JFV7IS56ANZYC3L7H69G7SQO", "current_trial": 50, "dateTime": 1512589735943, "trialdata": {"rt": -1, "stimulus": "<p id=\"stim\">4</p>", "key_press": -1, "trial_type": "single-stim", "trial_index": 50, "time_elapsed": 403999, "internal_node_id": "0.0-35.0-6.0"}}, {"uniqueid": "MTK0675:3X87C8JFV7IS56ANZYC3L7H69G7SQO", "current_trial": 51, "dateTime": 1512589736944, "trialdata": {"rt": -1, "stimulus": "<p id=\"stim\">3</p>", "key_press": -1, "trial_type": "single-stim", "trial_index": 51, "time_elapsed": 405000, "internal_node_id": "0.0-35.0-7.0"}}, {"uniqueid": "MTK0675:3X87C8JFV7IS56ANZYC3L7H69G7SQO", "current_trial": 52, "dateTime": 1512589737946, "trialdata": {"rt": -1, "stimulus": "<p id=\"stim\">2</p>", "key_press": -1, "trial_type": "single-stim", "trial_index": 52, "time_elapsed": 406002, "internal_node_id": "0.0-35.0-8.0"}}, {"uniqueid": "MTK0675:3X87C8JFV7IS56ANZYC3L7H69G7SQO", "current_trial": 53, "dateTime": 1512589738947, "trialdata": {"rt": -1, "stimulus": "<p id=\"stim\">1</p>", "key_press": -1, "trial_type": "single-stim", "trial_index": 53, "time_elapsed": 407003, "internal_node_id": "0.0-35.0-9.0"}}, {"uniqueid": "MTK0675:3X87C8JFV7IS56ANZYC3L7H69G7SQO", "current_trial": 54, "dateTime": 1512589740449, "trialdata": {"rt": -1, "stimulus": "<p id=\"stim\">+</p>", "key_press": -1, "type": "FIXATION", "trial_type": "single-stim", "trial_index": 54, "time_elapsed": 408505, "internal_node_id": "0.0-36.0-0.0"}}, {"uniqueid": "MTK0675:3X87C8JFV7IS56ANZYC3L7H69G7SQO", "current_trial": 55, "dateTime": 1512589742552, "trialdata": {"rt": -1000, "stimulus": "/static/audio/wordpool/PADDING.wav", "key_press": -1, "type": "PRES_AUD", "word": "padding", "wordID": 998, "conditions": [18, 1200, "a", 18000], "trial": 1, "serialpos": 0, "trial_type": "single-audio", "trial_index": 55, "time_elapsed": 410608, "internal_node_id": "0.0-37.0"}}, {"uniqueid": "MTK0675:3X87C8JFV7IS56ANZYC3L7H69G7SQO", "current_trial": 56, "dateTime": 1512589744617, "trialdata": {"rt": 209.33333333334758, "stimulus": "/static/audio/wordpool/MARS.wav", "key_press": 175, "type": "PRES_AUD", "word": "mars", "wordID": 872, "conditions": [18, 1200, "a", 18000], "trial": 1, "serialpos": 1, "trial_type": "single-audio", "trial_index": 56, "time_elapsed": 412673, "internal_node_id": "0.0-38.0"}}, {"uniqueid": "MTK0675:3X87C8JFV7IS56ANZYC3L7H69G7SQO", "current_trial": 57, "dateTime": 1512589746894, "trialdata": {"rt": 1.333333333320752, "stimulus": "/static/audio/wordpool/JOURNAL.wav", "key_press": 175, "type": "PRES_AUD", "word": "journal", "wordID": 759, "conditions": [18, 1200, "a", 18000], "trial": 1, "serialpos": 2, "trial_type": "single-audio", "trial_index": 57, "time_elapsed": 414950, "internal_node_id": "0.0-39.0"}}, {"uniqueid": "MTK0675:3X87C8JFV7IS56ANZYC3L7H69G7SQO", "current_trial": 58, "dateTime": 1512589748997, "trialdata": {"rt": -1000, "stimulus": "/static/audio/wordpool/PROTON.wav", "key_press": -1, "type": "PRES_AUD", "word": "proton", "wordID": 1131, "conditions": [18, 1200, "a", 18000], "trial": 1, "serialpos": 3, "trial_type": "single-audio", "trial_index": 58, "time_elapsed": 417053, "internal_node_id": "0.0-40.0"}}, {"uniqueid": "MTK0675:3X87C8JFV7IS56ANZYC3L7H69G7SQO", "current_trial": 59, "dateTime": 1512589750999, "trialdata": {"rt": -1000, "stimulus": "/static/audio/wordpool/STOMACH.wav", "key_press": -1, "type": "PRES_AUD", "word": "stomach", "wordID": 1383, "conditions": [18, 1200, "a", 18000], "trial": 1, "serialpos": 4, "trial_type": "single-audio", "trial_index": 59, "time_elapsed": 419055, "internal_node_id": "0.0-41.0"}}, {"uniqueid": "MTK0675:3X87C8JFV7IS56ANZYC3L7H69G7SQO", "current_trial": 60, "dateTime": 1512589753127, "trialdata": {"rt": -1000, "stimulus": "/static/audio/wordpool/CURTAIN.wav", "key_press": -1, "type": "PRES_AUD", "word": "curtain", "wordID": 426, "conditions": [18, 1200, "a", 18000], "trial": 1, "serialpos": 5, "trial_type": "single-audio", "trial_index": 60, "time_elapsed": 421182, "internal_node_id": "0.0-42.0"}}, {"uniqueid": "MTK0675:3X87C8JFV7IS56ANZYC3L7H69G7SQO", "current_trial": 61, "dateTime": 1512589755525, "trialdata": {"rt": -1000, "stimulus": "/static/audio/wordpool/TOASTER.wav", "key_press": -1, "type": "PRES_AUD", "word": "toaster", "wordID": 1471, "conditions": [18, 1200, "a", 18000], "trial": 1, "serialpos": 6, "trial_type": "single-audio", "trial_index": 61, "time_elapsed": 423580, "internal_node_id": "0.0-43.0"}}, {"uniqueid": "MTK0675:3X87C8JFV7IS56ANZYC3L7H69G7SQO", "current_trial": 62, "dateTime": 1512589757830, "trialdata": {"rt": -1000, "stimulus": "/static/audio/wordpool/BULLET.wav", "key_press": -1, "type": "PRES_AUD", "word": "bullet", "wordID": 193, "conditions": [18, 1200, "a", 18000], "trial": 1, "serialpos": 7, "trial_type": "single-audio", "trial_index": 62, "time_elapsed": 425886, "internal_node_id": "0.0-44.0"}}, {"uniqueid": "MTK0675:3X87C8JFV7IS56ANZYC3L7H69G7SQO", "current_trial": 63, "dateTime": 1512589760110, "trialdata": {"rt": -1000, "stimulus": "/static/audio/wordpool/GROUND.wav", "key_press": -1, "type": "PRES_AUD", "word": "ground", "wordID": 665, "conditions": [18, 1200, "a", 18000], "trial": 1, "serialpos": 8, "trial_type": "single-audio", "trial_index": 63, "time_elapsed": 428165, "internal_node_id": "0.0-45.0"}}, {"uniqueid": "MTK0675:3X87C8JFV7IS56ANZYC3L7H69G7SQO", "current_trial": 64, "dateTime": 1512589762146, "trialdata": {"rt": -1000, "stimulus": "/static/audio/wordpool/HOUND.wav", "key_press": -1, "type": "PRES_AUD", "word": "hound", "wordID": 723, "conditions": [18, 1200, "a", 18000], "trial": 1, "serialpos": 9, "trial_type": "single-audio", "trial_index": 64, "time_elapsed": 430202, "internal_node_id": "0.0-46.0"}}, {"uniqueid": "MTK0675:3X87C8JFV7IS56ANZYC3L7H69G7SQO", "current_trial": 65, "dateTime": 1512589764219, "trialdata": {"rt": -1000, "stimulus": "/static/audio/wordpool/WITNESS.wav", "key_press": -1, "type": "PRES_AUD", "word": "witness", "wordID": 1617, "conditions": [18, 1200, "a", 18000], "trial": 1, "serialpos": 10, "trial_type": "single-audio", "trial_index": 65, "time_elapsed": 432275, "internal_node_id": "0.0-47.0"}}, {"uniqueid": "MTK0675:3X87C8JFV7IS56ANZYC3L7H69G7SQO", "current_trial": 66, "dateTime": 1512589766329, "trialdata": {"rt": -1000, "stimulus": "/static/audio/wordpool/TABLET.wav", "key_press": -1, "type": "PRES_AUD", "word": "tablet", "wordID": 1426, "conditions": [18, 1200, "a", 18000], "trial": 1, "serialpos": 11, "trial_type": "single-audio", "trial_index": 66, "time_elapsed": 434385, "internal_node_id": "0.0-48.0"}}, {"uniqueid": "MTK0675:3X87C8JFV7IS56ANZYC3L7H69G7SQO", "current_trial": 67, "dateTime": 1512589768704, "trialdata": {"rt": -1000, "stimulus": "/static/audio/wordpool/KIDNEY.wav", "key_press": -1, "type": "PRES_AUD", "word": "kidney", "wordID": 775, "conditions": [18, 1200, "a", 18000], "trial": 1, "serialpos": 12, "trial_type": "single-audio", "trial_index": 67, "time_elapsed": 436760, "internal_node_id": "0.0-49.0"}}, {"uniqueid": "MTK0675:3X87C8JFV7IS56ANZYC3L7H69G7SQO", "current_trial": 68, "dateTime": 1512589771088, "trialdata": {"rt": -1000, "stimulus": "/static/audio/wordpool/POLICE.wav", "key_press": -1, "type": "PRES_AUD", "word": "police", "wordID": 1097, "conditions": [18, 1200, "a", 18000], "trial": 1, "serialpos": 13, "trial_type": "single-audio", "trial_index": 68, "time_elapsed": 439142, "internal_node_id": "0.0-50.0"}}, {"uniqueid": "MTK0675:3X87C8JFV7IS56ANZYC3L7H69G7SQO", "current_trial": 69, "dateTime": 1512589773292, "trialdata": {"rt": -1000, "stimulus": "/static/audio/wordpool/CABBAGE.wav", "key_press": -1, "type": "PRES_AUD", "word": "cabbage", "wordID": 209, "conditions": [18, 1200, "a", 18000], "trial": 1, "serialpos": 14, "trial_type": "single-audio", "trial_index": 69, "time_elapsed": 441347, "internal_node_id": "0.0-51.0"}}, {"uniqueid": "MTK0675:3X87C8JFV7IS56ANZYC3L7H69G7SQO", "current_trial": 70, "dateTime": 1512589775620, "trialdata": {"rt": -1000, "stimulus": "/static/audio/wordpool/SEAL.wav", "key_press": -1, "type": "PRES_AUD", "word": "seal", "wordID": 1261, "conditions": [18, 1200, "a", 18000], "trial": 1, "serialpos": 15, "trial_type": "single-audio", "trial_index": 70, "time_elapsed": 443676, "internal_node_id": "0.0-52.0"}}, {"uniqueid": "MTK0675:3X87C8JFV7IS56ANZYC3L7H69G7SQO", "current_trial": 71, "dateTime": 1512589777664, "trialdata": {"rt": -1000, "stimulus": "/static/audio/wordpool/WINDOW.wav", "key_press": -1, "type": "PRES_AUD", "word": "window", "wordID": 1610, "conditions": [18, 1200, "a", 18000], "trial": 1, "serialpos": 16, "trial_type": "single-audio", "trial_index": 71, "time_elapsed": 445720, "internal_node_id": "0.0-53.0"}}, {"uniqueid": "MTK0675:3X87C8JFV7IS56ANZYC3L7H69G7SQO", "current_trial": 72, "dateTime": 1512589779875, "trialdata": {"rt": -1000, "stimulus": "/static/audio/wordpool/MAMMAL.wav", "key_press": -1, "type": "PRES_AUD", "word": "mammal", "wordID": 860, "conditions": [18, 1200, "a", 18000], "trial": 1, "serialpos": 17, "trial_type": "single-audio", "trial_index": 72, "time_elapsed": 447931, "internal_node_id": "0.0-54.0"}}, {"uniqueid": "MTK0675:3X87C8JFV7IS56ANZYC3L7H69G7SQO", "current_trial": 73, "dateTime": 1512589781149, "trialdata": {"rt": -1, "stimulus": "", "key_press": -1, "type": "PRE_RECALL_DELAY", "trial_type": "single-stim", "trial_index": 73, "time_elapsed": 449205, "internal_node_id": "0.0-55.0-0.0"}}, {"uniqueid": "MTK0675:3X87C8JFV7IS56ANZYC3L7H69G7SQO", "current_trial": 74, "dateTime": 1512589781650, "trialdata": {"rt": -1000, "stimulus": "/static/audio/400Hz.wav", "key_press": -1, "type": "PRE_RECALL_ALERT", "trial_type": "single-audio", "trial_index": 74, "time_elapsed": 449706, "internal_node_id": "0.0-56.0"}}, {"uniqueid": "MTK0675:3X87C8JFV7IS56ANZYC3L7H69G7SQO", "current_trial": 75, "dateTime": 1512589841655, "trialdata": {"rt": [2974, 4564, 5763, 7721, 10881, 19957, 23648, 38106, 51333, 52867], "recwords": ["mammal", "window", "seal", "police", "cabagge", "proton", "journey", "certain", "ground", "hound"], "type": "FREE_RECALL", "conditions": [18, 1200, "a", 18000], "trial": 1, "trial_type": "free-recall", "trial_index": 75, "time_elapsed": 509709, "internal_node_id": "0.0-57.0-0.0"}}, {"uniqueid": "MTK0675:3X87C8JFV7IS56ANZYC3L7H69G7SQO", "current_trial": 76, "dateTime": 1512589846099, "trialdata": {"rt": 2439, "key_press": 32, "type": "INSTRUCTIONS", "trial_type": "text", "trial_index": 76, "time_elapsed": 514151, "internal_node_id": "0.0-58.0"}}, {"uniqueid": "MTK0675:3X87C8JFV7IS56ANZYC3L7H69G7SQO", "current_trial": 77, "dateTime": 1512589871101, "trialdata": {"rt": [4380, 6873, 9639, 11428, 15352, 16974, 23152], "responses": ["19", "9", "8", "13", "14", "14", "25"], "num1": [9, 2, 2, 5, 3, 4, 8, 4], "num2": [6, 1, 4, 5, 3, 5, 8, 7], "num3": [5, 6, 2, 3, 8, 5, 9, 6], "type": "DISTRACTOR", "conditions": [12, 800, "a", 24000], "trial": 2, "trial_type": "math-distractor", "trial_index": 77, "time_elapsed": 539157, "internal_node_id": "0.0-59.0"}}, {"uniqueid": "MTK0675:3X87C8JFV7IS56ANZYC3L7H69G7SQO", "current_trial": 78, "dateTime": 1512589874102, "trialdata": {"rt": -1, "stimulus": "<p id=\"stim\">10</p>", "key_press": -1, "trial_type": "single-stim", "trial_index": 78, "time_elapsed": 542158, "internal_node_id": "0.0-60.0-0.0"}}, {"uniqueid": "MTK0675:3X87C8JFV7IS56ANZYC3L7H69G7SQO", "current_trial": 79, "dateTime": 1512589875105, "trialdata": {"rt": -1, "stimulus": "<p id=\"stim\">9</p>", "key_press": -1, "trial_type": "single-stim", "trial_index": 79, "time_elapsed": 543161, "internal_node_id": "0.0-60.0-1.0"}}, {"uniqueid": "MTK0675:3X87C8JFV7IS56ANZYC3L7H69G7SQO", "current_trial": 80, "dateTime": 1512589876106, "trialdata": {"rt": -1, "stimulus": "<p id=\"stim\">8</p>", "key_press": -1, "trial_type": "single-stim", "trial_index": 80, "time_elapsed": 544162, "internal_node_id": "0.0-60.0-2.0"}}, {"uniqueid": "MTK0675:3X87C8JFV7IS56ANZYC3L7H69G7SQO", "current_trial": 81, "dateTime": 1512589877109, "trialdata": {"rt": -1, "stimulus": "<p id=\"stim\">7</p>", "key_press": -1, "trial_type": "single-stim", "trial_index": 81, "time_elapsed": 545165, "internal_node_id": "0.0-60.0-3.0"}}, {"uniqueid": "MTK0675:3X87C8JFV7IS56ANZYC3L7H69G7SQO", "current_trial": 82, "dateTime": 1512589878110, "trialdata": {"rt": -1, "stimulus": "<p id=\"stim\">6</p>", "key_press": -1, "trial_type": "single-stim", "trial_index": 82, "time_elapsed": 546166, "internal_node_id": "0.0-60.0-4.0"}}, {"uniqueid": "MTK0675:3X87C8JFV7IS56ANZYC3L7H69G7SQO", "current_trial": 83, "dateTime": 1512589879112, "trialdata": {"rt": -1, "stimulus": "<p id=\"stim\">5</p>", "key_press": -1, "trial_type": "single-stim", "trial_index": 83, "time_elapsed": 547168, "internal_node_id": "0.0-60.0-5.0"}}, {"uniqueid": "MTK0675:3X87C8JFV7IS56ANZYC3L7H69G7SQO", "current_trial": 84, "dateTime": 1512589880113, "trialdata": {"rt": -1, "stimulus": "<p id=\"stim\">4</p>", "key_press": -1, "trial_type": "single-stim", "trial_index": 84, "time_elapsed": 548169, "internal_node_id": "0.0-60.0-6.0"}}, {"uniqueid": "MTK0675:3X87C8JFV7IS56ANZYC3L7H69G7SQO", "current_trial": 85, "dateTime": 1512589881116, "trialdata": {"rt": -1, "stimulus": "<p id=\"stim\">3</p>", "key_press": -1, "trial_type": "single-stim", "trial_index": 85, "time_elapsed": 549172, "internal_node_id": "0.0-60.0-7.0"}}, {"uniqueid": "MTK0675:3X87C8JFV7IS56ANZYC3L7H69G7SQO", "current_trial": 86, "dateTime": 1512589882117, "trialdata": {"rt": -1, "stimulus": "<p id=\"stim\">2</p>", "key_press": -1, "trial_type": "single-stim", "trial_index": 86, "time_elapsed": 550173, "internal_node_id": "0.0-60.0-8.0"}}, {"uniqueid": "MTK0675:3X87C8JFV7IS56ANZYC3L7H69G7SQO", "current_trial": 87, "dateTime": 1512589883118, "trialdata": {"rt": -1, "stimulus": "<p id=\"stim\">1</p>", "key_press": -1, "trial_type": "single-stim", "trial_index": 87, "time_elapsed": 551174, "internal_node_id": "0.0-60.0-9.0"}}, {"uniqueid": "MTK0675:3X87C8JFV7IS56ANZYC3L7H69G7SQO", "current_trial": 88, "dateTime": 1512589884621, "trialdata": {"rt": -1, "stimulus": "<p id=\"stim\">+</p>", "key_press": -1, "type": "FIXATION", "trial_type": "single-stim", "trial_index": 88, "time_elapsed": 552677, "internal_node_id": "0.0-61.0-0.0"}}, {"uniqueid": "MTK0675:3X87C8JFV7IS56ANZYC3L7H69G7SQO", "current_trial": 89, "dateTime": 1512589886416, "trialdata": {"rt": -1000, "stimulus": "/static/audio/wordpool/KNAPSACK.wav", "key_press": -1, "type": "PRES_AUD", "word": "knapsack", "wordID": 782, "conditions": [12, 800, "a", 24000], "trial": 2, "serialpos": 0, "trial_type": "single-audio", "trial_index": 89, "time_elapsed": 554472, "internal_node_id": "0.0-62.0"}}, {"uniqueid": "MTK0675:3X87C8JFV7IS56ANZYC3L7H69G7SQO", "current_trial": 90, "dateTime": 1512589888079, "trialdata": {"rt": -1000, "stimulus": "/static/audio/wordpool/BRIEFCASE.wav", "key_press": -1, "type": "PRES_AUD", "word": "briefcase", "wordID": 174, "conditions": [12, 800, "a", 24000], "trial": 2, "serialpos": 1, "trial_type": "single-audio", "trial_index": 90, "time_elapsed": 556134, "internal_node_id": "0.0-63.0"}}, {"uniqueid": "MTK0675:3X87C8JFV7IS56ANZYC3L7H69G7SQO", "current_trial": 91, "dateTime": 1512589889933, "trialdata": {"rt": -1000, "stimulus": "/static/audio/wordpool/MARKET.wav", "key_press": -1, "type": "PRES_AUD", "word": "market", "wordID": 870, "conditions": [12, 800, "a", 24000], "trial": 2, "serialpos": 2, "trial_type": "single-audio", "trial_index": 91, "time_elapsed": 557989, "internal_node_id": "0.0-64.0"}}, {"uniqueid": "MTK0675:3X87C8JFV7IS56ANZYC3L7H69G7SQO", "current_trial": 92, "dateTime": 1512589891636, "trialdata": {"rt": -1000, "stimulus": "/static/audio/wordpool/REPORT.wav", "key_press": -1, "type": "PRES_AUD", "word": "report", "wordID": 1183, "conditions": [12, 800, "a", 24000], "trial": 2, "serialpos": 3, "trial_type": "single-audio", "trial_index": 92, "time_elapsed": 559692, "internal_node_id": "0.0-65.0"}}, {"uniqueid": "MTK0675:3X87C8JFV7IS56ANZYC3L7H69G7SQO", "current_trial": 93, "dateTime": 1512589893569, "trialdata": {"rt": -1000, "stimulus": "/static/audio/wordpool/BEAVER.wav", "key_press": -1, "type": "PRES_AUD", "word": "beaver", "wordID": 108, "conditions": [12, 800, "a", 24000], "trial": 2, "serialpos": 4, "trial_type": "single-audio", "trial_index": 93, "time_elapsed": 561625, "internal_node_id": "0.0-66.0"}}, {"uniqueid": "MTK0675:3X87C8JFV7IS56ANZYC3L7H69G7SQO", "current_trial": 94, "dateTime": 1512589895311, "trialdata": {"rt": -1000, "stimulus": "/static/audio/wordpool/FOREST.wav", "key_press": -1, "type": "PRES_AUD", "word": "forest", "wordID": 592, "conditions": [12, 800, "a", 24000], "trial": 2, "serialpos": 5, "trial_type": "single-audio", "trial_index": 94, "time_elapsed": 563366, "internal_node_id": "0.0-67.0"}}, {"uniqueid": "MTK0675:3X87C8JFV7IS56ANZYC3L7H69G7SQO", "current_trial": 95, "dateTime": 1512589897238, "trialdata": {"rt": -1000, "stimulus": "/static/audio/wordpool/CLOUD.wav", "key_press": -1, "type": "PRES_AUD", "word": "cloud", "wordID": 327, "conditions": [12, 800, "a", 24000], "trial": 2, "serialpos": 6, "trial_type": "single-audio", "trial_index": 95, "time_elapsed": 565294, "internal_node_id": "0.0-68.0"}}, {"uniqueid": "MTK0675:3X87C8JFV7IS56ANZYC3L7H69G7SQO", "current_trial": 96, "dateTime": 1512589898914, "trialdata": {"rt": -1000, "stimulus": "/static/audio/wordpool/WORLD.wav", "key_press": -1, "type": "PRES_AUD", "word": "world", "wordID": 1621, "conditions": [12, 800, "a", 24000], "trial": 2, "serialpos": 7, "trial_type": "single-audio", "trial_index": 96, "time_elapsed": 566970, "internal_node_id": "0.0-69.0"}}, {"uniqueid": "MTK0675:3X87C8JFV7IS56ANZYC3L7H69G7SQO", "current_trial": 97, "dateTime": 1512589900544, "trialdata": {"rt": -1000, "stimulus": "/static/audio/wordpool/SURVEY.wav", "key_press": -1, "type": "PRES_AUD", "word": "survey", "wordID": 1413, "conditions": [12, 800, "a", 24000], "trial": 2, "serialpos": 8, "trial_type": "single-audio", "trial_index": 97, "time_elapsed": 568599, "internal_node_id": "0.0-70.0"}}, {"uniqueid": "MTK0675:3X87C8JFV7IS56ANZYC3L7H69G7SQO", "current_trial": 98, "dateTime": 1512589902440, "trialdata": {"rt": -1000, "stimulus": "/static/audio/wordpool/LIGHTNING.wav", "key_press": -1, "type": "PRES_AUD", "word": "lightning", "wordID": 819, "conditions": [12, 800, "a", 24000], "trial": 2, "serialpos": 9, "trial_type": "single-audio", "trial_index": 98, "time_elapsed": 570495, "internal_node_id": "0.0-71.0"}}, {"uniqueid": "MTK0675:3X87C8JFV7IS56ANZYC3L7H69G7SQO", "current_trial": 99, "dateTime": 1512589904322, "trialdata": {"rt": -1000, "stimulus": "/static/audio/wordpool/PARROT.wav", "key_press": -1, "type": "PRES_AUD", "word": "parrot", "wordID": 1014, "conditions": [12, 800, "a", 24000], "trial": 2, "serialpos": 10, "trial_type": "single-audio", "trial_index": 99, "time_elapsed": 572378, "internal_node_id": "0.0-72.0"}}, {"uniqueid": "MTK0675:3X87C8JFV7IS56ANZYC3L7H69G7SQO", "current_trial": 100, "dateTime": 1512589906162, "trialdata": {"rt": -1000, "stimulus": "/static/audio/wordpool/DIVER.wav", "key_press": -1, "type": "PRES_AUD", "word": "diver", "wordID": 475, "conditions": [12, 800, "a", 24000], "trial": 2, "serialpos": 11, "trial_type": "single-audio", "trial_index": 100, "time_elapsed": 574218, "internal_node_id": "0.0-73.0"}}, {"uniqueid": "MTK0675:3X87C8JFV7IS56ANZYC3L7H69G7SQO", "current_trial": 101, "dateTime": 1512589907556, "trialdata": {"rt": -1, "stimulus": "", "key_press": -1, "type": "PRE_RECALL_DELAY", "trial_type": "single-stim", "trial_index": 101, "time_elapsed": 575612, "internal_node_id": "0.0-74.0-0.0"}}, {"uniqueid": "MTK0675:3X87C8JFV7IS56ANZYC3L7H69G7SQO", "current_trial": 102, "dateTime": 1512589908059, "trialdata": {"rt": -1000, "stimulus": "/static/audio/400Hz.wav", "key_press": -1, "type": "PRE_RECALL_ALERT", "trial_type": "single-audio", "trial_index": 102, "time_elapsed": 576115, "internal_node_id": "0.0-75.0"}}, {"uniqueid": "MTK0675:3X87C8JFV7IS56ANZYC3L7H69G7SQO", "current_trial": 103, "dateTime": 1512589968062, "trialdata": {"rt": [2034, 3349, 6019, 9828, 20198, 22983, 29033, 36072], "recwords": ["parrot", "diver", "lightning", "survey", "briefcase", "knapsack", "beaver", "report"], "type": "FREE_RECALL", "conditions": [12, 800, "a", 24000], "trial": 2, "trial_type": "free-recall", "trial_index": 103, "time_elapsed": 636116, "internal_node_id": "0.0-76.0-0.0"}}, {"uniqueid": "MTK0675:3X87C8JFV7IS56ANZYC3L7H69G7SQO", "current_trial": 104, "dateTime": 1512589972068, "trialdata": {"rt": 2004, "key_press": 32, "type": "INSTRUCTIONS", "trial_type": "text", "trial_index": 104, "time_elapsed": 640124, "internal_node_id": "0.0-77.0"}}, {"uniqueid": "MTK0675:3X87C8JFV7IS56ANZYC3L7H69G7SQO", "current_trial": 105, "dateTime": 1512589986071, "trialdata": {"rt": [2437, 5522, 7657, 10646], "responses": ["18", "19", "17", "13"], "num1": [4, 8, 1, 8, 9], "num2": [7, 5, 8, 3, 5], "num3": [7, 6, 8, 2, 9], "type": "DISTRACTOR", "conditions": [24, 1600, "a", 12000], "trial": 3, "trial_type": "math-distractor", "trial_index": 105, "time_elapsed": 654127, "internal_node_id": "0.0-78.0"}}, {"uniqueid": "MTK0675:3X87C8JFV7IS56ANZYC3L7H69G7SQO", "current_trial": 106, "dateTime": 1512589989075, "trialdata": {"rt": -1, "stimulus": "<p id=\"stim\">10</p>", "key_press": -1, "trial_type": "single-stim", "trial_index": 106, "time_elapsed": 657131, "internal_node_id": "0.0-79.0-0.0"}}, {"uniqueid": "MTK0675:3X87C8JFV7IS56ANZYC3L7H69G7SQO", "current_trial": 107, "dateTime": 1512589990077, "trialdata": {"rt": -1, "stimulus": "<p id=\"stim\">9</p>", "key_press": -1, "trial_type": "single-stim", "trial_index": 107, "time_elapsed": 658133, "internal_node_id": "0.0-79.0-1.0"}}, {"uniqueid": "MTK0675:3X87C8JFV7IS56ANZYC3L7H69G7SQO", "current_trial": 108, "dateTime": 1512589991078, "trialdata": {"rt": -1, "stimulus": "<p id=\"stim\">8</p>", "key_press": -1, "trial_type": "single-stim", "trial_index": 108, "time_elapsed": 659134, "internal_node_id": "0.0-79.0-2.0"}}, {"uniqueid": "MTK0675:3X87C8JFV7IS56ANZYC3L7H69G7SQO", "current_trial": 109, "dateTime": 1512589992080, "trialdata": {"rt": -1, "stimulus": "<p id=\"stim\">7</p>", "key_press": -1, "trial_type": "single-stim", "trial_index": 109, "time_elapsed": 660136, "internal_node_id": "0.0-79.0-3.0"}}, {"uniqueid": "MTK0675:3X87C8JFV7IS56ANZYC3L7H69G7SQO", "current_trial": 110, "dateTime": 1512589993081, "trialdata": {"rt": -1, "stimulus": "<p id=\"stim\">6</p>", "key_press": -1, "trial_type": "single-stim", "trial_index": 110, "time_elapsed": 661137, "internal_node_id": "0.0-79.0-4.0"}}, {"uniqueid": "MTK0675:3X87C8JFV7IS56ANZYC3L7H69G7SQO", "current_trial": 111, "dateTime": 1512589994083, "trialdata": {"rt": -1, "stimulus": "<p id=\"stim\">5</p>", "key_press": -1, "trial_type": "single-stim", "trial_index": 111, "time_elapsed": 662139, "internal_node_id": "0.0-79.0-5.0"}}, {"uniqueid": "MTK0675:3X87C8JFV7IS56ANZYC3L7H69G7SQO", "current_trial": 112, "dateTime": 1512589995084, "trialdata": {"rt": -1, "stimulus": "<p id=\"stim\">4</p>", "key_press": -1, "trial_type": "single-stim", "trial_index": 112, "time_elapsed": 663140, "internal_node_id": "0.0-79.0-6.0"}}, {"uniqueid": "MTK0675:3X87C8JFV7IS56ANZYC3L7H69G7SQO", "current_trial": 113, "dateTime": 1512589996085, "trialdata": {"rt": -1, "stimulus": "<p id=\"stim\">3</p>", "key_press": -1, "trial_type": "single-stim", "trial_index": 113, "time_elapsed": 664141, "internal_node_id": "0.0-79.0-7.0"}}, {"uniqueid": "MTK0675:3X87C8JFV7IS56ANZYC3L7H69G7SQO", "current_trial": 114, "dateTime": 1512589997086, "trialdata": {"rt": -1, "stimulus": "<p id=\"stim\">2</p>", "key_press": -1, "trial_type": "single-stim", "trial_index": 114, "time_elapsed": 665142, "internal_node_id": "0.0-79.0-8.0"}}, {"uniqueid": "MTK0675:3X87C8JFV7IS56ANZYC3L7H69G7SQO", "current_trial": 115, "dateTime": 1512589998087, "trialdata": {"rt": -1, "stimulus": "<p id=\"stim\">1</p>", "key_press": -1, "trial_type": "single-stim", "trial_index": 115, "time_elapsed": 666143, "internal_node_id": "0.0-79.0-9.0"}}, {"uniqueid": "MTK0675:3X87C8JFV7IS56ANZYC3L7H69G7SQO", "current_trial": 116, "dateTime": 1512589999590, "trialdata": {"rt": -1, "stimulus": "<p id=\"stim\">+</p>", "key_press": -1, "type": "FIXATION", "trial_type": "single-stim", "trial_index": 116, "time_elapsed": 667646, "internal_node_id": "0.0-80.0-0.0"}}, {"uniqueid": "MTK0675:3X87C8JFV7IS56ANZYC3L7H69G7SQO", "current_trial": 117, "dateTime": 1512590002026, "trialdata": {"rt": -1000, "stimulus": "/static/audio/wordpool/BRICK.wav", "key_press": -1, "type": "PRES_AUD", "word": "brick", "wordID": 171, "conditions": [24, 1600, "a", 12000], "trial": 3, "serialpos": 0, "trial_type": "single-audio", "trial_index": 117, "time_elapsed": 670082, "internal_node_id": "0.0-81.0"}}, {"uniqueid": "MTK0675:3X87C8JFV7IS56ANZYC3L7H69G7SQO", "current_trial": 118, "dateTime": 1512590004684, "trialdata": {"rt": -1000, "stimulus": "/static/audio/wordpool/STONE.wav", "key_press": -1, "type": "PRES_AUD", "word": "stone", "wordID": 1384, "conditions": [24, 1600, "a", 12000], "trial": 3, "serialpos": 1, "trial_type": "single-audio", "trial_index": 118, "time_elapsed": 672739, "internal_node_id": "0.0-82.0"}}, {"uniqueid": "MTK0675:3X87C8JFV7IS56ANZYC3L7H69G7SQO", "current_trial": 119, "dateTime": 1512590007325, "trialdata": {"rt": -1000, "stimulus": "/static/audio/wordpool/PEPPER.wav", "key_press": -1, "type": "PRES_AUD", "word": "pepper", "wordID": 1046, "conditions": [24, 1600, "a", 12000], "trial": 3, "serialpos": 2, "trial_type": "single-audio", "trial_index": 119, "time_elapsed": 675381, "internal_node_id": "0.0-83.0"}}, {"uniqueid": "MTK0675:3X87C8JFV7IS56ANZYC3L7H69G7SQO", "current_trial": 120, "dateTime": 1512590009877, "trialdata": {"rt": -1000, "stimulus": "/static/audio/wordpool/ULCER.wav", "key_press": -1, "type": "PRES_AUD", "word": "ulcer", "wordID": 1532, "conditions": [24, 1600, "a", 12000], "trial": 3, "serialpos": 3, "trial_type": "single-audio", "trial_index": 120, "time_elapsed": 677932, "internal_node_id": "0.0-84.0"}}, {"uniqueid": "MTK0675:3X87C8JFV7IS56ANZYC3L7H69G7SQO", "current_trial": 121, "dateTime": 1512590012645, "trialdata": {"rt": -1000, "stimulus": "/static/audio/wordpool/PARENT.wav", "key_press": -1, "type": "PRES_AUD", "word": "parent", "wordID": 1012, "conditions": [24, 1600, "a", 12000], "trial": 3, "serialpos": 4, "trial_type": "single-audio", "trial_index": 121, "time_elapsed": 680700, "internal_node_id": "0.0-85.0"}}, {"uniqueid": "MTK0675:3X87C8JFV7IS56ANZYC3L7H69G7SQO", "current_trial": 122, "dateTime": 1512590015301, "trialdata": {"rt": -1000, "stimulus": "/static/audio/wordpool/ATLAS.wav", "key_press": -1, "type": "PRES_AUD", "word": "atlas", "wordID": 52, "conditions": [24, 1600, "a", 12000], "trial": 3, "serialpos": 5, "trial_type": "single-audio", "trial_index": 122, "time_elapsed": 683357, "internal_node_id": "0.0-86.0"}}, {"uniqueid": "MTK0675:3X87C8JFV7IS56ANZYC3L7H69G7SQO", "current_trial": 123, "dateTime": 1512590017915, "trialdata": {"rt": -1000, "stimulus": "/static/audio/wordpool/CREATURE.wav", "key_press": -1, "type": "PRES_AUD", "word": "creature", "wordID": 402, "conditions": [24, 1600, "a", 12000], "trial": 3, "serialpos": 6, "trial_type": "single-audio", "trial_index": 123, "time_elapsed": 685971, "internal_node_id": "0.0-87.0"}}, {"uniqueid": "MTK0675:3X87C8JFV7IS56ANZYC3L7H69G7SQO", "current_trial": 124, "dateTime": 1512590020427, "trialdata": {"rt": -1000, "stimulus": "/static/audio/wordpool/VIRUS.wav", "key_press": -1, "type": "PRES_AUD", "word": "virus", "wordID": 1571, "conditions": [24, 1600, "a", 12000], "trial": 3, "serialpos": 7, "trial_type": "single-audio", "trial_index": 124, "time_elapsed": 688483, "internal_node_id": "0.0-88.0"}}, {"uniqueid": "MTK0675:3X87C8JFV7IS56ANZYC3L7H69G7SQO", "current_trial": 125, "dateTime": 1512590023073, "trialdata": {"rt": -1000, "stimulus": "/static/audio/wordpool/DONOR.wav", "key_press": -1, "type": "PRES_AUD", "word": "donor", "wordID": 484, "conditions": [24, 1600, "a", 12000], "trial": 3, "serialpos": 8, "trial_type": "single-audio", "trial_index": 125, "time_elapsed": 691129, "internal_node_id": "0.0-89.0"}}, {"uniqueid": "MTK0675:3X87C8JFV7IS56ANZYC3L7H69G7SQO", "current_trial": 126, "dateTime": 1512590025534, "trialdata": {"rt": -1000, "stimulus": "/static/audio/wordpool/GARLIC.wav", "key_press": -1, "type": "PRES_AUD", "word": "garlic", "wordID": 623, "conditions": [24, 1600, "a", 12000], "trial": 3, "serialpos": 9, "trial_type": "single-audio", "trial_index": 126, "time_elapsed": 693590, "internal_node_id": "0.0-90.0"}}, {"uniqueid": "MTK0675:3X87C8JFV7IS56ANZYC3L7H69G7SQO", "current_trial": 127, "dateTime": 1512590028088, "trialdata": {"rt": -1000, "stimulus": "/static/audio/wordpool/FLOWER.wav", "key_press": -1, "type": "PRES_AUD", "word": "flower", "wordID": 583, "conditions": [24, 1600, "a", 12000], "trial": 3, "serialpos": 10, "trial_type": "single-audio", "trial_index": 127, "time_elapsed": 696143, "internal_node_id": "0.0-91.0"}}, {"uniqueid": "MTK0675:3X87C8JFV7IS56ANZYC3L7H69G7SQO", "current_trial": 128, "dateTime": 1512590030799, "trialdata": {"rt": -1000, "stimulus": "/static/audio/wordpool/SIBLING.wav", "key_press": -1, "type": "PRES_AUD", "word": "sibling", "wordID": 1300, "conditions": [24, 1600, "a", 12000], "trial": 3, "serialpos": 11, "trial_type": "single-audio", "trial_index": 128, "time_elapsed": 698855, "internal_node_id": "0.0-92.0"}}, {"uniqueid": "MTK0675:3X87C8JFV7IS56ANZYC3L7H69G7SQO", "current_trial": 129, "dateTime": 1512590033572, "trialdata": {"rt": -1000, "stimulus": "/static/audio/wordpool/BLENDER.wav", "key_press": -1, "type": "PRES_AUD", "word": "blender", "wordID": 135, "conditions": [24, 1600, "a", 12000], "trial": 3, "serialpos": 12, "trial_type": "single-audio", "trial_index": 129, "time_elapsed": 701628, "internal_node_id": "0.0-93.0"}}, {"uniqueid": "MTK0675:3X87C8JFV7IS56ANZYC3L7H69G7SQO", "current_trial": 130, "dateTime": 1512590036223, "trialdata": {"rt": -1000, "stimulus": "/static/audio/wordpool/TURTLE.wav", "key_press": -1, "type": "PRES_AUD", "word": "turtle", "wordID": 1521, "conditions": [24, 1600, "a", 12000], "trial": 3, "serialpos": 13, "trial_type": "single-audio", "trial_index": 130, "time_elapsed": 704279, "internal_node_id": "0.0-94.0"}}, {"uniqueid": "MTK0675:3X87C8JFV7IS56ANZYC3L7H69G7SQO", "current_trial": 131, "dateTime": 1512590038846, "trialdata": {"rt": -1000, "stimulus": "/static/audio/wordpool/POCKET.wav", "key_press": -1, "type": "PRES_AUD", "word": "pocket", "wordID": 1092, "conditions": [24, 1600, "a", 12000], "trial": 3, "serialpos": 14, "trial_type": "single-audio", "trial_index": 131, "time_elapsed": 706902, "internal_node_id": "0.0-95.0"}}, {"uniqueid": "MTK0675:3X87C8JFV7IS56ANZYC3L7H69G7SQO", "current_trial": 132, "dateTime": 1512590041601, "trialdata": {"rt": -1000, "stimulus": "/static/audio/wordpool/FRUIT.wav", "key_press": -1, "type": "PRES_AUD", "word": "fruit", "wordID": 609, "conditions": [24, 1600, "a", 12000], "trial": 3, "serialpos": 15, "trial_type": "single-audio", "trial_index": 132, "time_elapsed": 709656, "internal_node_id": "0.0-96.0"}}, {"uniqueid": "MTK0675:3X87C8JFV7IS56ANZYC3L7H69G7SQO", "current_trial": 133, "dateTime": 1512590044067, "trialdata": {"rt": -1000, "stimulus": "/static/audio/wordpool/KNIFE.wav", "key_press": -1, "type": "PRES_AUD", "word": "knife", "wordID": 784, "conditions": [24, 1600, "a", 12000], "trial": 3, "serialpos": 16, "trial_type": "single-audio", "trial_index": 133, "time_elapsed": 712122, "internal_node_id": "0.0-97.0"}}, {"uniqueid": "MTK0675:3X87C8JFV7IS56ANZYC3L7H69G7SQO", "current_trial": 134, "dateTime": 1512590046522, "trialdata": {"rt": -1000, "stimulus": "/static/audio/wordpool/GRAPE.wav", "key_press": -1, "type": "PRES_AUD", "word": "grape", "wordID": 653, "conditions": [24, 1600, "a", 12000], "trial": 3, "serialpos": 17, "trial_type": "single-audio", "trial_index": 134, "time_elapsed": 714578, "internal_node_id": "0.0-98.0"}}, {"uniqueid": "MTK0675:3X87C8JFV7IS56ANZYC3L7H69G7SQO", "current_trial": 135, "dateTime": 1512590048939, "trialdata": {"rt": -1000, "stimulus": "/static/audio/wordpool/SHORTCAKE.wav", "key_press": -1, "type": "PRES_AUD", "word": "shortcake", "wordID": 1291, "conditions": [24, 1600, "a", 12000], "trial": 3, "serialpos": 18, "trial_type": "single-audio", "trial_index": 135, "time_elapsed": 716995, "internal_node_id": "0.0-99.0"}}, {"uniqueid": "MTK0675:3X87C8JFV7IS56ANZYC3L7H69G7SQO", "current_trial": 136, "dateTime": 1512590051649, "trialdata": {"rt": -1000, "stimulus": "/static/audio/wordpool/OMELET.wav", "key_press": -1, "type": "PRES_AUD", "word": "omelet", "wordID": 975, "conditions": [24, 1600, "a", 12000], "trial": 3, "serialpos": 19, "trial_type": "single-audio", "trial_index": 136, "time_elapsed": 719704, "internal_node_id": "0.0-100.0"}}, {"uniqueid": "MTK0675:3X87C8JFV7IS56ANZYC3L7H69G7SQO", "current_trial": 137, "dateTime": 1512590054080, "trialdata": {"rt": -1000, "stimulus": "/static/audio/wordpool/BARLEY.wav", "key_press": -1, "type": "PRES_AUD", "word": "barley", "wordID": 87, "conditions": [24, 1600, "a", 12000], "trial": 3, "serialpos": 20, "trial_type": "single-audio", "trial_index": 137, "time_elapsed": 722136, "internal_node_id": "0.0-101.0"}}, {"uniqueid": "MTK0675:3X87C8JFV7IS56ANZYC3L7H69G7SQO", "current_trial": 138, "dateTime": 1512590056884, "trialdata": {"rt": -1000, "stimulus": "/static/audio/wordpool/BLACKBOARD.wav", "key_press": -1, "type": "PRES_AUD", "word": "blackboard", "wordID": 132, "conditions": [24, 1600, "a", 12000], "trial": 3, "serialpos": 21, "trial_type": "single-audio", "trial_index": 138, "time_elapsed": 724939, "internal_node_id": "0.0-102.0"}}, {"uniqueid": "MTK0675:3X87C8JFV7IS56ANZYC3L7H69G7SQO", "current_trial": 139, "dateTime": 1512590059549, "trialdata": {"rt": -1000, "stimulus": "/static/audio/wordpool/SHIRT.wav", "key_press": -1, "type": "PRES_AUD", "word": "shirt", "wordID": 1286, "conditions": [24, 1600, "a", 12000], "trial": 3, "serialpos": 22, "trial_type": "single-audio", "trial_index": 139, "time_elapsed": 727605, "internal_node_id": "0.0-103.0"}}, {"uniqueid": "MTK0675:3X87C8JFV7IS56ANZYC3L7H69G7SQO", "current_trial": 140, "dateTime": 1512590062170, "trialdata": {"rt": -1000, "stimulus": "/static/audio/wordpool/WRIST.wav", "key_press": -1, "type": "PRES_AUD", "word": "wrist", "wordID": 1625, "conditions": [24, 1600, "a", 12000], "trial": 3, "serialpos": 23, "trial_type": "single-audio", "trial_index": 140, "time_elapsed": 730225, "internal_node_id": "0.0-104.0"}}, {"uniqueid": "MTK0675:3X87C8JFV7IS56ANZYC3L7H69G7SQO", "current_trial": 141, "dateTime": 1512590063543, "trialdata": {"rt": -1, "stimulus": "", "key_press": -1, "type": "PRE_RECALL_DELAY", "trial_type": "single-stim", "trial_index": 141, "time_elapsed": 731599, "internal_node_id": "0.0-105.0-0.0"}}, {"uniqueid": "MTK0675:3X87C8JFV7IS56ANZYC3L7H69G7SQO", "current_trial": 142, "dateTime": 1512590064044, "trialdata": {"rt": -1000, "stimulus": "/static/audio/400Hz.wav", "key_press": -1, "type": "PRE_RECALL_ALERT", "trial_type": "single-audio", "trial_index": 142, "time_elapsed": 732100, "internal_node_id": "0.0-106.0"}}, {"uniqueid": "MTK0675:3X87C8JFV7IS56ANZYC3L7H69G7SQO", "current_trial": 143, "dateTime": 1512590124048, "trialdata": {"rt": [2180, 3571, 7363, 9128, 10440, 12389, 14936, 20131, 34346, 44636, 46767], "recwords": ["wrist", "shirt", "blackboard", "barley", "parent", "sibling", "omlette", "garlic", "creature", "list", "wrist"], "type": "FREE_RECALL", "conditions": [24, 1600, "a", 12000], "trial": 3, "trial_type": "free-recall", "trial_index": 143, "time_elapsed": 792102, "internal_node_id": "0.0-107.0-0.0"}}, {"uniqueid": "MTK0675:3X87C8JFV7IS56ANZYC3L7H69G7SQO", "current_trial": 144, "dateTime": 1512590127632, "trialdata": {"rt": 1581, "key_press": 32, "type": "INSTRUCTIONS", "trial_type": "text", "trial_index": 144, "time_elapsed": 795688, "internal_node_id": "0.0-108.0"}}, {"uniqueid": "MTK0675:3X87C8JFV7IS56ANZYC3L7H69G7SQO", "current_trial": 145, "dateTime": 1512590153634, "trialdata": {"rt": [5884, 8403, 10522, 13510, 15485, 18283, 21850], "responses": ["23", "14", "18", "16", "6", "11", "8"], "num1": [9, 2, 9, 5, 2, 6, 4, 6], "num2": [8, 5, 5, 6, 4, 1, 2, 3], "num3": [6, 7, 4, 5, 1, 4, 2, 4], "type": "DISTRACTOR", "conditions": [24, 800, "v", 24000], "trial": 4, "trial_type": "math-distractor", "trial_index": 145, "time_elapsed": 821690, "internal_node_id": "0.0-109.0"}}, {"uniqueid": "MTK0675:3X87C8JFV7IS56ANZYC3L7H69G7SQO", "current_trial": 146, "dateTime": 1512590156638, "trialdata": {"rt": -1, "stimulus": "<p id=\"stim\">10</p>", "key_press": -1, "trial_type": "single-stim", "trial_index": 146, "time_elapsed": 824694, "internal_node_id": "0.0-110.0-0.0"}}, {"uniqueid": "MTK0675:3X87C8JFV7IS56ANZYC3L7H69G7SQO", "current_trial": 147, "dateTime": 1512590157639, "trialdata": {"rt": -1, "stimulus": "<p id=\"stim\">9</p>", "key_press": -1, "trial_type": "single-stim", "trial_index": 147, "time_elapsed": 825695, "internal_node_id": "0.0-110.0-1.0"}}, {"uniqueid": "MTK0675:3X87C8JFV7IS56ANZYC3L7H69G7SQO", "current_trial": 148, "dateTime": 1512590158640, "trialdata": {"rt": -1, "stimulus": "<p id=\"stim\">8</p>", "key_press": -1, "trial_type": "single-stim", "trial_index": 148, "time_elapsed": 826696, "internal_node_id": "0.0-110.0-2.0"}}, {"uniqueid": "MTK0675:3X87C8JFV7IS56ANZYC3L7H69G7SQO", "current_trial": 149, "dateTime": 1512590159641, "trialdata": {"rt": -1, "stimulus": "<p id=\"stim\">7</p>", "key_press": -1, "trial_type": "single-stim", "trial_index": 149, "time_elapsed": 827697, "internal_node_id": "0.0-110.0-3.0"}}, {"uniqueid": "MTK0675:3X87C8JFV7IS56ANZYC3L7H69G7SQO", "current_trial": 150, "dateTime": 1512590160642, "trialdata": {"rt": -1, "stimulus": "<p id=\"stim\">6</p>", "key_press": -1, "trial_type": "single-stim", "trial_index": 150, "time_elapsed": 828698, "internal_node_id": "0.0-110.0-4.0"}}, {"uniqueid": "MTK0675:3X87C8JFV7IS56ANZYC3L7H69G7SQO", "current_trial": 151, "dateTime": 1512590161643, "trialdata": {"rt": -1, "stimulus": "<p id=\"stim\">5</p>", "key_press": -1, "trial_type": "single-stim", "trial_index": 151, "time_elapsed": 829699, "internal_node_id": "0.0-110.0-5.0"}}, {"uniqueid": "MTK0675:3X87C8JFV7IS56ANZYC3L7H69G7SQO", "current_trial": 152, "dateTime": 1512590162644, "trialdata": {"rt": -1, "stimulus": "<p id=\"stim\">4</p>", "key_press": -1, "trial_type": "single-stim", "trial_index": 152, "time_elapsed": 830700, "internal_node_id": "0.0-110.0-6.0"}}, {"uniqueid": "MTK0675:3X87C8JFV7IS56ANZYC3L7H69G7SQO", "current_trial": 153, "dateTime": 1512590163648, "trialdata": {"rt": -1, "stimulus": "<p id=\"stim\">3</p>", "key_press": -1, "trial_type": "single-stim", "trial_index": 153, "time_elapsed": 831702, "internal_node_id": "0.0-110.0-7.0"}}, {"uniqueid": "MTK0675:3X87C8JFV7IS56ANZYC3L7H69G7SQO", "current_trial": 154, "dateTime": 1512590164648, "trialdata": {"rt": -1, "stimulus": "<p id=\"stim\">2</p>", "key_press": -1, "trial_type": "single-stim", "trial_index": 154, "time_elapsed": 832704, "internal_node_id": "0.0-110.0-8.0"}}, {"uniqueid": "MTK0675:3X87C8JFV7IS56ANZYC3L7H69G7SQO", "current_trial": 155, "dateTime": 1512590165649, "trialdata": {"rt": -1, "stimulus": "<p id=\"stim\">1</p>", "key_press": -1, "trial_type": "single-stim", "trial_index": 155, "time_elapsed": 833705, "internal_node_id": "0.0-110.0-9.0"}}, {"uniqueid": "MTK0675:3X87C8JFV7IS56ANZYC3L7H69G7SQO", "current_trial": 156, "dateTime": 1512590167150, "trialdata": {"rt": -1, "stimulus": "<p id=\"stim\">+</p>", "key_press": -1, "type": "FIXATION", "trial_type": "single-stim", "trial_index": 156, "time_elapsed": 835206, "internal_node_id": "0.0-111.0-0.0"}}, {"uniqueid": "MTK0675:3X87C8JFV7IS56ANZYC3L7H69G7SQO", "current_trial": 157, "dateTime": 1512590167952, "trialdata": {"rt": -1, "stimulus": "<p id=\"stim\">TART</p>", "key_press": -1, "type": "PRES_VIS", "word": "tart", "wordID": 1435, "conditions": [24, 800, "v", 24000], "trial": 4, "serialpos": 0, "trial_type": "single-stim", "trial_index": 157, "time_elapsed": 836008, "internal_node_id": "0.0-112.0"}}, {"uniqueid": "MTK0675:3X87C8JFV7IS56ANZYC3L7H69G7SQO", "current_trial": 158, "dateTime": 1512590169608, "trialdata": {"rt": -1, "stimulus": "<p id=\"stim\">SPARROW</p>", "key_press": -1, "type": "PRES_VIS", "word": "sparrow", "wordID": 1346, "conditions": [24, 800, "v", 24000], "trial": 4, "serialpos": 1, "trial_type": "single-stim", "trial_index": 158, "time_elapsed": 837664, "internal_node_id": "0.0-113.0"}}, {"uniqueid": "MTK0675:3X87C8JFV7IS56ANZYC3L7H69G7SQO", "current_trial": 159, "dateTime": 1512590171464, "trialdata": {"rt": -1, "stimulus": "<p id=\"stim\">BUNNY</p>", "key_press": -1, "type": "PRES_VIS", "word": "bunny", "wordID": 197, "conditions": [24, 800, "v", 24000], "trial": 4, "serialpos": 2, "trial_type": "single-stim", "trial_index": 159, "time_elapsed": 839520, "internal_node_id": "0.0-114.0"}}, {"uniqueid": "MTK0675:3X87C8JFV7IS56ANZYC3L7H69G7SQO", "current_trial": 160, "dateTime": 1512590173423, "trialdata": {"rt": -1, "stimulus": "<p id=\"stim\">SCARECROW</p>", "key_press": -1, "type": "PRES_VIS", "word": "scarecrow", "wordID": 1244, "conditions": [24, 800, "v", 24000], "trial": 4, "serialpos": 3, "trial_type": "single-stim", "trial_index": 160, "time_elapsed": 841479, "internal_node_id": "0.0-115.0"}}, {"uniqueid": "MTK0675:3X87C8JFV7IS56ANZYC3L7H69G7SQO", "current_trial": 161, "dateTime": 1512590175338, "trialdata": {"rt": -1, "stimulus": "<p id=\"stim\">FUNGUS</p>", "key_press": -1, "type": "PRES_VIS", "word": "fungus", "wordID": 613, "conditions": [24, 800, "v", 24000], "trial": 4, "serialpos": 4, "trial_type": "single-stim", "trial_index": 161, "time_elapsed": 843394, "internal_node_id": "0.0-116.0"}}, {"uniqueid": "MTK0675:3X87C8JFV7IS56ANZYC3L7H69G7SQO", "current_trial": 162, "dateTime": 1512590177166, "trialdata": {"rt": -1, "stimulus": "<p id=\"stim\">LACE</p>", "key_press": -1, "type": "PRES_VIS", "word": "lace", "wordID": 791, "conditions": [24, 800, "v", 24000], "trial": 4, "serialpos": 5, "trial_type": "single-stim", "trial_index": 162, "time_elapsed": 845222, "internal_node_id": "0.0-117.0"}}, {"uniqueid": "MTK0675:3X87C8JFV7IS56ANZYC3L7H69G7SQO", "current_trial": 163, "dateTime": 1512590178807, "trialdata": {"rt": -1, "stimulus": "<p id=\"stim\">GRILL</p>", "key_press": -1, "type": "PRES_VIS", "word": "grill", "wordID": 660, "conditions": [24, 800, "v", 24000], "trial": 4, "serialpos": 6, "trial_type": "single-stim", "trial_index": 163, "time_elapsed": 846863, "internal_node_id": "0.0-118.0"}}, {"uniqueid": "MTK0675:3X87C8JFV7IS56ANZYC3L7H69G7SQO", "current_trial": 164, "dateTime": 1512590180802, "trialdata": {"rt": -1, "stimulus": "<p id=\"stim\">ROCKET</p>", "key_press": -1, "type": "PRES_VIS", "word": "rocket", "wordID": 1201, "conditions": [24, 800, "v", 24000], "trial": 4, "serialpos": 7, "trial_type": "single-stim", "trial_index": 164, "time_elapsed": 848858, "internal_node_id": "0.0-119.0"}}, {"uniqueid": "MTK0675:3X87C8JFV7IS56ANZYC3L7H69G7SQO", "current_trial": 165, "dateTime": 1512590182719, "trialdata": {"rt": -1, "stimulus": "<p id=\"stim\">MISSILE</p>", "key_press": -1, "type": "PRES_VIS", "word": "missile", "wordID": 899, "conditions": [24, 800, "v", 24000], "trial": 4, "serialpos": 8, "trial_type": "single-stim", "trial_index": 165, "time_elapsed": 850775, "internal_node_id": "0.0-120.0"}}, {"uniqueid": "MTK0675:3X87C8JFV7IS56ANZYC3L7H69G7SQO", "current_trial": 166, "dateTime": 1512590184375, "trialdata": {"rt": -1, "stimulus": "<p id=\"stim\">SILK</p>", "key_press": -1, "type": "PRES_VIS", "word": "silk", "wordID": 1306, "conditions": [24, 800, "v", 24000], "trial": 4, "serialpos": 9, "trial_type": "single-stim", "trial_index": 166, "time_elapsed": 852431, "internal_node_id": "0.0-121.0"}}, {"uniqueid": "MTK0675:3X87C8JFV7IS56ANZYC3L7H69G7SQO", "current_trial": 167, "dateTime": 1512590186004, "trialdata": {"rt": -1, "stimulus": "<p id=\"stim\">OINTMENT</p>", "key_press": -1, "type": "PRES_VIS", "word": "ointment", "wordID": 973, "conditions": [24, 800, "v", 24000], "trial": 4, "serialpos": 10, "trial_type": "single-stim", "trial_index": 167, "time_elapsed": 854060, "internal_node_id": "0.0-122.0"}}, {"uniqueid": "MTK0675:3X87C8JFV7IS56ANZYC3L7H69G7SQO", "current_trial": 168, "dateTime": 1512590187957, "trialdata": {"rt": -1, "stimulus": "<p id=\"stim\">PISTOL</p>", "key_press": -1, "type": "PRES_VIS", "word": "pistol", "wordID": 1074, "conditions": [24, 800, "v", 24000], "trial": 4, "serialpos": 11, "trial_type": "single-stim", "trial_index": 168, "time_elapsed": 856013, "internal_node_id": "0.0-123.0"}}, {"uniqueid": "MTK0675:3X87C8JFV7IS56ANZYC3L7H69G7SQO", "current_trial": 169, "dateTime": 1512590189688, "trialdata": {"rt": -1, "stimulus": "<p id=\"stim\">SALAD</p>", "key_press": -1, "type": "PRES_VIS", "word": "salad", "wordID": 1223, "conditions": [24, 800, "v", 24000], "trial": 4, "serialpos": 12, "trial_type": "single-stim", "trial_index": 169, "time_elapsed": 857744, "internal_node_id": "0.0-124.0"}}, {"uniqueid": "MTK0675:3X87C8JFV7IS56ANZYC3L7H69G7SQO", "current_trial": 170, "dateTime": 1512590191608, "trialdata": {"rt": -1, "stimulus": "<p id=\"stim\">LONDON</p>", "key_press": -1, "type": "PRES_VIS", "word": "london", "wordID": 842, "conditions": [24, 800, "v", 24000], "trial": 4, "serialpos": 13, "trial_type": "single-stim", "trial_index": 170, "time_elapsed": 859664, "internal_node_id": "0.0-125.0"}}, {"uniqueid": "MTK0675:3X87C8JFV7IS56ANZYC3L7H69G7SQO", "current_trial": 171, "dateTime": 1512590193607, "trialdata": {"rt": -1, "stimulus": "<p id=\"stim\">LAPEL</p>", "key_press": -1, "type": "PRES_VIS", "word": "lapel", "wordID": 799, "conditions": [24, 800, "v", 24000], "trial": 4, "serialpos": 14, "trial_type": "single-stim", "trial_index": 171, "time_elapsed": 861663, "internal_node_id": "0.0-126.0"}}, {"uniqueid": "MTK0675:3X87C8JFV7IS56ANZYC3L7H69G7SQO", "current_trial": 172, "dateTime": 1512590195441, "trialdata": {"rt": -1, "stimulus": "<p id=\"stim\">TRANSPLANT</p>", "key_press": -1, "type": "PRES_VIS", "word": "transplant", "wordID": 1495, "conditions": [24, 800, "v", 24000], "trial": 4, "serialpos": 15, "trial_type": "single-stim", "trial_index": 172, "time_elapsed": 863497, "internal_node_id": "0.0-127.0"}}, {"uniqueid": "MTK0675:3X87C8JFV7IS56ANZYC3L7H69G7SQO", "current_trial": 173, "dateTime": 1512590197067, "trialdata": {"rt": -1, "stimulus": "<p id=\"stim\">DRIVER</p>", "key_press": -1, "type": "PRES_VIS", "word": "driver", "wordID": 498, "conditions": [24, 800, "v", 24000], "trial": 4, "serialpos": 16, "trial_type": "single-stim", "trial_index": 173, "time_elapsed": 865123, "internal_node_id": "0.0-128.0"}}, {"uniqueid": "MTK0675:3X87C8JFV7IS56ANZYC3L7H69G7SQO", "current_trial": 174, "dateTime": 1512590198856, "trialdata": {"rt": -1, "stimulus": "<p id=\"stim\">GIRL</p>", "key_press": -1, "type": "PRES_VIS", "word": "girl", "wordID": 636, "conditions": [24, 800, "v", 24000], "trial": 4, "serialpos": 17, "trial_type": "single-stim", "trial_index": 174, "time_elapsed": 866912, "internal_node_id": "0.0-129.0"}}, {"uniqueid": "MTK0675:3X87C8JFV7IS56ANZYC3L7H69G7SQO", "current_trial": 175, "dateTime": 1512590200486, "trialdata": {"rt": -1, "stimulus": "<p id=\"stim\">RAZOR</p>", "key_press": -1, "type": "PRES_VIS", "word": "razor", "wordID": 1170, "conditions": [24, 800, "v", 24000], "trial": 4, "serialpos": 18, "trial_type": "single-stim", "trial_index": 175, "time_elapsed": 868542, "internal_node_id": "0.0-130.0"}}, {"uniqueid": "MTK0675:3X87C8JFV7IS56ANZYC3L7H69G7SQO", "current_trial": 176, "dateTime": 1512590202401, "trialdata": {"rt": -1, "stimulus": "<p id=\"stim\">SCISSORS</p>", "key_press": -1, "type": "PRES_VIS", "word": "scissors", "wordID": 1249, "conditions": [24, 800, "v", 24000], "trial": 4, "serialpos": 19, "trial_type": "single-stim", "trial_index": 176, "time_elapsed": 870457, "internal_node_id": "0.0-131.0"}}, {"uniqueid": "MTK0675:3X87C8JFV7IS56ANZYC3L7H69G7SQO", "current_trial": 177, "dateTime": 1512590204021, "trialdata": {"rt": -1, "stimulus": "<p id=\"stim\">MILK</p>", "key_press": -1, "type": "PRES_VIS", "word": "milk", "wordID": 894, "conditions": [24, 800, "v", 24000], "trial": 4, "serialpos": 20, "trial_type": "single-stim", "trial_index": 177, "time_elapsed": 872077, "internal_node_id": "0.0-132.0"}}, {"uniqueid": "MTK0675:3X87C8JFV7IS56ANZYC3L7H69G7SQO", "current_trial": 178, "dateTime": 1512590205647, "trialdata": {"rt": -1, "stimulus": "<p id=\"stim\">CLOCK</p>", "key_press": -1, "type": "PRES_VIS", "word": "clock", "wordID": 324, "conditions": [24, 800, "v", 24000], "trial": 4, "serialpos": 21, "trial_type": "single-stim", "trial_index": 178, "time_elapsed": 873703, "internal_node_id": "0.0-133.0"}}, {"uniqueid": "MTK0675:3X87C8JFV7IS56ANZYC3L7H69G7SQO", "current_trial": 179, "dateTime": 1512590207613, "trialdata": {"rt": -1, "stimulus": "<p id=\"stim\">VALVE</p>", "key_press": -1, "type": "PRES_VIS", "word": "valve", "wordID": 1545, "conditions": [24, 800, "v", 24000], "trial": 4, "serialpos": 22, "trial_type": "single-stim", "trial_index": 179, "time_elapsed": 875669, "internal_node_id": "0.0-134.0"}}, {"uniqueid": "MTK0675:3X87C8JFV7IS56ANZYC3L7H69G7SQO", "current_trial": 180, "dateTime": 1512590209381, "trialdata": {"rt": -1, "stimulus": "<p id=\"stim\">HONEY</p>", "key_press": -1, "type": "PRES_VIS", "word": "honey", "wordID": 712, "conditions": [24, 800, "v", 24000], "trial": 4, "serialpos": 23, "trial_type": "single-stim", "trial_index": 180, "time_elapsed": 877437, "internal_node_id": "0.0-135.0"}}, {"uniqueid": "MTK0675:3X87C8JFV7IS56ANZYC3L7H69G7SQO", "current_trial": 181, "dateTime": 1512590211629, "trialdata": {"rt": -1, "stimulus": "", "key_press": -1, "type": "PRE_RECALL_DELAY", "trial_type": "single-stim", "trial_index": 181, "time_elapsed": 879685, "internal_node_id": "0.0-136.0-0.0"}}, {"uniqueid": "MTK0675:3X87C8JFV7IS56ANZYC3L7H69G7SQO", "current_trial": 182, "dateTime": 1512590212137, "trialdata": {"rt": -1000, "stimulus": "/static/audio/400Hz.wav", "key_press": -1, "type": "PRE_RECALL_ALERT", "trial_type": "single-audio", "trial_index": 182, "time_elapsed": 880193, "internal_node_id": "0.0-137.0"}}, {"uniqueid": "MTK0675:3X87C8JFV7IS56ANZYC3L7H69G7SQO", "current_trial": 183, "dateTime": 1512590272143, "trialdata": {"rt": [2387, 3603, 5368, 7049, 8790, 12777, 16953, 19997, 22519, 27493, 32985, 44495], "recwords": ["milk", "clock", "valve", "honey", "london", "blender", "sparrow", "scarecrow", "girl", "driver", "fungus", "silk"], "type": "FREE_RECALL", "conditions": [24, 800, "v", 24000], "trial": 4, "trial_type": "free-recall", "trial_index": 183, "time_elapsed": 940196, "internal_node_id": "0.0-138.0-0.0"}}, {"uniqueid": "MTK0675:3X87C8JFV7IS56ANZYC3L7H69G7SQO", "current_trial": 184, "dateTime": 1512590275457, "trialdata": {"rt": 1313, "key_press": 32, "type": "INSTRUCTIONS", "trial_type": "text", "trial_index": 184, "time_elapsed": 943513, "internal_node_id": "0.0-139.0"}}, {"uniqueid": "MTK0675:3X87C8JFV7IS56ANZYC3L7H69G7SQO", "current_trial": 185, "dateTime": 1512590301460, "trialdata": {"rt": [3677, 6967, 9888, 13047, 14806, 17137, 18956, 21493], "responses": ["20", "23", "10", "10", "11", "14", "15", "18"], "num1": [5, 9, 2, 3, 1, 9, 7, 8, 5], "num2": [9, 9, 6, 5, 6, 1, 7, 8, 7], "num3": [6, 5, 2, 2, 4, 4, 1, 2, 2], "type": "DISTRACTOR", "conditions": [24, 1600, "a", 24000], "trial": 5, "trial_type": "math-distractor", "trial_index": 185, "time_elapsed": 969516, "internal_node_id": "0.0-140.0"}}, {"uniqueid": "MTK0675:3X87C8JFV7IS56ANZYC3L7H69G7SQO", "current_trial": 186, "dateTime": 1512590304462, "trialdata": {"rt": -1, "stimulus": "<p id=\"stim\">10</p>", "key_press": -1, "trial_type": "single-stim", "trial_index": 186, "time_elapsed": 972518, "internal_node_id": "0.0-141.0-0.0"}}, {"uniqueid": "MTK0675:3X87C8JFV7IS56ANZYC3L7H69G7SQO", "current_trial": 187, "dateTime": 1512590305463, "trialdata": {"rt": -1, "stimulus": "<p id=\"stim\">9</p>", "key_press": -1, "trial_type": "single-stim", "trial_index": 187, "time_elapsed": 973519, "internal_node_id": "0.0-141.0-1.0"}}, {"uniqueid": "MTK0675:3X87C8JFV7IS56ANZYC3L7H69G7SQO", "current_trial": 188, "dateTime": 1512590306465, "trialdata": {"rt": -1, "stimulus": "<p id=\"stim\">8</p>", "key_press": -1, "trial_type": "single-stim", "trial_index": 188, "time_elapsed": 974521, "internal_node_id": "0.0-141.0-2.0"}}, {"uniqueid": "MTK0675:3X87C8JFV7IS56ANZYC3L7H69G7SQO", "current_trial": 189, "dateTime": 1512590307466, "trialdata": {"rt": -1, "stimulus": "<p id=\"stim\">7</p>", "key_press": -1, "trial_type": "single-stim", "trial_index": 189, "time_elapsed": 975522, "internal_node_id": "0.0-141.0-3.0"}}, {"uniqueid": "MTK0675:3X87C8JFV7IS56ANZYC3L7H69G7SQO", "current_trial": 190, "dateTime": 1512590308468, "trialdata": {"rt": -1, "stimulus": "<p id=\"stim\">6</p>", "key_press": -1, "trial_type": "single-stim", "trial_index": 190, "time_elapsed": 976524, "internal_node_id": "0.0-141.0-4.0"}}, {"uniqueid": "MTK0675:3X87C8JFV7IS56ANZYC3L7H69G7SQO", "current_trial": 191, "dateTime": 1512590309470, "trialdata": {"rt": -1, "stimulus": "<p id=\"stim\">5</p>", "key_press": -1, "trial_type": "single-stim", "trial_index": 191, "time_elapsed": 977526, "internal_node_id": "0.0-141.0-5.0"}}, {"uniqueid": "MTK0675:3X87C8JFV7IS56ANZYC3L7H69G7SQO", "current_trial": 192, "dateTime": 1512590310472, "trialdata": {"rt": -1, "stimulus": "<p id=\"stim\">4</p>", "key_press": -1, "trial_type": "single-stim", "trial_index": 192, "time_elapsed": 978528, "internal_node_id": "0.0-141.0-6.0"}}, {"uniqueid": "MTK0675:3X87C8JFV7IS56ANZYC3L7H69G7SQO", "current_trial": 193, "dateTime": 1512590311473, "trialdata": {"rt": -1, "stimulus": "<p id=\"stim\">3</p>", "key_press": -1, "trial_type": "single-stim", "trial_index": 193, "time_elapsed": 979529, "internal_node_id": "0.0-141.0-7.0"}}, {"uniqueid": "MTK0675:3X87C8JFV7IS56ANZYC3L7H69G7SQO", "current_trial": 194, "dateTime": 1512590312474, "trialdata": {"rt": -1, "stimulus": "<p id=\"stim\">2</p>", "key_press": -1, "trial_type": "single-stim", "trial_index": 194, "time_elapsed": 980530, "internal_node_id": "0.0-141.0-8.0"}}, {"uniqueid": "MTK0675:3X87C8JFV7IS56ANZYC3L7H69G7SQO", "current_trial": 195, "dateTime": 1512590313476, "trialdata": {"rt": -1, "stimulus": "<p id=\"stim\">1</p>", "key_press": -1, "trial_type": "single-stim", "trial_index": 195, "time_elapsed": 981532, "internal_node_id": "0.0-141.0-9.0"}}, {"uniqueid": "MTK0675:3X87C8JFV7IS56ANZYC3L7H69G7SQO", "current_trial": 196, "dateTime": 1512590314977, "trialdata": {"rt": -1, "stimulus": "<p id=\"stim\">+</p>", "key_press": -1, "type": "FIXATION", "trial_type": "single-stim", "trial_index": 196, "time_elapsed": 983033, "internal_node_id": "0.0-142.0-0.0"}}, {"uniqueid": "MTK0675:3X87C8JFV7IS56ANZYC3L7H69G7SQO", "current_trial": 197, "dateTime": 1512590317530, "trialdata": {"rt": -1000, "stimulus": "/static/audio/wordpool/JAPAN.wav", "key_press": -1, "type": "PRES_AUD", "word": "japan", "wordID": 748, "conditions": [24, 1600, "a", 24000], "trial": 5, "serialpos": 0, "trial_type": "single-audio", "trial_index": 197, "time_elapsed": 985586, "internal_node_id": "0.0-143.0"}}, {"uniqueid": "MTK0675:3X87C8JFV7IS56ANZYC3L7H69G7SQO", "current_trial": 198, "dateTime": 1512590320101, "trialdata": {"rt": -1000, "stimulus": "/static/audio/wordpool/YARN.wav", "key_press": -1, "type": "PRES_AUD", "word": "yarn", "wordID": 1630, "conditions": [24, 1600, "a", 24000], "trial": 5, "serialpos": 1, "trial_type": "single-audio", "trial_index": 198, "time_elapsed": 988157, "internal_node_id": "0.0-144.0"}}, {"uniqueid": "MTK0675:3X87C8JFV7IS56ANZYC3L7H69G7SQO", "current_trial": 199, "dateTime": 1512590322502, "trialdata": {"rt": -1000, "stimulus": "/static/audio/wordpool/CANAL.wav", "key_press": -1, "type": "PRES_AUD", "word": "canal", "wordID": 225, "conditions": [24, 1600, "a", 24000], "trial": 5, "serialpos": 2, "trial_type": "single-audio", "trial_index": 199, "time_elapsed": 990558, "internal_node_id": "0.0-145.0"}}, {"uniqueid": "MTK0675:3X87C8JFV7IS56ANZYC3L7H69G7SQO", "current_trial": 200, "dateTime": 1512590325158, "trialdata": {"rt": -1000, "stimulus": "/static/audio/wordpool/ROBBER.wav", "key_press": -1, "type": "PRES_AUD", "word": "robber", "wordID": 1196, "conditions": [24, 1600, "a", 24000], "trial": 5, "serialpos": 3, "trial_type": "single-audio", "trial_index": 200, "time_elapsed": 993214, "internal_node_id": "0.0-146.0"}}, {"uniqueid": "MTK0675:3X87C8JFV7IS56ANZYC3L7H69G7SQO", "current_trial": 201, "dateTime": 1512590327580, "trialdata": {"rt": -1000, "stimulus": "/static/audio/wordpool/BURGLAR.wav", "key_press": -1, "type": "PRES_AUD", "word": "burglar", "wordID": 199, "conditions": [24, 1600, "a", 24000], "trial": 5, "serialpos": 4, "trial_type": "single-audio", "trial_index": 201, "time_elapsed": 995636, "internal_node_id": "0.0-147.0"}}, {"uniqueid": "MTK0675:3X87C8JFV7IS56ANZYC3L7H69G7SQO", "current_trial": 202, "dateTime": 1512590330008, "trialdata": {"rt": -1000, "stimulus": "/static/audio/wordpool/OYSTER.wav", "key_press": -1, "type": "PRES_AUD", "word": "oyster", "wordID": 994, "conditions": [24, 1600, "a", 24000], "trial": 5, "serialpos": 5, "trial_type": "single-audio", "trial_index": 202, "time_elapsed": 998064, "internal_node_id": "0.0-148.0"}}, {"uniqueid": "MTK0675:3X87C8JFV7IS56ANZYC3L7H69G7SQO", "current_trial": 203, "dateTime": 1512590332755, "trialdata": {"rt": -1000, "stimulus": "/static/audio/wordpool/FRANCE.wav", "key_press": -1, "type": "PRES_AUD", "word": "france", "wordID": 600, "conditions": [24, 1600, "a", 24000], "trial": 5, "serialpos": 6, "trial_type": "single-audio", "trial_index": 203, "time_elapsed": 1000810, "internal_node_id": "0.0-149.0"}}, {"uniqueid": "MTK0675:3X87C8JFV7IS56ANZYC3L7H69G7SQO", "current_trial": 204, "dateTime": 1512590335553, "trialdata": {"rt": -1000, "stimulus": "/static/audio/wordpool/SLUG.wav", "key_press": -1, "type": "PRES_AUD", "word": "slug", "wordID": 1328, "conditions": [24, 1600, "a", 24000], "trial": 5, "serialpos": 7, "trial_type": "single-audio", "trial_index": 204, "time_elapsed": 1003608, "internal_node_id": "0.0-150.0"}}, {"uniqueid": "MTK0675:3X87C8JFV7IS56ANZYC3L7H69G7SQO", "current_trial": 205, "dateTime": 1512590338002, "trialdata": {"rt": -1000, "stimulus": "/static/audio/wordpool/PLASTER.wav", "key_press": -1, "type": "PRES_AUD", "word": "plaster", "wordID": 1084, "conditions": [24, 1600, "a", 24000], "trial": 5, "serialpos": 8, "trial_type": "single-audio", "trial_index": 205, "time_elapsed": 1006058, "internal_node_id": "0.0-151.0"}}, {"uniqueid": "MTK0675:3X87C8JFV7IS56ANZYC3L7H69G7SQO", "current_trial": 206, "dateTime": 1512590340522, "trialdata": {"rt": -1000, "stimulus": "/static/audio/wordpool/INFANT.wav", "key_press": -1, "type": "PRES_AUD", "word": "infant", "wordID": 736, "conditions": [24, 1600, "a", 24000], "trial": 5, "serialpos": 9, "trial_type": "single-audio", "trial_index": 206, "time_elapsed": 1008578, "internal_node_id": "0.0-152.0"}}, {"uniqueid": "MTK0675:3X87C8JFV7IS56ANZYC3L7H69G7SQO", "current_trial": 207, "dateTime": 1512590343058, "trialdata": {"rt": -1000, "stimulus": "/static/audio/wordpool/TEACHER.wav", "key_press": -1, "type": "PRES_AUD", "word": "teacher", "wordID": 1439, "conditions": [24, 1600, "a", 24000], "trial": 5, "serialpos": 10, "trial_type": "single-audio", "trial_index": 207, "time_elapsed": 1011114, "internal_node_id": "0.0-153.0"}}, {"uniqueid": "MTK0675:3X87C8JFV7IS56ANZYC3L7H69G7SQO", "current_trial": 208, "dateTime": 1512590345673, "trialdata": {"rt": -1000, "stimulus": "/static/audio/wordpool/DRESS.wav", "key_press": -1, "type": "PRES_AUD", "word": "dress", "wordID": 494, "conditions": [24, 1600, "a", 24000], "trial": 5, "serialpos": 11, "trial_type": "single-audio", "trial_index": 208, "time_elapsed": 1013729, "internal_node_id": "0.0-154.0"}}, {"uniqueid": "MTK0675:3X87C8JFV7IS56ANZYC3L7H69G7SQO", "current_trial": 209, "dateTime": 1512590348399, "trialdata": {"rt": -1000, "stimulus": "/static/audio/wordpool/PUDDING.wav", "key_press": -1, "type": "PRES_AUD", "word": "pudding", "wordID": 1138, "conditions": [24, 1600, "a", 24000], "trial": 5, "serialpos": 12, "trial_type": "single-audio", "trial_index": 209, "time_elapsed": 1016455, "internal_node_id": "0.0-155.0"}}, {"uniqueid": "MTK0675:3X87C8JFV7IS56ANZYC3L7H69G7SQO", "current_trial": 210, "dateTime": 1512590350969, "trialdata": {"rt": -1000, "stimulus": "/static/audio/wordpool/STUDENT.wav", "key_press": -1, "type": "PRES_AUD", "word": "student", "wordID": 1394, "conditions": [24, 1600, "a", 24000], "trial": 5, "serialpos": 13, "trial_type": "single-audio", "trial_index": 210, "time_elapsed": 1019024, "internal_node_id": "0.0-156.0"}}, {"uniqueid": "MTK0675:3X87C8JFV7IS56ANZYC3L7H69G7SQO", "current_trial": 211, "dateTime": 1512590353740, "trialdata": {"rt": -1000, "stimulus": "/static/audio/wordpool/SANDWICH.wav", "key_press": -1, "type": "PRES_AUD", "word": "sandwich", "wordID": 1231, "conditions": [24, 1600, "a", 24000], "trial": 5, "serialpos": 14, "trial_type": "single-audio", "trial_index": 211, "time_elapsed": 1021795, "internal_node_id": "0.0-157.0"}}, {"uniqueid": "MTK0675:3X87C8JFV7IS56ANZYC3L7H69G7SQO", "current_trial": 212, "dateTime": 1512590356306, "trialdata": {"rt": -1000, "stimulus": "/static/audio/wordpool/PUPPY.wav", "key_press": -1, "type": "PRES_AUD", "word": "puppy", "wordID": 1143, "conditions": [24, 1600, "a", 24000], "trial": 5, "serialpos": 15, "trial_type": "single-audio", "trial_index": 212, "time_elapsed": 1024362, "internal_node_id": "0.0-158.0"}}, {"uniqueid": "MTK0675:3X87C8JFV7IS56ANZYC3L7H69G7SQO", "current_trial": 213, "dateTime": 1512590359004, "trialdata": {"rt": -1000, "stimulus": "/static/audio/wordpool/CHILD.wav", "key_press": -1, "type": "PRES_AUD", "word": "child", "wordID": 298, "conditions": [24, 1600, "a", 24000], "trial": 5, "serialpos": 16, "trial_type": "single-audio", "trial_index": 213, "time_elapsed": 1027060, "internal_node_id": "0.0-159.0"}}, {"uniqueid": "MTK0675:3X87C8JFV7IS56ANZYC3L7H69G7SQO", "current_trial": 214, "dateTime": 1512590361464, "trialdata": {"rt": -1000, "stimulus": "/static/audio/wordpool/PLATE.wav", "key_press": -1, "type": "PRES_AUD", "word": "plate", "wordID": 1085, "conditions": [24, 1600, "a", 24000], "trial": 5, "serialpos": 17, "trial_type": "single-audio", "trial_index": 214, "time_elapsed": 1029520, "internal_node_id": "0.0-160.0"}}, {"uniqueid": "MTK0675:3X87C8JFV7IS56ANZYC3L7H69G7SQO", "current_trial": 215, "dateTime": 1512590364190, "trialdata": {"rt": -1000, "stimulus": "/static/audio/wordpool/CUSTARD.wav", "key_press": -1, "type": "PRES_AUD", "word": "custard", "wordID": 428, "conditions": [24, 1600, "a", 24000], "trial": 5, "serialpos": 18, "trial_type": "single-audio", "trial_index": 215, "time_elapsed": 1032245, "internal_node_id": "0.0-161.0"}}, {"uniqueid": "MTK0675:3X87C8JFV7IS56ANZYC3L7H69G7SQO", "current_trial": 216, "dateTime": 1512590366789, "trialdata": {"rt": -1000, "stimulus": "/static/audio/wordpool/PRIMATE.wav", "key_press": -1, "type": "PRES_AUD", "word": "primate", "wordID": 1122, "conditions": [24, 1600, "a", 24000], "trial": 5, "serialpos": 19, "trial_type": "single-audio", "trial_index": 216, "time_elapsed": 1034845, "internal_node_id": "0.0-162.0"}}, {"uniqueid": "MTK0675:3X87C8JFV7IS56ANZYC3L7H69G7SQO", "current_trial": 217, "dateTime": 1512590369273, "trialdata": {"rt": -1000, "stimulus": "/static/audio/wordpool/DOUGHNUT.wav", "key_press": -1, "type": "PRES_AUD", "word": "doughnut", "wordID": 489, "conditions": [24, 1600, "a", 24000], "trial": 5, "serialpos": 20, "trial_type": "single-audio", "trial_index": 217, "time_elapsed": 1037329, "internal_node_id": "0.0-163.0"}}, {"uniqueid": "MTK0675:3X87C8JFV7IS56ANZYC3L7H69G7SQO", "current_trial": 218, "dateTime": 1512590371837, "trialdata": {"rt": -1000, "stimulus": "/static/audio/wordpool/GUITAR.wav", "key_press": -1, "type": "PRES_AUD", "word": "guitar", "wordID": 669, "conditions": [24, 1600, "a", 24000], "trial": 5, "serialpos": 21, "trial_type": "single-audio", "trial_index": 218, "time_elapsed": 1039893, "internal_node_id": "0.0-164.0"}}, {"uniqueid": "MTK0675:3X87C8JFV7IS56ANZYC3L7H69G7SQO", "current_trial": 219, "dateTime": 1512590374330, "trialdata": {"rt": -1000, "stimulus": "/static/audio/wordpool/PIANO.wav", "key_press": -1, "type": "PRES_AUD", "word": "piano", "wordID": 1056, "conditions": [24, 1600, "a", 24000], "trial": 5, "serialpos": 22, "trial_type": "single-audio", "trial_index": 219, "time_elapsed": 1042386, "internal_node_id": "0.0-165.0"}}, {"uniqueid": "MTK0675:3X87C8JFV7IS56ANZYC3L7H69G7SQO", "current_trial": 220, "dateTime": 1512590376949, "trialdata": {"rt": -1000, "stimulus": "/static/audio/wordpool/TUBA.wav", "key_press": -1, "type": "PRES_AUD", "word": "tuba", "wordID": 1514, "conditions": [24, 1600, "a", 24000], "trial": 5, "serialpos": 23, "trial_type": "single-audio", "trial_index": 220, "time_elapsed": 1045005, "internal_node_id": "0.0-166.0"}}, {"uniqueid": "MTK0675:3X87C8JFV7IS56ANZYC3L7H69G7SQO", "current_trial": 221, "dateTime": 1512590378225, "trialdata": {"rt": -1, "stimulus": "", "key_press": -1, "type": "PRE_RECALL_DELAY", "trial_type": "single-stim", "trial_index": 221, "time_elapsed": 1046280, "internal_node_id": "0.0-167.0-0.0"}}, {"uniqueid": "MTK0675:3X87C8JFV7IS56ANZYC3L7H69G7SQO", "current_trial": 222, "dateTime": 1512590378731, "trialdata": {"rt": -1000, "stimulus": "/static/audio/400Hz.wav", "key_press": -1, "type": "PRE_RECALL_ALERT", "trial_type": "single-audio", "trial_index": 222, "time_elapsed": 1046786, "internal_node_id": "0.0-168.0"}}, {"uniqueid": "MTK0675:3X87C8JFV7IS56ANZYC3L7H69G7SQO", "current_trial": 223, "dateTime": 1512590438735, "trialdata": {"rt": [1564, 3280, 6623, 7866, 9301, 11558, 13420, 15028, 18204, 21773, 27606, 30341], "recwords": ["donut", "guitar", "piano", "tuba", "japan", "plaster", "infant", "child", "teacher", "student", "oyster", "france"], "type": "FREE_RECALL", "conditions": [24, 1600, "a", 24000], "trial": 5, "trial_type": "free-recall", "trial_index": 223, "time_elapsed": 1106788, "internal_node_id": "0.0-169.0-0.0"}}, {"uniqueid": "MTK0675:3X87C8JFV7IS56ANZYC3L7H69G7SQO", "current_trial": 224, "dateTime": 1512590442134, "trialdata": {"rt": 1396, "key_press": 32, "type": "INSTRUCTIONS", "trial_type": "text", "trial_index": 224, "time_elapsed": 1110190, "internal_node_id": "0.0-170.0"}}, {"uniqueid": "MTK0675:3X87C8JFV7IS56ANZYC3L7H69G7SQO", "current_trial": 225, "dateTime": 1512590456139, "trialdata": {"rt": [2982, 4898, 6771, 8927, 10804], "responses": ["8", "12", "13", "9", "17"], "num1": [2, 2, 3, 6, 8, 7], "num2": [4, 9, 5, 2, 8, 1], "num3": [2, 1, 5, 1, 1, 8], "type": "DISTRACTOR", "conditions": [12, 1600, "v", 12000], "trial": 6, "trial_type": "math-distractor", "trial_index": 225, "time_elapsed": 1124195, "internal_node_id": "0.0-171.0"}}, {"uniqueid": "MTK0675:3X87C8JFV7IS56ANZYC3L7H69G7SQO", "current_trial": 226, "dateTime": 1512590459141, "trialdata": {"rt": -1, "stimulus": "<p id=\"stim\">10</p>", "key_press": -1, "trial_type": "single-stim", "trial_index": 226, "time_elapsed": 1127197, "internal_node_id": "0.0-172.0-0.0"}}, {"uniqueid": "MTK0675:3X87C8JFV7IS56ANZYC3L7H69G7SQO", "current_trial": 227, "dateTime": 1512590460142, "trialdata": {"rt": -1, "stimulus": "<p id=\"stim\">9</p>", "key_press": -1, "trial_type": "single-stim", "trial_index": 227, "time_elapsed": 1128198, "internal_node_id": "0.0-172.0-1.0"}}, {"uniqueid": "MTK0675:3X87C8JFV7IS56ANZYC3L7H69G7SQO", "current_trial": 228, "dateTime": 1512590461143, "trialdata": {"rt": -1, "stimulus": "<p id=\"stim\">8</p>", "key_press": -1, "trial_type": "single-stim", "trial_index": 228, "time_elapsed": 1129199, "internal_node_id": "0.0-172.0-2.0"}}, {"uniqueid": "MTK0675:3X87C8JFV7IS56ANZYC3L7H69G7SQO", "current_trial": 229, "dateTime": 1512590462144, "trialdata": {"rt": -1, "stimulus": "<p id=\"stim\">7</p>", "key_press": -1, "trial_type": "single-stim", "trial_index": 229, "time_elapsed": 1130200, "internal_node_id": "0.0-172.0-3.0"}}, {"uniqueid": "MTK0675:3X87C8JFV7IS56ANZYC3L7H69G7SQO", "current_trial": 230, "dateTime": 1512590463146, "trialdata": {"rt": -1, "stimulus": "<p id=\"stim\">6</p>", "key_press": -1, "trial_type": "single-stim", "trial_index": 230, "time_elapsed": 1131202, "internal_node_id": "0.0-172.0-4.0"}}, {"uniqueid": "MTK0675:3X87C8JFV7IS56ANZYC3L7H69G7SQO", "current_trial": 231, "dateTime": 1512590464149, "trialdata": {"rt": -1, "stimulus": "<p id=\"stim\">5</p>", "key_press": -1, "trial_type": "single-stim", "trial_index": 231, "time_elapsed": 1132205, "internal_node_id": "0.0-172.0-5.0"}}, {"uniqueid": "MTK0675:3X87C8JFV7IS56ANZYC3L7H69G7SQO", "current_trial": 232, "dateTime": 1512590465150, "trialdata": {"rt": -1, "stimulus": "<p id=\"stim\">4</p>", "key_press": -1, "trial_type": "single-stim", "trial_index": 232, "time_elapsed": 1133206, "internal_node_id": "0.0-172.0-6.0"}}, {"uniqueid": "MTK0675:3X87C8JFV7IS56ANZYC3L7H69G7SQO", "current_trial": 233, "dateTime": 1512590466151, "trialdata": {"rt": -1, "stimulus": "<p id=\"stim\">3</p>", "key_press": -1, "trial_type": "single-stim", "trial_index": 233, "time_elapsed": 1134207, "internal_node_id": "0.0-172.0-7.0"}}, {"uniqueid": "MTK0675:3X87C8JFV7IS56ANZYC3L7H69G7SQO", "current_trial": 234, "dateTime": 1512590467152, "trialdata": {"rt": -1, "stimulus": "<p id=\"stim\">2</p>", "key_press": -1, "trial_type": "single-stim", "trial_index": 234, "time_elapsed": 1135208, "internal_node_id": "0.0-172.0-8.0"}}, {"uniqueid": "MTK0675:3X87C8JFV7IS56ANZYC3L7H69G7SQO", "current_trial": 235, "dateTime": 1512590468154, "trialdata": {"rt": -1, "stimulus": "<p id=\"stim\">1</p>", "key_press": -1, "trial_type": "single-stim", "trial_index": 235, "time_elapsed": 1136210, "internal_node_id": "0.0-172.0-9.0"}}, {"uniqueid": "MTK0675:3X87C8JFV7IS56ANZYC3L7H69G7SQO", "current_trial": 236, "dateTime": 1512590469656, "trialdata": {"rt": -1, "stimulus": "<p id=\"stim\">+</p>", "key_press": -1, "type": "FIXATION", "trial_type": "single-stim", "trial_index": 236, "time_elapsed": 1137711, "internal_node_id": "0.0-173.0-0.0"}}, {"uniqueid": "MTK0675:3X87C8JFV7IS56ANZYC3L7H69G7SQO", "current_trial": 237, "dateTime": 1512590471257, "trialdata": {"rt": -1, "stimulus": "<p id=\"stim\">BASEMENT</p>", "key_press": -1, "type": "PRES_VIS", "word": "basement", "wordID": 93, "conditions": [12, 1600, "v", 12000], "trial": 6, "serialpos": 0, "trial_type": "single-stim", "trial_index": 237, "time_elapsed": 1139313, "internal_node_id": "0.0-174.0"}}, {"uniqueid": "MTK0675:3X87C8JFV7IS56ANZYC3L7H69G7SQO", "current_trial": 238, "dateTime": 1512590473772, "trialdata": {"rt": -1, "stimulus": "<p id=\"stim\">BANJO</p>", "key_press": -1, "type": "PRES_VIS", "word": "banjo", "wordID": 81, "conditions": [12, 1600, "v", 12000], "trial": 6, "serialpos": 1, "trial_type": "single-stim", "trial_index": 238, "time_elapsed": 1141828, "internal_node_id": "0.0-175.0"}}, {"uniqueid": "MTK0675:3X87C8JFV7IS56ANZYC3L7H69G7SQO", "current_trial": 239, "dateTime": 1512590476304, "trialdata": {"rt": -1, "stimulus": "<p id=\"stim\">FIDDLE</p>", "key_press": -1, "type": "PRES_VIS", "word": "fiddle", "wordID": 560, "conditions": [12, 1600, "v", 12000], "trial": 6, "serialpos": 2, "trial_type": "single-stim", "trial_index": 239, "time_elapsed": 1144359, "internal_node_id": "0.0-176.0"}}, {"uniqueid": "MTK0675:3X87C8JFV7IS56ANZYC3L7H69G7SQO", "current_trial": 240, "dateTime": 1512590478828, "trialdata": {"rt": -1, "stimulus": "<p id=\"stim\">LOVER</p>", "key_press": -1, "type": "PRES_VIS", "word": "lover", "wordID": 845, "conditions": [12, 1600, "v", 12000], "trial": 6, "serialpos": 3, "trial_type": "single-stim", "trial_index": 240, "time_elapsed": 1146884, "internal_node_id": "0.0-177.0"}}, {"uniqueid": "MTK0675:3X87C8JFV7IS56ANZYC3L7H69G7SQO", "current_trial": 241, "dateTime": 1512590481543, "trialdata": {"rt": -1, "stimulus": "<p id=\"stim\">KITCHEN</p>", "key_press": -1, "type": "PRES_VIS", "word": "kitchen", "wordID": 777, "conditions": [12, 1600, "v", 12000], "trial": 6, "serialpos": 4, "trial_type": "single-stim", "trial_index": 241, "time_elapsed": 1149599, "internal_node_id": "0.0-178.0"}}, {"uniqueid": "MTK0675:3X87C8JFV7IS56ANZYC3L7H69G7SQO", "current_trial": 242, "dateTime": 1512590484191, "trialdata": {"rt": -1, "stimulus": "<p id=\"stim\">BUTCHER</p>", "key_press": -1, "type": "PRES_VIS", "word": "butcher", "wordID": 202, "conditions": [12, 1600, "v", 12000], "trial": 6, "serialpos": 5, "trial_type": "single-stim", "trial_index": 242, "time_elapsed": 1152247, "internal_node_id": "0.0-179.0"}}, {"uniqueid": "MTK0675:3X87C8JFV7IS56ANZYC3L7H69G7SQO", "current_trial": 243, "dateTime": 1512590486903, "trialdata": {"rt": -1, "stimulus": "<p id=\"stim\">JUDGE</p>", "key_press": -1, "type": "PRES_VIS", "word": "judge", "wordID": 760, "conditions": [12, 1600, "v", 12000], "trial": 6, "serialpos": 6, "trial_type": "single-stim", "trial_index": 243, "time_elapsed": 1154959, "internal_node_id": "0.0-180.0"}}, {"uniqueid": "MTK0675:3X87C8JFV7IS56ANZYC3L7H69G7SQO", "current_trial": 244, "dateTime": 1512590489616, "trialdata": {"rt": -1, "stimulus": "<p id=\"stim\">PLUTO</p>", "key_press": -1, "type": "PRES_VIS", "word": "pluto", "wordID": 1091, "conditions": [12, 1600, "v", 12000], "trial": 6, "serialpos": 7, "trial_type": "single-stim", "trial_index": 244, "time_elapsed": 1157672, "internal_node_id": "0.0-181.0"}}, {"uniqueid": "MTK0675:3X87C8JFV7IS56ANZYC3L7H69G7SQO", "current_trial": 245, "dateTime": 1512590492226, "trialdata": {"rt": -1, "stimulus": "<p id=\"stim\">CLOTHES</p>", "key_press": -1, "type": "PRES_VIS", "word": "clothes", "wordID": 326, "conditions": [12, 1600, "v", 12000], "trial": 6, "serialpos": 8, "trial_type": "single-stim", "trial_index": 245, "time_elapsed": 1160282, "internal_node_id": "0.0-182.0"}}, {"uniqueid": "MTK0675:3X87C8JFV7IS56ANZYC3L7H69G7SQO", "current_trial": 246, "dateTime": 1512590494688, "trialdata": {"rt": -1, "stimulus": "<p id=\"stim\">BEEF</p>", "key_press": -1, "type": "PRES_VIS", "word": "beef", "wordID": 112, "conditions": [12, 1600, "v", 12000], "trial": 6, "serialpos": 9, "trial_type": "single-stim", "trial_index": 246, "time_elapsed": 1162744, "internal_node_id": "0.0-183.0"}}, {"uniqueid": "MTK0675:3X87C8JFV7IS56ANZYC3L7H69G7SQO", "current_trial": 247, "dateTime": 1512590497130, "trialdata": {"rt": -1, "stimulus": "<p id=\"stim\">EGYPT</p>", "key_press": -1, "type": "PRES_VIS", "word": "egypt", "wordID": 518, "conditions": [12, 1600, "v", 12000], "trial": 6, "serialpos": 10, "trial_type": "single-stim", "trial_index": 247, "time_elapsed": 1165186, "internal_node_id": "0.0-184.0"}}, {"uniqueid": "MTK0675:3X87C8JFV7IS56ANZYC3L7H69G7SQO", "current_trial": 248, "dateTime": 1512590499538, "trialdata": {"rt": -1, "stimulus": "<p id=\"stim\">GLASS</p>", "key_press": -1, "type": "PRES_VIS", "word": "glass", "wordID": 638, "conditions": [12, 1600, "v", 12000], "trial": 6, "serialpos": 11, "trial_type": "single-stim", "trial_index": 248, "time_elapsed": 1167594, "internal_node_id": "0.0-185.0"}}, {"uniqueid": "MTK0675:3X87C8JFV7IS56ANZYC3L7H69G7SQO", "current_trial": 249, "dateTime": 1512590501730, "trialdata": {"rt": -1, "stimulus": "", "key_press": -1, "type": "PRE_RECALL_DELAY", "trial_type": "single-stim", "trial_index": 249, "time_elapsed": 1169786, "internal_node_id": "0.0-186.0-0.0"}}, {"uniqueid": "MTK0675:3X87C8JFV7IS56ANZYC3L7H69G7SQO", "current_trial": 250, "dateTime": 1512590502239, "trialdata": {"rt": -1000, "stimulus": "/static/audio/400Hz.wav", "key_press": -1, "type": "PRE_RECALL_ALERT", "trial_type": "single-audio", "trial_index": 250, "time_elapsed": 1170295, "internal_node_id": "0.0-187.0"}}, {"uniqueid": "MTK0675:3X87C8JFV7IS56ANZYC3L7H69G7SQO", "current_trial": 251, "dateTime": 1512590562242, "trialdata": {"rt": [3541, 4796, 7458, 9318, 12653, 16611, 20083, 22210, 58370], "recwords": ["clothes", "beef", "egypt", "glass", "judge", "butcher", "kitchen", "glass", "banjo"], "type": "FREE_RECALL", "conditions": [12, 1600, "v", 12000], "trial": 6, "trial_type": "free-recall", "trial_index": 251, "time_elapsed": 1230298, "internal_node_id": "0.0-188.0-0.0"}}, {"uniqueid": "MTK0675:3X87C8JFV7IS56ANZYC3L7H69G7SQO", "current_trial": 252, "dateTime": 1512590568994, "trialdata": {"rt": 4747, "key_press": 32, "type": "INSTRUCTIONS", "trial_type": "text", "trial_index": 252, "time_elapsed": 1237050, "internal_node_id": "0.0-189.0"}}, {"uniqueid": "MTK0675:3X87C8JFV7IS56ANZYC3L7H69G7SQO", "current_trial": 253, "dateTime": 1512590583003, "trialdata": {"rt": [2593, 5545, 9865], "responses": ["16", "21", "26"], "num1": [8, 3, 9, 7], "num2": [6, 9, 4, 9], "num3": [2, 9, 8, 1], "type": "DISTRACTOR", "conditions": [12, 800, "a", 12000], "trial": 7, "trial_type": "math-distractor", "trial_index": 253, "time_elapsed": 1251059, "internal_node_id": "0.0-190.0"}}, {"uniqueid": "MTK0675:3X87C8JFV7IS56ANZYC3L7H69G7SQO", "current_trial": 254, "dateTime": 1512590586012, "trialdata": {"rt": -1, "stimulus": "<p id=\"stim\">10</p>", "key_press": -1, "trial_type": "single-stim", "trial_index": 254, "time_elapsed": 1254068, "internal_node_id": "0.0-191.0-0.0"}}, {"uniqueid": "MTK0675:3X87C8JFV7IS56ANZYC3L7H69G7SQO", "current_trial": 255, "dateTime": 1512590587016, "trialdata": {"rt": -1, "stimulus": "<p id=\"stim\">9</p>", "key_press": -1, "trial_type": "single-stim", "trial_index": 255, "time_elapsed": 1255072, "internal_node_id": "0.0-191.0-1.0"}}, {"uniqueid": "MTK0675:3X87C8JFV7IS56ANZYC3L7H69G7SQO", "current_trial": 256, "dateTime": 1512590588020, "trialdata": {"rt": -1, "stimulus": "<p id=\"stim\">8</p>", "key_press": -1, "trial_type": "single-stim", "trial_index": 256, "time_elapsed": 1256076, "internal_node_id": "0.0-191.0-2.0"}}, {"uniqueid": "MTK0675:3X87C8JFV7IS56ANZYC3L7H69G7SQO", "current_trial": 257, "dateTime": 1512590589024, "trialdata": {"rt": -1, "stimulus": "<p id=\"stim\">7</p>", "key_press": -1, "trial_type": "single-stim", "trial_index": 257, "time_elapsed": 1257080, "internal_node_id": "0.0-191.0-3.0"}}, {"uniqueid": "MTK0675:3X87C8JFV7IS56ANZYC3L7H69G7SQO", "current_trial": 258, "dateTime": 1512590590028, "trialdata": {"rt": -1, "stimulus": "<p id=\"stim\">6</p>", "key_press": -1, "trial_type": "single-stim", "trial_index": 258, "time_elapsed": 1258084, "internal_node_id": "0.0-191.0-4.0"}}, {"uniqueid": "MTK0675:3X87C8JFV7IS56ANZYC3L7H69G7SQO", "current_trial": 259, "dateTime": 1512590591032, "trialdata": {"rt": -1, "stimulus": "<p id=\"stim\">5</p>", "key_press": -1, "trial_type": "single-stim", "trial_index": 259, "time_elapsed": 1259088, "internal_node_id": "0.0-191.0-5.0"}}, {"uniqueid": "MTK0675:3X87C8JFV7IS56ANZYC3L7H69G7SQO", "current_trial": 260, "dateTime": 1512590592035, "trialdata": {"rt": -1, "stimulus": "<p id=\"stim\">4</p>", "key_press": -1, "trial_type": "single-stim", "trial_index": 260, "time_elapsed": 1260091, "internal_node_id": "0.0-191.0-6.0"}}, {"uniqueid": "MTK0675:3X87C8JFV7IS56ANZYC3L7H69G7SQO", "current_trial": 261, "dateTime": 1512590593039, "trialdata": {"rt": -1, "stimulus": "<p id=\"stim\">3</p>", "key_press": -1, "trial_type": "single-stim", "trial_index": 261, "time_elapsed": 1261094, "internal_node_id": "0.0-191.0-7.0"}}, {"uniqueid": "MTK0675:3X87C8JFV7IS56ANZYC3L7H69G7SQO", "current_trial": 262, "dateTime": 1512590594041, "trialdata": {"rt": -1, "stimulus": "<p id=\"stim\">2</p>", "key_press": -1, "trial_type": "single-stim", "trial_index": 262, "time_elapsed": 1262097, "internal_node_id": "0.0-191.0-8.0"}}, {"uniqueid": "MTK0675:3X87C8JFV7IS56ANZYC3L7H69G7SQO", "current_trial": 263, "dateTime": 1512590595042, "trialdata": {"rt": -1, "stimulus": "<p id=\"stim\">1</p>", "key_press": -1, "trial_type": "single-stim", "trial_index": 263, "time_elapsed": 1263098, "internal_node_id": "0.0-191.0-9.0"}}, {"uniqueid": "MTK0675:3X87C8JFV7IS56ANZYC3L7H69G7SQO", "current_trial": 264, "dateTime": 1512590596543, "trialdata": {"rt": -1, "stimulus": "<p id=\"stim\">+</p>", "key_press": -1, "type": "FIXATION", "trial_type": "single-stim", "trial_index": 264, "time_elapsed": 1264599, "internal_node_id": "0.0-192.0-0.0"}}, {"uniqueid": "MTK0675:3X87C8JFV7IS56ANZYC3L7H69G7SQO", "current_trial": 265, "dateTime": 1512590598461, "trialdata": {"rt": -1000, "stimulus": "/static/audio/wordpool/GRAVEL.wav", "key_press": -1, "type": "PRES_AUD", "word": "gravel", "wordID": 658, "conditions": [12, 800, "a", 12000], "trial": 7, "serialpos": 0, "trial_type": "single-audio", "trial_index": 265, "time_elapsed": 1266517, "internal_node_id": "0.0-193.0"}}, {"uniqueid": "MTK0675:3X87C8JFV7IS56ANZYC3L7H69G7SQO", "current_trial": 266, "dateTime": 1512590600171, "trialdata": {"rt": -1000, "stimulus": "/static/audio/wordpool/LAMP.wav", "key_press": -1, "type": "PRES_AUD", "word": "lamp", "wordID": 797, "conditions": [12, 800, "a", 12000], "trial": 7, "serialpos": 1, "trial_type": "single-audio", "trial_index": 266, "time_elapsed": 1268227, "internal_node_id": "0.0-194.0"}}, {"uniqueid": "MTK0675:3X87C8JFV7IS56ANZYC3L7H69G7SQO", "current_trial": 267, "dateTime": 1512590601810, "trialdata": {"rt": -1000, "stimulus": "/static/audio/wordpool/FLIPPER.wav", "key_press": -1, "type": "PRES_AUD", "word": "flipper", "wordID": 579, "conditions": [12, 800, "a", 12000], "trial": 7, "serialpos": 2, "trial_type": "single-audio", "trial_index": 267, "time_elapsed": 1269865, "internal_node_id": "0.0-195.0"}}, {"uniqueid": "MTK0675:3X87C8JFV7IS56ANZYC3L7H69G7SQO", "current_trial": 268, "dateTime": 1512590603535, "trialdata": {"rt": -1000, "stimulus": "/static/audio/wordpool/PASSAGE.wav", "key_press": -1, "type": "PRES_AUD", "word": "passage", "wordID": 1018, "conditions": [12, 800, "a", 12000], "trial": 7, "serialpos": 3, "trial_type": "single-audio", "trial_index": 268, "time_elapsed": 1271590, "internal_node_id": "0.0-196.0"}}, {"uniqueid": "MTK0675:3X87C8JFV7IS56ANZYC3L7H69G7SQO", "current_trial": 269, "dateTime": 1512590605449, "trialdata": {"rt": -1000, "stimulus": "/static/audio/wordpool/TURKEY.wav", "key_press": -1, "type": "PRES_AUD", "word": "turkey", "wordID": 1519, "conditions": [12, 800, "a", 12000], "trial": 7, "serialpos": 4, "trial_type": "single-audio", "trial_index": 269, "time_elapsed": 1273504, "internal_node_id": "0.0-197.0"}}, {"uniqueid": "MTK0675:3X87C8JFV7IS56ANZYC3L7H69G7SQO", "current_trial": 270, "dateTime": 1512590607062, "trialdata": {"rt": 1348.0000000001837, "stimulus": "/static/audio/wordpool/POWDER.wav", "key_press": 174, "type": "PRES_AUD", "word": "powder", "wordID": 1116, "conditions": [12, 800, "a", 12000], "trial": 7, "serialp