{"condition": 0, "counterbalance": 63, "assignmentId": "34X6J5FLPU5Z63RXC43PT6QJCNSJQC", "workerId": "MTK0529", "hitId": "3MJ9GGZYO3D5Q7OEQLV9F5TDSQQA2I", "currenttrial": 626, "bonus": 0, "data": [{"uniqueid": "MTK0529:34X6J5FLPU5Z63RXC43PT6QJCNSJQC", "current_trial": 0, "dateTime": 1511199627025, "trialdata": {"rt": 3529, "key_press": 32, "type": "INSTRUCTIONS", "trial_type": "text", "trial_index": 0, "time_elapsed": 3533, "internal_node_id": "0.0-0.0"}}, {"uniqueid": "MTK0529:34X6J5FLPU5Z63RXC43PT6QJCNSJQC", "current_trial": 1, "dateTime": 1511199644779, "trialdata": {"rt": 17751, "key_press": 32, "type": "INSTRUCTIONS", "trial_type": "text", "trial_index": 1, "time_elapsed": 21289, "internal_node_id": "0.0-1.0"}}, {"uniqueid": "MTK0529:34X6J5FLPU5Z63RXC43PT6QJCNSJQC", "current_trial": 2, "dateTime": 1511199659114, "trialdata": {"rt": [14312], "responses": ["ocean"], "type": "AUDIO_TEST", "trial_type": "audio-test", "trial_index": 2, "time_elapsed": 35623, "internal_node_id": "0.0-2.0"}}, {"uniqueid": "MTK0529:34X6J5FLPU5Z63RXC43PT6QJCNSJQC", "current_trial": 3, "dateTime": 1511199666979, "trialdata": {"rt": [7851], "responses": ["crystal"], "type": "AUDIO_TEST", "trial_type": "audio-test", "trial_index": 3, "time_elapsed": 43489, "internal_node_id": "0.0-3.0"}}, {"uniqueid": "MTK0529:34X6J5FLPU5Z63RXC43PT6QJCNSJQC", "current_trial": 4, "dateTime": 1511199675336, "trialdata": {"rt": [8343], "responses": ["spice"], "type": "AUDIO_TEST", "trial_type": "audio-test", "trial_index": 4, "time_elapsed": 51845, "internal_node_id": "0.0-4.0"}}, {"uniqueid": "MTK0529:34X6J5FLPU5Z63RXC43PT6QJCNSJQC", "current_trial": 5, "dateTime": 1511199705676, "trialdata": {"rt": 29584, "responses": "{\"Q0\":\"11:00 pm\",\"Q1\":\"6:50 am\",\"Q2\":\"4\"}", "type": "SLEEP_SURVEY", "trial_type": "survey-text", "trial_index": 5, "time_elapsed": 82186, "internal_node_id": "0.0-5.0"}}, {"uniqueid": "MTK0529:34X6J5FLPU5Z63RXC43PT6QJCNSJQC", "current_trial": 6, "dateTime": 1511199773722, "trialdata": {"rt": 67042, "key_press": 32, "type": "INSTRUCTIONS", "trial_type": "text", "trial_index": 6, "time_elapsed": 150231, "internal_node_id": "0.0-6.0"}}, {"uniqueid": "MTK0529:34X6J5FLPU5Z63RXC43PT6QJCNSJQC", "current_trial": 7, "dateTime": 1511199786238, "trialdata": {"rt": 12014, "key_press": 32, "type": "INSTRUCTIONS", "trial_type": "text", "trial_index": 7, "time_elapsed": 162748, "internal_node_id": "0.0-7.0"}}, {"uniqueid": "MTK0529:34X6J5FLPU5Z63RXC43PT6QJCNSJQC", "current_trial": 8, "dateTime": 1511199797596, "trialdata": {"rt": 10854, "key_press": 32, "type": "INSTRUCTIONS", "trial_type": "text", "trial_index": 8, "time_elapsed": 174106, "internal_node_id": "0.0-8.0"}}, {"uniqueid": "MTK0529:34X6J5FLPU5Z63RXC43PT6QJCNSJQC", "current_trial": 9, "dateTime": 1511199816608, "trialdata": {"rt": [3712, 7997, 11294, 15227], "responses": ["19", "14", "19", "15"], "num1": [9, 8, 9, 4, 3], "num2": [4, 1, 8, 4, 1], "num3": [6, 5, 2, 7, 9], "type": "DISTRACTOR", "conditions": [18, 1200, "v", 18000], "trial": 0, "trial_type": "math-distractor", "trial_index": 9, "time_elapsed": 193118, "internal_node_id": "0.0-9.0"}}, {"uniqueid": "MTK0529:34X6J5FLPU5Z63RXC43PT6QJCNSJQC", "current_trial": 10, "dateTime": 1511199819613, "trialdata": {"rt": -1, "stimulus": "<p id=\"stim\">10</p>", "key_press": -1, "trial_type": "single-stim", "trial_index": 10, "time_elapsed": 196122, "internal_node_id": "0.0-10.0-0.0"}}, {"uniqueid": "MTK0529:34X6J5FLPU5Z63RXC43PT6QJCNSJQC", "current_trial": 11, "dateTime": 1511199820615, "trialdata": {"rt": -1, "stimulus": "<p id=\"stim\">9</p>", "key_press": -1, "trial_type": "single-stim", "trial_index": 11, "time_elapsed": 197124, "internal_node_id": "0.0-10.0-1.0"}}, {"uniqueid": "MTK0529:34X6J5FLPU5Z63RXC43PT6QJCNSJQC", "current_trial": 12, "dateTime": 1511199821618, "trialdata": {"rt": -1, "stimulus": "<p id=\"stim\">8</p>", "key_press": -1, "trial_type": "single-stim", "trial_index": 12, "time_elapsed": 198128, "internal_node_id": "0.0-10.0-2.0"}}, {"uniqueid": "MTK0529:34X6J5FLPU5Z63RXC43PT6QJCNSJQC", "current_trial": 13, "dateTime": 1511199822622, "trialdata": {"rt": -1, "stimulus": "<p id=\"stim\">7</p>", "key_press": -1, "trial_type": "single-stim", "trial_index": 13, "time_elapsed": 199131, "internal_node_id": "0.0-10.0-3.0"}}, {"uniqueid": "MTK0529:34X6J5FLPU5Z63RXC43PT6QJCNSJQC", "current_trial": 14, "dateTime": 1511199823624, "trialdata": {"rt": -1, "stimulus": "<p id=\"stim\">6</p>", "key_press": -1, "trial_type": "single-stim", "trial_index": 14, "time_elapsed": 200134, "internal_node_id": "0.0-10.0-4.0"}}, {"uniqueid": "MTK0529:34X6J5FLPU5Z63RXC43PT6QJCNSJQC", "current_trial": 15, "dateTime": 1511199824626, "trialdata": {"rt": -1, "stimulus": "<p id=\"stim\">5</p>", "key_press": -1, "trial_type": "single-stim", "trial_index": 15, "time_elapsed": 201136, "internal_node_id": "0.0-10.0-5.0"}}, {"uniqueid": "MTK0529:34X6J5FLPU5Z63RXC43PT6QJCNSJQC", "current_trial": 16, "dateTime": 1511199825629, "trialdata": {"rt": -1, "stimulus": "<p id=\"stim\">4</p>", "key_press": -1, "trial_type": "single-stim", "trial_index": 16, "time_elapsed": 202139, "internal_node_id": "0.0-10.0-6.0"}}, {"uniqueid": "MTK0529:34X6J5FLPU5Z63RXC43PT6QJCNSJQC", "current_trial": 17, "dateTime": 1511199826634, "trialdata": {"rt": -1, "stimulus": "<p id=\"stim\">3</p>", "key_press": -1, "trial_type": "single-stim", "trial_index": 17, "time_elapsed": 203144, "internal_node_id": "0.0-10.0-7.0"}}, {"uniqueid": "MTK0529:34X6J5FLPU5Z63RXC43PT6QJCNSJQC", "current_trial": 18, "dateTime": 1511199827638, "trialdata": {"rt": -1, "stimulus": "<p id=\"stim\">2</p>", "key_press": -1, "trial_type": "single-stim", "trial_index": 18, "time_elapsed": 204147, "internal_node_id": "0.0-10.0-8.0"}}, {"uniqueid": "MTK0529:34X6J5FLPU5Z63RXC43PT6QJCNSJQC", "current_trial": 19, "dateTime": 1511199828640, "trialdata": {"rt": -1, "stimulus": "<p id=\"stim\">1</p>", "key_press": -1, "trial_type": "single-stim", "trial_index": 19, "time_elapsed": 205150, "internal_node_id": "0.0-10.0-9.0"}}, {"uniqueid": "MTK0529:34X6J5FLPU5Z63RXC43PT6QJCNSJQC", "current_trial": 20, "dateTime": 1511199830144, "trialdata": {"rt": -1, "stimulus": "<p id=\"stim\">+</p>", "key_press": -1, "type": "FIXATION", "trial_type": "single-stim", "trial_index": 20, "time_elapsed": 206654, "internal_node_id": "0.0-11.0-0.0"}}, {"uniqueid": "MTK0529:34X6J5FLPU5Z63RXC43PT6QJCNSJQC", "current_trial": 21, "dateTime": 1511199831347, "trialdata": {"rt": -1, "stimulus": "<p id=\"stim\">WINDOW</p>", "key_press": -1, "type": "PRES_VIS", "word": "window", "wordID": 1610, "conditions": [18, 1200, "v", 18000], "trial": 0, "serialpos": 0, "trial_type": "single-stim", "trial_index": 21, "time_elapsed": 207857, "internal_node_id": "0.0-12.0"}}, {"uniqueid": "MTK0529:34X6J5FLPU5Z63RXC43PT6QJCNSJQC", "current_trial": 22, "dateTime": 1511199833448, "trialdata": {"rt": -1, "stimulus": "<p id=\"stim\">DIVER</p>", "key_press": -1, "type": "PRES_VIS", "word": "diver", "wordID": 475, "conditions": [18, 1200, "v", 18000], "trial": 0, "serialpos": 1, "trial_type": "single-stim", "trial_index": 22, "time_elapsed": 209958, "internal_node_id": "0.0-13.0"}}, {"uniqueid": "MTK0529:34X6J5FLPU5Z63RXC43PT6QJCNSJQC", "current_trial": 23, "dateTime": 1511199835455, "trialdata": {"rt": -1, "stimulus": "<p id=\"stim\">LIGHTNING</p>", "key_press": -1, "type": "PRES_VIS", "word": "lightning", "wordID": 819, "conditions": [18, 1200, "v", 18000], "trial": 0, "serialpos": 2, "trial_type": "single-stim", "trial_index": 23, "time_elapsed": 211965, "internal_node_id": "0.0-14.0"}}, {"uniqueid": "MTK0529:34X6J5FLPU5Z63RXC43PT6QJCNSJQC", "current_trial": 24, "dateTime": 1511199837849, "trialdata": {"rt": -1, "stimulus": "<p id=\"stim\">BOX</p>", "key_press": -1, "type": "PRES_VIS", "word": "box", "wordID": 158, "conditions": [18, 1200, "v", 18000], "trial": 0, "serialpos": 3, "trial_type": "single-stim", "trial_index": 24, "time_elapsed": 214359, "internal_node_id": "0.0-15.0"}}, {"uniqueid": "MTK0529:34X6J5FLPU5Z63RXC43PT6QJCNSJQC", "current_trial": 25, "dateTime": 1511199839856, "trialdata": {"rt": -1, "stimulus": "<p id=\"stim\">LABEL</p>", "key_press": -1, "type": "PRES_VIS", "word": "label", "wordID": 789, "conditions": [18, 1200, "v", 18000], "trial": 0, "serialpos": 4, "trial_type": "single-stim", "trial_index": 25, "time_elapsed": 216366, "internal_node_id": "0.0-16.0"}}, {"uniqueid": "MTK0529:34X6J5FLPU5Z63RXC43PT6QJCNSJQC", "current_trial": 26, "dateTime": 1511199842228, "trialdata": {"rt": -1, "stimulus": "<p id=\"stim\">GOBLIN</p>", "key_press": -1, "type": "PRES_VIS", "word": "goblin", "wordID": 644, "conditions": [18, 1200, "v", 18000], "trial": 0, "serialpos": 5, "trial_type": "single-stim", "trial_index": 26, "time_elapsed": 218738, "internal_node_id": "0.0-17.0"}}, {"uniqueid": "MTK0529:34X6J5FLPU5Z63RXC43PT6QJCNSJQC", "current_trial": 27, "dateTime": 1511199844512, "trialdata": {"rt": -1, "stimulus": "<p id=\"stim\">BEAVER</p>", "key_press": -1, "type": "PRES_VIS", "word": "beaver", "wordID": 108, "conditions": [18, 1200, "v", 18000], "trial": 0, "serialpos": 6, "trial_type": "single-stim", "trial_index": 27, "time_elapsed": 221022, "internal_node_id": "0.0-18.0"}}, {"uniqueid": "MTK0529:34X6J5FLPU5Z63RXC43PT6QJCNSJQC", "current_trial": 28, "dateTime": 1511199846870, "trialdata": {"rt": -1, "stimulus": "<p id=\"stim\">THREAD</p>", "key_press": -1, "type": "PRES_VIS", "word": "thread", "wordID": 1459, "conditions": [18, 1200, "v", 18000], "trial": 0, "serialpos": 7, "trial_type": "single-stim", "trial_index": 28, "time_elapsed": 223380, "internal_node_id": "0.0-19.0"}}, {"uniqueid": "MTK0529:34X6J5FLPU5Z63RXC43PT6QJCNSJQC", "current_trial": 29, "dateTime": 1511199849198, "trialdata": {"rt": -1, "stimulus": "<p id=\"stim\">SUNRISE</p>", "key_press": -1, "type": "PRES_VIS", "word": "sunrise", "wordID": 1406, "conditions": [18, 1200, "v", 18000], "trial": 0, "serialpos": 8, "trial_type": "single-stim", "trial_index": 29, "time_elapsed": 225708, "internal_node_id": "0.0-20.0"}}, {"uniqueid": "MTK0529:34X6J5FLPU5Z63RXC43PT6QJCNSJQC", "current_trial": 30, "dateTime": 1511199851247, "trialdata": {"rt": -1, "stimulus": "<p id=\"stim\">DRAGON</p>", "key_press": -1, "type": "PRES_VIS", "word": "dragon", "wordID": 491, "conditions": [18, 1200, "v", 18000], "trial": 0, "serialpos": 9, "trial_type": "single-stim", "trial_index": 30, "time_elapsed": 227757, "internal_node_id": "0.0-21.0"}}, {"uniqueid": "MTK0529:34X6J5FLPU5Z63RXC43PT6QJCNSJQC", "current_trial": 31, "dateTime": 1511199853404, "trialdata": {"rt": -1, "stimulus": "<p id=\"stim\">BACKBONE</p>", "key_press": -1, "type": "PRES_VIS", "word": "backbone", "wordID": 65, "conditions": [18, 1200, "v", 18000], "trial": 0, "serialpos": 10, "trial_type": "single-stim", "trial_index": 31, "time_elapsed": 229913, "internal_node_id": "0.0-22.0"}}, {"uniqueid": "MTK0529:34X6J5FLPU5Z63RXC43PT6QJCNSJQC", "current_trial": 32, "dateTime": 1511199855529, "trialdata": {"rt": -1, "stimulus": "<p id=\"stim\">BLADE</p>", "key_press": -1, "type": "PRES_VIS", "word": "blade", "wordID": 133, "conditions": [18, 1200, "v", 18000], "trial": 0, "serialpos": 11, "trial_type": "single-stim", "trial_index": 32, "time_elapsed": 232039, "internal_node_id": "0.0-23.0"}}, {"uniqueid": "MTK0529:34X6J5FLPU5Z63RXC43PT6QJCNSJQC", "current_trial": 33, "dateTime": 1511199857909, "trialdata": {"rt": -1, "stimulus": "<p id=\"stim\">PATROL</p>", "key_press": -1, "type": "PRES_VIS", "word": "patrol", "wordID": 1026, "conditions": [18, 1200, "v", 18000], "trial": 0, "serialpos": 12, "trial_type": "single-stim", "trial_index": 33, "time_elapsed": 234419, "internal_node_id": "0.0-24.0"}}, {"uniqueid": "MTK0529:34X6J5FLPU5Z63RXC43PT6QJCNSJQC", "current_trial": 34, "dateTime": 1511199860137, "trialdata": {"rt": -1, "stimulus": "<p id=\"stim\">PLIERS</p>", "key_press": -1, "type": "PRES_VIS", "word": "pliers", "wordID": 1088, "conditions": [18, 1200, "v", 18000], "trial": 0, "serialpos": 13, "trial_type": "single-stim", "trial_index": 34, "time_elapsed": 236647, "internal_node_id": "0.0-25.0"}}, {"uniqueid": "MTK0529:34X6J5FLPU5Z63RXC43PT6QJCNSJQC", "current_trial": 35, "dateTime": 1511199862254, "trialdata": {"rt": -1, "stimulus": "<p id=\"stim\">TABLET</p>", "key_press": -1, "type": "PRES_VIS", "word": "tablet", "wordID": 1426, "conditions": [18, 1200, "v", 18000], "trial": 0, "serialpos": 14, "trial_type": "single-stim", "trial_index": 35, "time_elapsed": 238764, "internal_node_id": "0.0-26.0"}}, {"uniqueid": "MTK0529:34X6J5FLPU5Z63RXC43PT6QJCNSJQC", "current_trial": 36, "dateTime": 1511199864535, "trialdata": {"rt": -1, "stimulus": "<p id=\"stim\">BEEF</p>", "key_press": -1, "type": "PRES_VIS", "word": "beef", "wordID": 112, "conditions": [18, 1200, "v", 18000], "trial": 0, "serialpos": 15, "trial_type": "single-stim", "trial_index": 36, "time_elapsed": 241045, "internal_node_id": "0.0-27.0"}}, {"uniqueid": "MTK0529:34X6J5FLPU5Z63RXC43PT6QJCNSJQC", "current_trial": 37, "dateTime": 1511199866652, "trialdata": {"rt": -1, "stimulus": "<p id=\"stim\">OUTFIT</p>", "key_press": -1, "type": "PRES_VIS", "word": "outfit", "wordID": 987, "conditions": [18, 1200, "v", 18000], "trial": 0, "serialpos": 16, "trial_type": "single-stim", "trial_index": 37, "time_elapsed": 243161, "internal_node_id": "0.0-28.0"}}, {"uniqueid": "MTK0529:34X6J5FLPU5Z63RXC43PT6QJCNSJQC", "current_trial": 38, "dateTime": 1511199868843, "trialdata": {"rt": -1, "stimulus": "<p id=\"stim\">PANTHER</p>", "key_press": -1, "type": "PRES_VIS", "word": "panther", "wordID": 1008, "conditions": [18, 1200, "v", 18000], "trial": 0, "serialpos": 17, "trial_type": "single-stim", "trial_index": 38, "time_elapsed": 245353, "internal_node_id": "0.0-29.0"}}, {"uniqueid": "MTK0529:34X6J5FLPU5Z63RXC43PT6QJCNSJQC", "current_trial": 39, "dateTime": 1511199871221, "trialdata": {"rt": -1, "stimulus": "", "key_press": -1, "type": "PRE_RECALL_DELAY", "trial_type": "single-stim", "trial_index": 39, "time_elapsed": 247731, "internal_node_id": "0.0-30.0-0.0"}}, {"uniqueid": "MTK0529:34X6J5FLPU5Z63RXC43PT6QJCNSJQC", "current_trial": 40, "dateTime": 1511199871725, "trialdata": {"rt": -1000, "stimulus": "/static/audio/400Hz.wav", "key_press": -1, "type": "PRE_RECALL_ALERT", "trial_type": "single-audio", "trial_index": 40, "time_elapsed": 248235, "internal_node_id": "0.0-31.0"}}, {"uniqueid": "MTK0529:34X6J5FLPU5Z63RXC43PT6QJCNSJQC", "current_trial": 41, "dateTime": 1511199931747, "trialdata": {"rt": [2840, 4604, 6112, 8743, 10905, 14851, 19189, 23747, 35123, 43241], "recwords": ["panther", "beef", "diver", "goblin", "tablet", "backbone", "blade", "window", "ledge", "beaver"], "type": "FREE_RECALL", "conditions": [18, 1200, "v", 18000], "trial": 0, "trial_type": "free-recall", "trial_index": 41, "time_elapsed": 308245, "internal_node_id": "0.0-32.0-0.0"}}, {"uniqueid": "MTK0529:34X6J5FLPU5Z63RXC43PT6QJCNSJQC", "current_trial": 42, "dateTime": 1511199934813, "trialdata": {"rt": 1063, "key_press": 32, "type": "INSTRUCTIONS", "trial_type": "text", "trial_index": 42, "time_elapsed": 311323, "internal_node_id": "0.0-33.0"}}, {"uniqueid": "MTK0529:34X6J5FLPU5Z63RXC43PT6QJCNSJQC", "current_trial": 43, "dateTime": 1511199954819, "trialdata": {"rt": [2477, 4924, 6941, 10795, 14826, 17711], "responses": ["13", "17", "13", "25", "18", "9"], "num1": [4, 9, 5, 9, 5, 4, 1], "num2": [7, 7, 7, 9, 9, 1, 5], "num3": [2, 1, 1, 7, 4, 4, 9], "type": "DISTRACTOR", "conditions": [18, 1200, "a", 18000], "trial": 1, "trial_type": "math-distractor", "trial_index": 43, "time_elapsed": 331329, "internal_node_id": "0.0-34.0"}}, {"uniqueid": "MTK0529:34X6J5FLPU5Z63RXC43PT6QJCNSJQC", "current_trial": 44, "dateTime": 1511199957824, "trialdata": {"rt": -1, "stimulus": "<p id=\"stim\">10</p>", "key_press": -1, "trial_type": "single-stim", "trial_index": 44, "time_elapsed": 334334, "internal_node_id": "0.0-35.0-0.0"}}, {"uniqueid": "MTK0529:34X6J5FLPU5Z63RXC43PT6QJCNSJQC", "current_trial": 45, "dateTime": 1511199958827, "trialdata": {"rt": -1, "stimulus": "<p id=\"stim\">9</p>", "key_press": -1, "trial_type": "single-stim", "trial_index": 45, "time_elapsed": 335337, "internal_node_id": "0.0-35.0-1.0"}}, {"uniqueid": "MTK0529:34X6J5FLPU5Z63RXC43PT6QJCNSJQC", "current_trial": 46, "dateTime": 1511199959831, "trialdata": {"rt": -1, "stimulus": "<p id=\"stim\">8</p>", "key_press": -1, "trial_type": "single-stim", "trial_index": 46, "time_elapsed": 336341, "internal_node_id": "0.0-35.0-2.0"}}, {"uniqueid": "MTK0529:34X6J5FLPU5Z63RXC43PT6QJCNSJQC", "current_trial": 47, "dateTime": 1511199960834, "trialdata": {"rt": -1, "stimulus": "<p id=\"stim\">7</p>", "key_press": -1, "trial_type": "single-stim", "trial_index": 47, "time_elapsed": 337344, "internal_node_id": "0.0-35.0-3.0"}}, {"uniqueid": "MTK0529:34X6J5FLPU5Z63RXC43PT6QJCNSJQC", "current_trial": 48, "dateTime": 1511199961838, "trialdata": {"rt": -1, "stimulus": "<p id=\"stim\">6</p>", "key_press": -1, "trial_type": "single-stim", "trial_index": 48, "time_elapsed": 338347, "internal_node_id": "0.0-35.0-4.0"}}, {"uniqueid": "MTK0529:34X6J5FLPU5Z63RXC43PT6QJCNSJQC", "current_trial": 49, "dateTime": 1511199962841, "trialdata": {"rt": -1, "stimulus": "<p id=\"stim\">5</p>", "key_press": -1, "trial_type": "single-stim", "trial_index": 49, "time_elapsed": 339351, "internal_node_id": "0.0-35.0-5.0"}}, {"uniqueid": "MTK0529:34X6J5FLPU5Z63RXC43PT6QJCNSJQC", "current_trial": 50, "dateTime": 1511199963843, "trialdata": {"rt": -1, "stimulus": "<p id=\"stim\">4</p>", "key_press": -1, "trial_type": "single-stim", "trial_index": 50, "time_elapsed": 340353, "internal_node_id": "0.0-35.0-6.0"}}, {"uniqueid": "MTK0529:34X6J5FLPU5Z63RXC43PT6QJCNSJQC", "current_trial": 51, "dateTime": 1511199964845, "trialdata": {"rt": -1, "stimulus": "<p id=\"stim\">3</p>", "key_press": -1, "trial_type": "single-stim", "trial_index": 51, "time_elapsed": 341355, "internal_node_id": "0.0-35.0-7.0"}}, {"uniqueid": "MTK0529:34X6J5FLPU5Z63RXC43PT6QJCNSJQC", "current_trial": 52, "dateTime": 1511199965848, "trialdata": {"rt": -1, "stimulus": "<p id=\"stim\">2</p>", "key_press": -1, "trial_type": "single-stim", "trial_index": 52, "time_elapsed": 342358, "internal_node_id": "0.0-35.0-8.0"}}, {"uniqueid": "MTK0529:34X6J5FLPU5Z63RXC43PT6QJCNSJQC", "current_trial": 53, "dateTime": 1511199966850, "trialdata": {"rt": -1, "stimulus": "<p id=\"stim\">1</p>", "key_press": -1, "trial_type": "single-stim", "trial_index": 53, "time_elapsed": 343360, "internal_node_id": "0.0-35.0-9.0"}}, {"uniqueid": "MTK0529:34X6J5FLPU5Z63RXC43PT6QJCNSJQC", "current_trial": 54, "dateTime": 1511199968352, "trialdata": {"rt": -1, "stimulus": "<p id=\"stim\">+</p>", "key_press": -1, "type": "FIXATION", "trial_type": "single-stim", "trial_index": 54, "time_elapsed": 344862, "internal_node_id": "0.0-36.0-0.0"}}, {"uniqueid": "MTK0529:34X6J5FLPU5Z63RXC43PT6QJCNSJQC", "current_trial": 55, "dateTime": 1511199970737, "trialdata": {"rt": -1000, "stimulus": "/static/audio/wordpool/BATHTUB.wav", "key_press": -1, "type": "PRES_AUD", "word": "bathtub", "wordID": 99, "conditions": [18, 1200, "a", 18000], "trial": 1, "serialpos": 0, "trial_type": "single-audio", "trial_index": 55, "time_elapsed": 347247, "internal_node_id": "0.0-37.0"}}, {"uniqueid": "MTK0529:34X6J5FLPU5Z63RXC43PT6QJCNSJQC", "current_trial": 56, "dateTime": 1511199972945, "trialdata": {"rt": -1000, "stimulus": "/static/audio/wordpool/RADISH.wav", "key_press": -1, "type": "PRES_AUD", "word": "radish", "wordID": 1157, "conditions": [18, 1200, "a", 18000], "trial": 1, "serialpos": 1, "trial_type": "single-audio", "trial_index": 56, "time_elapsed": 349455, "internal_node_id": "0.0-38.0"}}, {"uniqueid": "MTK0529:34X6J5FLPU5Z63RXC43PT6QJCNSJQC", "current_trial": 57, "dateTime": 1511199975236, "trialdata": {"rt": -1000, "stimulus": "/static/audio/wordpool/LIVER.wav", "key_press": -1, "type": "PRES_AUD", "word": "liver", "wordID": 832, "conditions": [18, 1200, "a", 18000], "trial": 1, "serialpos": 2, "trial_type": "single-audio", "trial_index": 57, "time_elapsed": 351745, "internal_node_id": "0.0-39.0"}}, {"uniqueid": "MTK0529:34X6J5FLPU5Z63RXC43PT6QJCNSJQC", "current_trial": 58, "dateTime": 1511199977412, "trialdata": {"rt": -1000, "stimulus": "/static/audio/wordpool/BELLY.wav", "key_press": -1, "type": "PRES_AUD", "word": "belly", "wordID": 118, "conditions": [18, 1200, "a", 18000], "trial": 1, "serialpos": 3, "trial_type": "single-audio", "trial_index": 58, "time_elapsed": 353922, "internal_node_id": "0.0-40.0"}}, {"uniqueid": "MTK0529:34X6J5FLPU5Z63RXC43PT6QJCNSJQC", "current_trial": 59, "dateTime": 1511199979813, "trialdata": {"rt": -1000, "stimulus": "/static/audio/wordpool/FRECKLE.wav", "key_press": -1, "type": "PRES_AUD", "word": "freckle", "wordID": 601, "conditions": [18, 1200, "a", 18000], "trial": 1, "serialpos": 4, "trial_type": "single-audio", "trial_index": 59, "time_elapsed": 356323, "internal_node_id": "0.0-41.0"}}, {"uniqueid": "MTK0529:34X6J5FLPU5Z63RXC43PT6QJCNSJQC", "current_trial": 60, "dateTime": 1511199981821, "trialdata": {"rt": -1000, "stimulus": "/static/audio/wordpool/SIBLING.wav", "key_press": -1, "type": "PRES_AUD", "word": "sibling", "wordID": 1300, "conditions": [18, 1200, "a", 18000], "trial": 1, "serialpos": 5, "trial_type": "single-audio", "trial_index": 60, "time_elapsed": 358331, "internal_node_id": "0.0-42.0"}}, {"uniqueid": "MTK0529:34X6J5FLPU5Z63RXC43PT6QJCNSJQC", "current_trial": 61, "dateTime": 1511199984076, "trialdata": {"rt": -1000, "stimulus": "/static/audio/wordpool/RUST.wav", "key_press": -1, "type": "PRES_AUD", "word": "rust", "wordID": 1218, "conditions": [18, 1200, "a", 18000], "trial": 1, "serialpos": 6, "trial_type": "single-audio", "trial_index": 61, "time_elapsed": 360585, "internal_node_id": "0.0-43.0"}}, {"uniqueid": "MTK0529:34X6J5FLPU5Z63RXC43PT6QJCNSJQC", "current_trial": 62, "dateTime": 1511199986321, "trialdata": {"rt": -1000, "stimulus": "/static/audio/wordpool/UMPIRE.wav", "key_press": -1, "type": "PRES_AUD", "word": "umpire", "wordID": 1534, "conditions": [18, 1200, "a", 18000], "trial": 1, "serialpos": 7, "trial_type": "single-audio", "trial_index": 62, "time_elapsed": 362831, "internal_node_id": "0.0-44.0"}}, {"uniqueid": "MTK0529:34X6J5FLPU5Z63RXC43PT6QJCNSJQC", "current_trial": 63, "dateTime": 1511199988505, "trialdata": {"rt": -1000, "stimulus": "/static/audio/wordpool/PIANO.wav", "key_press": -1, "type": "PRES_AUD", "word": "piano", "wordID": 1056, "conditions": [18, 1200, "a", 18000], "trial": 1, "serialpos": 8, "trial_type": "single-audio", "trial_index": 63, "time_elapsed": 365015, "internal_node_id": "0.0-45.0"}}, {"uniqueid": "MTK0529:34X6J5FLPU5Z63RXC43PT6QJCNSJQC", "current_trial": 64, "dateTime": 1511199990602, "trialdata": {"rt": -1000, "stimulus": "/static/audio/wordpool/PLASTER.wav", "key_press": -1, "type": "PRES_AUD", "word": "plaster", "wordID": 1084, "conditions": [18, 1200, "a", 18000], "trial": 1, "serialpos": 9, "trial_type": "single-audio", "trial_index": 64, "time_elapsed": 367110, "internal_node_id": "0.0-46.0"}}, {"uniqueid": "MTK0529:34X6J5FLPU5Z63RXC43PT6QJCNSJQC", "current_trial": 65, "dateTime": 1511199992933, "trialdata": {"rt": -1000, "stimulus": "/static/audio/wordpool/POCKET.wav", "key_press": -1, "type": "PRES_AUD", "word": "pocket", "wordID": 1092, "conditions": [18, 1200, "a", 18000], "trial": 1, "serialpos": 10, "trial_type": "single-audio", "trial_index": 65, "time_elapsed": 369442, "internal_node_id": "0.0-47.0"}}, {"uniqueid": "MTK0529:34X6J5FLPU5Z63RXC43PT6QJCNSJQC", "current_trial": 66, "dateTime": 1511199995029, "trialdata": {"rt": -1000, "stimulus": "/static/audio/wordpool/LODGE.wav", "key_press": -1, "type": "PRES_AUD", "word": "lodge", "wordID": 838, "conditions": [18, 1200, "a", 18000], "trial": 1, "serialpos": 11, "trial_type": "single-audio", "trial_index": 66, "time_elapsed": 371539, "internal_node_id": "0.0-48.0"}}, {"uniqueid": "MTK0529:34X6J5FLPU5Z63RXC43PT6QJCNSJQC", "current_trial": 67, "dateTime": 1511199997044, "trialdata": {"rt": -1000, "stimulus": "/static/audio/wordpool/STOMACH.wav", "key_press": -1, "type": "PRES_AUD", "word": "stomach", "wordID": 1383, "conditions": [18, 1200, "a", 18000], "trial": 1, "serialpos": 12, "trial_type": "single-audio", "trial_index": 67, "time_elapsed": 373554, "internal_node_id": "0.0-49.0"}}, {"uniqueid": "MTK0529:34X6J5FLPU5Z63RXC43PT6QJCNSJQC", "current_trial": 68, "dateTime": 1511199999256, "trialdata": {"rt": -1000, "stimulus": "/static/audio/wordpool/RIFLE.wav", "key_press": -1, "type": "PRES_AUD", "word": "rifle", "wordID": 1191, "conditions": [18, 1200, "a", 18000], "trial": 1, "serialpos": 13, "trial_type": "single-audio", "trial_index": 68, "time_elapsed": 375759, "internal_node_id": "0.0-50.0"}}, {"uniqueid": "MTK0529:34X6J5FLPU5Z63RXC43PT6QJCNSJQC", "current_trial": 69, "dateTime": 1511200001260, "trialdata": {"rt": -1000, "stimulus": "/static/audio/wordpool/SOFTBALL.wav", "key_press": -1, "type": "PRES_AUD", "word": "softball", "wordID": 1342, "conditions": [18, 1200, "a", 18000], "trial": 1, "serialpos": 14, "trial_type": "single-audio", "trial_index": 69, "time_elapsed": 377770, "internal_node_id": "0.0-51.0"}}, {"uniqueid": "MTK0529:34X6J5FLPU5Z63RXC43PT6QJCNSJQC", "current_trial": 70, "dateTime": 1511200003325, "trialdata": {"rt": -1000, "stimulus": "/static/audio/wordpool/BRANDY.wav", "key_press": -1, "type": "PRES_AUD", "word": "brandy", "wordID": 168, "conditions": [18, 1200, "a", 18000], "trial": 1, "serialpos": 15, "trial_type": "single-audio", "trial_index": 70, "time_elapsed": 379835, "internal_node_id": "0.0-52.0"}}, {"uniqueid": "MTK0529:34X6J5FLPU5Z63RXC43PT6QJCNSJQC", "current_trial": 71, "dateTime": 1511200005614, "trialdata": {"rt": -1000, "stimulus": "/static/audio/wordpool/CRIB.wav", "key_press": -1, "type": "PRES_AUD", "word": "crib", "wordID": 406, "conditions": [18, 1200, "a", 18000], "trial": 1, "serialpos": 16, "trial_type": "single-audio", "trial_index": 71, "time_elapsed": 382123, "internal_node_id": "0.0-53.0"}}, {"uniqueid": "MTK0529:34X6J5FLPU5Z63RXC43PT6QJCNSJQC", "current_trial": 72, "dateTime": 1511200007771, "trialdata": {"rt": -1000, "stimulus": "/static/audio/wordpool/NAPKIN.wav", "key_press": -1, "type": "PRES_AUD", "word": "napkin", "wordID": 936, "conditions": [18, 1200, "a", 18000], "trial": 1, "serialpos": 17, "trial_type": "single-audio", "trial_index": 72, "time_elapsed": 384281, "internal_node_id": "0.0-54.0"}}, {"uniqueid": "MTK0529:34X6J5FLPU5Z63RXC43PT6QJCNSJQC", "current_trial": 73, "dateTime": 1511200009052, "trialdata": {"rt": -1, "stimulus": "", "key_press": -1, "type": "PRE_RECALL_DELAY", "trial_type": "single-stim", "trial_index": 73, "time_elapsed": 385562, "internal_node_id": "0.0-55.0-0.0"}}, {"uniqueid": "MTK0529:34X6J5FLPU5Z63RXC43PT6QJCNSJQC", "current_trial": 74, "dateTime": 1511200009555, "trialdata": {"rt": -1000, "stimulus": "/static/audio/400Hz.wav", "key_press": -1, "type": "PRE_RECALL_ALERT", "trial_type": "single-audio", "trial_index": 74, "time_elapsed": 386064, "internal_node_id": "0.0-56.0"}}, {"uniqueid": "MTK0529:34X6J5FLPU5Z63RXC43PT6QJCNSJQC", "current_trial": 75, "dateTime": 1511200069567, "trialdata": {"rt": [3457, 5775, 10633, 14841, 20719, 24984, 31404], "recwords": ["crib", "sibling", "softball", "umpire", "sock", "sibling", "pocket"], "type": "FREE_RECALL", "conditions": [18, 1200, "a", 18000], "trial": 1, "trial_type": "free-recall", "trial_index": 75, "time_elapsed": 446070, "internal_node_id": "0.0-57.0-0.0"}}, {"uniqueid": "MTK0529:34X6J5FLPU5Z63RXC43PT6QJCNSJQC", "current_trial": 76, "dateTime": 1511200073026, "trialdata": {"rt": 1446, "key_press": 32, "type": "INSTRUCTIONS", "trial_type": "text", "trial_index": 76, "time_elapsed": 449525, "internal_node_id": "0.0-58.0"}}, {"uniqueid": "MTK0529:34X6J5FLPU5Z63RXC43PT6QJCNSJQC", "current_trial": 77, "dateTime": 1511200086036, "trialdata": {"rt": [2002, 4140, 6645, 9157, 11140], "responses": ["9", "17", "15", "27", "13"], "num1": [4, 1, 6, 8, 2, 4], "num2": [4, 8, 3, 9, 4, 5], "num3": [1, 8, 6, 9, 7, 5], "type": "DISTRACTOR", "conditions": [24, 1600, "v", 12000], "trial": 2, "trial_type": "math-distractor", "trial_index": 77, "time_elapsed": 462546, "internal_node_id": "0.0-59.0"}}, {"uniqueid": "MTK0529:34X6J5FLPU5Z63RXC43PT6QJCNSJQC", "current_trial": 78, "dateTime": 1511200089040, "trialdata": {"rt": -1, "stimulus": "<p id=\"stim\">10</p>", "key_press": -1, "trial_type": "single-stim", "trial_index": 78, "time_elapsed": 465549, "internal_node_id": "0.0-60.0-0.0"}}, {"uniqueid": "MTK0529:34X6J5FLPU5Z63RXC43PT6QJCNSJQC", "current_trial": 79, "dateTime": 1511200090043, "trialdata": {"rt": -1, "stimulus": "<p id=\"stim\">9</p>", "key_press": -1, "trial_type": "single-stim", "trial_index": 79, "time_elapsed": 466553, "internal_node_id": "0.0-60.0-1.0"}}, {"uniqueid": "MTK0529:34X6J5FLPU5Z63RXC43PT6QJCNSJQC", "current_trial": 80, "dateTime": 1511200091045, "trialdata": {"rt": -1, "stimulus": "<p id=\"stim\">8</p>", "key_press": -1, "trial_type": "single-stim", "trial_index": 80, "time_elapsed": 467555, "internal_node_id": "0.0-60.0-2.0"}}, {"uniqueid": "MTK0529:34X6J5FLPU5Z63RXC43PT6QJCNSJQC", "current_trial": 81, "dateTime": 1511200092048, "trialdata": {"rt": -1, "stimulus": "<p id=\"stim\">7</p>", "key_press": -1, "trial_type": "single-stim", "trial_index": 81, "time_elapsed": 468558, "internal_node_id": "0.0-60.0-3.0"}}, {"uniqueid": "MTK0529:34X6J5FLPU5Z63RXC43PT6QJCNSJQC", "current_trial": 82, "dateTime": 1511200093051, "trialdata": {"rt": -1, "stimulus": "<p id=\"stim\">6</p>", "key_press": -1, "trial_type": "single-stim", "trial_index": 82, "time_elapsed": 469560, "internal_node_id": "0.0-60.0-4.0"}}, {"uniqueid": "MTK0529:34X6J5FLPU5Z63RXC43PT6QJCNSJQC", "current_trial": 83, "dateTime": 1511200094053, "trialdata": {"rt": -1, "stimulus": "<p id=\"stim\">5</p>", "key_press": -1, "trial_type": "single-stim", "trial_index": 83, "time_elapsed": 470563, "internal_node_id": "0.0-60.0-5.0"}}, {"uniqueid": "MTK0529:34X6J5FLPU5Z63RXC43PT6QJCNSJQC", "current_trial": 84, "dateTime": 1511200095056, "trialdata": {"rt": -1, "stimulus": "<p id=\"stim\">4</p>", "key_press": -1, "trial_type": "single-stim", "trial_index": 84, "time_elapsed": 471566, "internal_node_id": "0.0-60.0-6.0"}}, {"uniqueid": "MTK0529:34X6J5FLPU5Z63RXC43PT6QJCNSJQC", "current_trial": 85, "dateTime": 1511200096060, "trialdata": {"rt": -1, "stimulus": "<p id=\"stim\">3</p>", "key_press": -1, "trial_type": "single-stim", "trial_index": 85, "time_elapsed": 472570, "internal_node_id": "0.0-60.0-7.0"}}, {"uniqueid": "MTK0529:34X6J5FLPU5Z63RXC43PT6QJCNSJQC", "current_trial": 86, "dateTime": 1511200097062, "trialdata": {"rt": -1, "stimulus": "<p id=\"stim\">2</p>", "key_press": -1, "trial_type": "single-stim", "trial_index": 86, "time_elapsed": 473572, "internal_node_id": "0.0-60.0-8.0"}}, {"uniqueid": "MTK0529:34X6J5FLPU5Z63RXC43PT6QJCNSJQC", "current_trial": 87, "dateTime": 1511200098065, "trialdata": {"rt": -1, "stimulus": "<p id=\"stim\">1</p>", "key_press": -1, "trial_type": "single-stim", "trial_index": 87, "time_elapsed": 474574, "internal_node_id": "0.0-60.0-9.0"}}, {"uniqueid": "MTK0529:34X6J5FLPU5Z63RXC43PT6QJCNSJQC", "current_trial": 88, "dateTime": 1511200099567, "trialdata": {"rt": -1, "stimulus": "<p id=\"stim\">+</p>", "key_press": -1, "type": "FIXATION", "trial_type": "single-stim", "trial_index": 88, "time_elapsed": 476077, "internal_node_id": "0.0-61.0-0.0"}}, {"uniqueid": "MTK0529:34X6J5FLPU5Z63RXC43PT6QJCNSJQC", "current_trial": 89, "dateTime": 1511200101170, "trialdata": {"rt": -1, "stimulus": "<p id=\"stim\">SCALLOP</p>", "key_press": -1, "type": "PRES_VIS", "word": "scallop", "wordID": 1241, "conditions": [24, 1600, "v", 12000], "trial": 2, "serialpos": 0, "trial_type": "single-stim", "trial_index": 89, "time_elapsed": 477679, "internal_node_id": "0.0-62.0"}}, {"uniqueid": "MTK0529:34X6J5FLPU5Z63RXC43PT6QJCNSJQC", "current_trial": 90, "dateTime": 1511200103857, "trialdata": {"rt": -1, "stimulus": "<p id=\"stim\">MARKET</p>", "key_press": -1, "type": "PRES_VIS", "word": "market", "wordID": 870, "conditions": [24, 1600, "v", 12000], "trial": 2, "serialpos": 1, "trial_type": "single-stim", "trial_index": 90, "time_elapsed": 480367, "internal_node_id": "0.0-63.0"}}, {"uniqueid": "MTK0529:34X6J5FLPU5Z63RXC43PT6QJCNSJQC", "current_trial": 91, "dateTime": 1511200106296, "trialdata": {"rt": -1, "stimulus": "<p id=\"stim\">COUNTRY</p>", "key_press": -1, "type": "PRES_VIS", "word": "country", "wordID": 387, "conditions": [24, 1600, "v", 12000], "trial": 2, "serialpos": 2, "trial_type": "single-stim", "trial_index": 91, "time_elapsed": 482806, "internal_node_id": "0.0-64.0"}}, {"uniqueid": "MTK0529:34X6J5FLPU5Z63RXC43PT6QJCNSJQC", "current_trial": 92, "dateTime": 1511200109008, "trialdata": {"rt": -1, "stimulus": "<p id=\"stim\">EUROPE</p>", "key_press": -1, "type": "PRES_VIS", "word": "europe", "wordID": 540, "conditions": [24, 1600, "v", 12000], "trial": 2, "serialpos": 3, "trial_type": "single-stim", "trial_index": 92, "time_elapsed": 485518, "internal_node_id": "0.0-65.0"}}, {"uniqueid": "MTK0529:34X6J5FLPU5Z63RXC43PT6QJCNSJQC", "current_trial": 93, "dateTime": 1511200111474, "trialdata": {"rt": -1, "stimulus": "<p id=\"stim\">JAPAN</p>", "key_press": -1, "type": "PRES_VIS", "word": "japan", "wordID": 748, "conditions": [24, 1600, "v", 12000], "trial": 2, "serialpos": 4, "trial_type": "single-stim", "trial_index": 93, "time_elapsed": 487984, "internal_node_id": "0.0-66.0"}}, {"uniqueid": "MTK0529:34X6J5FLPU5Z63RXC43PT6QJCNSJQC", "current_trial": 94, "dateTime": 1511200114212, "trialdata": {"rt": -1, "stimulus": "<p id=\"stim\">SCARECROW</p>", "key_press": -1, "type": "PRES_VIS", "word": "scarecrow", "wordID": 1244, "conditions": [24, 1600, "v", 12000], "trial": 2, "serialpos": 5, "trial_type": "single-stim", "trial_index": 94, "time_elapsed": 490722, "internal_node_id": "0.0-67.0"}}, {"uniqueid": "MTK0529:34X6J5FLPU5Z63RXC43PT6QJCNSJQC", "current_trial": 95, "dateTime": 1511200116892, "trialdata": {"rt": -1, "stimulus": "<p id=\"stim\">MATTRESS</p>", "key_press": -1, "type": "PRES_VIS", "word": "mattress", "wordID": 878, "conditions": [24, 1600, "v", 12000], "trial": 2, "serialpos": 6, "trial_type": "single-stim", "trial_index": 95, "time_elapsed": 493402, "internal_node_id": "0.0-68.0"}}, {"uniqueid": "MTK0529:34X6J5FLPU5Z63RXC43PT6QJCNSJQC", "current_trial": 96, "dateTime": 1511200119408, "trialdata": {"rt": -1, "stimulus": "<p id=\"stim\">PIGEON</p>", "key_press": -1, "type": "PRES_VIS", "word": "pigeon", "wordID": 1064, "conditions": [24, 1600, "v", 12000], "trial": 2, "serialpos": 7, "trial_type": "single-stim", "trial_index": 96, "time_elapsed": 495918, "internal_node_id": "0.0-69.0"}}, {"uniqueid": "MTK0529:34X6J5FLPU5Z63RXC43PT6QJCNSJQC", "current_trial": 97, "dateTime": 1511200121992, "trialdata": {"rt": -1, "stimulus": "<p id=\"stim\">SHELF</p>", "key_press": -1, "type": "PRES_VIS", "word": "shelf", "wordID": 1279, "conditions": [24, 1600, "v", 12000], "trial": 2, "serialpos": 8, "trial_type": "single-stim", "trial_index": 97, "time_elapsed": 498502, "internal_node_id": "0.0-70.0"}}, {"uniqueid": "MTK0529:34X6J5FLPU5Z63RXC43PT6QJCNSJQC", "current_trial": 98, "dateTime": 1511200124538, "trialdata": {"rt": -1, "stimulus": "<p id=\"stim\">CRAB</p>", "key_press": -1, "type": "PRES_VIS", "word": "crab", "wordID": 396, "conditions": [24, 1600, "v", 12000], "trial": 2, "serialpos": 9, "trial_type": "single-stim", "trial_index": 98, "time_elapsed": 501048, "internal_node_id": "0.0-71.0"}}, {"uniqueid": "MTK0529:34X6J5FLPU5Z63RXC43PT6QJCNSJQC", "current_trial": 99, "dateTime": 1511200127195, "trialdata": {"rt": -1, "stimulus": "<p id=\"stim\">FARMER</p>", "key_press": -1, "type": "PRES_VIS", "word": "farmer", "wordID": 552, "conditions": [24, 1600, "v", 12000], "trial": 2, "serialpos": 10, "trial_type": "single-stim", "trial_index": 99, "time_elapsed": 503705, "internal_node_id": "0.0-72.0"}}, {"uniqueid": "MTK0529:34X6J5FLPU5Z63RXC43PT6QJCNSJQC", "current_trial": 100, "dateTime": 1511200129817, "trialdata": {"rt": -1, "stimulus": "<p id=\"stim\">SHOULDER</p>", "key_press": -1, "type": "PRES_VIS", "word": "shoulder", "wordID": 1293, "conditions": [24, 1600, "v", 12000], "trial": 2, "serialpos": 11, "trial_type": "single-stim", "trial_index": 100, "time_elapsed": 506327, "internal_node_id": "0.0-73.0"}}, {"uniqueid": "MTK0529:34X6J5FLPU5Z63RXC43PT6QJCNSJQC", "current_trial": 101, "dateTime": 1511200132334, "trialdata": {"rt": -1, "stimulus": "<p id=\"stim\">VALLEY</p>", "key_press": -1, "type": "PRES_VIS", "word": "valley", "wordID": 1544, "conditions": [24, 1600, "v", 12000], "trial": 2, "serialpos": 12, "trial_type": "single-stim", "trial_index": 101, "time_elapsed": 508844, "internal_node_id": "0.0-74.0"}}, {"uniqueid": "MTK0529:34X6J5FLPU5Z63RXC43PT6QJCNSJQC", "current_trial": 102, "dateTime": 1511200134878, "trialdata": {"rt": -1, "stimulus": "<p id=\"stim\">CANYON</p>", "key_press": -1, "type": "PRES_VIS", "word": "canyon", "wordID": 234, "conditions": [24, 1600, "v", 12000], "trial": 2, "serialpos": 13, "trial_type": "single-stim", "trial_index": 102, "time_elapsed": 511388, "internal_node_id": "0.0-75.0"}}, {"uniqueid": "MTK0529:34X6J5FLPU5Z63RXC43PT6QJCNSJQC", "current_trial": 103, "dateTime": 1511200137679, "trialdata": {"rt": -1, "stimulus": "<p id=\"stim\">SUSPECT</p>", "key_press": -1, "type": "PRES_VIS", "word": "suspect", "wordID": 1414, "conditions": [24, 1600, "v", 12000], "trial": 2, "serialpos": 14, "trial_type": "single-stim", "trial_index": 103, "time_elapsed": 514188, "internal_node_id": "0.0-76.0"}}, {"uniqueid": "MTK0529:34X6J5FLPU5Z63RXC43PT6QJCNSJQC", "current_trial": 104, "dateTime": 1511200140345, "trialdata": {"rt": -1, "stimulus": "<p id=\"stim\">SPACE</p>", "key_press": -1, "type": "PRES_VIS", "word": "space", "wordID": 1344, "conditions": [24, 1600, "v", 12000], "trial": 2, "serialpos": 15, "trial_type": "single-stim", "trial_index": 104, "time_elapsed": 516854, "internal_node_id": "0.0-77.0"}}, {"uniqueid": "MTK0529:34X6J5FLPU5Z63RXC43PT6QJCNSJQC", "current_trial": 105, "dateTime": 1511200143005, "trialdata": {"rt": -1, "stimulus": "<p id=\"stim\">ROCKET</p>", "key_press": -1, "type": "PRES_VIS", "word": "rocket", "wordID": 1201, "conditions": [24, 1600, "v", 12000], "trial": 2, "serialpos": 16, "trial_type": "single-stim", "trial_index": 105, "time_elapsed": 519515, "internal_node_id": "0.0-78.0"}}, {"uniqueid": "MTK0529:34X6J5FLPU5Z63RXC43PT6QJCNSJQC", "current_trial": 106, "dateTime": 1511200145787, "trialdata": {"rt": -1, "stimulus": "<p id=\"stim\">CHURCH</p>", "key_press": -1, "type": "PRES_VIS", "word": "church", "wordID": 306, "conditions": [24, 1600, "v", 12000], "trial": 2, "serialpos": 17, "trial_type": "single-stim", "trial_index": 106, "time_elapsed": 522297, "internal_node_id": "0.0-79.0"}}, {"uniqueid": "MTK0529:34X6J5FLPU5Z63RXC43PT6QJCNSJQC", "current_trial": 107, "dateTime": 1511200148415, "trialdata": {"rt": -1, "stimulus": "<p id=\"stim\">ONION</p>", "key_press": -1, "type": "PRES_VIS", "word": "onion", "wordID": 976, "conditions": [24, 1600, "v", 12000], "trial": 2, "serialpos": 18, "trial_type": "single-stim", "trial_index": 107, "time_elapsed": 524925, "internal_node_id": "0.0-80.0"}}, {"uniqueid": "MTK0529:34X6J5FLPU5Z63RXC43PT6QJCNSJQC", "current_trial": 108, "dateTime": 1511200151059, "trialdata": {"rt": -1, "stimulus": "<p id=\"stim\">PASSAGE</p>", "key_press": -1, "type": "PRES_VIS", "word": "passage", "wordID": 1018, "conditions": [24, 1600, "v", 12000], "trial": 2, "serialpos": 19, "trial_type": "single-stim", "trial_index": 108, "time_elapsed": 527569, "internal_node_id": "0.0-81.0"}}, {"uniqueid": "MTK0529:34X6J5FLPU5Z63RXC43PT6QJCNSJQC", "current_trial": 109, "dateTime": 1511200153665, "trialdata": {"rt": -1, "stimulus": "<p id=\"stim\">SCARF</p>", "key_press": -1, "type": "PRES_VIS", "word": "scarf", "wordID": 1245, "conditions": [24, 1600, "v", 12000], "trial": 2, "serialpos": 20, "trial_type": "single-stim", "trial_index": 109, "time_elapsed": 530175, "internal_node_id": "0.0-82.0"}}, {"uniqueid": "MTK0529:34X6J5FLPU5Z63RXC43PT6QJCNSJQC", "current_trial": 110, "dateTime": 1511200156358, "trialdata": {"rt": -1, "stimulus": "<p id=\"stim\">CHAPEL</p>", "key_press": -1, "type": "PRES_VIS", "word": "chapel", "wordID": 279, "conditions": [24, 1600, "v", 12000], "trial": 2, "serialpos": 21, "trial_type": "single-stim", "trial_index": 110, "time_elapsed": 532868, "internal_node_id": "0.0-83.0"}}, {"uniqueid": "MTK0529:34X6J5FLPU5Z63RXC43PT6QJCNSJQC", "current_trial": 111, "dateTime": 1511200158803, "trialdata": {"rt": -1, "stimulus": "<p id=\"stim\">CHEST</p>", "key_press": -1, "type": "PRES_VIS", "word": "chest", "wordID": 294, "conditions": [24, 1600, "v", 12000], "trial": 2, "serialpos": 22, "trial_type": "single-stim", "trial_index": 111, "time_elapsed": 535312, "internal_node_id": "0.0-84.0"}}, {"uniqueid": "MTK0529:34X6J5FLPU5Z63RXC43PT6QJCNSJQC", "current_trial": 112, "dateTime": 1511200161344, "trialdata": {"rt": -1, "stimulus": "<p id=\"stim\">HIKER</p>", "key_press": -1, "type": "PRES_VIS", "word": "hiker", "wordID": 707, "conditions": [24, 1600, "v", 12000], "trial": 2, "serialpos": 23, "trial_type": "single-stim", "trial_index": 112, "time_elapsed": 537854, "internal_node_id": "0.0-85.0"}}, {"uniqueid": "MTK0529:34X6J5FLPU5Z63RXC43PT6QJCNSJQC", "current_trial": 113, "dateTime": 1511200163783, "trialdata": {"rt": -1, "stimulus": "", "key_press": -1, "type": "PRE_RECALL_DELAY", "trial_type": "single-stim", "trial_index": 113, "time_elapsed": 540292, "internal_node_id": "0.0-86.0-0.0"}}, {"uniqueid": "MTK0529:34X6J5FLPU5Z63RXC43PT6QJCNSJQC", "current_trial": 114, "dateTime": 1511200164285, "trialdata": {"rt": -1000, "stimulus": "/static/audio/400Hz.wav", "key_press": -1, "type": "PRE_RECALL_ALERT", "trial_type": "single-audio", "trial_index": 114, "time_elapsed": 540795, "internal_node_id": "0.0-87.0"}}, {"uniqueid": "MTK0529:34X6J5FLPU5Z63RXC43PT6QJCNSJQC", "current_trial": 115, "dateTime": 1511200224313, "trialdata": {"rt": [4076, 6080, 8636, 10214, 13181, 15388, 17195, 19756, 23042, 27386, 30291, 32888], "recwords": ["scarecrow", "farmer", "market", "valley", "pigeon", "country", "europe", "japan", "church", "hiking", "valley", "pigeon"], "type": "FREE_RECALL", "conditions": [24, 1600, "v", 12000], "trial": 2, "trial_type": "free-recall", "trial_index": 115, "time_elapsed": 600816, "internal_node_id": "0.0-88.0-0.0"}}, {"uniqueid": "MTK0529:34X6J5FLPU5Z63RXC43PT6QJCNSJQC", "current_trial": 116, "dateTime": 1511200227501, "trialdata": {"rt": 1182, "key_press": 32, "type": "INSTRUCTIONS", "trial_type": "text", "trial_index": 116, "time_elapsed": 604010, "internal_node_id": "0.0-89.0"}}, {"uniqueid": "MTK0529:34X6J5FLPU5Z63RXC43PT6QJCNSJQC", "current_trial": 117, "dateTime": 1511200253508, "trialdata": {"rt": [2330, 4361, 6858, 9055, 11137, 12769, 14408, 16689, 20215, 21752, 23525], "responses": ["11", "16", "16", "8", "7", "11", "5", "17", "25", "12", "12"], "num1": [5, 8, 8, 1, 3, 2, 1, 6, 8, 5, 2, 8], "num2": [3, 2, 3, 2, 2, 2, 2, 5, 8, 2, 3, 2], "num3": [3, 6, 5, 5, 2, 7, 2, 6, 9, 5, 7, 8], "type": "DISTRACTOR", "conditions": [24, 1600, "a", 24000], "trial": 3, "trial_type": "math-distractor", "trial_index": 117, "time_elapsed": 630017, "internal_node_id": "0.0-90.0"}}, {"uniqueid": "MTK0529:34X6J5FLPU5Z63RXC43PT6QJCNSJQC", "current_trial": 118, "dateTime": 1511200256511, "trialdata": {"rt": -1, "stimulus": "<p id=\"stim\">10</p>", "key_press": -1, "trial_type": "single-stim", "trial_index": 118, "time_elapsed": 633021, "internal_node_id": "0.0-91.0-0.0"}}, {"uniqueid": "MTK0529:34X6J5FLPU5Z63RXC43PT6QJCNSJQC", "current_trial": 119, "dateTime": 1511200257514, "trialdata": {"rt": -1, "stimulus": "<p id=\"stim\">9</p>", "key_press": -1, "trial_type": "single-stim", "trial_index": 119, "time_elapsed": 634023, "internal_node_id": "0.0-91.0-1.0"}}, {"uniqueid": "MTK0529:34X6J5FLPU5Z63RXC43PT6QJCNSJQC", "current_trial": 120, "dateTime": 1511200258515, "trialdata": {"rt": -1, "stimulus": "<p id=\"stim\">8</p>", "key_press": -1, "trial_type": "single-stim", "trial_index": 120, "time_elapsed": 635025, "internal_node_id": "0.0-91.0-2.0"}}, {"uniqueid": "MTK0529:34X6J5FLPU5Z63RXC43PT6QJCNSJQC", "current_trial": 121, "dateTime": 1511200259517, "trialdata": {"rt": -1, "stimulus": "<p id=\"stim\">7</p>", "key_press": -1, "trial_type": "single-stim", "trial_index": 121, "time_elapsed": 636027, "internal_node_id": "0.0-91.0-3.0"}}, {"uniqueid": "MTK0529:34X6J5FLPU5Z63RXC43PT6QJCNSJQC", "current_trial": 122, "dateTime": 1511200260519, "trialdata": {"rt": -1, "stimulus": "<p id=\"stim\">6</p>", "key_press": -1, "trial_type": "single-stim", "trial_index": 122, "time_elapsed": 637029, "internal_node_id": "0.0-91.0-4.0"}}, {"uniqueid": "MTK0529:34X6J5FLPU5Z63RXC43PT6QJCNSJQC", "current_trial": 123, "dateTime": 1511200261520, "trialdata": {"rt": -1, "stimulus": "<p id=\"stim\">5</p>", "key_press": -1, "trial_type": "single-stim", "trial_index": 123, "time_elapsed": 638030, "internal_node_id": "0.0-91.0-5.0"}}, {"uniqueid": "MTK0529:34X6J5FLPU5Z63RXC43PT6QJCNSJQC", "current_trial": 124, "dateTime": 1511200262523, "trialdata": {"rt": -1, "stimulus": "<p id=\"stim\">4</p>", "key_press": -1, "trial_type": "single-stim", "trial_index": 124, "time_elapsed": 639032, "internal_node_id": "0.0-91.0-6.0"}}, {"uniqueid": "MTK0529:34X6J5FLPU5Z63RXC43PT6QJCNSJQC", "current_trial": 125, "dateTime": 1511200263527, "trialdata": {"rt": -1, "stimulus": "<p id=\"stim\">3</p>", "key_press": -1, "trial_type": "single-stim", "trial_index": 125, "time_elapsed": 640036, "internal_node_id": "0.0-91.0-7.0"}}, {"uniqueid": "MTK0529:34X6J5FLPU5Z63RXC43PT6QJCNSJQC", "current_trial": 126, "dateTime": 1511200264529, "trialdata": {"rt": -1, "stimulus": "<p id=\"stim\">2</p>", "key_press": -1, "trial_type": "single-stim", "trial_index": 126, "time_elapsed": 641039, "internal_node_id": "0.0-91.0-8.0"}}, {"uniqueid": "MTK0529:34X6J5FLPU5Z63RXC43PT6QJCNSJQC", "current_trial": 127, "dateTime": 1511200265532, "trialdata": {"rt": -1, "stimulus": "<p id=\"stim\">1</p>", "key_press": -1, "trial_type": "single-stim", "trial_index": 127, "time_elapsed": 642041, "internal_node_id": "0.0-91.0-9.0"}}, {"uniqueid": "MTK0529:34X6J5FLPU5Z63RXC43PT6QJCNSJQC", "current_trial": 128, "dateTime": 1511200267034, "trialdata": {"rt": -1, "stimulus": "<p id=\"stim\">+</p>", "key_press": -1, "type": "FIXATION", "trial_type": "single-stim", "trial_index": 128, "time_elapsed": 643544, "internal_node_id": "0.0-92.0-0.0"}}, {"uniqueid": "MTK0529:34X6J5FLPU5Z63RXC43PT6QJCNSJQC", "current_trial": 129, "dateTime": 1511200269498, "trialdata": {"rt": -1000, "stimulus": "/static/audio/wordpool/YACHT.wav", "key_press": -1, "type": "PRES_AUD", "word": "yacht", "wordID": 1628, "conditions": [24, 1600, "a", 24000], "trial": 3, "serialpos": 0, "trial_type": "single-audio", "trial_index": 129, "time_elapsed": 646008, "internal_node_id": "0.0-93.0"}}, {"uniqueid": "MTK0529:34X6J5FLPU5Z63RXC43PT6QJCNSJQC", "current_trial": 130, "dateTime": 1511200271977, "trialdata": {"rt": -1000, "stimulus": "/static/audio/wordpool/CREATURE.wav", "key_press": -1, "type": "PRES_AUD", "word": "creature", "wordID": 402, "conditions": [24, 1600, "a", 24000], "trial": 3, "serialpos": 1, "trial_type": "single-audio", "trial_index": 130, "time_elapsed": 648487, "internal_node_id": "0.0-94.0"}}, {"uniqueid": "MTK0529:34X6J5FLPU5Z63RXC43PT6QJCNSJQC", "current_trial": 131, "dateTime": 1511200274438, "trialdata": {"rt": -1000, "stimulus": "/static/audio/wordpool/SPIDER.wav", "key_press": -1, "type": "PRES_AUD", "word": "spider", "wordID": 1350, "conditions": [24, 1600, "a", 24000], "trial": 3, "serialpos": 2, "trial_type": "single-audio", "trial_index": 131, "time_elapsed": 650947, "internal_node_id": "0.0-95.0"}}, {"uniqueid": "MTK0529:34X6J5FLPU5Z63RXC43PT6QJCNSJQC", "current_trial": 132, "dateTime": 1511200277061, "trialdata": {"rt": -1000, "stimulus": "/static/audio/wordpool/REPORT.wav", "key_press": -1, "type": "PRES_AUD", "word": "report", "wordID": 1183, "conditions": [24, 1600, "a", 24000], "trial": 3, "serialpos": 3, "trial_type": "single-audio", "trial_index": 132, "time_elapsed": 653571, "internal_node_id": "0.0-96.0"}}, {"uniqueid": "MTK0529:34X6J5FLPU5Z63RXC43PT6QJCNSJQC", "current_trial": 133, "dateTime": 1511200279851, "trialdata": {"rt": -1000, "stimulus": "/static/audio/wordpool/SODA.wav", "key_press": -1, "type": "PRES_AUD", "word": "soda", "wordID": 1340, "conditions": [24, 1600, "a", 24000], "trial": 3, "serialpos": 4, "trial_type": "single-audio", "trial_index": 133, "time_elapsed": 656361, "internal_node_id": "0.0-97.0"}}, {"uniqueid": "MTK0529:34X6J5FLPU5Z63RXC43PT6QJCNSJQC", "current_trial": 134, "dateTime": 1511200282559, "trialdata": {"rt": -1000, "stimulus": "/static/audio/wordpool/FOREHEAD.wav", "key_press": -1, "type": "PRES_AUD", "word": "forehead", "wordID": 591, "conditions": [24, 1600, "a", 24000], "trial": 3, "serialpos": 5, "trial_type": "single-audio", "trial_index": 134, "time_elapsed": 659068, "internal_node_id": "0.0-98.0"}}, {"uniqueid": "MTK0529:34X6J5FLPU5Z63RXC43PT6QJCNSJQC", "current_trial": 135, "dateTime": 1511200285341, "trialdata": {"rt": -1000, "stimulus": "/static/audio/wordpool/KEEPER.wav", "key_press": -1, "type": "PRES_AUD", "word": "keeper", "wordID": 768, "conditions": [24, 1600, "a", 24000], "trial": 3, "serialpos": 6, "trial_type": "single-audio", "trial_index": 135, "time_elapsed": 661851, "internal_node_id": "0.0-99.0"}}, {"uniqueid": "MTK0529:34X6J5FLPU5Z63RXC43PT6QJCNSJQC", "current_trial": 136, "dateTime": 1511200287904, "trialdata": {"rt": -1000, "stimulus": "/static/audio/wordpool/SCISSORS.wav", "key_press": -1, "type": "PRES_AUD", "word": "scissors", "wordID": 1249, "conditions": [24, 1600, "a", 24000], "trial": 3, "serialpos": 7, "trial_type": "single-audio", "trial_index": 136, "time_elapsed": 664414, "internal_node_id": "0.0-100.0"}}, {"uniqueid": "MTK0529:34X6J5FLPU5Z63RXC43PT6QJCNSJQC", "current_trial": 137, "dateTime": 1511200290525, "trialdata": {"rt": -1000, "stimulus": "/static/audio/wordpool/LADY.wav", "key_press": -1, "type": "PRES_AUD", "word": "lady", "wordID": 793, "conditions": [24, 1600, "a", 24000], "trial": 3, "serialpos": 8, "trial_type": "single-audio", "trial_index": 137, "time_elapsed": 667035, "internal_node_id": "0.0-101.0"}}, {"uniqueid": "MTK0529:34X6J5FLPU5Z63RXC43PT6QJCNSJQC", "current_trial": 138, "dateTime": 1511200293090, "trialdata": {"rt": -1000, "stimulus": "/static/audio/wordpool/HERO.wav", "key_press": -1, "type": "PRES_AUD", "word": "hero", "wordID": 705, "conditions": [24, 1600, "a", 24000], "trial": 3, "serialpos": 9, "trial_type": "single-audio", "trial_index": 138, "time_elapsed": 669600, "internal_node_id": "0.0-102.0"}}, {"uniqueid": "MTK0529:34X6J5FLPU5Z63RXC43PT6QJCNSJQC", "current_trial": 139, "dateTime": 1511200295850, "trialdata": {"rt": -1000, "stimulus": "/static/audio/wordpool/SURVEY.wav", "key_press": -1, "type": "PRES_AUD", "word": "survey", "wordID": 1413, "conditions": [24, 1600, "a", 24000], "trial": 3, "serialpos": 10, "trial_type": "single-audio", "trial_index": 139, "time_elapsed": 672360, "internal_node_id": "0.0-103.0"}}, {"uniqueid": "MTK0529:34X6J5FLPU5Z63RXC43PT6QJCNSJQC", "current_trial": 140, "dateTime": 1511200298313, "trialdata": {"rt": -1000, "stimulus": "/static/audio/wordpool/SILK.wav", "key_press": -1, "type": "PRES_AUD", "word": "silk", "wordID": 1306, "conditions": [24, 1600, "a", 24000], "trial": 3, "serialpos": 11, "trial_type": "single-audio", "trial_index": 140, "time_elapsed": 674823, "internal_node_id": "0.0-104.0"}}, {"uniqueid": "MTK0529:34X6J5FLPU5Z63RXC43PT6QJCNSJQC", "current_trial": 141, "dateTime": 1511200301089, "trialdata": {"rt": -1000, "stimulus": "/static/audio/wordpool/JURY.wav", "key_press": -1, "type": "PRES_AUD", "word": "jury", "wordID": 765, "conditions": [24, 1600, "a", 24000], "trial": 3, "serialpos": 12, "trial_type": "single-audio", "trial_index": 141, "time_elapsed": 677599, "internal_node_id": "0.0-105.0"}}, {"uniqueid": "MTK0529:34X6J5FLPU5Z63RXC43PT6QJCNSJQC", "current_trial": 142, "dateTime": 1511200303597, "trialdata": {"rt": -1000, "stimulus": "/static/audio/wordpool/APPLE.wav", "key_press": -1, "type": "PRES_AUD", "word": "apple", "wordID": 32, "conditions": [24, 1600, "a", 24000], "trial": 3, "serialpos": 13, "trial_type": "single-audio", "trial_index": 142, "time_elapsed": 680106, "internal_node_id": "0.0-106.0"}}, {"uniqueid": "MTK0529:34X6J5FLPU5Z63RXC43PT6QJCNSJQC", "current_trial": 143, "dateTime": 1511200306366, "trialdata": {"rt": -1000, "stimulus": "/static/audio/wordpool/PEACH.wav", "key_press": -1, "type": "PRES_AUD", "word": "peach", "wordID": 1030, "conditions": [24, 1600, "a", 24000], "trial": 3, "serialpos": 14, "trial_type": "single-audio", "trial_index": 143, "time_elapsed": 682876, "internal_node_id": "0.0-107.0"}}, {"uniqueid": "MTK0529:34X6J5FLPU5Z63RXC43PT6QJCNSJQC", "current_trial": 144, "dateTime": 1511200308785, "trialdata": {"rt": -1000, "stimulus": "/static/audio/wordpool/LUGGAGE.wav", "key_press": -1, "type": "PRES_AUD", "word": "luggage", "wordID": 846, "conditions": [24, 1600, "a", 24000], "trial": 3, "serialpos": 15, "trial_type": "single-audio", "trial_index": 144, "time_elapsed": 685294, "internal_node_id": "0.0-108.0"}}, {"uniqueid": "MTK0529:34X6J5FLPU5Z63RXC43PT6QJCNSJQC", "current_trial": 145, "dateTime": 1511200311585, "trialdata": {"rt": -1000, "stimulus": "/static/audio/wordpool/JELLY.wav", "key_press": -1, "type": "PRES_AUD", "word": "jelly", "wordID": 754, "conditions": [24, 1600, "a", 24000], "trial": 3, "serialpos": 16, "trial_type": "single-audio", "trial_index": 145, "time_elapsed": 688094, "internal_node_id": "0.0-109.0"}}, {"uniqueid": "MTK0529:34X6J5FLPU5Z63RXC43PT6QJCNSJQC", "current_trial": 146, "dateTime": 1511200314179, "trialdata": {"rt": -1000, "stimulus": "/static/audio/wordpool/MISTER.wav", "key_press": -1, "type": "PRES_AUD", "word": "mister", "wordID": 900, "conditions": [24, 1600, "a", 24000], "trial": 3, "serialpos": 17, "trial_type": "single-audio", "trial_index": 146, "time_elapsed": 690689, "internal_node_id": "0.0-110.0"}}, {"uniqueid": "MTK0529:34X6J5FLPU5Z63RXC43PT6QJCNSJQC", "current_trial": 147, "dateTime": 1511200316688, "trialdata": {"rt": -1000, "stimulus": "/static/audio/wordpool/GLOVE.wav", "key_press": -1, "type": "PRES_AUD", "word": "glove", "wordID": 641, "conditions": [24, 1600, "a", 24000], "trial": 3, "serialpos": 18, "trial_type": "single-audio", "trial_index": 147, "time_elapsed": 693198, "internal_node_id": "0.0-111.0"}}, {"uniqueid": "MTK0529:34X6J5FLPU5Z63RXC43PT6QJCNSJQC", "current_trial": 148, "dateTime": 1511200319311, "trialdata": {"rt": -1000, "stimulus": "/static/audio/wordpool/ACTRESS.wav", "key_press": -1, "type": "PRES_AUD", "word": "actress", "wordID": 5, "conditions": [24, 1600, "a", 24000], "trial": 3, "serialpos": 19, "trial_type": "single-audio", "trial_index": 148, "time_elapsed": 695821, "internal_node_id": "0.0-112.0"}}, {"uniqueid": "MTK0529:34X6J5FLPU5Z63RXC43PT6QJCNSJQC", "current_trial": 149, "dateTime": 1511200322111, "trialdata": {"rt": -1000, "stimulus": "/static/audio/wordpool/FRIEND.wav", "key_press": -1, "type": "PRES_AUD", "word": "friend", "wordID": 605, "conditions": [24, 1600, "a", 24000], "trial": 3, "serialpos": 20, "trial_type": "single-audio", "trial_index": 149, "time_elapsed": 698621, "internal_node_id": "0.0-113.0"}}, {"uniqueid": "MTK0529:34X6J5FLPU5Z63RXC43PT6QJCNSJQC", "current_trial": 150, "dateTime": 1511200324657, "trialdata": {"rt": -1000, "stimulus": "/static/audio/wordpool/JELLO.wav", "key_press": -1, "type": "PRES_AUD", "word": "jello", "wordID": 753, "conditions": [24, 1600, "a", 24000], "trial": 3, "serialpos": 21, "trial_type": "single-audio", "trial_index": 150, "time_elapsed": 701164, "internal_node_id": "0.0-114.0"}}, {"uniqueid": "MTK0529:34X6J5FLPU5Z63RXC43PT6QJCNSJQC", "current_trial": 151, "dateTime": 1511200327112, "trialdata": {"rt": -1000, "stimulus": "/static/audio/wordpool/FIREPLACE.wav", "key_press": -1, "type": "PRES_AUD", "word": "fireplace", "wordID": 569, "conditions": [24, 1600, "a", 24000], "trial": 3, "serialpos": 22, "trial_type": "single-audio", "trial_index": 151, "time_elapsed": 703622, "internal_node_id": "0.0-115.0"}}, {"uniqueid": "MTK0529:34X6J5FLPU5Z63RXC43PT6QJCNSJQC", "current_trial": 152, "dateTime": 1511200329695, "trialdata": {"rt": -1000, "stimulus": "/static/audio/wordpool/SKIRT.wav", "key_press": -1, "type": "PRES_AUD", "word": "skirt", "wordID": 1318, "conditions": [24, 1600, "a", 24000], "trial": 3, "serialpos": 23, "trial_type": "single-audio", "trial_index": 152, "time_elapsed": 706205, "internal_node_id": "0.0-116.0"}}, {"uniqueid": "MTK0529:34X6J5FLPU5Z63RXC43PT6QJCNSJQC", "current_trial": 153, "dateTime": 1511200331046, "trialdata": {"rt": -1, "stimulus": "", "key_press": -1, "type": "PRE_RECALL_DELAY", "trial_type": "single-stim", "trial_index": 153, "time_elapsed": 707556, "internal_node_id": "0.0-117.0-0.0"}}, {"uniqueid": "MTK0529:34X6J5FLPU5Z63RXC43PT6QJCNSJQC", "current_trial": 154, "dateTime": 1511200331548, "trialdata": {"rt": -1000, "stimulus": "/static/audio/400Hz.wav", "key_press": -1, "type": "PRE_RECALL_ALERT", "trial_type": "single-audio", "trial_index": 154, "time_elapsed": 708058, "internal_node_id": "0.0-118.0"}}, {"uniqueid": "MTK0529:34X6J5FLPU5Z63RXC43PT6QJCNSJQC", "current_trial": 155, "dateTime": 1511200391557, "trialdata": {"rt": [4064, 6940, 8647, 10928, 20551, 22213, 27968, 32790, 46083, 59349], "recwords": ["fireplace", "shirt", "silk", "apple", "scarf", "glove", "mister", "yellow", "creature", "yacht"], "type": "FREE_RECALL", "conditions": [24, 1600, "a", 24000], "trial": 3, "trial_type": "free-recall", "trial_index": 155, "time_elapsed": 768062, "internal_node_id": "0.0-119.0-0.0"}}, {"uniqueid": "MTK0529:34X6J5FLPU5Z63RXC43PT6QJCNSJQC", "current_trial": 156, "dateTime": 1511200394869, "trialdata": {"rt": 1309, "key_press": 32, "type": "INSTRUCTIONS", "trial_type": "text", "trial_index": 156, "time_elapsed": 771379, "internal_node_id": "0.0-120.0"}}, {"uniqueid": "MTK0529:34X6J5FLPU5Z63RXC43PT6QJCNSJQC", "current_trial": 157, "dateTime": 1511200408876, "trialdata": {"rt": [3919, 6315, 7932, 10718], "responses": ["14", "19", "11", "21"], "num1": [4, 8, 8, 9, 6], "num2": [2, 7, 1, 6, 5], "num3": [8, 4, 2, 7, 5], "type": "DISTRACTOR", "conditions": [24, 800, "v", 12000], "trial": 4, "trial_type": "math-distractor", "trial_index": 157, "time_elapsed": 785385, "internal_node_id": "0.0-121.0"}}, {"uniqueid": "MTK0529:34X6J5FLPU5Z63RXC43PT6QJCNSJQC", "current_trial": 158, "dateTime": 1511200411879, "trialdata": {"rt": -1, "stimulus": "<p id=\"stim\">10</p>", "key_press": -1, "trial_type": "single-stim", "trial_index": 158, "time_elapsed": 788389, "internal_node_id": "0.0-122.0-0.0"}}, {"uniqueid": "MTK0529:34X6J5FLPU5Z63RXC43PT6QJCNSJQC", "current_trial": 159, "dateTime": 1511200412880, "trialdata": {"rt": -1, "stimulus": "<p id=\"stim\">9</p>", "key_press": -1, "trial_type": "single-stim", "trial_index": 159, "time_elapsed": 789390, "internal_node_id": "0.0-122.0-1.0"}}, {"uniqueid": "MTK0529:34X6J5FLPU5Z63RXC43PT6QJCNSJQC", "current_trial": 160, "dateTime": 1511200413883, "trialdata": {"rt": -1, "stimulus": "<p id=\"stim\">8</p>", "key_press": -1, "trial_type": "single-stim", "trial_index": 160, "time_elapsed": 790393, "internal_node_id": "0.0-122.0-2.0"}}, {"uniqueid": "MTK0529:34X6J5FLPU5Z63RXC43PT6QJCNSJQC", "current_trial": 161, "dateTime": 1511200414885, "trialdata": {"rt": -1, "stimulus": "<p id=\"stim\">7</p>", "key_press": -1, "trial_type": "single-stim", "trial_index": 161, "time_elapsed": 791395, "internal_node_id": "0.0-122.0-3.0"}}, {"uniqueid": "MTK0529:34X6J5FLPU5Z63RXC43PT6QJCNSJQC", "current_trial": 162, "dateTime": 1511200415887, "trialdata": {"rt": -1, "stimulus": "<p id=\"stim\">6</p>", "key_press": -1, "trial_type": "single-stim", "trial_index": 162, "time_elapsed": 792397, "internal_node_id": "0.0-122.0-4.0"}}, {"uniqueid": "MTK0529:34X6J5FLPU5Z63RXC43PT6QJCNSJQC", "current_trial": 163, "dateTime": 1511200416888, "trialdata": {"rt": -1, "stimulus": "<p id=\"stim\">5</p>", "key_press": -1, "trial_type": "single-stim", "trial_index": 163, "time_elapsed": 793398, "internal_node_id": "0.0-122.0-5.0"}}, {"uniqueid": "MTK0529:34X6J5FLPU5Z63RXC43PT6QJCNSJQC", "current_trial": 164, "dateTime": 1511200417891, "trialdata": {"rt": -1, "stimulus": "<p id=\"stim\">4</p>", "key_press": -1, "trial_type": "single-stim", "trial_index": 164, "time_elapsed": 794401, "internal_node_id": "0.0-122.0-6.0"}}, {"uniqueid": "MTK0529:34X6J5FLPU5Z63RXC43PT6QJCNSJQC", "current_trial": 165, "dateTime": 1511200418894, "trialdata": {"rt": -1, "stimulus": "<p id=\"stim\">3</p>", "key_press": -1, "trial_type": "single-stim", "trial_index": 165, "time_elapsed": 795403, "internal_node_id": "0.0-122.0-7.0"}}, {"uniqueid": "MTK0529:34X6J5FLPU5Z63RXC43PT6QJCNSJQC", "current_trial": 166, "dateTime": 1511200419896, "trialdata": {"rt": -1, "stimulus": "<p id=\"stim\">2</p>", "key_press": -1, "trial_type": "single-stim", "trial_index": 166, "time_elapsed": 796405, "internal_node_id": "0.0-122.0-8.0"}}, {"uniqueid": "MTK0529:34X6J5FLPU5Z63RXC43PT6QJCNSJQC", "current_trial": 167, "dateTime": 1511200420897, "trialdata": {"rt": -1, "stimulus": "<p id=\"stim\">1</p>", "key_press": -1, "trial_type": "single-stim", "trial_index": 167, "time_elapsed": 797407, "internal_node_id": "0.0-122.0-9.0"}}, {"uniqueid": "MTK0529:34X6J5FLPU5Z63RXC43PT6QJCNSJQC", "current_trial": 168, "dateTime": 1511200422400, "trialdata": {"rt": -1, "stimulus": "<p id=\"stim\">+</p>", "key_press": -1, "type": "FIXATION", "trial_type": "single-stim", "trial_index": 168, "time_elapsed": 798909, "internal_node_id": "0.0-123.0-0.0"}}, {"uniqueid": "MTK0529:34X6J5FLPU5Z63RXC43PT6QJCNSJQC", "current_trial": 169, "dateTime": 1511200423202, "trialdata": {"rt": -1, "stimulus": "<p id=\"stim\">BODY</p>", "key_press": -1, "type": "PRES_VIS", "word": "body", "wordID": 144, "conditions": [24, 800, "v", 12000], "trial": 4, "serialpos": 0, "trial_type": "single-stim", "trial_index": 169, "time_elapsed": 799712, "internal_node_id": "0.0-124.0"}}, {"uniqueid": "MTK0529:34X6J5FLPU5Z63RXC43PT6QJCNSJQC", "current_trial": 170, "dateTime": 1511200425072, "trialdata": {"rt": -1, "stimulus": "<p id=\"stim\">DAISY</p>", "key_press": -1, "type": "PRES_VIS", "word": "daisy", "wordID": 434, "conditions": [24, 800, "v", 12000], "trial": 4, "serialpos": 1, "trial_type": "single-stim", "trial_index": 170, "time_elapsed": 801581, "internal_node_id": "0.0-125.0"}}, {"uniqueid": "MTK0529:34X6J5FLPU5Z63RXC43PT6QJCNSJQC", "current_trial": 171, "dateTime": 1511200426779, "trialdata": {"rt": -1, "stimulus": "<p id=\"stim\">PICNIC</p>", "key_press": -1, "type": "PRES_VIS", "word": "picnic", "wordID": 1059, "conditions": [24, 800, "v", 12000], "trial": 4, "serialpos": 2, "trial_type": "single-stim", "trial_index": 171, "time_elapsed": 803289, "internal_node_id": "0.0-126.0"}}, {"uniqueid": "MTK0529:34X6J5FLPU5Z63RXC43PT6QJCNSJQC", "current_trial": 172, "dateTime": 1511200428781, "trialdata": {"rt": -1, "stimulus": "<p id=\"stim\">ITEM</p>", "key_press": -1, "type": "PRES_VIS", "word": "item", "wordID": 745, "conditions": [24, 800, "v", 12000], "trial": 4, "serialpos": 3, "trial_type": "single-stim", "trial_index": 172, "time_elapsed": 805290, "internal_node_id": "0.0-127.0"}}, {"uniqueid": "MTK0529:34X6J5FLPU5Z63RXC43PT6QJCNSJQC", "current_trial": 173, "dateTime": 1511200430651, "trialdata": {"rt": -1, "stimulus": "<p id=\"stim\">CLOTHES</p>", "key_press": -1, "type": "PRES_VIS", "word": "clothes", "wordID": 326, "conditions": [24, 800, "v", 12000], "trial": 4, "serialpos": 4, "trial_type": "single-stim", "trial_index": 173, "time_elapsed": 807161, "internal_node_id": "0.0-128.0"}}, {"uniqueid": "MTK0529:34X6J5FLPU5Z63RXC43PT6QJCNSJQC", "current_trial": 174, "dateTime": 1511200432586, "trialdata": {"rt": -1, "stimulus": "<p id=\"stim\">NIGHTGOWN</p>", "key_press": -1, "type": "PRES_VIS", "word": "nightgown", "wordID": 952, "conditions": [24, 800, "v", 12000], "trial": 4, "serialpos": 5, "trial_type": "single-stim", "trial_index": 174, "time_elapsed": 809093, "internal_node_id": "0.0-129.0"}}, {"uniqueid": "MTK0529:34X6J5FLPU5Z63RXC43PT6QJCNSJQC", "current_trial": 175, "dateTime": 1511200434284, "trialdata": {"rt": -1, "stimulus": "<p id=\"stim\">PIZZA</p>", "key_press": -1, "type": "PRES_VIS", "word": "pizza", "wordID": 1078, "conditions": [24, 800, "v", 12000], "trial": 4, "serialpos": 6, "trial_type": "single-stim", "trial_index": 175, "time_elapsed": 810794, "internal_node_id": "0.0-130.0"}}, {"uniqueid": "MTK0529:34X6J5FLPU5Z63RXC43PT6QJCNSJQC", "current_trial": 176, "dateTime": 1511200436269, "trialdata": {"rt": -1, "stimulus": "<p id=\"stim\">SPOOL</p>", "key_press": -1, "type": "PRES_VIS", "word": "spool", "wordID": 1355, "conditions": [24, 800, "v", 12000], "trial": 4, "serialpos": 7, "trial_type": "single-stim", "trial_index": 176, "time_elapsed": 812779, "internal_node_id": "0.0-131.0"}}, {"uniqueid": "MTK0529:34X6J5FLPU5Z63RXC43PT6QJCNSJQC", "current_trial": 177, "dateTime": 1511200438106, "trialdata": {"rt": -1, "stimulus": "<p id=\"stim\">SHIRT</p>", "key_press": -1, "type": "PRES_VIS", "word": "shirt", "wordID": 1286, "conditions": [24, 800, "v", 12000], "trial": 4, "serialpos": 8, "trial_type": "single-stim", "trial_index": 177, "time_elapsed": 814616, "internal_node_id": "0.0-132.0"}}, {"uniqueid": "MTK0529:34X6J5FLPU5Z63RXC43PT6QJCNSJQC", "current_trial": 178, "dateTime": 1511200439776, "trialdata": {"rt": -1, "stimulus": "<p id=\"stim\">APRON</p>", "key_press": -1, "type": "PRES_VIS", "word": "apron", "wordID": 34, "conditions": [24, 800, "v", 12000], "trial": 4, "serialpos": 9, "trial_type": "single-stim", "trial_index": 178, "time_elapsed": 816286, "internal_node_id": "0.0-133.0"}}, {"uniqueid": "MTK0529:34X6J5FLPU5Z63RXC43PT6QJCNSJQC", "current_trial": 179, "dateTime": 1511200441514, "trialdata": {"rt": -1, "stimulus": "<p id=\"stim\">DOLPHIN</p>", "key_press": -1, "type": "PRES_VIS", "word": "dolphin", "wordID": 482, "conditions": [24, 800, "v", 12000], "trial": 4, "serialpos": 10, "trial_type": "single-stim", "trial_index": 179, "time_elapsed": 818023, "internal_node_id": "0.0-134.0"}}, {"uniqueid": "MTK0529:34X6J5FLPU5Z63RXC43PT6QJCNSJQC", "current_trial": 180, "dateTime": 1511200443280, "trialdata": {"rt": -1, "stimulus": "<p id=\"stim\">PASTA</p>", "key_press": -1, "type": "PRES_VIS", "word": "pasta", "wordID": 1020, "conditions": [24, 800, "v", 12000], "trial": 4, "serialpos": 11, "trial_type": "single-stim", "trial_index": 180, "time_elapsed": 819790, "internal_node_id": "0.0-135.0"}}, {"uniqueid": "MTK0529:34X6J5FLPU5Z63RXC43PT6QJCNSJQC", "current_trial": 181, "dateTime": 1511200444901, "trialdata": {"rt": -1, "stimulus": "<p id=\"stim\">TRUCK</p>", "key_press": -1, "type": "PRES_VIS", "word": "truck", "wordID": 1511, "conditions": [24, 800, "v", 12000], "trial": 4, "serialpos": 12, "trial_type": "single-stim", "trial_index": 181, "time_elapsed": 821411, "internal_node_id": "0.0-136.0"}}, {"uniqueid": "MTK0529:34X6J5FLPU5Z63RXC43PT6QJCNSJQC", "current_trial": 182, "dateTime": 1511200446600, "trialdata": {"rt": -1, "stimulus": "<p id=\"stim\">SALMON</p>", "key_press": -1, "type": "PRES_VIS", "word": "salmon", "wordID": 1226, "conditions": [24, 800, "v", 12000], "trial": 4, "serialpos": 13, "trial_type": "single-stim", "trial_index": 182, "time_elapsed": 823110, "internal_node_id": "0.0-137.0"}}, {"uniqueid": "MTK0529:34X6J5FLPU5Z63RXC43PT6QJCNSJQC", "current_trial": 183, "dateTime": 1511200448489, "trialdata": {"rt": -1, "stimulus": "<p id=\"stim\">BARREL</p>", "key_press": -1, "type": "PRES_VIS", "word": "barrel", "wordID": 90, "conditions": [24, 800, "v", 12000], "trial": 4, "serialpos": 14, "trial_type": "single-stim", "trial_index": 183, "time_elapsed": 824998, "internal_node_id": "0.0-138.0"}}, {"uniqueid": "MTK0529:34X6J5FLPU5Z63RXC43PT6QJCNSJQC", "current_trial": 184, "dateTime": 1511200450394, "trialdata": {"rt": -1, "stimulus": "<p id=\"stim\">MARS</p>", "key_press": -1, "type": "PRES_VIS", "word": "mars", "wordID": 872, "conditions": [24, 800, "v", 12000], "trial": 4, "serialpos": 15, "trial_type": "single-stim", "trial_index": 184, "time_elapsed": 826904, "internal_node_id": "0.0-139.0"}}, {"uniqueid": "MTK0529:34X6J5FLPU5Z63RXC43PT6QJCNSJQC", "current_trial": 185, "dateTime": 1511200452186, "trialdata": {"rt": -1, "stimulus": "<p id=\"stim\">MASK</p>", "key_press": -1, "type": "PRES_VIS", "word": "mask", "wordID": 875, "conditions": [24, 800, "v", 12000], "trial": 4, "serialpos": 16, "trial_type": "single-stim", "trial_index": 185, "time_elapsed": 828695, "internal_node_id": "0.0-140.0"}}, {"uniqueid": "MTK0529:34X6J5FLPU5Z63RXC43PT6QJCNSJQC", "current_trial": 186, "dateTime": 1511200453951, "trialdata": {"rt": -1, "stimulus": "<p id=\"stim\">PIGMENT</p>", "key_press": -1, "type": "PRES_VIS", "word": "pigment", "wordID": 1065, "conditions": [24, 800, "v", 12000], "trial": 4, "serialpos": 17, "trial_type": "single-stim", "trial_index": 186, "time_elapsed": 830461, "internal_node_id": "0.0-141.0"}}, {"uniqueid": "MTK0529:34X6J5FLPU5Z63RXC43PT6QJCNSJQC", "current_trial": 187, "dateTime": 1511200455711, "trialdata": {"rt": -1, "stimulus": "<p id=\"stim\">CARROT</p>", "key_press": -1, "type": "PRES_VIS", "word": "carrot", "wordID": 248, "conditions": [24, 800, "v", 12000], "trial": 4, "serialpos": 18, "trial_type": "single-stim", "trial_index": 187, "time_elapsed": 832220, "internal_node_id": "0.0-142.0"}}, {"uniqueid": "MTK0529:34X6J5FLPU5Z63RXC43PT6QJCNSJQC", "current_trial": 188, "dateTime": 1511200457463, "trialdata": {"rt": -1, "stimulus": "<p id=\"stim\">PICTURE</p>", "key_press": -1, "type": "PRES_VIS", "word": "picture", "wordID": 1060, "conditions": [24, 800, "v", 12000], "trial": 4, "serialpos": 19, "trial_type": "single-stim", "trial_index": 188, "time_elapsed": 833973, "internal_node_id": "0.0-143.0"}}, {"uniqueid": "MTK0529:34X6J5FLPU5Z63RXC43PT6QJCNSJQC", "current_trial": 189, "dateTime": 1511200459366, "trialdata": {"rt": -1, "stimulus": "<p id=\"stim\">PORTRAIT</p>", "key_press": -1, "type": "PRES_VIS", "word": "portrait", "wordID": 1110, "conditions": [24, 800, "v", 12000], "trial": 4, "serialpos": 20, "trial_type": "single-stim", "trial_index": 189, "time_elapsed": 835876, "internal_node_id": "0.0-144.0"}}, {"uniqueid": "MTK0529:34X6J5FLPU5Z63RXC43PT6QJCNSJQC", "current_trial": 190, "dateTime": 1511200461094, "trialdata": {"rt": -1, "stimulus": "<p id=\"stim\">DINER</p>", "key_press": -1, "type": "PRES_VIS", "word": "diner", "wordID": 466, "conditions": [24, 800, "v", 12000], "trial": 4, "serialpos": 21, "trial_type": "single-stim", "trial_index": 190, "time_elapsed": 837604, "internal_node_id": "0.0-145.0"}}, {"uniqueid": "MTK0529:34X6J5FLPU5Z63RXC43PT6QJCNSJQC", "current_trial": 191, "dateTime": 1511200462935, "trialdata": {"rt": -1, "stimulus": "<p id=\"stim\">GALLON</p>", "key_press": -1, "type": "PRES_VIS", "word": "gallon", "wordID": 617, "conditions": [24, 800, "v", 12000], "trial": 4, "serialpos": 22, "trial_type": "single-stim", "trial_index": 191, "time_elapsed": 839445, "internal_node_id": "0.0-146.0"}}, {"uniqueid": "MTK0529:34X6J5FLPU5Z63RXC43PT6QJCNSJQC", "current_trial": 192, "dateTime": 1511200464562, "trialdata": {"rt": -1, "stimulus": "<p id=\"stim\">OX</p>", "key_press": -1, "type": "PRES_VIS", "word": "ox", "wordID": 993, "conditions": [24, 800, "v", 12000], "trial": 4, "serialpos": 23, "trial_type": "single-stim", "trial_index": 192, "time_elapsed": 841072, "internal_node_id": "0.0-147.0"}}, {"uniqueid": "MTK0529:34X6J5FLPU5Z63RXC43PT6QJCNSJQC", "current_trial": 193, "dateTime": 1511200467072, "trialdata": {"rt": -1, "stimulus": "", "key_press": -1, "type": "PRE_RECALL_DELAY", "trial_type": "single-stim", "trial_index": 193, "time_elapsed": 843582, "internal_node_id": "0.0-148.0-0.0"}}, {"uniqueid": "MTK0529:34X6J5FLPU5Z63RXC43PT6QJCNSJQC", "current_trial": 194, "dateTime": 1511200467575, "trialdata": {"rt": -1000, "stimulus": "/static/audio/400Hz.wav", "key_press": -1, "type": "PRE_RECALL_ALERT", "trial_type": "single-audio", "trial_index": 194, "time_elapsed": 844085, "internal_node_id": "0.0-149.0"}}, {"uniqueid": "MTK0529:34X6J5FLPU5Z63RXC43PT6QJCNSJQC", "current_trial": 195, "dateTime": 1511200527588, "trialdata": {"rt": [1607, 2794, 5558, 7560, 9281, 13899, 16588, 40932, 48829], "recwords": ["ox", "diner", "portrait", "picture", "salmon", "body", "apron", "orchard", "apple"], "type": "FREE_RECALL", "conditions": [24, 800, "v", 12000], "trial": 4, "trial_type": "free-recall", "trial_index": 195, "time_elapsed": 904091, "internal_node_id": "0.0-150.0-0.0"}}, {"uniqueid": "MTK0529:34X6J5FLPU5Z63RXC43PT6QJCNSJQC", "current_trial": 196, "dateTime": 1511200530617, "trialdata": {"rt": 1024, "key_press": 32, "type": "INSTRUCTIONS", "trial_type": "text", "trial_index": 196, "time_elapsed": 907126, "internal_node_id": "0.0-151.0"}}, {"uniqueid": "MTK0529:34X6J5FLPU5Z63RXC43PT6QJCNSJQC", "current_trial": 197, "dateTime": 1511200544625, "trialdata": {"rt": [2645, 5312, 7010, 9456], "responses": ["20", "17", "11", "22"], "num1": [8, 3, 9, 6, 6], "num2": [4, 7, 1, 9, 6], "num3": [8, 7, 1, 7, 8], "type": "DISTRACTOR", "conditions": [12, 1600, "a", 12000], "trial": 5, "trial_type": "math-distractor", "trial_index": 197, "time_elapsed": 921135, "internal_node_id": "0.0-152.0"}}, {"uniqueid": "MTK0529:34X6J5FLPU5Z63RXC43PT6QJCNSJQC", "current_trial": 198, "dateTime": 1511200547633, "trialdata": {"rt": -1, "stimulus": "<p id=\"stim\">10</p>", "key_press": -1, "trial_type": "single-stim", "trial_index": 198, "time_elapsed": 924143, "internal_node_id": "0.0-153.0-0.0"}}, {"uniqueid": "MTK0529:34X6J5FLPU5Z63RXC43PT6QJCNSJQC", "current_trial": 199, "dateTime": 1511200548636, "trialdata": {"rt": -1, "stimulus": "<p id=\"stim\">9</p>", "key_press": -1, "trial_type": "single-stim", "trial_index": 199, "time_elapsed": 925146, "internal_node_id": "0.0-153.0-1.0"}}, {"uniqueid": "MTK0529:34X6J5FLPU5Z63RXC43PT6QJCNSJQC", "current_trial": 200, "dateTime": 1511200549641, "trialdata": {"rt": -1, "stimulus": "<p id=\"stim\">8</p>", "key_press": -1, "trial_type": "single-stim", "trial_index": 200, "time_elapsed": 926150, "internal_node_id": "0.0-153.0-2.0"}}, {"uniqueid": "MTK0529:34X6J5FLPU5Z63RXC43PT6QJCNSJQC", "current_trial": 201, "dateTime": 1511200550643, "trialdata": {"rt": -1, "stimulus": "<p id=\"stim\">7</p>", "key_press": -1, "trial_type": "single-stim", "trial_index": 201, "time_elapsed": 927152, "internal_node_id": "0.0-153.0-3.0"}}, {"uniqueid": "MTK0529:34X6J5FLPU5Z63RXC43PT6QJCNSJQC", "current_trial": 202, "dateTime": 1511200551646, "trialdata": {"rt": -1, "stimulus": "<p id=\"stim\">6</p>", "key_press": -1, "trial_type": "single-stim", "trial_index": 202, "time_elapsed": 928156, "internal_node_id": "0.0-153.0-4.0"}}, {"uniqueid": "MTK0529:34X6J5FLPU5Z63RXC43PT6QJCNSJQC", "current_trial": 203, "dateTime": 1511200552650, "trialdata": {"rt": -1, "stimulus": "<p id=\"stim\">5</p>", "key_press": -1, "trial_type": "single-stim", "trial_index": 203, "time_elapsed": 929159, "internal_node_id": "0.0-153.0-5.0"}}, {"uniqueid": "MTK0529:34X6J5FLPU5Z63RXC43PT6QJCNSJQC", "current_trial": 204, "dateTime": 1511200553652, "trialdata": {"rt": -1, "stimulus": "<p id=\"stim\">4</p>", "key_press": -1, "trial_type": "single-stim", "trial_index": 204, "time_elapsed": 930162, "internal_node_id": "0.0-153.0-6.0"}}, {"uniqueid": "MTK0529:34X6J5FLPU5Z63RXC43PT6QJCNSJQC", "current_trial": 205, "dateTime": 1511200554654, "trialdata": {"rt": -1, "stimulus": "<p id=\"stim\">3</p>", "key_press": -1, "trial_type": "single-stim", "trial_index": 205, "time_elapsed": 931164, "internal_node_id": "0.0-153.0-7.0"}}, {"uniqueid": "MTK0529:34X6J5FLPU5Z63RXC43PT6QJCNSJQC", "current_trial": 206, "dateTime": 1511200555656, "trialdata": {"rt": -1, "stimulus": "<p id=\"stim\">2</p>", "key_press": -1, "trial_type": "single-stim", "trial_index": 206, "time_elapsed": 932166, "internal_node_id": "0.0-153.0-8.0"}}, {"uniqueid": "MTK0529:34X6J5FLPU5Z63RXC43PT6QJCNSJQC", "current_trial": 207, "dateTime": 1511200556659, "trialdata": {"rt": -1, "stimulus": "<p id=\"stim\">1</p>", "key_press": -1, "trial_type": "single-stim", "trial_index": 207, "time_elapsed": 933169, "internal_node_id": "0.0-153.0-9.0"}}, {"uniqueid": "MTK0529:34X6J5FLPU5Z63RXC43PT6QJCNSJQC", "current_trial": 208, "dateTime": 1511200558162, "trialdata": {"rt": -1, "stimulus": "<p id=\"stim\">+</p>", "key_press": -1, "type": "FIXATION", "trial_type": "single-stim", "trial_index": 208, "time_elapsed": 934671, "internal_node_id": "0.0-154.0-0.0"}}, {"uniqueid": "MTK0529:34X6J5FLPU5Z63RXC43PT6QJCNSJQC", "current_trial": 209, "dateTime": 1511200560875, "trialdata": {"rt": -1000, "stimulus": "/static/audio/wordpool/RAZOR.wav", "key_press": -1, "type": "PRES_AUD", "word": "razor", "wordID": 1170, "conditions": [12, 1600, "a", 12000], "trial": 5, "serialpos": 0, "trial_type": "single-audio", "trial_index": 209, "time_elapsed": 937384, "internal_node_id": "0.0-155.0"}}, {"uniqueid": "MTK0529:34X6J5FLPU5Z63RXC43PT6QJCNSJQC", "current_trial": 210, "dateTime": 1511200563356, "trialdata": {"rt": -1000, "stimulus": "/static/audio/wordpool/HEADBAND.wav", "key_press": -1, "type": "PRES_AUD", "word": "headband", "wordID": 695, "conditions": [12, 1600, "a", 12000], "trial": 5, "serialpos": 1, "trial_type": "single-audio", "trial_index": 210, "time_elapsed": 939866, "internal_node_id": "0.0-156.0"}}, {"uniqueid": "MTK0529:34X6J5FLPU5Z63RXC43PT6QJCNSJQC", "current_trial": 211, "dateTime": 1511200565912, "trialdata": {"rt": -1000, "stimulus": "/static/audio/wordpool/COUSIN.wav", "key_press": -1, "type": "PRES_AUD", "word": "cousin", "wordID": 391, "conditions": [12, 1600, "a", 12000], "trial": 5, "serialpos": 2, "trial_type": "single-audio", "trial_index": 211, "time_elapsed": 942422, "internal_node_id": "0.0-157.0"}}, {"uniqueid": "MTK0529:34X6J5FLPU5Z63RXC43PT6QJCNSJQC", "current_trial": 212, "dateTime": 1511200568371, "trialdata": {"rt": -1000, "stimulus": "/static/audio/wordpool/SCALPEL.wav", "key_press": -1, "type": "PRES_AUD", "word": "scalpel", "wordID": 1242, "conditions": [12, 1600, "a", 12000], "trial": 5, "serialpos": 3, "trial_type": "single-audio", "trial_index": 212, "time_elapsed": 944881, "internal_node_id": "0.0-158.0"}}, {"uniqueid": "MTK0529:34X6J5FLPU5Z63RXC43PT6QJCNSJQC", "current_trial": 213, "dateTime": 1511200571145, "trialdata": {"rt": -1000, "stimulus": "/static/audio/wordpool/STATUE.wav", "key_press": -1, "type": "PRES_AUD", "word": "statue", "wordID": 1373, "conditions": [12, 1600, "a", 12000], "trial": 5, "serialpos": 4, "trial_type": "single-audio", "trial_index": 213, "time_elapsed": 947655, "internal_node_id": "0.0-159.0"}}, {"uniqueid": "MTK0529:34X6J5FLPU5Z63RXC43PT6QJCNSJQC", "current_trial": 214, "dateTime": 1511200573582, "trialdata": {"rt": -1000, "stimulus": "/static/audio/wordpool/ROBOT.wav", "key_press": -1, "type": "PRES_AUD", "word": "robot", "wordID": 1199, "conditions": [12, 1600, "a", 12000], "trial": 5, "serialpos": 5, "trial_type": "single-audio", "trial_index": 214, "time_elapsed": 950091, "internal_node_id": "0.0-160.0"}}, {"uniqueid": "MTK0529:34X6J5FLPU5Z63RXC43PT6QJCNSJQC", "current_trial": 215, "dateTime": 1511200576040, "trialdata": {"rt": -1000, "stimulus": "/static/audio/wordpool/WARDROBE.wav", "key_press": -1, "type": "PRES_AUD", "word": "wardrobe", "wordID": 1586, "conditions": [12, 1600, "a", 12000], "trial": 5, "serialpos": 6, "trial_type": "single-audio", "trial_index": 215, "time_elapsed": 952550, "internal_node_id": "0.0-161.0"}}, {"uniqueid": "MTK0529:34X6J5FLPU5Z63RXC43PT6QJCNSJQC", "current_trial": 216, "dateTime": 1511200578453, "trialdata": {"rt": -1000, "stimulus": "/static/audio/wordpool/BREAST.wav", "key_press": -1, "type": "PRES_AUD", "word": "breast", "wordID": 170, "conditions": [12, 1600, "a", 12000], "trial": 5, "serialpos": 7, "trial_type": "single-audio", "trial_index": 216, "time_elapsed": 954962, "internal_node_id": "0.0-162.0"}}, {"uniqueid": "MTK0529:34X6J5FLPU5Z63RXC43PT6QJCNSJQC", "current_trial": 217, "dateTime": 1511200580888, "trialdata": {"rt": -1000, "stimulus": "/static/audio/wordpool/RACKET.wav", "key_press": -1, "type": "PRES_AUD", "word": "racket", "wordID": 1154, "conditions": [12, 1600, "a", 12000], "trial": 5, "serialpos": 8, "trial_type": "single-audio", "trial_index": 217, "time_elapsed": 957398, "internal_node_id": "0.0-163.0"}}, {"uniqueid": "MTK0529:34X6J5FLPU5Z63RXC43PT6QJCNSJQC", "current_trial": 218, "dateTime": 1511200583623, "trialdata": {"rt": -1000, "stimulus": "/static/audio/wordpool/PISTON.wav", "key_press": -1, "type": "PRES_AUD", "word": "piston", "wordID": 1075, "conditions": [12, 1600, "a", 12000], "trial": 5, "serialpos": 9, "trial_type": "single-audio", "trial_index": 218, "time_elapsed": 960133, "internal_node_id": "0.0-164.0"}}, {"uniqueid": "MTK0529:34X6J5FLPU5Z63RXC43PT6QJCNSJQC", "current_trial": 219, "dateTime": 1511200586129, "trialdata": {"rt": -1000, "stimulus": "/static/audio/wordpool/VALVE.wav", "key_press": -1, "type": "PRES_AUD", "word": "valve", "wordID": 1545, "conditions": [12, 1600, "a", 12000], "trial": 5, "serialpos": 10, "trial_type": "single-audio", "trial_index": 219, "time_elapsed": 962639, "internal_node_id": "0.0-165.0"}}, {"uniqueid": "MTK0529:34X6J5FLPU5Z63RXC43PT6QJCNSJQC", "current_trial": 220, "dateTime": 1511200588608, "trialdata": {"rt": -1000, "stimulus": "/static/audio/wordpool/VELVET.wav", "key_press": -1, "type": "PRES_AUD", "word": "velvet", "wordID": 1554, "conditions": [12, 1600, "a", 12000], "trial": 5, "serialpos": 11, "trial_type": "single-audio", "trial_index": 220, "time_elapsed": 965118, "internal_node_id": "0.0-166.0"}}, {"uniqueid": "MTK0529:34X6J5FLPU5Z63RXC43PT6QJCNSJQC", "current_trial": 221, "dateTime": 1511200589908, "trialdata": {"rt": -1, "stimulus": "", "key_press": -1, "type": "PRE_RECALL_DELAY", "trial_type": "single-stim", "trial_index": 221, "time_elapsed": 966418, "internal_node_id": "0.0-167.0-0.0"}}, {"uniqueid": "MTK0529:34X6J5FLPU5Z63RXC43PT6QJCNSJQC", "current_trial": 222, "dateTime": 1511200590411, "trialdata": {"rt": -1000, "stimulus": "/static/audio/400Hz.wav", "key_press": -1, "type": "PRE_RECALL_ALERT", "trial_type": "single-audio", "trial_index": 222, "time_elapsed": 966921, "internal_node_id": "0.0-168.0"}}, {"uniqueid": "MTK0529:34X6J5FLPU5Z63RXC43PT6QJCNSJQC", "current_trial": 223, "dateTime": 1511200650427, "trialdata": {"rt": [3258, 5274, 7016, 9327, 11159, 30824], "recwords": ["staple", "breast", "velvet", "racket", "piston", "razor"], "type": "FREE_RECALL", "conditions": [12, 1600, "a", 12000], "trial": 5, "trial_type": "free-recall", "trial_index": 223, "time_elapsed": 1026928, "internal_node_id": "0.0-169.0-0.0"}}, {"uniqueid": "MTK0529:34X6J5FLPU5Z63RXC43PT6QJCNSJQC", "current_trial": 224, "dateTime": 1511200653390, "trialdata": {"rt": 960, "key_press": 32, "type": "INSTRUCTIONS", "trial_type": "text", "trial_index": 224, "time_elapsed": 1029899, "internal_node_id": "0.0-170.0"}}, {"uniqueid": "MTK0529:34X6J5FLPU5Z63RXC43PT6QJCNSJQC", "current_trial": 225, "dateTime": 1511200679398, "trialdata": {"rt": [2585, 4063, 6046, 9404, 12603, 15129, 17590, 20281, 22523], "responses": ["18", "11", "14", "27", "17", "13", "29", "11", "18"], "num1": [7, 6, 7, 9, 7, 3, 3, 4, 3, 3], "num2": [6, 4, 6, 9, 4, 2, 8, 2, 8, 1], "num3": [5, 1, 1, 9, 6, 8, 9, 5, 7, 6], "type": "DISTRACTOR", "conditions": [24, 800, "v", 24000], "trial": 6, "trial_type": "math-distractor", "trial_index": 225, "time_elapsed": 1055908, "internal_node_id": "0.0-171.0"}}, {"uniqueid": "MTK0529:34X6J5FLPU5Z63RXC43PT6QJCNSJQC", "current_trial": 226, "dateTime": 1511200682400, "trialdata": {"rt": -1, "stimulus": "<p id=\"stim\">10</p>", "key_press": -1, "trial_type": "single-stim", "trial_index": 226, "time_elapsed": 1058909, "internal_node_id": "0.0-172.0-0.0"}}, {"uniqueid": "MTK0529:34X6J5FLPU5Z63RXC43PT6QJCNSJQC", "current_trial": 227, "dateTime": 1511200683402, "trialdata": {"rt": -1, "stimulus": "<p id=\"stim\">9</p>", "key_press": -1, "trial_type": "single-stim", "trial_index": 227, "time_elapsed": 1059911, "internal_node_id": "0.0-172.0-1.0"}}, {"uniqueid": "MTK0529:34X6J5FLPU5Z63RXC43PT6QJCNSJQC", "current_trial": 228, "dateTime": 1511200684405, "trialdata": {"rt": -1, "stimulus": "<p id=\"stim\">8</p>", "key_press": -1, "trial_type": "single-stim", "trial_index": 228, "time_elapsed": 1060915, "internal_node_id": "0.0-172.0-2.0"}}, {"uniqueid": "MTK0529:34X6J5FLPU5Z63RXC43PT6QJCNSJQC", "current_trial": 229, "dateTime": 1511200685408, "trialdata": {"rt": -1, "stimulus": "<p id=\"stim\">7</p>", "key_press": -1, "trial_type": "single-stim", "trial_index": 229, "time_elapsed": 1061918, "internal_node_id": "0.0-172.0-3.0"}}, {"uniqueid": "MTK0529:34X6J5FLPU5Z63RXC43PT6QJCNSJQC", "current_trial": 230, "dateTime": 1511200686410, "trialdata": {"rt": -1, "stimulus": "<p id=\"stim\">6</p>", "key_press": -1, "trial_type": "single-stim", "trial_index": 230, "time_elapsed": 1062920, "internal_node_id": "0.0-172.0-4.0"}}, {"uniqueid": "MTK0529:34X6J5FLPU5Z63RXC43PT6QJCNSJQC", "current_trial": 231, "dateTime": 1511200687413, "trialdata": {"rt": -1, "stimulus": "<p id=\"stim\">5</p>", "key_press": -1, "trial_type": "single-stim", "trial_index": 231, "time_elapsed": 1063922, "internal_node_id": "0.0-172.0-5.0"}}, {"uniqueid": "MTK0529:34X6J5FLPU5Z63RXC43PT6QJCNSJQC", "current_trial": 232, "dateTime": 1511200688416, "trialdata": {"rt": -1, "stimulus": "<p id=\"stim\">4</p>", "key_press": -1, "trial_type": "single-stim", "trial_index": 232, "time_elapsed": 1064925, "internal_node_id": "0.0-172.0-6.0"}}, {"uniqueid": "MTK0529:34X6J5FLPU5Z63RXC43PT6QJCNSJQC", "current_trial": 233, "dateTime": 1511200689417, "trialdata": {"rt": -1, "stimulus": "<p id=\"stim\">3</p>", "key_press": -1, "trial_type": "single-stim", "trial_index": 233, "time_elapsed": 1065927, "internal_node_id": "0.0-172.0-7.0"}}, {"uniqueid": "MTK0529:34X6J5FLPU5Z63RXC43PT6QJCNSJQC", "current_trial": 234, "dateTime": 1511200690422, "trialdata": {"rt": -1, "stimulus": "<p id=\"stim\">2</p>", "key_press": -1, "trial_type": "single-stim", "trial_index": 234, "time_elapsed": 1066931, "internal_node_id": "0.0-172.0-8.0"}}, {"uniqueid": "MTK0529:34X6J5FLPU5Z63RXC43PT6QJCNSJQC", "current_trial": 235, "dateTime": 1511200691424, "trialdata": {"rt": -1, "stimulus": "<p id=\"stim\">1</p>", "key_press": -1, "trial_type": "single-stim", "trial_index": 235, "time_elapsed": 1067933, "internal_node_id": "0.0-172.0-9.0"}}, {"uniqueid": "MTK0529:34X6J5FLPU5Z63RXC43PT6QJCNSJQC", "current_trial": 236, "dateTime": 1511200692927, "trialdata": {"rt": -1, "stimulus": "<p id=\"stim\">+</p>", "key_press": -1, "type": "FIXATION", "trial_type": "single-stim", "trial_index": 236, "time_elapsed": 1069437, "internal_node_id": "0.0-173.0-0.0"}}, {"uniqueid": "MTK0529:34X6J5FLPU5Z63RXC43PT6QJCNSJQC", "current_trial": 237, "dateTime": 1511200693729, "trialdata": {"rt": -1, "stimulus": "<p id=\"stim\">GIRL</p>", "key_press": -1, "type": "PRES_VIS", "word": "girl", "wordID": 636, "conditions": [24, 800, "v", 24000], "trial": 6, "serialpos": 0, "trial_type": "single-stim", "trial_index": 237, "time_elapsed": 1070239, "internal_node_id": "0.0-174.0"}}, {"uniqueid": "MTK0529:34X6J5FLPU5Z63RXC43PT6QJCNSJQC", "current_trial": 238, "dateTime": 1511200695515, "trialdata": {"rt": -1, "stimulus": "<p id=\"stim\">DAUGHTER</p>", "key_press": -1, "type": "PRES_VIS", "word": "daughter", "wordID": 441, "conditions": [24, 800, "v", 24000], "trial": 6, "serialpos": 1, "trial_type": "single-stim", "trial_index": 238, "time_elapsed": 1072025, "internal_node_id": "0.0-175.0"}}, {"uniqueid": "MTK0529:34X6J5FLPU5Z63RXC43PT6QJCNSJQC", "current_trial": 239, "dateTime": 1511200697434, "trialdata": {"rt": -1, "stimulus": "<p id=\"stim\">RABBIT</p>", "key_press": -1, "type": "PRES_VIS", "word": "rabbit", "wordID": 1151, "conditions": [24, 800, "v", 24000], "trial": 6, "serialpos": 2, "trial_type": "single-stim", "trial_index": 239, "time_elapsed": 1073944, "internal_node_id": "0.0-176.0"}}, {"uniqueid": "MTK0529:34X6J5FLPU5Z63RXC43PT6QJCNSJQC", "current_trial": 240, "dateTime": 1511200699215, "trialdata": {"rt": -1, "stimulus": "<p id=\"stim\">GLOBE</p>", "key_press": -1, "type": "PRES_VIS", "word": "globe", "wordID": 640, "conditions": [24, 800, "v", 24000], "trial": 6, "serialpos": 3, "trial_type": "single-stim", "trial_index": 240, "time_elapsed": 1075724, "internal_node_id": "0.0-177.0"}}, {"uniqueid": "MTK0529:34X6J5FLPU5Z63RXC43PT6QJCNSJQC", "current_trial": 241, "dateTime": 1511200700825, "trialdata": {"rt": -1, "stimulus": "<p id=\"stim\">TREAT</p>", "key_press": -1, "type": "PRES_VIS", "word": "treat", "wordID": 1500, "conditions": [24, 800, "v", 24000], "trial": 6, "serialpos": 4, "trial_type": "single-stim", "trial_index": 241, "time_elapsed": 1077335, "internal_node_id": "0.0-178.0"}}, {"uniqueid": "MTK0529:34X6J5FLPU5Z63RXC43PT6QJCNSJQC", "current_trial": 242, "dateTime": 1511200702466, "trialdata": {"rt": -1, "stimulus": "<p id=\"stim\">QUAIL</p>", "key_press": -1, "type": "PRES_VIS", "word": "quail", "wordID": 1146, "conditions": [24, 800, "v", 24000], "trial": 6, "serialpos": 5, "trial_type": "single-stim", "trial_index": 242, "time_elapsed": 1078976, "internal_node_id": "0.0-179.0"}}, {"uniqueid": "MTK0529:34X6J5FLPU5Z63RXC43PT6QJCNSJQC", "current_trial": 243, "dateTime": 1511200704410, "trialdata": {"rt": -1, "stimulus": "<p id=\"stim\">CELLAR</p>", "key_press": -1, "type": "PRES_VIS", "word": "cellar", "wordID": 266, "conditions": [24, 800, "v", 24000], "trial": 6, "serialpos": 6, "trial_type": "single-stim", "trial_index": 243, "time_elapsed": 1080920, "internal_node_id": "0.0-180.0"}}, {"uniqueid": "MTK0529:34X6J5FLPU5Z63RXC43PT6QJCNSJQC", "current_trial": 244, "dateTime": 1511200706276, "trialdata": {"rt": -1, "stimulus": "<p id=\"stim\">GARLIC</p>", "key_press": -1, "type": "PRES_VIS", "word": "garlic", "wordID": 623, "conditions": [24, 800, "v", 24000], "trial": 6, "serialpos": 7, "trial_type": "single-stim", "trial_index": 244, "time_elapsed": 1082786, "internal_node_id": "0.0-181.0"}}, {"uniqueid": "MTK0529:34X6J5FLPU5Z63RXC43PT6QJCNSJQC", "current_trial": 245, "dateTime": 1511200707899, "trialdata": {"rt": -1, "stimulus": "<p id=\"stim\">WORLD</p>", "key_press": -1, "type": "PRES_VIS", "word": "world", "wordID": 1621, "conditions": [24, 800, "v", 24000], "trial": 6, "serialpos": 8, "trial_type": "single-stim", "trial_index": 245, "time_elapsed": 1084408, "internal_node_id": "0.0-182.0"}}, {"uniqueid": "MTK0529:34X6J5FLPU5Z63RXC43PT6QJCNSJQC", "current_trial": 246, "dateTime": 1511200709657, "trialdata": {"rt": -1, "stimulus": "<p id=\"stim\">CONCERT</p>", "key_press": -1, "type": "PRES_VIS", "word": "concert", "wordID": 359, "conditions": [24, 800, "v", 24000], "trial": 6, "serialpos": 9, "trial_type": "single-stim", "trial_index": 246, "time_elapsed": 1086167, "internal_node_id": "0.0-183.0"}}, {"uniqueid": "MTK0529:34X6J5FLPU5Z63RXC43PT6QJCNSJQC", "current_trial": 247, "dateTime": 1511200711464, "trialdata": {"rt": -1, "stimulus": "<p id=\"stim\">PREACHER</p>", "key_press": -1, "type": "PRES_VIS", "word": "preacher", "wordID": 1118, "conditions": [24, 800, "v", 24000], "trial": 6, "serialpos": 10, "trial_type": "single-stim", "trial_index": 247, "time_elapsed": 1087974, "internal_node_id": "0.0-184.0"}}, {"uniqueid": "MTK0529:34X6J5FLPU5Z63RXC43PT6QJCNSJQC", "current_trial": 248, "dateTime": 1511200713122, "trialdata": {"rt": -1, "stimulus": "<p id=\"stim\">ANTLER</p>", "key_press": -1, "type": "PRES_VIS", "word": "antler", "wordID": 28, "conditions": [24, 800, "v", 24000], "trial": 6, "serialpos": 11, "trial_type": "single-stim", "trial_index": 248, "time_elapsed": 1089631, "internal_node_id": "0.0-185.0"}}, {"uniqueid": "MTK0529:34X6J5FLPU5Z63RXC43PT6QJCNSJQC", "current_trial": 249, "dateTime": 1511200714738, "trialdata": {"rt": -1, "stimulus": "<p id=\"stim\">ROD</p>", "key_press": -1, "type": "PRES_VIS", "word": "rod", "wordID": 1202, "conditions": [24, 800, "v", 24000], "trial": 6, "serialpos": 12, "trial_type": "single-stim", "trial_index": 249, "time_elapsed": 1091247, "internal_node_id": "0.0-186.0"}}, {"uniqueid": "MTK0529:34X6J5FLPU5Z63RXC43PT6QJCNSJQC", "current_trial": 250, "dateTime": 1511200716355, "trialdata": {"rt": -1, "stimulus": "<p id=\"stim\">SUNSET</p>", "key_press": -1, "type": "PRES_VIS", "word": "sunset", "wordID": 1407, "conditions": [24, 800, "v", 24000], "trial": 6, "serialpos": 13, "trial_type": "single-stim", "trial_index": 250, "time_elapsed": 1092865, "internal_node_id": "0.0-187.0"}}, {"uniqueid": "MTK0529:34X6J5FLPU5Z63RXC43PT6QJCNSJQC", "current_trial": 251, "dateTime": 1511200718018, "trialdata": {"rt": -1, "stimulus": "<p id=\"stim\">BANJO</p>", "key_press": -1, "type": "PRES_VIS", "word": "banjo", "wordID": 81, "conditions": [24, 800, "v", 24000], "trial": 6, "serialpos": 14, "trial_type": "single-stim", "trial_index": 251, "time_elapsed": 1094525, "internal_node_id": "0.0-188.0"}}, {"uniqueid": "MTK0529:34X6J5FLPU5Z63RXC43PT6QJCNSJQC", "current_trial": 252, "dateTime": 1511200719817, "trialdata": {"rt": -1, "stimulus": "<p id=\"stim\">TROMBONE</p>", "key_press": -1, "type": "PRES_VIS", "word": "trombone", "wordID": 1507, "conditions": [24, 800, "v", 24000], "trial": 6, "serialpos": 15, "trial_type": "single-stim", "trial_index": 252, "time_elapsed": 1096327, "internal_node_id": "0.0-189.0"}}, {"uniqueid": "MTK0529:34X6J5FLPU5Z63RXC43PT6QJCNSJQC", "current_trial": 253, "dateTime": 1511200721466, "trialdata": {"rt": -1, "stimulus": "<p id=\"stim\">BUG</p>", "key_press": -1, "type": "PRES_VIS", "word": "bug", "wordID": 186, "conditions": [24, 800, "v", 24000], "trial": 6, "serialpos": 16, "trial_type": "single-stim", "trial_index": 253, "time_elapsed": 1097976, "internal_node_id": "0.0-190.0"}}, {"uniqueid": "MTK0529:34X6J5FLPU5Z63RXC43PT6QJCNSJQC", "current_trial": 254, "dateTime": 1511200723105, "trialdata": {"rt": -1, "stimulus": "<p id=\"stim\">TURKEY</p>", "key_press": -1, "type": "PRES_VIS", "word": "turkey", "wordID": 1519, "conditions": [24, 800, "v", 24000], "trial": 6, "serialpos": 17, "trial_type": "single-stim", "trial_index": 254, "time_elapsed": 1099614, "internal_node_id": "0.0-191.0"}}, {"uniqueid": "MTK0529:34X6J5FLPU5Z63RXC43PT6QJCNSJQC", "current_trial": 255, "dateTime": 1511200724708, "trialdata": {"rt": -1, "stimulus": "<p id=\"stim\">WASP</p>", "key_press": -1, "type": "PRES_VIS", "word": "wasp", "wordID": 1592, "conditions": [24, 800, "v", 24000], "trial": 6, "serialpos": 18, "trial_type": "single-stim", "trial_index": 255, "time_elapsed": 1101218, "internal_node_id": "0.0-192.0"}}, {"uniqueid": "MTK0529:34X6J5FLPU5Z63RXC43PT6QJCNSJQC", "current_trial": 256, "dateTime": 1511200726616, "trialdata": {"rt": -1, "stimulus": "<p id=\"stim\">VIRUS</p>", "key_press": -1, "type": "PRES_VIS", "word": "virus", "wordID": 1571, "conditions": [24, 800, "v", 24000], "trial": 6, "serialpos": 19, "trial_type": "single-stim", "trial_index": 256, "time_elapsed": 1103126, "internal_node_id": "0.0-193.0"}}, {"uniqueid": "MTK0529:34X6J5FLPU5Z63RXC43PT6QJCNSJQC", "current_trial": 257, "dateTime": 1511200728247, "trialdata": {"rt": -1, "stimulus": "<p id=\"stim\">HARP</p>", "key_press": -1, "type": "PRES_VIS", "word": "harp", "wordID": 688, "conditions": [24, 800, "v", 24000], "trial": 6, "serialpos": 20, "trial_type": "single-stim", "trial_index": 257, "time_elapsed": 1104756, "internal_node_id": "0.0-194.0"}}, {"uniqueid": "MTK0529:34X6J5FLPU5Z63RXC43PT6QJCNSJQC", "current_trial": 258, "dateTime": 1511200729870, "trialdata": {"rt": -1, "stimulus": "<p id=\"stim\">DANCER</p>", "key_press": -1, "type": "PRES_VIS", "word": "dancer", "wordID": 436, "conditions": [24, 800, "v", 24000], "trial": 6, "serialpos": 21, "trial_type": "single-stim", "trial_index": 258, "time_elapsed": 1106380, "internal_node_id": "0.0-195.0"}}, {"uniqueid": "MTK0529:34X6J5FLPU5Z63RXC43PT6QJCNSJQC", "current_trial": 259, "dateTime": 1511200731588, "trialdata": {"rt": -1, "stimulus": "<p id=\"stim\">EXPERT</p>", "key_press": -1, "type": "PRES_VIS", "word": "expert", "wordID": 542, "conditions": [24, 800, "v", 24000], "trial": 6, "serialpos": 22, "trial_type": "single-stim", "trial_index": 259, "time_elapsed": 1108098, "internal_node_id": "0.0-196.0"}}, {"uniqueid": "MTK0529:34X6J5FLPU5Z63RXC43PT6QJCNSJQC", "current_trial": 260, "dateTime": 1511200733192, "trialdata": {"rt": -1, "stimulus": "<p id=\"stim\">MARROW</p>", "key_press": -1, "type": "PRES_VIS", "word": "marrow", "wordID": 871, "conditions": [24, 800, "v", 24000], "trial": 6, "serialpos": 23, "trial_type": "single-stim", "trial_index": 260, "time_elapsed": 1109702, "internal_node_id": "0.0-197.0"}}, {"uniqueid": "MTK0529:34X6J5FLPU5Z63RXC43PT6QJCNSJQC", "current_trial": 261, "dateTime": 1511200735555, "trialdata": {"rt": -1, "stimulus": "", "key_press": -1, "type": "PRE_RECALL_DELAY", "trial_type": "single-stim", "trial_index": 261, "time_elapsed": 1112065, "internal_node_id": "0.0-198.0-0.0"}}, {"uniqueid": "MTK0529:34X6J5FLPU5Z63RXC43PT6QJCNSJQC", "current_trial": 262, "dateTime": 1511200736057, "trialdata": {"rt": -1000, "stimulus": "/static/audio/400Hz.wav", "key_press": -1, "type": "PRE_RECALL_ALERT", "trial_type": "single-audio", "trial_index": 262, "time_elapsed": 1112567, "internal_node_id": "0.0-199.0"}}, {"uniqueid": "MTK0529:34X6J5FLPU5Z63RXC43PT6QJCNSJQC", "current_trial": 263, "dateTime": 1511200796069, "trialdata": {"rt": [2010, 4835, 6616, 9406, 10814, 13449, 15618, 21625, 28234, 34853], "recwords": ["girl", "daughter", "globe", "wasp", "marrow", "trombone", "banjo", "rabbit", "treat", "harp"], "type": "FREE_RECALL", "conditions": [24, 800, "v", 24000], "trial": 6, "trial_type": "free-recall", "trial_index": 263, "time_elapsed": 1172572, "internal_node_id": "0.0-200.0-0.0"}}, {"uniqueid": "MTK0529:34X6J5FLPU5Z63RXC43PT6QJCNSJQC", "current_trial": 264, "dateTime": 1511200798540, "trialdata": {"rt": 468, "key_press": 32, "type": "INSTRUCTIONS", "trial_type": "text", "trial_index": 264, "time_elapsed": 1175049, "internal_node_id": "0.0-201.0"}}, {"uniqueid": "MTK0529:34X6J5FLPU5Z63RXC43PT6QJCNSJQC", "current_trial": 265, "dateTime": 1511200812561, "trialdata": {"rt": [2863, 4835, 7656, 9367, 11484], "responses": ["10", "14", "19", "10", "1"], "num1": [2, 8, 7, 2, 9, 2], "num2": [2, 4, 8, 6, 2, 2], "num3": [6, 2, 4, 2, 7, 9], "type": "DISTRACTOR", "conditions": [12, 800, "a", 12000], "trial": 7, "trial_type": "math-distractor", "trial_index": 265, "time_elapsed": 1189070, "internal_node_id": "0.0-202.0"}}, {"uniqueid": "MTK0529:34X6J5FLPU5Z63RXC43PT6QJCNSJQC", "current_trial": 266, "dateTime": 1511200815565, "trialdata": {"rt": -1, "stimulus": "<p id=\"stim\">10</p>", "key_press": -1, "trial_type": "single-stim", "trial_index": 266, "time_elapsed": 1192074, "internal_node_id": "0.0-203.0-0.0"}}, {"uniqueid": "MTK0529:34X6J5FLPU5Z63RXC43PT6QJCNSJQC", "current_trial": 267, "dateTime": 1511200816566, "trialdata": {"rt": -1, "stimulus": "<p id=\"stim\">9</p>", "key_press": -1, "trial_type": "single-stim", "trial_index": 267, "time_elapsed": 1193076, "internal_node_id": "0.0-203.0-1.0"}}, {"uniqueid": "MTK0529:34X6J5FLPU5Z63RXC43PT6QJCNSJQC", "current_trial": 268, "dateTime": 1511200817570, "trialdata": {"rt": -1, "stimulus": "<p id=\"stim\">8</p>", "key_press": -1, "trial_type": "single-stim", "trial_index": 268, "time_elapsed": 1194079, "internal_node_id": "0.0-203.0-2.0"}}, {"uniqueid": "MTK0529:34X6J5FLPU5Z63RXC43PT6QJCNSJQC", "current_trial": 269, "dateTime": 1511200818571, "trialdata": {"rt": -1, "stimulus": "<p id=\"stim\">7</p>", "key_press": -1, "trial_type": "single-stim", "trial_index": 269, "time_elapsed": 1195081, "internal_node_id": "0.0-203.0-3.0"}}, {"uniqueid"