{"condition": 0, "counterbalance": 493, "assignmentId": "3YZ8UPK3VUT4QIS8JL68G3ADNOFUC2", "workerId": "MTK0209", "hitId": "38F60IALAGO39TK9HYICRMQQIVMT0O", "currenttrial": 625, "bonus": 0, "data": [{"uniqueid": "MTK0209:3YZ8UPK3VUT4QIS8JL68G3ADNOFUC2", "current_trial": 0, "dateTime": 1509546477507, "trialdata": {"rt": 9290, "key_press": 32, "type": "INSTRUCTIONS", "trial_type": "text", "trial_index": 0, "time_elapsed": 9292, "internal_node_id": "0.0-0.0"}}, {"uniqueid": "MTK0209:3YZ8UPK3VUT4QIS8JL68G3ADNOFUC2", "current_trial": 1, "dateTime": 1509546488114, "trialdata": {"rt": 10605, "key_press": 32, "type": "INSTRUCTIONS", "trial_type": "text", "trial_index": 1, "time_elapsed": 19900, "internal_node_id": "0.0-1.0"}}, {"uniqueid": "MTK0209:3YZ8UPK3VUT4QIS8JL68G3ADNOFUC2", "current_trial": 2, "dateTime": 1509546492203, "trialdata": {"rt": [4039], "responses": ["ocean"], "type": "AUDIO_TEST", "trial_type": "audio-test", "trial_index": 2, "time_elapsed": 23989, "internal_node_id": "0.0-2.0"}}, {"uniqueid": "MTK0209:3YZ8UPK3VUT4QIS8JL68G3ADNOFUC2", "current_trial": 3, "dateTime": 1509546499180, "trialdata": {"rt": [6961], "responses": ["crystal"], "type": "AUDIO_TEST", "trial_type": "audio-test", "trial_index": 3, "time_elapsed": 30965, "internal_node_id": "0.0-3.0"}}, {"uniqueid": "MTK0209:3YZ8UPK3VUT4QIS8JL68G3ADNOFUC2", "current_trial": 4, "dateTime": 1509546504371, "trialdata": {"rt": [5176], "responses": ["spice"], "type": "AUDIO_TEST", "trial_type": "audio-test", "trial_index": 4, "time_elapsed": 36157, "internal_node_id": "0.0-4.0"}}, {"uniqueid": "MTK0209:3YZ8UPK3VUT4QIS8JL68G3ADNOFUC2", "current_trial": 5, "dateTime": 1509546514096, "trialdata": {"rt": 8972, "key_press": 32, "type": "INSTRUCTIONS", "trial_type": "text", "trial_index": 5, "time_elapsed": 45881, "internal_node_id": "0.0-5.0"}}, {"uniqueid": "MTK0209:3YZ8UPK3VUT4QIS8JL68G3ADNOFUC2", "current_trial": 6, "dateTime": 1509546533506, "trialdata": {"rt": 19408, "key_press": 32, "type": "INSTRUCTIONS", "trial_type": "text", "trial_index": 6, "time_elapsed": 65291, "internal_node_id": "0.0-6.0"}}, {"uniqueid": "MTK0209:3YZ8UPK3VUT4QIS8JL68G3ADNOFUC2", "current_trial": 7, "dateTime": 1509546540793, "trialdata": {"rt": 7285, "key_press": 32, "type": "INSTRUCTIONS", "trial_type": "text", "trial_index": 7, "time_elapsed": 72579, "internal_node_id": "0.0-7.0"}}, {"uniqueid": "MTK0209:3YZ8UPK3VUT4QIS8JL68G3ADNOFUC2", "current_trial": 8, "dateTime": 1509546546290, "trialdata": {"rt": 5495, "key_press": 32, "type": "INSTRUCTIONS", "trial_type": "text", "trial_index": 8, "time_elapsed": 78076, "internal_node_id": "0.0-8.0"}}, {"uniqueid": "MTK0209:3YZ8UPK3VUT4QIS8JL68G3ADNOFUC2", "current_trial": 9, "dateTime": 1509546565307, "trialdata": {"rt": [4736, 7247, 9080, 11375, 13071, 14671, 16295], "responses": ["24", "19", "15", "12", "7", "21", "10"], "num1": [6, 9, 6, 2, 1, 7, 6, 1], "num2": [9, 8, 7, 7, 2, 7, 2, 9], "num3": [9, 2, 2, 3, 4, 7, 2, 9], "type": "DISTRACTOR", "conditions": [18, 1200, "v", 18000], "trial": 0, "trial_type": "math-distractor", "trial_index": 9, "time_elapsed": 97092, "internal_node_id": "0.0-9.0"}}, {"uniqueid": "MTK0209:3YZ8UPK3VUT4QIS8JL68G3ADNOFUC2", "current_trial": 10, "dateTime": 1509546568309, "trialdata": {"rt": -1, "stimulus": "<p id=\"stim\">10</p>", "key_press": -1, "trial_type": "single-stim", "trial_index": 10, "time_elapsed": 100095, "internal_node_id": "0.0-10.0-0.0"}}, {"uniqueid": "MTK0209:3YZ8UPK3VUT4QIS8JL68G3ADNOFUC2", "current_trial": 11, "dateTime": 1509546569311, "trialdata": {"rt": -1, "stimulus": "<p id=\"stim\">9</p>", "key_press": -1, "trial_type": "single-stim", "trial_index": 11, "time_elapsed": 101096, "internal_node_id": "0.0-10.0-1.0"}}, {"uniqueid": "MTK0209:3YZ8UPK3VUT4QIS8JL68G3ADNOFUC2", "current_trial": 12, "dateTime": 1509546570312, "trialdata": {"rt": -1, "stimulus": "<p id=\"stim\">8</p>", "key_press": -1, "trial_type": "single-stim", "trial_index": 12, "time_elapsed": 102097, "internal_node_id": "0.0-10.0-2.0"}}, {"uniqueid": "MTK0209:3YZ8UPK3VUT4QIS8JL68G3ADNOFUC2", "current_trial": 13, "dateTime": 1509546571312, "trialdata": {"rt": -1, "stimulus": "<p id=\"stim\">7</p>", "key_press": -1, "trial_type": "single-stim", "trial_index": 13, "time_elapsed": 103098, "internal_node_id": "0.0-10.0-3.0"}}, {"uniqueid": "MTK0209:3YZ8UPK3VUT4QIS8JL68G3ADNOFUC2", "current_trial": 14, "dateTime": 1509546572313, "trialdata": {"rt": -1, "stimulus": "<p id=\"stim\">6</p>", "key_press": -1, "trial_type": "single-stim", "trial_index": 14, "time_elapsed": 104099, "internal_node_id": "0.0-10.0-4.0"}}, {"uniqueid": "MTK0209:3YZ8UPK3VUT4QIS8JL68G3ADNOFUC2", "current_trial": 15, "dateTime": 1509546573315, "trialdata": {"rt": -1, "stimulus": "<p id=\"stim\">5</p>", "key_press": -1, "trial_type": "single-stim", "trial_index": 15, "time_elapsed": 105101, "internal_node_id": "0.0-10.0-5.0"}}, {"uniqueid": "MTK0209:3YZ8UPK3VUT4QIS8JL68G3ADNOFUC2", "current_trial": 16, "dateTime": 1509546574317, "trialdata": {"rt": -1, "stimulus": "<p id=\"stim\">4</p>", "key_press": -1, "trial_type": "single-stim", "trial_index": 16, "time_elapsed": 106103, "internal_node_id": "0.0-10.0-6.0"}}, {"uniqueid": "MTK0209:3YZ8UPK3VUT4QIS8JL68G3ADNOFUC2", "current_trial": 17, "dateTime": 1509546575319, "trialdata": {"rt": -1, "stimulus": "<p id=\"stim\">3</p>", "key_press": -1, "trial_type": "single-stim", "trial_index": 17, "time_elapsed": 107105, "internal_node_id": "0.0-10.0-7.0"}}, {"uniqueid": "MTK0209:3YZ8UPK3VUT4QIS8JL68G3ADNOFUC2", "current_trial": 18, "dateTime": 1509546576320, "trialdata": {"rt": -1, "stimulus": "<p id=\"stim\">2</p>", "key_press": -1, "trial_type": "single-stim", "trial_index": 18, "time_elapsed": 108106, "internal_node_id": "0.0-10.0-8.0"}}, {"uniqueid": "MTK0209:3YZ8UPK3VUT4QIS8JL68G3ADNOFUC2", "current_trial": 19, "dateTime": 1509546577322, "trialdata": {"rt": -1, "stimulus": "<p id=\"stim\">1</p>", "key_press": -1, "trial_type": "single-stim", "trial_index": 19, "time_elapsed": 109108, "internal_node_id": "0.0-10.0-9.0"}}, {"uniqueid": "MTK0209:3YZ8UPK3VUT4QIS8JL68G3ADNOFUC2", "current_trial": 20, "dateTime": 1509546578825, "trialdata": {"rt": -1, "stimulus": "<p id=\"stim\">+</p>", "key_press": -1, "type": "FIXATION", "trial_type": "single-stim", "trial_index": 20, "time_elapsed": 110611, "internal_node_id": "0.0-11.0-0.0"}}, {"uniqueid": "MTK0209:3YZ8UPK3VUT4QIS8JL68G3ADNOFUC2", "current_trial": 21, "dateTime": 1509546580028, "trialdata": {"rt": -1, "stimulus": "<p id=\"stim\">CRUTCH</p>", "key_press": -1, "type": "PRES_VIS", "word": "crutch", "wordID": 416, "conditions": [18, 1200, "v", 18000], "trial": 0, "serialpos": 0, "trial_type": "single-stim", "trial_index": 21, "time_elapsed": 111813, "internal_node_id": "0.0-12.0"}}, {"uniqueid": "MTK0209:3YZ8UPK3VUT4QIS8JL68G3ADNOFUC2", "current_trial": 22, "dateTime": 1509546582195, "trialdata": {"rt": -1, "stimulus": "<p id=\"stim\">MILK</p>", "key_press": -1, "type": "PRES_VIS", "word": "milk", "wordID": 894, "conditions": [18, 1200, "v", 18000], "trial": 0, "serialpos": 1, "trial_type": "single-stim", "trial_index": 22, "time_elapsed": 113981, "internal_node_id": "0.0-13.0"}}, {"uniqueid": "MTK0209:3YZ8UPK3VUT4QIS8JL68G3ADNOFUC2", "current_trial": 23, "dateTime": 1509546584465, "trialdata": {"rt": -1, "stimulus": "<p id=\"stim\">RECORD</p>", "key_press": -1, "type": "PRES_VIS", "word": "record", "wordID": 1175, "conditions": [18, 1200, "v", 18000], "trial": 0, "serialpos": 2, "trial_type": "single-stim", "trial_index": 23, "time_elapsed": 116250, "internal_node_id": "0.0-14.0"}}, {"uniqueid": "MTK0209:3YZ8UPK3VUT4QIS8JL68G3ADNOFUC2", "current_trial": 24, "dateTime": 1509546586606, "trialdata": {"rt": -1, "stimulus": "<p id=\"stim\">PERMIT</p>", "key_press": -1, "type": "PRES_VIS", "word": "permit", "wordID": 1050, "conditions": [18, 1200, "v", 18000], "trial": 0, "serialpos": 3, "trial_type": "single-stim", "trial_index": 24, "time_elapsed": 118391, "internal_node_id": "0.0-15.0"}}, {"uniqueid": "MTK0209:3YZ8UPK3VUT4QIS8JL68G3ADNOFUC2", "current_trial": 25, "dateTime": 1509546588873, "trialdata": {"rt": -1, "stimulus": "<p id=\"stim\">WAITER</p>", "key_press": -1, "type": "PRES_VIS", "word": "waiter", "wordID": 1579, "conditions": [18, 1200, "v", 18000], "trial": 0, "serialpos": 4, "trial_type": "single-stim", "trial_index": 25, "time_elapsed": 120658, "internal_node_id": "0.0-16.0"}}, {"uniqueid": "MTK0209:3YZ8UPK3VUT4QIS8JL68G3ADNOFUC2", "current_trial": 26, "dateTime": 1509546591069, "trialdata": {"rt": -1, "stimulus": "<p id=\"stim\">TOASTER</p>", "key_press": -1, "type": "PRES_VIS", "word": "toaster", "wordID": 1471, "conditions": [18, 1200, "v", 18000], "trial": 0, "serialpos": 5, "trial_type": "single-stim", "trial_index": 26, "time_elapsed": 122855, "internal_node_id": "0.0-17.0"}}, {"uniqueid": "MTK0209:3YZ8UPK3VUT4QIS8JL68G3ADNOFUC2", "current_trial": 27, "dateTime": 1509546593339, "trialdata": {"rt": -1, "stimulus": "<p id=\"stim\">EGYPT</p>", "key_press": -1, "type": "PRES_VIS", "word": "egypt", "wordID": 518, "conditions": [18, 1200, "v", 18000], "trial": 0, "serialpos": 6, "trial_type": "single-stim", "trial_index": 27, "time_elapsed": 125125, "internal_node_id": "0.0-18.0"}}, {"uniqueid": "MTK0209:3YZ8UPK3VUT4QIS8JL68G3ADNOFUC2", "current_trial": 28, "dateTime": 1509546595472, "trialdata": {"rt": -1, "stimulus": "<p id=\"stim\">GLOBE</p>", "key_press": -1, "type": "PRES_VIS", "word": "globe", "wordID": 640, "conditions": [18, 1200, "v", 18000], "trial": 0, "serialpos": 7, "trial_type": "single-stim", "trial_index": 28, "time_elapsed": 127257, "internal_node_id": "0.0-19.0"}}, {"uniqueid": "MTK0209:3YZ8UPK3VUT4QIS8JL68G3ADNOFUC2", "current_trial": 29, "dateTime": 1509546597609, "trialdata": {"rt": -1, "stimulus": "<p id=\"stim\">SPOOL</p>", "key_press": -1, "type": "PRES_VIS", "word": "spool", "wordID": 1355, "conditions": [18, 1200, "v", 18000], "trial": 0, "serialpos": 8, "trial_type": "single-stim", "trial_index": 29, "time_elapsed": 129394, "internal_node_id": "0.0-20.0"}}, {"uniqueid": "MTK0209:3YZ8UPK3VUT4QIS8JL68G3ADNOFUC2", "current_trial": 30, "dateTime": 1509546599746, "trialdata": {"rt": -1, "stimulus": "<p id=\"stim\">PARENT</p>", "key_press": -1, "type": "PRES_VIS", "word": "parent", "wordID": 1012, "conditions": [18, 1200, "v", 18000], "trial": 0, "serialpos": 9, "trial_type": "single-stim", "trial_index": 30, "time_elapsed": 131531, "internal_node_id": "0.0-21.0"}}, {"uniqueid": "MTK0209:3YZ8UPK3VUT4QIS8JL68G3ADNOFUC2", "current_trial": 31, "dateTime": 1509546601890, "trialdata": {"rt": -1, "stimulus": "<p id=\"stim\">JUNGLE</p>", "key_press": -1, "type": "PRES_VIS", "word": "jungle", "wordID": 763, "conditions": [18, 1200, "v", 18000], "trial": 0, "serialpos": 10, "trial_type": "single-stim", "trial_index": 31, "time_elapsed": 133676, "internal_node_id": "0.0-22.0"}}, {"uniqueid": "MTK0209:3YZ8UPK3VUT4QIS8JL68G3ADNOFUC2", "current_trial": 32, "dateTime": 1509546604165, "trialdata": {"rt": -1, "stimulus": "<p id=\"stim\">PADDLE</p>", "key_press": -1, "type": "PRES_VIS", "word": "paddle", "wordID": 999, "conditions": [18, 1200, "v", 18000], "trial": 0, "serialpos": 11, "trial_type": "single-stim", "trial_index": 32, "time_elapsed": 135951, "internal_node_id": "0.0-23.0"}}, {"uniqueid": "MTK0209:3YZ8UPK3VUT4QIS8JL68G3ADNOFUC2", "current_trial": 33, "dateTime": 1509546606167, "trialdata": {"rt": -1, "stimulus": "<p id=\"stim\">LAPEL</p>", "key_press": -1, "type": "PRES_VIS", "word": "lapel", "wordID": 799, "conditions": [18, 1200, "v", 18000], "trial": 0, "serialpos": 12, "trial_type": "single-stim", "trial_index": 33, "time_elapsed": 137953, "internal_node_id": "0.0-24.0"}}, {"uniqueid": "MTK0209:3YZ8UPK3VUT4QIS8JL68G3ADNOFUC2", "current_trial": 34, "dateTime": 1509546608270, "trialdata": {"rt": -1, "stimulus": "<p id=\"stim\">COSTUME</p>", "key_press": -1, "type": "PRES_VIS", "word": "costume", "wordID": 382, "conditions": [18, 1200, "v", 18000], "trial": 0, "serialpos": 13, "trial_type": "single-stim", "trial_index": 34, "time_elapsed": 140055, "internal_node_id": "0.0-25.0"}}, {"uniqueid": "MTK0209:3YZ8UPK3VUT4QIS8JL68G3ADNOFUC2", "current_trial": 35, "dateTime": 1509546610469, "trialdata": {"rt": -1, "stimulus": "<p id=\"stim\">MUMMY</p>", "key_press": -1, "type": "PRES_VIS", "word": "mummy", "wordID": 931, "conditions": [18, 1200, "v", 18000], "trial": 0, "serialpos": 14, "trial_type": "single-stim", "trial_index": 35, "time_elapsed": 142254, "internal_node_id": "0.0-26.0"}}, {"uniqueid": "MTK0209:3YZ8UPK3VUT4QIS8JL68G3ADNOFUC2", "current_trial": 36, "dateTime": 1509546612538, "trialdata": {"rt": -1, "stimulus": "<p id=\"stim\">BEAKER</p>", "key_press": -1, "type": "PRES_VIS", "word": "beaker", "wordID": 103, "conditions": [18, 1200, "v", 18000], "trial": 0, "serialpos": 15, "trial_type": "single-stim", "trial_index": 36, "time_elapsed": 144324, "internal_node_id": "0.0-27.0"}}, {"uniqueid": "MTK0209:3YZ8UPK3VUT4QIS8JL68G3ADNOFUC2", "current_trial": 37, "dateTime": 1509546614907, "trialdata": {"rt": -1, "stimulus": "<p id=\"stim\">ACTOR</p>", "key_press": -1, "type": "PRES_VIS", "word": "actor", "wordID": 4, "conditions": [18, 1200, "v", 18000], "trial": 0, "serialpos": 16, "trial_type": "single-stim", "trial_index": 37, "time_elapsed": 146693, "internal_node_id": "0.0-28.0"}}, {"uniqueid": "MTK0209:3YZ8UPK3VUT4QIS8JL68G3ADNOFUC2", "current_trial": 38, "dateTime": 1509546617116, "trialdata": {"rt": -1, "stimulus": "<p id=\"stim\">POSTAGE</p>", "key_press": -1, "type": "PRES_VIS", "word": "postage", "wordID": 1112, "conditions": [18, 1200, "v", 18000], "trial": 0, "serialpos": 17, "trial_type": "single-stim", "trial_index": 38, "time_elapsed": 148902, "internal_node_id": "0.0-29.0"}}, {"uniqueid": "MTK0209:3YZ8UPK3VUT4QIS8JL68G3ADNOFUC2", "current_trial": 39, "dateTime": 1509546619185, "trialdata": {"rt": -1, "stimulus": "", "key_press": -1, "type": "PRE_RECALL_DELAY", "trial_type": "single-stim", "trial_index": 39, "time_elapsed": 150971, "internal_node_id": "0.0-30.0-0.0"}}, {"uniqueid": "MTK0209:3YZ8UPK3VUT4QIS8JL68G3ADNOFUC2", "current_trial": 40, "dateTime": 1509546619687, "trialdata": {"rt": -1000, "stimulus": "/static/audio/400Hz.wav", "key_press": -1, "type": "PRE_RECALL_ALERT", "trial_type": "single-audio", "trial_index": 40, "time_elapsed": 151473, "internal_node_id": "0.0-31.0"}}, {"uniqueid": "MTK0209:3YZ8UPK3VUT4QIS8JL68G3ADNOFUC2", "current_trial": 41, "dateTime": 1509546679704, "trialdata": {"rt": [2868, 3789, 4692, 5524, 6509, 7700, 9285, 13380, 16588, 17565, 23356, 24468, 26676, 58829], "recwords": ["crutch", "milk", "actor", "parent", "permit", "record", "lapel", "egypt", "record", "permit", "postage", "beaker", "spool", ""], "type": "FREE_RECALL", "conditions": [18, 1200, "v", 18000], "trial": 0, "trial_type": "free-recall", "trial_index": 41, "time_elapsed": 211480, "internal_node_id": "0.0-32.0-0.0"}}, {"uniqueid": "MTK0209:3YZ8UPK3VUT4QIS8JL68G3ADNOFUC2", "current_trial": 42, "dateTime": 1509546698558, "trialdata": {"rt": 16853, "key_press": 32, "type": "INSTRUCTIONS", "trial_type": "text", "trial_index": 42, "time_elapsed": 230344, "internal_node_id": "0.0-33.0"}}, {"uniqueid": "MTK0209:3YZ8UPK3VUT4QIS8JL68G3ADNOFUC2", "current_trial": 43, "dateTime": 1509546718565, "trialdata": {"rt": [5123, 6963, 8996, 11868, 16252], "responses": ["22", "14", "17", "20", "24"], "num1": [8, 5, 7, 6, 7, 1], "num2": [9, 5, 2, 9, 9, 1], "num3": [5, 4, 8, 5, 8, 9], "type": "DISTRACTOR", "conditions": [18, 1200, "a", 18000], "trial": 1, "trial_type": "math-distractor", "trial_index": 43, "time_elapsed": 250351, "internal_node_id": "0.0-34.0"}}, {"uniqueid": "MTK0209:3YZ8UPK3VUT4QIS8JL68G3ADNOFUC2", "current_trial": 44, "dateTime": 1509546721568, "trialdata": {"rt": -1, "stimulus": "<p id=\"stim\">10</p>", "key_press": -1, "trial_type": "single-stim", "trial_index": 44, "time_elapsed": 253354, "internal_node_id": "0.0-35.0-0.0"}}, {"uniqueid": "MTK0209:3YZ8UPK3VUT4QIS8JL68G3ADNOFUC2", "current_trial": 45, "dateTime": 1509546722569, "trialdata": {"rt": -1, "stimulus": "<p id=\"stim\">9</p>", "key_press": -1, "trial_type": "single-stim", "trial_index": 45, "time_elapsed": 254355, "internal_node_id": "0.0-35.0-1.0"}}, {"uniqueid": "MTK0209:3YZ8UPK3VUT4QIS8JL68G3ADNOFUC2", "current_trial": 46, "dateTime": 1509546723570, "trialdata": {"rt": -1, "stimulus": "<p id=\"stim\">8</p>", "key_press": -1, "trial_type": "single-stim", "trial_index": 46, "time_elapsed": 255356, "internal_node_id": "0.0-35.0-2.0"}}, {"uniqueid": "MTK0209:3YZ8UPK3VUT4QIS8JL68G3ADNOFUC2", "current_trial": 47, "dateTime": 1509546724571, "trialdata": {"rt": -1, "stimulus": "<p id=\"stim\">7</p>", "key_press": -1, "trial_type": "single-stim", "trial_index": 47, "time_elapsed": 256357, "internal_node_id": "0.0-35.0-3.0"}}, {"uniqueid": "MTK0209:3YZ8UPK3VUT4QIS8JL68G3ADNOFUC2", "current_trial": 48, "dateTime": 1509546725572, "trialdata": {"rt": -1, "stimulus": "<p id=\"stim\">6</p>", "key_press": -1, "trial_type": "single-stim", "trial_index": 48, "time_elapsed": 257358, "internal_node_id": "0.0-35.0-4.0"}}, {"uniqueid": "MTK0209:3YZ8UPK3VUT4QIS8JL68G3ADNOFUC2", "current_trial": 49, "dateTime": 1509546726574, "trialdata": {"rt": -1, "stimulus": "<p id=\"stim\">5</p>", "key_press": -1, "trial_type": "single-stim", "trial_index": 49, "time_elapsed": 258360, "internal_node_id": "0.0-35.0-5.0"}}, {"uniqueid": "MTK0209:3YZ8UPK3VUT4QIS8JL68G3ADNOFUC2", "current_trial": 50, "dateTime": 1509546727575, "trialdata": {"rt": -1, "stimulus": "<p id=\"stim\">4</p>", "key_press": -1, "trial_type": "single-stim", "trial_index": 50, "time_elapsed": 259361, "internal_node_id": "0.0-35.0-6.0"}}, {"uniqueid": "MTK0209:3YZ8UPK3VUT4QIS8JL68G3ADNOFUC2", "current_trial": 51, "dateTime": 1509546728576, "trialdata": {"rt": -1, "stimulus": "<p id=\"stim\">3</p>", "key_press": -1, "trial_type": "single-stim", "trial_index": 51, "time_elapsed": 260362, "internal_node_id": "0.0-35.0-7.0"}}, {"uniqueid": "MTK0209:3YZ8UPK3VUT4QIS8JL68G3ADNOFUC2", "current_trial": 52, "dateTime": 1509546729578, "trialdata": {"rt": -1, "stimulus": "<p id=\"stim\">2</p>", "key_press": -1, "trial_type": "single-stim", "trial_index": 52, "time_elapsed": 261364, "internal_node_id": "0.0-35.0-8.0"}}, {"uniqueid": "MTK0209:3YZ8UPK3VUT4QIS8JL68G3ADNOFUC2", "current_trial": 53, "dateTime": 1509546730579, "trialdata": {"rt": -1, "stimulus": "<p id=\"stim\">1</p>", "key_press": -1, "trial_type": "single-stim", "trial_index": 53, "time_elapsed": 262365, "internal_node_id": "0.0-35.0-9.0"}}, {"uniqueid": "MTK0209:3YZ8UPK3VUT4QIS8JL68G3ADNOFUC2", "current_trial": 54, "dateTime": 1509546732081, "trialdata": {"rt": -1, "stimulus": "<p id=\"stim\">+</p>", "key_press": -1, "type": "FIXATION", "trial_type": "single-stim", "trial_index": 54, "time_elapsed": 263867, "internal_node_id": "0.0-36.0-0.0"}}, {"uniqueid": "MTK0209:3YZ8UPK3VUT4QIS8JL68G3ADNOFUC2", "current_trial": 55, "dateTime": 1509546734468, "trialdata": {"rt": -1000, "stimulus": "/static/audio/wordpool/FLASHLIGHT.wav", "key_press": -1, "type": "PRES_AUD", "word": "flashlight", "wordID": 574, "conditions": [18, 1200, "a", 18000], "trial": 1, "serialpos": 0, "trial_type": "single-audio", "trial_index": 55, "time_elapsed": 266254, "internal_node_id": "0.0-37.0"}}, {"uniqueid": "MTK0209:3YZ8UPK3VUT4QIS8JL68G3ADNOFUC2", "current_trial": 56, "dateTime": 1509546736691, "trialdata": {"rt": -1000, "stimulus": "/static/audio/wordpool/TABLE.wav", "key_press": -1, "type": "PRES_AUD", "word": "table", "wordID": 1425, "conditions": [18, 1200, "a", 18000], "trial": 1, "serialpos": 1, "trial_type": "single-audio", "trial_index": 56, "time_elapsed": 268477, "internal_node_id": "0.0-38.0"}}, {"uniqueid": "MTK0209:3YZ8UPK3VUT4QIS8JL68G3ADNOFUC2", "current_trial": 57, "dateTime": 1509546739004, "trialdata": {"rt": -1000, "stimulus": "/static/audio/wordpool/PICNIC.wav", "key_press": -1, "type": "PRES_AUD", "word": "picnic", "wordID": 1059, "conditions": [18, 1200, "a", 18000], "trial": 1, "serialpos": 2, "trial_type": "single-audio", "trial_index": 57, "time_elapsed": 270790, "internal_node_id": "0.0-39.0"}}, {"uniqueid": "MTK0209:3YZ8UPK3VUT4QIS8JL68G3ADNOFUC2", "current_trial": 58, "dateTime": 1509546741073, "trialdata": {"rt": -1000, "stimulus": "/static/audio/wordpool/COUNTY.wav", "key_press": -1, "type": "PRES_AUD", "word": "county", "wordID": 388, "conditions": [18, 1200, "a", 18000], "trial": 1, "serialpos": 3, "trial_type": "single-audio", "trial_index": 58, "time_elapsed": 272859, "internal_node_id": "0.0-40.0"}}, {"uniqueid": "MTK0209:3YZ8UPK3VUT4QIS8JL68G3ADNOFUC2", "current_trial": 59, "dateTime": 1509546743375, "trialdata": {"rt": -1000, "stimulus": "/static/audio/wordpool/LOVER.wav", "key_press": -1, "type": "PRES_AUD", "word": "lover", "wordID": 845, "conditions": [18, 1200, "a", 18000], "trial": 1, "serialpos": 4, "trial_type": "single-audio", "trial_index": 59, "time_elapsed": 275161, "internal_node_id": "0.0-41.0"}}, {"uniqueid": "MTK0209:3YZ8UPK3VUT4QIS8JL68G3ADNOFUC2", "current_trial": 60, "dateTime": 1509546745664, "trialdata": {"rt": -1000, "stimulus": "/static/audio/wordpool/SLIME.wav", "key_press": -1, "type": "PRES_AUD", "word": "slime", "wordID": 1326, "conditions": [18, 1200, "a", 18000], "trial": 1, "serialpos": 5, "trial_type": "single-audio", "trial_index": 60, "time_elapsed": 277450, "internal_node_id": "0.0-42.0"}}, {"uniqueid": "MTK0209:3YZ8UPK3VUT4QIS8JL68G3ADNOFUC2", "current_trial": 61, "dateTime": 1509546747790, "trialdata": {"rt": -1000, "stimulus": "/static/audio/wordpool/STALLION.wav", "key_press": -1, "type": "PRES_AUD", "word": "stallion", "wordID": 1368, "conditions": [18, 1200, "a", 18000], "trial": 1, "serialpos": 6, "trial_type": "single-audio", "trial_index": 61, "time_elapsed": 279576, "internal_node_id": "0.0-43.0"}}, {"uniqueid": "MTK0209:3YZ8UPK3VUT4QIS8JL68G3ADNOFUC2", "current_trial": 62, "dateTime": 1509546750036, "trialdata": {"rt": -1000, "stimulus": "/static/audio/wordpool/GARLIC.wav", "key_press": -1, "type": "PRES_AUD", "word": "garlic", "wordID": 623, "conditions": [18, 1200, "a", 18000], "trial": 1, "serialpos": 7, "trial_type": "single-audio", "trial_index": 62, "time_elapsed": 281821, "internal_node_id": "0.0-44.0"}}, {"uniqueid": "MTK0209:3YZ8UPK3VUT4QIS8JL68G3ADNOFUC2", "current_trial": 63, "dateTime": 1509546752205, "trialdata": {"rt": -1000, "stimulus": "/static/audio/wordpool/ACTRESS.wav", "key_press": -1, "type": "PRES_AUD", "word": "actress", "wordID": 5, "conditions": [18, 1200, "a", 18000], "trial": 1, "serialpos": 8, "trial_type": "single-audio", "trial_index": 63, "time_elapsed": 283991, "internal_node_id": "0.0-45.0"}}, {"uniqueid": "MTK0209:3YZ8UPK3VUT4QIS8JL68G3ADNOFUC2", "current_trial": 64, "dateTime": 1509546754241, "trialdata": {"rt": -1000, "stimulus": "/static/audio/wordpool/FIREPLACE.wav", "key_press": -1, "type": "PRES_AUD", "word": "fireplace", "wordID": 569, "conditions": [18, 1200, "a", 18000], "trial": 1, "serialpos": 9, "trial_type": "single-audio", "trial_index": 64, "time_elapsed": 286027, "internal_node_id": "0.0-46.0"}}, {"uniqueid": "MTK0209:3YZ8UPK3VUT4QIS8JL68G3ADNOFUC2", "current_trial": 65, "dateTime": 1509546756567, "trialdata": {"rt": -1000, "stimulus": "/static/audio/wordpool/HAMPER.wav", "key_press": -1, "type": "PRES_AUD", "word": "hamper", "wordID": 681, "conditions": [18, 1200, "a", 18000], "trial": 1, "serialpos": 10, "trial_type": "single-audio", "trial_index": 65, "time_elapsed": 288353, "internal_node_id": "0.0-47.0"}}, {"uniqueid": "MTK0209:3YZ8UPK3VUT4QIS8JL68G3ADNOFUC2", "current_trial": 66, "dateTime": 1509546758804, "trialdata": {"rt": -1000, "stimulus": "/static/audio/wordpool/LACE.wav", "key_press": -1, "type": "PRES_AUD", "word": "lace", "wordID": 791, "conditions": [18, 1200, "a", 18000], "trial": 1, "serialpos": 11, "trial_type": "single-audio", "trial_index": 66, "time_elapsed": 290589, "internal_node_id": "0.0-48.0"}}, {"uniqueid": "MTK0209:3YZ8UPK3VUT4QIS8JL68G3ADNOFUC2", "current_trial": 67, "dateTime": 1509546760891, "trialdata": {"rt": -1000, "stimulus": "/static/audio/wordpool/SOFTBALL.wav", "key_press": -1, "type": "PRES_AUD", "word": "softball", "wordID": 1342, "conditions": [18, 1200, "a", 18000], "trial": 1, "serialpos": 12, "trial_type": "single-audio", "trial_index": 67, "time_elapsed": 292676, "internal_node_id": "0.0-49.0"}}, {"uniqueid": "MTK0209:3YZ8UPK3VUT4QIS8JL68G3ADNOFUC2", "current_trial": 68, "dateTime": 1509546763276, "trialdata": {"rt": -1000, "stimulus": "/static/audio/wordpool/CHAUFFEUR.wav", "key_press": -1, "type": "PRES_AUD", "word": "chauffeur", "wordID": 282, "conditions": [18, 1200, "a", 18000], "trial": 1, "serialpos": 13, "trial_type": "single-audio", "trial_index": 68, "time_elapsed": 295062, "internal_node_id": "0.0-50.0"}}, {"uniqueid": "MTK0209:3YZ8UPK3VUT4QIS8JL68G3ADNOFUC2", "current_trial": 69, "dateTime": 1509546765574, "trialdata": {"rt": -1000, "stimulus": "/static/audio/wordpool/HIKER.wav", "key_press": -1, "type": "PRES_AUD", "word": "hiker", "wordID": 707, "conditions": [18, 1200, "a", 18000], "trial": 1, "serialpos": 14, "trial_type": "single-audio", "trial_index": 69, "time_elapsed": 297360, "internal_node_id": "0.0-51.0"}}, {"uniqueid": "MTK0209:3YZ8UPK3VUT4QIS8JL68G3ADNOFUC2", "current_trial": 70, "dateTime": 1509546767937, "trialdata": {"rt": -1000, "stimulus": "/static/audio/wordpool/ROBOT.wav", "key_press": -1, "type": "PRES_AUD", "word": "robot", "wordID": 1199, "conditions": [18, 1200, "a", 18000], "trial": 1, "serialpos": 15, "trial_type": "single-audio", "trial_index": 70, "time_elapsed": 299723, "internal_node_id": "0.0-52.0"}}, {"uniqueid": "MTK0209:3YZ8UPK3VUT4QIS8JL68G3ADNOFUC2", "current_trial": 71, "dateTime": 1509546770046, "trialdata": {"rt": -1000, "stimulus": "/static/audio/wordpool/OINTMENT.wav", "key_press": -1, "type": "PRES_AUD", "word": "ointment", "wordID": 973, "conditions": [18, 1200, "a", 18000], "trial": 1, "serialpos": 16, "trial_type": "single-audio", "trial_index": 71, "time_elapsed": 301832, "internal_node_id": "0.0-53.0"}}, {"uniqueid": "MTK0209:3YZ8UPK3VUT4QIS8JL68G3ADNOFUC2", "current_trial": 72, "dateTime": 1509546772239, "trialdata": {"rt": -1000, "stimulus": "/static/audio/wordpool/PLASTER.wav", "key_press": -1, "type": "PRES_AUD", "word": "plaster", "wordID": 1084, "conditions": [18, 1200, "a", 18000], "trial": 1, "serialpos": 17, "trial_type": "single-audio", "trial_index": 72, "time_elapsed": 304025, "internal_node_id": "0.0-54.0"}}, {"uniqueid": "MTK0209:3YZ8UPK3VUT4QIS8JL68G3ADNOFUC2", "current_trial": 73, "dateTime": 1509546773443, "trialdata": {"rt": -1, "stimulus": "", "key_press": -1, "type": "PRE_RECALL_DELAY", "trial_type": "single-stim", "trial_index": 73, "time_elapsed": 305229, "internal_node_id": "0.0-55.0-0.0"}}, {"uniqueid": "MTK0209:3YZ8UPK3VUT4QIS8JL68G3ADNOFUC2", "current_trial": 74, "dateTime": 1509546773944, "trialdata": {"rt": -1000, "stimulus": "/static/audio/400Hz.wav", "key_press": -1, "type": "PRE_RECALL_ALERT", "trial_type": "single-audio", "trial_index": 74, "time_elapsed": 305730, "internal_node_id": "0.0-56.0"}}, {"uniqueid": "MTK0209:3YZ8UPK3VUT4QIS8JL68G3ADNOFUC2", "current_trial": 75, "dateTime": 1509546833955, "trialdata": {"rt": [2820, 4180, 9140, 10476, 12356, 13843, 45227], "recwords": ["ointment", "plaster", "garlic", "camper", "hiker", "actress", ""], "type": "FREE_RECALL", "conditions": [18, 1200, "a", 18000], "trial": 1, "trial_type": "free-recall", "trial_index": 75, "time_elapsed": 365733, "internal_node_id": "0.0-57.0-0.0"}}, {"uniqueid": "MTK0209:3YZ8UPK3VUT4QIS8JL68G3ADNOFUC2", "current_trial": 76, "dateTime": 1509546870245, "trialdata": {"rt": 34289, "key_press": 32, "type": "INSTRUCTIONS", "trial_type": "text", "trial_index": 76, "time_elapsed": 402031, "internal_node_id": "0.0-58.0"}}, {"uniqueid": "MTK0209:3YZ8UPK3VUT4QIS8JL68G3ADNOFUC2", "current_trial": 77, "dateTime": 1509546883250, "trialdata": {"rt": [8708, 9781, 11212], "responses": ["20", "5", "11"], "num1": [8, 2, 2, 9], "num2": [3, 2, 1, 5], "num3": [9, 1, 8, 4], "type": "DISTRACTOR", "conditions": [12, 800, "a", 12000], "trial": 2, "trial_type": "math-distractor", "trial_index": 77, "time_elapsed": 415036, "internal_node_id": "0.0-59.0"}}, {"uniqueid": "MTK0209:3YZ8UPK3VUT4QIS8JL68G3ADNOFUC2", "current_trial": 78, "dateTime": 1509546886253, "trialdata": {"rt": -1, "stimulus": "<p id=\"stim\">10</p>", "key_press": -1, "trial_type": "single-stim", "trial_index": 78, "time_elapsed": 418038, "internal_node_id": "0.0-60.0-0.0"}}, {"uniqueid": "MTK0209:3YZ8UPK3VUT4QIS8JL68G3ADNOFUC2", "current_trial": 79, "dateTime": 1509546887253, "trialdata": {"rt": -1, "stimulus": "<p id=\"stim\">9</p>", "key_press": -1, "trial_type": "single-stim", "trial_index": 79, "time_elapsed": 419039, "internal_node_id": "0.0-60.0-1.0"}}, {"uniqueid": "MTK0209:3YZ8UPK3VUT4QIS8JL68G3ADNOFUC2", "current_trial": 80, "dateTime": 1509546888255, "trialdata": {"rt": -1, "stimulus": "<p id=\"stim\">8</p>", "key_press": -1, "trial_type": "single-stim", "trial_index": 80, "time_elapsed": 420040, "internal_node_id": "0.0-60.0-2.0"}}, {"uniqueid": "MTK0209:3YZ8UPK3VUT4QIS8JL68G3ADNOFUC2", "current_trial": 81, "dateTime": 1509546889255, "trialdata": {"rt": -1, "stimulus": "<p id=\"stim\">7</p>", "key_press": -1, "trial_type": "single-stim", "trial_index": 81, "time_elapsed": 421041, "internal_node_id": "0.0-60.0-3.0"}}, {"uniqueid": "MTK0209:3YZ8UPK3VUT4QIS8JL68G3ADNOFUC2", "current_trial": 82, "dateTime": 1509546890257, "trialdata": {"rt": -1, "stimulus": "<p id=\"stim\">6</p>", "key_press": -1, "trial_type": "single-stim", "trial_index": 82, "time_elapsed": 422043, "internal_node_id": "0.0-60.0-4.0"}}, {"uniqueid": "MTK0209:3YZ8UPK3VUT4QIS8JL68G3ADNOFUC2", "current_trial": 83, "dateTime": 1509546891258, "trialdata": {"rt": -1, "stimulus": "<p id=\"stim\">5</p>", "key_press": -1, "trial_type": "single-stim", "trial_index": 83, "time_elapsed": 423043, "internal_node_id": "0.0-60.0-5.0"}}, {"uniqueid": "MTK0209:3YZ8UPK3VUT4QIS8JL68G3ADNOFUC2", "current_trial": 84, "dateTime": 1509546892259, "trialdata": {"rt": -1, "stimulus": "<p id=\"stim\">4</p>", "key_press": -1, "trial_type": "single-stim", "trial_index": 84, "time_elapsed": 424045, "internal_node_id": "0.0-60.0-6.0"}}, {"uniqueid": "MTK0209:3YZ8UPK3VUT4QIS8JL68G3ADNOFUC2", "current_trial": 85, "dateTime": 1509546893260, "trialdata": {"rt": -1, "stimulus": "<p id=\"stim\">3</p>", "key_press": -1, "trial_type": "single-stim", "trial_index": 85, "time_elapsed": 425046, "internal_node_id": "0.0-60.0-7.0"}}, {"uniqueid": "MTK0209:3YZ8UPK3VUT4QIS8JL68G3ADNOFUC2", "current_trial": 86, "dateTime": 1509546894262, "trialdata": {"rt": -1, "stimulus": "<p id=\"stim\">2</p>", "key_press": -1, "trial_type": "single-stim", "trial_index": 86, "time_elapsed": 426048, "internal_node_id": "0.0-60.0-8.0"}}, {"uniqueid": "MTK0209:3YZ8UPK3VUT4QIS8JL68G3ADNOFUC2", "current_trial": 87, "dateTime": 1509546895262, "trialdata": {"rt": -1, "stimulus": "<p id=\"stim\">1</p>", "key_press": -1, "trial_type": "single-stim", "trial_index": 87, "time_elapsed": 427048, "internal_node_id": "0.0-60.0-9.0"}}, {"uniqueid": "MTK0209:3YZ8UPK3VUT4QIS8JL68G3ADNOFUC2", "current_trial": 88, "dateTime": 1509546896763, "trialdata": {"rt": -1, "stimulus": "<p id=\"stim\">+</p>", "key_press": -1, "type": "FIXATION", "trial_type": "single-stim", "trial_index": 88, "time_elapsed": 428549, "internal_node_id": "0.0-61.0-0.0"}}, {"uniqueid": "MTK0209:3YZ8UPK3VUT4QIS8JL68G3ADNOFUC2", "current_trial": 89, "dateTime": 1509546898470, "trialdata": {"rt": -1000, "stimulus": "/static/audio/wordpool/WAGON.wav", "key_press": -1, "type": "PRES_AUD", "word": "wagon", "wordID": 1577, "conditions": [12, 800, "a", 12000], "trial": 2, "serialpos": 0, "trial_type": "single-audio", "trial_index": 89, "time_elapsed": 430256, "internal_node_id": "0.0-62.0"}}, {"uniqueid": "MTK0209:3YZ8UPK3VUT4QIS8JL68G3ADNOFUC2", "current_trial": 90, "dateTime": 1509546900241, "trialdata": {"rt": -1000, "stimulus": "/static/audio/wordpool/TRACTOR.wav", "key_press": -1, "type": "PRES_AUD", "word": "tractor", "wordID": 1492, "conditions": [12, 800, "a", 12000], "trial": 2, "serialpos": 1, "trial_type": "single-audio", "trial_index": 90, "time_elapsed": 432027, "internal_node_id": "0.0-63.0"}}, {"uniqueid": "MTK0209:3YZ8UPK3VUT4QIS8JL68G3ADNOFUC2", "current_trial": 91, "dateTime": 1509546901852, "trialdata": {"rt": -1000, "stimulus": "/static/audio/wordpool/ROOSTER.wav", "key_press": -1, "type": "PRES_AUD", "word": "rooster", "wordID": 1208, "conditions": [12, 800, "a", 12000], "trial": 2, "serialpos": 2, "trial_type": "single-audio", "trial_index": 91, "time_elapsed": 433638, "internal_node_id": "0.0-64.0"}}, {"uniqueid": "MTK0209:3YZ8UPK3VUT4QIS8JL68G3ADNOFUC2", "current_trial": 92, "dateTime": 1509546903696, "trialdata": {"rt": -1000, "stimulus": "/static/audio/wordpool/RECEIPT.wav", "key_press": -1, "type": "PRES_AUD", "word": "receipt", "wordID": 1172, "conditions": [12, 800, "a", 12000], "trial": 2, "serialpos": 3, "trial_type": "single-audio", "trial_index": 92, "time_elapsed": 435482, "internal_node_id": "0.0-65.0"}}, {"uniqueid": "MTK0209:3YZ8UPK3VUT4QIS8JL68G3ADNOFUC2", "current_trial": 93, "dateTime": 1509546905535, "trialdata": {"rt": -1000, "stimulus": "/static/audio/wordpool/SUMMIT.wav", "key_press": -1, "type": "PRES_AUD", "word": "summit", "wordID": 1404, "conditions": [12, 800, "a", 12000], "trial": 2, "serialpos": 4, "trial_type": "single-audio", "trial_index": 93, "time_elapsed": 437321, "internal_node_id": "0.0-66.0"}}, {"uniqueid": "MTK0209:3YZ8UPK3VUT4QIS8JL68G3ADNOFUC2", "current_trial": 94, "dateTime": 1509546907459, "trialdata": {"rt": -1000, "stimulus": "/static/audio/wordpool/COMPASS.wav", "key_press": -1, "type": "PRES_AUD", "word": "compass", "wordID": 357, "conditions": [12, 800, "a", 12000], "trial": 2, "serialpos": 5, "trial_type": "single-audio", "trial_index": 94, "time_elapsed": 439245, "internal_node_id": "0.0-67.0"}}, {"uniqueid": "MTK0209:3YZ8UPK3VUT4QIS8JL68G3ADNOFUC2", "current_trial": 95, "dateTime": 1509546909077, "trialdata": {"rt": -1000, "stimulus": "/static/audio/wordpool/FRAME.wav", "key_press": -1, "type": "PRES_AUD", "word": "frame", "wordID": 599, "conditions": [12, 800, "a", 12000], "trial": 2, "serialpos": 6, "trial_type": "single-audio", "trial_index": 95, "time_elapsed": 440863, "internal_node_id": "0.0-68.0"}}, {"uniqueid": "MTK0209:3YZ8UPK3VUT4QIS8JL68G3ADNOFUC2", "current_trial": 96, "dateTime": 1509546911018, "trialdata": {"rt": -1000, "stimulus": "/static/audio/wordpool/WRIST.wav", "key_press": -1, "type": "PRES_AUD", "word": "wrist", "wordID": 1625, "conditions": [12, 800, "a", 12000], "trial": 2, "serialpos": 7, "trial_type": "single-audio", "trial_index": 96, "time_elapsed": 442804, "internal_node_id": "0.0-69.0"}}, {"uniqueid": "MTK0209:3YZ8UPK3VUT4QIS8JL68G3ADNOFUC2", "current_trial": 97, "dateTime": 1509546912668, "trialdata": {"rt": -1000, "stimulus": "/static/audio/wordpool/TAXI.wav", "key_press": -1, "type": "PRES_AUD", "word": "taxi", "wordID": 1437, "conditions": [12, 800, "a", 12000], "trial": 2, "serialpos": 8, "trial_type": "single-audio", "trial_index": 97, "time_elapsed": 444454, "internal_node_id": "0.0-70.0"}}, {"uniqueid": "MTK0209:3YZ8UPK3VUT4QIS8JL68G3ADNOFUC2", "current_trial": 98, "dateTime": 1509546914280, "trialdata": {"rt": -1000, "stimulus": "/static/audio/wordpool/FLASK.wav", "key_press": -1, "type": "PRES_AUD", "word": "flask", "wordID": 575, "conditions": [12, 800, "a", 12000], "trial": 2, "serialpos": 9, "trial_type": "single-audio", "trial_index": 98, "time_elapsed": 446065, "internal_node_id": "0.0-71.0"}}, {"uniqueid": "MTK0209:3YZ8UPK3VUT4QIS8JL68G3ADNOFUC2", "current_trial": 99, "dateTime": 1509546916158, "trialdata": {"rt": -1000, "stimulus": "/static/audio/wordpool/PARROT.wav", "key_press": -1, "type": "PRES_AUD", "word": "parrot", "wordID": 1014, "conditions": [12, 800, "a", 12000], "trial": 2, "serialpos": 10, "trial_type": "single-audio", "trial_index": 99, "time_elapsed": 447944, "internal_node_id": "0.0-72.0"}}, {"uniqueid": "MTK0209:3YZ8UPK3VUT4QIS8JL68G3ADNOFUC2", "current_trial": 100, "dateTime": 1509546918118, "trialdata": {"rt": -1000, "stimulus": "/static/audio/wordpool/SERVER.wav", "key_press": -1, "type": "PRES_AUD", "word": "server", "wordID": 1271, "conditions": [12, 800, "a", 12000], "trial": 2, "serialpos": 11, "trial_type": "single-audio", "trial_index": 100, "time_elapsed": 449904, "internal_node_id": "0.0-73.0"}}, {"uniqueid": "MTK0209:3YZ8UPK3VUT4QIS8JL68G3ADNOFUC2", "current_trial": 101, "dateTime": 1509546919336, "trialdata": {"rt": -1, "stimulus": "", "key_press": -1, "type": "PRE_RECALL_DELAY", "trial_type": "single-stim", "trial_index": 101, "time_elapsed": 451122, "internal_node_id": "0.0-74.0-0.0"}}, {"uniqueid": "MTK0209:3YZ8UPK3VUT4QIS8JL68G3ADNOFUC2", "current_trial": 102, "dateTime": 1509546919837, "trialdata": {"rt": -1000, "stimulus": "/static/audio/400Hz.wav", "key_press": -1, "type": "PRE_RECALL_ALERT", "trial_type": "single-audio", "trial_index": 102, "time_elapsed": 451623, "internal_node_id": "0.0-75.0"}}, {"uniqueid": "MTK0209:3YZ8UPK3VUT4QIS8JL68G3ADNOFUC2", "current_trial": 103, "dateTime": 1509546979846, "trialdata": {"rt": [2220, 3684, 5124, 6052, 7989, 9188, 11260, 14332, 15683, 18652, 24324], "recwords": ["server", "parrot", "flask", "taxi", "summit", "compass", "wrist", "wagon", "tractor", "rooster", ""], "type": "FREE_RECALL", "conditions": [12, 800, "a", 12000], "trial": 2, "trial_type": "free-recall", "trial_index": 103, "time_elapsed": 511627, "internal_node_id": "0.0-76.0-0.0"}}, {"uniqueid": "MTK0209:3YZ8UPK3VUT4QIS8JL68G3ADNOFUC2", "current_trial": 104, "dateTime": 1509546984067, "trialdata": {"rt": 2220, "key_press": 13, "type": "INSTRUCTIONS", "trial_type": "text", "trial_index": 104, "time_elapsed": 515853, "internal_node_id": "0.0-77.0"}}, {"uniqueid": "MTK0209:3YZ8UPK3VUT4QIS8JL68G3ADNOFUC2", "current_trial": 105, "dateTime": 1509547010077, "trialdata": {"rt": [3760, 5224, 8136, 9712, 10872, 12464, 14328, 16344, 18712, 20000, 22624], "responses": ["16", "17", "24", "9", "5", "10", "20", "12", "16", "11", "17"], "num1": [2, 6, 9, 5, 1, 1, 2, 3, 3, 3, 5, 1], "num2": [6, 4, 8, 3, 3, 6, 9, 2, 4, 7, 4, 1], "num3": [8, 7, 7, 1, 1, 3, 9, 7, 9, 1, 8, 7], "type": "DISTRACTOR", "conditions": [24, 1600, "a", 24000], "trial": 3, "trial_type": "math-distractor", "trial_index": 105, "time_elapsed": 541862, "internal_node_id": "0.0-78.0"}}, {"uniqueid": "MTK0209:3YZ8UPK3VUT4QIS8JL68G3ADNOFUC2", "current_trial": 106, "dateTime": 1509547013079, "trialdata": {"rt": -1, "stimulus": "<p id=\"stim\">10</p>", "key_press": -1, "trial_type": "single-stim", "trial_index": 106, "time_elapsed": 544865, "internal_node_id": "0.0-79.0-0.0"}}, {"uniqueid": "MTK0209:3YZ8UPK3VUT4QIS8JL68G3ADNOFUC2", "current_trial": 107, "dateTime": 1509547014080, "trialdata": {"rt": -1, "stimulus": "<p id=\"stim\">9</p>", "key_press": -1, "trial_type": "single-stim", "trial_index": 107, "time_elapsed": 545866, "internal_node_id": "0.0-79.0-1.0"}}, {"uniqueid": "MTK0209:3YZ8UPK3VUT4QIS8JL68G3ADNOFUC2", "current_trial": 108, "dateTime": 1509547015081, "trialdata": {"rt": -1, "stimulus": "<p id=\"stim\">8</p>", "key_press": -1, "trial_type": "single-stim", "trial_index": 108, "time_elapsed": 546867, "internal_node_id": "0.0-79.0-2.0"}}, {"uniqueid": "MTK0209:3YZ8UPK3VUT4QIS8JL68G3ADNOFUC2", "current_trial": 109, "dateTime": 1509547016083, "trialdata": {"rt": -1, "stimulus": "<p id=\"stim\">7</p>", "key_press": -1, "trial_type": "single-stim", "trial_index": 109, "time_elapsed": 547869, "internal_node_id": "0.0-79.0-3.0"}}, {"uniqueid": "MTK0209:3YZ8UPK3VUT4QIS8JL68G3ADNOFUC2", "current_trial": 110, "dateTime": 1509547017084, "trialdata": {"rt": -1, "stimulus": "<p id=\"stim\">6</p>", "key_press": -1, "trial_type": "single-stim", "trial_index": 110, "time_elapsed": 548869, "internal_node_id": "0.0-79.0-4.0"}}, {"uniqueid": "MTK0209:3YZ8UPK3VUT4QIS8JL68G3ADNOFUC2", "current_trial": 111, "dateTime": 1509547018085, "trialdata": {"rt": -1, "stimulus": "<p id=\"stim\">5</p>", "key_press": -1, "trial_type": "single-stim", "trial_index": 111, "time_elapsed": 549871, "internal_node_id": "0.0-79.0-5.0"}}, {"uniqueid": "MTK0209:3YZ8UPK3VUT4QIS8JL68G3ADNOFUC2", "current_trial": 112, "dateTime": 1509547019087, "trialdata": {"rt": -1, "stimulus": "<p id=\"stim\">4</p>", "key_press": -1, "trial_type": "single-stim", "trial_index": 112, "time_elapsed": 550872, "internal_node_id": "0.0-79.0-6.0"}}, {"uniqueid": "MTK0209:3YZ8UPK3VUT4QIS8JL68G3ADNOFUC2", "current_trial": 113, "dateTime": 1509547020088, "trialdata": {"rt": -1, "stimulus": "<p id=\"stim\">3</p>", "key_press": -1, "trial_type": "single-stim", "trial_index": 113, "time_elapsed": 551873, "internal_node_id": "0.0-79.0-7.0"}}, {"uniqueid": "MTK0209:3YZ8UPK3VUT4QIS8JL68G3ADNOFUC2", "current_trial": 114, "dateTime": 1509547021088, "trialdata": {"rt": -1, "stimulus": "<p id=\"stim\">2</p>", "key_press": -1, "trial_type": "single-stim", "trial_index": 114, "time_elapsed": 552874, "internal_node_id": "0.0-79.0-8.0"}}, {"uniqueid": "MTK0209:3YZ8UPK3VUT4QIS8JL68G3ADNOFUC2", "current_trial": 115, "dateTime": 1509547022090, "trialdata": {"rt": -1, "stimulus": "<p id=\"stim\">1</p>", "key_press": -1, "trial_type": "single-stim", "trial_index": 115, "time_elapsed": 553876, "internal_node_id": "0.0-79.0-9.0"}}, {"uniqueid": "MTK0209:3YZ8UPK3VUT4QIS8JL68G3ADNOFUC2", "current_trial": 116, "dateTime": 1509547023591, "trialdata": {"rt": -1, "stimulus": "<p id=\"stim\">+</p>", "key_press": -1, "type": "FIXATION", "trial_type": "single-stim", "trial_index": 116, "time_elapsed": 555376, "internal_node_id": "0.0-80.0-0.0"}}, {"uniqueid": "MTK0209:3YZ8UPK3VUT4QIS8JL68G3ADNOFUC2", "current_trial": 117, "dateTime": 1509547026295, "trialdata": {"rt": -1000, "stimulus": "/static/audio/wordpool/COLLEGE.wav", "key_press": -1, "type": "PRES_AUD", "word": "college", "wordID": 345, "conditions": [24, 1600, "a", 24000], "trial": 3, "serialpos": 0, "trial_type": "single-audio", "trial_index": 117, "time_elapsed": 558080, "internal_node_id": "0.0-81.0"}}, {"uniqueid": "MTK0209:3YZ8UPK3VUT4QIS8JL68G3ADNOFUC2", "current_trial": 118, "dateTime": 1509547028926, "trialdata": {"rt": -1000, "stimulus": "/static/audio/wordpool/TURKEY.wav", "key_press": -1, "type": "PRES_AUD", "word": "turkey", "wordID": 1519, "conditions": [24, 1600, "a", 24000], "trial": 3, "serialpos": 1, "trial_type": "single-audio", "trial_index": 118, "time_elapsed": 560711, "internal_node_id": "0.0-82.0"}}, {"uniqueid": "MTK0209:3YZ8UPK3VUT4QIS8JL68G3ADNOFUC2", "current_trial": 119, "dateTime": 1509547031416, "trialdata": {"rt": -1000, "stimulus": "/static/audio/wordpool/TROMBONE.wav", "key_press": -1, "type": "PRES_AUD", "word": "trombone", "wordID": 1507, "conditions": [24, 1600, "a", 24000], "trial": 3, "serialpos": 2, "trial_type": "single-audio", "trial_index": 119, "time_elapsed": 563202, "internal_node_id": "0.0-83.0"}}, {"uniqueid": "MTK0209:3YZ8UPK3VUT4QIS8JL68G3ADNOFUC2", "current_trial": 120, "dateTime": 1509547033862, "trialdata": {"rt": -1000, "stimulus": "/static/audio/wordpool/BANJO.wav", "key_press": -1, "type": "PRES_AUD", "word": "banjo", "wordID": 81, "conditions": [24, 1600, "a", 24000], "trial": 3, "serialpos": 3, "trial_type": "single-audio", "trial_index": 120, "time_elapsed": 565647, "internal_node_id": "0.0-84.0"}}, {"uniqueid": "MTK0209:3YZ8UPK3VUT4QIS8JL68G3ADNOFUC2", "current_trial": 121, "dateTime": 1509547036306, "trialdata": {"rt": -1000, "stimulus": "/static/audio/wordpool/GUITAR.wav", "key_press": -1, "type": "PRES_AUD", "word": "guitar", "wordID": 669, "conditions": [24, 1600, "a", 24000], "trial": 3, "serialpos": 4, "trial_type": "single-audio", "trial_index": 121, "time_elapsed": 568092, "internal_node_id": "0.0-85.0"}}, {"uniqueid": "MTK0209:3YZ8UPK3VUT4QIS8JL68G3ADNOFUC2", "current_trial": 122, "dateTime": 1509547038726, "trialdata": {"rt": -1000, "stimulus": "/static/audio/wordpool/BUCKET.wav", "key_press": -1, "type": "PRES_AUD", "word": "bucket", "wordID": 183, "conditions": [24, 1600, "a", 24000], "trial": 3, "serialpos": 5, "trial_type": "single-audio", "trial_index": 122, "time_elapsed": 570511, "internal_node_id": "0.0-86.0"}}, {"uniqueid": "MTK0209:3YZ8UPK3VUT4QIS8JL68G3ADNOFUC2", "current_trial": 123, "dateTime": 1509547041191, "trialdata": {"rt": -1000, "stimulus": "/static/audio/wordpool/SCOTCH.wav", "key_press": -1, "type": "PRES_AUD", "word": "scotch", "wordID": 1250, "conditions": [24, 1600, "a", 24000], "trial": 3, "serialpos": 6, "trial_type": "single-audio", "trial_index": 123, "time_elapsed": 572977, "internal_node_id": "0.0-87.0"}}, {"uniqueid": "MTK0209:3YZ8UPK3VUT4QIS8JL68G3ADNOFUC2", "current_trial": 124, "dateTime": 1509547043730, "trialdata": {"rt": -1000, "stimulus": "/static/audio/wordpool/GLASS.wav", "key_press": -1, "type": "PRES_AUD", "word": "glass", "wordID": 638, "conditions": [24, 1600, "a", 24000], "trial": 3, "serialpos": 7, "trial_type": "single-audio", "trial_index": 124, "time_elapsed": 575516, "internal_node_id": "0.0-88.0"}}, {"uniqueid": "MTK0209:3YZ8UPK3VUT4QIS8JL68G3ADNOFUC2", "current_trial": 125, "dateTime": 1509547046171, "trialdata": {"rt": -1000, "stimulus": "/static/audio/wordpool/BACON.wav", "key_press": -1, "type": "PRES_AUD", "word": "bacon", "wordID": 66, "conditions": [24, 1600, "a", 24000], "trial": 3, "serialpos": 8, "trial_type": "single-audio", "trial_index": 125, "time_elapsed": 577956, "internal_node_id": "0.0-89.0"}}, {"uniqueid": "MTK0209:3YZ8UPK3VUT4QIS8JL68G3ADNOFUC2", "current_trial": 126, "dateTime": 1509547048961, "trialdata": {"rt": -1000, "stimulus": "/static/audio/wordpool/TEMPLE.wav", "key_press": -1, "type": "PRES_AUD", "word": "temple", "wordID": 1447, "conditions": [24, 1600, "a", 24000], "trial": 3, "serialpos": 9, "trial_type": "single-audio", "trial_index": 126, "time_elapsed": 580746, "internal_node_id": "0.0-90.0"}}, {"uniqueid": "MTK0209:3YZ8UPK3VUT4QIS8JL68G3ADNOFUC2", "current_trial": 127, "dateTime": 1509547051553, "trialdata": {"rt": -1000, "stimulus": "/static/audio/wordpool/BOX.wav", "key_press": -1, "type": "PRES_AUD", "word": "box", "wordID": 158, "conditions": [24, 1600, "a", 24000], "trial": 3, "serialpos": 10, "trial_type": "single-audio", "trial_index": 127, "time_elapsed": 583339, "internal_node_id": "0.0-91.0"}}, {"uniqueid": "MTK0209:3YZ8UPK3VUT4QIS8JL68G3ADNOFUC2", "current_trial": 128, "dateTime": 1509547054118, "trialdata": {"rt": -1000, "stimulus": "/static/audio/wordpool/GLOVE.wav", "key_press": -1, "type": "PRES_AUD", "word": "glove", "wordID": 641, "conditions": [24, 1600, "a", 24000], "trial": 3, "serialpos": 11, "trial_type": "single-audio", "trial_index": 128, "time_elapsed": 585904, "internal_node_id": "0.0-92.0"}}, {"uniqueid": "MTK0209:3YZ8UPK3VUT4QIS8JL68G3ADNOFUC2", "current_trial": 129, "dateTime": 1509547056651, "trialdata": {"rt": -1000, "stimulus": "/static/audio/wordpool/TWEEZERS.wav", "key_press": -1, "type": "PRES_AUD", "word": "tweezers", "wordID": 1525, "conditions": [24, 1600, "a", 24000], "trial": 3, "serialpos": 12, "trial_type": "single-audio", "trial_index": 129, "time_elapsed": 588437, "internal_node_id": "0.0-93.0"}}, {"uniqueid": "MTK0209:3YZ8UPK3VUT4QIS8JL68G3ADNOFUC2", "current_trial": 130, "dateTime": 1509547059089, "trialdata": {"rt": -1000, "stimulus": "/static/audio/wordpool/TUBA.wav", "key_press": -1, "type": "PRES_AUD", "word": "tuba", "wordID": 1514, "conditions": [24, 1600, "a", 24000], "trial": 3, "serialpos": 13, "trial_type": "single-audio", "trial_index": 130, "time_elapsed": 590874, "internal_node_id": "0.0-94.0"}}, {"uniqueid": "MTK0209:3YZ8UPK3VUT4QIS8JL68G3ADNOFUC2", "current_trial": 131, "dateTime": 1509547061857, "trialdata": {"rt": -1000, "stimulus": "/static/audio/wordpool/PIANO.wav", "key_press": -1, "type": "PRES_AUD", "word": "piano", "wordID": 1056, "conditions": [24, 1600, "a", 24000], "trial": 3, "serialpos": 14, "trial_type": "single-audio", "trial_index": 131, "time_elapsed": 593643, "internal_node_id": "0.0-95.0"}}, {"uniqueid": "MTK0209:3YZ8UPK3VUT4QIS8JL68G3ADNOFUC2", "current_trial": 132, "dateTime": 1509547064449, "trialdata": {"rt": -1000, "stimulus": "/static/audio/wordpool/ONION.wav", "key_press": -1, "type": "PRES_AUD", "word": "onion", "wordID": 976, "conditions": [24, 1600, "a", 24000], "trial": 3, "serialpos": 15, "trial_type": "single-audio", "trial_index": 132, "time_elapsed": 596235, "internal_node_id": "0.0-96.0"}}, {"uniqueid": "MTK0209:3YZ8UPK3VUT4QIS8JL68G3ADNOFUC2", "current_trial": 133, "dateTime": 1509547066949, "trialdata": {"rt": -1000, "stimulus": "/static/audio/wordpool/CATCHER.wav", "key_press": -1, "type": "PRES_AUD", "word": "catcher", "wordID": 257, "conditions": [24, 1600, "a", 24000], "trial": 3, "serialpos": 16, "trial_type": "single-audio", "trial_index": 133, "time_elapsed": 598735, "internal_node_id": "0.0-97.0"}}, {"uniqueid": "MTK0209:3YZ8UPK3VUT4QIS8JL68G3ADNOFUC2", "current_trial": 134, "dateTime": 1509547069515, "trialdata": {"rt": -1000, "stimulus": "/static/audio/wordpool/PLATE.wav", "key_press": -1, "type": "PRES_AUD", "word": "plate", "wordID": 1085, "conditions": [24, 1600, "a", 24000], "trial": 3, "serialpos": 17, "trial_type": "single-audio", "trial_index": 134, "time_elapsed": 601301, "internal_node_id": "0.0-98.0"}}, {"uniqueid": "MTK0209:3YZ8UPK3VUT4QIS8JL68G3ADNOFUC2", "current_trial": 135, "dateTime": 1509547072219, "trialdata": {"rt": -1000, "stimulus": "/static/audio/wordpool/ZEBRA.wav", "key_press": -1, "type": "PRES_AUD", "word": "zebra", "wordID": 1634, "conditions": [24, 1600, "a", 24000], "trial": 3, "serialpos": 18, "trial_type": "single-audio", "trial_index": 135, "time_elapsed": 604004, "internal_node_id": "0.0-99.0"}}, {"uniqueid": "MTK0209:3YZ8UPK3VUT4QIS8JL68G3ADNOFUC2", "current_trial": 136, "dateTime": 1509547074778, "trialdata": {"rt": -1000, "stimulus": "/static/audio/wordpool/TORTOISE.wav", "key_press": -1, "type": "PRES_AUD", "word": "tortoise", "wordID": 1485, "conditions": [24, 1600, "a", 24000], "trial": 3, "serialpos": 19, "trial_type": "single-audio", "trial_index": 136, "time_elapsed": 606564, "internal_node_id": "0.0-100.0"}}, {"uniqueid": "MTK0209:3YZ8UPK3VUT4QIS8JL68G3ADNOFUC2", "current_trial": 137, "dateTime": 1509547077454, "trialdata": {"rt": -1000, "stimulus": "/static/audio/wordpool/LABEL.wav", "key_press": -1, "type": "PRES_AUD", "word": "label", "wordID": 789, "conditions": [24, 1600, "a", 24000], "trial": 3, "serialpos": 20, "trial_type": "single-audio", "trial_index": 137, "time_elapsed": 609240, "internal_node_id": "0.0-101.0"}}, {"uniqueid": "MTK0209:3YZ8UPK3VUT4QIS8JL68G3ADNOFUC2", "current_trial": 138, "dateTime": 1509547080207, "trialdata": {"rt": -1000, "stimulus": "/static/audio/wordpool/ICEBERG.wav", "key_press": -1, "type": "PRES_AUD", "word": "iceberg", "wordID": 730, "conditions": [24, 1600, "a", 24000], "trial": 3, "serialpos": 21, "trial_type": "single-audio", "trial_index": 138, "time_elapsed": 611993, "internal_node_id": "0.0-102.0"}}, {"uniqueid": "MTK0209:3YZ8UPK3VUT4QIS8JL68G3ADNOFUC2", "current_trial": 139, "dateTime": 1509547082915, "trialdata": {"rt": -1000, "stimulus": "/static/audio/wordpool/PANTHER.wav", "key_press": -1, "type": "PRES_AUD", "word": "panther", "wordID": 1008, "conditions": [24, 1600, "a", 24000], "trial": 3, "serialpos": 22, "trial_type": "single-audio", "trial_index": 139, "time_elapsed": 614701, "internal_node_id": "0.0-103.0"}}, {"uniqueid": "MTK0209:3YZ8UPK3VUT4QIS8JL68G3ADNOFUC2", "current_trial": 140, "dateTime": 1509547085544, "trialdata": {"rt": -1000, "stimulus": "/static/audio/wordpool/CIGAR.wav", "key_press": -1, "type": "PRES_AUD", "word": "cigar", "wordID": 307, "conditions": [24, 1600, "a", 24000], "trial": 3, "serialpos": 23, "trial_type": "single-audio", "trial_index": 140, "time_elapsed": 617330, "internal_node_id": "0.0-104.0"}}, {"uniqueid": "MTK0209:3YZ8UPK3VUT4QIS8JL68G3ADNOFUC2", "current_trial": 141, "dateTime": 1509547086867, "trialdata": {"rt": -1, "stimulus": "", "key_press": -1, "type": "PRE_RECALL_DELAY", "trial_type": "single-stim", "trial_index": 141, "time_elapsed": 618653, "internal_node_id": "0.0-105.0-0.0"}}, {"uniqueid": "MTK0209:3YZ8UPK3VUT4QIS8JL68G3ADNOFUC2", "current_trial": 142, "dateTime": 1509547087368, "trialdata": {"rt": -1000, "stimulus": "/static/audio/400Hz.wav", "key_press": -1, "type": "PRE_RECALL_ALERT", "trial_type": "single-audio", "trial_index": 142, "time_elapsed": 619153, "internal_node_id": "0.0-106.0"}}, {"uniqueid": "MTK0209:3YZ8UPK3VUT4QIS8JL68G3ADNOFUC2", "current_trial": 143, "dateTime": 1509547147379, "trialdata": {"rt": [3479, 6095, 8039, 9503, 13167, 14295, 15415, 17047, 19486, 20447, 21326, 24518, 28063], "recwords": ["college", "turkey", "panther", "tortoise", "scotch", "glass", "cigar", "bucket", "piano", "guitar", "tuba", "trombone", "onion"], "type": "FREE_RECALL", "conditions": [24, 1600, "a", 24000], "trial": 3, "trial_type": "free-recall", "trial_index": 143, "time_elapsed": 679159, "internal_node_id": "0.0-107.0-0.0"}}, {"uniqueid": "MTK0209:3YZ8UPK3VUT4QIS8JL68G3ADNOFUC2", "current_trial": 144, "dateTime": 1509547150313, "trialdata": {"rt": 932, "key_press": 32, "type": "INSTRUCTIONS", "trial_type": "text", "trial_index": 144, "time_elapsed": 682099, "internal_node_id": "0.0-108.0"}}, {"uniqueid": "MTK0209:3YZ8UPK3VUT4QIS8JL68G3ADNOFUC2", "current_trial": 145, "dateTime": 1509547164319, "trialdata": {"rt": [3212, 4948, 8564, 10124], "responses": ["10", "19", "21", "6"], "num1": [5, 9, 8, 1, 4], "num2": [4, 3, 4, 3, 8], "num3": [1, 7, 9, 2, 7], "type": "DISTRACTOR", "conditions": [24, 800, "v", 12000], "trial": 4, "trial_type": "math-distractor", "trial_index": 145, "time_elapsed": 696105, "internal_node_id": "0.0-109.0"}}, {"uniqueid": "MTK0209:3YZ8UPK3VUT4QIS8JL68G3ADNOFUC2", "current_trial": 146, "dateTime": 1509547167320, "trialdata": {"rt": -1, "stimulus": "<p id=\"stim\">10</p>", "key_press": -1, "trial_type": "single-stim", "trial_index": 146, "time_elapsed": 699106, "internal_node_id": "0.0-110.0-0.0"}}, {"uniqueid": "MTK0209:3YZ8UPK3VUT4QIS8JL68G3ADNOFUC2", "current_trial": 147, "dateTime": 1509547168322, "trialdata": {"rt": -1, "stimulus": "<p id=\"stim\">9</p>", "key_press": -1, "trial_type": "single-stim", "trial_index": 147, "time_elapsed": 700107, "internal_node_id": "0.0-110.0-1.0"}}, {"uniqueid": "MTK0209:3YZ8UPK3VUT4QIS8JL68G3ADNOFUC2", "current_trial": 148, "dateTime": 1509547169323, "trialdata": {"rt": -1, "stimulus": "<p id=\"stim\">8</p>", "key_press": -1, "trial_type": "single-stim", "trial_index": 148, "time_elapsed": 701109, "internal_node_id": "0.0-110.0-2.0"}}, {"uniqueid": "MTK0209:3YZ8UPK3VUT4QIS8JL68G3ADNOFUC2", "current_trial": 149, "dateTime": 1509547170324, "trialdata": {"rt": -1, "stimulus": "<p id=\"stim\">7</p>", "key_press": -1, "trial_type": "single-stim", "trial_index": 149, "time_elapsed": 702110, "internal_node_id": "0.0-110.0-3.0"}}, {"uniqueid": "MTK0209:3YZ8UPK3VUT4QIS8JL68G3ADNOFUC2", "current_trial": 150, "dateTime": 1509547171325, "trialdata": {"rt": -1, "stimulus": "<p id=\"stim\">6</p>", "key_press": -1, "trial_type": "single-stim", "trial_index": 150, "time_elapsed": 703111, "internal_node_id": "0.0-110.0-4.0"}}, {"uniqueid": "MTK0209:3YZ8UPK3VUT4QIS8JL68G3ADNOFUC2", "current_trial": 151, "dateTime": 1509547172326, "trialdata": {"rt": -1, "stimulus": "<p id=\"stim\">5</p>", "key_press": -1, "trial_type": "single-stim", "trial_index": 151, "time_elapsed": 704112, "internal_node_id": "0.0-110.0-5.0"}}, {"uniqueid": "MTK0209:3YZ8UPK3VUT4QIS8JL68G3ADNOFUC2", "current_trial": 152, "dateTime": 1509547173328, "trialdata": {"rt": -1, "stimulus": "<p id=\"stim\">4</p>", "key_press": -1, "trial_type": "single-stim", "trial_index": 152, "time_elapsed": 705113, "internal_node_id": "0.0-110.0-6.0"}}, {"uniqueid": "MTK0209:3YZ8UPK3VUT4QIS8JL68G3ADNOFUC2", "current_trial": 153, "dateTime": 1509547174329, "trialdata": {"rt": -1, "stimulus": "<p id=\"stim\">3</p>", "key_press": -1, "trial_type": "single-stim", "trial_index": 153, "time_elapsed": 706115, "internal_node_id": "0.0-110.0-7.0"}}, {"uniqueid": "MTK0209:3YZ8UPK3VUT4QIS8JL68G3ADNOFUC2", "current_trial": 154, "dateTime": 1509547175330, "trialdata": {"rt": -1, "stimulus": "<p id=\"stim\">2</p>", "key_press": -1, "trial_type": "single-stim", "trial_index": 154, "time_elapsed": 707116, "internal_node_id": "0.0-110.0-8.0"}}, {"uniqueid": "MTK0209:3YZ8UPK3VUT4QIS8JL68G3ADNOFUC2", "current_trial": 155, "dateTime": 1509547176331, "trialdata": {"rt": -1, "stimulus": "<p id=\"stim\">1</p>", "key_press": -1, "trial_type": "single-stim", "trial_index": 155, "time_elapsed": 708117, "internal_node_id": "0.0-110.0-9.0"}}, {"uniqueid": "MTK0209:3YZ8UPK3VUT4QIS8JL68G3ADNOFUC2", "current_trial": 156, "dateTime": 1509547177832, "trialdata": {"rt": -1, "stimulus": "<p id=\"stim\">+</p>", "key_press": -1, "type": "FIXATION", "trial_type": "single-stim", "trial_index": 156, "time_elapsed": 709618, "internal_node_id": "0.0-111.0-0.0"}}, {"uniqueid": "MTK0209:3YZ8UPK3VUT4QIS8JL68G3ADNOFUC2", "current_trial": 157, "dateTime": 1509547178634, "trialdata": {"rt": -1, "stimulus": "<p id=\"stim\">APRON</p>", "key_press": -1, "type": "PRES_VIS", "word": "apron", "wordID": 34, "conditions": [24, 800, "v", 12000], "trial": 4, "serialpos": 0, "trial_type": "single-stim", "trial_index": 157, "time_elapsed": 710419, "internal_node_id": "0.0-112.0"}}, {"uniqueid": "MTK0209:3YZ8UPK3VUT4QIS8JL68G3ADNOFUC2", "current_trial": 158, "dateTime": 1509547180492, "trialdata": {"rt": -1, "stimulus": "<p id=\"stim\">SODA</p>", "key_press": -1, "type": "PRES_VIS", "word": "soda", "wordID": 1340, "conditions": [24, 800, "v", 12000], "trial": 4, "serialpos": 1, "trial_type": "single-stim", "trial_index": 158, "time_elapsed": 712278, "internal_node_id": "0.0-113.0"}}, {"uniqueid": "MTK0209:3YZ8UPK3VUT4QIS8JL68G3ADNOFUC2", "current_trial": 159, "dateTime": 1509547182196, "trialdata": {"rt": -1, "stimulus": "<p id=\"stim\">CLOTHES</p>", "key_press": -1, "type": "PRES_VIS", "word": "clothes", "wordID": 326, "conditions": [24, 800, "v", 12000], "trial": 4, "serialpos": 2, "trial_type": "single-stim", "trial_index": 159, "time_elapsed": 713982, "internal_node_id": "0.0-114.0"}}, {"uniqueid": "MTK0209:3YZ8UPK3VUT4QIS8JL68G3ADNOFUC2", "current_trial": 160, "dateTime": 1509547184032, "trialdata": {"rt": -1, "stimulus": "<p id=\"stim\">PADDING</p>", "key_press": -1, "type": "PRES_VIS", "word": "padding", "wordID": 998, "conditions": [24, 800, "v", 12000], "trial": 4, "serialpos": 3, "trial_type": "single-stim", "trial_index": 160, "time_elapsed": 715817, "internal_node_id": "0.0-115.0"}}, {"uniqueid": "MTK0209:3YZ8UPK3VUT4QIS8JL68G3ADNOFUC2", "current_trial": 161, "dateTime": 1509547185932, "trialdata": {"rt": -1, "stimulus": "<p id=\"stim\">SUNSET</p>", "key_press": -1, "type": "PRES_VIS", "word": "sunset", "wordID": 1407, "conditions": [24, 800, "v", 12000], "trial": 4, "serialpos": 4, "trial_type": "single-stim", "trial_index": 161, "time_elapsed": 717718, "internal_node_id": "0.0-116.0"}}, {"uniqueid": "MTK0209:3YZ8UPK3VUT4QIS8JL68G3ADNOFUC2", "current_trial": 162, "dateTime": 1509547187723, "trialdata": {"rt": -1, "stimulus": "<p id=\"stim\">SUNRISE</p>", "key_press": -1, "type": "PRES_VIS", "word": "sunrise", "wordID": 1406, "conditions": [24, 800, "v", 12000], "trial": 4, "serialpos": 5, "trial_type": "single-stim", "trial_index": 162, "time_elapsed": 719509, "internal_node_id": "0.0-117.0"}}, {"uniqueid": "MTK0209:3YZ8UPK3VUT4QIS8JL68G3ADNOFUC2", "current_trial": 163, "dateTime": 1509547189683, "trialdata": {"rt": -1, "stimulus": "<p id=\"stim\">TWIG</p>", "key_press": -1, "type": "PRES_VIS", "word": "twig", "wordID": 1526, "conditions": [24, 800, "v", 12000], "trial": 4, "serialpos": 6, "trial_type": "single-stim", "trial_index": 163, "time_elapsed": 721469, "internal_node_id": "0.0-118.0"}}, {"uniqueid": "MTK0209:3YZ8UPK3VUT4QIS8JL68G3ADNOFUC2", "current_trial": 164, "dateTime": 1509547191287, "trialdata": {"rt": -1, "stimulus": "<p id=\"stim\">UNCLE</p>", "key_press": -1, "type": "PRES_VIS", "word": "uncle", "wordID": 1535, "conditions": [24, 800, "v", 12000], "trial": 4, "serialpos": 7, "trial_type": "single-stim", "trial_index": 164, "time_elapsed": 723072, "internal_node_id": "0.0-119.0"}}, {"uniqueid": "MTK0209:3YZ8UPK3VUT4QIS8JL68G3ADNOFUC2", "current_trial": 165, "dateTime": 1509547193148, "trialdata": {"rt": -1, "stimulus": "<p id=\"stim\">SALAD</p>", "key_press": -1, "type": "PRES_VIS", "word": "salad", "wordID": 1223, "conditions": [24, 800, "v", 12000], "trial": 4, "serialpos": 8, "trial_type": "single-stim", "trial_index": 165, "time_elapsed": 724934, "internal_node_id": "0.0-120.0"}}, {"uniqueid": "MTK0209:3YZ8UPK3VUT4QIS8JL68G3ADNOFUC2", "current_trial": 166, "dateTime": 1509547194973, "trialdata": {"rt": -1, "stimulus": "<p id=\"stim\">CAMEL</p>", "key_press": -1, "type": "PRES_VIS", "word": "camel", "wordID": 222, "conditions": [24, 800, "v", 12000], "trial": 4, "serialpos": 9, "trial_type": "single-stim", "trial_index": 166, "time_elapsed": 726759, "internal_node_id": "0.0-121.0"}}, {"uniqueid": "MTK0209:3YZ8UPK3VUT4QIS8JL68G3ADNOFUC2", "current_trial": 167, "dateTime": 1509547196595, "trialdata": {"rt": -1, "stimulus": "<p id=\"stim\">EYELASH</p>", "key_press": -1, "type": "PRES_VIS", "word": "eyelash", "wordID": 545, "conditions": [24, 800, "v", 12000], "trial": 4, "serialpos": 10, "trial_type": "single-stim", "trial_index": 167, "time_elapsed": 728380, "internal_node_id": "0.0-122.0"}}, {"uniqueid": "MTK0209:3YZ8UPK3VUT4QIS8JL68G3ADNOFUC2", "current_trial": 168, "dateTime": 1509547198517, "trialdata": {"rt": -1, "stimulus": "<p id=\"stim\">COFFEE</p>", "key_press": -1, "type": "PRES_VIS", "word": "coffee", "wordID": 340, "conditions": [24, 800, "v", 12000], "trial": 4, "serialpos": 11, "trial_type": "single-stim", "trial_index": 168, "time_elapsed": 730303, "internal_node_id": "0.0-123.0"}}, {"uniqueid": "MTK0209:3YZ8UPK3VUT4QIS8JL68G3ADNOFUC2", "current_trial": 169, "dateTime": 1509547200418, "trialdata": {"rt": -1, "stimulus": "<p id=\"stim\">DAISY</p>", "key_press": -1, "type": "PRES_VIS", "word": "daisy", "wordID": 434, "conditions": [24, 800, "v", 12000], "trial": 4, "serialpos": 12, "trial_type": "single-stim", "trial_index": 169, "time_elapsed": 732204, "internal_node_id": "0.0-124.0"}}, {"uniqueid": "MTK0209:3YZ8UPK3VUT4QIS8JL68G3ADNOFUC2", "current_trial": 170, "dateTime": 1509547202394, "trialdata": {"rt": -1, "stimulus": "<p id=\"stim\">LILY</p>", "key_press": -1, "type": "PRES_VIS", "word": "lily", "wordID": 820, "conditions": [24, 800, "v", 12000], "trial": 4, "serialpos": 13, "trial_type": "single-stim", "trial_index": 170, "time_elapsed": 734179, "internal_node_id": "0.0-125.0"}}, {"uniqueid": "MTK0209:3YZ8UPK3VUT4QIS8JL68G3ADNOFUC2", "current_trial": 171, "dateTime": 1509547204336, "trialdata": {"rt": -1, "stimulus": "<p id=\"stim\">BASEMENT</p>", "key_press": -1, "type": "PRES_VIS", "word": "basement", "wordID": 93, "conditions": [24, 800, "v", 12000], "trial": 4, "serialpos": 14, "trial_type": "single-stim", "trial_index": 171, "time_elapsed": 736121, "internal_node_id": "0.0-126.0"}}, {"uniqueid": "MTK0209:3YZ8UPK3VUT4QIS8JL68G3ADNOFUC2", "current_trial": 172, "dateTime": 1509547206157, "trialdata": {"rt": -1, "stimulus": "<p id=\"stim\">SCISSORS</p>", "key_press": -1, "type": "PRES_VIS", "word": "scissors", "wordID": 1249, "conditions": [24, 800, "v", 12000], "trial": 4, "serialpos": 15, "trial_type": "single-stim", "trial_index": 172, "time_elapsed": 737943, "internal_node_id": "0.0-127.0"}}, {"uniqueid": "MTK0209:3YZ8UPK3VUT4QIS8JL68G3ADNOFUC2", "current_trial": 173, "dateTime": 1509547207870, "trialdata": {"rt": -1, "stimulus": "<p id=\"stim\">GIFT</p>", "key_press": -1, "type": "PRES_VIS", "word": "gift", "wordID": 634, "conditions": [24, 800, "v", 12000], "trial": 4, "serialpos": 16, "trial_type": "single-stim", "trial_index": 173, "time_elapsed": 739656, "internal_node_id": "0.0-128.0"}}, {"uniqueid": "MTK0209:3YZ8UPK3VUT4QIS8JL68G3ADNOFUC2", "current_trial": 174, "dateTime": 1509547209531, "trialdata": {"rt": -1, "stimulus": "<p id=\"stim\">BATHTUB</p>", "key_press": -1, "type": "PRES_VIS", "word": "bathtub", "wordID": 99, "conditions": [24, 800, "v", 12000], "trial": 4, "serialpos": 17, "trial_type": "single-stim", "trial_index": 174, "time_elapsed": 741317, "internal_node_id": "0.0-129.0"}}, {"uniqueid": "MTK0209:3YZ8UPK3VUT4QIS8JL68G3ADNOFUC2", "current_trial": 175, "dateTime": 1509547211504, "trialdata": {"rt": -1, "stimulus": "<p id=\"stim\">BUTCHER</p>", "key_press": -1, "type": "PRES_VIS", "word": "butcher", "wordID": 202, "conditions": [24, 800, "v", 12000], "trial": 4, "serialpos": 18, "trial_type": "single-stim", "trial_index": 175, "time_elapsed": 743290, "internal_node_id": "0.0-130.0"}}, {"uniqueid": "MTK0209:3YZ8UPK3VUT4QIS8JL68G3ADNOFUC2", "current_trial": 176, "dateTime": 1509547213290, "trialdata": {"rt": -1, "stimulus": "<p id=\"stim\">FREEZER</p>", "key_press": -1, "type": "PRES_VIS", "word": "freezer", "wordID": 603, "conditions": [24, 800, "v", 12000], "trial": 4, "serialpos": 19, "trial_type": "single-stim", "trial_index": 176, "time_elapsed": 745076, "internal_node_id": "0.0-131.0"}}, {"uniqueid": "MTK0209:3YZ8UPK3VUT4QIS8JL68G3ADNOFUC2", "current_trial": 177, "dateTime": 1509547215126, "trialdata": {"rt": -1, "stimulus": "<p id=\"stim\">CELLAR</p>", "key_press": -1, "type": "PRES_VIS", "word": "cellar", "wordID": 266, "conditions": [24, 800, "v", 12000], "trial": 4, "serialpos": 20, "trial_type": "single-stim", "trial_index": 177, "time_elapsed": 746911, "internal_node_id": "0.0-132.0"}}, {"uniqueid": "MTK0209:3YZ8UPK3VUT4QIS8JL68G3ADNOFUC2", "current_trial": 178, "dateTime": 1509547216850, "trialdata": {"rt": -1, "stimulus": "<p id=\"stim\">PISTOL</p>", "key_press": -1, "type": "PRES_VIS", "word": "pistol", "wordID": 1074, "conditions": [24, 800, "v", 12000], "trial": 4, "serialpos": 21, "trial_type": "single-stim", "trial_index": 178, "time_elapsed": 748636, "internal_node_id": "0.0-133.0"}}, {"uniqueid": "MTK0209:3YZ8UPK3VUT4QIS8JL68G3ADNOFUC2", "current_trial": 179, "dateTime": 1509547218827, "trialdata": {"rt": -1, "stimulus": "<p id=\"stim\">SLOPE</p>", "key_press": -1, "type": "PRES_VIS", "word": "slope", "wordID": 1327, "conditions": [24, 800, "v", 12000], "trial": 4, "serialpos": 22, "trial_type": "single-stim", "trial_index": 179, "time_elapsed": 750613, "internal_node_id": "0.0-134.0"}}, {"uniqueid": "MTK0209:3YZ8UPK3VUT4QIS8JL68G3ADNOFUC2", "current_trial": 180, "dateTime": 1509547220601, "trialdata": {"rt": -1, "stimulus": "<p id=\"stim\">CANYON</p>", "key_press": -1, "type": "PRES_VIS", "word": "canyon", "wordID": 234, "conditions": [24, 800, "v", 12000], "trial": 4, "serialpos": 23, "trial_type": "single-stim", "trial_index": 180, "time_elapsed": 752387, "internal_node_id": "0.0-135.0"}}, {"uniqueid": "MTK0209:3YZ8UPK3VUT4QIS8JL68G3ADNOFUC2", "current_trial": 181, "dateTime": 1509547222808, "trialdata": {"rt": -1, "stimulus": "", "key_press": -1, "type": "PRE_RECALL_DELAY", "trial_type": "single-stim", "trial_index": 181, "time_elapsed": 754594, "internal_node_id": "0.0-136.0-0.0"}}, {"uniqueid": "MTK0209:3YZ8UPK3VUT4QIS8JL68G3ADNOFUC2", "current_trial": 182, "dateTime": 1509547223310, "trialdata": {"rt": -1000, "stimulus": "/static/audio/400Hz.wav", "key_press": -1, "type": "PRE_RECALL_ALERT", "trial_type": "single-audio", "trial_index": 182, "time_elapsed": 755096, "internal_node_id": "0.0-137.0"}}, {"uniqueid": "MTK0209:3YZ8UPK3VUT4QIS8JL68G3ADNOFUC2", "current_trial": 183, "dateTime": 1509547283338, "trialdata": {"rt": [2702, 4149, 5317, 6373, 7373, 8861, 16077, 19869, 27157], "recwords": ["slope", "canyon", "uncle", "salad", "apron", "padding", "butcher", "canyon", "soda"], "type": "FREE_RECALL", "conditions": [24, 800, "v", 12000], "trial": 4, "trial_type": "free-recall", "trial_index": 183, "time_elapsed": 815102, "internal_node_id": "0.0-138.0-0.0"}}, {"uniqueid": "MTK0209:3YZ8UPK3VUT4QIS8JL68G3ADNOFUC2", "current_trial": 184, "dateTime": 1509547286544, "trialdata": {"rt": 1205, "key_press": 13, "type": "INSTRUCTIONS", "trial_type": "text", "trial_index": 184, "time_elapsed": 818330, "internal_node_id": "0.0-139.0"}}, {"uniqueid": "MTK0209:3YZ8UPK3VUT4QIS8JL68G3ADNOFUC2", "current_trial": 185, "dateTime": 1509547300555, "trialdata": {"rt": [2294, 4974, 8790, 10479], "responses": ["15", "15", "12", "8"], "num1": [7, 6, 1, 1, 4], "num2": [4, 3, 7, 3, 8], "num3": [4, 6, 4, 4, 8], "type": "DISTRACTOR", "conditions": [12, 800, "v", 12000], "trial": 5, "trial_type": "math-distractor", "trial_index": 185, "time_elapsed": 832341, "internal_node_id": "0.0-140.0"}}, {"uniqueid": "MTK0209:3YZ8UPK3VUT4QIS8JL68G3ADNOFUC2", "current_trial": 186, "dateTime": 1509547303557, "trialdata": {"rt": -1, "stimulus": "<p id=\"stim\">10</p>", "key_press": -1, "trial_type": "single-stim", "trial_index": 186, "time_elapsed": 835343, "internal_node_id": "0.0-141.0-0.0"}}, {"uniqueid": "MTK0209:3YZ8UPK3VUT4QIS8JL68G3ADNOFUC2", "current_trial": 187, "dateTime": 1509547304558, "trialdata": {"rt": -1, "stimulus": "<p id=\"stim\">9</p>", "key_press": -1, "trial_type": "single-stim", "trial_index": 187, "time_elapsed": 836344, "internal_node_id": "0.0-141.0-1.0"}}, {"uniqueid": "MTK0209:3YZ8UPK3VUT4QIS8JL68G3ADNOFUC2", "current_trial": 188, "dateTime": 1509547305559, "trialdata": {"rt": -1, "stimulus": "<p id=\"stim\">8</p>", "key_press": -1, "trial_type": "single-stim", "trial_index": 188, "time_elapsed": 837345, "internal_node_id": "0.0-141.0-2.0"}}, {"uniqueid": "MTK0209:3YZ8UPK3VUT4QIS8JL68G3ADNOFUC2", "current_trial": 189, "dateTime": 1509547306561, "trialdata": {"rt": -1, "stimulus": "<p id=\"stim\">7</p>", "key_press": -1, "trial_type": "single-stim", "trial_index": 189, "time_elapsed": 838347, "internal_node_id": "0.0-141.0-3.0"}}, {"uniqueid": "MTK0209:3YZ8UPK3VUT4QIS8JL68G3ADNOFUC2", "current_trial": 190, "dateTime": 1509547307562, "trialdata": {"rt": -1, "stimulus": "<p id=\"stim\">6</p>", "key_press": -1, "trial_type": "single-stim", "trial_index": 190, "time_elapsed": 839348, "internal_node_id": "0.0-141.0-4.0"}}, {"uniqueid": "MTK0209:3YZ8UPK3VUT4QIS8JL68G3ADNOFUC2", "current_trial": 191, "dateTime": 1509547308564, "trialdata": {"rt": -1, "stimulus": "<p id=\"stim\">5</p>", "key_press": -1, "trial_type": "single-stim", "trial_index": 191, "time_elapsed": 840350, "internal_node_id": "0.0-141.0-5.0"}}, {"uniqueid": "MTK0209:3YZ8UPK3VUT4QIS8JL68G3ADNOFUC2", "current_trial": 192, "dateTime": 1509547309565, "trialdata": {"rt": -1, "stimulus": "<p id=\"stim\">4</p>", "key_press": -1, "trial_type": "single-stim", "trial_index": 192, "time_elapsed": 841350, "internal_node_id": "0.0-141.0-6.0"}}, {"uniqueid": "MTK0209:3YZ8UPK3VUT4QIS8JL68G3ADNOFUC2", "current_trial": 193, "dateTime": 1509547310566, "trialdata": {"rt": -1, "stimulus": "<p id=\"stim\">3</p>", "key_press": -1, "trial_type": "single-stim", "trial_index": 193, "time_elapsed": 842352, "internal_node_id": "0.0-141.0-7.0"}}, {"uniqueid": "MTK0209:3YZ8UPK3VUT4QIS8JL68G3ADNOFUC2", "current_trial": 194, "dateTime": 1509547311567, "trialdata": {"rt": -1, "stimulus": "<p id=\"stim\">2</p>", "key_press": -1, "trial_type": "single-stim", "trial_index": 194, "time_elapsed": 843353, "internal_node_id": "0.0-141.0-8.0"}}, {"uniqueid": "MTK0209:3YZ8UPK3VUT4QIS8JL68G3ADNOFUC2", "current_trial": 195, "dateTime": 1509547312567, "trialdata": {"rt": -1, "stimulus": "<p id=\"stim\">1</p>", "key_press": -1, "trial_type": "single-stim", "trial_index": 195, "time_elapsed": 844353, "internal_node_id": "0.0-141.0-9.0"}}, {"uniqueid": "MTK0209:3YZ8UPK3VUT4QIS8JL68G3ADNOFUC2", "current_trial": 196, "dateTime": 1509547314068, "trialdata": {"rt": -1, "stimulus": "<p id=\"stim\">+</p>", "key_press": -1, "type": "FIXATION", "trial_type": "single-stim", "trial_index": 196, "time_elapsed": 845854, "internal_node_id": "0.0-142.0-0.0"}}, {"uniqueid": "MTK0209:3YZ8UPK3VUT4QIS8JL68G3ADNOFUC2", "current_trial": 197, "dateTime": 1509547314869, "trialdata": {"rt": -1, "stimulus": "<p id=\"stim\">RABBIT</p>", "key_press": -1, "type": "PRES_VIS", "word": "rabbit", "wordID": 1151, "conditions": [12, 800, "v", 12000], "trial": 5, "serialpos": 0, "trial_type": "single-stim", "trial_index": 197, "time_elapsed": 846655, "internal_node_id": "0.0-143.0"}}, {"uniqueid": "MTK0209:3YZ8UPK3VUT4QIS8JL68G3ADNOFUC2", "current_trial": 198, "dateTime": 1509547316706, "trialdata": {"rt": -1, "stimulus": "<p id=\"stim\">PATIENT</p>", "key_press": -1, "type": "PRES_VIS", "word": "patient", "wordID": 1023, "conditions": [12, 800, "v", 12000], "trial": 5, "serialpos": 1, "trial_type": "single-stim", "trial_index": 198, "time_elapsed": 848492, "internal_node_id": "0.0-144.0"}}, {"uniqueid": "MTK0209:3YZ8UPK3VUT4QIS8JL68G3ADNOFUC2", "current_trial": 199, "dateTime": 1509547318317, "trialdata": {"rt": -1, "stimulus": "<p id=\"stim\">NURSE</p>", "key_press": -1, "type": "PRES_VIS", "word": "nurse", "wordID": 962, "conditions": [12, 800, "v", 12000], "trial": 5, "serialpos": 2, "trial_type": "single-stim", "trial_index": 199, "time_elapsed": 850102, "internal_node_id": "0.0-145.0"}}, {"uniqueid": "MTK0209:3YZ8UPK3VUT4QIS8JL68G3ADNOFUC2", "current_trial": 200, "dateTime": 1509547320062, "trialdata": {"rt": -1, "stimulus": "<p id=\"stim\">COBRA</p>", "key_press": -1, "type": "PRES_VIS", "word": "cobra", "wordID": 335, "conditions": [12, 800, "v", 12000], "trial": 5, "serialpos": 3, "trial_type": "single-stim", "trial_index": 200, "time_elapsed": 851848, "internal_node_id": "0.0-146.0"}}, {"uniqueid": "MTK0209:3YZ8UPK3VUT4QIS8JL68G3ADNOFUC2", "current_trial": 201, "dateTime": 1509547321770, "trialdata": {"rt": -1, "stimulus": "<p id=\"stim\">COTTAGE</p>", "key_press": -1, "type": "PRES_VIS", "word": "cottage", "wordID": 383, "conditions": [12, 800, "v", 12000], "trial": 5, "serialpos": 4, "trial_type": "single-stim", "trial_index": 201, "time_elapsed": 853556, "internal_node_id": "0.0-147.0"}}, {"uniqueid": "MTK0209:3YZ8UPK3VUT4QIS8JL68G3ADNOFUC2", "current_trial": 202, "dateTime": 1509547323560, "trialdata": {"rt": -1, "stimulus": "<p id=\"stim\">JURY</p>", "key_press": -1, "type": "PRES_VIS", "word": "jury", "wordID": 765, "conditions": [12, 800, "v", 12000], "trial": 5, "serialpos": 5, "trial_type": "single-stim", "trial_index": 202, "time_elapsed": 855345, "internal_node_id": "0.0-148.0"}}, {"uniqueid": "MTK0209:3YZ8UPK3VUT4QIS8JL68G3ADNOFUC2", "current_trial": 203, "dateTime": 1509547325377, "trialdata": {"rt": -1, "stimulus": "<p id=\"stim\">KLEENEX</p>", "key_press": -1, "type": "PRES_VIS", "word": "kleenex", "wordID": 781, "conditions": [12, 800, "v", 12000], "trial": 5, "serialpos": 6, "trial_type": "single-stim", "trial_index": 203, "time_elapsed": 857163, "internal_node_id": "0.0-149.0"}}, {"uniqueid": "MTK0209:3YZ8UPK3VUT4QIS8JL68G3ADNOFUC2", "current_trial": 204, "dateTime": 1509547327336, "trialdata": {"rt": -1, "stimulus": "<p id=\"stim\">PIGEON</p>", "key_press": -1, "type": "PRES_VIS", "word": "pigeon", "wordID": 1064, "conditions": [12, 800, "v", 12000], "trial": 5, "serialpos": 7, "trial_type": "single-stim", "trial_index": 204, "time_elapsed": 859122, "internal_node_id": "0.0-150.0"}}, {"uniqueid": "MTK0209:3YZ8UPK3VUT4QIS8JL68G3ADNOFUC2", "current_trial": 205, "dateTime": 1509547329101, "trialdata": {"rt": -1, "stimulus": "<p id=\"stim\">CREATURE</p>", "key_press": -1, "type": "PRES_VIS", "word": "creature", "wordID": 402, "conditions": [12, 800, "v", 12000], "trial": 5, "serialpos": 8, "trial_type": "single-stim", "trial_index": 205, "time_elapsed": 860887, "internal_node_id": "0.0-151.0"}}, {"uniqueid": "MTK0209:3YZ8UPK3VUT4QIS8JL68G3ADNOFUC2", "current_trial": 206, "dateTime": 1509547330748, "trialdata": {"rt": -1, "stimulus": "<p id=\"stim\">CHILD</p>", "key_press": -1, "type": "PRES_VIS", "word": "child", "wordID": 298, "conditions": [12, 800, "v", 12000], "trial": 5, "serialpos": 9, "trial_type": "single-stim", "trial_index": 206, "time_elapsed": 862534, "internal_node_id": "0.0-152.0"}}, {"uniqueid": "MTK0209:3YZ8UPK3VUT4QIS8JL68G3ADNOFUC2", "current_trial": 207, "dateTime": 1509547332453, "trialdata": {"rt": -1, "stimulus": "<p id=\"stim\">PEBBLE</p>", "key_press": -1, "type": "PRES_VIS", "word": "pebble", "wordID": 1034, "conditions": [12, 800, "v", 12000], "trial": 5, "serialpos": 10, "trial_type": "single-stim", "trial_index": 207, "time_elapsed": 864239, "internal_node_id": "0.0-153.0"}}, {"uniqueid": "MTK0209:3YZ8UPK3VUT4QIS8JL68G3ADNOFUC2", "current_trial": 208, "dateTime": 1509547334371, "trialdata": {"rt": -1, "stimulus": "<p id=\"stim\">WIFE</p>", "key_press": -1, "type": "PRES_VIS", "word": "wife", "wordID": 1608, "conditions": [12, 800, "v", 12000], "trial": 5, "serialpos": 11, "trial_type": "single-stim", "trial_index": 208, "time_elapsed": 866157, "internal_node_id": "0.0-154.0"}}, {"uniqueid": "MTK0209:3YZ8UPK3VUT4QIS8JL68G3ADNOFUC2", "current_trial": 209, "dateTime": 1509547336431, "trialdata": {"rt": -1, "stimulus": "", "key_press": -1, "type": "PRE_RECALL_DELAY", "trial_type": "single-stim", "trial_index": 209, "time_elapsed": 868217, "internal_node_id": "0.0-155.0-0.0"}}, {"uniqueid": "MTK0209:3YZ8UPK3VUT4QIS8JL68G3ADNOFUC2", "current_trial": 210, "dateTime": 1509547336933, "trialdata": {"rt": -1000, "stimulus": "/static/audio/400Hz.wav", "key_press": -1, "type": "PRE_RECALL_ALERT", "trial_type": "single-audio", "trial_index": 210, "time_elapsed": 868719, "internal_node_id": "0.0-156.0"}}, {"uniqueid": "MTK0209:3YZ8UPK3VUT4QIS8JL68G3ADNOFUC2", "current_trial": 211, "dateTime": 1509547396942, "trialdata": {"rt": [2934, 3637, 4526, 6454, 8926], "recwords": ["cobra", "child", "wife", "pigeon", "rabbit"], "type": "FREE_RECALL", "conditions": [12, 800, "v", 12000], "trial": 5, "trial_type": "free-recall", "trial_index": 211, "time_elapsed": 928724, "internal_node_id": "0.0-157.0-0.0"}}, {"uniqueid": "MTK0209:3YZ8UPK3VUT4QIS8JL68G3ADNOFUC2", "current_trial": 212, "dateTime": 1509547400039, "trialdata": {"rt": 1095, "key_press": 13, "type": "INSTRUCTIONS", "trial_type": "text", "trial_index": 212, "time_elapsed": 931824, "internal_node_id": "0.0-158.0"}}, {"uniqueid": "MTK0209:3YZ8UPK3VUT4QIS8JL68G3ADNOFUC2", "current_trial": 213, "dateTime": 1509547426047, "trialdata": {"rt": [2682, 3930, 6450, 8202, 9770, 12026, 16938, 19346, 23098], "responses": ["9", "9", "14", "15", "11", "13", "21", "19", "21"], "num1": [1, 4, 2, 8, 7, 2, 6, 8, 4, 9], "num2": [1, 4, 7, 2, 1, 8, 9, 8, 9, 1], "num3": [7, 1, 5, 5, 3, 3, 6, 3, 8, 2], "type": "DISTRACTOR", "conditions": [12, 800, "v", 24000], "trial": 6, "trial_type": "math-distractor", "trial_index": 213, "time_elapsed": 957832, "internal_node_id": "0.0-159.0"}}, {"uniqueid": "MTK0209:3YZ8UPK3VUT4QIS8JL68G3ADNOFUC2", "current_trial": 214, "dateTime": 1509547429048, "trialdata": {"rt": -1, "stimulus": "<p id=\"stim\">10</p>", "key_press": -1, "trial_type": "single-stim", "trial_index": 214, "time_elapsed": 960834, "internal_node_id": "0.0-160.0-0.0"}}, {"uniqueid": "MTK0209:3YZ8UPK3VUT4QIS8JL68G3ADNOFUC2", "current_trial": 215, "dateTime": 1509547430049, "trialdata": {"rt": -1, "stimulus": "<p id=\"stim\">9</p>", "key_press": -1, "trial_type": "single-stim", "trial_index": 215, "time_elapsed": 961835, "internal_node_id": "0.0-160.0-1.0"}}, {"uniqueid": "MTK0209:3YZ8UPK3VUT4QIS8JL68G3ADNOFUC2", "current_trial": 216, "dateTime": 1509547431050, "trialdata": {"rt": -1, "stimulus": "<p id=\"stim\">8</p>", "key_press": -1, "trial_type": "single-stim", "trial_index": 216, "time_elapsed": 962835, "internal_node_id": "0.0-160.0-2.0"}}, {"uniqueid": "MTK0209:3YZ8UPK3VUT4QIS8JL68G3ADNOFUC2", "current_trial": 217, "dateTime": 1509547432051, "trialdata": {"rt": -1, "stimulus": "<p id=\"stim\">7</p>", "key_press": -1, "trial_type": "single-stim", "trial_index": 217, "time_elapsed": 963836, "internal_node_id": "0.0-160.0-3.0"}}, {"uniqueid": "MTK0209:3YZ8UPK3VUT4QIS8JL68G3ADNOFUC2", "current_trial": 218, "dateTime": 1509547433052, "trialdata": {"rt": -1, "stimulus": "<p id=\"stim\">6</p>", "key_press": -1, "trial_type": "single-stim", "trial_index": 218, "time_elapsed": 964838, "internal_node_id": "0.0-160.0-4.0"}}, {"uniqueid": "MTK0209:3YZ8UPK3VUT4QIS8JL68G3ADNOFUC2", "current_trial": 219, "dateTime": 1509547434053, "trialdata": {"rt": -1, "stimulus": "<p id=\"stim\">5</p>", "key_press": -1, "trial_type": "single-stim", "trial_index": 219, "time_elapsed": 965839, "internal_node_id": "0.0-160.0-5.0"}}, {"uniqueid": "MTK0209:3YZ8UPK3VUT4QIS8JL68G3ADNOFUC2", "current_trial": 220, "dateTime": 1509547435054, "trialdata": {"rt": -1, "stimulus": "<p id=\"stim\">4</p>", "key_press": -1, "trial_type": "single-stim", "trial_index": 220, "time_elapsed": 966840, "internal_node_id": "0.0-160.0-6.0"}}, {"uniqueid": "MTK0209:3YZ8UPK3VUT4QIS8JL68G3ADNOFUC2", "current_trial": 221, "dateTime": 1509547436055, "trialdata": {"rt": -1, "stimulus": "<p id=\"stim\">3</p>", "key_press": -1, "trial_type": "single-stim", "trial_index": 221, "time_elapsed": 967841, "internal_node_id": "0.0-160.0-7.0"}}, {"uniqueid": "MTK0209:3YZ8UPK3VUT4QIS8JL68G3ADNOFUC2", "current_trial": 222, "dateTime": 1509547437057, "trialdata": {"rt": -1, "stimulus": "<p id=\"stim\">2</p>", "key_press": -1, "trial_type": "single-stim", "trial_index": 222, "time_elapsed": 968842, "internal_node_id": "0.0-160.0-8.0"}}, {"uniqueid": "MTK0209:3YZ8UPK3VUT4QIS8JL68G3ADNOFUC2", "current_trial": 223, "dateTime": 1509547438058, "trialdata": {"rt": -1, "stimulus": "<p id=\"stim\">1</p>", "key_press": -1, "trial_type": "single-stim", "trial_index": 223, "time_elapsed": 969844, "internal_node_id": "0.0-160.0-9.0"}}, {"uniqueid": "MTK0209:3YZ8UPK3VUT4QIS8JL68G3ADNOFUC2", "current_trial": 224, "dateTime": 1509547439560, "trialdata": {"rt": -1, "stimulus": "<p id=\"stim\">+</p>", "key_press": -1, "type": "FIXATION", "trial_type": "single-stim", "trial_index": 224, "time_elapsed": 971346, "internal_node_id": "0.0-161.0-0.0"}}, {"uniqueid": "MTK0209:3YZ8UPK3VUT4QIS8JL68G3ADNOFUC2", "current_trial": 225, "dateTime": 1509547440361, "trialdata": {"rt": -1, "stimulus": "<p id=\"stim\">DOLPHIN</p>", "key_press": -1, "type": "PRES_VIS", "word": "dolphin", "wordID": 482, "conditions": [12, 800, "v", 24000], "trial": 6, "serialpos": 0, "trial_type": "single-stim", "trial_index": 225, "time_elapsed": 972146, "internal_node_id": "0.0-162.0"}}, {"uniqueid": "MTK0209:3YZ8UPK3VUT4QIS8JL68G3ADNOFUC2", "current_trial": 226, "dateTime": 1509547442004, "trialdata": {"rt": -1, "stimulus": "<p id=\"stim\">SKILLET</p>", "key_press": -1, "type": "PRES_VIS", "word": "skillet", "wordID": 1316, "conditions": [12, 800, "v", 24000], "trial": 6, "serialpos": 1, "trial_type": "single-stim", "trial_index": 226, "time_elapsed": 973790, "internal_node_id": "0.0-163.0"}}, {"uniqueid": "MTK0209:3YZ8UPK3VUT4QIS8JL68G3ADNOFUC2", "current_trial": 227, "dateTime": 1509547443762, "trialdata": {"rt": -1, "stimulus": "<p id=\"stim\">VELVET</p>", "key_press": -1, "type": "PRES_VIS", "word": "velvet", "wordID": 1554, "conditions": [12, 800, "v", 24000], "trial": 6, "serialpos": 2, "trial_type": "single-stim", "trial_index": 227, "time_elapsed": 975548, "internal_node_id": "0.0-164.0"}}, {"uniqueid": "MTK0209:3YZ8UPK3VUT4QIS8JL68G3ADNOFUC2", "current_trial": 228, "dateTime": 1509547445574, "trialdata": {"rt": -1, "stimulus": "<p id=\"stim\">TILE</p>", "key_press": -1, "type": "PRES_VIS", "word": "tile", "wordID": 1467, "conditions": [12, 800, "v", 24000], "trial": 6, "serialpos": 3, "trial_type": "single-stim", "trial_index": 228, "time_elapsed": 977360, "internal_node_id": "0.0-165.0"}}, {"uniqueid": "MTK0209:3YZ8UPK3VUT4QIS8JL68G3ADNOFUC2", "current_trial": 229, "dateTime": 1509547447365, "trialdata": {"rt": -1, "stimulus": "<p id=\"stim\">PARSLEY</p>", "key_press": -1, "type": "PRES_VIS", "word": "parsley", "wordID": 1015, "conditions": [12, 800, "v", 24000], "trial": 6, "serialpos": 4, "trial_type": "single-stim", "trial_index": 229, "time_elapsed": 979150, "internal_node_id": "0.0-166.0"}}, {"uniqueid": "MTK0209:3YZ8UPK3VUT4QIS8JL68G3ADNOFUC2", "current_trial": 230, "dateTime": 1509547449229, "trialdata": {"rt": -1, "stimulus": "<p id=\"stim\">GUARD</p>", "key_press": -1, "type": "PRES_VIS", "word": "guard", "wordID": 666, "conditions": [12, 800, "v", 24000], "trial": 6, "serialpos": 5, "trial_type": "single-stim", "trial_index": 230, "time_elapsed": 981015, "internal_node_id": "0.0-167.0"}}, {"uniqueid": "MTK0209:3YZ8UPK3VUT4QIS8JL68G3ADNOFUC2", "current_trial": 231, "dateTime": 1509547451011, "trialdata": {"rt": -1, "stimulus": "<p id=\"stim\">SPARROW</p>", "key_press": -1, "type": "PRES_VIS", "word": "sparrow", "wordID": 1346, "conditions": [12, 800, "v", 24000], "trial": 6, "serialpos": 6, "trial_type": "single-stim", "trial_index": 231, "time_elapsed": 982796, "internal_node_id": "0.0-168.0"}}, {"uniqueid": "MTK0209:3YZ8UPK3VUT4QIS8JL68G3ADNOFUC2", "current_trial": 232, "dateTime": 1509547452934, "trialdata": {"rt": -1, "stimulus": "<p id=\"stim\">CRIB</p>", "key_press": -1, "type": "PRES_VIS", "word": "crib", "wordID": 406, "conditions": [12, 800, "v", 24000], "trial": 6, "serialpos": 7, "trial_type": "single-stim", "trial_index": 232, "time_elapsed": 984719, "internal_node_id": "0.0-169.0"}}, {"uniqueid": "MTK0209:3YZ8UPK3VUT4QIS8JL68G3ADNOFUC2", "current_trial": 233, "dateTime": 1509547454780, "trialdata": {"rt": -1, "stimulus": "<p id=\"stim\">INFANT</p>", "key_press": -1, "type": "PRES_VIS", "word": "infant", "wordID": 736, "conditions": [12, 800, "v", 24000], "trial": 6, "serialpos": 8, "trial_type": "single-stim", "trial_index": 233, "time_elapsed": 986566, "internal_node_id": "0.0-170.0"}}, {"uniqueid": "MTK0209:3YZ8UPK3VUT4QIS8JL68G3ADNOFUC2", "current_trial": 234, "dateTime": 1509547456584, "trialdata": {"rt": -1, "stimulus": "<p id=\"stim\">PLAID</p>", "key_press": -1, "type": "PRES_VIS", "word": "plaid", "wordID": 1079, "conditions": [12, 800, "v", 24000], "trial": 6, "serialpos": 9, "trial_type": "single-stim", "trial_index": 234, "time_elapsed": 988370, "internal_node_id": "0.0-171.0"}}, {"uniqueid": "MTK0209:3YZ8UPK3VUT4QIS8JL68G3ADNOFUC2", "current_trial": 235, "dateTime": 1509547458580, "trialdata": {"rt": -1, "stimulus": "<p id=\"stim\">SALT</p>", "key_press": -1, "type": "PRES_VIS", "word": "salt", "wordID": 1228, "conditions": [12, 800, "v", 24000], "trial": 6, "serialpos": 10, "trial_type": "single-stim", "trial_index": 235, "time_elapsed": 990365, "internal_node_id": "0.0-172.0"}}, {"uniqueid": "MTK0209:3YZ8UPK3VUT4QIS8JL68G3ADNOFUC2", "current_trial": 236, "dateTime": 1509547460551, "trialdata": {"rt": -1, "stimulus": "<p id=\"stim\">OUTDOORS</p>", "key_press": -1, "type": "PRES_VIS", "word": "outdoors", "wordID": 986, "conditions": [12, 800, "v", 24000], "trial": 6, "serialpos": 11, "trial_type": "single-stim", "trial_index": 236, "time_elapsed": 992337, "internal_node_id": "0.0-173.0"}}, {"uniqueid": "MTK0209:3YZ8UPK3VUT4QIS8JL68G3ADNOFUC2", "current_trial": 237, "dateTime": 1509547462831, "trialdata": {"rt": -1, "stimulus": "", "key_press": -1, "type": "PRE_RECALL_DELAY", "trial_type": "single-stim", "trial_index": 237, "time_elapsed": 994617, "internal_node_id": "0.0-174.0-0.0"}}, {"uniqueid": "MTK0209:3YZ8UPK3VUT4QIS8JL68G3ADNOFUC2", "current_trial": 238, "dateTime": 1509547463332, "trialdata": {"rt": -1000, "stimulus": "/static/audio/400Hz.wav", "key_press": -1, "type": "PRE_RECALL_ALERT", "trial_type": "single-audio", "trial_index": 238, "time_elapsed": 995118, "internal_node_id": "0.0-175.0"}}, {"uniqueid": "MTK0209:3YZ8UPK3VUT4QIS8JL68G3ADNOFUC2", "current_trial": 239, "dateTime": 1509547523342, "trialdata": {"rt": [2205, 3853, 5518, 7405, 8606, 10885, 18229], "recwords": ["sparrow", "skillet", "outdoors", "plaid", "salt", "guard", "outdoors"], "type": "FREE_RECALL", "conditions": [12, 800, "v", 24000], "trial": 6, "trial_type": "free-recall", "trial_index": 239, "time_elapsed": 1055122, "internal_node_id": "0.0-176.0-0.0"}}, {"uniqueid": "MTK0209:3YZ8UPK3VUT4QIS8JL68G3ADNOFUC2", "current_trial": 240, "dateTime": 1509547526309, "trialdata": {"rt": 966, "key_press": 13, "type": "INSTRUCTIONS", "trial_type": "text", "trial_index": 240, "time_elapsed": 1058094, "internal_node_id": "0.0-177.0"}}, {"uniqueid": "MTK0209:3YZ8UPK3VUT4QIS8JL68G3ADNOFUC2", "current_trial": 241, "dateTime": 1509547540314, "trialdata": {"rt": [3509, 5940, 7428, 9484], "responses": ["19", "17", "10", "18"], "num1": [9, 4, 4, 9, 6], "num2": [1, 8, 5, 8, 7], "num3": [9, 5, 1, 1, 6], "type": "DISTRACTOR", "conditions": [12, 1600, "v", 12000], "trial": 7, "trial_type": "math-distractor", "trial_index": 241, "time_elapsed": 1072100, "internal_node_id": "0.0-178.0"}}, {"uniqueid": "MTK0209:3YZ8UPK3VUT4QIS8JL68G3ADNOFUC2", "current_trial": 242, "dateTime": 1509547543316, "trialdata": {"rt": -1, "stimulus": "<p id=\"stim\">10</p>", "key_press": -1, "trial_type": "single-stim", "trial_index": 242, "time_elapsed": 1075102, "internal_node_id": "0.0-179.0-0.0"}}, {"uniqueid": "MTK0209:3YZ8UPK3VUT4QIS8JL68G3ADNOFUC2", "current_trial": 243, "dateTime": 1509547544317, "trialdata": {"rt": -1, "stimulus": "<p id=\"stim\">9</p>", "key_press": -1, "trial_type": "single-stim", "trial_index": 243, "time_elapsed": 1076103, "internal_node_id": "0.0-179.0-1.0"}}, {"uniqueid": "MTK0209:3YZ8UPK3VUT4QIS8JL68G3ADNOFUC2", "current_trial": 244, "dateTime": 1509547545319, "trialdata": {"rt": -1, "stimulus": "<p id=\"stim\">8</p>", "key_press": -1, "trial_type": "single-stim", "trial_index": 244, "time_elapsed": 1077104, "internal_node_id": "0.0-179.0-2.0"}}, {"uniqueid": "MTK0209:3YZ8UPK3VUT4QIS8JL68G3ADNOFUC2", "current_trial": 245, "dateTime": 1509547546319, "trialdata": {"rt": -1, "stimulus": "<p id=\"stim\">7</p>", "key_press": -1, "trial_type": "single-stim", "trial_index": 245, "time_elapsed": 1078105, "internal_node_id": "0.0-179.0-3.0"}}, {"uniqueid": "MTK0209:3YZ8UPK3VUT4QIS8JL68G3ADNOFUC2", "current_trial": 246, "dateTime": 1509547547320, "trialdata": {"rt": -1, "stimulus": "<p id=\"stim\">6</p>", "key_press": -1, "trial_type": "single-stim", "trial_index": 246, "time_elapsed": 1079106, "internal_node_id": "0.0-179.0-4.0"}}, {"uniqueid": "MTK0209:3YZ8UPK3VUT4QIS8JL68G3ADNOFUC2", "current_trial": 247, "dateTime": 1509547548321, "trialdata": {"rt": -1, "stimulus": "<p id=\"stim\">5</p>", "key_press": -1, "trial_type": "single-stim", "trial_index": 247, "time_elapsed": 1080107, "internal_node_id": "0.0-179.0-5.0"}}, {"uniqueid": "MTK0209:3YZ8UPK3VUT4QIS8JL68G3ADNOFUC2", "current_trial": 248, "dateTime": 1509547549323, "trialdata": {"rt": -1, "stimulus": "<p id=\"stim\">4</p>", "key_press": -1, "trial_type": "single-stim", "trial_index": 248, "time_elapsed": 1081109, "internal_node_id": "0.0-179.0-6.0"}}, {"uniqueid": "MTK0209:3YZ8UPK3VUT4QIS8JL68G3ADNOFUC2", "current_trial": 249, "dateTime": 1509547550324, "trialdata": {"rt": -1, "stimulus": "<p id=\"stim\">3</p>", "key_press": -1, "trial_type": "single-stim", "trial_index": 249, "time_elapsed": 1082110, "internal_node_id": "0.0-179.0-7.0"}}, {"uniqueid": "MTK0209:3YZ8UPK3VUT4QIS8JL68G3ADNOFUC2", "current_trial": 250, "dateTime": 1509547551325, "trialdata": {"rt": -1, "stimulus": "<p id=\"stim\">2</p>", "key_press": -1, "trial_type": "single-stim", "trial_index": 250, "time_elapsed": 1083111, "internal_node_id": "0.0-179.0-8.0"}}, {"uniqueid": "MTK0209:3YZ8UPK3VUT4QIS8JL68G3ADNOFUC2", "current_trial": 251, "dateTime": 1509547552326, "trialdata": {"rt": -1, "stimulus": "<p id=\"stim\">1</p>", "key_press": -1, "trial_type": "single-stim", "trial_index": 251, "time_elapsed": 1084112, "internal_node_id": "0.0-179.0-9.0"}}, {"uniqueid": "MTK0209:3YZ8UPK3VUT4QIS8JL68G3ADNOFUC2", "current_trial": 252, "dateTime": 1509547553827, "trialdata": {"rt": -1, "stimulus": "<p id=\"stim\">+</p>", "key_press": -1, "type": "FIXATION", "trial_type": "single-stim", "trial_index": 252, "time_elapsed": 1085613, "internal_node_id": "0.0-180.0-0.0"}}, {"uniqueid": "MTK0209:3YZ8UPK3VUT4QIS8JL68G3ADNOFUC2", "current_trial": 253, "dateTime": 1509547555428, "trialdata": {"rt": -1, "stimulus": "<p id=\"stim\">SHERIFF</p>", "key_press": -1, "type": "PRES_VIS", "word": "sheriff", "wordID": 1283, "conditions": [12, 1600, "v", 12000], "trial": 7, "serialpos": 0, "trial_type": "single-stim", "trial_index": 253, "time_elapsed": 1087214, "internal_node_id": "0.0-181.0"}}, {"uniqueid": "MTK0209:3YZ8UPK3VUT4QIS8JL68G3ADNOFUC2", "current_trial": 254, "dateTime": 1509547557848, "trialdata": {"rt": -1, "stimulus": "<p id=\"stim\">HOOD</p>", "key_press": -1, "type": "PRES_VIS", "word": "hood", "wordID": 713, "conditions": [12, 1600, "v", 12000], "trial": 7, "serialpos": 1, "trial_type": "single-stim", "trial_index": 254, "time_elapsed": 1089633, "internal_node_id": "0.0-182.0"}}, {"uniqueid": "MTK0209:3YZ8UPK3VUT4QIS8JL68G3ADNOFUC2", "current_trial": 255, "dateTime": 1509547560257, "trialdata": {"rt": -1, "stimulus": "<p id=\"stim\">CRAYON</p>", "key_press": -1, "type": "PRES_VIS", "word": "crayon", "wordID": 400, "conditions": [12, 1600, "v", 12000], "trial": 7, "serialpos": 2, "trial_type": "single-stim", "trial_index": 255, "time_elapsed": 1092043, "internal_node_id": "0.0-183.0"}}, {"uniqueid": "MTK0209:3YZ8UPK3VUT4QIS8JL68G3ADNOFUC2", "current_trial": 256, "dateTime": 1509547562667, "trialdata": {"rt": -1, "stimulus": "<p id=\"stim\">NECKLACE</p>", "key_press": -1, "type": "PRES_VIS", "word": "necklace", "wordID": 939, "conditions": [12, 1600, "v", 12000], "trial": 7, "serialpos": 3, "trial_type": "single-stim", "trial_index": 256, "time_elapsed": 1094453, "internal_node_id": "0.0-184.0"}}, {"uniqueid": "MTK0209:3YZ8UPK3VUT4QIS8JL68G3ADNOFUC2", "current_trial": 257, "dateTime": 1509547565384, "trialdata": {"rt": -1, "stimulus": "<p id=\"stim\">CHEST</p>", "key_press": -1, "type": "PRES_VIS", "word": "chest", "wordID": 294, "conditions": [12, 1600, "v", 12000], "trial": 7, "serialpos": 4, "trial_type": "single-stim", "trial_index": 257, "time_elapsed": 1097169, "internal_node_id": "0.0-185.0"}}, {"uniqueid": "MTK0209:3YZ8UPK3VUT4QIS8JL68G3ADNOFUC2", "current_trial": 258, "dateTime": 1509547568115, "trialdata": {"rt": -1, "stimulus": "<p id=\"stim\">PUDDING</p>", "key_press": -1, "type": "PRES_VIS", "word": "pudding", "wordID": 1138, "conditions": [12, 1600, "v", 12000], "trial": 7, "serialpos": 5, "trial_type": "single-stim", "trial_index": 258, "time_elapsed": 1099901, "internal_node_id": "0.0-186.0"}}, {"uniqueid": "MTK0209:3YZ8UPK3VUT4QIS8JL68G3ADNOFUC2", "current_trial": 259, "dateTime": 1509547570755, "trialdata": {"rt": -1, "stimulus": "<p id=\"stim\">SPOON</p>", "key_press": -1, "type": "PRES_VIS", "word": "spoon", "wordID": 1356, "conditions": [12, 1600, "v", 12000], "trial": 7, "serialpos": 6, "trial_type": "single-stim", "trial_index": 259, "time_elapsed": 1102541, "internal_node_id": "0.0-187.0"}}, {"uniqueid": "MTK0209:3YZ8UPK3VUT4QIS8JL68G3ADNOFUC2", "current_trial": 260, "dateTime": 1509547573307, "trialdata": {"rt": -1, "stimulus": "<p id=\"stim\">CATTLE</p>", "key_press": -1, "type": "PRES_VIS", "word": "cattle", "wordID": 260, "conditions": [12, 1600, "v", 12000], "trial": 7, "serialpos": 7, "trial_type": "single-stim", "trial_index": 260, "time_elapsed": 1105093, "internal_node_id": "0.0-188.0"}}, {"uniqueid": "MTK0209:3YZ8UPK3VUT4QIS8JL68G3ADNOFUC2", "current_trial": 261, "dateTime": 1509547576079, "trialdata": {"rt": -1, "stimulus": "<p id=\"stim\">BISON</p>", "key_press": -1, "type": "PRES_VIS", "word": "bison", "wordID": 130, "conditions": [12, 1600, "v", 12000], "trial": 7, "serialpos": 8, "trial_type": "single-stim", "trial_index": 261, "time_elapsed": 1107865, "internal_node_id": "0.0-189.0"}}, {"uniqueid": "MTK0209:3YZ8UPK3VUT4QIS8JL68G3ADNOFUC2", "current_trial": 262, "dateTime": 1509547578541, "trialdata": {"rt": -1, "stimulus": "<p id=\"stim\">COUSIN</p>", "key_press": -1, "type": "PRES_VIS", "word": "cousin", "wordID": 391, "conditions": [12, 1600, "v", 12000], "trial": 7, "serialpos": 9, "trial_type": "single-stim", "trial_index": 262, "time_elapsed": 1110326, "internal_node_id": "0.0-190.0"}}, {"uniqueid": "MTK0209:3YZ8UPK3VUT4QIS8JL68G3ADNOFUC2", "current_trial": 263, "dateTime": 1509547581140, "trialdata": {"rt": -1, "stimulus": "<p id=\"stim\">SKIRT</p>", "key_press": -1, "type": "PRES_VIS", "word": "skirt", "wordID": 1318, "conditions": [12, 1600, "v", 12000], "trial": 7, "serialpos": 10, "trial_type": "single-stim", "trial_index": 263, "time_elapsed": 1112926, "internal_node_id": "0.0-191.0"}}, {"uniqueid": "MTK0209:3YZ8UPK3VUT4QIS8JL68G3ADNOFUC2", "current_trial": 264, "dateTime": 1509547583896, "trialdata": {"rt": -1, "stimulus": "<p id=\"stim\">STOMACH</p>", "key_press": -1, "type": "PRES_VIS", "word": "stomach", "wordID": 1383, "conditions": [12, 1600, "v", 12000], "trial": 7, "serialpos": 11, "trial_type": "single-stim", "trial_index": 264, "time_elapsed": 1115682, "internal_node_id": "0.0-192.0"}}, {"uniqueid": "MTK0209:3YZ8UPK3VUT4QIS8JL68G3ADNOFUC2", "current_trial": 265, "dateTime": 1509547586389, "trialdata": {"rt": -1, "stimulus": "", "key_press": -1, "type": "PRE_RECALL_DELAY", "trial_type": "single-stim", "trial_index": 265, "time_elapsed": 1118175, "internal_node_id": "0.0-193.0-0.0"}}, {"uniqueid": "MTK0209:3YZ8UPK3VUT4QIS8JL68G3ADNOFUC2", "current_trial": 266, "dateTime": 1509547586890, "trialdata": {"rt": -1000, "stimulus": "/static/audio/400Hz.wav", "key_press": -1, "type": "PRE_RECALL_ALERT", "trial_type": "single-audio", "trial_index": 266, "time_elapsed": 1118676, "internal_node_id": "0.0-194.0"}}, {"uniqueid": "MTK0209:3YZ8UPK3VUT4QIS8JL68G3ADNOFUC2", "current_trial": 267, "dateTime": 1509547646903, "trialdata": {"rt": [2469, 3581, 4749, 5893, 7117, 8293, 10205, 13533], "recwords": ["sheriff", "hood", "cattle", "pudding", "stomach", "cousin", "bison", "skirt"], "type": "FREE_RECALL", "conditions": [12, 1600, "v", 12000], "trial": 7, "trial_type": "free-recall", "trial_index": 267, "time_elapsed": 1178683, "internal_node_id": "0.0-195.0-0.0"}}, {"uniqueid": "MTK0209:3YZ8UPK3VUT4QIS8JL68G3ADNOFUC2", "current_trial": 268, "dateTime": 1509547649892, "trialdata": {"rt": 988, "key_press": 32, "type": "INSTRUCTIONS", "trial_type": "text", "trial_index": 268, "time_elapsed": 1181678, "internal_node_id": "0.0-196.0"}}, {"uniqueid": "MTK0209:3YZ8UPK3VUT4QIS8JL68G3ADNOFUC2", "current_trial": 269, "dateTime": 1509547663901, "trialdata": {"rt": [2256, 3712, 5520, 7081, 10288], "responses": ["15", "12", "27", "8", "16"], "num1": [7, 5, 9, 3, 4, 9], "num2": [1, 6, 9, 2, 8, 3], "num3": [7, 1, 9, 3, 4, 7], "type": "DISTRACTOR", "conditions": [24, 1600, "a", 12000], "trial": 8, "trial_type": "math-distractor", "trial_index": 269, "time_elapsed": 1195687, "internal_node_id": "0.0-197.0"}}, {"uniqueid": "MTK0209:3YZ8UPK3VUT4QIS8JL68G3ADNOFUC2", "current_trial": 270, "dateTime": 1509547666905, "trialdata": {"rt": -1, "stimulus": "<p id=\"stim\">10</p>", "key_press": -1, "trial_type": "single-stim", "trial_index": 270, "time_elapsed": 1198690, "internal_node_id": "0.0-198.0-0.0"}}, {"uniqueid": "MTK0209:3YZ8UPK3VUT4QIS8JL68G3ADNOFUC2", "current_trial": 271, "dateTime": 1509547667906, "trialdata": {"rt": -1, "stimulus": "<p id=\"stim\">9</p>", "key_press": -1, "trial_type": "single-stim", "trial_index": 271, "time_elapsed": 1199691, "internal_node_id": "0.0-198.0-1.0"}}, {"uniqueid": "MTK0209:3YZ8UPK3VUT4QIS8JL68G3ADNOFUC2", "current_trial": 272, "dateTime": 1509547668907, "trialdata": {"rt": -1, "stimulus": "<p id=\"stim\">8</p>", "key_press": -1, "trial_type": "single-stim", "trial_index": 272, "time_elapsed": 1200693, "internal_node_id": "0.0-198.0-2.0"}}, {"uniqueid": "MTK0209:3YZ8UPK3VUT4QIS8JL68G3ADNOFUC2", "current_trial": 273, "dateTime": 1509547669908, "trialdata": {"rt": -1, "stimulus": "<p id=\"stim\">7</p>", "key_press": -1, "trial_type": "single-stim", "trial_index": 273, "time_elapsed": 1201694, "internal_node_id": "0.0-198.0-3.0"}}, {"uni