{"condition": 0, "counterbalance": 2942, "assignmentId": "34S9DKFK74W4YV94ICCBZZA2KPOYNQ", "workerId": "MTK0598", "hitId": "3M67TQBQQHVGQR9DBUAOPS1RYZHA9X", "currenttrial": 626, "bonus": 0, "data": [{"uniqueid": "MTK0598:34S9DKFK74W4YV94ICCBZZA2KPOYNQ", "current_trial": 0, "dateTime": 1511558370757, "trialdata": {"rt": 41546, "key_press": 32, "type": "INSTRUCTIONS", "trial_type": "text", "trial_index": 0, "time_elapsed": 41552, "internal_node_id": "0.0-0.0"}}, {"uniqueid": "MTK0598:34S9DKFK74W4YV94ICCBZZA2KPOYNQ", "current_trial": 1, "dateTime": 1511558390157, "trialdata": {"rt": 19396, "key_press": 32, "type": "INSTRUCTIONS", "trial_type": "text", "trial_index": 1, "time_elapsed": 60954, "internal_node_id": "0.0-1.0"}}, {"uniqueid": "MTK0598:34S9DKFK74W4YV94ICCBZZA2KPOYNQ", "current_trial": 2, "dateTime": 1511558407958, "trialdata": {"rt": [17759], "responses": ["ocean"], "type": "AUDIO_TEST", "trial_type": "audio-test", "trial_index": 2, "time_elapsed": 78756, "internal_node_id": "0.0-2.0"}}, {"uniqueid": "MTK0598:34S9DKFK74W4YV94ICCBZZA2KPOYNQ", "current_trial": 3, "dateTime": 1511558413910, "trialdata": {"rt": [5931], "responses": ["crystal"], "type": "AUDIO_TEST", "trial_type": "audio-test", "trial_index": 3, "time_elapsed": 84708, "internal_node_id": "0.0-3.0"}}, {"uniqueid": "MTK0598:34S9DKFK74W4YV94ICCBZZA2KPOYNQ", "current_trial": 4, "dateTime": 1511558422135, "trialdata": {"rt": [8212], "responses": ["spice"], "type": "AUDIO_TEST", "trial_type": "audio-test", "trial_index": 4, "time_elapsed": 92932, "internal_node_id": "0.0-4.0"}}, {"uniqueid": "MTK0598:34S9DKFK74W4YV94ICCBZZA2KPOYNQ", "current_trial": 5, "dateTime": 1511558448192, "trialdata": {"rt": 25301, "responses": "{\"Q0\":\"2am\",\"Q1\":\"11am\",\"Q2\":\"4\"}", "type": "SLEEP_SURVEY", "trial_type": "survey-text", "trial_index": 5, "time_elapsed": 118990, "internal_node_id": "0.0-5.0"}}, {"uniqueid": "MTK0598:34S9DKFK74W4YV94ICCBZZA2KPOYNQ", "current_trial": 6, "dateTime": 1511558507797, "trialdata": {"rt": 58604, "key_press": 32, "type": "INSTRUCTIONS", "trial_type": "text", "trial_index": 6, "time_elapsed": 178595, "internal_node_id": "0.0-6.0"}}, {"uniqueid": "MTK0598:34S9DKFK74W4YV94ICCBZZA2KPOYNQ", "current_trial": 7, "dateTime": 1511558526392, "trialdata": {"rt": 18093, "key_press": 32, "type": "INSTRUCTIONS", "trial_type": "text", "trial_index": 7, "time_elapsed": 197190, "internal_node_id": "0.0-7.0"}}, {"uniqueid": "MTK0598:34S9DKFK74W4YV94ICCBZZA2KPOYNQ", "current_trial": 8, "dateTime": 1511558541134, "trialdata": {"rt": 14241, "key_press": 32, "type": "INSTRUCTIONS", "trial_type": "text", "trial_index": 8, "time_elapsed": 211932, "internal_node_id": "0.0-8.0"}}, {"uniqueid": "MTK0598:34S9DKFK74W4YV94ICCBZZA2KPOYNQ", "current_trial": 9, "dateTime": 1511558560148, "trialdata": {"rt": [4556, 8435, 12347, 15501], "responses": ["7", "9", "9", "13"], "num1": [1, 6, 4, 9, 6], "num2": [1, 2, 3, 3, 6], "num3": [5, 1, 2, 1, 3], "type": "DISTRACTOR", "conditions": [18, 1200, "a", 18000], "trial": 0, "trial_type": "math-distractor", "trial_index": 9, "time_elapsed": 230945, "internal_node_id": "0.0-9.0"}}, {"uniqueid": "MTK0598:34S9DKFK74W4YV94ICCBZZA2KPOYNQ", "current_trial": 10, "dateTime": 1511558563155, "trialdata": {"rt": -1, "stimulus": "<p id=\"stim\">10</p>", "key_press": -1, "trial_type": "single-stim", "trial_index": 10, "time_elapsed": 233953, "internal_node_id": "0.0-10.0-0.0"}}, {"uniqueid": "MTK0598:34S9DKFK74W4YV94ICCBZZA2KPOYNQ", "current_trial": 11, "dateTime": 1511558564157, "trialdata": {"rt": -1, "stimulus": "<p id=\"stim\">9</p>", "key_press": -1, "trial_type": "single-stim", "trial_index": 11, "time_elapsed": 234955, "internal_node_id": "0.0-10.0-1.0"}}, {"uniqueid": "MTK0598:34S9DKFK74W4YV94ICCBZZA2KPOYNQ", "current_trial": 12, "dateTime": 1511558565159, "trialdata": {"rt": -1, "stimulus": "<p id=\"stim\">8</p>", "key_press": -1, "trial_type": "single-stim", "trial_index": 12, "time_elapsed": 235957, "internal_node_id": "0.0-10.0-2.0"}}, {"uniqueid": "MTK0598:34S9DKFK74W4YV94ICCBZZA2KPOYNQ", "current_trial": 13, "dateTime": 1511558566161, "trialdata": {"rt": -1, "stimulus": "<p id=\"stim\">7</p>", "key_press": -1, "trial_type": "single-stim", "trial_index": 13, "time_elapsed": 236959, "internal_node_id": "0.0-10.0-3.0"}}, {"uniqueid": "MTK0598:34S9DKFK74W4YV94ICCBZZA2KPOYNQ", "current_trial": 14, "dateTime": 1511558567163, "trialdata": {"rt": -1, "stimulus": "<p id=\"stim\">6</p>", "key_press": -1, "trial_type": "single-stim", "trial_index": 14, "time_elapsed": 237961, "internal_node_id": "0.0-10.0-4.0"}}, {"uniqueid": "MTK0598:34S9DKFK74W4YV94ICCBZZA2KPOYNQ", "current_trial": 15, "dateTime": 1511558568165, "trialdata": {"rt": -1, "stimulus": "<p id=\"stim\">5</p>", "key_press": -1, "trial_type": "single-stim", "trial_index": 15, "time_elapsed": 238963, "internal_node_id": "0.0-10.0-5.0"}}, {"uniqueid": "MTK0598:34S9DKFK74W4YV94ICCBZZA2KPOYNQ", "current_trial": 16, "dateTime": 1511558569168, "trialdata": {"rt": -1, "stimulus": "<p id=\"stim\">4</p>", "key_press": -1, "trial_type": "single-stim", "trial_index": 16, "time_elapsed": 239966, "internal_node_id": "0.0-10.0-6.0"}}, {"uniqueid": "MTK0598:34S9DKFK74W4YV94ICCBZZA2KPOYNQ", "current_trial": 17, "dateTime": 1511558570172, "trialdata": {"rt": -1, "stimulus": "<p id=\"stim\">3</p>", "key_press": -1, "trial_type": "single-stim", "trial_index": 17, "time_elapsed": 240970, "internal_node_id": "0.0-10.0-7.0"}}, {"uniqueid": "MTK0598:34S9DKFK74W4YV94ICCBZZA2KPOYNQ", "current_trial": 18, "dateTime": 1511558571174, "trialdata": {"rt": -1, "stimulus": "<p id=\"stim\">2</p>", "key_press": -1, "trial_type": "single-stim", "trial_index": 18, "time_elapsed": 241972, "internal_node_id": "0.0-10.0-8.0"}}, {"uniqueid": "MTK0598:34S9DKFK74W4YV94ICCBZZA2KPOYNQ", "current_trial": 19, "dateTime": 1511558572176, "trialdata": {"rt": -1, "stimulus": "<p id=\"stim\">1</p>", "key_press": -1, "trial_type": "single-stim", "trial_index": 19, "time_elapsed": 242974, "internal_node_id": "0.0-10.0-9.0"}}, {"uniqueid": "MTK0598:34S9DKFK74W4YV94ICCBZZA2KPOYNQ", "current_trial": 20, "dateTime": 1511558573678, "trialdata": {"rt": -1, "stimulus": "<p id=\"stim\">+</p>", "key_press": -1, "type": "FIXATION", "trial_type": "single-stim", "trial_index": 20, "time_elapsed": 244476, "internal_node_id": "0.0-11.0-0.0"}}, {"uniqueid": "MTK0598:34S9DKFK74W4YV94ICCBZZA2KPOYNQ", "current_trial": 21, "dateTime": 1511558575839, "trialdata": {"rt": -1000, "stimulus": "/static/audio/wordpool/BIKE.wav", "key_press": -1, "type": "PRES_AUD", "word": "bike", "wordID": 124, "conditions": [18, 1200, "a", 18000], "trial": 0, "serialpos": 0, "trial_type": "single-audio", "trial_index": 21, "time_elapsed": 246637, "internal_node_id": "0.0-12.0"}}, {"uniqueid": "MTK0598:34S9DKFK74W4YV94ICCBZZA2KPOYNQ", "current_trial": 22, "dateTime": 1511558577921, "trialdata": {"rt": -1000, "stimulus": "/static/audio/wordpool/PARTNER.wav", "key_press": -1, "type": "PRES_AUD", "word": "partner", "wordID": 1016, "conditions": [18, 1200, "a", 18000], "trial": 0, "serialpos": 1, "trial_type": "single-audio", "trial_index": 22, "time_elapsed": 248719, "internal_node_id": "0.0-13.0"}}, {"uniqueid": "MTK0598:34S9DKFK74W4YV94ICCBZZA2KPOYNQ", "current_trial": 23, "dateTime": 1511558579931, "trialdata": {"rt": -1000, "stimulus": "/static/audio/wordpool/OUTFIT.wav", "key_press": -1, "type": "PRES_AUD", "word": "outfit", "wordID": 987, "conditions": [18, 1200, "a", 18000], "trial": 0, "serialpos": 2, "trial_type": "single-audio", "trial_index": 23, "time_elapsed": 250729, "internal_node_id": "0.0-14.0"}}, {"uniqueid": "MTK0598:34S9DKFK74W4YV94ICCBZZA2KPOYNQ", "current_trial": 24, "dateTime": 1511558581976, "trialdata": {"rt": -1000, "stimulus": "/static/audio/wordpool/DUST.wav", "key_press": -1, "type": "PRES_AUD", "word": "dust", "wordID": 507, "conditions": [18, 1200, "a", 18000], "trial": 0, "serialpos": 3, "trial_type": "single-audio", "trial_index": 24, "time_elapsed": 252774, "internal_node_id": "0.0-15.0"}}, {"uniqueid": "MTK0598:34S9DKFK74W4YV94ICCBZZA2KPOYNQ", "current_trial": 25, "dateTime": 1511558584127, "trialdata": {"rt": -1000, "stimulus": "/static/audio/wordpool/SUSPECT.wav", "key_press": -1, "type": "PRES_AUD", "word": "suspect", "wordID": 1414, "conditions": [18, 1200, "a", 18000], "trial": 0, "serialpos": 4, "trial_type": "single-audio", "trial_index": 25, "time_elapsed": 254924, "internal_node_id": "0.0-16.0"}}, {"uniqueid": "MTK0598:34S9DKFK74W4YV94ICCBZZA2KPOYNQ", "current_trial": 26, "dateTime": 1511558586309, "trialdata": {"rt": -1000, "stimulus": "/static/audio/wordpool/ISLAND.wav", "key_press": -1, "type": "PRES_AUD", "word": "island", "wordID": 744, "conditions": [18, 1200, "a", 18000], "trial": 0, "serialpos": 5, "trial_type": "single-audio", "trial_index": 26, "time_elapsed": 257106, "internal_node_id": "0.0-17.0"}}, {"uniqueid": "MTK0598:34S9DKFK74W4YV94ICCBZZA2KPOYNQ", "current_trial": 27, "dateTime": 1511558588510, "trialdata": {"rt": -1000, "stimulus": "/static/audio/wordpool/BANQUET.wav", "key_press": -1, "type": "PRES_AUD", "word": "banquet", "wordID": 85, "conditions": [18, 1200, "a", 18000], "trial": 0, "serialpos": 6, "trial_type": "single-audio", "trial_index": 27, "time_elapsed": 259307, "internal_node_id": "0.0-18.0"}}, {"uniqueid": "MTK0598:34S9DKFK74W4YV94ICCBZZA2KPOYNQ", "current_trial": 28, "dateTime": 1511558590696, "trialdata": {"rt": -1000, "stimulus": "/static/audio/wordpool/HOUND.wav", "key_press": -1, "type": "PRES_AUD", "word": "hound", "wordID": 723, "conditions": [18, 1200, "a", 18000], "trial": 0, "serialpos": 7, "trial_type": "single-audio", "trial_index": 28, "time_elapsed": 261493, "internal_node_id": "0.0-19.0"}}, {"uniqueid": "MTK0598:34S9DKFK74W4YV94ICCBZZA2KPOYNQ", "current_trial": 29, "dateTime": 1511558593036, "trialdata": {"rt": -1000, "stimulus": "/static/audio/wordpool/TORTOISE.wav", "key_press": -1, "type": "PRES_AUD", "word": "tortoise", "wordID": 1485, "conditions": [18, 1200, "a", 18000], "trial": 0, "serialpos": 8, "trial_type": "single-audio", "trial_index": 29, "time_elapsed": 263834, "internal_node_id": "0.0-20.0"}}, {"uniqueid": "MTK0598:34S9DKFK74W4YV94ICCBZZA2KPOYNQ", "current_trial": 30, "dateTime": 1511558595153, "trialdata": {"rt": -1000, "stimulus": "/static/audio/wordpool/FLAG.wav", "key_press": -1, "type": "PRES_AUD", "word": "flag", "wordID": 572, "conditions": [18, 1200, "a", 18000], "trial": 0, "serialpos": 9, "trial_type": "single-audio", "trial_index": 30, "time_elapsed": 265950, "internal_node_id": "0.0-21.0"}}, {"uniqueid": "MTK0598:34S9DKFK74W4YV94ICCBZZA2KPOYNQ", "current_trial": 31, "dateTime": 1511558597536, "trialdata": {"rt": -1000, "stimulus": "/static/audio/wordpool/CHAUFFEUR.wav", "key_press": -1, "type": "PRES_AUD", "word": "chauffeur", "wordID": 282, "conditions": [18, 1200, "a", 18000], "trial": 0, "serialpos": 10, "trial_type": "single-audio", "trial_index": 31, "time_elapsed": 268333, "internal_node_id": "0.0-22.0"}}, {"uniqueid": "MTK0598:34S9DKFK74W4YV94ICCBZZA2KPOYNQ", "current_trial": 32, "dateTime": 1511558599707, "trialdata": {"rt": -1000, "stimulus": "/static/audio/wordpool/CLIMBER.wav", "key_press": -1, "type": "PRES_AUD", "word": "climber", "wordID": 322, "conditions": [18, 1200, "a", 18000], "trial": 0, "serialpos": 11, "trial_type": "single-audio", "trial_index": 32, "time_elapsed": 270504, "internal_node_id": "0.0-23.0"}}, {"uniqueid": "MTK0598:34S9DKFK74W4YV94ICCBZZA2KPOYNQ", "current_trial": 33, "dateTime": 1511558601954, "trialdata": {"rt": -1000, "stimulus": "/static/audio/wordpool/HAWK.wav", "key_press": -1, "type": "PRES_AUD", "word": "hawk", "wordID": 691, "conditions": [18, 1200, "a", 18000], "trial": 0, "serialpos": 12, "trial_type": "single-audio", "trial_index": 33, "time_elapsed": 272752, "internal_node_id": "0.0-24.0"}}, {"uniqueid": "MTK0598:34S9DKFK74W4YV94ICCBZZA2KPOYNQ", "current_trial": 34, "dateTime": 1511558603981, "trialdata": {"rt": -1000, "stimulus": "/static/audio/wordpool/MARKER.wav", "key_press": -1, "type": "PRES_AUD", "word": "marker", "wordID": 869, "conditions": [18, 1200, "a", 18000], "trial": 0, "serialpos": 13, "trial_type": "single-audio", "trial_index": 34, "time_elapsed": 274778, "internal_node_id": "0.0-25.0"}}, {"uniqueid": "MTK0598:34S9DKFK74W4YV94ICCBZZA2KPOYNQ", "current_trial": 35, "dateTime": 1511558606296, "trialdata": {"rt": -1000, "stimulus": "/static/audio/wordpool/YACHT.wav", "key_press": -1, "type": "PRES_AUD", "word": "yacht", "wordID": 1628, "conditions": [18, 1200, "a", 18000], "trial": 0, "serialpos": 14, "trial_type": "single-audio", "trial_index": 35, "time_elapsed": 277094, "internal_node_id": "0.0-26.0"}}, {"uniqueid": "MTK0598:34S9DKFK74W4YV94ICCBZZA2KPOYNQ", "current_trial": 36, "dateTime": 1511558608629, "trialdata": {"rt": -1000, "stimulus": "/static/audio/wordpool/CUPBOARD.wav", "key_press": -1, "type": "PRES_AUD", "word": "cupboard", "wordID": 424, "conditions": [18, 1200, "a", 18000], "trial": 0, "serialpos": 15, "trial_type": "single-audio", "trial_index": 36, "time_elapsed": 279426, "internal_node_id": "0.0-27.0"}}, {"uniqueid": "MTK0598:34S9DKFK74W4YV94ICCBZZA2KPOYNQ", "current_trial": 37, "dateTime": 1511558610692, "trialdata": {"rt": -1000, "stimulus": "/static/audio/wordpool/BLUEPRINT.wav", "key_press": -1, "type": "PRES_AUD", "word": "blueprint", "wordID": 141, "conditions": [18, 1200, "a", 18000], "trial": 0, "serialpos": 16, "trial_type": "single-audio", "trial_index": 37, "time_elapsed": 281489, "internal_node_id": "0.0-28.0"}}, {"uniqueid": "MTK0598:34S9DKFK74W4YV94ICCBZZA2KPOYNQ", "current_trial": 38, "dateTime": 1511558612859, "trialdata": {"rt": -1000, "stimulus": "/static/audio/wordpool/GARBAGE.wav", "key_press": -1, "type": "PRES_AUD", "word": "garbage", "wordID": 621, "conditions": [18, 1200, "a", 18000], "trial": 0, "serialpos": 17, "trial_type": "single-audio", "trial_index": 38, "time_elapsed": 283656, "internal_node_id": "0.0-29.0"}}, {"uniqueid": "MTK0598:34S9DKFK74W4YV94ICCBZZA2KPOYNQ", "current_trial": 39, "dateTime": 1511558614250, "trialdata": {"rt": -1, "stimulus": "", "key_press": -1, "type": "PRE_RECALL_DELAY", "trial_type": "single-stim", "trial_index": 39, "time_elapsed": 285048, "internal_node_id": "0.0-30.0-0.0"}}, {"uniqueid": "MTK0598:34S9DKFK74W4YV94ICCBZZA2KPOYNQ", "current_trial": 40, "dateTime": 1511558614752, "trialdata": {"rt": -1000, "stimulus": "/static/audio/400Hz.wav", "key_press": -1, "type": "PRE_RECALL_ALERT", "trial_type": "single-audio", "trial_index": 40, "time_elapsed": 285550, "internal_node_id": "0.0-31.0"}}, {"uniqueid": "MTK0598:34S9DKFK74W4YV94ICCBZZA2KPOYNQ", "current_trial": 41, "dateTime": 1511558674764, "trialdata": {"rt": [6460, 9268, 11640, 13485, 15425, 20171, 22534, 26192, 28629, 31047, 34574, 37458, 53197], "recwords": ["bike", "partnet", "dust", "island", "hound", "garbage", "blueprint", "chaufer", "hound", "tortoise", "hawk", "yacht", "climber"], "type": "FREE_RECALL", "conditions": [18, 1200, "a", 18000], "trial": 0, "trial_type": "free-recall", "trial_index": 41, "time_elapsed": 345555, "internal_node_id": "0.0-32.0-0.0"}}, {"uniqueid": "MTK0598:34S9DKFK74W4YV94ICCBZZA2KPOYNQ", "current_trial": 42, "dateTime": 1511558679403, "trialdata": {"rt": 2638, "key_press": 32, "type": "INSTRUCTIONS", "trial_type": "text", "trial_index": 42, "time_elapsed": 350201, "internal_node_id": "0.0-33.0"}}, {"uniqueid": "MTK0598:34S9DKFK74W4YV94ICCBZZA2KPOYNQ", "current_trial": 43, "dateTime": 1511558699408, "trialdata": {"rt": [5111, 7292, 9745, 11795, 15142], "responses": ["15", "6", "12", "9", "12"], "num1": [4, 2, 3, 5, 4, 4], "num2": [5, 1, 7, 3, 7, 7], "num3": [6, 3, 2, 1, 1, 1], "type": "DISTRACTOR", "conditions": [18, 1200, "v", 18000], "trial": 1, "trial_type": "math-distractor", "trial_index": 43, "time_elapsed": 370205, "internal_node_id": "0.0-34.0"}}, {"uniqueid": "MTK0598:34S9DKFK74W4YV94ICCBZZA2KPOYNQ", "current_trial": 44, "dateTime": 1511558702409, "trialdata": {"rt": -1, "stimulus": "<p id=\"stim\">10</p>", "key_press": -1, "trial_type": "single-stim", "trial_index": 44, "time_elapsed": 373207, "internal_node_id": "0.0-35.0-0.0"}}, {"uniqueid": "MTK0598:34S9DKFK74W4YV94ICCBZZA2KPOYNQ", "current_trial": 45, "dateTime": 1511558703411, "trialdata": {"rt": -1, "stimulus": "<p id=\"stim\">9</p>", "key_press": -1, "trial_type": "single-stim", "trial_index": 45, "time_elapsed": 374209, "internal_node_id": "0.0-35.0-1.0"}}, {"uniqueid": "MTK0598:34S9DKFK74W4YV94ICCBZZA2KPOYNQ", "current_trial": 46, "dateTime": 1511558704412, "trialdata": {"rt": -1, "stimulus": "<p id=\"stim\">8</p>", "key_press": -1, "trial_type": "single-stim", "trial_index": 46, "time_elapsed": 375210, "internal_node_id": "0.0-35.0-2.0"}}, {"uniqueid": "MTK0598:34S9DKFK74W4YV94ICCBZZA2KPOYNQ", "current_trial": 47, "dateTime": 1511558705413, "trialdata": {"rt": -1, "stimulus": "<p id=\"stim\">7</p>", "key_press": -1, "trial_type": "single-stim", "trial_index": 47, "time_elapsed": 376211, "internal_node_id": "0.0-35.0-3.0"}}, {"uniqueid": "MTK0598:34S9DKFK74W4YV94ICCBZZA2KPOYNQ", "current_trial": 48, "dateTime": 1511558706414, "trialdata": {"rt": -1, "stimulus": "<p id=\"stim\">6</p>", "key_press": -1, "trial_type": "single-stim", "trial_index": 48, "time_elapsed": 377212, "internal_node_id": "0.0-35.0-4.0"}}, {"uniqueid": "MTK0598:34S9DKFK74W4YV94ICCBZZA2KPOYNQ", "current_trial": 49, "dateTime": 1511558707415, "trialdata": {"rt": -1, "stimulus": "<p id=\"stim\">5</p>", "key_press": -1, "trial_type": "single-stim", "trial_index": 49, "time_elapsed": 378213, "internal_node_id": "0.0-35.0-5.0"}}, {"uniqueid": "MTK0598:34S9DKFK74W4YV94ICCBZZA2KPOYNQ", "current_trial": 50, "dateTime": 1511558708417, "trialdata": {"rt": -1, "stimulus": "<p id=\"stim\">4</p>", "key_press": -1, "trial_type": "single-stim", "trial_index": 50, "time_elapsed": 379215, "internal_node_id": "0.0-35.0-6.0"}}, {"uniqueid": "MTK0598:34S9DKFK74W4YV94ICCBZZA2KPOYNQ", "current_trial": 51, "dateTime": 1511558709419, "trialdata": {"rt": -1, "stimulus": "<p id=\"stim\">3</p>", "key_press": -1, "trial_type": "single-stim", "trial_index": 51, "time_elapsed": 380217, "internal_node_id": "0.0-35.0-7.0"}}, {"uniqueid": "MTK0598:34S9DKFK74W4YV94ICCBZZA2KPOYNQ", "current_trial": 52, "dateTime": 1511558710421, "trialdata": {"rt": -1, "stimulus": "<p id=\"stim\">2</p>", "key_press": -1, "trial_type": "single-stim", "trial_index": 52, "time_elapsed": 381219, "internal_node_id": "0.0-35.0-8.0"}}, {"uniqueid": "MTK0598:34S9DKFK74W4YV94ICCBZZA2KPOYNQ", "current_trial": 53, "dateTime": 1511558711423, "trialdata": {"rt": -1, "stimulus": "<p id=\"stim\">1</p>", "key_press": -1, "trial_type": "single-stim", "trial_index": 53, "time_elapsed": 382221, "internal_node_id": "0.0-35.0-9.0"}}, {"uniqueid": "MTK0598:34S9DKFK74W4YV94ICCBZZA2KPOYNQ", "current_trial": 54, "dateTime": 1511558712925, "trialdata": {"rt": -1, "stimulus": "<p id=\"stim\">+</p>", "key_press": -1, "type": "FIXATION", "trial_type": "single-stim", "trial_index": 54, "time_elapsed": 383723, "internal_node_id": "0.0-36.0-0.0"}}, {"uniqueid": "MTK0598:34S9DKFK74W4YV94ICCBZZA2KPOYNQ", "current_trial": 55, "dateTime": 1511558714127, "trialdata": {"rt": -1, "stimulus": "<p id=\"stim\">SHORTCAKE</p>", "key_press": -1, "type": "PRES_VIS", "word": "shortcake", "wordID": 1291, "conditions": [18, 1200, "v", 18000], "trial": 1, "serialpos": 0, "trial_type": "single-stim", "trial_index": 55, "time_elapsed": 384925, "internal_node_id": "0.0-37.0"}}, {"uniqueid": "MTK0598:34S9DKFK74W4YV94ICCBZZA2KPOYNQ", "current_trial": 56, "dateTime": 1511558716177, "trialdata": {"rt": -1, "stimulus": "<p id=\"stim\">HATCHET</p>", "key_press": -1, "type": "PRES_VIS", "word": "hatchet", "wordID": 690, "conditions": [18, 1200, "v", 18000], "trial": 1, "serialpos": 1, "trial_type": "single-stim", "trial_index": 56, "time_elapsed": 386975, "internal_node_id": "0.0-38.0"}}, {"uniqueid": "MTK0598:34S9DKFK74W4YV94ICCBZZA2KPOYNQ", "current_trial": 57, "dateTime": 1511558718550, "trialdata": {"rt": -1, "stimulus": "<p id=\"stim\">BUREAU</p>", "key_press": -1, "type": "PRES_VIS", "word": "bureau", "wordID": 198, "conditions": [18, 1200, "v", 18000], "trial": 1, "serialpos": 2, "trial_type": "single-stim", "trial_index": 57, "time_elapsed": 389348, "internal_node_id": "0.0-39.0"}}, {"uniqueid": "MTK0598:34S9DKFK74W4YV94ICCBZZA2KPOYNQ", "current_trial": 58, "dateTime": 1511558720867, "trialdata": {"rt": -1, "stimulus": "<p id=\"stim\">HERO</p>", "key_press": -1, "type": "PRES_VIS", "word": "hero", "wordID": 705, "conditions": [18, 1200, "v", 18000], "trial": 1, "serialpos": 3, "trial_type": "single-stim", "trial_index": 58, "time_elapsed": 391665, "internal_node_id": "0.0-40.0"}}, {"uniqueid": "MTK0598:34S9DKFK74W4YV94ICCBZZA2KPOYNQ", "current_trial": 59, "dateTime": 1511558722884, "trialdata": {"rt": -1, "stimulus": "<p id=\"stim\">ARM</p>", "key_press": -1, "type": "PRES_VIS", "word": "arm", "wordID": 37, "conditions": [18, 1200, "v", 18000], "trial": 1, "serialpos": 4, "trial_type": "single-stim", "trial_index": 59, "time_elapsed": 393682, "internal_node_id": "0.0-41.0"}}, {"uniqueid": "MTK0598:34S9DKFK74W4YV94ICCBZZA2KPOYNQ", "current_trial": 60, "dateTime": 1511558725238, "trialdata": {"rt": -1, "stimulus": "<p id=\"stim\">FOX</p>", "key_press": -1, "type": "PRES_VIS", "word": "fox", "wordID": 597, "conditions": [18, 1200, "v", 18000], "trial": 1, "serialpos": 5, "trial_type": "single-stim", "trial_index": 60, "time_elapsed": 396036, "internal_node_id": "0.0-42.0"}}, {"uniqueid": "MTK0598:34S9DKFK74W4YV94ICCBZZA2KPOYNQ", "current_trial": 61, "dateTime": 1511558727302, "trialdata": {"rt": -1, "stimulus": "<p id=\"stim\">WIFE</p>", "key_press": -1, "type": "PRES_VIS", "word": "wife", "wordID": 1608, "conditions": [18, 1200, "v", 18000], "trial": 1, "serialpos": 6, "trial_type": "single-stim", "trial_index": 61, "time_elapsed": 398100, "internal_node_id": "0.0-43.0"}}, {"uniqueid": "MTK0598:34S9DKFK74W4YV94ICCBZZA2KPOYNQ", "current_trial": 62, "dateTime": 1511558729375, "trialdata": {"rt": -1, "stimulus": "<p id=\"stim\">DIVER</p>", "key_press": -1, "type": "PRES_VIS", "word": "diver", "wordID": 475, "conditions": [18, 1200, "v", 18000], "trial": 1, "serialpos": 7, "trial_type": "single-stim", "trial_index": 62, "time_elapsed": 400173, "internal_node_id": "0.0-44.0"}}, {"uniqueid": "MTK0598:34S9DKFK74W4YV94ICCBZZA2KPOYNQ", "current_trial": 63, "dateTime": 1511558731432, "trialdata": {"rt": -1, "stimulus": "<p id=\"stim\">CREVICE</p>", "key_press": -1, "type": "PRES_VIS", "word": "crevice", "wordID": 404, "conditions": [18, 1200, "v", 18000], "trial": 1, "serialpos": 8, "trial_type": "single-stim", "trial_index": 63, "time_elapsed": 402230, "internal_node_id": "0.0-45.0"}}, {"uniqueid": "MTK0598:34S9DKFK74W4YV94ICCBZZA2KPOYNQ", "current_trial": 64, "dateTime": 1511558733795, "trialdata": {"rt": -1, "stimulus": "<p id=\"stim\">PIGMENT</p>", "key_press": -1, "type": "PRES_VIS", "word": "pigment", "wordID": 1065, "conditions": [18, 1200, "v", 18000], "trial": 1, "serialpos": 9, "trial_type": "single-stim", "trial_index": 64, "time_elapsed": 404593, "internal_node_id": "0.0-46.0"}}, {"uniqueid": "MTK0598:34S9DKFK74W4YV94ICCBZZA2KPOYNQ", "current_trial": 65, "dateTime": 1511558736164, "trialdata": {"rt": -1, "stimulus": "<p id=\"stim\">PEPPER</p>", "key_press": -1, "type": "PRES_VIS", "word": "pepper", "wordID": 1046, "conditions": [18, 1200, "v", 18000], "trial": 1, "serialpos": 10, "trial_type": "single-stim", "trial_index": 65, "time_elapsed": 406962, "internal_node_id": "0.0-47.0"}}, {"uniqueid": "MTK0598:34S9DKFK74W4YV94ICCBZZA2KPOYNQ", "current_trial": 66, "dateTime": 1511558738442, "trialdata": {"rt": -1, "stimulus": "<p id=\"stim\">WARDROBE</p>", "key_press": -1, "type": "PRES_VIS", "word": "wardrobe", "wordID": 1586, "conditions": [18, 1200, "v", 18000], "trial": 1, "serialpos": 11, "trial_type": "single-stim", "trial_index": 66, "time_elapsed": 409240, "internal_node_id": "0.0-48.0"}}, {"uniqueid": "MTK0598:34S9DKFK74W4YV94ICCBZZA2KPOYNQ", "current_trial": 67, "dateTime": 1511558740753, "trialdata": {"rt": -1, "stimulus": "<p id=\"stim\">SLOPE</p>", "key_press": -1, "type": "PRES_VIS", "word": "slope", "wordID": 1327, "conditions": [18, 1200, "v", 18000], "trial": 1, "serialpos": 12, "trial_type": "single-stim", "trial_index": 67, "time_elapsed": 411551, "internal_node_id": "0.0-49.0"}}, {"uniqueid": "MTK0598:34S9DKFK74W4YV94ICCBZZA2KPOYNQ", "current_trial": 68, "dateTime": 1511558742950, "trialdata": {"rt": -1, "stimulus": "<p id=\"stim\">SKIRT</p>", "key_press": -1, "type": "PRES_VIS", "word": "skirt", "wordID": 1318, "conditions": [18, 1200, "v", 18000], "trial": 1, "serialpos": 13, "trial_type": "single-stim", "trial_index": 68, "time_elapsed": 413742, "internal_node_id": "0.0-50.0"}}, {"uniqueid": "MTK0598:34S9DKFK74W4YV94ICCBZZA2KPOYNQ", "current_trial": 69, "dateTime": 1511558745014, "trialdata": {"rt": -1, "stimulus": "<p id=\"stim\">OFFICE</p>", "key_press": -1, "type": "PRES_VIS", "word": "office", "wordID": 971, "conditions": [18, 1200, "v", 18000], "trial": 1, "serialpos": 14, "trial_type": "single-stim", "trial_index": 69, "time_elapsed": 415812, "internal_node_id": "0.0-51.0"}}, {"uniqueid": "MTK0598:34S9DKFK74W4YV94ICCBZZA2KPOYNQ", "current_trial": 70, "dateTime": 1511558747032, "trialdata": {"rt": -1, "stimulus": "<p id=\"stim\">BREAST</p>", "key_press": -1, "type": "PRES_VIS", "word": "breast", "wordID": 170, "conditions": [18, 1200, "v", 18000], "trial": 1, "serialpos": 15, "trial_type": "single-stim", "trial_index": 70, "time_elapsed": 417830, "internal_node_id": "0.0-52.0"}}, {"uniqueid": "MTK0598:34S9DKFK74W4YV94ICCBZZA2KPOYNQ", "current_trial": 71, "dateTime": 1511558749362, "trialdata": {"rt": -1, "stimulus": "<p id=\"stim\">PISTOL</p>", "key_press": -1, "type": "PRES_VIS", "word": "pistol", "wordID": 1074, "conditions": [18, 1200, "v", 18000], "trial": 1, "serialpos": 16, "trial_type": "single-stim", "trial_index": 71, "time_elapsed": 420159, "internal_node_id": "0.0-53.0"}}, {"uniqueid": "MTK0598:34S9DKFK74W4YV94ICCBZZA2KPOYNQ", "current_trial": 72, "dateTime": 1511558751410, "trialdata": {"rt": -1, "stimulus": "<p id=\"stim\">COUSIN</p>", "key_press": -1, "type": "PRES_VIS", "word": "cousin", "wordID": 391, "conditions": [18, 1200, "v", 18000], "trial": 1, "serialpos": 17, "trial_type": "single-stim", "trial_index": 72, "time_elapsed": 422207, "internal_node_id": "0.0-54.0"}}, {"uniqueid": "MTK0598:34S9DKFK74W4YV94ICCBZZA2KPOYNQ", "current_trial": 73, "dateTime": 1511558753506, "trialdata": {"rt": -1, "stimulus": "", "key_press": -1, "type": "PRE_RECALL_DELAY", "trial_type": "single-stim", "trial_index": 73, "time_elapsed": 424304, "internal_node_id": "0.0-55.0-0.0"}}, {"uniqueid": "MTK0598:34S9DKFK74W4YV94ICCBZZA2KPOYNQ", "current_trial": 74, "dateTime": 1511558754008, "trialdata": {"rt": -1000, "stimulus": "/static/audio/400Hz.wav", "key_press": -1, "type": "PRE_RECALL_ALERT", "trial_type": "single-audio", "trial_index": 74, "time_elapsed": 424806, "internal_node_id": "0.0-56.0"}}, {"uniqueid": "MTK0598:34S9DKFK74W4YV94ICCBZZA2KPOYNQ", "current_trial": 75, "dateTime": 1511558814021, "trialdata": {"rt": [15062, 22037, 26179, 27557, 29586, 30429, 32430, 33699, 37366, 40231, 44574, 46313, 48606, 51367, 53982, 57246], "recwords": ["bureau", "shortcake", "hero", "arm", "fox", "wife", "diver", "crevice", "pigment", "pepper", "wardrobe", "slope", "office", "breast", "pistol", "cousin"], "type": "FREE_RECALL", "conditions": [18, 1200, "v", 18000], "trial": 1, "trial_type": "free-recall", "trial_index": 75, "time_elapsed": 484812, "internal_node_id": "0.0-57.0-0.0"}}, {"uniqueid": "MTK0598:34S9DKFK74W4YV94ICCBZZA2KPOYNQ", "current_trial": 76, "dateTime": 1511558839480, "trialdata": {"rt": 23444, "key_press": 32, "type": "INSTRUCTIONS", "trial_type": "text", "trial_index": 76, "time_elapsed": 510263, "internal_node_id": "0.0-58.0"}}, {"uniqueid": "MTK0598:34S9DKFK74W4YV94ICCBZZA2KPOYNQ", "current_trial": 77, "dateTime": 1511558864485, "trialdata": {"rt": [4146, 9032, 13122, 17102, 20320], "responses": ["20", "22", "14", "18", "10"], "num1": [8, 6, 3, 9, 5, 8], "num2": [4, 9, 5, 4, 3, 3], "num3": [8, 7, 6, 5, 2, 9], "type": "DISTRACTOR", "conditions": [24, 1600, "v", 24000], "trial": 2, "trial_type": "math-distractor", "trial_index": 77, "time_elapsed": 535283, "internal_node_id": "0.0-59.0"}}, {"uniqueid": "MTK0598:34S9DKFK74W4YV94ICCBZZA2KPOYNQ", "current_trial": 78, "dateTime": 1511558867486, "trialdata": {"rt": -1, "stimulus": "<p id=\"stim\">10</p>", "key_press": -1, "trial_type": "single-stim", "trial_index": 78, "time_elapsed": 538284, "internal_node_id": "0.0-60.0-0.0"}}, {"uniqueid": "MTK0598:34S9DKFK74W4YV94ICCBZZA2KPOYNQ", "current_trial": 79, "dateTime": 1511558868486, "trialdata": {"rt": -1, "stimulus": "<p id=\"stim\">9</p>", "key_press": -1, "trial_type": "single-stim", "trial_index": 79, "time_elapsed": 539284, "internal_node_id": "0.0-60.0-1.0"}}, {"uniqueid": "MTK0598:34S9DKFK74W4YV94ICCBZZA2KPOYNQ", "current_trial": 80, "dateTime": 1511558869488, "trialdata": {"rt": -1, "stimulus": "<p id=\"stim\">8</p>", "key_press": -1, "trial_type": "single-stim", "trial_index": 80, "time_elapsed": 540286, "internal_node_id": "0.0-60.0-2.0"}}, {"uniqueid": "MTK0598:34S9DKFK74W4YV94ICCBZZA2KPOYNQ", "current_trial": 81, "dateTime": 1511558870490, "trialdata": {"rt": -1, "stimulus": "<p id=\"stim\">7</p>", "key_press": -1, "trial_type": "single-stim", "trial_index": 81, "time_elapsed": 541288, "internal_node_id": "0.0-60.0-3.0"}}, {"uniqueid": "MTK0598:34S9DKFK74W4YV94ICCBZZA2KPOYNQ", "current_trial": 82, "dateTime": 1511558871492, "trialdata": {"rt": -1, "stimulus": "<p id=\"stim\">6</p>", "key_press": -1, "trial_type": "single-stim", "trial_index": 82, "time_elapsed": 542290, "internal_node_id": "0.0-60.0-4.0"}}, {"uniqueid": "MTK0598:34S9DKFK74W4YV94ICCBZZA2KPOYNQ", "current_trial": 83, "dateTime": 1511558872493, "trialdata": {"rt": -1, "stimulus": "<p id=\"stim\">5</p>", "key_press": -1, "trial_type": "single-stim", "trial_index": 83, "time_elapsed": 543291, "internal_node_id": "0.0-60.0-5.0"}}, {"uniqueid": "MTK0598:34S9DKFK74W4YV94ICCBZZA2KPOYNQ", "current_trial": 84, "dateTime": 1511558873495, "trialdata": {"rt": -1, "stimulus": "<p id=\"stim\">4</p>", "key_press": -1, "trial_type": "single-stim", "trial_index": 84, "time_elapsed": 544293, "internal_node_id": "0.0-60.0-6.0"}}, {"uniqueid": "MTK0598:34S9DKFK74W4YV94ICCBZZA2KPOYNQ", "current_trial": 85, "dateTime": 1511558874496, "trialdata": {"rt": -1, "stimulus": "<p id=\"stim\">3</p>", "key_press": -1, "trial_type": "single-stim", "trial_index": 85, "time_elapsed": 545294, "internal_node_id": "0.0-60.0-7.0"}}, {"uniqueid": "MTK0598:34S9DKFK74W4YV94ICCBZZA2KPOYNQ", "current_trial": 86, "dateTime": 1511558875497, "trialdata": {"rt": -1, "stimulus": "<p id=\"stim\">2</p>", "key_press": -1, "trial_type": "single-stim", "trial_index": 86, "time_elapsed": 546295, "internal_node_id": "0.0-60.0-8.0"}}, {"uniqueid": "MTK0598:34S9DKFK74W4YV94ICCBZZA2KPOYNQ", "current_trial": 87, "dateTime": 1511558876498, "trialdata": {"rt": -1, "stimulus": "<p id=\"stim\">1</p>", "key_press": -1, "trial_type": "single-stim", "trial_index": 87, "time_elapsed": 547296, "internal_node_id": "0.0-60.0-9.0"}}, {"uniqueid": "MTK0598:34S9DKFK74W4YV94ICCBZZA2KPOYNQ", "current_trial": 88, "dateTime": 1511558877999, "trialdata": {"rt": -1, "stimulus": "<p id=\"stim\">+</p>", "key_press": -1, "type": "FIXATION", "trial_type": "single-stim", "trial_index": 88, "time_elapsed": 548797, "internal_node_id": "0.0-61.0-0.0"}}, {"uniqueid": "MTK0598:34S9DKFK74W4YV94ICCBZZA2KPOYNQ", "current_trial": 89, "dateTime": 1511558879600, "trialdata": {"rt": -1, "stimulus": "<p id=\"stim\">FUNGUS</p>", "key_press": -1, "type": "PRES_VIS", "word": "fungus", "wordID": 613, "conditions": [24, 1600, "v", 24000], "trial": 2, "serialpos": 0, "trial_type": "single-stim", "trial_index": 89, "time_elapsed": 550397, "internal_node_id": "0.0-62.0"}}, {"uniqueid": "MTK0598:34S9DKFK74W4YV94ICCBZZA2KPOYNQ", "current_trial": 90, "dateTime": 1511558882163, "trialdata": {"rt": -1, "stimulus": "<p id=\"stim\">MILDEW</p>", "key_press": -1, "type": "PRES_VIS", "word": "mildew", "wordID": 892, "conditions": [24, 1600, "v", 24000], "trial": 2, "serialpos": 1, "trial_type": "single-stim", "trial_index": 90, "time_elapsed": 552961, "internal_node_id": "0.0-63.0"}}, {"uniqueid": "MTK0598:34S9DKFK74W4YV94ICCBZZA2KPOYNQ", "current_trial": 91, "dateTime": 1511558884904, "trialdata": {"rt": -1, "stimulus": "<p id=\"stim\">CLOCK</p>", "key_press": -1, "type": "PRES_VIS", "word": "clock", "wordID": 324, "conditions": [24, 1600, "v", 24000], "trial": 2, "serialpos": 2, "trial_type": "single-stim", "trial_index": 91, "time_elapsed": 555702, "internal_node_id": "0.0-64.0"}}, {"uniqueid": "MTK0598:34S9DKFK74W4YV94ICCBZZA2KPOYNQ", "current_trial": 92, "dateTime": 1511558887431, "trialdata": {"rt": -1, "stimulus": "<p id=\"stim\">PARSLEY</p>", "key_press": -1, "type": "PRES_VIS", "word": "parsley", "wordID": 1015, "conditions": [24, 1600, "v", 24000], "trial": 2, "serialpos": 3, "trial_type": "single-stim", "trial_index": 92, "time_elapsed": 558229, "internal_node_id": "0.0-65.0"}}, {"uniqueid": "MTK0598:34S9DKFK74W4YV94ICCBZZA2KPOYNQ", "current_trial": 93, "dateTime": 1511558889979, "trialdata": {"rt": -1, "stimulus": "<p id=\"stim\">DRINK</p>", "key_press": -1, "type": "PRES_VIS", "word": "drink", "wordID": 497, "conditions": [24, 1600, "v", 24000], "trial": 2, "serialpos": 4, "trial_type": "single-stim", "trial_index": 93, "time_elapsed": 560777, "internal_node_id": "0.0-66.0"}}, {"uniqueid": "MTK0598:34S9DKFK74W4YV94ICCBZZA2KPOYNQ", "current_trial": 94, "dateTime": 1511558892697, "trialdata": {"rt": -1, "stimulus": "<p id=\"stim\">GLOBE</p>", "key_press": -1, "type": "PRES_VIS", "word": "globe", "wordID": 640, "conditions": [24, 1600, "v", 24000], "trial": 2, "serialpos": 5, "trial_type": "single-stim", "trial_index": 94, "time_elapsed": 563495, "internal_node_id": "0.0-67.0"}}, {"uniqueid": "MTK0598:34S9DKFK74W4YV94ICCBZZA2KPOYNQ", "current_trial": 95, "dateTime": 1511558895155, "trialdata": {"rt": -1, "stimulus": "<p id=\"stim\">PRINCESS</p>", "key_press": -1, "type": "PRES_VIS", "word": "princess", "wordID": 1124, "conditions": [24, 1600, "v", 24000], "trial": 2, "serialpos": 6, "trial_type": "single-stim", "trial_index": 95, "time_elapsed": 565953, "internal_node_id": "0.0-68.0"}}, {"uniqueid": "MTK0598:34S9DKFK74W4YV94ICCBZZA2KPOYNQ", "current_trial": 96, "dateTime": 1511558897743, "trialdata": {"rt": -1, "stimulus": "<p id=\"stim\">SERVANT</p>", "key_press": -1, "type": "PRES_VIS", "word": "servant", "wordID": 1270, "conditions": [24, 1600, "v", 24000], "trial": 2, "serialpos": 7, "trial_type": "single-stim", "trial_index": 96, "time_elapsed": 568541, "internal_node_id": "0.0-69.0"}}, {"uniqueid": "MTK0598:34S9DKFK74W4YV94ICCBZZA2KPOYNQ", "current_trial": 97, "dateTime": 1511558900523, "trialdata": {"rt": -1, "stimulus": "<p id=\"stim\">LETTUCE</p>", "key_press": -1, "type": "PRES_VIS", "word": "lettuce", "wordID": 813, "conditions": [24, 1600, "v", 24000], "trial": 2, "serialpos": 8, "trial_type": "single-stim", "trial_index": 97, "time_elapsed": 571321, "internal_node_id": "0.0-70.0"}}, {"uniqueid": "MTK0598:34S9DKFK74W4YV94ICCBZZA2KPOYNQ", "current_trial": 98, "dateTime": 1511558902981, "trialdata": {"rt": -1, "stimulus": "<p id=\"stim\">CASKET</p>", "key_press": -1, "type": "PRES_VIS", "word": "casket", "wordID": 254, "conditions": [24, 1600, "v", 24000], "trial": 2, "serialpos": 9, "trial_type": "single-stim", "trial_index": 98, "time_elapsed": 573779, "internal_node_id": "0.0-71.0"}}, {"uniqueid": "MTK0598:34S9DKFK74W4YV94ICCBZZA2KPOYNQ", "current_trial": 99, "dateTime": 1511558905638, "trialdata": {"rt": -1, "stimulus": "<p id=\"stim\">SCALLOP</p>", "key_press": -1, "type": "PRES_VIS", "word": "scallop", "wordID": 1241, "conditions": [24, 1600, "v", 24000], "trial": 2, "serialpos": 10, "trial_type": "single-stim", "trial_index": 99, "time_elapsed": 576436, "internal_node_id": "0.0-72.0"}}, {"uniqueid": "MTK0598:34S9DKFK74W4YV94ICCBZZA2KPOYNQ", "current_trial": 100, "dateTime": 1511558908250, "trialdata": {"rt": -1, "stimulus": "<p id=\"stim\">COUNTRY</p>", "key_press": -1, "type": "PRES_VIS", "word": "country", "wordID": 387, "conditions": [24, 1600, "v", 24000], "trial": 2, "serialpos": 11, "trial_type": "single-stim", "trial_index": 100, "time_elapsed": 579048, "internal_node_id": "0.0-73.0"}}, {"uniqueid": "MTK0598:34S9DKFK74W4YV94ICCBZZA2KPOYNQ", "current_trial": 101, "dateTime": 1511558910815, "trialdata": {"rt": -1, "stimulus": "<p id=\"stim\">HARP</p>", "key_press": -1, "type": "PRES_VIS", "word": "harp", "wordID": 688, "conditions": [24, 1600, "v", 24000], "trial": 2, "serialpos": 12, "trial_type": "single-stim", "trial_index": 101, "time_elapsed": 581613, "internal_node_id": "0.0-74.0"}}, {"uniqueid": "MTK0598:34S9DKFK74W4YV94ICCBZZA2KPOYNQ", "current_trial": 102, "dateTime": 1511558913411, "trialdata": {"rt": -1, "stimulus": "<p id=\"stim\">TROMBONE</p>", "key_press": -1, "type": "PRES_VIS", "word": "trombone", "wordID": 1507, "conditions": [24, 1600, "v", 24000], "trial": 2, "serialpos": 13, "trial_type": "single-stim", "trial_index": 102, "time_elapsed": 584208, "internal_node_id": "0.0-75.0"}}, {"uniqueid": "MTK0598:34S9DKFK74W4YV94ICCBZZA2KPOYNQ", "current_trial": 103, "dateTime": 1511558916090, "trialdata": {"rt": -1, "stimulus": "<p id=\"stim\">DUSTPAN</p>", "key_press": -1, "type": "PRES_VIS", "word": "dustpan", "wordID": 508, "conditions": [24, 1600, "v", 24000], "trial": 2, "serialpos": 14, "trial_type": "single-stim", "trial_index": 103, "time_elapsed": 586888, "internal_node_id": "0.0-76.0"}}, {"uniqueid": "MTK0598:34S9DKFK74W4YV94ICCBZZA2KPOYNQ", "current_trial": 104, "dateTime": 1511558918524, "trialdata": {"rt": -1, "stimulus": "<p id=\"stim\">CLAM</p>", "key_press": -1, "type": "PRES_VIS", "word": "clam", "wordID": 314, "conditions": [24, 1600, "v", 24000], "trial": 2, "serialpos": 15, "trial_type": "single-stim", "trial_index": 104, "time_elapsed": 589322, "internal_node_id": "0.0-77.0"}}, {"uniqueid": "MTK0598:34S9DKFK74W4YV94ICCBZZA2KPOYNQ", "current_trial": 105, "dateTime": 1511558921114, "trialdata": {"rt": -1, "stimulus": "<p id=\"stim\">PANTHER</p>", "key_press": -1, "type": "PRES_VIS", "word": "panther", "wordID": 1008, "conditions": [24, 1600, "v", 24000], "trial": 2, "serialpos": 16, "trial_type": "single-stim", "trial_index": 105, "time_elapsed": 591912, "internal_node_id": "0.0-78.0"}}, {"uniqueid": "MTK0598:34S9DKFK74W4YV94ICCBZZA2KPOYNQ", "current_trial": 106, "dateTime": 1511558923570, "trialdata": {"rt": -1, "stimulus": "<p id=\"stim\">SPARROW</p>", "key_press": -1, "type": "PRES_VIS", "word": "sparrow", "wordID": 1346, "conditions": [24, 1600, "v", 24000], "trial": 2, "serialpos": 17, "trial_type": "single-stim", "trial_index": 106, "time_elapsed": 594368, "internal_node_id": "0.0-79.0"}}, {"uniqueid": "MTK0598:34S9DKFK74W4YV94ICCBZZA2KPOYNQ", "current_trial": 107, "dateTime": 1511558926222, "trialdata": {"rt": -1, "stimulus": "<p id=\"stim\">FLESH</p>", "key_press": -1, "type": "PRES_VIS", "word": "flesh", "wordID": 578, "conditions": [24, 1600, "v", 24000], "trial": 2, "serialpos": 18, "trial_type": "single-stim", "trial_index": 107, "time_elapsed": 597020, "internal_node_id": "0.0-80.0"}}, {"uniqueid": "MTK0598:34S9DKFK74W4YV94ICCBZZA2KPOYNQ", "current_trial": 108, "dateTime": 1511558929020, "trialdata": {"rt": -1, "stimulus": "<p id=\"stim\">TRACTOR</p>", "key_press": -1, "type": "PRES_VIS", "word": "tractor", "wordID": 1492, "conditions": [24, 1600, "v", 24000], "trial": 2, "serialpos": 19, "trial_type": "single-stim", "trial_index": 108, "time_elapsed": 599818, "internal_node_id": "0.0-81.0"}}, {"uniqueid": "MTK0598:34S9DKFK74W4YV94ICCBZZA2KPOYNQ", "current_trial": 109, "dateTime": 1511558931718, "trialdata": {"rt": -1, "stimulus": "<p id=\"stim\">SALAD</p>", "key_press": -1, "type": "PRES_VIS", "word": "salad", "wordID": 1223, "conditions": [24, 1600, "v", 24000], "trial": 2, "serialpos": 20, "trial_type": "single-stim", "trial_index": 109, "time_elapsed": 602516, "internal_node_id": "0.0-82.0"}}, {"uniqueid": "MTK0598:34S9DKFK74W4YV94ICCBZZA2KPOYNQ", "current_trial": 110, "dateTime": 1511558934501, "trialdata": {"rt": -1, "stimulus": "<p id=\"stim\">FRAGRANCE</p>", "key_press": -1, "type": "PRES_VIS", "word": "fragrance", "wordID": 598, "conditions": [24, 1600, "v", 24000], "trial": 2, "serialpos": 21, "trial_type": "single-stim", "trial_index": 110, "time_elapsed": 605299, "internal_node_id": "0.0-83.0"}}, {"uniqueid": "MTK0598:34S9DKFK74W4YV94ICCBZZA2KPOYNQ", "current_trial": 111, "dateTime": 1511558937200, "trialdata": {"rt": -1, "stimulus": "<p id=\"stim\">FRUIT</p>", "key_press": -1, "type": "PRES_VIS", "word": "fruit", "wordID": 609, "conditions": [24, 1600, "v", 24000], "trial": 2, "serialpos": 22, "trial_type": "single-stim", "trial_index": 111, "time_elapsed": 607998, "internal_node_id": "0.0-84.0"}}, {"uniqueid": "MTK0598:34S9DKFK74W4YV94ICCBZZA2KPOYNQ", "current_trial": 112, "dateTime": 1511558939754, "trialdata": {"rt": -1, "stimulus": "<p id=\"stim\">ZEBRA</p>", "key_press": -1, "type": "PRES_VIS", "word": "zebra", "wordID": 1634, "conditions": [24, 1600, "v", 24000], "trial": 2, "serialpos": 23, "trial_type": "single-stim", "trial_index": 112, "time_elapsed": 610552, "internal_node_id": "0.0-85.0"}}, {"uniqueid": "MTK0598:34S9DKFK74W4YV94ICCBZZA2KPOYNQ", "current_trial": 113, "dateTime": 1511558942265, "trialdata": {"rt": -1, "stimulus": "", "key_press": -1, "type": "PRE_RECALL_DELAY", "trial_type": "single-stim", "trial_index": 113, "time_elapsed": 613063, "internal_node_id": "0.0-86.0-0.0"}}, {"uniqueid": "MTK0598:34S9DKFK74W4YV94ICCBZZA2KPOYNQ", "current_trial": 114, "dateTime": 1511558942767, "trialdata": {"rt": -1000, "stimulus": "/static/audio/400Hz.wav", "key_press": -1, "type": "PRE_RECALL_ALERT", "trial_type": "single-audio", "trial_index": 114, "time_elapsed": 613565, "internal_node_id": "0.0-87.0"}}, {"uniqueid": "MTK0598:34S9DKFK74W4YV94ICCBZZA2KPOYNQ", "current_trial": 115, "dateTime": 1511559002779, "trialdata": {"rt": [6619, 9838, 10842, 12753, 13719, 18773, 22571, 25648, 33358, 34845, 36280, 38293, 40997, 44616, 46557, 49267], "recwords": ["mildew", "parsley", "clock", "drink", "glo", "princess", "servant", "scallop", "trombone", "harp", "country", "clam", "panther", "fragrance", "fruit", "salad"], "type": "FREE_RECALL", "conditions": [24, 1600, "v", 24000], "trial": 2, "trial_type": "free-recall", "trial_index": 115, "time_elapsed": 673568, "internal_node_id": "0.0-88.0-0.0"}}, {"uniqueid": "MTK0598:34S9DKFK74W4YV94ICCBZZA2KPOYNQ", "current_trial": 116, "dateTime": 1511559006509, "trialdata": {"rt": 1728, "key_press": 32, "type": "INSTRUCTIONS", "trial_type": "text", "trial_index": 116, "time_elapsed": 677307, "internal_node_id": "0.0-89.0"}}, {"uniqueid": "MTK0598:34S9DKFK74W4YV94ICCBZZA2KPOYNQ", "current_trial": 117, "dateTime": 1511559020514, "trialdata": {"rt": [7784, 11432], "responses": ["22", "15"], "num1": [6, 4, 5], "num2": [7, 8, 1], "num3": [9, 3, 6], "type": "DISTRACTOR", "conditions": [12, 800, "v", 12000], "trial": 3, "trial_type": "math-distractor", "trial_index": 117, "time_elapsed": 691312, "internal_node_id": "0.0-90.0"}}, {"uniqueid": "MTK0598:34S9DKFK74W4YV94ICCBZZA2KPOYNQ", "current_trial": 118, "dateTime": 1511559023516, "trialdata": {"rt": -1, "stimulus": "<p id=\"stim\">10</p>", "key_press": -1, "trial_type": "single-stim", "trial_index": 118, "time_elapsed": 694314, "internal_node_id": "0.0-91.0-0.0"}}, {"uniqueid": "MTK0598:34S9DKFK74W4YV94ICCBZZA2KPOYNQ", "current_trial": 119, "dateTime": 1511559024517, "trialdata": {"rt": -1, "stimulus": "<p id=\"stim\">9</p>", "key_press": -1, "trial_type": "single-stim", "trial_index": 119, "time_elapsed": 695315, "internal_node_id": "0.0-91.0-1.0"}}, {"uniqueid": "MTK0598:34S9DKFK74W4YV94ICCBZZA2KPOYNQ", "current_trial": 120, "dateTime": 1511559025521, "trialdata": {"rt": -1, "stimulus": "<p id=\"stim\">8</p>", "key_press": -1, "trial_type": "single-stim", "trial_index": 120, "time_elapsed": 696318, "internal_node_id": "0.0-91.0-2.0"}}, {"uniqueid": "MTK0598:34S9DKFK74W4YV94ICCBZZA2KPOYNQ", "current_trial": 121, "dateTime": 1511559026521, "trialdata": {"rt": -1, "stimulus": "<p id=\"stim\">7</p>", "key_press": -1, "trial_type": "single-stim", "trial_index": 121, "time_elapsed": 697319, "internal_node_id": "0.0-91.0-3.0"}}, {"uniqueid": "MTK0598:34S9DKFK74W4YV94ICCBZZA2KPOYNQ", "current_trial": 122, "dateTime": 1511559027522, "trialdata": {"rt": -1, "stimulus": "<p id=\"stim\">6</p>", "key_press": -1, "trial_type": "single-stim", "trial_index": 122, "time_elapsed": 698320, "internal_node_id": "0.0-91.0-4.0"}}, {"uniqueid": "MTK0598:34S9DKFK74W4YV94ICCBZZA2KPOYNQ", "current_trial": 123, "dateTime": 1511559028522, "trialdata": {"rt": -1, "stimulus": "<p id=\"stim\">5</p>", "key_press": -1, "trial_type": "single-stim", "trial_index": 123, "time_elapsed": 699320, "internal_node_id": "0.0-91.0-5.0"}}, {"uniqueid": "MTK0598:34S9DKFK74W4YV94ICCBZZA2KPOYNQ", "current_trial": 124, "dateTime": 1511559029523, "trialdata": {"rt": -1, "stimulus": "<p id=\"stim\">4</p>", "key_press": -1, "trial_type": "single-stim", "trial_index": 124, "time_elapsed": 700321, "internal_node_id": "0.0-91.0-6.0"}}, {"uniqueid": "MTK0598:34S9DKFK74W4YV94ICCBZZA2KPOYNQ", "current_trial": 125, "dateTime": 1511559030524, "trialdata": {"rt": -1, "stimulus": "<p id=\"stim\">3</p>", "key_press": -1, "trial_type": "single-stim", "trial_index": 125, "time_elapsed": 701322, "internal_node_id": "0.0-91.0-7.0"}}, {"uniqueid": "MTK0598:34S9DKFK74W4YV94ICCBZZA2KPOYNQ", "current_trial": 126, "dateTime": 1511559031525, "trialdata": {"rt": -1, "stimulus": "<p id=\"stim\">2</p>", "key_press": -1, "trial_type": "single-stim", "trial_index": 126, "time_elapsed": 702323, "internal_node_id": "0.0-91.0-8.0"}}, {"uniqueid": "MTK0598:34S9DKFK74W4YV94ICCBZZA2KPOYNQ", "current_trial": 127, "dateTime": 1511559032526, "trialdata": {"rt": -1, "stimulus": "<p id=\"stim\">1</p>", "key_press": -1, "trial_type": "single-stim", "trial_index": 127, "time_elapsed": 703324, "internal_node_id": "0.0-91.0-9.0"}}, {"uniqueid": "MTK0598:34S9DKFK74W4YV94ICCBZZA2KPOYNQ", "current_trial": 128, "dateTime": 1511559034027, "trialdata": {"rt": -1, "stimulus": "<p id=\"stim\">+</p>", "key_press": -1, "type": "FIXATION", "trial_type": "single-stim", "trial_index": 128, "time_elapsed": 704825, "internal_node_id": "0.0-92.0-0.0"}}, {"uniqueid": "MTK0598:34S9DKFK74W4YV94ICCBZZA2KPOYNQ", "current_trial": 129, "dateTime": 1511559034828, "trialdata": {"rt": -1, "stimulus": "<p id=\"stim\">CHEST</p>", "key_press": -1, "type": "PRES_VIS", "word": "chest", "wordID": 294, "conditions": [12, 800, "v", 12000], "trial": 3, "serialpos": 0, "trial_type": "single-stim", "trial_index": 129, "time_elapsed": 705626, "internal_node_id": "0.0-93.0"}}, {"uniqueid": "MTK0598:34S9DKFK74W4YV94ICCBZZA2KPOYNQ", "current_trial": 130, "dateTime": 1511559036746, "trialdata": {"rt": -1, "stimulus": "<p id=\"stim\">CATTLE</p>", "key_press": -1, "type": "PRES_VIS", "word": "cattle", "wordID": 260, "conditions": [12, 800, "v", 12000], "trial": 3, "serialpos": 1, "trial_type": "single-stim", "trial_index": 130, "time_elapsed": 707544, "internal_node_id": "0.0-94.0"}}, {"uniqueid": "MTK0598:34S9DKFK74W4YV94ICCBZZA2KPOYNQ", "current_trial": 131, "dateTime": 1511559038388, "trialdata": {"rt": -1, "stimulus": "<p id=\"stim\">QUEEN</p>", "key_press": -1, "type": "PRES_VIS", "word": "queen", "wordID": 1148, "conditions": [12, 800, "v", 12000], "trial": 3, "serialpos": 2, "trial_type": "single-stim", "trial_index": 131, "time_elapsed": 709186, "internal_node_id": "0.0-95.0"}}, {"uniqueid": "MTK0598:34S9DKFK74W4YV94ICCBZZA2KPOYNQ", "current_trial": 132, "dateTime": 1511559040135, "trialdata": {"rt": -1, "stimulus": "<p id=\"stim\">DORM</p>", "key_press": -1, "type": "PRES_VIS", "word": "dorm", "wordID": 487, "conditions": [12, 800, "v", 12000], "trial": 3, "serialpos": 3, "trial_type": "single-stim", "trial_index": 132, "time_elapsed": 710933, "internal_node_id": "0.0-96.0"}}, {"uniqueid": "MTK0598:34S9DKFK74W4YV94ICCBZZA2KPOYNQ", "current_trial": 133, "dateTime": 1511559041769, "trialdata": {"rt": -1, "stimulus": "<p id=\"stim\">HOSTESS</p>", "key_press": -1, "type": "PRES_VIS", "word": "hostess", "wordID": 722, "conditions": [12, 800, "v", 12000], "trial": 3, "serialpos": 4, "trial_type": "single-stim", "trial_index": 133, "time_elapsed": 712567, "internal_node_id": "0.0-97.0"}}, {"uniqueid": "MTK0598:34S9DKFK74W4YV94ICCBZZA2KPOYNQ", "current_trial": 134, "dateTime": 1511559043382, "trialdata": {"rt": -1, "stimulus": "<p id=\"stim\">LIZARD</p>", "key_press": -1, "type": "PRES_VIS", "word": "lizard", "wordID": 833, "conditions": [12, 800, "v", 12000], "trial": 3, "serialpos": 5, "trial_type": "single-stim", "trial_index": 134, "time_elapsed": 714180, "internal_node_id": "0.0-98.0"}}, {"uniqueid": "MTK0598:34S9DKFK74W4YV94ICCBZZA2KPOYNQ", "current_trial": 135, "dateTime": 1511559045246, "trialdata": {"rt": -1, "stimulus": "<p id=\"stim\">COBRA</p>", "key_press": -1, "type": "PRES_VIS", "word": "cobra", "wordID": 335, "conditions": [12, 800, "v", 12000], "trial": 3, "serialpos": 6, "trial_type": "single-stim", "trial_index": 135, "time_elapsed": 716044, "internal_node_id": "0.0-99.0"}}, {"uniqueid": "MTK0598:34S9DKFK74W4YV94ICCBZZA2KPOYNQ", "current_trial": 136, "dateTime": 1511559046982, "trialdata": {"rt": -1, "stimulus": "<p id=\"stim\">CELLAR</p>", "key_press": -1, "type": "PRES_VIS", "word": "cellar", "wordID": 266, "conditions": [12, 800, "v", 12000], "trial": 3, "serialpos": 7, "trial_type": "single-stim", "trial_index": 136, "time_elapsed": 717780, "internal_node_id": "0.0-100.0"}}, {"uniqueid": "MTK0598:34S9DKFK74W4YV94ICCBZZA2KPOYNQ", "current_trial": 137, "dateTime": 1511559048952, "trialdata": {"rt": -1, "stimulus": "<p id=\"stim\">SWAMP</p>", "key_press": -1, "type": "PRES_VIS", "word": "swamp", "wordID": 1415, "conditions": [12, 800, "v", 12000], "trial": 3, "serialpos": 8, "trial_type": "single-stim", "trial_index": 137, "time_elapsed": 719750, "internal_node_id": "0.0-101.0"}}, {"uniqueid": "MTK0598:34S9DKFK74W4YV94ICCBZZA2KPOYNQ", "current_trial": 138, "dateTime": 1511559050835, "trialdata": {"rt": -1, "stimulus": "<p id=\"stim\">SNAKE</p>", "key_press": -1, "type": "PRES_VIS", "word": "snake", "wordID": 1332, "conditions": [12, 800, "v", 12000], "trial": 3, "serialpos": 9, "trial_type": "single-stim", "trial_index": 138, "time_elapsed": 721633, "internal_node_id": "0.0-102.0"}}, {"uniqueid": "MTK0598:34S9DKFK74W4YV94ICCBZZA2KPOYNQ", "current_trial": 139, "dateTime": 1511559052695, "trialdata": {"rt": -1, "stimulus": "<p id=\"stim\">FLASK</p>", "key_press": -1, "type": "PRES_VIS", "word": "flask", "wordID": 575, "conditions": [12, 800, "v", 12000], "trial": 3, "serialpos": 10, "trial_type": "single-stim", "trial_index": 139, "time_elapsed": 723493, "internal_node_id": "0.0-103.0"}}, {"uniqueid": "MTK0598:34S9DKFK74W4YV94ICCBZZA2KPOYNQ", "current_trial": 140, "dateTime": 1511559054609, "trialdata": {"rt": -1, "stimulus": "<p id=\"stim\">BISON</p>", "key_press": -1, "type": "PRES_VIS", "word": "bison", "wordID": 130, "conditions": [12, 800, "v", 12000], "trial": 3, "serialpos": 11, "trial_type": "single-stim", "trial_index": 140, "time_elapsed": 725407, "internal_node_id": "0.0-104.0"}}, {"uniqueid": "MTK0598:34S9DKFK74W4YV94ICCBZZA2KPOYNQ", "current_trial": 141, "dateTime": 1511559057113, "trialdata": {"rt": -1, "stimulus": "", "key_press": -1, "type": "PRE_RECALL_DELAY", "trial_type": "single-stim", "trial_index": 141, "time_elapsed": 727911, "internal_node_id": "0.0-105.0-0.0"}}, {"uniqueid": "MTK0598:34S9DKFK74W4YV94ICCBZZA2KPOYNQ", "current_trial": 142, "dateTime": 1511559057615, "trialdata": {"rt": -1000, "stimulus": "/static/audio/400Hz.wav", "key_press": -1, "type": "PRE_RECALL_ALERT", "trial_type": "single-audio", "trial_index": 142, "time_elapsed": 728413, "internal_node_id": "0.0-106.0"}}, {"uniqueid": "MTK0598:34S9DKFK74W4YV94ICCBZZA2KPOYNQ", "current_trial": 143, "dateTime": 1511559117627, "trialdata": {"rt": [4217, 6127, 7747, 9402, 11897, 14250, 16418, 18865, 22039, 24419], "recwords": ["chest", "cattle", "queen", "dorm", "hostess", "lizard", "cellar", "swamp", "snake", "flask"], "type": "FREE_RECALL", "conditions": [12, 800, "v", 12000], "trial": 3, "trial_type": "free-recall", "trial_index": 143, "time_elapsed": 788416, "internal_node_id": "0.0-107.0-0.0"}}, {"uniqueid": "MTK0598:34S9DKFK74W4YV94ICCBZZA2KPOYNQ", "current_trial": 144, "dateTime": 1511559121291, "trialdata": {"rt": 1663, "key_press": 32, "type": "INSTRUCTIONS", "trial_type": "text", "trial_index": 144, "time_elapsed": 792089, "internal_node_id": "0.0-108.0"}}, {"uniqueid": "MTK0598:34S9DKFK74W4YV94ICCBZZA2KPOYNQ", "current_trial": 145, "dateTime": 1511559147296, "trialdata": {"rt": [3050, 5977, 9292, 11915, 14677, 17182, 20568, 22840], "responses": ["13", "14", "20", "16", "13", "15", "16", "11"], "num1": [2, 4, 9, 4, 2, 2, 5, 4, 7], "num2": [3, 4, 8, 6, 6, 9, 7, 2, 6], "num3": [8, 6, 3, 6, 5, 4, 4, 5, 8], "type": "DISTRACTOR", "conditions": [24, 800, "a", 24000], "trial": 4, "trial_type": "math-distractor", "trial_index": 145, "time_elapsed": 818093, "internal_node_id": "0.0-109.0"}}, {"uniqueid": "MTK0598:34S9DKFK74W4YV94ICCBZZA2KPOYNQ", "current_trial": 146, "dateTime": 1511559150297, "trialdata": {"rt": -1, "stimulus": "<p id=\"stim\">10</p>", "key_press": -1, "trial_type": "single-stim", "trial_index": 146, "time_elapsed": 821095, "internal_node_id": "0.0-110.0-0.0"}}, {"uniqueid": "MTK0598:34S9DKFK74W4YV94ICCBZZA2KPOYNQ", "current_trial": 147, "dateTime": 1511559151299, "trialdata": {"rt": -1, "stimulus": "<p id=\"stim\">9</p>", "key_press": -1, "trial_type": "single-stim", "trial_index": 147, "time_elapsed": 822097, "internal_node_id": "0.0-110.0-1.0"}}, {"uniqueid": "MTK0598:34S9DKFK74W4YV94ICCBZZA2KPOYNQ", "current_trial": 148, "dateTime": 1511559152301, "trialdata": {"rt": -1, "stimulus": "<p id=\"stim\">8</p>", "key_press": -1, "trial_type": "single-stim", "trial_index": 148, "time_elapsed": 823099, "internal_node_id": "0.0-110.0-2.0"}}, {"uniqueid": "MTK0598:34S9DKFK74W4YV94ICCBZZA2KPOYNQ", "current_trial": 149, "dateTime": 1511559153303, "trialdata": {"rt": -1, "stimulus": "<p id=\"stim\">7</p>", "key_press": -1, "trial_type": "single-stim", "trial_index": 149, "time_elapsed": 824101, "internal_node_id": "0.0-110.0-3.0"}}, {"uniqueid": "MTK0598:34S9DKFK74W4YV94ICCBZZA2KPOYNQ", "current_trial": 150, "dateTime": 1511559154305, "trialdata": {"rt": -1, "stimulus": "<p id=\"stim\">6</p>", "key_press": -1, "trial_type": "single-stim", "trial_index": 150, "time_elapsed": 825103, "internal_node_id": "0.0-110.0-4.0"}}, {"uniqueid": "MTK0598:34S9DKFK74W4YV94ICCBZZA2KPOYNQ", "current_trial": 151, "dateTime": 1511559155307, "trialdata": {"rt": -1, "stimulus": "<p id=\"stim\">5</p>", "key_press": -1, "trial_type": "single-stim", "trial_index": 151, "time_elapsed": 826105, "internal_node_id": "0.0-110.0-5.0"}}, {"uniqueid": "MTK0598:34S9DKFK74W4YV94ICCBZZA2KPOYNQ", "current_trial": 152, "dateTime": 1511559156309, "trialdata": {"rt": -1, "stimulus": "<p id=\"stim\">4</p>", "key_press": -1, "trial_type": "single-stim", "trial_index": 152, "time_elapsed": 827107, "internal_node_id": "0.0-110.0-6.0"}}, {"uniqueid": "MTK0598:34S9DKFK74W4YV94ICCBZZA2KPOYNQ", "current_trial": 153, "dateTime": 1511559157311, "trialdata": {"rt": -1, "stimulus": "<p id=\"stim\">3</p>", "key_press": -1, "trial_type": "single-stim", "trial_index": 153, "time_elapsed": 828109, "internal_node_id": "0.0-110.0-7.0"}}, {"uniqueid": "MTK0598:34S9DKFK74W4YV94ICCBZZA2KPOYNQ", "current_trial": 154, "dateTime": 1511559158313, "trialdata": {"rt": -1, "stimulus": "<p id=\"stim\">2</p>", "key_press": -1, "trial_type": "single-stim", "trial_index": 154, "time_elapsed": 829111, "internal_node_id": "0.0-110.0-8.0"}}, {"uniqueid": "MTK0598:34S9DKFK74W4YV94ICCBZZA2KPOYNQ", "current_trial": 155, "dateTime": 1511559159315, "trialdata": {"rt": -1, "stimulus": "<p id=\"stim\">1</p>", "key_press": -1, "trial_type": "single-stim", "trial_index": 155, "time_elapsed": 830113, "internal_node_id": "0.0-110.0-9.0"}}, {"uniqueid": "MTK0598:34S9DKFK74W4YV94ICCBZZA2KPOYNQ", "current_trial": 156, "dateTime": 1511559160817, "trialdata": {"rt": -1, "stimulus": "<p id=\"stim\">+</p>", "key_press": -1, "type": "FIXATION", "trial_type": "single-stim", "trial_index": 156, "time_elapsed": 831615, "internal_node_id": "0.0-111.0-0.0"}}, {"uniqueid": "MTK0598:34S9DKFK74W4YV94ICCBZZA2KPOYNQ", "current_trial": 157, "dateTime": 1511559162458, "trialdata": {"rt": -1000, "stimulus": "/static/audio/wordpool/BRANDY.wav", "key_press": -1, "type": "PRES_AUD", "word": "brandy", "wordID": 168, "conditions": [24, 800, "a", 24000], "trial": 4, "serialpos": 0, "trial_type": "single-audio", "trial_index": 157, "time_elapsed": 833255, "internal_node_id": "0.0-112.0"}}, {"uniqueid": "MTK0598:34S9DKFK74W4YV94ICCBZZA2KPOYNQ", "current_trial": 158, "dateTime": 1511559164060, "trialdata": {"rt": -1000, "stimulus": "/static/audio/wordpool/BUNNY.wav", "key_press": -1, "type": "PRES_AUD", "word": "bunny", "wordID": 197, "conditions": [24, 800, "a", 24000], "trial": 4, "serialpos": 1, "trial_type": "single-audio", "trial_index": 158, "time_elapsed": 834857, "internal_node_id": "0.0-113.0"}}, {"uniqueid": "MTK0598:34S9DKFK74W4YV94ICCBZZA2KPOYNQ", "current_trial": 159, "dateTime": 1511559165865, "trialdata": {"rt": -1000, "stimulus": "/static/audio/wordpool/TROUT.wav", "key_press": -1, "type": "PRES_AUD", "word": "trout", "wordID": 1510, "conditions": [24, 800, "a", 24000], "trial": 4, "serialpos": 2, "trial_type": "single-audio", "trial_index": 159, "time_elapsed": 836663, "internal_node_id": "0.0-114.0"}}, {"uniqueid": "MTK0598:34S9DKFK74W4YV94ICCBZZA2KPOYNQ", "current_trial": 160, "dateTime": 1511559167600, "trialdata": {"rt": -1000, "stimulus": "/static/audio/wordpool/GRAPE.wav", "key_press": -1, "type": "PRES_AUD", "word": "grape", "wordID": 653, "conditions": [24, 800, "a", 24000], "trial": 4, "serialpos": 3, "trial_type": "single-audio", "trial_index": 160, "time_elapsed": 838397, "internal_node_id": "0.0-115.0"}}, {"uniqueid": "MTK0598:34S9DKFK74W4YV94ICCBZZA2KPOYNQ", "current_trial": 161, "dateTime": 1511559169426, "trialdata": {"rt": -1000, "stimulus": "/static/audio/wordpool/MATTRESS.wav", "key_press": -1, "type": "PRES_AUD", "word": "mattress", "wordID": 878, "conditions": [24, 800, "a", 24000], "trial": 4, "serialpos": 4, "trial_type": "single-audio", "trial_index": 161, "time_elapsed": 840224, "internal_node_id": "0.0-116.0"}}, {"uniqueid": "MTK0598:34S9DKFK74W4YV94ICCBZZA2KPOYNQ", "current_trial": 162, "dateTime": 1511559171127, "trialdata": {"rt": -1000, "stimulus": "/static/audio/wordpool/SCISSORS.wav", "key_press": -1, "type": "PRES_AUD", "word": "scissors", "wordID": 1249, "conditions": [24, 800, "a", 24000], "trial": 4, "serialpos": 5, "trial_type": "single-audio", "trial_index": 162, "time_elapsed": 841924, "internal_node_id": "0.0-117.0"}}, {"uniqueid": "MTK0598:34S9DKFK74W4YV94ICCBZZA2KPOYNQ", "current_trial": 163, "dateTime": 1511559172902, "trialdata": {"rt": -1000, "stimulus": "/static/audio/wordpool/PLIERS.wav", "key_press": -1, "type": "PRES_AUD", "word": "pliers", "wordID": 1088, "conditions": [24, 800, "a", 24000], "trial": 4, "serialpos": 6, "trial_type": "single-audio", "trial_index": 163, "time_elapsed": 843699, "internal_node_id": "0.0-118.0"}}, {"uniqueid": "MTK0598:34S9DKFK74W4YV94ICCBZZA2KPOYNQ", "current_trial": 164, "dateTime": 1511559174802, "trialdata": {"rt": -1000, "stimulus": "/static/audio/wordpool/BARLEY.wav", "key_press": -1, "type": "PRES_AUD", "word": "barley", "wordID": 87, "conditions": [24, 800, "a", 24000], "trial": 4, "serialpos": 7, "trial_type": "single-audio", "trial_index": 164, "time_elapsed": 845599, "internal_node_id": "0.0-119.0"}}, {"uniqueid": "MTK0598:34S9DKFK74W4YV94ICCBZZA2KPOYNQ", "current_trial": 165, "dateTime": 1511559176690, "trialdata": {"rt": -1000, "stimulus": "/static/audio/wordpool/HUSBAND.wav", "key_press": -1, "type": "PRES_AUD", "word": "husband", "wordID": 727, "conditions": [24, 800, "a", 24000], "trial": 4, "serialpos": 8, "trial_type": "single-audio", "trial_index": 165, "time_elapsed": 847488, "internal_node_id": "0.0-120.0"}}, {"uniqueid": "MTK0598:34S9DKFK74W4YV94ICCBZZA2KPOYNQ", "current_trial": 166, "dateTime": 1511559178550, "trialdata": {"rt": -1000, "stimulus": "/static/audio/wordpool/TERMITE.wav", "key_press": -1, "type": "PRES_AUD", "word": "termite", "wordID": 1450, "conditions": [24, 800, "a", 24000], "trial": 4, "serialpos": 9, "trial_type": "single-audio", "trial_index": 166, "time_elapsed": 849347, "internal_node_id": "0.0-121.0"}}, {"uniqueid": "MTK0598:34S9DKFK74W4YV94ICCBZZA2KPOYNQ", "current_trial": 167, "dateTime": 1511559180328, "trialdata": {"rt": -1000, "stimulus": "/static/audio/wordpool/TOMBSTONE.wav", "key_press": -1, "type": "PRES_AUD", "word": "tombstone", "wordID": 1477, "conditions": [24, 800, "a", 24000], "trial": 4, "serialpos": 10, "trial_type": "single-audio", "trial_index": 167, "time_elapsed": 851125, "internal_node_id": "0.0-122.0"}}, {"uniqueid": "MTK0598:34S9DKFK74W4YV94ICCBZZA2KPOYNQ", "current_trial": 168, "dateTime": 1511559182092, "trialdata": {"rt": -1000, "stimulus": "/static/audio/wordpool/CLOTHES.wav", "key_press": -1, "type": "PRES_AUD", "word": "clothes", "wordID": 326, "conditions": [24, 800, "a", 24000], "trial": 4, "serialpos": 11, "trial_type": "single-audio", "trial_index": 168, "time_elapsed": 852890, "internal_node_id": "0.0-123.0"}}, {"uniqueid": "MTK0598:34S9DKFK74W4YV94ICCBZZA2KPOYNQ", "current_trial": 169, "dateTime": 1511559183790, "trialdata": {"rt": -1000, "stimulus": "/static/audio/wordpool/FLASHLIGHT.wav", "key_press": -1, "type": "PRES_AUD", "word": "flashlight", "wordID": 574, "conditions": [24, 800, "a", 24000], "trial": 4, "serialpos": 12, "trial_type": "single-audio", "trial_index": 169, "time_elapsed": 854587, "internal_node_id": "0.0-124.0"}}, {"uniqueid": "MTK0598:34S9DKFK74W4YV94ICCBZZA2KPOYNQ", "current_trial": 170, "dateTime": 1511559185526, "trialdata": {"rt": -1000, "stimulus": "/static/audio/wordpool/CANYON.wav", "key_press": -1, "type": "PRES_AUD", "word": "canyon", "wordID": 234, "conditions": [24, 800, "a", 24000], "trial": 4, "serialpos": 13, "trial_type": "single-audio", "trial_index": 170, "time_elapsed": 856323, "internal_node_id": "0.0-125.0"}}, {"uniqueid": "MTK0598:34S9DKFK74W4YV94ICCBZZA2KPOYNQ", "current_trial": 171, "dateTime": 1511559187490, "trialdata": {"rt": -1000, "stimulus": "/static/audio/wordpool/KIDNEY.wav", "key_press": -1, "type": "PRES_AUD", "word": "kidney", "wordID": 775, "conditions": [24, 800, "a", 24000], "trial": 4, "serialpos": 14, "trial_type": "single-audio", "trial_index": 171, "time_elapsed": 858287, "internal_node_id": "0.0-126.0"}}, {"uniqueid": "MTK0598:34S9DKFK74W4YV94ICCBZZA2KPOYNQ", "current_trial": 172, "dateTime": 1511559189400, "trialdata": {"rt": -1000, "stimulus": "/static/audio/wordpool/STAPLE.wav", "key_press": -1, "type": "PRES_AUD", "word": "staple", "wordID": 1370, "conditions": [24, 800, "a", 24000], "trial": 4, "serialpos": 15, "trial_type": "single-audio", "trial_index": 172, "time_elapsed": 860197, "internal_node_id": "0.0-127.0"}}, {"uniqueid": "MTK0598:34S9DKFK74W4YV94ICCBZZA2KPOYNQ", "current_trial": 173, "dateTime": 1511559191253, "trialdata": {"rt": -1000, "stimulus": "/static/audio/wordpool/COFFEE.wav", "key_press": -1, "type": "PRES_AUD", "word": "coffee", "wordID": 340, "conditions": [24, 800, "a", 24000], "trial": 4, "serialpos": 16, "trial_type": "single-audio", "trial_index": 173, "time_elapsed": 862051, "internal_node_id": "0.0-128.0"}}, {"uniqueid": "MTK0598:34S9DKFK74W4YV94ICCBZZA2KPOYNQ", "current_trial": 174, "dateTime": 1511559193120, "trialdata": {"rt": -1000, "stimulus": "/static/audio/wordpool/HORNET.wav", "key_press": -1, "type": "PRES_AUD", "word": "hornet", "wordID": 717, "conditions": [24, 800, "a", 24000], "trial": 4, "serialpos": 17, "trial_type": "single-audio", "trial_index": 174, "time_elapsed": 863918, "internal_node_id": "0.0-129.0"}}, {"uniqueid": "MTK0598:34S9DKFK74W4YV94ICCBZZA2KPOYNQ", "current_trial": 175, "dateTime": 1511559195034, "trialdata": {"rt": -1000, "stimulus": "/static/audio/wordpool/WASP.wav", "key_press": -1, "type": "PRES_AUD", "word": "wasp", "wordID": 1592, "conditions": [24, 800, "a", 24000], "trial": 4, "serialpos": 18, "trial_type": "single-audio", "trial_index": 175, "time_elapsed": 865831, "internal_node_id": "0.0-130.0"}}, {"uniqueid": "MTK0598:34S9DKFK74W4YV94ICCBZZA2KPOYNQ", "current_trial": 176, "dateTime": 1511559196787, "trialdata": {"rt": -1000, "stimulus": "/static/audio/wordpool/CUSTARD.wav", "key_press": -1, "type": "PRES_AUD", "word": "custard", "wordID": 428, "conditions": [24, 800, "a", 24000], "trial": 4, "serialpos": 19, "trial_type": "single-audio", "trial_index": 176, "time_elapsed": 867585, "internal_node_id": "0.0-131.0"}}, {"uniqueid": "MTK0598:34S9DKFK74W4YV94ICCBZZA2KPOYNQ", "current_trial": 177, "dateTime": 1511559198406, "trialdata": {"rt": -1000, "stimulus": "/static/audio/wordpool/MOP.wav", "key_press": -1, "type": "PRES_AUD", "word": "mop", "wordID": 915, "conditions": [24, 800, "a", 24000], "trial": 4, "serialpos": 20, "trial_type": "single-audio", "trial_index": 177, "time_elapsed": 869203, "internal_node_id": "0.0-132.0"}}, {"uniqueid": "MTK0598:34S9DKFK74W4YV94ICCBZZA2KPOYNQ", "current_trial": 178, "dateTime": 1511559200288, "trialdata": {"rt": -1000, "stimulus": "/static/audio/wordpool/DASHBOARD.wav", "key_press": -1, "type": "PRES_AUD", "word": "dashboard", "wordID": 440, "conditions": [24, 800, "a", 24000], "trial": 4, "serialpos": 21, "trial_type": "single-audio", "trial_index": 178, "time_elapsed": 871085, "internal_node_id": "0.0-133.0"}}, {"uniqueid": "MTK0598:34S9DKFK74W4YV94ICCBZZA2KPOYNQ", "current_trial": 179, "dateTime": 1511559201952, "trialdata": {"rt": -1000, "stimulus": "/static/audio/wordpool/MARROW.wav", "key_press": -1, "type": "PRES_AUD", "word": "marrow", "wordID": 871, "conditions": [24, 800, "a", 24000], "trial": 4, "serialpos": 22, "trial_type": "single-audio", "trial_index": 179, "time_elapsed": 872749, "internal_node_id": "0.0-134.0"}}, {"uniqueid": "MTK0598:34S9DKFK74W4YV94ICCBZZA2KPOYNQ", "current_trial": 180, "dateTime": 1511559203590, "trialdata": {"rt": -1000, "stimulus": "/static/audio/wordpool/WASHER.wav", "key_press": -1, "type": "PRES_AUD", "word": "washer", "wordID": 1591, "conditions": [24, 800, "a", 24000], "trial": 4, "serialpos": 23, "trial_type": "single-audio", "trial_index": 180, "time_elapsed": 874387, "internal_node_id": "0.0-135.0"}}, {"uniqueid": "MTK0598:34S9DKFK74W4YV94ICCBZZA2KPOYNQ", "current_trial": 181, "dateTime": 1511559204952, "trialdata": {"rt": -1, "stimulus": "", "key_press": -1, "type": "PRE_RECALL_DELAY", "trial_type": "single-stim", "trial_index": 181, "time_elapsed": 875750, "internal_node_id": "0.0-136.0-0.0"}}, {"uniqueid": "MTK0598:34S9DKFK74W4YV94ICCBZZA2KPOYNQ", "current_trial": 182, "dateTime": 1511559205453, "trialdata": {"rt": -1000, "stimulus": "/static/audio/400Hz.wav", "key_press": -1, "type": "PRE_RECALL_ALERT", "trial_type": "single-audio", "trial_index": 182, "time_elapsed": 876250, "internal_node_id": "0.0-137.0"}}, {"uniqueid": "MTK0598:34S9DKFK74W4YV94ICCBZZA2KPOYNQ", "current_trial": 183, "dateTime": 1511559265474, "trialdata": {"rt": [4141, 6300, 9056, 10969, 13698, 17501, 20204, 22342, 24814, 27345, 31287, 35422, 38022, 40883, 43580, 48333, 52747, 53719, 56387, 58856], "recwords": ["brandy", "bunny", "truck", "grape", "mattress", "scisors", "pliars", "barley", "husband", "terrible", "clothes", "flashlight", "canyon", "kidney", "staple", "coffee", "hornet", "wasp", "custard", "moth"], "type": "FREE_RECALL", "conditions": [24, 800, "a", 24000], "trial": 4, "trial_type": "free-recall", "trial_index": 183, "time_elapsed": 936255, "internal_node_id": "0.0-138.0-0.0"}}, {"uniqueid": "MTK0598:34S9DKFK74W4YV94ICCBZZA2KPOYNQ", "current_trial": 184, "dateTime": 1511559275231, "trialdata": {"rt": 7756, "key_press": 32, "type": "INSTRUCTIONS", "trial_type": "text", "trial_index": 184, "time_elapsed": 946029, "internal_node_id": "0.0-139.0"}}, {"uniqueid": "MTK0598:34S9DKFK74W4YV94ICCBZZA2KPOYNQ", "current_trial": 185, "dateTime": 1511559301236, "trialdata": {"rt": [2769, 5904, 9293, 11413, 14558, 16990, 19776, 21805], "responses": ["12", "15", "15", "9", "20", "12", "16", "7"], "num1": [6, 4, 3, 2, 7, 8, 8, 3, 9], "num2": [4, 9, 8, 6, 9, 3, 3, 3, 2], "num3": [2, 2, 4, 1, 4, 1, 5, 1, 5], "type": "DISTRACTOR", "conditions": [24, 1600, "a", 24000], "trial": 5, "trial_type": "math-distractor", "trial_index": 185, "time_elapsed": 972034, "internal_node_id": "0.0-140.0"}}, {"uniqueid": "MTK0598:34S9DKFK74W4YV94ICCBZZA2KPOYNQ", "current_trial": 186, "dateTime": 1511559304238, "trialdata": {"rt": -1, "stimulus": "<p id=\"stim\">10</p>", "key_press": -1, "trial_type": "single-stim", "trial_index": 186, "time_elapsed": 975036, "internal_node_id": "0.0-141.0-0.0"}}, {"uniqueid": "MTK0598:34S9DKFK74W4YV94ICCBZZA2KPOYNQ", "current_trial": 187, "dateTime": 1511559305240, "trialdata": {"rt": -1, "stimulus": "<p id=\"stim\">9</p>", "key_press": -1, "trial_type": "single-stim", "trial_index": 187, "time_elapsed": 976038, "internal_node_id": "0.0-141.0-1.0"}}, {"uniqueid": "MTK0598:34S9DKFK74W4YV94ICCBZZA2KPOYNQ", "current_trial": 188, "dateTime": 1511559306242, "trialdata": {"rt": -1, "stimulus": "<p id=\"stim\">8</p>", "key_press": -1, "trial_type": "single-stim", "trial_index": 188, "time_elapsed": 977040, "internal_node_id": "0.0-141.0-2.0"}}, {"uniqueid": "MTK0598:34S9DKFK74W4YV94ICCBZZA2KPOYNQ", "current_trial": 189, "dateTime": 1511559307244, "trialdata": {"rt": -1, "stimulus": "<p id=\"stim\">7</p>", "key_press": -1, "trial_type": "single-stim", "trial_index": 189, "time_elapsed": 978042, "internal_node_id": "0.0-141.0-3.0"}}, {"uniqueid": "MTK0598:34S9DKFK74W4YV94ICCBZZA2KPOYNQ", "current_trial": 190, "dateTime": 1511559308246, "trialdata": {"rt": -1, "stimulus": "<p id=\"stim\">6</p>", "key_press": -1, "trial_type": "single-stim", "trial_index": 190, "time_elapsed": 979044, "internal_node_id": "0.0-141.0-4.0"}}, {"uniqueid": "MTK0598:34S9DKFK74W4YV94ICCBZZA2KPOYNQ", "current_trial": 191, "dateTime": 1511559309248, "trialdata": {"rt": -1, "stimulus": "<p id=\"stim\">5</p>", "key_press": -1, "trial_type": "single-stim", "trial_index": 191, "time_elapsed": 980046, "internal_node_id": "0.0-141.0-5.0"}}, {"uniqueid": "MTK0598:34S9DKFK74W4YV94ICCBZZA2KPOYNQ", "current_trial": 192, "dateTime": 1511559310250, "trialdata": {"rt": -1, "stimulus": "<p id=\"stim\">4</p>", "key_press": -1, "trial_type": "single-stim", "trial_index": 192, "time_elapsed": 981048, "internal_node_id": "0.0-141.0-6.0"}}, {"uniqueid": "MTK0598:34S9DKFK74W4YV94ICCBZZA2KPOYNQ", "current_trial": 193, "dateTime": 1511559311252, "trialdata": {"rt": -1, "stimulus": "<p id=\"stim\">3</p>", "key_press": -1, "trial_type": "single-stim", "trial_index": 193, "time_elapsed": 982050, "internal_node_id": "0.0-141.0-7.0"}}, {"uniqueid": "MTK0598:34S9DKFK74W4YV94ICCBZZA2KPOYNQ", "current_trial": 194, "dateTime": 1511559312254, "trialdata": {"rt": -1, "stimulus": "<p id=\"stim\">2</p>", "key_press": -1, "trial_type": "single-stim", "trial_index": 194, "time_elapsed": 983052, "internal_node_id": "0.0-141.0-8.0"}}, {"uniqueid": "MTK0598:34S9DKFK74W4YV94ICCBZZA2KPOYNQ", "current_trial": 195, "dateTime": 1511559313256, "trialdata": {"rt": -1, "stimulus": "<p id=\"stim\">1</p>", "key_press": -1, "trial_type": "single-stim", "trial_index": 195, "time_elapsed": 984054, "internal_node_id": "0.0-141.0-9.0"}}, {"uniqueid": "MTK0598:34S9DKFK74W4YV94ICCBZZA2KPOYNQ", "current_trial": 196, "dateTime": 1511559314758, "trialdata": {"rt": -1, "stimulus": "<p id=\"stim\">+</p>", "key_press": -1, "type": "FIXATION", "trial_type": "single-stim", "trial_index": 196, "time_elapsed": 985556, "internal_node_id": "0.0-142.0-0.0"}}, {"uniqueid": "MTK0598:34S9DKFK74W4YV94ICCBZZA2KPOYNQ", "current_trial": 197, "dateTime": 1511559317444, "trialdata": {"rt": -1000, "stimulus": "/static/audio/wordpool/NECKLACE.wav", "key_press": -1, "type": "PRES_AUD", "word": "necklace", "wordID": 939, "conditions": [24, 1600, "a", 24000], "trial": 5, "serialpos": 0, "trial_type": "single-audio", "trial_index": 197, "time_elapsed": 988241, "internal_node_id": "0.0-143.0"}}, {"uniqueid": "MTK0598:34S9DKFK74W4YV94ICCBZZA2KPOYNQ", "current_trial": 198, "dateTime": 1511559320176, "trialdata": {"rt": -1000, "stimulus": "/static/audio/wordpool/MONSTER.wav", "key_press": -1, "type": "PRES_AUD", "word": "monster", "wordID": 911, "conditions": [24, 1600, "a", 24000], "trial": 5, "serialpos": 1, "trial_type": "single-audio", "trial_index": 198, "time_elapsed": 990973, "internal_node_id": "0.0-144.0"}}, {"uniqueid": "MTK0598:34S9DKFK74W4YV94ICCBZZA2KPOYNQ", "current_trial": 199, "dateTime": 1511559322763, "trialdata": {"rt": -1000, "stimulus": "/static/audio/wordpool/RACKET.wav", "key_press": -1, "type": "PRES_AUD", "word": "racket", "wordID": 1154, "conditions": [24, 1600, "a", 24000], "trial": 5, "serialpos": 2, "trial_type": "single-audio", "trial_index": 199, "time_elapsed": 993560, "internal_node_id": "0.0-145.0"}}, {"uniqueid": "MTK0598:34S9DKFK74W4YV94ICCBZZA2KPOYNQ", "current_trial": 200, "dateTime": 1511559325501, "trialdata": {"rt": -1000, "stimulus": "/static/audio/wordpool/BRIEFCASE.wav", "key_press": -1, "type": "PRES_AUD", "word": "briefcase", "wordID": 174, "conditions": [24, 1600, "a", 24000], "trial": 5, "serialpos": 3, "trial_type": "single-audio", "trial_index": 200, "time_elapsed": 996298, "internal_node_id": "0.0-146.0"}}, {"uniqueid": "MTK0598:34S9DKFK74W4YV94ICCBZZA2KPOYNQ", "current_trial": 201, "dateTime": 1511559328206, "trialdata": {"rt": -1000, "stimulus": "/static/audio/wordpool/PASTRY.wav", "key_press": -1, "type": "PRES_AUD", "word": "pastry", "wordID": 1021, "conditions": [24, 1600, "a", 24000], "trial": 5, "serialpos": 4, "trial_type": "single-audio", "trial_index": 201, "time_elapsed": 999003, "internal_node_id": "0.0-147.0"}}, {"uniqueid": "MTK0598:34S9DKFK74W4YV94ICCBZZA2KPOYNQ", "current_trial": 202, "dateTime": 1511559330971, "trialdata": {"rt": -1000, "stimulus": "/static/audio/wordpool/COCKTAIL.wav", "key_press": -1, "type": "PRES_AUD", "word": "cocktail", "wordID": 337, "conditions": [24, 1600, "a", 24000], "trial": 5, "serialpos": 5, "trial_type": "single-audio", "trial_index": 202, "time_elapsed": 1001769, "internal_node_id": "0.0-148.0"}}, {"uniqueid": "MTK0598:34S9DKFK74W4YV94ICCBZZA2KPOYNQ", "current_trial": 203, "dateTime": 1511559333746, "trialdata": {"rt": -1000, "stimulus": "/static/audio/wordpool/HANDBAG.wav", "key_press": -1, "type": "PRES_AUD", "word": "handbag", "wordID": 683, "conditions": [24, 1600, "a", 24000], "trial": 5, "serialpos": 6, "trial_type": "single-audio", "trial_index": 203, "time_elapsed": 1004544, "internal_node_id": "0.0-149.0"}}, {"uniqueid": "MTK0598:34S9DKFK74W4YV94ICCBZZA2KPOYNQ", "current_trial": 204, "dateTime": 1511559336167, "trialdata": {"rt": -1000, "stimulus": "/static/audio/wordpool/ICING.wav", "key_press": -1, "type": "PRES_AUD", "word": "icing", "wordID": 731, "conditions": [24, 1600, "a", 24000], "trial": 5, "serialpos": 7, "trial_type": "single-audio", "trial_index": 204, "time_elapsed": 1006964, "internal_node_id": "0.0-150.0"}}, {"uniqueid": "MTK0598:34S9DKFK74W4YV94ICCBZZA2KPOYNQ", "current_trial": 205, "dateTime": 1511559338796, "trialdata": {"rt": -1000, "stimulus": "/static/audio/wordpool/EGYPT.wav", "key_press": -1, "type": "PRES_AUD", "word": "egypt", "wordID": 518, "conditions": [24, 1600, "a", 24000], "trial": 5, "serialpos": 8, "trial_type": "single-audio", "trial_index": 205, "time_elapsed": 1009593, "internal_node_id": "0.0-151.0"}}, {"uniqueid": "MTK0598:34S9DKFK74W4YV94ICCBZZA2KPOYNQ", "current_trial": 206, "dateTime": 1511559341233, "trialdata": {"rt": -1000, "stimulus": "/static/audio/wordpool/COOK.wav", "key_press": -1, "type": "PRES_AUD", "word": "cook", "wordID": 371, "conditions": [24, 1600, "a", 24000], "trial": 5, "serialpos": 9, "trial_type": "single-audio", "trial_index": 206, "time_elapsed": 1012031, "internal_node_id": "0.0-152.0"}}, {"uniqueid": "MTK0598:34S9DKFK74W4YV94ICCBZZA2KPOYNQ", "current_trial": 207, "dateTime": 1511559344020, "trialdata": {"rt": -1000, "stimulus": "/static/audio/wordpool/STATUE.wav", "key_press": -1, "type": "PRES_AUD", "word": "statue", "wordID": 1373, "conditions": [24, 1600, "a", 24000], "trial": 5, "serialpos": 10, "trial_type": "single-audio", "trial_index": 207, "time_elapsed": 1014817, "internal_node_id": "0.0-153.0"}}, {"uniqueid": "MTK0598:34S9DKFK74W4YV94ICCBZZA2KPOYNQ", "current_trial": 208, "dateTime": 1511559346545, "trialdata": {"rt": -1000, "stimulus": "/static/audio/wordpool/SCULPTURE.wav", "key_press": -1, "type": "PRES_AUD", "word": "sculpture", "wordID": 1257, "conditions": [24, 1600, "a", 24000], "trial": 5, "serialpos": 11, "trial_type": "single-audio", "trial_index": 208, "time_elapsed": 1017342, "internal_node_id": "0.0-154.0"}}, {"uniqueid": "MTK0598:34S9DKFK74W4YV94ICCBZZA2KPOYNQ", "current_trial": 209, "dateTime": 1511559349279, "trialdata": {"rt": -1000, "stimulus": "/static/audio/wordpool/TEMPLE.wav", "key_press": -1, "type": "PRES_AUD", "word": "temple", "wordID": 1447, "conditions": [24, 1600, "a", 24000], "trial": 5, "serialpos": 12, "trial_type": "single-audio", "trial_index": 209, "time_elapsed": 1020076, "internal_node_id": "0.0-155.0"}}, {"uniqueid": "MTK0598:34S9DKFK74W4YV94ICCBZZA2KPOYNQ", "current_trial": 210, "dateTime": 1511559351999, "trialdata": {"rt": -1000, "stimulus": "/static/audio/wordpool/BEEF.wav", "key_press": -1, "type": "PRES_AUD", "word": "beef", "wordID": 112, "conditions": [24, 1600, "a", 24000], "trial": 5, "serialpos": 13, "trial_type": "single-audio", "trial_index": 210, "time_elapsed": 1022797, "internal_node_id": "0.0-156.0"}}, {"uniqueid": "MTK0598:34S9DKFK74W4YV94ICCBZZA2KPOYNQ", "current_trial": 211, "dateTime": 1511559354497, "trialdata": {"rt": -1000, "stimulus": "/static/audio/wordpool/JOURNAL.wav", "key_press": -1, "type": "PRES_AUD", "word": "journal", "wordID": 759, "conditions": [24, 1600, "a", 24000], "trial": 5, "serialpos": 14, "trial_type": "single-audio", "trial_index": 211, "time_elapsed": 1025295, "internal_node_id": "0.0-157.0"}}, {"uniqueid": "MTK0598:34S9DKFK74W4YV94ICCBZZA2KPOYNQ", "current_trial": 212, "dateTime": 1511559357100, "trialdata": {"rt": -1000, "stimulus": "/static/audio/wordpool/CHURCH.wav", "key_press": -1, "type": "PRES_AUD", "word": "church", "wordID": 306, "conditions": [24, 1600, "a", 24000], "trial": 5, "serialpos": 15, "trial_type": "single-audio", "trial_index": 212, "time_elapsed": 1027898, "internal_node_id": "0.0-158.0"}}, {"uniqueid": "MTK0598:34S9DKFK74W4YV94ICCBZZA2KPOYNQ", "current_trial": 213, "dateTime": 1511559359835, "trialdata": {"rt": -1000, "stimulus": "/static/audio/wordpool/TUBA.wav", "key_press": -1, "type": "PRES_AUD", "word": "tuba", "wordID": 1514, "conditions": [24, 1600, "a", 24000], "trial": 5, "serialpos": 16, "trial_type": "single-audio", "trial_index": 213, "time_elapsed": 1030632, "internal_node_id": "0.0-159.0"}}, {"uniqueid": "MTK0598:34S9DKFK74W4YV94ICCBZZA2KPOYNQ", "current_trial": 214, "dateTime": 1511559362446, "trialdata": {"rt": -1000, "stimulus": "/static/audio/wordpool/CANDY.wav", "key_press": -1, "type": "PRES_AUD", "word": "candy", "wordID": 229, "conditions": [24, 1600, "a", 24000], "trial": 5, "serialpos": 17, "trial_type": "single-audio", "trial_index": 214, "time_elapsed": 1033243, "internal_node_id": "0.0-160.0"}}, {"uniqueid": "MTK0598:34S9DKFK74W4YV94ICCBZZA2KPOYNQ", "current_trial": 215, "dateTime": 1511559364973, "trialdata": {"rt": -1000, "stimulus": "/static/audio/wordpool/TOURIST.wav", "key_press": -1, "type": "PRES_AUD", "word": "tourist", "wordID": 1487, "conditions": [24, 1600, "a", 24000], "trial": 5, "serialpos": 18, "trial_type": "single-audio", "trial_index": 215, "time_elapsed": 1035770, "internal_node_id": "0.0-161.0"}}, {"uniqueid": "MTK0598:34S9DKFK74W4YV94ICCBZZA2KPOYNQ", "current_trial": 216, "dateTime": 1511559367423, "trialdata": {"rt": -1000, "stimulus": "/static/audio/wordpool/CHAPEL.wav", "key_press": -1, "type": "PRES_AUD", "word": "chapel", "wordID": 279, "conditions": [24, 1600, "a", 24000], "trial": 5, "serialpos": 19, "trial_type": "single-audio", "trial_index": 216, "time_elapsed": 1038221, "internal_node_id": "0.0-162.0"}}, {"uniqueid": "MTK0598:34S9DKFK74W4YV94ICCBZZA2KPOYNQ", "current_trial": 217, "dateTime": 1511559370202, "trialdata": {"rt": -1000, "stimulus": "/static/audio/wordpool/SNACK.wav", "key_press": -1, "type": "PRES_AUD", "word": "snack", "wordID": 1330, "conditions": [24, 1600, "a", 24000], "trial": 5, "serialpos": 20, "trial_type": "single-audio", "trial_index": 217, "time_elapsed": 1041000, "internal_node_id": "0.0-163.0"}}, {"uniqueid": "MTK0598:34S9DKFK74W4YV94ICCBZZA2KPOYNQ", "current_trial": 218, "dateTime": 1511559372833, "trialdata": {"rt": -1000, "stimulus": "/static/audio/wordpool/LUNCH.wav", "key_press": -1, "type": "PRES_AUD", "word": "lunch", "wordID": 848, "conditions": [24, 1600, "a", 24000], "trial": 5, "serialpos": 21, "trial_type": "single-audio", "trial_index": 218, "time_elapsed": 1043630, "internal_node_id": "0.0-164.0"}}, {"uniqueid": "MTK0598:34S9DKFK74W4YV94ICCBZZA2KPOYNQ", "current_trial": 219, "dateTime": 1511559375340, "trialdata": {"rt": -1000, "stimulus": "/static/audio/wordpool/EXPERT.wav", "key_press": -1, "type": "PRES_AUD", "word": "expert", "wordID": 542, "conditions": [24, 1600, "a", 24000], "trial": 5, "serialpos": 22, "trial_type": "single-audio", "trial_index": 219, "time_elapsed": 1046137, "internal_node_id": "0.0-165.0"}}, {"uniqueid": "MTK0598:34S9DKFK74W4YV94ICCBZZA2KPOYNQ", "current_trial": 220, "dateTime": 1511559378051, "trialdata": {"rt": -1000, "stimulus": "/static/audio/wordpool/JAPAN.wav", "key_press": -1, "type": "PRES_AUD", "word": "japan", "wordID": 748, "conditions": [24, 1600, "a", 24000], "trial": 5, "serialpos": 23, "trial_type": "single-audio", "trial_index": 220, "time_elapsed": 1048849, "internal_node_id": "0.0-166.0"}}, {"uniqueid": "MTK0598:34S9DKFK74W4YV94ICCBZZA2KPOYNQ", "current_trial": 221, "dateTime": 1511559379352, "trialdata": {"rt": -1, "stimulus": "", "key_press": -1, "type": "PRE_RECALL_DELAY", "trial_type": "single-stim", "trial_index": 221, "time_elapsed": 1050150, "internal_node_id": "0.0-167.0-0.0"}}, {"uniqueid": "MTK0598:34S9DKFK74W4YV94ICCBZZA2KPOYNQ", "current_trial": 222, "dateTime": 1511559379853, "trialdata": {"rt": -1000, "stimulus": "/static/audio/400Hz.wav", "key_press": -1, "type": "PRE_RECALL_ALERT", "trial_type": "single-audio", "trial_index": 222, "time_elapsed": 1050651, "internal_node_id": "0.0-168.0"}}, {"uniqueid": "MTK0598:34S9DKFK74W4YV94ICCBZZA2KPOYNQ", "current_trial": 223, "dateTime": 1511559439863, "trialdata": {"rt": [6535, 8872, 13867, 17266, 19315, 23223, 27694, 30390, 32300, 33715, 38314, 40937, 43193, 46591, 49536, 52492, 52814], "recwords": ["necklace", "monster", "raquet", "briefcase", "pastry", "cocktail", "handbag", "egypt", "cook", "statue", "sculpture", "temple", "beef", "church", "tuba", "cand", "y"], "type": "FREE_RECALL", "conditions": [24, 1600, "a", 24000], "trial": 5, "trial_type": "free-recall", "trial_index": 223, "time_elapsed": 1110654, "internal_node_id": "0.0-169.0-0.0"}}, {"uniqueid": "MTK0598:34S9DKFK74W4YV94ICCBZZA2KPOYNQ", "current_trial": 224, "dateTime": 1511559452191, "trialdata": {"rt": 10327, "key_press": 32, "type": "INSTRUCTIONS", "trial_type": "text", "trial_index": 224, "time_elapsed": 1122989, "internal_node_id": "0.0-170.0"}}, {"uniqueid": "MTK0598:34S9DKFK74W4YV94ICCBZZA2KPOYNQ", "current_trial": 225, "dateTime": 1511559466196, "trialdata": {"rt": [2246, 4444, 10467], "responses": ["15", "4", "22"], "num1": [5, 1, 9, 4], "num2": [5, 2, 8, 5], "num3": [5, 1, 5, 3], "type": "DISTRACTOR", "conditions": [24, 1600, "v", 12000], "trial": 6, "trial_type": "math-distractor", "trial_index": 225, "time_elapsed": 1136994, "internal_node_id": "0.0-171.0"}}, {"uniqueid": "MTK0598:34S9DKFK74W4YV94ICCBZZA2KPOYNQ", "current_trial": 226, "dateTime": 1511559469197, "trialdata": {"rt": -1, "stimulus": "<p id=\"stim\">10</p>", "key_press": -1, "trial_type": "single-stim", "trial_index": 226, "time_elapsed": 1139995, "internal_node_id": "0.0-172.0-0.0"}}, {"uniqueid": "MTK0598:34S9DKFK74W4YV94ICCBZZA2KPOYNQ", "current_trial": 227, "dateTime": 1511559470199, "trialdata": {"rt": -1, "stimulus": "<p id=\"stim\">9</p>", "key_press": -1, "trial_type": "single-stim", "trial_index": 227, "time_elapsed": 1140997, "internal_node_id": "0.0-172.0-1.0"}}, {"uniqueid": "MTK0598:34S9DKFK74W4YV94ICCBZZA2KPOYNQ", "current_trial": 228, "dateTime": 1511559471201, "trialdata": {"rt": -1, "stimulus": "<p id=\"stim\">8</p>", "key_press": -1, "trial_type": "single-stim", "trial_index": 228, "time_elapsed": 1141999, "internal_node_id": "0.0-172.0-2.0"}}, {"uniqueid": "MTK0598:34S9DKFK74W4YV94ICCBZZA2KPOYNQ", "current_trial": 229, "dateTime": 1511559472203, "trialdata": {"rt": -1, "stimulus": "<p id=\"stim\">7</p>", "key_press": -1, "trial_type": "single-stim", "trial_index": 229, "time_elapsed": 1143001, "internal_node_id": "0.0-172.0-3.0"}}, {"uniqueid": "MTK0598:34S9DKFK74W4YV94ICCBZZA2KPOYNQ", "current_trial": 230, "dateTime": 1511559473206, "trialdata": {"rt": -1, "stimulus": "<p id=\"stim\">6</p>", "key_press": -1, "trial_type": "single-stim", "trial_index": 230, "time_elapsed": 1144003, "internal_node_id": "0.0-172.0-4.0"}}, {"uniqueid": "MTK0598:34S9DKFK74W4YV94ICCBZZA2KPOYNQ", "current_trial": 231, "dateTime": 1511559474207, "trialdata": {"rt": -1, "stimulus": "<p id=\"stim\">5</p>", "key_press": -1, "trial_type": "single-stim", "trial_index": 231, "time_elapsed": 1145005, "internal_node_id": "0.0-172.0-5.0"}}, {"uniqueid": "MTK0598:34S9DKFK74W4YV94ICCBZZA2KPOYNQ", "current_trial": 232, "dateTime": 1511559475209, "trialdata": {"rt": -1, "stimulus": "<p id=\"stim\">4</p>", "key_press": -1, "trial_type": "single-stim", "trial_index": 232, "time_elapsed": 1146007, "internal_node_id": "0.0-172.0-6.0"}}, {"uniqueid": "MTK0598:34S9DKFK74W4YV94ICCBZZA2KPOYNQ", "current_trial": 233, "dateTime": 1511559476211, "trialdata": {"rt": -1, "stimulus": "<p id=\"stim\">3</p>", "key_press": -1, "trial_type": "single-stim", "trial_index": 233, "time_elapsed": 1147009, "internal_node_id": "0.0-172.0-7.0"}}, {"uniqueid": "MTK0598:34S9DKFK74W4YV94ICCBZZA2KPOYNQ", "current_trial": 234, "dateTime": 1511559477213, "trialdata": {"rt": -1, "stimulus": "<p id=\"stim\">2</p>", "key_press": -1, "trial_type": "single-stim", "trial_index": 234, "time_elapsed": 1148011, "internal_node_id": "0.0-172.0-8.0"}}, {"uniqueid": "MTK0598:34S9DKFK74W4YV94ICCBZZA2KPOYNQ", "current_trial": 235, "dateTime": 1511559478216, "trialdata": {"rt": -1, "stimulus": "<p id=\"stim\">1</p>", "key_press": -1, "trial_type": "single-stim", "trial_index": 235, "time_elapsed": 1149014, "internal_node_id": "0.0-172.0-9.0"}}, {"uniqueid": "MTK0598:34S9DKFK74W4YV94ICCBZZA2KPOYNQ", "current_trial": 236, "dateTime": 1511559479718, "trialdata": {"rt": -1, "stimulus": "<p id=\"stim\">+</p>", "key_press": -1, "type": "FIXATION", "trial_type": "single-stim", "trial_index": 236, "time_elapsed": 1150516, "internal_node_id": "0.0-173.0-0.0"}}, {"uniqueid": "MTK0598:34S9DKFK74W4YV94ICCBZZA2KPOYNQ", "current_trial": 237, "dateTime": 1511559481319, "trialdata": {"rt": -1, "stimulus": "<p id=\"stim\">DRESSER</p>", "key_press": -1, "type": "PRES_VIS", "word": "dresser", "wordID": 495, "conditions": [24, 1600, "v", 12000], "trial": 6, "serialpos": 0, "trial_type": "single-stim", "trial_index": 237, "time_elapsed": 1152117, "internal_node_id": "0.0-174.0"}}, {"uniqueid": "MTK0598:34S9DKFK74W4YV94ICCBZZA2KPOYNQ", "current_trial": 238, "dateTime": 1511559484085, "trialdata": {"rt": -1, "stimulus": "<p id=\"stim\">COTTAGE</p>", "key_press": -1, "type": "PRES_VIS", "word": "cottage", "wordID": 383, "conditions": [24, 1600, "v", 12000], "trial": 6, "serialpos": 1, "trial_type": "single-stim", "trial_index": 238, "time_elapsed": 1154883, "internal_node_id": "0.0-175.0"}}, {"uniqueid": "MTK0598:34S9DKFK74W4YV94ICCBZZA2KPOYNQ", "current_trial": 239, "dateTime": 1511559486551, "trialdata": {"rt": -1, "stimulus": "<p id=\"stim\">PASSAGE</p>", "key_press": -1, "type": "PRES_VIS", "word": "passage", "wordID": 1018, "conditions": [24, 1600, "v", 12000], "trial": 6, "serialpos": 2, "trial_type": "single-stim", "trial_index": 239, "time_elapsed": 1157349, "internal_node_id": "0.0-176.0"}}, {"uniqueid": "MTK0598:34S9DKFK74W4YV94ICCBZZA2KPOYNQ", "current_trial": 240, "dateTime": 1511559489229, "trialdata": {"rt": -1, "stimulus": "<p id=\"stim\">MISSILE</p>", "key_press": -1, "type": "PRES_VIS", "word": "missile", "wordID": 899, "conditions": [24, 1600, "v", 12000], "trial": 6, "serialpos": 3, "trial_type": "single-stim", "trial_index": 240, "time_elapsed": 1160027, "internal_node_id": "0.0-177.0"}}, {"uniqueid": "MTK0598:34S9DKFK74W4YV94ICCBZZA2KPOYNQ", "current_trial": 241, "dateTime": 1511559491828, "trialdata": {"rt": -1, "stimulus": "<p id=\"stim\">ROCKET</p>", "key_press": -1, "type": "PRES_VIS", "word": "rocket", "wordID": 1201, "conditions": [24, 1600, "v", 12000], "trial": 6, "serialpos": 4, "trial_type": "single-stim", "trial_index": 241, "time_elapsed": 1162626, "internal_node_id": "0.0-178.0"}}, {"uniqueid": "MTK0598:34S9DKFK74W4YV94ICCBZZA2KPOYNQ", "current_trial": 242, "dateTime": 1511559494598, "trialdata": {"rt": -1, "stimulus": "<p id=\"stim\">JURY</p>", "key_press": -1, "type": "PRES_VIS", "word": "jury", "wordID": 765, "conditions": [24, 1600, "v", 12000], "trial": 6, "serialpos": 5, "trial_type": "single-stim", "trial_index": 242, "time_elapsed": 1165396, "internal_node_id": "0.0-179.0"}}, {"uniqueid": "MTK0598:34S9DKFK74W4YV94ICCBZZA2KPOYNQ", "current_trial": 243, "dateTime": 1511559497158, "trialdata": {"rt": -1, "stimulus": "<p id=\"stim\">SCARF</p>", "key_press": -1, "type": "PRES_VIS", "word": "scarf", "wordID": 1245, "conditions": [24, 1600, "v", 12000], "trial": 6, "serialpos": 6, "trial_type": "single-stim", "trial_index": 243, "time_elapsed": 1167956, "internal_node_id": "0.0-180.0"}}, {"uniqueid": "MTK0598:34S9DKFK74W4YV94ICCBZZA2KPOYNQ", "current_trial": 244, "dateTime": 1511559499680, "trialdata": {"rt": -1, "stimulus": "<p id=\"stim\">DENTIST</p>", "key_press": -1, "type": "PRES_VIS", "word": "dentist", "wordID": 446, "conditions": [24, 1600, "v", 12000], "trial": 6, "serialpos": 7, "trial_type": "single-stim", "trial_index": 244, "time_elapsed": 1170478, "internal_node_id": "0.0-181.0"}}, {"uniqueid": "MTK0598:34S9DKFK74W4YV94ICCBZZA2KPOYNQ", "current_trial": 245, "dateTime": 1511559502162, "trialdata": {"rt": -1, "stimulus": "<p id=\"stim\">PIMPLE</p>", "key_press": -1, "type": "PRES_VIS", "word": "pimple", "wordID": 1070, "conditions": [24, 1600, "v", 12000], "trial": 6, "serialpos": 8, "trial_type": "single-stim", "trial_index": 245, "time_elapsed": 1172960, "internal_node_id": "0.0-182.0"}}, {"uniqueid": "MTK0598:34S9DKFK74W4YV94ICCBZZA2KPOYNQ", "current_trial": 246, "dateTime": 1511559504597, "trialdata": {"rt": -1, "stimulus": "<p id=\"stim\">DRESS</p>", "key_press": -1, "type": "PRES_VIS", "word": "dress", "wordID": 494, "conditions": [24, 1600, "v", 12000], "trial": 6, "serialpos": 9, "trial_type": "single-stim", "trial_index": 246, "time_elapsed": 1175395, "internal_node_id": "0.0-183.0"}}, {"uniqueid": "MTK0598:34S9DKFK74W4YV94ICCBZZA2KPOYNQ", "current_trial": 247, "dateTime": 1511559507053, "trialdata": {"rt": -1, "stimulus": "<p id=\"stim\">MOTEL</p>", "key_press": -1, "type": "PRES_VIS", "word": "motel", "wordID": 918, "conditions": [24, 1600, "v", 12000], "trial": 6, "serialpos": 10, "trial_type": "single-stim", "trial_index": 247, "time_elapsed": 1177851, "internal_node_id": "0.0-184.0"}}, {"uniqueid": "MTK0598:34S9DKFK74W4YV94ICCBZZA2KPOYNQ", "current_trial": 248, "dateTime": 1511559509454, "trialdata": {"rt": -1, "stimulus": "<p id=\"stim\">JUGGLER</p>", "key_press": -1, "type": "PRES_VIS", "word": "juggler", "wordID": 762, "conditions": [24, 1600, "v", 12000], "trial": 6, "serialpos": 11, "trial_type": "single-stim", "trial_index": 248, "time_elapsed": 1180252, "internal_node_id": "0.0-185.0"}}, {"uniqueid": "MTK0598:34S9DKFK74W4YV94ICCBZZA2KPOYNQ", "current_trial": 249, "dateTime": 1511559511927, "trialdata": {"rt": -1, "stimulus": "<p id=\"stim\">JELLY</p>", "key_press": -1, "type": "PRES_VIS", "word": "jelly", "wordID": 754, "conditions": [24, 1600, "v", 12000], "trial": 6, "serialpos": 12, "trial_type": "single-stim", "trial_index": 249, "time_elapsed": 1182725, "internal_node_id": "0.0-186.0"}}, {"uniqueid": "MTK0598:34S9DKFK74W4YV94ICCBZZA2KPOYNQ", "current_trial": 250, "dateTime": 1511559514643, "trialdata": {"rt": -1, "stimulus": "<p id=\"stim\">LONDON</p>", "key_press": -1, "type": "PRES_VIS", "word": "london", "wordID": 842, "conditions": [24, 1600, "v", 12000], "trial": 6, "serialpos": 13, "trial_type": "single-stim", "trial_index": 250, "time_elapsed": 1185441, "internal_node_id": "0.0-187.0"}}, {"uniqueid": "MTK0598:34S9DKFK74W4YV94ICCBZZA2KPOYNQ", "current_trial": 251, "dateTime": 1511559517200, "trialdata": {"rt": -1, "stimulus": "<p id=\"stim\">MILK</p>", "key_press": -1, "type": "PRES_VIS", "word": "milk", "wordID": 894, "conditions": [24, 1600, "v", 12000], "trial": 6, "serialpos": 14, "trial_type": "single-stim", "trial_index": 251, "time_elapsed": 1187998, "internal_node_id": "0.0-188.0"}}, {"uniqueid": "MTK0598:34S9DKFK74W4YV94ICCBZZA2KPOYNQ", "current_trial": 252, "dateTime": 1511559519716, "trialdata": {"rt": -1, "stimulus": "<p id=\"stim\">FIREPLACE</p>", "key_press": -1, "type": "PRES_VIS", "word": "fireplace", "wordID": 569, "conditions": [24, 1600, "v", 12000], "trial": 6, "serialpos": 15, "trial_type": "single-stim", "trial_index": 252, "time_elapsed": 1190514, "internal_node_id": "0.0-189.0"}}, {"uniqueid": "MTK0598:34S9DKFK74W4YV94ICCBZZA2KPOYNQ", "current_trial": 253, "dateTime": 1511559522460, "trialdata": {"rt": -1, "stimulus": "<p id=\"stim\">JELLO</p>", "key_press": -1, "type": "PRES_VIS", "word": "jello", "wordID": 753, "conditions": [24, 1600, "v", 12000], "trial": 6, "serialpos": 16, "trial_type": "single-stim", "trial_index": 253, "time_elapsed": 1193258, "internal_node_id": "0.0-190.0"}}, {"uniqueid": "MTK0598:34S9DKFK74W4YV94ICCBZZA2KPOYNQ", "current_trial": 254, "dateTime": 1511559524947, "trialdata": {"rt": -1, "stimulus": "<p id=\"stim\">SEAL</p>", "key_press": -1, "type": "PRES_VIS", "word": "seal", "wordID": 1261, "conditions": [24, 1600, "v", 12000], "trial": 6, "serialpos": 17, "trial_type": "single-stim", "trial_index": 254, "time_elapsed": 1195745, "internal_node_id": "0.0-191.0"}}, {"uniqueid": "MTK0598:34S9DKFK74W4YV94ICCBZZA2KPOYNQ", "current_trial": 255, "dateTime": 1511559527671, "trialdata": {"rt": -1, "stimulus": "<p id=\"stim\">CRICKET</p>", "key_press": -1, "type": "PRES_VIS", "word": "cricket", "wordID": 407, "conditions": [24, 1600, "v", 12000], "trial": 6, "serialpos": 18, "trial_type": "single-stim", "trial_index": 255, "time_elapsed": 1198469, "internal_node_id": "0.0-192.0"}}, {"uniqueid": "MTK0598:34S9DKFK74W4YV94ICCBZZA2KPOYNQ", "current_trial": 256, "dateTime": 1511559530078, "trialdata": {"rt": -1, "stimulus": "<p id=\"stim\">RAZOR</p>", "key_press": -1, "type": "PRES_VIS", "word": "razor", "wordID": 1170, "conditions": [24, 1600, "v", 12000], "trial": 6, "serialpos": 19, "trial_type": "single-stim", "trial_index": 256, "time_elapsed": 1200876, "internal_node_id": "0.0-193.0"}}, {"uniqueid": "MTK0598:34S9DKFK74W4YV94ICCBZZA2KPOYNQ", "current_trial": 257, "dateTime": 1511559532836, "trialdata": {"rt": -1, "stimulus": "<p id=\"stim\">BLADE</p>", "key_press": -1, "type": "PRES_VIS", "word": "blade", "wordID": 133, "conditions": [24, 1600, "v", 12000], "trial": 6, "serialpos": 20, "trial_type": "single-stim", "trial_index": 257, "time_elapsed": 1203634, "internal_node_id": "0.0-194.0"}}, {"uniqueid": "MTK0598:34S9DKFK74W4YV94ICCBZZA2KPOYNQ", "current_trial": 258, "dateTime": 1511559535491, "trialdata": {"rt": -1, "stimulus": "<p id=\"stim\">DRAGON</p>", "key_press": -1, "type": "PRES_VIS", "word": "dragon", "wordID": 491, "conditions": [24, 1600, "v", 12000], "trial": 6, "serialpos": 21, "trial_type": "single-stim", "trial_index": 258, "time_elapsed": 1206289, "internal_node_id": "0.0-195.0"}}, {"uniqueid": "MTK0598:34S9DKFK74W4YV94ICCBZZA2KPOYNQ", "current_trial": 259, "dateTime": 1511559538072, "trialdata": {"rt": -1, "stimulus": "<p id=\"stim\">FRECKLE</p>", "key_press": -1, "type": "PRES_VIS", "word": "freckle", "wordID": 601, "conditions": [24, 1600, "v", 12000], "trial": 6, "serialpos": 22, "trial_type": "single-stim", "trial_index": 259, "time_elapsed": 1208870, "internal_node_id": "0.0-196.0"}}, {"uniqueid": "MTK0598:34S9DKFK74W4YV94ICCBZZA2KPOYNQ", "current_trial": 260, "dateTime": 1511559540589, "trialdata": {"rt": -1, "stimulus": "<p id=\"stim\">KETCHUP</p>", "key_press": -1, "type": "PRES_VIS", "word": "ketchup", "wordID": 770, "conditions": [24, 1600, "v", 12000], "trial": 6, "serialpos": 23, "trial_type": "single-stim", "trial_index": 260, "time_elapsed": 1211387, "internal_node_id": "0.0-197.0"}}, {"uniqueid": "MTK0598:34S9DKFK74W4YV94ICCBZZA2KPOYNQ", "current_trial": 261, "dateTime": 1511559542736, "trialdata": {"rt": -1, "stimulus": "", "key_press": -1, "type": "PRE_RECALL_DELAY", "trial_type": "single-stim", "trial_index": 261, "time_elapsed": 1213534, "internal_node_id": "0.0-198.0-0.0"}}, {"uniqueid": "MTK0598:34S9DKFK74W4YV94ICCBZZA2KPOYNQ", "current_trial": 262, "dateTime": 1511559543237, "trialdata": {"rt": -1000, "stimulus": "/static/audio/400Hz.wav", "key_press": -1, "type": "PRE_RECALL_ALERT", "trial_type": "single-audio", "trial_index": 262, "time_elapsed": 1214035, "internal_node_id": "0.0-199.0"}}, {"uniqueid": "MTK0598:34S9DKFK74W4YV94ICCBZZA2KPOYNQ", "current_trial": 263, "dateTime": 1511559603261, "trialdata": {"rt": [4506, 6577, 8510, 11352, 13709, 15847, 18609, 21977, 26211, 28691, 30498, 34016, 36851, 39312, 41982, 43819, 45335, 48342, 52680, 55811, 57705], "recwords": ["dresser", "cottage", "passage", "missle", "rocket", "jury", "scarf", "dentist", "pimple", "dress", "motel", "jelly", "london", "milk", "fireplace", "jello", "seal", "cricket", "razor", "blade", "dragon"], "type": "FREE_RECALL", "conditions": [24, 1600, "v", 12000], "trial": 6, "trial_type": "free-recall", "trial_index": 263, "time_elapsed": 1274041, "internal_node_id": "0.0-200.0-0.0"}}, {"uniqueid": "MTK0598:34S9DKFK74W4YV94ICCBZZA2KPOYNQ", "current_trial": 264, "dateTime": 1511559613550, "trialdata": {"rt": 8288, "key_press": 32, "type": "INSTRUCTIONS", "trial_type": "text", "trial_index": 264, "time_elapsed": 1284348, "internal_node_id": "0.0-201.0"}}, {"uniqueid": "MTK0598:34S9DKFK74W4YV94ICCBZZA2KPOYNQ", "current_trial": 265, "dateTime": 1511559627553, "trialdata": {"rt": [2942, 7012, 11266], "responses": ["12", "13", "24"], "num1": [5, 2, 9, 4], "num2": [3, 2, 8, 3], "num3": [4, 9, 7, 3], "type": "DISTRACTOR", "conditions": [24, 800, "v", 12000], "trial": 7, "trial_type": "math-distractor", "trial_index": 265, "time_elapsed": 1298350, "internal_node_id": "0.0-202.0"}}, {"uniqueid": "MTK0598:34S9DKFK74W4YV94ICCBZZA2KPOYNQ", "current_trial": 266, "dateTime": 1511559630553, "trialdata": {"rt": -1, "stimulus": "<p id=\"stim\">10</p>", "key_press": -1, "trial_type": "single-stim", "trial_index": 266, "time_elapsed": 1301351, "internal_node_id": "0.0-203.0-0.0"}}, {"uniqueid": "MTK0598:34S9DKF