{"condition": 0, "counterbalance": 654, "assignmentId": "3PDJHANYK6NA5FDN9VM6BOTD194H6W", "workerId": "MTK0782", "hitId": "3R15W654VD03E9H3PNA0K17R2LKLQW", "currenttrial": 626, "bonus": 0, "data": [{"uniqueid": "MTK0782:3PDJHANYK6NA5FDN9VM6BOTD194H6W", "current_trial": 0, "dateTime": 1512751218343, "trialdata": {"rt": 1976, "key_press": 74, "type": "INSTRUCTIONS", "trial_type": "text", "trial_index": 0, "time_elapsed": 1991, "internal_node_id": "0.0-0.0"}}, {"uniqueid": "MTK0782:3PDJHANYK6NA5FDN9VM6BOTD194H6W", "current_trial": 1, "dateTime": 1512751219719, "trialdata": {"rt": 1357, "key_press": 74, "type": "INSTRUCTIONS", "trial_type": "text", "trial_index": 1, "time_elapsed": 3382, "internal_node_id": "0.0-1.0"}}, {"uniqueid": "MTK0782:3PDJHANYK6NA5FDN9VM6BOTD194H6W", "current_trial": 2, "dateTime": 1512751225005, "trialdata": {"rt": [5245], "responses": ["ocean"], "type": "AUDIO_TEST", "trial_type": "audio-test", "trial_index": 2, "time_elapsed": 8669, "internal_node_id": "0.0-2.0"}}, {"uniqueid": "MTK0782:3PDJHANYK6NA5FDN9VM6BOTD194H6W", "current_trial": 3, "dateTime": 1512751229815, "trialdata": {"rt": [4810], "responses": ["crystal"], "type": "AUDIO_TEST", "trial_type": "audio-test", "trial_index": 3, "time_elapsed": 13479, "internal_node_id": "0.0-3.0"}}, {"uniqueid": "MTK0782:3PDJHANYK6NA5FDN9VM6BOTD194H6W", "current_trial": 4, "dateTime": 1512751233963, "trialdata": {"rt": [4117], "responses": ["spice"], "type": "AUDIO_TEST", "trial_type": "audio-test", "trial_index": 4, "time_elapsed": 17627, "internal_node_id": "0.0-4.0"}}, {"uniqueid": "MTK0782:3PDJHANYK6NA5FDN9VM6BOTD194H6W", "current_trial": 5, "dateTime": 1512751244942, "trialdata": {"rt": 10222, "responses": "{\"Q0\":\"12 am\",\"Q1\":\"7 am\",\"Q2\":\"5\"}", "type": "SLEEP_SURVEY", "trial_type": "survey-text", "trial_index": 5, "time_elapsed": 28605, "internal_node_id": "0.0-5.0"}}, {"uniqueid": "MTK0782:3PDJHANYK6NA5FDN9VM6BOTD194H6W", "current_trial": 6, "dateTime": 1512751253369, "trialdata": {"rt": 7423, "key_press": 32, "type": "INSTRUCTIONS", "trial_type": "text", "trial_index": 6, "time_elapsed": 37033, "internal_node_id": "0.0-6.0"}}, {"uniqueid": "MTK0782:3PDJHANYK6NA5FDN9VM6BOTD194H6W", "current_trial": 7, "dateTime": 1512751264059, "trialdata": {"rt": 10187, "key_press": 32, "type": "INSTRUCTIONS", "trial_type": "text", "trial_index": 7, "time_elapsed": 47722, "internal_node_id": "0.0-7.0"}}, {"uniqueid": "MTK0782:3PDJHANYK6NA5FDN9VM6BOTD194H6W", "current_trial": 8, "dateTime": 1512751269596, "trialdata": {"rt": 5033, "key_press": 32, "type": "INSTRUCTIONS", "trial_type": "text", "trial_index": 8, "time_elapsed": 53260, "internal_node_id": "0.0-8.0"}}, {"uniqueid": "MTK0782:3PDJHANYK6NA5FDN9VM6BOTD194H6W", "current_trial": 9, "dateTime": 1512751288653, "trialdata": {"rt": [2652, 7064, 9859, 11676, 15884], "responses": ["14", "23", "13", "9", "22"], "num1": [7, 8, 3, 4, 5, 6], "num2": [3, 9, 7, 4, 8, 2], "num3": [4, 7, 3, 1, 9, 4], "type": "DISTRACTOR", "conditions": [18, 1200, "v", 18000], "trial": 0, "trial_type": "math-distractor", "trial_index": 9, "time_elapsed": 72316, "internal_node_id": "0.0-9.0"}}, {"uniqueid": "MTK0782:3PDJHANYK6NA5FDN9VM6BOTD194H6W", "current_trial": 10, "dateTime": 1512751291662, "trialdata": {"rt": -1, "stimulus": "<p id=\"stim\">10</p>", "key_press": -1, "trial_type": "single-stim", "trial_index": 10, "time_elapsed": 75325, "internal_node_id": "0.0-10.0-0.0"}}, {"uniqueid": "MTK0782:3PDJHANYK6NA5FDN9VM6BOTD194H6W", "current_trial": 11, "dateTime": 1512751292665, "trialdata": {"rt": -1, "stimulus": "<p id=\"stim\">9</p>", "key_press": -1, "trial_type": "single-stim", "trial_index": 11, "time_elapsed": 76329, "internal_node_id": "0.0-10.0-1.0"}}, {"uniqueid": "MTK0782:3PDJHANYK6NA5FDN9VM6BOTD194H6W", "current_trial": 12, "dateTime": 1512751293671, "trialdata": {"rt": -1, "stimulus": "<p id=\"stim\">8</p>", "key_press": -1, "trial_type": "single-stim", "trial_index": 12, "time_elapsed": 77335, "internal_node_id": "0.0-10.0-2.0"}}, {"uniqueid": "MTK0782:3PDJHANYK6NA5FDN9VM6BOTD194H6W", "current_trial": 13, "dateTime": 1512751294680, "trialdata": {"rt": -1, "stimulus": "<p id=\"stim\">7</p>", "key_press": -1, "trial_type": "single-stim", "trial_index": 13, "time_elapsed": 78344, "internal_node_id": "0.0-10.0-3.0"}}, {"uniqueid": "MTK0782:3PDJHANYK6NA5FDN9VM6BOTD194H6W", "current_trial": 14, "dateTime": 1512751295686, "trialdata": {"rt": -1, "stimulus": "<p id=\"stim\">6</p>", "key_press": -1, "trial_type": "single-stim", "trial_index": 14, "time_elapsed": 79350, "internal_node_id": "0.0-10.0-4.0"}}, {"uniqueid": "MTK0782:3PDJHANYK6NA5FDN9VM6BOTD194H6W", "current_trial": 15, "dateTime": 1512751296692, "trialdata": {"rt": -1, "stimulus": "<p id=\"stim\">5</p>", "key_press": -1, "trial_type": "single-stim", "trial_index": 15, "time_elapsed": 80355, "internal_node_id": "0.0-10.0-5.0"}}, {"uniqueid": "MTK0782:3PDJHANYK6NA5FDN9VM6BOTD194H6W", "current_trial": 16, "dateTime": 1512751297700, "trialdata": {"rt": -1, "stimulus": "<p id=\"stim\">4</p>", "key_press": -1, "trial_type": "single-stim", "trial_index": 16, "time_elapsed": 81364, "internal_node_id": "0.0-10.0-6.0"}}, {"uniqueid": "MTK0782:3PDJHANYK6NA5FDN9VM6BOTD194H6W", "current_trial": 17, "dateTime": 1512751298721, "trialdata": {"rt": -1, "stimulus": "<p id=\"stim\">3</p>", "key_press": -1, "trial_type": "single-stim", "trial_index": 17, "time_elapsed": 82384, "internal_node_id": "0.0-10.0-7.0"}}, {"uniqueid": "MTK0782:3PDJHANYK6NA5FDN9VM6BOTD194H6W", "current_trial": 18, "dateTime": 1512751299723, "trialdata": {"rt": -1, "stimulus": "<p id=\"stim\">2</p>", "key_press": -1, "trial_type": "single-stim", "trial_index": 18, "time_elapsed": 83387, "internal_node_id": "0.0-10.0-8.0"}}, {"uniqueid": "MTK0782:3PDJHANYK6NA5FDN9VM6BOTD194H6W", "current_trial": 19, "dateTime": 1512751300725, "trialdata": {"rt": -1, "stimulus": "<p id=\"stim\">1</p>", "key_press": -1, "trial_type": "single-stim", "trial_index": 19, "time_elapsed": 84389, "internal_node_id": "0.0-10.0-9.0"}}, {"uniqueid": "MTK0782:3PDJHANYK6NA5FDN9VM6BOTD194H6W", "current_trial": 20, "dateTime": 1512751302231, "trialdata": {"rt": -1, "stimulus": "<p id=\"stim\">+</p>", "key_press": -1, "type": "FIXATION", "trial_type": "single-stim", "trial_index": 20, "time_elapsed": 85894, "internal_node_id": "0.0-11.0-0.0"}}, {"uniqueid": "MTK0782:3PDJHANYK6NA5FDN9VM6BOTD194H6W", "current_trial": 21, "dateTime": 1512751303437, "trialdata": {"rt": -1, "stimulus": "<p id=\"stim\">JELLY</p>", "key_press": -1, "type": "PRES_VIS", "word": "jelly", "wordID": 754, "conditions": [18, 1200, "v", 18000], "trial": 0, "serialpos": 0, "trial_type": "single-stim", "trial_index": 21, "time_elapsed": 87100, "internal_node_id": "0.0-12.0"}}, {"uniqueid": "MTK0782:3PDJHANYK6NA5FDN9VM6BOTD194H6W", "current_trial": 22, "dateTime": 1512751305565, "trialdata": {"rt": -1, "stimulus": "<p id=\"stim\">DONOR</p>", "key_press": -1, "type": "PRES_VIS", "word": "donor", "wordID": 484, "conditions": [18, 1200, "v", 18000], "trial": 0, "serialpos": 1, "trial_type": "single-stim", "trial_index": 22, "time_elapsed": 89229, "internal_node_id": "0.0-13.0"}}, {"uniqueid": "MTK0782:3PDJHANYK6NA5FDN9VM6BOTD194H6W", "current_trial": 23, "dateTime": 1512751307596, "trialdata": {"rt": -1, "stimulus": "<p id=\"stim\">COUCH</p>", "key_press": -1, "type": "PRES_VIS", "word": "couch", "wordID": 385, "conditions": [18, 1200, "v", 18000], "trial": 0, "serialpos": 2, "trial_type": "single-stim", "trial_index": 23, "time_elapsed": 91260, "internal_node_id": "0.0-14.0"}}, {"uniqueid": "MTK0782:3PDJHANYK6NA5FDN9VM6BOTD194H6W", "current_trial": 24, "dateTime": 1512751309982, "trialdata": {"rt": -1, "stimulus": "<p id=\"stim\">BROTHER</p>", "key_press": -1, "type": "PRES_VIS", "word": "brother", "wordID": 178, "conditions": [18, 1200, "v", 18000], "trial": 0, "serialpos": 3, "trial_type": "single-stim", "trial_index": 24, "time_elapsed": 93642, "internal_node_id": "0.0-15.0"}}, {"uniqueid": "MTK0782:3PDJHANYK6NA5FDN9VM6BOTD194H6W", "current_trial": 25, "dateTime": 1512751312036, "trialdata": {"rt": -1, "stimulus": "<p id=\"stim\">SNACK</p>", "key_press": -1, "type": "PRES_VIS", "word": "snack", "wordID": 1330, "conditions": [18, 1200, "v", 18000], "trial": 0, "serialpos": 4, "trial_type": "single-stim", "trial_index": 25, "time_elapsed": 95700, "internal_node_id": "0.0-16.0"}}, {"uniqueid": "MTK0782:3PDJHANYK6NA5FDN9VM6BOTD194H6W", "current_trial": 26, "dateTime": 1512751314247, "trialdata": {"rt": -1, "stimulus": "<p id=\"stim\">CREATURE</p>", "key_press": -1, "type": "PRES_VIS", "word": "creature", "wordID": 402, "conditions": [18, 1200, "v", 18000], "trial": 0, "serialpos": 5, "trial_type": "single-stim", "trial_index": 26, "time_elapsed": 97911, "internal_node_id": "0.0-17.0"}}, {"uniqueid": "MTK0782:3PDJHANYK6NA5FDN9VM6BOTD194H6W", "current_trial": 27, "dateTime": 1512751316575, "trialdata": {"rt": -1, "stimulus": "<p id=\"stim\">FLESH</p>", "key_press": -1, "type": "PRES_VIS", "word": "flesh", "wordID": 578, "conditions": [18, 1200, "v", 18000], "trial": 0, "serialpos": 6, "trial_type": "single-stim", "trial_index": 27, "time_elapsed": 100239, "internal_node_id": "0.0-18.0"}}, {"uniqueid": "MTK0782:3PDJHANYK6NA5FDN9VM6BOTD194H6W", "current_trial": 28, "dateTime": 1512751318721, "trialdata": {"rt": -1, "stimulus": "<p id=\"stim\">FLEET</p>", "key_press": -1, "type": "PRES_VIS", "word": "fleet", "wordID": 577, "conditions": [18, 1200, "v", 18000], "trial": 0, "serialpos": 7, "trial_type": "single-stim", "trial_index": 28, "time_elapsed": 102385, "internal_node_id": "0.0-19.0"}}, {"uniqueid": "MTK0782:3PDJHANYK6NA5FDN9VM6BOTD194H6W", "current_trial": 29, "dateTime": 1512751320820, "trialdata": {"rt": -1, "stimulus": "<p id=\"stim\">MESSAGE</p>", "key_press": -1, "type": "PRES_VIS", "word": "message", "wordID": 887, "conditions": [18, 1200, "v", 18000], "trial": 0, "serialpos": 8, "trial_type": "single-stim", "trial_index": 29, "time_elapsed": 104484, "internal_node_id": "0.0-20.0"}}, {"uniqueid": "MTK0782:3PDJHANYK6NA5FDN9VM6BOTD194H6W", "current_trial": 30, "dateTime": 1512751323134, "trialdata": {"rt": -1, "stimulus": "<p id=\"stim\">HATCHET</p>", "key_press": -1, "type": "PRES_VIS", "word": "hatchet", "wordID": 690, "conditions": [18, 1200, "v", 18000], "trial": 0, "serialpos": 9, "trial_type": "single-stim", "trial_index": 30, "time_elapsed": 106798, "internal_node_id": "0.0-21.0"}}, {"uniqueid": "MTK0782:3PDJHANYK6NA5FDN9VM6BOTD194H6W", "current_trial": 31, "dateTime": 1512751325430, "trialdata": {"rt": -1, "stimulus": "<p id=\"stim\">NOTEBOOK</p>", "key_press": -1, "type": "PRES_VIS", "word": "notebook", "wordID": 958, "conditions": [18, 1200, "v", 18000], "trial": 0, "serialpos": 10, "trial_type": "single-stim", "trial_index": 31, "time_elapsed": 109093, "internal_node_id": "0.0-22.0"}}, {"uniqueid": "MTK0782:3PDJHANYK6NA5FDN9VM6BOTD194H6W", "current_trial": 32, "dateTime": 1512751327602, "trialdata": {"rt": -1, "stimulus": "<p id=\"stim\">GLASS</p>", "key_press": -1, "type": "PRES_VIS", "word": "glass", "wordID": 638, "conditions": [18, 1200, "v", 18000], "trial": 0, "serialpos": 11, "trial_type": "single-stim", "trial_index": 32, "time_elapsed": 111266, "internal_node_id": "0.0-23.0"}}, {"uniqueid": "MTK0782:3PDJHANYK6NA5FDN9VM6BOTD194H6W", "current_trial": 33, "dateTime": 1512751329979, "trialdata": {"rt": -1, "stimulus": "<p id=\"stim\">SWITCH</p>", "key_press": -1, "type": "PRES_VIS", "word": "switch", "wordID": 1421, "conditions": [18, 1200, "v", 18000], "trial": 0, "serialpos": 12, "trial_type": "single-stim", "trial_index": 33, "time_elapsed": 113642, "internal_node_id": "0.0-24.0"}}, {"uniqueid": "MTK0782:3PDJHANYK6NA5FDN9VM6BOTD194H6W", "current_trial": 34, "dateTime": 1512751332293, "trialdata": {"rt": -1, "stimulus": "<p id=\"stim\">GRAVE</p>", "key_press": -1, "type": "PRES_VIS", "word": "grave", "wordID": 657, "conditions": [18, 1200, "v", 18000], "trial": 0, "serialpos": 13, "trial_type": "single-stim", "trial_index": 34, "time_elapsed": 115956, "internal_node_id": "0.0-25.0"}}, {"uniqueid": "MTK0782:3PDJHANYK6NA5FDN9VM6BOTD194H6W", "current_trial": 35, "dateTime": 1512751334443, "trialdata": {"rt": -1, "stimulus": "<p id=\"stim\">SCARF</p>", "key_press": -1, "type": "PRES_VIS", "word": "scarf", "wordID": 1245, "conditions": [18, 1200, "v", 18000], "trial": 0, "serialpos": 14, "trial_type": "single-stim", "trial_index": 35, "time_elapsed": 118106, "internal_node_id": "0.0-26.0"}}, {"uniqueid": "MTK0782:3PDJHANYK6NA5FDN9VM6BOTD194H6W", "current_trial": 36, "dateTime": 1512751336791, "trialdata": {"rt": -1, "stimulus": "<p id=\"stim\">NIGHTGOWN</p>", "key_press": -1, "type": "PRES_VIS", "word": "nightgown", "wordID": 952, "conditions": [18, 1200, "v", 18000], "trial": 0, "serialpos": 15, "trial_type": "single-stim", "trial_index": 36, "time_elapsed": 120455, "internal_node_id": "0.0-27.0"}}, {"uniqueid": "MTK0782:3PDJHANYK6NA5FDN9VM6BOTD194H6W", "current_trial": 37, "dateTime": 1512751338861, "trialdata": {"rt": -1, "stimulus": "<p id=\"stim\">POSTAGE</p>", "key_press": -1, "type": "PRES_VIS", "word": "postage", "wordID": 1112, "conditions": [18, 1200, "v", 18000], "trial": 0, "serialpos": 16, "trial_type": "single-stim", "trial_index": 37, "time_elapsed": 122525, "internal_node_id": "0.0-28.0"}}, {"uniqueid": "MTK0782:3PDJHANYK6NA5FDN9VM6BOTD194H6W", "current_trial": 38, "dateTime": 1512751340926, "trialdata": {"rt": -1, "stimulus": "<p id=\"stim\">SIBLING</p>", "key_press": -1, "type": "PRES_VIS", "word": "sibling", "wordID": 1300, "conditions": [18, 1200, "v", 18000], "trial": 0, "serialpos": 17, "trial_type": "single-stim", "trial_index": 38, "time_elapsed": 124590, "internal_node_id": "0.0-29.0"}}, {"uniqueid": "MTK0782:3PDJHANYK6NA5FDN9VM6BOTD194H6W", "current_trial": 39, "dateTime": 1512751343232, "trialdata": {"rt": -1, "stimulus": "", "key_press": -1, "type": "PRE_RECALL_DELAY", "trial_type": "single-stim", "trial_index": 39, "time_elapsed": 126896, "internal_node_id": "0.0-30.0-0.0"}}, {"uniqueid": "MTK0782:3PDJHANYK6NA5FDN9VM6BOTD194H6W", "current_trial": 40, "dateTime": 1512751343742, "trialdata": {"rt": -1000, "stimulus": "/static/audio/400Hz.wav", "key_press": -1, "type": "PRE_RECALL_ALERT", "trial_type": "single-audio", "trial_index": 40, "time_elapsed": 127406, "internal_node_id": "0.0-31.0"}}, {"uniqueid": "MTK0782:3PDJHANYK6NA5FDN9VM6BOTD194H6W", "current_trial": 41, "dateTime": 1512751403761, "trialdata": {"rt": [2695, 4693, 6051, 7548, 8560, 9867, 11032, 13985, 16385, 16810, 17157, 17423, 17657, 17892, 18123, 18316, 18534, 18724, 18895, 19082, 19242, 19428, 19616, 19803, 21858, 29858, 30850, 31532, 33017, 33636, 33912, 34127, 34639, 34644, 34983, 35412, 35678, 35902, 36121, 36338, 36569, 36788, 37006, 37219, 37436, 37642, 37858, 38068, 38281, 40953, 48542, 48753, 48929, 49109, 49297, 49489, 49665, 49835, 50023, 50203, 50388, 50570, 50755, 50938, 51125, 51307, 51486, 51663, 51847, 52029, 52209, 52394, 52574, 52753, 52936, 53114, 54369, 55349, 55646, 55850, 56052, 56257, 56460, 56676, 56893, 57098, 57594, 57599, 57714, 57910, 58124, 58326, 58512, 58723, 58921, 59114, 59313, 59513, 59704, 59890], "recwords": ["jelly", "donor", "cash", "brother", "grave", "", "", "brother", "", "", "", "", "", "", "", "", "", "", "", "", "", "", "", "", "grave", "na", "na", "na", "na", "x", "x", "x", "x", "x", "x", "x", "x", "x", "x", "x", "x", "x", "x", "x", "x", "x", "x", "x", "x", "donor", "x", "x", "x", "x", "x", "x", "x", "x", "x", "x", "x", "x", "x", "x", "x", "x", "x", "x", "x", "x", "x", "x", "x", "x", "x", "x", "x", "x", "x", "x", "x", "x", "x", "x", "x", "x", "x", "x", "x", "x", "x", "x", "x", "x", "x", "x", "x", "x", "x", "x"], "type": "FREE_RECALL", "conditions": [18, 1200, "v", 18000], "trial": 0, "trial_type": "free-recall", "trial_index": 41, "time_elapsed": 187417, "internal_node_id": "0.0-32.0-0.0"}}, {"uniqueid": "MTK0782:3PDJHANYK6NA5FDN9VM6BOTD194H6W", "current_trial": 42, "dateTime": 1512751407151, "trialdata": {"rt": 1387, "key_press": 74, "type": "INSTRUCTIONS", "trial_type": "text", "trial_index": 42, "time_elapsed": 190814, "internal_node_id": "0.0-33.0"}}, {"uniqueid": "MTK0782:3PDJHANYK6NA5FDN9VM6BOTD194H6W", "current_trial": 43, "dateTime": 1512751427163, "trialdata": {"rt": [3713, 6830, 8858, 11489, 13413, 15433, 17631], "responses": ["6", "19", "20", "25", "6", "6", "14"], "num1": [2, 4, 8, 8, 1, 2, 9, 5], "num2": [1, 8, 7, 9, 3, 4, 2, 3], "num3": [3, 7, 5, 7, 2, 5, 3, 6], "type": "DISTRACTOR", "conditions": [18, 1200, "a", 18000], "trial": 1, "trial_type": "math-distractor", "trial_index": 43, "time_elapsed": 210826, "internal_node_id": "0.0-34.0"}}, {"uniqueid": "MTK0782:3PDJHANYK6NA5FDN9VM6BOTD194H6W", "current_trial": 44, "dateTime": 1512751430168, "trialdata": {"rt": -1, "stimulus": "<p id=\"stim\">10</p>", "key_press": -1, "trial_type": "single-stim", "trial_index": 44, "time_elapsed": 213832, "internal_node_id": "0.0-35.0-0.0"}}, {"uniqueid": "MTK0782:3PDJHANYK6NA5FDN9VM6BOTD194H6W", "current_trial": 45, "dateTime": 1512751431177, "trialdata": {"rt": -1, "stimulus": "<p id=\"stim\">9</p>", "key_press": -1, "trial_type": "single-stim", "trial_index": 45, "time_elapsed": 214841, "internal_node_id": "0.0-35.0-1.0"}}, {"uniqueid": "MTK0782:3PDJHANYK6NA5FDN9VM6BOTD194H6W", "current_trial": 46, "dateTime": 1512751432181, "trialdata": {"rt": -1, "stimulus": "<p id=\"stim\">8</p>", "key_press": -1, "trial_type": "single-stim", "trial_index": 46, "time_elapsed": 215845, "internal_node_id": "0.0-35.0-2.0"}}, {"uniqueid": "MTK0782:3PDJHANYK6NA5FDN9VM6BOTD194H6W", "current_trial": 47, "dateTime": 1512751433188, "trialdata": {"rt": -1, "stimulus": "<p id=\"stim\">7</p>", "key_press": -1, "trial_type": "single-stim", "trial_index": 47, "time_elapsed": 216852, "internal_node_id": "0.0-35.0-3.0"}}, {"uniqueid": "MTK0782:3PDJHANYK6NA5FDN9VM6BOTD194H6W", "current_trial": 48, "dateTime": 1512751434195, "trialdata": {"rt": -1, "stimulus": "<p id=\"stim\">6</p>", "key_press": -1, "trial_type": "single-stim", "trial_index": 48, "time_elapsed": 217858, "internal_node_id": "0.0-35.0-4.0"}}, {"uniqueid": "MTK0782:3PDJHANYK6NA5FDN9VM6BOTD194H6W", "current_trial": 49, "dateTime": 1512751435197, "trialdata": {"rt": -1, "stimulus": "<p id=\"stim\">5</p>", "key_press": -1, "trial_type": "single-stim", "trial_index": 49, "time_elapsed": 218861, "internal_node_id": "0.0-35.0-5.0"}}, {"uniqueid": "MTK0782:3PDJHANYK6NA5FDN9VM6BOTD194H6W", "current_trial": 50, "dateTime": 1512751436200, "trialdata": {"rt": -1, "stimulus": "<p id=\"stim\">4</p>", "key_press": -1, "trial_type": "single-stim", "trial_index": 50, "time_elapsed": 219864, "internal_node_id": "0.0-35.0-6.0"}}, {"uniqueid": "MTK0782:3PDJHANYK6NA5FDN9VM6BOTD194H6W", "current_trial": 51, "dateTime": 1512751437203, "trialdata": {"rt": -1, "stimulus": "<p id=\"stim\">3</p>", "key_press": -1, "trial_type": "single-stim", "trial_index": 51, "time_elapsed": 220867, "internal_node_id": "0.0-35.0-7.0"}}, {"uniqueid": "MTK0782:3PDJHANYK6NA5FDN9VM6BOTD194H6W", "current_trial": 52, "dateTime": 1512751438208, "trialdata": {"rt": -1, "stimulus": "<p id=\"stim\">2</p>", "key_press": -1, "trial_type": "single-stim", "trial_index": 52, "time_elapsed": 221871, "internal_node_id": "0.0-35.0-8.0"}}, {"uniqueid": "MTK0782:3PDJHANYK6NA5FDN9VM6BOTD194H6W", "current_trial": 53, "dateTime": 1512751439214, "trialdata": {"rt": -1, "stimulus": "<p id=\"stim\">1</p>", "key_press": -1, "trial_type": "single-stim", "trial_index": 53, "time_elapsed": 222877, "internal_node_id": "0.0-35.0-9.0"}}, {"uniqueid": "MTK0782:3PDJHANYK6NA5FDN9VM6BOTD194H6W", "current_trial": 54, "dateTime": 1512751440715, "trialdata": {"rt": -1, "stimulus": "<p id=\"stim\">+</p>", "key_press": -1, "type": "FIXATION", "trial_type": "single-stim", "trial_index": 54, "time_elapsed": 224379, "internal_node_id": "0.0-36.0-0.0"}}, {"uniqueid": "MTK0782:3PDJHANYK6NA5FDN9VM6BOTD194H6W", "current_trial": 55, "dateTime": 1512751442837, "trialdata": {"rt": -1000, "stimulus": "/static/audio/wordpool/TERMITE.wav", "key_press": -1, "type": "PRES_AUD", "word": "termite", "wordID": 1450, "conditions": [18, 1200, "a", 18000], "trial": 1, "serialpos": 0, "trial_type": "single-audio", "trial_index": 55, "time_elapsed": 226501, "internal_node_id": "0.0-37.0"}}, {"uniqueid": "MTK0782:3PDJHANYK6NA5FDN9VM6BOTD194H6W", "current_trial": 56, "dateTime": 1512751445133, "trialdata": {"rt": -1000, "stimulus": "/static/audio/wordpool/JUNGLE.wav", "key_press": -1, "type": "PRES_AUD", "word": "jungle", "wordID": 763, "conditions": [18, 1200, "a", 18000], "trial": 1, "serialpos": 1, "trial_type": "single-audio", "trial_index": 56, "time_elapsed": 228797, "internal_node_id": "0.0-38.0"}}, {"uniqueid": "MTK0782:3PDJHANYK6NA5FDN9VM6BOTD194H6W", "current_trial": 57, "dateTime": 1512751447508, "trialdata": {"rt": -1000, "stimulus": "/static/audio/wordpool/COCOON.wav", "key_press": -1, "type": "PRES_AUD", "word": "cocoon", "wordID": 338, "conditions": [18, 1200, "a", 18000], "trial": 1, "serialpos": 2, "trial_type": "single-audio", "trial_index": 57, "time_elapsed": 231172, "internal_node_id": "0.0-39.0"}}, {"uniqueid": "MTK0782:3PDJHANYK6NA5FDN9VM6BOTD194H6W", "current_trial": 58, "dateTime": 1512751449868, "trialdata": {"rt": -1000, "stimulus": "/static/audio/wordpool/DUST.wav", "key_press": -1, "type": "PRES_AUD", "word": "dust", "wordID": 507, "conditions": [18, 1200, "a", 18000], "trial": 1, "serialpos": 3, "trial_type": "single-audio", "trial_index": 58, "time_elapsed": 233532, "internal_node_id": "0.0-40.0"}}, {"uniqueid": "MTK0782:3PDJHANYK6NA5FDN9VM6BOTD194H6W", "current_trial": 59, "dateTime": 1512751452211, "trialdata": {"rt": -1000, "stimulus": "/static/audio/wordpool/TWISTER.wav", "key_press": -1, "type": "PRES_AUD", "word": "twister", "wordID": 1529, "conditions": [18, 1200, "a", 18000], "trial": 1, "serialpos": 4, "trial_type": "single-audio", "trial_index": 59, "time_elapsed": 235875, "internal_node_id": "0.0-41.0"}}, {"uniqueid": "MTK0782:3PDJHANYK6NA5FDN9VM6BOTD194H6W", "current_trial": 60, "dateTime": 1512751454383, "trialdata": {"rt": -1000, "stimulus": "/static/audio/wordpool/FIREMAN.wav", "key_press": -1, "type": "PRES_AUD", "word": "fireman", "wordID": 568, "conditions": [18, 1200, "a", 18000], "trial": 1, "serialpos": 5, "trial_type": "single-audio", "trial_index": 60, "time_elapsed": 238047, "internal_node_id": "0.0-42.0"}}, {"uniqueid": "MTK0782:3PDJHANYK6NA5FDN9VM6BOTD194H6W", "current_trial": 61, "dateTime": 1512751456649, "trialdata": {"rt": -1000, "stimulus": "/static/audio/wordpool/AUTHOR.wav", "key_press": -1, "type": "PRES_AUD", "word": "author", "wordID": 60, "conditions": [18, 1200, "a", 18000], "trial": 1, "serialpos": 6, "trial_type": "single-audio", "trial_index": 61, "time_elapsed": 240313, "internal_node_id": "0.0-43.0"}}, {"uniqueid": "MTK0782:3PDJHANYK6NA5FDN9VM6BOTD194H6W", "current_trial": 62, "dateTime": 1512751458696, "trialdata": {"rt": -1000, "stimulus": "/static/audio/wordpool/ICEBERG.wav", "key_press": -1, "type": "PRES_AUD", "word": "iceberg", "wordID": 730, "conditions": [18, 1200, "a", 18000], "trial": 1, "serialpos": 7, "trial_type": "single-audio", "trial_index": 62, "time_elapsed": 242360, "internal_node_id": "0.0-44.0"}}, {"uniqueid": "MTK0782:3PDJHANYK6NA5FDN9VM6BOTD194H6W", "current_trial": 63, "dateTime": 1512751460721, "trialdata": {"rt": -1000, "stimulus": "/static/audio/wordpool/XEROX.wav", "key_press": -1, "type": "PRES_AUD", "word": "xerox", "wordID": 1627, "conditions": [18, 1200, "a", 18000], "trial": 1, "serialpos": 8, "trial_type": "single-audio", "trial_index": 63, "time_elapsed": 244385, "internal_node_id": "0.0-45.0"}}, {"uniqueid": "MTK0782:3PDJHANYK6NA5FDN9VM6BOTD194H6W", "current_trial": 64, "dateTime": 1512751462759, "trialdata": {"rt": -1000, "stimulus": "/static/audio/wordpool/HAMPER.wav", "key_press": -1, "type": "PRES_AUD", "word": "hamper", "wordID": 681, "conditions": [18, 1200, "a", 18000], "trial": 1, "serialpos": 9, "trial_type": "single-audio", "trial_index": 64, "time_elapsed": 246423, "internal_node_id": "0.0-46.0"}}, {"uniqueid": "MTK0782:3PDJHANYK6NA5FDN9VM6BOTD194H6W", "current_trial": 65, "dateTime": 1512751464994, "trialdata": {"rt": -1000, "stimulus": "/static/audio/wordpool/LEADER.wav", "key_press": -1, "type": "PRES_AUD", "word": "leader", "wordID": 806, "conditions": [18, 1200, "a", 18000], "trial": 1, "serialpos": 10, "trial_type": "single-audio", "trial_index": 65, "time_elapsed": 248658, "internal_node_id": "0.0-47.0"}}, {"uniqueid": "MTK0782:3PDJHANYK6NA5FDN9VM6BOTD194H6W", "current_trial": 66, "dateTime": 1512751467242, "trialdata": {"rt": -1000, "stimulus": "/static/audio/wordpool/DANCER.wav", "key_press": -1, "type": "PRES_AUD", "word": "dancer", "wordID": 436, "conditions": [18, 1200, "a", 18000], "trial": 1, "serialpos": 11, "trial_type": "single-audio", "trial_index": 66, "time_elapsed": 250906, "internal_node_id": "0.0-48.0"}}, {"uniqueid": "MTK0782:3PDJHANYK6NA5FDN9VM6BOTD194H6W", "current_trial": 67, "dateTime": 1512751469305, "trialdata": {"rt": -1000, "stimulus": "/static/audio/wordpool/CASHEW.wav", "key_press": -1, "type": "PRES_AUD", "word": "cashew", "wordID": 252, "conditions": [18, 1200, "a", 18000], "trial": 1, "serialpos": 12, "trial_type": "single-audio", "trial_index": 67, "time_elapsed": 252969, "internal_node_id": "0.0-49.0"}}, {"uniqueid": "MTK0782:3PDJHANYK6NA5FDN9VM6BOTD194H6W", "current_trial": 68, "dateTime": 1512751471694, "trialdata": {"rt": -1000, "stimulus": "/static/audio/wordpool/FILM.wav", "key_press": -1, "type": "PRES_AUD", "word": "film", "wordID": 564, "conditions": [18, 1200, "a", 18000], "trial": 1, "serialpos": 13, "trial_type": "single-audio", "trial_index": 68, "time_elapsed": 255358, "internal_node_id": "0.0-50.0"}}, {"uniqueid": "MTK0782:3PDJHANYK6NA5FDN9VM6BOTD194H6W", "current_trial": 69, "dateTime": 1512751473776, "trialdata": {"rt": -1000, "stimulus": "/static/audio/wordpool/SHELTER.wav", "key_press": -1, "type": "PRES_AUD", "word": "shelter", "wordID": 1281, "conditions": [18, 1200, "a", 18000], "trial": 1, "serialpos": 14, "trial_type": "single-audio", "trial_index": 69, "time_elapsed": 257440, "internal_node_id": "0.0-51.0"}}, {"uniqueid": "MTK0782:3PDJHANYK6NA5FDN9VM6BOTD194H6W", "current_trial": 70, "dateTime": 1512751475899, "trialdata": {"rt": -1000, "stimulus": "/static/audio/wordpool/BLUEPRINT.wav", "key_press": -1, "type": "PRES_AUD", "word": "blueprint", "wordID": 141, "conditions": [18, 1200, "a", 18000], "trial": 1, "serialpos": 15, "trial_type": "single-audio", "trial_index": 70, "time_elapsed": 259563, "internal_node_id": "0.0-52.0"}}, {"uniqueid": "MTK0782:3PDJHANYK6NA5FDN9VM6BOTD194H6W", "current_trial": 71, "dateTime": 1512751478054, "trialdata": {"rt": -1000, "stimulus": "/static/audio/wordpool/PORK.wav", "key_press": -1, "type": "PRES_AUD", "word": "pork", "wordID": 1107, "conditions": [18, 1200, "a", 18000], "trial": 1, "serialpos": 16, "trial_type": "single-audio", "trial_index": 71, "time_elapsed": 261718, "internal_node_id": "0.0-53.0"}}, {"uniqueid": "MTK0782:3PDJHANYK6NA5FDN9VM6BOTD194H6W", "current_trial": 72, "dateTime": 1512751480304, "trialdata": {"rt": -1000, "stimulus": "/static/audio/wordpool/RUST.wav", "key_press": -1, "type": "PRES_AUD", "word": "rust", "wordID": 1218, "conditions": [18, 1200, "a", 18000], "trial": 1, "serialpos": 17, "trial_type": "single-audio", "trial_index": 72, "time_elapsed": 263968, "internal_node_id": "0.0-54.0"}}, {"uniqueid": "MTK0782:3PDJHANYK6NA5FDN9VM6BOTD194H6W", "current_trial": 73, "dateTime": 1512751481617, "trialdata": {"rt": -1, "stimulus": "", "key_press": -1, "type": "PRE_RECALL_DELAY", "trial_type": "single-stim", "trial_index": 73, "time_elapsed": 265281, "internal_node_id": "0.0-55.0-0.0"}}, {"uniqueid": "MTK0782:3PDJHANYK6NA5FDN9VM6BOTD194H6W", "current_trial": 74, "dateTime": 1512751482132, "trialdata": {"rt": -1000, "stimulus": "/static/audio/400Hz.wav", "key_press": -1, "type": "PRE_RECALL_ALERT", "trial_type": "single-audio", "trial_index": 74, "time_elapsed": 265796, "internal_node_id": "0.0-56.0"}}, {"uniqueid": "MTK0782:3PDJHANYK6NA5FDN9VM6BOTD194H6W", "current_trial": 75, "dateTime": 1512751542160, "trialdata": {"rt": [3439, 5422, 6935, 7936, 8971, 12462], "recwords": ["jungle", "dust", "twister", "rust", "dust", "jungle"], "type": "FREE_RECALL", "conditions": [18, 1200, "a", 18000], "trial": 1, "trial_type": "free-recall", "trial_index": 75, "time_elapsed": 325805, "internal_node_id": "0.0-57.0-0.0"}}, {"uniqueid": "MTK0782:3PDJHANYK6NA5FDN9VM6BOTD194H6W", "current_trial": 76, "dateTime": 1512751546937, "trialdata": {"rt": 2762, "key_press": 74, "type": "INSTRUCTIONS", "trial_type": "text", "trial_index": 76, "time_elapsed": 330590, "internal_node_id": "0.0-58.0"}}, {"uniqueid": "MTK0782:3PDJHANYK6NA5FDN9VM6BOTD194H6W", "current_trial": 77, "dateTime": 1512751559948, "trialdata": {"rt": [2287, 4539, 6395, 9571, 11774], "responses": ["12", "10", "12", "21", "16"], "num1": [2, 3, 1, 5, 8, 5], "num2": [3, 6, 8, 8, 7, 6], "num3": [7, 1, 3, 9, 1, 7], "type": "DISTRACTOR", "conditions": [12, 1600, "a", 12000], "trial": 2, "trial_type": "math-distractor", "trial_index": 77, "time_elapsed": 343611, "internal_node_id": "0.0-59.0"}}, {"uniqueid": "MTK0782:3PDJHANYK6NA5FDN9VM6BOTD194H6W", "current_trial": 78, "dateTime": 1512751562950, "trialdata": {"rt": -1, "stimulus": "<p id=\"stim\">10</p>", "key_press": -1, "trial_type": "single-stim", "trial_index": 78, "time_elapsed": 346614, "internal_node_id": "0.0-60.0-0.0"}}, {"uniqueid": "MTK0782:3PDJHANYK6NA5FDN9VM6BOTD194H6W", "current_trial": 79, "dateTime": 1512751563954, "trialdata": {"rt": -1, "stimulus": "<p id=\"stim\">9</p>", "key_press": -1, "trial_type": "single-stim", "trial_index": 79, "time_elapsed": 347618, "internal_node_id": "0.0-60.0-1.0"}}, {"uniqueid": "MTK0782:3PDJHANYK6NA5FDN9VM6BOTD194H6W", "current_trial": 80, "dateTime": 1512751564964, "trialdata": {"rt": -1, "stimulus": "<p id=\"stim\">8</p>", "key_press": -1, "trial_type": "single-stim", "trial_index": 80, "time_elapsed": 348628, "internal_node_id": "0.0-60.0-2.0"}}, {"uniqueid": "MTK0782:3PDJHANYK6NA5FDN9VM6BOTD194H6W", "current_trial": 81, "dateTime": 1512751565968, "trialdata": {"rt": -1, "stimulus": "<p id=\"stim\">7</p>", "key_press": -1, "trial_type": "single-stim", "trial_index": 81, "time_elapsed": 349631, "internal_node_id": "0.0-60.0-3.0"}}, {"uniqueid": "MTK0782:3PDJHANYK6NA5FDN9VM6BOTD194H6W", "current_trial": 82, "dateTime": 1512751566974, "trialdata": {"rt": -1, "stimulus": "<p id=\"stim\">6</p>", "key_press": -1, "trial_type": "single-stim", "trial_index": 82, "time_elapsed": 350638, "internal_node_id": "0.0-60.0-4.0"}}, {"uniqueid": "MTK0782:3PDJHANYK6NA5FDN9VM6BOTD194H6W", "current_trial": 83, "dateTime": 1512751567976, "trialdata": {"rt": -1, "stimulus": "<p id=\"stim\">5</p>", "key_press": -1, "trial_type": "single-stim", "trial_index": 83, "time_elapsed": 351640, "internal_node_id": "0.0-60.0-5.0"}}, {"uniqueid": "MTK0782:3PDJHANYK6NA5FDN9VM6BOTD194H6W", "current_trial": 84, "dateTime": 1512751568979, "trialdata": {"rt": -1, "stimulus": "<p id=\"stim\">4</p>", "key_press": -1, "trial_type": "single-stim", "trial_index": 84, "time_elapsed": 352643, "internal_node_id": "0.0-60.0-6.0"}}, {"uniqueid": "MTK0782:3PDJHANYK6NA5FDN9VM6BOTD194H6W", "current_trial": 85, "dateTime": 1512751569988, "trialdata": {"rt": -1, "stimulus": "<p id=\"stim\">3</p>", "key_press": -1, "trial_type": "single-stim", "trial_index": 85, "time_elapsed": 353651, "internal_node_id": "0.0-60.0-7.0"}}, {"uniqueid": "MTK0782:3PDJHANYK6NA5FDN9VM6BOTD194H6W", "current_trial": 86, "dateTime": 1512751570992, "trialdata": {"rt": -1, "stimulus": "<p id=\"stim\">2</p>", "key_press": -1, "trial_type": "single-stim", "trial_index": 86, "time_elapsed": 354656, "internal_node_id": "0.0-60.0-8.0"}}, {"uniqueid": "MTK0782:3PDJHANYK6NA5FDN9VM6BOTD194H6W", "current_trial": 87, "dateTime": 1512751571996, "trialdata": {"rt": -1, "stimulus": "<p id=\"stim\">1</p>", "key_press": -1, "trial_type": "single-stim", "trial_index": 87, "time_elapsed": 355660, "internal_node_id": "0.0-60.0-9.0"}}, {"uniqueid": "MTK0782:3PDJHANYK6NA5FDN9VM6BOTD194H6W", "current_trial": 88, "dateTime": 1512751573500, "trialdata": {"rt": -1, "stimulus": "<p id=\"stim\">+</p>", "key_press": -1, "type": "FIXATION", "trial_type": "single-stim", "trial_index": 88, "time_elapsed": 357163, "internal_node_id": "0.0-61.0-0.0"}}, {"uniqueid": "MTK0782:3PDJHANYK6NA5FDN9VM6BOTD194H6W", "current_trial": 89, "dateTime": 1512751575986, "trialdata": {"rt": -1000, "stimulus": "/static/audio/wordpool/POISON.wav", "key_press": -1, "type": "PRES_AUD", "word": "poison", "wordID": 1095, "conditions": [12, 1600, "a", 12000], "trial": 2, "serialpos": 0, "trial_type": "single-audio", "trial_index": 89, "time_elapsed": 359650, "internal_node_id": "0.0-62.0"}}, {"uniqueid": "MTK0782:3PDJHANYK6NA5FDN9VM6BOTD194H6W", "current_trial": 90, "dateTime": 1512751578521, "trialdata": {"rt": -1000, "stimulus": "/static/audio/wordpool/BRICK.wav", "key_press": -1, "type": "PRES_AUD", "word": "brick", "wordID": 171, "conditions": [12, 1600, "a", 12000], "trial": 2, "serialpos": 1, "trial_type": "single-audio", "trial_index": 90, "time_elapsed": 362185, "internal_node_id": "0.0-63.0"}}, {"uniqueid": "MTK0782:3PDJHANYK6NA5FDN9VM6BOTD194H6W", "current_trial": 91, "dateTime": 1512751581173, "trialdata": {"rt": -1000, "stimulus": "/static/audio/wordpool/TILE.wav", "key_press": -1, "type": "PRES_AUD", "word": "tile", "wordID": 1467, "conditions": [12, 1600, "a", 12000], "trial": 2, "serialpos": 2, "trial_type": "single-audio", "trial_index": 91, "time_elapsed": 364837, "internal_node_id": "0.0-64.0"}}, {"uniqueid": "MTK0782:3PDJHANYK6NA5FDN9VM6BOTD194H6W", "current_trial": 92, "dateTime": 1512751583973, "trialdata": {"rt": -1000, "stimulus": "/static/audio/wordpool/HIGHWAY.wav", "key_press": -1, "type": "PRES_AUD", "word": "highway", "wordID": 706, "conditions": [12, 1600, "a", 12000], "trial": 2, "serialpos": 3, "trial_type": "single-audio", "trial_index": 92, "time_elapsed": 367637, "internal_node_id": "0.0-65.0"}}, {"uniqueid": "MTK0782:3PDJHANYK6NA5FDN9VM6BOTD194H6W", "current_trial": 93, "dateTime": 1512751586581, "trialdata": {"rt": -1000, "stimulus": "/static/audio/wordpool/GLOBE.wav", "key_press": -1, "type": "PRES_AUD", "word": "globe", "wordID": 640, "conditions": [12, 1600, "a", 12000], "trial": 2, "serialpos": 4, "trial_type": "single-audio", "trial_index": 93, "time_elapsed": 370245, "internal_node_id": "0.0-66.0"}}, {"uniqueid": "MTK0782:3PDJHANYK6NA5FDN9VM6BOTD194H6W", "current_trial": 94, "dateTime": 1512751589020, "trialdata": {"rt": -1000, "stimulus": "/static/audio/wordpool/HIKER.wav", "key_press": -1, "type": "PRES_AUD", "word": "hiker", "wordID": 707, "conditions": [12, 1600, "a", 12000], "trial": 2, "serialpos": 5, "trial_type": "single-audio", "trial_index": 94, "time_elapsed": 372684, "internal_node_id": "0.0-67.0"}}, {"uniqueid": "MTK0782:3PDJHANYK6NA5FDN9VM6BOTD194H6W", "current_trial": 95, "dateTime": 1512751591459, "trialdata": {"rt": -1000, "stimulus": "/static/audio/wordpool/LADY.wav", "key_press": -1, "type": "PRES_AUD", "word": "lady", "wordID": 793, "conditions": [12, 1600, "a", 12000], "trial": 2, "serialpos": 6, "trial_type": "single-audio", "trial_index": 95, "time_elapsed": 375123, "internal_node_id": "0.0-68.0"}}, {"uniqueid": "MTK0782:3PDJHANYK6NA5FDN9VM6BOTD194H6W", "current_trial": 96, "dateTime": 1512751594161, "trialdata": {"rt": -1000, "stimulus": "/static/audio/wordpool/DANDRUFF.wav", "key_press": -1, "type": "PRES_AUD", "word": "dandruff", "wordID": 438, "conditions": [12, 1600, "a", 12000], "trial": 2, "serialpos": 7, "trial_type": "single-audio", "trial_index": 96, "time_elapsed": 377825, "internal_node_id": "0.0-69.0"}}, {"uniqueid": "MTK0782:3PDJHANYK6NA5FDN9VM6BOTD194H6W", "current_trial": 97, "dateTime": 1512751596913, "trialdata": {"rt": -1000, "stimulus": "/static/audio/wordpool/ULCER.wav", "key_press": -1, "type": "PRES_AUD", "word": "ulcer", "wordID": 1532, "conditions": [12, 1600, "a", 12000], "trial": 2, "serialpos": 8, "trial_type": "single-audio", "trial_index": 97, "time_elapsed": 380577, "internal_node_id": "0.0-70.0"}}, {"uniqueid": "MTK0782:3PDJHANYK6NA5FDN9VM6BOTD194H6W", "current_trial": 98, "dateTime": 1512751599567, "trialdata": {"rt": -1000, "stimulus": "/static/audio/wordpool/CRITIC.wav", "key_press": -1, "type": "PRES_AUD", "word": "critic", "wordID": 409, "conditions": [12, 1600, "a", 12000], "trial": 2, "serialpos": 9, "trial_type": "single-audio", "trial_index": 98, "time_elapsed": 383231, "internal_node_id": "0.0-71.0"}}, {"uniqueid": "MTK0782:3PDJHANYK6NA5FDN9VM6BOTD194H6W", "current_trial": 99, "dateTime": 1512751602206, "trialdata": {"rt": -1000, "stimulus": "/static/audio/wordpool/WOMAN.wav", "key_press": -1, "type": "PRES_AUD", "word": "woman", "wordID": 1619, "conditions": [12, 1600, "a", 12000], "trial": 2, "serialpos": 10, "trial_type": "single-audio", "trial_index": 99, "time_elapsed": 385870, "internal_node_id": "0.0-72.0"}}, {"uniqueid": "MTK0782:3PDJHANYK6NA5FDN9VM6BOTD194H6W", "current_trial": 100, "dateTime": 1512751604627, "trialdata": {"rt": -1000, "stimulus": "/static/audio/wordpool/ANTLER.wav", "key_press": -1, "type": "PRES_AUD", "word": "antler", "wordID": 28, "conditions": [12, 1600, "a", 12000], "trial": 2, "serialpos": 11, "trial_type": "single-audio", "trial_index": 100, "time_elapsed": 388291, "internal_node_id": "0.0-73.0"}}, {"uniqueid": "MTK0782:3PDJHANYK6NA5FDN9VM6BOTD194H6W", "current_trial": 101, "dateTime": 1512751605932, "trialdata": {"rt": -1, "stimulus": "", "key_press": -1, "type": "PRE_RECALL_DELAY", "trial_type": "single-stim", "trial_index": 101, "time_elapsed": 389596, "internal_node_id": "0.0-74.0-0.0"}}, {"uniqueid": "MTK0782:3PDJHANYK6NA5FDN9VM6BOTD194H6W", "current_trial": 102, "dateTime": 1512751606441, "trialdata": {"rt": -1000, "stimulus": "/static/audio/400Hz.wav", "key_press": -1, "type": "PRE_RECALL_ALERT", "trial_type": "single-audio", "trial_index": 102, "time_elapsed": 390105, "internal_node_id": "0.0-75.0"}}, {"uniqueid": "MTK0782:3PDJHANYK6NA5FDN9VM6BOTD194H6W", "current_trial": 103, "dateTime": 1512751666454, "trialdata": {"rt": [2786, 3875, 4850, 5789, 7505, 8526], "recwords": ["zen", "brick", "tile", "home", "women", "antler"], "type": "FREE_RECALL", "conditions": [12, 1600, "a", 12000], "trial": 2, "trial_type": "free-recall", "trial_index": 103, "time_elapsed": 450108, "internal_node_id": "0.0-76.0-0.0"}}, {"uniqueid": "MTK0782:3PDJHANYK6NA5FDN9VM6BOTD194H6W", "current_trial": 104, "dateTime": 1512751670291, "trialdata": {"rt": 1833, "key_press": 78, "type": "INSTRUCTIONS", "trial_type": "text", "trial_index": 104, "time_elapsed": 453954, "internal_node_id": "0.0-77.0"}}, {"uniqueid": "MTK0782:3PDJHANYK6NA5FDN9VM6BOTD194H6W", "current_trial": 105, "dateTime": 1512751696299, "trialdata": {"rt": [3514, 6413, 9442, 11811, 14017, 17550, 19454, 23919], "responses": ["20", "8", "14", "20", "16", "21", "14", "26"], "num1": [7, 1, 9, 9, 7, 4, 3, 9, 7], "num2": [9, 2, 4, 8, 1, 8, 7, 9, 9], "num3": [5, 5, 1, 3, 8, 9, 4, 8, 7], "type": "DISTRACTOR", "conditions": [24, 1600, "a", 24000], "trial": 3, "trial_type": "math-distractor", "trial_index": 105, "time_elapsed": 479963, "internal_node_id": "0.0-78.0"}}, {"uniqueid": "MTK0782:3PDJHANYK6NA5FDN9VM6BOTD194H6W", "current_trial": 106, "dateTime": 1512751699303, "trialdata": {"rt": -1, "stimulus": "<p id=\"stim\">10</p>", "key_press": -1, "trial_type": "single-stim", "trial_index": 106, "time_elapsed": 482967, "internal_node_id": "0.0-79.0-0.0"}}, {"uniqueid": "MTK0782:3PDJHANYK6NA5FDN9VM6BOTD194H6W", "current_trial": 107, "dateTime": 1512751700306, "trialdata": {"rt": -1, "stimulus": "<p id=\"stim\">9</p>", "key_press": -1, "trial_type": "single-stim", "trial_index": 107, "time_elapsed": 483970, "internal_node_id": "0.0-79.0-1.0"}}, {"uniqueid": "MTK0782:3PDJHANYK6NA5FDN9VM6BOTD194H6W", "current_trial": 108, "dateTime": 1512751701310, "trialdata": {"rt": -1, "stimulus": "<p id=\"stim\">8</p>", "key_press": -1, "trial_type": "single-stim", "trial_index": 108, "time_elapsed": 484974, "internal_node_id": "0.0-79.0-2.0"}}, {"uniqueid": "MTK0782:3PDJHANYK6NA5FDN9VM6BOTD194H6W", "current_trial": 109, "dateTime": 1512751702316, "trialdata": {"rt": -1, "stimulus": "<p id=\"stim\">7</p>", "key_press": -1, "trial_type": "single-stim", "trial_index": 109, "time_elapsed": 485980, "internal_node_id": "0.0-79.0-3.0"}}, {"uniqueid": "MTK0782:3PDJHANYK6NA5FDN9VM6BOTD194H6W", "current_trial": 110, "dateTime": 1512751703323, "trialdata": {"rt": -1, "stimulus": "<p id=\"stim\">6</p>", "key_press": -1, "trial_type": "single-stim", "trial_index": 110, "time_elapsed": 486986, "internal_node_id": "0.0-79.0-4.0"}}, {"uniqueid": "MTK0782:3PDJHANYK6NA5FDN9VM6BOTD194H6W", "current_trial": 111, "dateTime": 1512751704327, "trialdata": {"rt": -1, "stimulus": "<p id=\"stim\">5</p>", "key_press": -1, "trial_type": "single-stim", "trial_index": 111, "time_elapsed": 487991, "internal_node_id": "0.0-79.0-5.0"}}, {"uniqueid": "MTK0782:3PDJHANYK6NA5FDN9VM6BOTD194H6W", "current_trial": 112, "dateTime": 1512751705332, "trialdata": {"rt": -1, "stimulus": "<p id=\"stim\">4</p>", "key_press": -1, "trial_type": "single-stim", "trial_index": 112, "time_elapsed": 488995, "internal_node_id": "0.0-79.0-6.0"}}, {"uniqueid": "MTK0782:3PDJHANYK6NA5FDN9VM6BOTD194H6W", "current_trial": 113, "dateTime": 1512751706337, "trialdata": {"rt": -1, "stimulus": "<p id=\"stim\">3</p>", "key_press": -1, "trial_type": "single-stim", "trial_index": 113, "time_elapsed": 490001, "internal_node_id": "0.0-79.0-7.0"}}, {"uniqueid": "MTK0782:3PDJHANYK6NA5FDN9VM6BOTD194H6W", "current_trial": 114, "dateTime": 1512751707341, "trialdata": {"rt": -1, "stimulus": "<p id=\"stim\">2</p>", "key_press": -1, "trial_type": "single-stim", "trial_index": 114, "time_elapsed": 491005, "internal_node_id": "0.0-79.0-8.0"}}, {"uniqueid": "MTK0782:3PDJHANYK6NA5FDN9VM6BOTD194H6W", "current_trial": 115, "dateTime": 1512751708344, "trialdata": {"rt": -1, "stimulus": "<p id=\"stim\">1</p>", "key_press": -1, "trial_type": "single-stim", "trial_index": 115, "time_elapsed": 492008, "internal_node_id": "0.0-79.0-9.0"}}, {"uniqueid": "MTK0782:3PDJHANYK6NA5FDN9VM6BOTD194H6W", "current_trial": 116, "dateTime": 1512751709848, "trialdata": {"rt": -1, "stimulus": "<p id=\"stim\">+</p>", "key_press": -1, "type": "FIXATION", "trial_type": "single-stim", "trial_index": 116, "time_elapsed": 493512, "internal_node_id": "0.0-80.0-0.0"}}, {"uniqueid": "MTK0782:3PDJHANYK6NA5FDN9VM6BOTD194H6W", "current_trial": 117, "dateTime": 1512751712592, "trialdata": {"rt": -1000, "stimulus": "/static/audio/wordpool/QUEEN.wav", "key_press": -1, "type": "PRES_AUD", "word": "queen", "wordID": 1148, "conditions": [24, 1600, "a", 24000], "trial": 3, "serialpos": 0, "trial_type": "single-audio", "trial_index": 117, "time_elapsed": 496256, "internal_node_id": "0.0-81.0"}}, {"uniqueid": "MTK0782:3PDJHANYK6NA5FDN9VM6BOTD194H6W", "current_trial": 118, "dateTime": 1512751715049, "trialdata": {"rt": -1000, "stimulus": "/static/audio/wordpool/GARDEN.wav", "key_press": -1, "type": "PRES_AUD", "word": "garden", "wordID": 622, "conditions": [24, 1600, "a", 24000], "trial": 3, "serialpos": 1, "trial_type": "single-audio", "trial_index": 118, "time_elapsed": 498713, "internal_node_id": "0.0-82.0"}}, {"uniqueid": "MTK0782:3PDJHANYK6NA5FDN9VM6BOTD194H6W", "current_trial": 119, "dateTime": 1512751717497, "trialdata": {"rt": -1000, "stimulus": "/static/audio/wordpool/LEG.wav", "key_press": -1, "type": "PRES_AUD", "word": "leg", "wordID": 808, "conditions": [24, 1600, "a", 24000], "trial": 3, "serialpos": 2, "trial_type": "single-audio", "trial_index": 119, "time_elapsed": 501161, "internal_node_id": "0.0-83.0"}}, {"uniqueid": "MTK0782:3PDJHANYK6NA5FDN9VM6BOTD194H6W", "current_trial": 120, "dateTime": 1512751720282, "trialdata": {"rt": -1000, "stimulus": "/static/audio/wordpool/WRIST.wav", "key_press": -1, "type": "PRES_AUD", "word": "wrist", "wordID": 1625, "conditions": [24, 1600, "a", 24000], "trial": 3, "serialpos": 3, "trial_type": "single-audio", "trial_index": 120, "time_elapsed": 503946, "internal_node_id": "0.0-84.0"}}, {"uniqueid": "MTK0782:3PDJHANYK6NA5FDN9VM6BOTD194H6W", "current_trial": 121, "dateTime": 1512751723014, "trialdata": {"rt": -1000, "stimulus": "/static/audio/wordpool/PADDLE.wav", "key_press": -1, "type": "PRES_AUD", "word": "paddle", "wordID": 999, "conditions": [24, 1600, "a", 24000], "trial": 3, "serialpos": 4, "trial_type": "single-audio", "trial_index": 121, "time_elapsed": 506678, "internal_node_id": "0.0-85.0"}}, {"uniqueid": "MTK0782:3PDJHANYK6NA5FDN9VM6BOTD194H6W", "current_trial": 122, "dateTime": 1512751725708, "trialdata": {"rt": -1000, "stimulus": "/static/audio/wordpool/FOOT.wav", "key_press": -1, "type": "PRES_AUD", "word": "foot", "wordID": 589, "conditions": [24, 1600, "a", 24000], "trial": 3, "serialpos": 5, "trial_type": "single-audio", "trial_index": 122, "time_elapsed": 509372, "internal_node_id": "0.0-86.0"}}, {"uniqueid": "MTK0782:3PDJHANYK6NA5FDN9VM6BOTD194H6W", "current_trial": 123, "dateTime": 1512751728390, "trialdata": {"rt": -1000, "stimulus": "/static/audio/wordpool/MAMMAL.wav", "key_press": -1, "type": "PRES_AUD", "word": "mammal", "wordID": 860, "conditions": [24, 1600, "a", 24000], "trial": 3, "serialpos": 6, "trial_type": "single-audio", "trial_index": 123, "time_elapsed": 512054, "internal_node_id": "0.0-87.0"}}, {"uniqueid": "MTK0782:3PDJHANYK6NA5FDN9VM6BOTD194H6W", "current_trial": 124, "dateTime": 1512751730857, "trialdata": {"rt": -1000, "stimulus": "/static/audio/wordpool/SHRUB.wav", "key_press": -1, "type": "PRES_AUD", "word": "shrub", "wordID": 1298, "conditions": [24, 1600, "a", 24000], "trial": 3, "serialpos": 7, "trial_type": "single-audio", "trial_index": 124, "time_elapsed": 514521, "internal_node_id": "0.0-88.0"}}, {"uniqueid": "MTK0782:3PDJHANYK6NA5FDN9VM6BOTD194H6W", "current_trial": 125, "dateTime": 1512751733371, "trialdata": {"rt": -1000, "stimulus": "/static/audio/wordpool/SURVEY.wav", "key_press": -1, "type": "PRES_AUD", "word": "survey", "wordID": 1413, "conditions": [24, 1600, "a", 24000], "trial": 3, "serialpos": 8, "trial_type": "single-audio", "trial_index": 125, "time_elapsed": 517035, "internal_node_id": "0.0-89.0"}}, {"uniqueid": "MTK0782:3PDJHANYK6NA5FDN9VM6BOTD194H6W", "current_trial": 126, "dateTime": 1512751736013, "trialdata": {"rt": -1000, "stimulus": "/static/audio/wordpool/FLIPPER.wav", "key_press": -1, "type": "PRES_AUD", "word": "flipper", "wordID": 579, "conditions": [24, 1600, "a", 24000], "trial": 3, "serialpos": 9, "trial_type": "single-audio", "trial_index": 126, "time_elapsed": 519677, "internal_node_id": "0.0-90.0"}}, {"uniqueid": "MTK0782:3PDJHANYK6NA5FDN9VM6BOTD194H6W", "current_trial": 127, "dateTime": 1512751738699, "trialdata": {"rt": -1000, "stimulus": "/static/audio/wordpool/FLAG.wav", "key_press": -1, "type": "PRES_AUD", "word": "flag", "wordID": 572, "conditions": [24, 1600, "a", 24000], "trial": 3, "serialpos": 10, "trial_type": "single-audio", "trial_index": 127, "time_elapsed": 522363, "internal_node_id": "0.0-91.0"}}, {"uniqueid": "MTK0782:3PDJHANYK6NA5FDN9VM6BOTD194H6W", "current_trial": 128, "dateTime": 1512751741450, "trialdata": {"rt": -1000, "stimulus": "/static/audio/wordpool/ATLAS.wav", "key_press": -1, "type": "PRES_AUD", "word": "atlas", "wordID": 52, "conditions": [24, 1600, "a", 24000], "trial": 3, "serialpos": 11, "trial_type": "single-audio", "trial_index": 128, "time_elapsed": 525114, "internal_node_id": "0.0-92.0"}}, {"uniqueid": "MTK0782:3PDJHANYK6NA5FDN9VM6BOTD194H6W", "current_trial": 129, "dateTime": 1512751743951, "trialdata": {"rt": -1000, "stimulus": "/static/audio/wordpool/CELLAR.wav", "key_press": -1, "type": "PRES_AUD", "word": "cellar", "wordID": 266, "conditions": [24, 1600, "a", 24000], "trial": 3, "serialpos": 12, "trial_type": "single-audio", "trial_index": 129, "time_elapsed": 527615, "internal_node_id": "0.0-93.0"}}, {"uniqueid": "MTK0782:3PDJHANYK6NA5FDN9VM6BOTD194H6W", "current_trial": 130, "dateTime": 1512751746683, "trialdata": {"rt": -1000, "stimulus": "/static/audio/wordpool/SCISSORS.wav", "key_press": -1, "type": "PRES_AUD", "word": "scissors", "wordID": 1249, "conditions": [24, 1600, "a", 24000], "trial": 3, "serialpos": 13, "trial_type": "single-audio", "trial_index": 130, "time_elapsed": 530347, "internal_node_id": "0.0-94.0"}}, {"uniqueid": "MTK0782:3PDJHANYK6NA5FDN9VM6BOTD194H6W", "current_trial": 131, "dateTime": 1512751749377, "trialdata": {"rt": -1000, "stimulus": "/static/audio/wordpool/PLAYGROUND.wav", "key_press": -1, "type": "PRES_AUD", "word": "playground", "wordID": 1086, "conditions": [24, 1600, "a", 24000], "trial": 3, "serialpos": 14, "trial_type": "single-audio", "trial_index": 131, "time_elapsed": 533041, "internal_node_id": "0.0-95.0"}}, {"uniqueid": "MTK0782:3PDJHANYK6NA5FDN9VM6BOTD194H6W", "current_trial": 132, "dateTime": 1512751751827, "trialdata": {"rt": -1000, "stimulus": "/static/audio/wordpool/GALLON.wav", "key_press": -1, "type": "PRES_AUD", "word": "gallon", "wordID": 617, "conditions": [24, 1600, "a", 24000], "trial": 3, "serialpos": 15, "trial_type": "single-audio", "trial_index": 132, "time_elapsed": 535491, "internal_node_id": "0.0-96.0"}}, {"uniqueid": "MTK0782:3PDJHANYK6NA5FDN9VM6BOTD194H6W", "current_trial": 133, "dateTime": 1512751754294, "trialdata": {"rt": -1000, "stimulus": "/static/audio/wordpool/POWDER.wav", "key_press": -1, "type": "PRES_AUD", "word": "powder", "wordID": 1116, "conditions": [24, 1600, "a", 24000], "trial": 3, "serialpos": 16, "trial_type": "single-audio", "trial_index": 133, "time_elapsed": 537958, "internal_node_id": "0.0-97.0"}}, {"uniqueid": "MTK0782:3PDJHANYK6NA5FDN9VM6BOTD194H6W", "current_trial": 134, "dateTime": 1512751756843, "trialdata": {"rt": -1000, "stimulus": "/static/audio/wordpool/RAZOR.wav", "key_press": -1, "type": "PRES_AUD", "word": "razor", "wordID": 1170, "conditions": [24, 1600, "a", 24000], "trial": 3, "serialpos": 17, "trial_type": "single-audio", "trial_index": 134, "time_elapsed": 540507, "internal_node_id": "0.0-98.0"}}, {"uniqueid": "MTK0782:3PDJHANYK6NA5FDN9VM6BOTD194H6W", "current_trial": 135, "dateTime": 1512751759511, "trialdata": {"rt": -1000, "stimulus": "/static/audio/wordpool/SERVER.wav", "key_press": -1, "type": "PRES_AUD", "word": "server", "wordID": 1271, "conditions": [24, 1600, "a", 24000], "trial": 3, "serialpos": 18, "trial_type": "single-audio", "trial_index": 135, "time_elapsed": 543175, "internal_node_id": "0.0-99.0"}}, {"uniqueid": "MTK0782:3PDJHANYK6NA5FDN9VM6BOTD194H6W", "current_trial": 136, "dateTime": 1512751762293, "trialdata": {"rt": -1000, "stimulus": "/static/audio/wordpool/CRAB.wav", "key_press": -1, "type": "PRES_AUD", "word": "crab", "wordID": 396, "conditions": [24, 1600, "a", 24000], "trial": 3, "serialpos": 19, "trial_type": "single-audio", "trial_index": 136, "time_elapsed": 545957, "internal_node_id": "0.0-100.0"}}, {"uniqueid": "MTK0782:3PDJHANYK6NA5FDN9VM6BOTD194H6W", "current_trial": 137, "dateTime": 1512751764856, "trialdata": {"rt": -1000, "stimulus": "/static/audio/wordpool/SCALLOP.wav", "key_press": -1, "type": "PRES_AUD", "word": "scallop", "wordID": 1241, "conditions": [24, 1600, "a", 24000], "trial": 3, "serialpos": 20, "trial_type": "single-audio", "trial_index": 137, "time_elapsed": 548520, "internal_node_id": "0.0-101.0"}}, {"uniqueid": "MTK0782:3PDJHANYK6NA5FDN9VM6BOTD194H6W", "current_trial": 138, "dateTime": 1512751767636, "trialdata": {"rt": -1000, "stimulus": "/static/audio/wordpool/GIFT.wav", "key_press": -1, "type": "PRES_AUD", "word": "gift", "wordID": 634, "conditions": [24, 1600, "a", 24000], "trial": 3, "serialpos": 21, "trial_type": "single-audio", "trial_index": 138, "time_elapsed": 551300, "internal_node_id": "0.0-102.0"}}, {"uniqueid": "MTK0782:3PDJHANYK6NA5FDN9VM6BOTD194H6W", "current_trial": 139, "dateTime": 1512751770296, "trialdata": {"rt": -1000, "stimulus": "/static/audio/wordpool/TREAT.wav", "key_press": -1, "type": "PRES_AUD", "word": "treat", "wordID": 1500, "conditions": [24, 1600, "a", 24000], "trial": 3, "serialpos": 22, "trial_type": "single-audio", "trial_index": 139, "time_elapsed": 553960, "internal_node_id": "0.0-103.0"}}, {"uniqueid": "MTK0782:3PDJHANYK6NA5FDN9VM6BOTD194H6W", "current_trial": 140, "dateTime": 1512751772966, "trialdata": {"rt": -1000, "stimulus": "/static/audio/wordpool/DASHBOARD.wav", "key_press": -1, "type": "PRES_AUD", "word": "dashboard", "wordID": 440, "conditions": [24, 1600, "a", 24000], "trial": 3, "serialpos": 23, "trial_type": "single-audio", "trial_index": 140, "time_elapsed": 556630, "internal_node_id": "0.0-104.0"}}, {"uniqueid": "MTK0782:3PDJHANYK6NA5FDN9VM6BOTD194H6W", "current_trial": 141, "dateTime": 1512751774356, "trialdata": {"rt": -1, "stimulus": "", "key_press": -1, "type": "PRE_RECALL_DELAY", "trial_type": "single-stim", "trial_index": 141, "time_elapsed": 558020, "internal_node_id": "0.0-105.0-0.0"}}, {"uniqueid": "MTK0782:3PDJHANYK6NA5FDN9VM6BOTD194H6W", "current_trial": 142, "dateTime": 1512751774871, "trialdata": {"rt": -1000, "stimulus": "/static/audio/400Hz.wav", "key_press": -1, "type": "PRE_RECALL_ALERT", "trial_type": "single-audio", "trial_index": 142, "time_elapsed": 558535, "internal_node_id": "0.0-106.0"}}, {"uniqueid": "MTK0782:3PDJHANYK6NA5FDN9VM6BOTD194H6W", "current_trial": 143, "dateTime": 1512751834896, "trialdata": {"rt": [5294, 7860, 9340, 11667, 13228, 16343], "recwords": ["crab", "server", "treat", "dashboard", "garden", "wrist"], "type": "FREE_RECALL", "conditions": [24, 1600, "a", 24000], "trial": 3, "trial_type": "free-recall", "trial_index": 143, "time_elapsed": 618541, "internal_node_id": "0.0-107.0-0.0"}}, {"uniqueid": "MTK0782:3PDJHANYK6NA5FDN9VM6BOTD194H6W", "current_trial": 144, "dateTime": 1512751845426, "trialdata": {"rt": 8523, "key_press": 74, "type": "INSTRUCTIONS", "trial_type": "text", "trial_index": 144, "time_elapsed": 629089, "internal_node_id": "0.0-108.0"}}, {"uniqueid": "MTK0782:3PDJHANYK6NA5FDN9VM6BOTD194H6W", "current_trial": 145, "dateTime": 1512751871440, "trialdata": {"rt": [3055, 6530, 10415], "responses": ["16", "15", "26"], "num1": [2, 4, 9, 9], "num2": [9, 4, 9, 4], "num3": [5, 7, 8, 7], "type": "DISTRACTOR", "conditions": [12, 800, "v", 24000], "trial": 4, "trial_type": "math-distractor", "trial_index": 145, "time_elapsed": 655104, "internal_node_id": "0.0-109.0"}}, {"uniqueid": "MTK0782:3PDJHANYK6NA5FDN9VM6BOTD194H6W", "current_trial": 146, "dateTime": 1512751874447, "trialdata": {"rt": -1, "stimulus": "<p id=\"stim\">10</p>", "key_press": -1, "trial_type": "single-stim", "trial_index": 146, "time_elapsed": 658111, "internal_node_id": "0.0-110.0-0.0"}}, {"uniqueid": "MTK0782:3PDJHANYK6NA5FDN9VM6BOTD194H6W", "current_trial": 147, "dateTime": 1512751875453, "trialdata": {"rt": -1, "stimulus": "<p id=\"stim\">9</p>", "key_press": -1, "trial_type": "single-stim", "trial_index": 147, "time_elapsed": 659116, "internal_node_id": "0.0-110.0-1.0"}}, {"uniqueid": "MTK0782:3PDJHANYK6NA5FDN9VM6BOTD194H6W", "current_trial": 148, "dateTime": 1512751876460, "trialdata": {"rt": -1, "stimulus": "<p id=\"stim\">8</p>", "key_press": -1, "trial_type": "single-stim", "trial_index": 148, "time_elapsed": 660123, "internal_node_id": "0.0-110.0-2.0"}}, {"uniqueid": "MTK0782:3PDJHANYK6NA5FDN9VM6BOTD194H6W", "current_trial": 149, "dateTime": 1512751877463, "trialdata": {"rt": -1, "stimulus": "<p id=\"stim\">7</p>", "key_press": -1, "trial_type": "single-stim", "trial_index": 149, "time_elapsed": 661127, "internal_node_id": "0.0-110.0-3.0"}}, {"uniqueid": "MTK0782:3PDJHANYK6NA5FDN9VM6BOTD194H6W", "current_trial": 150, "dateTime": 1512751878471, "trialdata": {"rt": -1, "stimulus": "<p id=\"stim\">6</p>", "key_press": -1, "trial_type": "single-stim", "trial_index": 150, "time_elapsed": 662135, "internal_node_id": "0.0-110.0-4.0"}}, {"uniqueid": "MTK0782:3PDJHANYK6NA5FDN9VM6BOTD194H6W", "current_trial": 151, "dateTime": 1512751879476, "trialdata": {"rt": -1, "stimulus": "<p id=\"stim\">5</p>", "key_press": -1, "trial_type": "single-stim", "trial_index": 151, "time_elapsed": 663140, "internal_node_id": "0.0-110.0-5.0"}}, {"uniqueid": "MTK0782:3PDJHANYK6NA5FDN9VM6BOTD194H6W", "current_trial": 152, "dateTime": 1512751880480, "trialdata": {"rt": -1, "stimulus": "<p id=\"stim\">4</p>", "key_press": -1, "trial_type": "single-stim", "trial_index": 152, "time_elapsed": 664144, "internal_node_id": "0.0-110.0-6.0"}}, {"uniqueid": "MTK0782:3PDJHANYK6NA5FDN9VM6BOTD194H6W", "current_trial": 153, "dateTime": 1512751881487, "trialdata": {"rt": -1, "stimulus": "<p id=\"stim\">3</p>", "key_press": -1, "trial_type": "single-stim", "trial_index": 153, "time_elapsed": 665150, "internal_node_id": "0.0-110.0-7.0"}}, {"uniqueid": "MTK0782:3PDJHANYK6NA5FDN9VM6BOTD194H6W", "current_trial": 154, "dateTime": 1512751882493, "trialdata": {"rt": -1, "stimulus": "<p id=\"stim\">2</p>", "key_press": -1, "trial_type": "single-stim", "trial_index": 154, "time_elapsed": 666157, "internal_node_id": "0.0-110.0-8.0"}}, {"uniqueid": "MTK0782:3PDJHANYK6NA5FDN9VM6BOTD194H6W", "current_trial": 155, "dateTime": 1512751883498, "trialdata": {"rt": -1, "stimulus": "<p id=\"stim\">1</p>", "key_press": -1, "trial_type": "single-stim", "trial_index": 155, "time_elapsed": 667162, "internal_node_id": "0.0-110.0-9.0"}}, {"uniqueid": "MTK0782:3PDJHANYK6NA5FDN9VM6BOTD194H6W", "current_trial": 156, "dateTime": 1512751885002, "trialdata": {"rt": -1, "stimulus": "<p id=\"stim\">+</p>", "key_press": -1, "type": "FIXATION", "trial_type": "single-stim", "trial_index": 156, "time_elapsed": 668666, "internal_node_id": "0.0-111.0-0.0"}}, {"uniqueid": "MTK0782:3PDJHANYK6NA5FDN9VM6BOTD194H6W", "current_trial": 157, "dateTime": 1512751885807, "trialdata": {"rt": -1, "stimulus": "<p id=\"stim\">BEAKER</p>", "key_press": -1, "type": "PRES_VIS", "word": "beaker", "wordID": 103, "conditions": [12, 800, "v", 24000], "trial": 4, "serialpos": 0, "trial_type": "single-stim", "trial_index": 157, "time_elapsed": 669470, "internal_node_id": "0.0-112.0"}}, {"uniqueid": "MTK0782:3PDJHANYK6NA5FDN9VM6BOTD194H6W", "current_trial": 158, "dateTime": 1512751887505, "trialdata": {"rt": -1, "stimulus": "<p id=\"stim\">ASIA</p>", "key_press": -1, "type": "PRES_VIS", "word": "asia", "wordID": 45, "conditions": [12, 800, "v", 24000], "trial": 4, "serialpos": 1, "trial_type": "single-stim", "trial_index": 158, "time_elapsed": 671168, "internal_node_id": "0.0-113.0"}}, {"uniqueid": "MTK0782:3PDJHANYK6NA5FDN9VM6BOTD194H6W", "current_trial": 159, "dateTime": 1512751889365, "trialdata": {"rt": -1, "stimulus": "<p id=\"stim\">JURY</p>", "key_press": -1, "type": "PRES_VIS", "word": "jury", "wordID": 765, "conditions": [12, 800, "v", 24000], "trial": 4, "serialpos": 2, "trial_type": "single-stim", "trial_index": 159, "time_elapsed": 673028, "internal_node_id": "0.0-114.0"}}, {"uniqueid": "MTK0782:3PDJHANYK6NA5FDN9VM6BOTD194H6W", "current_trial": 160, "dateTime": 1512751891143, "trialdata": {"rt": -1, "stimulus": "<p id=\"stim\">LOVER</p>", "key_press": -1, "type": "PRES_VIS", "word": "lover", "wordID": 845, "conditions": [12, 800, "v", 24000], "trial": 4, "serialpos": 3, "trial_type": "single-stim", "trial_index": 160, "time_elapsed": 674807, "internal_node_id": "0.0-115.0"}}, {"uniqueid": "MTK0782:3PDJHANYK6NA5FDN9VM6BOTD194H6W", "current_trial": 161, "dateTime": 1512751892754, "trialdata": {"rt": -1, "stimulus": "<p id=\"stim\">HUSBAND</p>", "key_press": -1, "type": "PRES_VIS", "word": "husband", "wordID": 727, "conditions": [12, 800, "v", 24000], "trial": 4, "serialpos": 4, "trial_type": "single-stim", "trial_index": 161, "time_elapsed": 676417, "internal_node_id": "0.0-116.0"}}, {"uniqueid": "MTK0782:3PDJHANYK6NA5FDN9VM6BOTD194H6W", "current_trial": 162, "dateTime": 1512751894578, "trialdata": {"rt": -1, "stimulus": "<p id=\"stim\">UNCLE</p>", "key_press": -1, "type": "PRES_VIS", "word": "uncle", "wordID": 1535, "conditions": [12, 800, "v", 24000], "trial": 4, "serialpos": 5, "trial_type": "single-stim", "trial_index": 162, "time_elapsed": 678242, "internal_node_id": "0.0-117.0"}}, {"uniqueid": "MTK0782:3PDJHANYK6NA5FDN9VM6BOTD194H6W", "current_trial": 163, "dateTime": 1512751896575, "trialdata": {"rt": -1, "stimulus": "<p id=\"stim\">PUPPY</p>", "key_press": -1, "type": "PRES_VIS", "word": "puppy", "wordID": 1143, "conditions": [12, 800, "v", 24000], "trial": 4, "serialpos": 6, "trial_type": "single-stim", "trial_index": 163, "time_elapsed": 680239, "internal_node_id": "0.0-118.0"}}, {"uniqueid": "MTK0782:3PDJHANYK6NA5FDN9VM6BOTD194H6W", "current_trial": 164, "dateTime": 1512751898335, "trialdata": {"rt": -1, "stimulus": "<p id=\"stim\">CIGAR</p>", "key_press": -1, "type": "PRES_VIS", "word": "cigar", "wordID": 307, "conditions": [12, 800, "v", 24000], "trial": 4, "serialpos": 7, "trial_type": "single-stim", "trial_index": 164, "time_elapsed": 681998, "internal_node_id": "0.0-119.0"}}, {"uniqueid": "MTK0782:3PDJHANYK6NA5FDN9VM6BOTD194H6W", "current_trial": 165, "dateTime": 1512751899987, "trialdata": {"rt": -1, "stimulus": "<p id=\"stim\">BANQUET</p>", "key_press": -1, "type": "PRES_VIS", "word": "banquet", "wordID": 85, "conditions": [12, 800, "v", 24000], "trial": 4, "serialpos": 8, "trial_type": "single-stim", "trial_index": 165, "time_elapsed": 683651, "internal_node_id": "0.0-120.0"}}, {"uniqueid": "MTK0782:3PDJHANYK6NA5FDN9VM6BOTD194H6W", "current_trial": 166, "dateTime": 1512751901722, "trialdata": {"rt": -1, "stimulus": "<p id=\"stim\">DOLPHIN</p>", "key_press": -1, "type": "PRES_VIS", "word": "dolphin", "wordID": 482, "conditions": [12, 800, "v", 24000], "trial": 4, "serialpos": 9, "trial_type": "single-stim", "trial_index": 166, "time_elapsed": 685386, "internal_node_id": "0.0-121.0"}}, {"uniqueid": "MTK0782:3PDJHANYK6NA5FDN9VM6BOTD194H6W", "current_trial": 167, "dateTime": 1512751903517, "trialdata": {"rt": -1, "stimulus": "<p id=\"stim\">STOVE</p>", "key_press": -1, "type": "PRES_VIS", "word": "stove", "wordID": 1387, "conditions": [12, 800, "v", 24000], "trial": 4, "serialpos": 10, "trial_type": "single-stim", "trial_index": 167, "time_elapsed": 687177, "internal_node_id": "0.0-122.0"}}, {"uniqueid": "MTK0782:3PDJHANYK6NA5FDN9VM6BOTD194H6W", "current_trial": 168, "dateTime": 1512751905289, "trialdata": {"rt": -1, "stimulus": "<p id=\"stim\">BOYFRIEND</p>", "key_press": -1, "type": "PRES_VIS", "word": "boyfriend", "wordID": 161, "conditions": [12, 800, "v", 24000], "trial": 4, "serialpos": 11, "trial_type": "single-stim", "trial_index": 168, "time_elapsed": 688953, "internal_node_id": "0.0-123.0"}}, {"uniqueid": "MTK0782:3PDJHANYK6NA5FDN9VM6BOTD194H6W", "current_trial": 169, "dateTime": 1512751907553, "trialdata": {"rt": -1, "stimulus": "", "key_press": -1, "type": "PRE_RECALL_DELAY", "trial_type": "single-stim", "trial_index": 169, "time_elapsed": 691216, "internal_node_id": "0.0-124.0-0.0"}}, {"uniqueid": "MTK0782:3PDJHANYK6NA5FDN9VM6BOTD194H6W", "current_trial": 170, "dateTime": 1512751908058, "trialdata": {"rt": -1000, "stimulus": "/static/audio/400Hz.wav", "key_press": -1, "type": "PRE_RECALL_ALERT", "trial_type": "single-audio", "trial_index": 170, "time_elapsed": 691721, "internal_node_id": "0.0-125.0"}}, {"uniqueid": "MTK0782:3PDJHANYK6NA5FDN9VM6BOTD194H6W", "current_trial": 171, "dateTime": 1512751968080, "trialdata": {"rt": [2617, 3998, 5079, 7149], "recwords": ["husband", "uncle", "jury", "dolphin"], "type": "FREE_RECALL", "conditions": [12, 800, "v", 24000], "trial": 4, "trial_type": "free-recall", "trial_index": 171, "time_elapsed": 751731, "internal_node_id": "0.0-126.0-0.0"}}, {"uniqueid": "MTK0782:3PDJHANYK6NA5FDN9VM6BOTD194H6W", "current_trial": 172, "dateTime": 1512751971841, "trialdata": {"rt": 1757, "key_press": 74, "type": "INSTRUCTIONS", "trial_type": "text", "trial_index": 172, "time_elapsed": 755505, "internal_node_id": "0.0-127.0"}}, {"uniqueid": "MTK0782:3PDJHANYK6NA5FDN9VM6BOTD194H6W", "current_trial": 173, "dateTime": 1512751985853, "trialdata": {"rt": [3967, 7229, 10614], "responses": ["19", "17", "10"], "num1": [7, 3, 3, 1], "num2": [9, 5, 3, 6], "num3": [3, 9, 4, 8], "type": "DISTRACTOR", "conditions": [12, 800, "a", 12000], "trial": 5, "trial_type": "math-distractor", "trial_index": 173, "time_elapsed": 769516, "internal_node_id": "0.0-128.0"}}, {"uniqueid": "MTK0782:3PDJHANYK6NA5FDN9VM6BOTD194H6W", "current_trial": 174, "dateTime": 1512751988856, "trialdata": {"rt": -1, "stimulus": "<p id=\"stim\">10</p>", "key_press": -1, "trial_type": "single-stim", "trial_index": 174, "time_elapsed": 772520, "internal_node_id": "0.0-129.0-0.0"}}, {"uniqueid": "MTK0782:3PDJHANYK6NA5FDN9VM6BOTD194H6W", "current_trial": 175, "dateTime": 1512751989865, "trialdata": {"rt": -1, "stimulus": "<p id=\"stim\">9</p>", "key_press": -1, "trial_type": "single-stim", "trial_index": 175, "time_elapsed": 773524, "internal_node_id": "0.0-129.0-1.0"}}, {"uniqueid": "MTK0782:3PDJHANYK6NA5FDN9VM6BOTD194H6W", "current_trial": 176, "dateTime": 1512751990869, "trialdata": {"rt": -1, "stimulus": "<p id=\"stim\">8</p>", "key_press": -1, "trial_type": "single-stim", "trial_index": 176, "time_elapsed": 774533, "internal_node_id": "0.0-129.0-2.0"}}, {"uniqueid": "MTK0782:3PDJHANYK6NA5FDN9VM6BOTD194H6W", "current_trial": 177, "dateTime": 1512751991872, "trialdata": {"rt": -1, "stimulus": "<p id=\"stim\">7</p>", "key_press": -1, "trial_type": "single-stim", "trial_index": 177, "time_elapsed": 775536, "internal_node_id": "0.0-129.0-3.0"}}, {"uniqueid": "MTK0782:3PDJHANYK6NA5FDN9VM6BOTD194H6W", "current_trial": 178, "dateTime": 1512751992878, "trialdata": {"rt": -1, "stimulus": "<p id=\"stim\">6</p>", "key_press": -1, "trial_type": "single-stim", "trial_index": 178, "time_elapsed": 776540, "internal_node_id": "0.0-129.0-4.0"}}, {"uniqueid": "MTK0782:3PDJHANYK6NA5FDN9VM6BOTD194H6W", "current_trial": 179, "dateTime": 1512751993883, "trialdata": {"rt": -1, "stimulus": "<p id=\"stim\">5</p>", "key_press": -1, "trial_type": "single-stim", "trial_index": 179, "time_elapsed": 777546, "internal_node_id": "0.0-129.0-5.0"}}, {"uniqueid": "MTK0782:3PDJHANYK6NA5FDN9VM6BOTD194H6W", "current_trial": 180, "dateTime": 1512751994885, "trialdata": {"rt": -1, "stimulus": "<p id=\"stim\">4</p>", "key_press": -1, "trial_type": "single-stim", "trial_index": 180, "time_elapsed": 778549, "internal_node_id": "0.0-129.0-6.0"}}, {"uniqueid": "MTK0782:3PDJHANYK6NA5FDN9VM6BOTD194H6W", "current_trial": 181, "dateTime": 1512751995891, "trialdata": {"rt": -1, "stimulus": "<p id=\"stim\">3</p>", "key_press": -1, "trial_type": "single-stim", "trial_index": 181, "time_elapsed": 779555, "internal_node_id": "0.0-129.0-7.0"}}, {"uniqueid": "MTK0782:3PDJHANYK6NA5FDN9VM6BOTD194H6W", "current_trial": 182, "dateTime": 1512751996895, "trialdata": {"rt": -1, "stimulus": "<p id=\"stim\">2</p>", "key_press": -1, "trial_type": "single-stim", "trial_index": 182, "time_elapsed": 780559, "internal_node_id": "0.0-129.0-8.0"}}, {"uniqueid": "MTK0782:3PDJHANYK6NA5FDN9VM6BOTD194H6W", "current_trial": 183, "dateTime": 1512751997901, "trialdata": {"rt": -1, "stimulus": "<p id=\"stim\">1</p>", "key_press": -1, "trial_type": "single-stim", "trial_index": 183, "time_elapsed": 781564, "internal_node_id": "0.0-129.0-9.0"}}, {"uniqueid": "MTK0782:3PDJHANYK6NA5FDN9VM6BOTD194H6W", "current_trial": 184, "dateTime": 1512751999405, "trialdata": {"rt": -1, "stimulus": "<p id=\"stim\">+</p>", "key_press": -1, "type": "FIXATION", "trial_type": "single-stim", "trial_index": 184, "time_elapsed": 783068, "internal_node_id": "0.0-130.0-0.0"}}, {"uniqueid": "MTK0782:3PDJHANYK6NA5FDN9VM6BOTD194H6W", "current_trial": 185, "dateTime": 1512752001409, "trialdata": {"rt": -1000, "stimulus": "/static/audio/wordpool/INMATE.wav", "key_press": -1, "type": "PRES_AUD", "word": "inmate", "wordID": 737, "conditions": [12, 800, "a", 12000], "trial": 5, "serialpos": 0, "trial_type": "single-audio", "trial_index": 185, "time_elapsed": 785073, "internal_node_id": "0.0-131.0"}}, {"uniqueid": "MTK0782:3PDJHANYK6NA5FDN9VM6BOTD194H6W", "current_trial": 186, "dateTime": 1512752003098, "trialdata": {"rt": -1000, "stimulus": "/static/audio/wordpool/CLOUD.wav", "key_press": -1, "type": "PRES_AUD", "word": "cloud", "wordID": 327, "conditions": [12, 800, "a", 12000], "trial": 5, "serialpos": 1, "trial_type": "single-audio", "trial_index": 186, "time_elapsed": 786762, "internal_node_id": "0.0-132.0"}}, {"uniqueid": "MTK0782:3PDJHANYK6NA5FDN9VM6BOTD194H6W", "current_trial": 187, "dateTime": 1512752005068, "trialdata": {"rt": -1000, "stimulus": "/static/audio/wordpool/THREAD.wav", "key_press": -1, "type": "PRES_AUD", "word": "thread", "wordID": 1459, "conditions": [12, 800, "a", 12000], "trial": 5, "serialpos": 2, "trial_type": "single-audio", "trial_index": 187, "time_elapsed": 788732, "internal_node_id": "0.0-133.0"}}, {"uniqueid": "MTK0782:3PDJHANYK6NA5FDN9VM6BOTD194H6W", "current_trial": 188, "dateTime": 1512752006831, "trialdata": {"rt": -1000, "stimulus": "/static/audio/wordpool/AIRPORT.wav", "key_press": -1, "type": "PRES_AUD", "word": "airport", "wordID": 12, "conditions": [12, 800, "a", 12000], "trial": 5, "serialpos": 3, "trial_type": "single-audio", "trial_index": 188, "time_elapsed": 790495, "internal_node_id": "0.0-134.0"}}, {"uniqueid": "MTK0782:3PDJHANYK6NA5FDN9VM6BOTD194H6W", "current_trial": 189, "dateTime": 1512752008644, "trialdata": {"rt": -1000, "stimulus": "/static/audio/wordpool/KIDNEY.wav", "key_press": -1, "type": "PRES_AUD", "word": "kidney", "wordID": 775, "conditions": [12, 800, "a", 12000], "trial": 5, "serialpos": 4, "trial_type": "single-audio", "trial_index": 189, "time_elapsed": 792308, "internal_node_id": "0.0-135.0"}}, {"uniqueid": "MTK0782:3PDJHANYK6NA5FDN9VM6BOTD194H6W", "current_trial": 190, "dateTime": 1512752010347, "trialdata": {"rt": -1000, "stimulus": "/static/audio/wordpool/HERO.wav", "key_press": -1, "type": "PRES_AUD", "word": "hero", "wordID": 705, "conditions": [12, 800, "a", 12000], "trial": 5, "serialpos": 5, "trial_type": "single-audio", "trial_index": 190, "time_elapsed": 794011, "internal_node_id": "0.0-136.0"}}, {"uniqueid": "MTK0782:3PDJHANYK6NA5FDN9VM6BOTD194H6W", "current_trial": 191, "dateTime": 1512752012206, "trialdata": {"rt": -1000, "stimulus": "/static/audio/wordpool/BISON.wav", "key_press": -1, "type": "PRES_AUD", "word": "bison", "wordID": 130, "conditions": [12, 800, "a", 12000], "trial": 5, "serialpos": 6, "trial_type": "single-audio", "trial_index": 191, "time_elapsed": 795870, "internal_node_id": "0.0-137.0"}}, {"uniqueid": "MTK0782:3PDJHANYK6NA5FDN9VM6BOTD194H6W", "current_trial": 192, "dateTime": 1512752013926, "trialdata": {"rt": -1000, "stimulus": "/static/audio/wordpool/SIDEWALK.wav", "key_press": -1, "type": "PRES_AUD", "word": "sidewalk", "wordID": 1302, "conditions": [12, 800, "a", 12000], "trial": 5, "serialpos": 7, "trial_type": "single-audio", "trial_index": 192, "time_elapsed": 797590, "internal_node_id": "0.0-138.0"}}, {"uniqueid": "MTK0782:3PDJHANYK6NA5FDN9VM6BOTD194H6W", "current_trial": 193, "dateTime": 1512752015851, "trialdata": {"rt": -1000, "stimulus": "/static/audio/wordpool/MARROW.wav", "key_press": -1, "type": "PRES_AUD", "word": "marrow", "wordID": 871, "conditions": [12, 800, "a", 12000], "trial": 5, "serialpos": 8, "trial_type": "single-audio", "trial_index": 193, "time_elapsed": 799515, "internal_node_id": "0.0-139.0"}}, {"uniqueid": "MTK0782:3PDJHANYK6NA5FDN9VM6BOTD194H6W", "current_trial": 194, "dateTime": 1512752017501, "trialdata": {"rt": -1000, "stimulus": "/static/audio/wordpool/KNAPSACK.wav", "key_press": -1, "type": "PRES_AUD", "word": "knapsack", "wordID": 782, "conditions": [12, 800, "a", 12000], "trial": 5, "serialpos": 9, "trial_type": "single-audio", "trial_index": 194, "time_elapsed": 801165, "internal_node_id": "0.0-140.0"}}, {"uniqueid": "MTK0782:3PDJHANYK6NA5FDN9VM6BOTD194H6W", "current_trial": 195, "dateTime": 1512752019145, "trialdata": {"rt": -1000, "stimulus": "/static/audio/wordpool/SPIDER.wav", "key_press": -1, "type": "PRES_AUD", "word": "spider", "wordID": 1350, "conditions": [12, 800, "a", 12000], "trial": 5, "serialpos": 10, "trial_type": "single-audio", "trial_index": 195, "time_elapsed": 802809, "internal_node_id": "0.0-141.0"}}, {"uniqueid": "MTK0782:3PDJHANYK6NA5FDN9VM6BOTD194H6W", "current_trial": 196, "dateTime": 1512752020956, "trialdata": {"rt": -1000, "stimulus": "/static/audio/wordpool/WASP.wav", "key_press": -1, "type": "PRES_AUD", "word": "wasp", "wordID": 1592, "conditions": [12, 800, "a", 12000], "trial": 5, "serialpos": 11, "trial_type": "single-audio", "trial_index": 196, "time_elapsed": 804620, "internal_node_id": "0.0-142.0"}}, {"uniqueid": "MTK0782:3PDJHANYK6NA5FDN9VM6BOTD194H6W", "current_trial": 197, "dateTime": 1512752022161, "trialdata": {"rt": -1, "stimulus": "", "key_press": -1, "type": "PRE_RECALL_DELAY", "trial_type": "single-stim", "trial_index": 197, "time_elapsed": 805825, "internal_node_id": "0.0-143.0-0.0"}}, {"uniqueid": "MTK0782:3PDJHANYK6NA5FDN9VM6BOTD194H6W", "current_trial": 198, "dateTime": 1512752022675, "trialdata": {"rt": -1000, "stimulus": "/static/audio/400Hz.wav", "key_press": -1, "type": "PRE_RECALL_ALERT", "trial_type": "single-audio", "trial_index": 198, "time_elapsed": 806339, "internal_node_id": "0.0-144.0"}}, {"uniqueid": "MTK0782:3PDJHANYK6NA5FDN9VM6BOTD194H6W", "current_trial": 199, "dateTime": 1512752082720, "trialdata": {"rt": [2341, 3470, 6482, 7776, 17204], "recwords": ["spider", "wasp", "sidewalk", "moss", "napsack"], "type": "FREE_RECALL", "conditions": [12, 800, "a", 12000], "trial": 5, "trial_type": "free-recall", "trial_index": 199, "time_elapsed": 866373, "internal_node_id": "0.0-145.0-0.0"}}, {"uniqueid": "MTK0782:3PDJHANYK6NA5FDN9VM6BOTD194H6W", "current_trial": 200, "dateTime": 1512752086410, "trialdata": {"rt": 1686, "key_press": 74, "type": "INSTRUCTIONS", "trial_type": "text", "trial_index": 200, "time_elapsed": 870074, "internal_node_id": "0.0-146.0"}}, {"uniqueid": "MTK0782:3PDJHANYK6NA5FDN9VM6BOTD194H6W", "current_trial": 201, "dateTime": 1512752100423, "trialdata": {"rt": [2891, 4855, 7164, 9583, 11870], "responses": ["8", "18", "15", "13", "9"], "num1": [2, 7, 9, 4, 2, 4], "num2": [1, 3, 4, 3, 1, 1], "num3": [5, 8, 2, 6, 6, 8], "type": "DISTRACTOR", "conditions": [24, 800, "a", 12000], "trial": 6, "trial_type": "math-distractor", "trial_index": 201, "time_elapsed": 884087, "internal_node_id": "0.0-147.0"}}, {"uniqueid": "MTK0782:3PDJHANYK6NA5FDN9VM6BOTD194H6W", "current_trial": 202, "dateTime": 1512752103429, "trialdata": {"rt": -1, "stimulus": "<p id=\"stim\">10</p>", "key_press": -1, "trial_type": "single-stim", "trial_index": 202, "time_elapsed": 887093, "internal_node_id": "0.0-148.0-0.0"}}, {"uniqueid": "MTK0782:3PDJHANYK6NA5FDN9VM6BOTD194H6W", "current_trial": 203, "dateTime": 1512752104434, "trialdata": {"rt": -1, "stimulus": "<p id=\"stim\">9</p>", "key_press": -1, "trial_type": "single-stim", "trial_index": 203, "time_elapsed": 888097, "internal_node_id": "0.0-148.0-1.0"}}, {"uniqueid": "MTK0782:3PDJHANYK6NA5FDN9VM6BOTD194H6W", "current_trial": 204, "dateTime": 1512752105438, "trialdata": {"rt": -1, "stimulus": "<p id=\"stim\">8</p>", "key_press": -1, "trial_type": "single-stim", "trial_index": 204, "time_elapsed": 889101, "internal_node_id": "0.0-148.0-2.0"}}, {"uniqueid": "MTK0782:3PDJHANYK6NA5FDN9VM6BOTD194H6W", "current_trial": 205, "dateTime": 1512752106441, "trialdata": {"rt": -1, "stimulus": "<p id=\"stim\">7</p>", "key_press": -1, "trial_type": "single-stim", "trial_index": 205, "time_elapsed": 890104, "internal_node_id": "0.0-148.0-3.0"}}, {"uniqueid": "MTK0782:3PDJHANYK6NA5FDN9VM6BOTD194H6W", "current_trial": 206, "dateTime": 1512752107445, "trialdata": {"rt": -1, "stimulus": "<p id=\"stim\">6</p>", "key_press": -1, "trial_type": "single-stim", "trial_index": 206, "time_elapsed": 891109, "internal_node_id": "0.0-148.0-4.0"}}, {"uniqueid": "MTK0782:3PDJHANYK6NA5FDN9VM6BOTD194H6W", "current_trial": 207, "dateTime": 1512752108450, "trialdata": {"rt": -1, "stimulus": "<p id=\"stim\">5</p>", "key_press": -1, "trial_type": "single-stim", "trial_index": 207, "time_elapsed": 892113, "internal_node_id": "0.0-148.0-5.0"}}, {"uniqueid": "MTK0782:3PDJHANYK6NA5FDN9VM6BOTD194H6W", "current_trial": 208, "dateTime": 1512752109453, "trialdata": {"rt": -1, "stimulus": "<p id=\"stim\">4</p>", "key_press": -1, "trial_type": "single-stim", "trial_index": 208, "time_elapsed": 893116, "internal_node_id": "0.0-148.0-6.0"}}, {"uniqueid": "MTK0782:3PDJHANYK6NA5FDN9VM6BOTD194H6W", "current_trial": 209, "dateTime": 1512752110460, "trialdata": {"rt": -1, "stimulus": "<p id=\"stim\">3</p>", "key_press": -1, "trial_type": "single-stim", "trial_index": 209, "time_elapsed": 894123, "internal_node_id": "0.0-148.0-7.0"}}, {"uniqueid": "MTK0782:3PDJHANYK6NA5FDN9VM6BOTD194H6W", "current_trial": 210, "dateTime": 1512752111467, "trialdata": {"rt": -1, "stimulus": "<p id=\"stim\">2</p>", "key_press": -1, "trial_type": "single-stim", "trial_index": 210, "time_elapsed": 895130, "internal_node_id": "0.0-148.0-8.0"}}, {"uniqueid": "MTK0782:3PDJHANYK6NA5FDN9VM6BOTD194H6W", "current_trial": 211, "dateTime": 1512752112471, "trialdata": {"rt": -1, "stimulus": "<p id=\"stim\">1</p>", "key_press": -1, "trial_type": "single-stim", "trial_index": 211, "time_elapsed": 896134, "internal_node_id": "0.0-148.0-9.0"}}, {"uniqueid": "MTK0782:3PDJHANYK6NA5FDN9VM6BOTD194H6W", "current_trial": 212, "dateTime": 1512752113974, "trialdata": {"rt": -1, "stimulus": "<p id=\"stim\">+</p>", "key_press": -1, "type": "FIXATION", "trial_type": "single-stim", "trial_index": 212, "time_elapsed": 897638, "internal_node_id": "0.0-149.0-0.0"}}, {"uniqueid": "MTK0782:3PDJHANYK6NA5FDN9VM6BOTD194H6W", "current_trial": 213, "dateTime": 1512752115731, "trialdata": {"rt": -1000, "stimulus": "/static/audio/wordpool/STREAM.wav", "key_press": -1, "type": "PRES_AUD", "word": "stream", "wordID": 1391, "conditions": [24, 800, "a", 12000], "trial": 6, "serialpos": 0, "trial_type": "single-audio", "trial_index": 213, "time_elapsed": 899394, "internal_node_id": "0.0-150.0"}}, {"uniqueid": "MTK0782:3PDJHANYK6NA5FDN9VM6BOTD194H6W", "current_trial": 214, "dateTime": 1512752117491, "trialdata": {"rt": -1000, "stimulus": "/static/audio/wordpool/PROTON.wav", "key_press": -1, "type": "PRES_AUD", "word": "proton", "wordID": 1131, "conditions": [24, 800, "a", 12000], "trial": 6, "serialpos": 1, "trial_type": "single-audio", "trial_index": 214, "time_elapsed": 901155, "internal_node_id": "0.0-151.0"}}, {"uniqueid": "MTK0782:3PDJHANYK6NA5FDN9VM6BOTD194H6W", "current_trial": 215, "dateTime": 1512752119356, "trialdata": {"rt": -1000, "stimulus": "/static/audio/wordpool/SKILLET.wav", "key_press": -1, "type": "PRES_AUD", "word": "skillet", "wordID": 1316, "conditions": [24, 800, "a", 12000], "trial": 6, "serialpos": 2, "trial_type": "single-audio", "trial_index": 215, "time_elapsed": 903017, "internal_node_id": "0.0-152.0"}}, {"uniqueid": "MTK0782:3PDJHANYK6NA5FDN9VM6BOTD194H6W", "current_trial": 216, "dateTime": 1512752121163, "trialdata": {"rt": -1000, "stimulus": "/static/audio/wordpool/NURSE.wav", "key_press": -1, "type": "PRES_AUD", "word": "nurse", "wordID": 962, "conditions": [24, 800, "a", 12000], "trial": 6, "serialpos": 3, "trial_type": "single-audio", "trial_index": 216, "time_elapsed": 904827, "internal_node_id": "0.0-153.0"}}, {"uniqueid": "MTK0782:3PDJHANYK6NA5FDN9VM6BOTD194H6W", "current_trial": 217, "dateTime": 1512752122823, "trialdata": {"rt": -1000, "stimulus": "/static/audio/wordpool/TURTLE.wav", "key_press": -1, "type": "PRES_AUD", "word": "turtle", "wordID": 1521, "conditions": [24, 800, "a", 12000], "trial": 6, "serialpos": 4, "trial_type": "single-audio", "trial_index": 217, "time_elapsed": 906487, "internal_node_id": "0.0-154.0"}}, {"uniqueid": "MTK0782:3PDJHANYK6NA5FDN9VM6BOTD194H6W", "current_trial": 218, "dateTime": 1512752124543, "trialdata": {"rt": -1000, "stimulus": "/static/audio/wordpool/CHAPEL.wav", "key_press": -1, "type": "PRES_AUD", "word": "chapel", "wordID": 279, "conditions": [24, 800, "a", 12000], "trial": 6, "serialpos": 5, "trial_type": "single-audio", "trial_index": 218, "time_elapsed": 908207, "internal_node_id": "0.0-155.0"}}, {"uniqueid": "MTK0782:3PDJHANYK6NA5FDN9VM6BOTD194H6W", "current_trial": 219, "dateTime": 1512752126206, "trialdata": {"rt": -1000, "stimulus": "/static/audio/wordpool/FIREPLACE.wav", "key_press": -1, "type": "PRES_AUD", "word": "fireplace", "wordID": 569, "conditions": [24, 800, "a", 12000], "trial": 6, "serialpos": 6, "trial_type": "single-audio", "trial_index": 219, "time_elapsed": 909870, "internal_node_id": "0.0-156.0"}}, {"uniqueid": "MTK0782:3PDJHANYK6NA5FDN9VM6BOTD194H6W", "current_trial": 220, "dateTime": 1512752127840, "trialdata": {"rt": -1000, "stimulus": "/static/audio/wordpool/GRILL.wav", "key_press": -1, "type": "PRES_AUD", "word": "grill", "wordID": 660, "conditions": [24, 800, "a", 12000], "trial": 6, "serialpos": 7, "trial_type": "single-audio", "trial_index": 220, "time_elapsed": 911503, "internal_node_id": "0.0-157.0"}}, {"uniqueid": "MTK0782:3PDJHANYK6NA5FDN9VM6BOTD194H6W", "current_trial": 221, "dateTime": 1512752129535, "trialdata": {"rt": -1000, "stimulus": "/static/audio/wordpool/SISTER.wav", "key_press": -1, "type": "PRES_AUD", "word": "sister", "wordID": 1311, "conditions": [24, 800, "a", 12000], "trial": 6, "serialpos": 8, "trial_type": "single-audio", "trial_index": 221, "time_elapsed": 913198, "internal_node_id": "0.0-158.0"}}, {"uniqueid": "MTK0782:3PDJHANYK6NA5FDN9VM6BOTD194H6W", "current_trial": 222, "dateTime": 1512752131444, "trialdata": {"rt": -1000, "stimulus": "/static/audio/wordpool/COUSIN.wav", "key_press": -1, "type": "PRES_AUD", "word": "cousin", "wordID": 391, "conditions": [24, 800, "a", 12000], "trial": 6, "serialpos": 9, "trial_type": "single-audio", "trial_index": 222, "time_elapsed": 915108, "internal_node_id": "0.0-159.0"}}, {"uniqueid": "MTK0782:3PDJHANYK6NA5FDN9VM6BOTD194H6W", "current_trial": 223, "dateTime": 1512752133321, "trialdata": {"rt": -1000, "stimulus": "/static/audio/wordpool/CRIB.wav", "key_press": -1, "type": "PRES_AUD", "word": "crib", "wordID": 406, "conditions": [24, 800, "a", 12000], "trial": 6, "serialpos": 10, "trial_type": "single-audio", "trial_index": 223, "time_elapsed": 916984, "internal_node_id": "0.0-160.0"}}, {"uniqueid": "MTK0782:3PDJHANYK6NA5FDN9VM6BOTD194H6W", "current_trial": 224, "dateTime": 1512752135175, "trialdata": {"rt": -1000, "stimulus": "/static/audio/wordpool/FOX.wav", "key_press": -1, "type": "PRES_AUD", "word": "fox", "wordID": 597, "conditions": [24, 800, "a", 12000], "trial": 6, "serialpos": 11, "trial_type": "single-audio", "trial_index": 224, "time_elapsed": 918839, "internal_node_id": "0.0-161.0"}}, {"uniqueid": "MTK0782:3PDJHANYK6NA5FDN9VM6BOTD194H6W", "current_trial": 225, "dateTime": 1512752136811, "trialdata": {"rt": -1000, "stimulus": "/static/audio/wordpool/SUPPER.wav", "key_press": -1, "type": "PRES_AUD", "word": "supper", "wordID": 1410, "conditions": [24, 800, "a", 12000], "trial": 6, "serialpos": 12, "trial_type": "single-audio", "trial_index": 225, "time_elapsed": 920475, "internal_node_id": "0.0-162.0"}}, {"uniqueid": "MTK0782:3PDJHANYK6NA5FDN9VM6BOTD194H6W", "current_trial": 226, "dateTime": 1512752138708, "trialdata": {"rt": -1000, "stimulus": "/static/audio/wordpool/CANDY.wav", "key_press": -1, "type": "PRES_AUD", "word": "candy", "wordID": 229, "conditions": [24, 800, "a", 12000], "trial": 6, "serialpos": 13, "trial_type": "single-audio", "trial_index": 226, "time_elapsed": 922372, "internal_node_id": "0.0-163.0"}}, {"uniqueid": "MTK0782:3PDJHANYK6NA5FDN9VM6BOTD194H6W", "current_trial": 227, "dateTime": 1512752140448, "trialdata": {"rt": -1000, "stimulus": "/static/audio/wordpool/SPOOL.wav", "key_press": -1, "type": "PRES_AUD", "word": "spool", "wordID": 1355, "conditions": [24, 800, "a", 12000], "trial": 6, "serialpos": 14, "trial_type": "single-audio", "trial_index": 227, "time_elapsed": 924111, "internal_node_id": "0.0-164.0"}}, {"uniqueid": "MTK0782:3PDJHANYK6NA5FDN9VM6BOTD194H6W", "current_trial": 228, "dateTime": 1512752142181, "trialdata": {"rt": -1000, "stimulus": "/static/audio/wordpool/ROD.wav", "key_press": -1, "type": "PRES_AUD", "word": "rod", "wordID": 1202, "conditions": [24, 800, "a", 12000], "trial": 6, "serialpos": 15, "trial_type": "single-audio", "trial_index": 228, "time_elapsed": 925845, "internal_node_id": "0.0-165.0"}}, {"uniqueid": "MTK0782:3PDJHANYK6NA5FDN9VM6BOTD194H6W", "current_trial": 229, "dateTime": 1512752143962, "trialdata": {"rt": -1000, "stimulus": "/static/audio/wordpool/ROBBER.wav", "key_press": -1, "type": "PRES_AUD", "word": "robber", "wordID": 1196, "conditions": [24, 800, "a", 12000], "trial": 6, "serialpos": 16, "trial_type": "single-audio", "trial_index": 229, "time_elapsed": 927626, "internal_node_id": "0.0-166.0"}}, {"uniqueid": "MTK0782:3PDJHANYK6NA5FDN9VM6BOTD194H6W", "current_trial": 230, "dateTime": 1512752145966, "trialdata": {"rt": -1000, "stimulus": "/static/audio/wordpool/LUNCH.wav", "key_press": -1, "type": "PRES_AUD", "word": "lunch", "wordID": 848, "conditions": [24, 800, "a", 12000], "trial": 6, "serialpos": 17, "trial_type": "single-audio", "trial_index": 230, "time_elapsed": 929626, "internal_node_id": "0.0-167.0"}}, {"uniqueid": "MTK0782:3PDJHANYK6NA5FDN9VM6BOTD194H6W", "current_trial": 231, "dateTime": 1512752147966, "trialdata": {"rt": -1000, "stimulus": "/static/audio/wordpool/PASTA.wav", "key_press": -1, "type": "PRES_AUD", "word": "pasta", "wordID": 1020, "conditions": [24, 800, "a", 12000], "trial": 6, "serialpos": 18, "trial_type": "single-audio", "trial_index": 231, "time_elapsed": 931630, "internal_node_id": "0.0-168.0"}}, {"uniqueid": "MTK0782:3PDJHANYK6NA5FDN9VM6BOTD194H6W", "current_trial": 232, "dateTime": 1512752149727, "trialdata": {"rt": -1000, "stimulus": "/static/audio/wordpool/BLACKBOARD.wav", "key_press": -1, "type": "PRES_AUD", "word": "blackboard", "wordID": 132, "conditions": [24, 800, "a", 12000], "trial": 6, "serialpos": 19, "trial_type": "single-audio", "trial_index": 232, "time_elapsed": 933390, "internal_node_id": "0.0-169.0"}}, {"uniqueid": "MTK0782:3PDJHANYK6NA5FDN9VM6BOTD194H6W", "current_trial": 233, "dateTime": 1512752151615, "trialdata": {"rt": -1000, "stimulus": "/static/audio/wordpool/DRAWING.wav", "key_press": -1, "type": "PRES_AUD", "word": "drawing", "wordID": 493, "conditions": [24, 800, "a", 12000], "trial": 6, "serialpos": 20, "trial_type": "single-audio", "trial_index": 233, "time_elapsed": 935279, "internal_node_id": "0.0-170.0"}}, {"uniqueid": "MTK0782:3PDJHANYK6NA5FDN9VM6BOTD194H6W", "current_trial": 234, "dateTime": 1512752153241, "trialdata": {"rt": -1000, "stimulus": "/static/audio/wordpool/ZIPPER.wav", "key_press": -1, "type": "PRES_AUD", "word": "zipper", "wordID": 1635, "conditions": [24, 800, "a", 12000], "trial": 6, "serialpos": 21, "trial_type": "single-audio", "trial_index": 234, "time_elapsed": 936905, "internal_node_id": "0.0-171.0"}}, {"uniqueid": "MTK0782:3PDJHANYK6NA5FDN9VM6BOTD194H6W", "current_trial": 235, "dateTime": 1512752154887, "trialdata": {"rt": -1000, "stimulus": "/static/audio/wordpool/HOUND.wav", "key_press": -1, "type": "PRES_AUD", "word": "hound", "wordID": 723, "conditions": [24, 800, "a", 12000], "trial": 6, "serialpos": 22, "trial_type": "single-audio", "trial_index": 235, "time_elapsed": 938551, "internal_node_id": "0.0-172.0"}}, {"uniqueid": "MTK0782:3PDJHANYK6NA5FDN9VM6BOTD194H6W", "current_trial": 236, "dateTime": 1512752156796, "trialdata": {"rt": -1000, "stimulus": "/static/audio/wordpool/PISTON.wav", "key_press": -1, "type": "PRES_AUD", "word": "piston", "wordID": 1075, "conditions": [24, 800, "a", 12000], "trial": 6, "serialpos": 23, "trial_type": "single-audio", "trial_index": 236, "time_elapsed": 940460, "internal_node_id": "0.0-173.0"}}, {"uniqueid": "MTK0782:3PDJHANYK6NA5FDN9VM6BOTD194H6W", "current_trial": 237, "dateTime": 1512752158061, "trialdata": {"rt": -1, "stimulus": "", "key_press": -1, "type": "PRE_RECALL_DELAY", "trial_type": "single-stim", "trial_index": 237, "time_elapsed": 941725, "internal_node_id": "0.0-174.0-0.0"}}, {"uniqueid": "MTK0782:3PDJHANYK6NA5FDN9VM6BOTD194H6W", "current_trial": 238, "dateTime": 1512752158572, "trialdata": {"rt": -1000, "stimulus": "/static/audio/400Hz.wav", "key_press": -1, "type": "PRE_RECALL_ALERT", "trial_type": "single-audio", "trial_index": 238, "time_elapsed": 942236, "internal_node_id": "0.0-175.0"}}, {"uniqueid": "MTK0782:3PDJHANYK6NA5FDN9VM6BOTD194H6W", "current_trial": 239, "dateTime": 1512752218584, "trialdata": {"rt": [2210, 4251, 5457, 8687, 10437], "recwords": ["fox", "fox", "supper", "hound", "piston"], "type": "FREE_RECALL", "conditions": [24, 800, "a", 12000], "trial": 6, "trial_type": "free-recall", "trial_index": 239, "time_elapsed": 1002239, "internal_node_id": "0.0-176.0-0.0"}}, {"uniqueid": "MTK0782:3PDJHANYK6NA5FDN9VM6BOTD194H6W", "current_trial": 240, "dateTime": 1512752221937, "trialdata": {"rt": 1350, "key_press": 74, "type": "INSTRUCTIONS", "trial_type": "text", "trial_index": 240, "time_elapsed": 1005600, "internal_node_id": "0.0-177.0"}}, {"uniqueid": "MTK0782:3PDJHANYK6NA5FDN9VM6BOTD194H6W", "current_trial": 241, "dateTime": 1512752247945, "trialdata": {"rt": [2190, 4344, 5923, 8519, 11584, 14932, 19672, 22098], "responses": ["7", "12", "8", "20", "19", "17", "24", "13"], "num1": [5, 5, 5, 3, 7, 4, 8, 2, 1], "num2": [1, 3, 2, 8, 6, 8, 8, 8, 6], "num3": [1, 4, 1, 9, 6, 5, 8, 3, 8], "type": "DISTRACTOR", "conditions": [24, 800, "v", 24000], "trial": 7, "trial_type": "math-distractor", "trial_index": 241, "time_elapsed": 1031608, "internal_node_id": "0.0-178.0"}}, {"uniqueid": "MTK0782:3PDJHANYK6NA5FDN9VM6BOTD194H6W", "current_trial": 242, "dateTime": 1512752250955, "trialdata": {"rt": -1, "stimulus": "<p id=\"stim\">10</p>", "key_press": -1, "trial_type": "single-stim", "trial_index": 242, "time_elapsed": 1034619, "internal_node_id": "0.0-179.0-0.0"}}, {"uniqueid": "MTK0782:3PDJHANYK6NA5FDN9VM6BOTD194H6W", "current_trial": 243, "dateTime": 1512752251958, "trialdata": {"rt": -1, "stimulus": "<p id=\"stim\">9</p>", "key_press": -1, "trial_type": "single-stim", "trial_index": 243, "time_elapsed": 1035622, "internal_node_id": "0.0-179.0-1.0"}}, {"uniqueid": "MTK0782:3PDJHANYK6NA5FDN9VM6BOTD194H6W", "current_trial": 244, "dateTime": 1512752252963, "trialdata": {"rt": -1, "stimulus": "<p id=\"stim\">8</p>", "key_press": -1, "trial_type": "single-stim", "trial_index": 244, "time_elapsed": 1036627, "internal_node_id": "0.0-179.0-2.0"}}, {"uniqueid": "MTK0782:3PDJHANYK6NA5FDN9VM6BOTD194H6W", "current_trial": 245, "dateTime": 1512752253964, "trialdata": {"rt": -1, "stimulus": "<p id=\"stim\">7</p>", "key_press": -1, "trial_type": "single-stim", "trial_index": 245, "time_elapsed": 1037628, "internal_node_id": "0.0-179.0-3.0"}}, {"uniqueid": "MTK0782:3PDJHANYK6NA5FDN9VM6BOTD194H6W", "current_trial": 246, "dateTime": 1512752254968, "trialdata": {"rt": -1, "stimulus": "<p id=\"stim\">6</p>", "key_press": -1, "trial_type": "single-stim", "trial_index": 246, "time_elapsed": 1038631, "internal_node_id": "0.0-179.0-4.0"}}, {"uniqueid": "MTK0782:3PDJHANYK6NA5FDN9VM6BOTD194H6W", "current_trial": 247, "dateTime": 1512752255971, "trialdata": {"rt": -1, "stimulus": "<p id=\"stim\">5</p>", "key_press": -1, "trial_type": "single-stim", "trial_index": 247, "time_elapsed": 1039635, "internal_node_id": "0.0-179.0-5.0"}}, {"uniqueid": "MTK0782:3PDJHANYK6NA5FDN9VM6BOTD194H6W", "current_trial": 248, "dateTime": 1512752256974, "trialdata": {"rt": -1, "stimulus": "<p id=\"stim\">4</p>", "key_press": -1, "trial_type": "single-stim", "trial_index": 248, "time_elapsed": 1040637, "internal_node_id": "0.0-179.0-6.0"}}, {"uniqueid": "MTK0782:3PDJHANYK6NA5FDN9VM6BOTD194H6W", "current_trial": 249, "dateTime": 1512752257978, "trialdata": {"rt": -1, "stimulus": "<p id=\"stim\">3</p>", "key_press": -1, "trial_type": "single-stim", "trial_index": 249, "time_elapsed": 1041641, "internal_node_id": "0.0-179.0-7.0"}}, {"uniqueid": "MTK0782:3PDJHANYK6NA5FDN9VM6BOTD194H6W", "current_trial": 250, "dateTime": 1512752258982, "trialdata": {"rt": -1, "stimulus": "<p id=\"stim\">2</p>", "key_press": -1, "trial_type": "single-stim", "trial_index": 250, "time_elapsed": 1042646, "internal_node_id": "0.0-179.0-8.0"}}, {"uniqueid": "MTK0782:3PDJHANYK6NA5FDN9VM6BOTD194H6W", "current_trial": 251, "dateTime": 1512752259985, "trialdata": {"rt": -1, "stimulus": "<p id=\"stim\">1</p>", "key_press": -1, "trial_type": "single-stim", "trial_index": 251, "time_elapsed": 1043648, "internal_node_id": "0.0-179.0-9.0"}}, {"uniqueid": "MTK0782:3PDJHANYK6NA5FDN9VM6BOTD194H6W", "current_trial": 252, "dateTime": 1512752261488, "trialdata": {"rt": -1, "stimulus": "<p id=\"stim\">+</p>", "key_press": -1, "type": "FIXATION", "trial_type": "single-stim", "trial_index": 252, "time_elapsed": 1045151, "internal_node_id": "0.0-180.0-0.0"}}, {"uniqueid": "MTK0782:3PDJHANYK6NA5FDN9VM6BOTD194H6W", "current_trial": 253, "dateTime": 1512752262291, "trialdata": {"rt": -1, "stimulus": "<p id=\"stim\">WAGON</p>", "key_press": -1, "type": "PRES_VIS", "word": "wagon", "wordID": 1577, "conditions": [24, 800, "v", 24000], "trial": 7, "serialpos": 0, "trial_type": "single-stim", "trial_index": 253, "time_elapsed": 1045955, "internal_node_id": "0.0-181.0"}}, {"uniqueid": "MTK0782:3PDJHANYK6NA5FDN9VM6BOTD194H6W", "current_trial": 254, "dateTime": 1512752264241, "trialdata": {"rt": -1, "stimulus": "<p id=\"stim\">LIZARD</p>", "key_press": -1, "type": "PRES_VIS", "word": "lizard", "wordID": 833, "conditions": [24, 800, "v", 24000], "trial": 7, "serialpos": 1, "trial_type": "single-stim", "trial_index": 254, "time_elapsed": 1047905, "internal_node_id": "0.0-182.0"}}, {"uniqueid": "MTK0782:3PDJHANYK6NA5FDN9VM6BOTD194H6W", "current_trial": 255, "dateTime": 1512752265863, "trialdata": {"rt": -1, "stimulus": "<p id=\"stim\">PENGUIN</p>", "key_press": -1, "type": "PRES_VIS", "word": "penguin", "wordID": 1043, "conditions": [24, 800, "v", 24000], "trial": 7, "serialpos": 2, "trial_type": "single-stim", "trial_index": 255, "time_elapsed": 1049526, "internal_node_id": "0.0-183.0"}}, {"uniqueid": "MTK0782:3PDJHANYK6NA5FDN9VM6BOTD194H6W", "current_trial": 256, "dateTime": 1512752267570, "trialdata": {"rt": -1, "stimulus": "<p id=\"stim\">PIGEON</p>", "key_press": -1, "type": "PRES_VIS", "word": "pigeon", "wordID": 1064, "conditions": [24, 800, "v", 24000], "trial": 7, "serialpos": 3, "trial_type": "single-stim", "trial_index": 256, "time_elapsed": 1051234, "internal_node_id": "0.0-184.0"}}, {"uniqueid": "MTK0782:3PDJHANYK6NA5FDN9VM6BOTD194H6W", "current_trial": 257, "dateTime": 1512752269411, "trialdata": {"rt": -1, "stimulus": "<p id=\"stim\">TRACTOR</p>", "key_press": -1, "type": "PRES_VIS", "word": "tractor", "wordID": 1492, "conditions": [24, 800, "v", 24000], "trial": 7, "serialpos": 4, "trial_type": "single-stim", "trial_index": 257, "time_elapsed": 1053075, "internal_node_id": "0.0-185.0"}}, {"uniqueid": "MTK0782:3PDJHANYK6NA5FDN9VM6BOTD194H6W", "current_trial": 258, "dateTime": 1512752271294, "trialdata": {"rt": -1, "stimulus": "<p id=\"stim\">FOREHEAD</p>", "key_press": -1, "type": "PRES_VIS", "word": "forehead", "wordID": 591, "conditions": [24, 800, "v", 24000], "trial": 7, "serialpos": 5, "trial_type": "single-stim", "trial_index": 258, "time_elapsed": 1054958, "internal_node_id": "0.0-186.0"}}, {"uniqueid": "MTK0782:3PDJHANYK6NA5FDN9VM6BOTD194H6W", "current_trial": 259, "dateTime": 1512752272973, "trialdata": {"rt": -1, "stimulus": "<p id=\"stim\">PALACE</p>", "key_press": -1, "type": "PRES_VIS", "word": "palace", "wordID": 1005, "conditions": [24, 800, "v", 24000], "trial": 7, "serialpos": 6, "trial_type": "single-stim", "trial_index": 259, "time_elapsed": 1056636, "internal_node_id": "0.0-187.0"}}, {"uniqueid": "MTK0782:3PDJHANYK6NA5FDN9VM6BOTD194H6W", "current_trial": 260, "dateTime": 1512752274934, "trialdata": {"rt": -1, "stimulus": "<p id=\"stim\">SPONGE</p>", "key_press": -1, "type": "PRES_VIS", "word": "sponge", "wordID": 1354, "conditions": [24, 800, "v", 24000], "trial": 7, "serialpos": 7, "trial_type": "single-stim", "trial_index": 260, "time_elapsed": 1058597, "internal_node_id": "0.0-188.0"}}, {"uniqueid": "MTK0782:3PDJHANYK6NA5FDN9VM6BOTD194H6W", "current_trial": 261, "dateTime": 1512752276597, "trialdata": {"rt": -1, "stimulus": "<p id=\"stim\">LILY</p>", "key_press": -1, "type": "PRES_VIS", "word": "lily", "wordID": 820, "conditions": [24, 800, "v", 24000], "trial": 7, "serialpos": 8, "trial_type": "single-stim", "trial_index": 261, "time_elapsed": 1060260, "internal_node_id": "0.0-189.0"}}, {"uniqueid": "MTK0782:3PDJHANYK6NA5FDN9VM6BOTD194H6W", "current_trial": 262, "dateTime": 1512752278567, "trialdata": {"rt": -1, "stimulus": "<p id=\"stim\">BANJO</p>", "key_press": -1, "type": "PRES_VIS", "word": "banjo", "wordID": 81, "conditions": [24, 800, "v", 24000], "trial": 7, "serialpos": 9, "trial_type": "single-stim", "trial_index": 262, "time_elapsed": 1062231, "internal_node_id": "0.0-190.0"}}, {"uniqueid": "MTK0782:3PDJHANYK6NA5FDN9VM6BOTD194H6W", "current_trial": 263, "dateTime": 1512752280524, "trialdata": {"rt": -1, "stimulus": "<p id=\"stim\">SLIDE</p>", "key_press": -1, "type": "PRES_VIS", "word": "slide", "wordID": 1325, "conditions": [24, 800, "v", 24000], "trial": 7, "serialpos": 10, "trial_type": "single-stim", "trial_index": 263, "time_elapsed": 1064188, "internal_node_id": "0.0-191.0"}}, {"uniqueid": "MTK0782:3PDJHANYK6NA5FDN9VM6BOTD194H6W", "current_trial": 264, "dateTime": 1512752282222, "trialdata": {"rt": -1, "stimulus": "<p id=\"stim\">BUG</p>", "key_press": -1, "type": "PRES_VIS", "word": "bug", "wordID": 186, "conditions": [24, 800, "v", 24000], "trial": 7, "serialpos": 11, "trial_type": "single-stim", "trial_index": 264, "time_elapsed": 1065884, "internal_node_id": "0.0-192.0"}}, {"uniqueid": "MTK0782:3PDJHANYK6NA5FDN9VM6BOTD194H6W", "current_trial": 265, "dateTime": 1512752284044, "trialdata": {"rt": -1, "stimulus": "<p id=\"stim\">CREVICE</p>", "key_press": -1, "type": "PRES_VIS", "word": "crevice", "wordID": 404, "conditions": [24, 800, "v", 24000], "trial": 7, "serialpos": 12, "trial_type": "single-stim", "trial_index": 265, "time_elapsed": 1067708, "internal_node_id": "0.0-193.0"}}, {"uniqueid": "MTK0782:3PDJHANYK6NA5FDN9VM6BOTD194H6W", "current_trial": 266, "dateTime": 1512752285676, "trialdata": {"rt": -1, "stimulus": "<p id=\"stim\">CHIPMUNK</p>", "key_press": -1, "type": "PRES_VIS", "word": "chipmunk", "wordID": 303, "conditions": [24, 800, "v", 24000], "trial": 7, "serialpos": 13, "trial_type": "single-stim", "trial_index": 266, "time_elapsed": 1069340, "internal_node_id": "0.0-194.0"}}, {"uniqueid": "MTK0782:3PDJHANYK6NA5FDN9VM6BOTD194H6W", "current_trial": 267, "dateTime": 1512752287629, "trialdata": {"rt": -1, "stimulus": "<p id=\"stim\">DIVER</p>", "key_press": -1, "type": "PRES_VIS", "word": "diver", "wordID": 475, "conditions": [24, 800, "v", 24000], "trial": 7, "serialpos": 14, "trial_type": "single-stim", "trial_index": 267, "time_elapsed": 1071289, "internal_node_id": "0.0-195.0"}}, {"uniqueid": "MTK0782:3PDJHANYK6NA5FDN9VM6BOTD194H6W", "current_trial": 268, "dateTime": 1512752289414, "trialdata": {"rt": -1, "stimulus": "<p id=\"stim\">GRAPE</p>", "key_press": -1, "type": "PRES_VIS", "word": "grape", "wordID": 653, "conditions": [24, 800, "v", 24000], "trial": 7, "serialpos": 15, "trial_type": "single-stim", "trial_index": 268, "time_elapsed": 1073078, "internal_node_id": "0.0-196.0"}}, {"uniqueid": "MTK0782:3PDJHANYK6NA5FDN9VM6BOTD194H6W", "current_trial": 269, "dateTime": 1512752291183, "trialdata": {"rt": -1, "stimulus": "<p id=\"stim\">PIGMENT</p>", "key_press": -1, "type": "PRES_VIS", "word": "pigment", "wordID": 1065, "conditions": [24, 800, "v", 24000], "trial": 7, "serialpos": 16, "trial_type": "single-